block_type,condition,img_name,trials.thisRepN,trials.thisTrialN,trials.thisN,trials.thisIndex,instruction_text.started,instruction_text.stopped,key_resp.keys,key_resp.rt,key_resp.started,key_resp.stopped,scanner_t.keys,scanner_t.rt,scanner_t.started,scanner_t.stopped,fixation_wait_for_t.started,fixation_wait_for_t.stopped,real_timestamp_trial_start,image.started,image.stopped,fixation.started,fixation.stopped,repeat_response.keys,repeat_response.started,repeat_response.stopped,fixation_null.started,fixation_null.stopped,repeat_response.rt,participant,run,date,expName,psychopyVersion,frameRate,
,,,,,,,90.47331820000545,None,space,31.261024600011297,90.47331820000545,None,,,,,,,,,,,,,,,,,,1,0001,2021_Jun_17_1339,localizer,2021.1.3,60.00520844634695,
block_start,scrambled,scrambled004.bmp,0,0,0,0,,,,,,,t,15.322220900008688,121.77808329998516,None,121.77808329998516,None,2021-06-17-13:39:52.645059,137.14141270000255,137.4543815999932,137.14141270000255,None,None,137.14141270000255,None,137.9386466600059,None,,1,0001,2021_Jun_17_1339,localizer,2021.1.3,60.00520844634695,
block,scrambled,scrambled024.bmp,0,1,1,1,,,,,,,None,,137.9386466600059,None,137.9386466600059,None,2021-06-17-13:39:53.465942,137.94159159998526,138.25385440001264,137.94159159998526,None,None,137.94159159998526,None,138.7553421599965,None,,1,0001,2021_Jun_17_1339,localizer,2021.1.3,60.00520844634695,
block,scrambled,scrambled060.bmp,0,2,2,2,,,,,,,None,,138.7553421599965,None,138.7553421599965,None,2021-06-17-13:39:54.279859,138.7553256000101,139.06126570000197,138.7553256000101,None,None,138.7553256000101,None,139.55441976000438,None,,1,0001,2021_Jun_17_1339,localizer,2021.1.3,60.00520844634695,
block,scrambled,scrambled006.bmp,0,3,3,3,,,,,,,None,,139.55441976000438,None,139.55441976000438,None,2021-06-17-13:39:55.079991,139.55516489999718,139.85466159999487,139.55516489999718,139.55516489999718,None,139.55516489999718,139.55516489999718,140.35603185998625,None,,1,0001,2021_Jun_17_1339,localizer,2021.1.3,60.00520844634695,
block,scrambled,scrambled030.bmp,0,4,4,4,,,,,,,None,,140.35603185998625,None,140.35603185998625,None,2021-06-17-13:39:55.885344,140.36074100001133,140.671657400002,140.36074100001133,140.36074100001133,None,140.36074100001133,140.36074100001133,141.1722014599887,None,,1,0001,2021_Jun_17_1339,localizer,2021.1.3,60.00520844634695,
block,scrambled,scrambled072.bmp,0,5,5,5,,,,,,,None,,141.1722014599887,None,141.1722014599887,None,2021-06-17-13:39:56.698594,141.1733554000093,141.4877456999966,141.1733554000093,None,None,141.1733554000093,None,141.97803056000848,None,,1,0001,2021_Jun_17_1339,localizer,2021.1.3,60.00520844634695,
block,scrambled,scrambled047.bmp,0,6,6,6,,,,,,,None,,141.97803056000848,None,141.97803056000848,None,2021-06-17-13:39:57.509310,141.98341580000124,142.2880935999856,141.98341580000124,None,None,141.98341580000124,None,142.78824575998587,None,,1,0001,2021_Jun_17_1339,localizer,2021.1.3,60.00520844634695,
block,scrambled,scrambled043.bmp,0,7,7,7,,,,,,,None,,142.78824575998587,None,142.78824575998587,None,2021-06-17-13:39:58.312664,142.7885540999996,143.08744969998952,142.7885540999996,None,None,142.7885540999996,None,143.58834506000275,None,,1,0001,2021_Jun_17_1339,localizer,2021.1.3,60.00520844634695,
block,scrambled,scrambled016.bmp,0,8,8,8,,,,,,,None,,143.58834506000275,None,143.58834506000275,None,2021-06-17-13:39:59.114672,143.5892310999916,143.8880904999969,143.5892310999916,143.5892310999916,None,143.5892310999916,143.5892310999916,144.38867556000477,None,,1,0001,2021_Jun_17_1339,localizer,2021.1.3,60.00520844634695,
block,scrambled,scrambled077.bmp,0,9,9,9,,,,,,,None,,144.38867556000477,None,144.38867556000477,None,2021-06-17-13:39:59.914219,144.39011360000586,144.6925462000072,144.39011360000586,144.39011360000586,None,144.39011360000586,144.39011360000586,145.2047968599887,None,,1,0001,2021_Jun_17_1339,localizer,2021.1.3,60.00520844634695,
block,scrambled,scrambled034.bmp,0,10,10,10,,,,,,,None,,145.2047968599887,None,145.2047968599887,None,2021-06-17-13:40:00.729085,145.20512379999855,145.50524150001002,145.20512379999855,None,None,145.20512379999855,None,146.00506006000214,None,,1,0001,2021_Jun_17_1339,localizer,2021.1.3,60.00520844634695,
block,scrambled,scrambled027.bmp,0,11,11,11,,,,,,,None,,146.00506006000214,None,146.00506006000214,None,2021-06-17-13:40:01.531633,146.00602219998837,146.30517320000217,146.00602219998837,146.00602219998837,None,146.00602219998837,146.00602219998837,146.8056900599855,None,,1,0001,2021_Jun_17_1339,localizer,2021.1.3,60.00520844634695,
block,scrambled,scrambled074.bmp,0,12,12,12,,,,,,,None,,146.8056900599855,None,146.8056900599855,None,2021-06-17-13:40:02.333018,146.80820599998697,147.12232019999647,146.80820599998697,146.80820599998697,None,146.80820599998697,146.80820599998697,147.6209418599843,None,,1,0001,2021_Jun_17_1339,localizer,2021.1.3,60.00520844634695,
block,scrambled,scrambled053.bmp,0,13,13,13,,,,,,,None,,147.6209418599843,None,147.6209418599843,None,2021-06-17-13:40:03.146042,147.62191869999515,147.92108800000278,147.62191869999515,None,None,147.62191869999515,None,148.4221942599921,None,,1,0001,2021_Jun_17_1339,localizer,2021.1.3,60.00520844634695,
block_end,scrambled,scrambled062.bmp,0,14,14,14,,,,,,,None,,148.4221942599921,None,148.4221942599921,None,2021-06-17-13:40:03.949530,148.4245271999971,148.73810859999503,148.4245271999971,148.4245271999971,None,148.4245271999971,148.4245271999971,149.23860216000466,None,,1,0001,2021_Jun_17_1339,localizer,2021.1.3,60.00520844634695,
block_start,objects,objects019.bmp,0,15,15,15,,,,,,,t,1.8622711999923922,149.23807699998724,None,149.23807699998724,None,2021-06-17-13:40:06.643571,151.12222299998393,151.42093520000344,151.12222299998393,None,None,151.12222299998393,None,151.9219171600067,None,,1,0001,2021_Jun_17_1339,localizer,2021.1.3,60.00520844634695,
block,objects,objects071.bmp,0,16,16,16,,,,,,,None,,151.9219171600067,None,151.9219171600067,None,2021-06-17-13:40:07.448276,151.9242622999882,152.2379924999841,151.9242622999882,151.9242622999882,None,151.9242622999882,151.9242622999882,152.737950859993,None,,1,0001,2021_Jun_17_1339,localizer,2021.1.3,60.00520844634695,
block,objects,objects086.bmp,0,17,17,17,,,,,,,None,,152.737950859993,None,152.737950859993,None,2021-06-17-13:40:08.262895,152.73848140001064,153.03830580000067,152.73848140001064,None,None,152.73848140001064,None,153.53820485999458,None,,1,0001,2021_Jun_17_1339,localizer,2021.1.3,60.00520844634695,
block,objects,objects084.bmp,0,18,18,18,,,,,,,None,,153.53820485999458,None,153.53820485999458,None,2021-06-17-13:40:09.063923,153.53868880000664,153.83745679998538,153.53868880000664,153.53868880000664,None,153.53868880000664,153.53868880000664,154.33971475998405,None,,1,0001,2021_Jun_17_1339,localizer,2021.1.3,60.00520844634695,
block,objects,objects076.bmp,0,19,19,19,,,,,,,None,,154.33971475998405,None,154.33971475998405,None,2021-06-17-13:40:09.867503,154.34373379999306,154.63967919998686,154.34373379999306,154.34373379999306,None,154.34373379999306,154.34373379999306,155.16153206000453,None,,1,0001,2021_Jun_17_1339,localizer,2021.1.3,60.00520844634695,
block,objects,objects082.bmp,0,20,20,20,,,,,,,None,,155.16153206000453,None,155.16153206000453,None,2021-06-17-13:40:10.693860,155.16691609998816,155.4712055999844,155.16691609998816,None,None,155.16691609998816,None,155.97141836000955,None,,1,0001,2021_Jun_17_1339,localizer,2021.1.3,60.00520844634695,
block,objects,objects073.bmp,0,21,21,21,,,,,,,None,,155.97141836000955,None,155.97141836000955,None,2021-06-17-13:40:11.496061,155.97193279999192,156.27061360000516,155.97193279999192,None,None,155.97193279999192,None,156.77118166,None,,1,0001,2021_Jun_17_1339,localizer,2021.1.3,60.00520844634695,
block,objects,objects013.bmp,0,22,22,22,,,,,,,None,,156.77118166,None,156.77118166,None,2021-06-17-13:40:12.297537,156.7718809999933,157.07138320000377,156.7718809999933,156.7718809999933,None,156.7718809999933,156.7718809999933,157.57149955999338,None,,1,0001,2021_Jun_17_1339,localizer,2021.1.3,60.00520844634695,
block,objects,objects040.bmp,0,23,23,23,,,,,,,None,,157.57149955999338,None,157.57149955999338,None,2021-06-17-13:40:13.096893,157.57198149999022,157.87106899998616,157.57198149999022,157.57198149999022,None,157.57198149999022,157.57198149999022,158.3715159599902,None,,1,0001,2021_Jun_17_1339,localizer,2021.1.3,60.00520844634695,
block,objects,objects025.bmp,0,24,24,24,,,,,,,None,,158.3715159599902,None,158.3715159599902,None,2021-06-17-13:40:13.896911,158.37197129998822,158.67079760000343,158.37197129998822,158.37197129998822,None,158.37197129998822,158.37197129998822,159.17107986000482,None,,1,0001,2021_Jun_17_1339,localizer,2021.1.3,60.00520844634695,
block,objects,objects004.bmp,0,25,25,25,,,,,,,None,,159.17107986000482,None,159.17107986000482,None,2021-06-17-13:40:14.697290,159.17184830000042,159.4706642999954,159.17184830000042,159.17184830000042,None,159.17184830000042,159.17184830000042,159.971211760008,None,,1,0001,2021_Jun_17_1339,localizer,2021.1.3,60.00520844634695,
block,objects,objects088.bmp,0,26,26,26,,,,,,,None,,159.971211760008,None,159.971211760008,None,2021-06-17-13:40:15.497521,159.97195539998938,160.27085709999665,159.97195539998938,159.97195539998938,None,159.97195539998938,159.97195539998938,160.77130106000695,None,,1,0001,2021_Jun_17_1339,localizer,2021.1.3,60.00520844634695,
block,objects,objects033.bmp,0,27,27,27,,,,,,,None,,160.77130106000695,None,160.77130106000695,None,2021-06-17-13:40:16.297276,160.77204179999535,161.0714534999861,160.77204179999535,160.77204179999535,None,160.77204179999535,160.77204179999535,161.57146626000176,None,,1,0001,2021_Jun_17_1339,localizer,2021.1.3,60.00520844634695,
block,objects,objects055.bmp,0,28,28,28,,,,,,,None,,161.57146626000176,None,161.57146626000176,None,2021-06-17-13:40:17.096879,161.5720333000063,161.87111929999082,161.5720333000063,161.5720333000063,None,161.5720333000063,161.5720333000063,162.37169076001155,None,,1,0001,2021_Jun_17_1339,localizer,2021.1.3,60.00520844634695,
block_end,objects,objects065.bmp,0,29,29,29,,,,,,,None,,162.37169076001155,None,162.37169076001155,None,2021-06-17-13:40:17.898099,162.37239110001246,162.6777371999924,162.37239110001246,162.37239110001246,None,162.37239110001246,162.37239110001246,163.1879967600049,None,,1,0001,2021_Jun_17_1339,localizer,2021.1.3,60.00520844634695,
null_block,null_block,null_block.bmp,0,30,30,30,,,,,,,t,1.9129341999941971,163.18752209999366,None,163.18752209999366,None,2021-06-17-13:40:20.648567,165.1229754599859,None,165.1229754599859,None,None,165.1229754599859,None,165.13042460000725,None,,1,0001,2021_Jun_17_1339,localizer,2021.1.3,60.00520844634695,
block_start,scenes,scenes087.bmp,0,31,31,31,,,,,,,t,1.9608760999981314,177.1395540999947,None,177.1395540999947,None,2021-06-17-13:40:34.650322,179.13161109999055,179.4381250999868,179.13161109999055,None,None,179.13161109999055,None,179.93861936000175,None,,1,0001,2021_Jun_17_1339,localizer,2021.1.3,60.00520844634695,
block,scenes,scenes049.bmp,0,32,32,32,,,,,,,None,,179.93861936000175,None,179.93861936000175,None,2021-06-17-13:40:35.463730,179.9388973999885,180.23777330000303,179.9388973999885,None,None,179.9388973999885,None,180.7385849599901,None,,1,0001,2021_Jun_17_1339,localizer,2021.1.3,60.00520844634695,
block,scenes,scenes008.bmp,0,33,33,33,,,,,,,None,,180.7385849599901,None,180.7385849599901,None,2021-06-17-13:40:36.265285,180.73954710000544,181.05474089999916,180.73954710000544,180.73954710000544,None,180.73954710000544,180.73954710000544,181.55530805998714,None,,1,0001,2021_Jun_17_1339,localizer,2021.1.3,60.00520844634695,
block,scenes,scenes084.bmp,0,34,34,34,,,,,,,None,,181.55530805998714,None,181.55530805998714,None,2021-06-17-13:40:37.079806,181.55547270001261,181.85469889998785,181.55547270001261,None,None,181.55547270001261,None,182.35519306000205,None,,1,0001,2021_Jun_17_1339,localizer,2021.1.3,60.00520844634695,
block,scenes,scenes085.bmp,0,35,35,35,,,,,,,None,,182.35519306000205,None,182.35519306000205,None,2021-06-17-13:40:37.881691,182.35590970001067,182.6545698000118,182.35590970001067,182.35590970001067,None,182.35590970001067,182.35590970001067,183.1716920600098,None,,1,0001,2021_Jun_17_1339,localizer,2021.1.3,60.00520844634695,
block,scenes,scenes022.bmp,0,36,36,36,,,,,,,None,,183.1716920600098,None,183.1716920600098,None,2021-06-17-13:40:38.696194,183.17228520000936,183.47149930000887,183.17228520000936,None,None,183.17228520000936,None,183.97173425999935,None,,1,0001,2021_Jun_17_1339,localizer,2021.1.3,60.00520844634695,
block,scenes,scenes031.bmp,0,37,37,37,,,,,,,None,,183.97173425999935,None,183.97173425999935,None,2021-06-17-13:40:39.498241,183.97220150000066,184.27170230000047,183.97220150000066,183.97220150000066,None,183.97220150000066,183.97220150000066,184.77226456000935,None,,1,0001,2021_Jun_17_1339,localizer,2021.1.3,60.00520844634695,
block,scenes,scenes015.bmp,0,38,38,38,,,,,,,None,,184.77226456000935,None,184.77226456000935,None,2021-06-17-13:40:40.298952,184.77456180000445,185.08780839998508,184.77456180000445,184.77456180000445,None,184.77456180000445,184.77456180000445,185.57857186000328,None,,1,0001,2021_Jun_17_1339,localizer,2021.1.3,60.00520844634695,
block,scenes,scenes001.bmp,0,39,39,39,,,,,,,None,,185.57857186000328,None,185.57857186000328,None,2021-06-17-13:40:41.112072,185.58521210000617,185.88840110000456,185.58521210000617,185.58521210000617,None,185.58521210000617,185.58521210000617,186.38838846000144,None,,1,0001,2021_Jun_17_1339,localizer,2021.1.3,60.00520844634695,
block,scenes,scenes037.bmp,0,40,40,40,,,,,,,None,,186.38838846000144,None,186.38838846000144,None,2021-06-17-13:40:41.914905,186.38893650000682,186.688381999993,186.38893650000682,186.38893650000682,None,186.38893650000682,186.38893650000682,187.18822135999798,None,,1,0001,2021_Jun_17_1339,localizer,2021.1.3,60.00520844634695,
block,scenes,scenes065.bmp,0,41,41,41,,,,,,,None,,187.18822135999798,None,187.18822135999798,None,2021-06-17-13:40:42.713748,187.18871879999642,187.48794069999713,187.18871879999642,187.18871879999642,None,187.18871879999642,187.18871879999642,187.98828546000877,None,,1,0001,2021_Jun_17_1339,localizer,2021.1.3,60.00520844634695,
block,scenes,scenes077.bmp,0,42,42,42,,,,,,,None,,187.98828546000877,None,187.98828546000877,None,2021-06-17-13:40:43.513813,187.9888546000002,188.2878503999964,187.9888546000002,187.9888546000002,None,187.9888546000002,187.9888546000002,188.78861005999497,None,,1,0001,2021_Jun_17_1339,localizer,2021.1.3,60.00520844634695,
block,scenes,scenes043.bmp,0,43,43,43,,,,,,,None,,188.78861005999497,None,188.78861005999497,None,2021-06-17-13:40:44.313704,188.78897339999094,189.08791579998797,188.78897339999094,188.78897339999094,None,188.78897339999094,188.78897339999094,189.58871005998807,None,,1,0001,2021_Jun_17_1339,localizer,2021.1.3,60.00520844634695,
block,scenes,scenes002.bmp,0,44,44,44,,,,,,,None,,189.58871005998807,None,189.58871005998807,None,2021-06-17-13:40:45.115438,189.58964819999528,189.90432679999503,189.58964819999528,189.58964819999528,None,189.58964819999528,189.58964819999528,190.3887595600041,None,,1,0001,2021_Jun_17_1339,localizer,2021.1.3,60.00520844634695,
block_end,scenes,scenes059.bmp,0,45,45,45,,,,,,,None,,190.3887595600041,None,190.3887595600041,None,2021-06-17-13:40:45.915488,190.38997680001194,190.70447699999204,190.38997680001194,190.38997680001194,None,190.38997680001194,190.38997680001194,191.2051220599911,None,,1,0001,2021_Jun_17_1339,localizer,2021.1.3,60.00520844634695,
block_start,faces,faces049.bmp,0,46,46,46,,,,,,,t,1.8959115000034217,191.20448290000786,None,191.20448290000786,None,2021-06-17-13:40:48.644721,193.1232308000035,193.4381013000093,193.1232308000035,None,None,193.1232308000035,None,193.93852876001037,None,,1,0001,2021_Jun_17_1339,localizer,2021.1.3,60.00520844634695,
block,faces,faces059.bmp,0,47,47,47,,,,,,,None,,193.93852876001037,None,193.93852876001037,None,2021-06-17-13:40:49.463299,193.93888090000837,194.23781600000802,193.93888090000837,None,None,193.93888090000837,None,194.73838305999524,None,,1,0001,2021_Jun_17_1339,localizer,2021.1.3,60.00520844634695,
block,faces,faces036.bmp,0,48,48,48,,,,,,,None,,194.73838305999524,None,194.73838305999524,None,2021-06-17-13:40:50.263940,194.73883919999935,195.03787060000468,194.73883919999935,194.73883919999935,None,194.73883919999935,194.73883919999935,195.5386619600118,None,,1,0001,2021_Jun_17_1339,localizer,2021.1.3,60.00520844634695,
block,faces,faces039.bmp,0,49,49,49,,,,,,,None,,195.5386619600118,None,195.5386619600118,None,2021-06-17-13:40:51.065154,195.539509299997,195.83872550001252,195.539509299997,195.539509299997,None,195.539509299997,195.539509299997,196.35484586000675,None,,1,0001,2021_Jun_17_1339,localizer,2021.1.3,60.00520844634695,
block,faces,faces085.bmp,0,50,50,50,,,,,,,None,,196.35484586000675,None,196.35484586000675,None,2021-06-17-13:40:51.878419,196.3566288999864,196.65521399999852,196.3566288999864,None,None,196.3566288999864,None,197.157263160008,None,,1,0001,2021_Jun_17_1339,localizer,2021.1.3,60.00520844634695,
block,faces,faces073.bmp,0,51,51,51,,,,,,,None,,197.157263160008,None,197.157263160008,None,2021-06-17-13:40:52.686649,197.16197889999603,197.47146159998374,197.16197889999603,197.16197889999603,None,197.16197889999603,197.16197889999603,197.97315025998395,None,,1,0001,2021_Jun_17_1339,localizer,2021.1.3,60.00520844634695,
block,faces,faces012.bmp,0,52,52,52,,,,,,,None,,197.97315025998395,None,197.97315025998395,None,2021-06-17-13:40:53.498700,197.97469430000638,198.28765149999526,197.97469430000638,None,None,197.97469430000638,None,198.78860125998617,None,,1,0001,2021_Jun_17_1339,localizer,2021.1.3,60.00520844634695,
block,faces,faces004.bmp,0,53,53,53,,,,,,,None,,198.78860125998617,None,198.78860125998617,None,2021-06-17-13:40:54.313395,198.78888700000243,199.08850849998998,198.78888700000243,None,None,198.78888700000243,None,199.5882613600057,None,,1,0001,2021_Jun_17_1339,localizer,2021.1.3,60.00520844634695,
block,faces,faces043.bmp,0,54,54,54,,,,,,,None,,199.5882613600057,None,199.5882613600057,None,2021-06-17-13:40:55.114839,199.58883100000094,199.88885149999987,199.58883100000094,199.58883100000094,None,199.58883100000094,199.58883100000094,200.3893750600051,None,,1,0001,2021_Jun_17_1339,localizer,2021.1.3,60.00520844634695,
block,faces,faces023.bmp,0,55,55,55,,,,,,,None,,200.3893750600051,None,200.3893750600051,None,2021-06-17-13:40:55.916939,200.39154680000502,200.7044734999945,200.39154680000502,200.39154680000502,None,200.39154680000502,200.39154680000502,201.20604586001136,None,,1,0001,2021_Jun_17_1339,localizer,2021.1.3,60.00520844634695,
block,faces,faces040.bmp,0,56,56,56,,,,,,,None,,201.20604586001136,None,201.20604586001136,None,2021-06-17-13:40:56.731599,201.2064767999982,201.50882529999944,201.2064767999982,None,None,201.2064767999982,None,202.02210205999435,None,,1,0001,2021_Jun_17_1339,localizer,2021.1.3,60.00520844634695,
block,faces,faces063.bmp,0,57,57,57,,,,,,,None,,202.02210205999435,None,202.02210205999435,None,2021-06-17-13:40:57.546992,202.02240849999362,202.32151340000564,202.02240849999362,None,None,202.02240849999362,None,202.82335856000427,None,,1,0001,2021_Jun_17_1339,localizer,2021.1.3,60.00520844634695,
block,faces,faces027.bmp,0,58,58,58,,,,,,,None,,202.82335856000427,None,202.82335856000427,None,2021-06-17-13:40:58.352931,202.82810210000025,203.13856799999485,202.82810210000025,202.82810210000025,None,202.82810210000025,202.82810210000025,203.63851936000864,None,,1,0001,2021_Jun_17_1339,localizer,2021.1.3,60.00520844634695,
block,faces,faces027.bmp,0,59,59,59,,,,,,,None,,203.63851936000864,None,203.63851936000864,None,2021-06-17-13:40:59.163449,203.63912030000938,203.94413650000934,203.63912030000938,None,y,203.63912030000938,None,204.4390712600085,None,0.5989051999931689,1,0001,2021_Jun_17_1339,localizer,2021.1.3,60.00520844634695,
block_end,faces,faces051.bmp,0,60,60,60,,,,,,,None,,204.4390712600085,None,204.4390712600085,None,2021-06-17-13:40:59.965867,204.44146569998702,204.75562310000532,204.44146569998702,204.44146569998702,None,204.44146569998702,204.44146569998702,205.25616456000134,None,,1,0001,2021_Jun_17_1339,localizer,2021.1.3,60.00520844634695,
null_block,null_block,null_block.bmp,0,61,61,61,,,,,,,t,1.845384299987927,205.25547760000336,None,205.25547760000336,None,2021-06-17-13:41:02.655699,207.1279600599897,None,207.1279600599897,None,None,207.1279600599897,None,207.13612740000826,None,,1,0001,2021_Jun_17_1339,localizer,2021.1.3,60.00520844634695,
block_start,scenes,scenes046.bmp,0,62,62,62,,,,,,,t,1.9625652999966405,219.13786529999925,None,219.13786529999925,None,2021-06-17-13:41:16.646800,221.12228999999934,221.42160199998762,221.12228999999934,None,None,221.12228999999934,None,221.92225175999337,None,,1,0001,2021_Jun_17_1339,localizer,2021.1.3,60.00520844634695,
block,scenes,scenes064.bmp,0,63,63,63,,,,,,,None,,221.92225175999337,None,221.92225175999337,None,2021-06-17-13:41:17.447927,221.9225490000099,222.22157160000643,221.9225490000099,221.9225490000099,None,221.9225490000099,221.9225490000099,222.72760495999827,None,,1,0001,2021_Jun_17_1339,localizer,2021.1.3,60.00520844634695,
block,scenes,scenes075.bmp,0,64,64,64,,,,,,,None,,222.72760495999827,None,222.72760495999827,None,2021-06-17-13:41:18.253290,222.7322101999889,223.03881599998567,222.7322101999889,222.7322101999889,None,222.7322101999889,222.7322101999889,223.53889175998629,None,,1,0001,2021_Jun_17_1339,localizer,2021.1.3,60.00520844634695,
block,scenes,scenes083.bmp,0,65,65,65,,,,,,,None,,223.53889175998629,None,223.53889175998629,None,2021-06-17-13:41:19.062720,223.5401983000047,223.85493530001258,223.5401983000047,None,None,223.5401983000047,None,224.34029255998902,None,,1,0001,2021_Jun_17_1339,localizer,2021.1.3,60.00520844634695,
block,scenes,scenes015.bmp,0,66,66,66,,,,,,,None,,224.34029255998902,None,224.34029255998902,None,2021-06-17-13:41:19.869001,224.3437391000043,224.65489249999519,224.3437391000043,224.3437391000043,None,224.3437391000043,224.3437391000043,225.14650356000638,None,,1,0001,2021_Jun_17_1339,localizer,2021.1.3,60.00520844634695,
block,scenes,scenes018.bmp,0,67,67,67,,,,,,,None,,225.14650356000638,None,225.14650356000638,None,2021-06-17-13:41:20.676236,225.15106209999067,225.4553758999973,225.15106209999067,225.15106209999067,None,225.15106209999067,225.15106209999067,225.95568176000378,None,,1,0001,2021_Jun_17_1339,localizer,2021.1.3,60.00520844634695,
block,scenes,scenes027.bmp,0,68,68,68,,,,,,,None,,225.95568176000378,None,225.95568176000378,None,2021-06-17-13:41:21.480374,225.95613209999283,226.25516850000713,225.95613209999283,None,None,225.95613209999283,None,226.75635316001134,None,,1,0001,2021_Jun_17_1339,localizer,2021.1.3,60.00520844634695,
block,scenes,scenes041.bmp,0,69,69,69,,,,,,,None,,226.75635316001134,None,226.75635316001134,None,2021-06-17-13:41:22.284237,226.76472820001072,227.0717231000017,226.76472820001072,226.76472820001072,None,226.76472820001072,226.76472820001072,227.57223526000743,None,,1,0001,2021_Jun_17_1339,localizer,2021.1.3,60.00520844634695,
block,scenes,scenes088.bmp,0,70,70,70,,,,,,,None,,227.57223526000743,None,227.57223526000743,None,2021-06-17-13:41:23.096938,227.575974700012,227.88930660000187,227.575974700012,None,None,227.575974700012,None,228.39015936001087,None,,1,0001,2021_Jun_17_1339,localizer,2021.1.3,60.00520844634695,
block,scenes,scenes061.bmp,0,71,71,71,,,,,,,None,,228.39015936001087,None,228.39015936001087,None,2021-06-17-13:41:23.915843,228.39871290000156,228.70503610000014,228.39871290000156,None,None,228.39871290000156,None,229.20611426000832,None,,1,0001,2021_Jun_17_1339,localizer,2021.1.3,60.00520844634695,
block,scenes,scenes019.bmp,0,72,72,72,,,,,,,None,,229.20611426000832,None,229.20611426000832,None,2021-06-17-13:41:24.731810,229.21162680000998,229.52142239999375,229.21162680000998,None,None,229.21162680000998,None,230.0222442600003,None,,1,0001,2021_Jun_17_1339,localizer,2021.1.3,60.00520844634695,
block,scenes,scenes052.bmp,0,73,73,73,,,,,,,None,,230.0222442600003,None,230.0222442600003,None,2021-06-17-13:41:25.546962,230.02441529999487,230.33835000000545,230.02441529999487,None,None,230.02441529999487,None,230.8389216599986,None,,1,0001,2021_Jun_17_1339,localizer,2021.1.3,60.00520844634695,
block,scenes,scenes008.bmp,0,74,74,74,,,,,,,None,,230.8389216599986,None,230.8389216599986,None,2021-06-17-13:41:26.363640,230.83929090001038,231.1385777000105,230.83929090001038,None,None,230.83929090001038,None,231.63869595998548,None,,1,0001,2021_Jun_17_1339,localizer,2021.1.3,60.00520844634695,
block,scenes,scenes009.bmp,0,75,75,75,,,,,,,None,,231.63869595998548,None,231.63869595998548,None,2021-06-17-13:41:27.164419,231.64204320000135,231.95417010001256,231.64204320000135,231.64204320000135,None,231.64204320000135,231.64204320000135,232.44363056000438,None,,1,0001,2021_Jun_17_1339,localizer,2021.1.3,60.00520844634695,
block_end,scenes,scenes092.bmp,0,76,76,76,,,,,,,None,,232.44363056000438,None,232.44363056000438,None,2021-06-17-13:41:27.975149,232.45522239999264,232.75480880000396,232.45522239999264,232.45522239999264,None,232.45522239999264,232.45522239999264,233.25550476001226,None,,1,0001,2021_Jun_17_1339,localizer,2021.1.3,60.00520844634695,
block_start,scrambled,scrambled041.bmp,0,77,77,77,,,,,,,t,1.8454290000081528,233.25501649998478,None,233.25501649998478,None,2021-06-17-13:41:30.645747,235.1237187999941,235.43831950001186,235.1237187999941,None,None,235.1237187999941,None,235.93906366000883,None,,1,0001,2021_Jun_17_1339,localizer,2021.1.3,60.00520844634695,
block,scrambled,scrambled027.bmp,0,78,78,78,,,,,,,None,,235.93906366000883,None,235.93906366000883,None,2021-06-17-13:41:31.464156,235.9393110999954,236.23847720000776,235.9393110999954,None,None,235.9393110999954,None,236.7402131599898,None,,1,0001,2021_Jun_17_1339,localizer,2021.1.3,60.00520844634695,
block,scrambled,scrambled044.bmp,0,79,79,79,,,,,,,None,,236.7402131599898,None,236.7402131599898,None,2021-06-17-13:41:32.269905,236.7506674999895,237.0550707000075,236.7506674999895,236.7506674999895,None,236.7506674999895,236.7506674999895,237.55581225998466,None,,1,0001,2021_Jun_17_1339,localizer,2021.1.3,60.00520844634695,
block,scrambled,scrambled031.bmp,0,80,80,80,,,,,,,None,,237.55581225998466,None,237.55581225998466,None,2021-06-17-13:41:33.080763,237.5605755999859,237.8718002999958,237.5605755999859,None,None,237.5605755999859,None,238.37214846000424,None,,1,0001,2021_Jun_17_1339,localizer,2021.1.3,60.00520844634695,
block,scrambled,scrambled022.bmp,0,81,81,81,,,,,,,None,,238.37214846000424,None,238.37214846000424,None,2021-06-17-13:41:33.896864,238.37601949999225,238.6884003999876,238.37601949999225,None,None,238.37601949999225,None,239.19109155999612,None,,1,0001,2021_Jun_17_1339,localizer,2021.1.3,60.00520844634695,
block,scrambled,scrambled060.bmp,0,82,82,82,,,,,,,None,,239.19109155999612,None,239.19109155999612,None,2021-06-17-13:41:34.717952,239.19896899999003,239.50556349998806,239.19896899999003,None,None,239.19896899999003,None,240.0053693599999,None,,1,0001,2021_Jun_17_1339,localizer,2021.1.3,60.00520844634695,
block,scrambled,scrambled068.bmp,0,83,83,83,,,,,,,None,,240.0053693599999,None,240.0053693599999,None,2021-06-17-13:41:35.529132,240.01570849999553,240.3220532000123,240.01570849999553,None,None,240.01570849999553,None,240.8223584599851,None,,1,0001,2021_Jun_17_1339,localizer,2021.1.3,60.00520844634695,
block,scrambled,scrambled082.bmp,0,84,84,84,,,,,,,None,,240.8223584599851,None,240.8223584599851,None,2021-06-17-13:41:36.347120,240.82525719999103,241.1384599999874,240.82525719999103,None,None,240.82525719999103,None,241.62528216000064,None,,1,0001,2021_Jun_17_1339,localizer,2021.1.3,60.00520844634695,
block,scrambled,scrambled087.bmp,0,85,85,85,,,,,,,None,,241.62528216000064,None,241.62528216000064,None,2021-06-17-13:41:37.154203,241.63294270000188,241.93828090000898,241.63294270000188,241.63294270000188,None,241.63294270000188,241.63294270000188,242.43920355999725,None,,1,0001,2021_Jun_17_1339,localizer,2021.1.3,60.00520844634695,
block,scrambled,scrambled067.bmp,0,86,86,86,,,,,,,None,,242.43920355999725,None,242.43920355999725,None,2021-06-17-13:41:37.963076,242.4490431000013,242.75512729998445,242.4490431000013,None,None,242.4490431000013,None,243.25647275999071,None,,1,0001,2021_Jun_17_1339,localizer,2021.1.3,60.00520844634695,
block,scrambled,scrambled019.bmp,0,87,87,87,,,,,,,None,,243.25647275999071,None,243.25647275999071,None,2021-06-17-13:41:38.782422,243.26431030000094,243.57185279999976,243.26431030000094,None,None,243.26431030000094,None,244.07221395999076,None,,1,0001,2021_Jun_17_1339,localizer,2021.1.3,60.00520844634695,
block,scrambled,scrambled007.bmp,0,88,88,88,,,,,,,None,,244.07221395999076,None,244.07221395999076,None,2021-06-17-13:41:39.596990,244.07498229999328,244.38817489999929,244.07498229999328,None,None,244.07498229999328,None,244.8894526599848,None,,1,0001,2021_Jun_17_1339,localizer,2021.1.3,60.00520844634695,
block,scrambled,scrambled079.bmp,0,89,89,89,,,,,,,None,,244.8894526599848,None,244.8894526599848,None,2021-06-17-13:41:40.414228,244.8936945000023,245.20494659998803,244.8936945000023,None,None,244.8936945000023,None,245.70794446000363,None,,1,0001,2021_Jun_17_1339,localizer,2021.1.3,60.00520844634695,
block,scrambled,scrambled020.bmp,0,90,90,90,,,,,,,None,,245.70794446000363,None,245.70794446000363,None,2021-06-17-13:41:41.235771,245.7166459999862,246.0216980999976,245.7166459999862,None,None,245.7166459999862,None,246.522055359988,None,,1,0001,2021_Jun_17_1339,localizer,2021.1.3,60.00520844634695,
block_end,scrambled,scrambled062.bmp,0,91,91,91,,,,,,,None,,246.522055359988,None,246.522055359988,None,2021-06-17-13:41:42.047074,246.52251969999634,246.82193720000214,246.52251969999634,None,None,246.52251969999634,None,247.32235185999306,None,,1,0001,2021_Jun_17_1339,localizer,2021.1.3,60.00520844634695,
block_start,faces,faces052.bmp,0,92,92,92,,,,,,,t,1.7785183000087272,247.3219029000029,None,247.3219029000029,None,2021-06-17-13:41:44.645151,249.12570159998722,249.43854899998405,249.12570159998722,None,None,249.12570159998722,None,249.93918986000935,None,,1,0001,2021_Jun_17_1339,localizer,2021.1.3,60.00520844634695,
block,faces,faces006.bmp,0,93,93,93,,,,,,,None,,249.93918986000935,None,249.93918986000935,None,2021-06-17-13:41:45.463846,249.94346479998785,250.25551670001005,249.94346479998785,None,None,249.94346479998785,None,250.75545205998932,None,,1,0001,2021_Jun_17_1339,localizer,2021.1.3,60.00520844634695,
block,faces,faces062.bmp,0,94,94,94,,,,,,,None,,250.75545205998932,None,250.75545205998932,None,2021-06-17-13:41:46.280259,250.75802770000882,251.07177209999645,250.75802770000882,None,None,250.75802770000882,None,251.5719605600112,None,,1,0001,2021_Jun_17_1339,localizer,2021.1.3,60.00520844634695,
block,faces,faces057.bmp,0,95,95,95,,,,,,,None,,251.5719605600112,None,251.5719605600112,None,2021-06-17-13:41:47.096780,251.57636629999615,251.88843950000592,251.57636629999615,None,None,251.57636629999615,None,252.38922256000805,None,,1,0001,2021_Jun_17_1339,localizer,2021.1.3,60.00520844634695,
block,faces,faces018.bmp,0,96,96,96,,,,,,,None,,252.38922256000805,None,252.38922256000805,None,2021-06-17-13:41:47.914034,252.392935699987,252.7052018000104,252.392935699987,None,None,252.392935699987,None,253.1954162600101,None,,1,0001,2021_Jun_17_1339,localizer,2021.1.3,60.00520844634695,
block,faces,faces069.bmp,0,97,97,97,,,,,,,None,,253.1954162600101,None,253.1954162600101,None,2021-06-17-13:41:48.725821,253.20568360001198,253.50475480000023,253.20568360001198,None,None,253.20568360001198,None,254.00559035999467,None,,1,0001,2021_Jun_17_1339,localizer,2021.1.3,60.00520844634695,
block,faces,faces045.bmp,0,98,98,98,,,,,,,None,,254.00559035999467,None,254.00559035999467,None,2021-06-17-13:41:49.530416,254.01583359998767,254.32190219999757,254.01583359998767,None,None,254.01583359998767,None,254.82393606000696,None,,1,0001,2021_Jun_17_1339,localizer,2021.1.3,60.00520844634695,
block,faces,faces071.bmp,0,99,99,99,,,,,,,None,,254.82393606000696,None,254.82393606000696,None,2021-06-17-13:41:50.349737,254.8305437999952,255.13845979998587,254.8305437999952,None,None,254.8305437999952,None,255.6453883599839,None,,1,0001,2021_Jun_17_1339,localizer,2021.1.3,60.00520844634695,
block,faces,faces017.bmp,0,100,100,100,,,,,,,None,,255.6453883599839,None,255.6453883599839,None,2021-06-17-13:41:51.177128,255.65857860000688,255.97197640000377,255.65857860000688,None,None,255.65857860000688,None,256.45587905999275,None,,1,0001,2021_Jun_17_1339,localizer,2021.1.3,60.00520844634695,
block,faces,faces061.bmp,0,101,101,101,,,,,,,None,,256.45587905999275,None,256.45587905999275,None,2021-06-17-13:41:51.980923,256.46256740001263,256.77228790000663,256.46256740001263,None,None,256.46256740001263,None,257.2723074599868,None,,1,0001,2021_Jun_17_1339,localizer,2021.1.3,60.00520844634695,
block,faces,faces033.bmp,0,102,102,102,,,,,,,None,,257.2723074599868,None,257.2723074599868,None,2021-06-17-13:41:52.797146,257.28292150000925,257.5883441999904,257.28292150000925,None,None,257.28292150000925,None,258.0899082600023,None,,1,0001,2021_Jun_17_1339,localizer,2021.1.3,60.00520844634695,
block,faces,faces089.bmp,0,103,103,103,,,,,,,None,,258.0899082600023,None,258.0899082600023,None,2021-06-17-13:41:53.615717,258.09537419999833,258.4052404999966,258.09537419999833,None,None,258.09537419999833,None,258.9054461599968,None,,1,0001,2021_Jun_17_1339,localizer,2021.1.3,60.00520844634695,
block,faces,faces035.bmp,0,104,104,104,,,,,,,None,,258.9054461599968,None,258.9054461599968,None,2021-06-17-13:41:54.429869,258.90931419999106,259.22184779998497,258.90931419999106,None,None,258.90931419999106,None,259.72249136000175,None,,1,0001,2021_Jun_17_1339,localizer,2021.1.3,60.00520844634695,
block,faces,faces031.bmp,0,105,105,105,,,,,,,None,,259.72249136000175,None,259.72249136000175,None,2021-06-17-13:41:55.247340,259.72504389999085,260.03876900000614,259.72504389999085,None,None,259.72504389999085,None,260.5390874599922,None,,1,0001,2021_Jun_17_1339,localizer,2021.1.3,60.00520844634695,
block_end,faces,faces027.bmp,0,106,106,106,,,,,,,None,,260.5390874599922,None,260.5390874599922,None,2021-06-17-13:41:56.062907,260.53958630000125,260.83873059999314,260.53958630000125,None,None,260.53958630000125,None,261.3391330600076,None,,1,0001,2021_Jun_17_1339,localizer,2021.1.3,60.00520844634695,
block_start,objects,objects001.bmp,0,107,107,107,,,,,,,t,1.7621509000018705,261.33827159999055,None,261.33827159999055,None,2021-06-17-13:41:58.647139,263.1256185999955,263.4386317000026,263.1256185999955,None,None,263.1256185999955,None,263.928805260011,None,,1,0001,2021_Jun_17_1339,localizer,2021.1.3,60.00520844634695,
block,objects,objects010.bmp,0,108,108,108,,,,,,,None,,263.928805260011,None,263.928805260011,None,2021-06-17-13:41:59.461633,263.9426961999852,264.24410059998627,263.9426961999852,None,None,263.9426961999852,None,264.74037636001015,None,,1,0001,2021_Jun_17_1339,localizer,2021.1.3,60.00520844634695,
block,objects,objects014.bmp,0,109,109,109,,,,,,,None,,264.74037636001015,None,264.74037636001015,None,2021-06-17-13:42:00.266221,264.74690910000936,265.05513079999946,264.74690910000936,None,None,264.74690910000936,None,265.55590965999875,None,,1,0001,2021_Jun_17_1339,localizer,2021.1.3,60.00520844634695,
block,objects,objects076.bmp,0,110,110,110,,,,,,,None,,265.55590965999875,None,265.55590965999875,None,2021-06-17-13:42:01.080781,265.5562144999858,265.8551937000011,265.5562144999858,None,None,265.5562144999858,None,266.35602986000015,None,,1,0001,2021_Jun_17_1339,localizer,2021.1.3,60.00520844634695,
block,objects,objects055.bmp,0,111,111,111,,,,,,,None,,266.35602986000015,None,266.35602986000015,None,2021-06-17-13:42:01.882894,266.3567411999975,266.6719449000084,266.3567411999975,266.3567411999975,None,266.3567411999975,266.3567411999975,267.15611895999757,None,,1,0001,2021_Jun_17_1339,localizer,2021.1.3,60.00520844634695,
block,objects,objects030.bmp,0,112,112,112,,,,,,,None,,267.15611895999757,None,267.15611895999757,None,2021-06-17-13:42:02.682986,267.16265879999264,267.4718246999837,267.16265879999264,267.16265879999264,None,267.16265879999264,267.16265879999264,267.9729659600067,None,,1,0001,2021_Jun_17_1339,localizer,2021.1.3,60.00520844634695,
block,objects,objects085.bmp,0,113,113,113,,,,,,,None,,267.9729659600067,None,267.9729659600067,None,2021-06-17-13:42:03.498043,267.97781949999626,268.28883619999397,267.97781949999626,None,None,267.97781949999626,None,268.78925565999236,None,,1,0001,2021_Jun_17_1339,localizer,2021.1.3,60.00520844634695,
block,objects,objects038.bmp,0,114,114,114,,,,,,,None,,268.78925565999236,None,268.78925565999236,None,2021-06-17-13:42:04.314358,268.79295619999175,269.105261699995,268.79295619999175,None,None,268.79295619999175,None,269.6060102599964,None,,1,0001,2021_Jun_17_1339,localizer,2021.1.3,60.00520844634695,
block,objects,objects026.bmp,0,115,115,115,,,,,,,None,,269.6060102599964,None,269.6060102599964,None,2021-06-17-13:42:05.130896,269.6103666999843,269.9218761000084,269.6103666999843,None,None,269.6103666999843,None,270.4226649599965,None,,1,0001,2021_Jun_17_1339,localizer,2021.1.3,60.00520844634695,
block,objects,objects061.bmp,0,116,116,116,,,,,,,None,,270.4226649599965,None,270.4226649599965,None,2021-06-17-13:42:05.947559,270.42578630000935,270.7384829999937,270.42578630000935,None,None,270.42578630000935,None,271.23902626000347,None,,1,0001,2021_Jun_17_1339,localizer,2021.1.3,60.00520844634695,
block,objects,objects048.bmp,0,117,117,117,,,,,,,None,,271.23902626000347,None,271.23902626000347,None,2021-06-17-13:42:06.763925,271.2419277000008,271.55536389999907,271.2419277000008,None,None,271.2419277000008,None,272.05573836000406,None,,1,0001,2021_Jun_17_1339,localizer,2021.1.3,60.00520844634695,
block,objects,objects077.bmp,0,118,118,118,,,,,,,None,,272.05573836000406,None,272.05573836000406,None,2021-06-17-13:42:07.580897,272.05887849998544,272.37201260001166,272.05887849998544,None,None,272.05887849998544,None,272.8784224599891,None,,1,0001,2021_Jun_17_1339,localizer,2021.1.3,60.00520844634695,
block,objects,objects077.bmp,0,119,119,119,,,,,,,None,,272.8784224599891,None,272.8784224599891,None,2021-06-17-13:42:08.402245,272.88262039999245,273.18910319998395,272.88262039999245,None,y,272.88262039999245,None,273.6890252600075,None,0.5094656999863219,1,0001,2021_Jun_17_1339,localizer,2021.1.3,60.00520844634695,
block,objects,objects009.bmp,0,120,120,120,,,,,,,None,,273.6890252600075,None,273.6890252600075,None,2021-06-17-13:42:09.213933,273.69171680000727,274.00551439999253,273.69171680000727,None,None,273.69171680000727,None,274.5059152599948,None,,1,0001,2021_Jun_17_1339,localizer,2021.1.3,60.00520844634695,
block_end,objects,objects008.bmp,0,121,121,121,,,,,,,None,,274.5059152599948,None,274.5059152599948,None,2021-06-17-13:42:10.031032,274.5103741000057,274.82272860000376,274.5103741000057,None,None,274.5103741000057,None,275.3225787600037,None,,1,0001,2021_Jun_17_1339,localizer,2021.1.3,60.00520844634695,
block_start,scrambled,scrambled051.bmp,0,122,122,122,,,,,,,t,1.779193700000178,275.3221185999864,None,275.3221185999864,None,2021-06-17-13:42:12.652422,277.1353702000051,277.43874670000514,277.1353702000051,None,None,277.1353702000051,None,277.9415208600054,None,,1,0001,2021_Jun_17_1339,localizer,2021.1.3,60.00520844634695,
block,scrambled,scrambled059.bmp,0,123,123,123,,,,,,,None,,277.9415208600054,None,277.9415208600054,None,2021-06-17-13:42:13.469815,277.9504237000074,278.2551051999908,277.9504237000074,None,None,277.9504237000074,None,278.7560431600083,None,,1,0001,2021_Jun_17_1339,localizer,2021.1.3,60.00520844634695,
block,scrambled,scrambled059.bmp,0,124,124,124,,,,,,,None,,278.7560431600083,None,278.7560431600083,None,2021-06-17-13:42:14.281395,278.7561604999937,279.0553246999916,278.7561604999937,None,None,278.7561604999937,None,279.5561563599855,None,,1,0001,2021_Jun_17_1339,localizer,2021.1.3,60.00520844634695,
block,scrambled,scrambled025.bmp,0,125,125,125,,,,,,,None,,279.5561563599855,None,279.5561563599855,None,2021-06-17-13:42:15.083284,279.5635714000091,279.87167759999284,279.5635714000091,279.5635714000091,None,279.5635714000091,279.5635714000091,280.3725928600121,None,,1,0001,2021_Jun_17_1339,localizer,2021.1.3,60.00520844634695,
block,scrambled,scrambled078.bmp,0,126,126,126,,,,,,,None,,280.3725928600121,None,280.3725928600121,None,2021-06-17-13:42:15.897746,280.37567360000685,280.68942609999795,280.37567360000685,None,None,280.37567360000685,None,281.1899185599992,None,,1,0001,2021_Jun_17_1339,localizer,2021.1.3,60.00520844634695,
block,scrambled,scrambled070.bmp,0,127,127,127,,,,,,,None,,281.1899185599992,None,281.1899185599992,None,2021-06-17-13:42:16.714061,281.1993703999906,281.50541599999997,281.1993703999906,None,None,281.1993703999906,None,282.0059070599906,None,,1,0001,2021_Jun_17_1339,localizer,2021.1.3,60.00520844634695,
block,scrambled,scrambled055.bmp,0,128,128,128,,,,,,,None,,282.0059070599906,None,282.0059070599906,None,2021-06-17-13:42:17.530827,282.0085868999886,282.3222533999942,282.0085868999886,None,None,282.0085868999886,None,282.8239668600087,None,,1,0001,2021_Jun_17_1339,localizer,2021.1.3,60.00520844634695,
block,scrambled,scrambled020.bmp,0,129,129,129,,,,,,,None,,282.8239668600087,None,282.8239668600087,None,2021-06-17-13:42:18.350066,282.82567469999776,283.12961709999945,282.82567469999776,None,None,282.82567469999776,None,283.6394074599899,None,,1,0001,2021_Jun_17_1339,localizer,2021.1.3,60.00520844634695,
block,scrambled,scrambled084.bmp,0,130,130,130,,,,,,,None,,283.6394074599899,None,283.6394074599899,None,2021-06-17-13:42:19.164363,283.64259790000506,283.9554905999976,283.64259790000506,None,None,283.64259790000506,None,284.456278960011,None,,1,0001,2021_Jun_17_1339,localizer,2021.1.3,60.00520844634695,
block,scrambled,scrambled072.bmp,0,131,131,131,,,,,,,None,,284.456278960011,None,284.456278960011,None,2021-06-17-13:42:19.981233,284.4562936000002,284.75728299998445,284.4562936000002,None,None,284.4562936000002,None,285.2572880599997,None,,1,0001,2021_Jun_17_1339,localizer,2021.1.3,60.00520844634695,
block,scrambled,scrambled044.bmp,0,132,132,132,,,,,,,None,,285.2572880599997,None,285.2572880599997,None,2021-06-17-13:42:20.786333,285.26065449998714,285.57196380000096,285.26065449998714,285.26065449998714,None,285.26065449998714,285.26065449998714,286.07253205999734,None,,1,0001,2021_Jun_17_1339,localizer,2021.1.3,60.00520844634695,
block,scrambled,scrambled026.bmp,0,133,133,133,,,,,,,None,,286.07253205999734,None,286.07253205999734,None,2021-06-17-13:42:21.597493,286.08272889998625,286.38837959998637,286.08272889998625,None,None,286.08272889998625,None,286.8898496600101,None,,1,0001,2021_Jun_17_1339,localizer,2021.1.3,60.00520844634695,
block,scrambled,scrambled014.bmp,0,134,134,134,,,,,,,None,,286.8898496600101,None,286.8898496600101,None,2021-06-17-13:42:22.414809,286.8943736999936,287.20523039999534,286.8943736999936,None,None,286.8943736999936,None,287.70569075998503,None,,1,0001,2021_Jun_17_1339,localizer,2021.1.3,60.00520844634695,
block,scrambled,scrambled076.bmp,0,135,135,135,,,,,,,None,,287.70569075998503,None,287.70569075998503,None,2021-06-17-13:42:23.229496,287.7074433999951,288.0215445999929,287.7074433999951,None,None,287.7074433999951,None,288.5067080600071,None,,1,0001,2021_Jun_17_1339,localizer,2021.1.3,60.00520844634695,
block_end,scrambled,scrambled006.bmp,0,136,136,136,,,,,,,None,,288.5067080600071,None,288.5067080600071,None,2021-06-17-13:42:24.034730,288.5092599999916,288.82257129999925,288.5092599999916,288.5092599999916,None,288.5092599999916,288.5092599999916,289.3230845599843,None,,1,0001,2021_Jun_17_1339,localizer,2021.1.3,60.00520844634695,
block_start,scenes,scenes028.bmp,0,137,137,137,,,,,,,t,1.7771123000129592,289.3223805000016,None,289.3223805000016,None,2021-06-17-13:42:26.645998,291.12529279998853,291.4388767000055,291.12529279998853,None,None,291.12529279998853,None,291.94074595998393,None,,1,0001,2021_Jun_17_1339,localizer,2021.1.3,60.00520844634695,
block,scenes,scenes017.bmp,0,138,138,138,,,,,,,None,,291.94074595998393,None,291.94074595998393,None,2021-06-17-13:42:27.466890,291.9483198999951,292.25788839999586,291.9483198999951,None,None,291.9483198999951,None,292.75605675999543,None,,1,0001,2021_Jun_17_1339,localizer,2021.1.3,60.00520844634695,
block,scenes,scenes090.bmp,0,139,139,139,,,,,,,None,,292.75605675999543,None,292.75605675999543,None,2021-06-17-13:42:28.281495,292.7608557000058,293.0721802999906,292.7608557000058,None,None,292.7608557000058,None,293.5730040600116,None,,1,0001,2021_Jun_17_1339,localizer,2021.1.3,60.00520844634695,
block,scenes,scenes058.bmp,0,140,140,140,,,,,,,None,,293.5730040600116,None,293.5730040600116,None,2021-06-17-13:42:29.097964,293.57771300000604,293.89504239999224,293.57771300000604,None,None,293.57771300000604,None,294.39061386000833,None,,1,0001,2021_Jun_17_1339,localizer,2021.1.3,60.00520844634695,
block,scenes,scenes022.bmp,0,141,141,141,,,,,,,None,,294.39061386000833,None,294.39061386000833,None,2021-06-17-13:42:29.916772,294.39213009999366,294.70613129998674,294.39213009999366,None,None,294.39213009999366,None,295.20677116000445,None,,1,0001,2021_Jun_17_1339,localizer,2021.1.3,60.00520844634695,
block,scenes,scenes067.bmp,0,142,142,142,,,,,,,None,,295.20677116000445,None,295.20677116000445,None,2021-06-17-13:42:30.732738,295.2128301000048,295.52223480000976,295.2128301000048,None,None,295.2128301000048,None,296.02289876000725,None,,1,0001,2021_Jun_17_1339,localizer,2021.1.3,60.00520844634695,
block,scenes,scenes089.bmp,0,143,143,143,,,,,,,None,,296.02289876000725,None,296.02289876000725,None,2021-06-17-13:42:31.547901,296.0274785000074,296.3390789999976,296.0274785000074,None,None,296.0274785000074,None,296.8396371600044,None,,1,0001,2021_Jun_17_1339,localizer,2021.1.3,60.00520844634695,
block,scenes,scenes084.bmp,0,144,144,144,,,,,,,None,,296.8396371600044,None,296.8396371600044,None,2021-06-17-13:42:32.364816,296.83988320000935,297.1392867999966,296.83988320000935,None,None,296.83988320000935,None,297.64600095999197,None,,1,0001,2021_Jun_17_1339,localizer,2021.1.3,60.00520844634695,
block,scenes,scenes087.bmp,0,145,145,145,,,,,,,None,,297.64600095999197,None,297.64600095999197,None,2021-06-17-13:42:33.178662,297.6523454999842,297.95548259999487,297.6523454999842,None,None,297.6523454999842,None,298.45642935999206,None,,1,0001,2021_Jun_17_1339,localizer,2021.1.3,60.00520844634695,
block,scenes,scenes042.bmp,0,146,146,146,,,,,,,None,,298.45642935999206,None,298.45642935999206,None,2021-06-17-13:42:33.981671,298.46131199999945,298.7722341000044,298.46131199999945,None,None,298.46131199999945,None,299.27333736,None,,1,0001,2021_Jun_17_1339,localizer,2021.1.3,60.00520844634695,
block,scenes,scenes008.bmp,0,147,147,147,,,,,,,None,,299.27333736,None,299.27333736,None,2021-06-17-13:42:34.799413,299.2738384999975,299.57238629998756,299.2738384999975,None,None,299.2738384999975,None,300.07384305999733,None,,1,0001,2021_Jun_17_1339,localizer,2021.1.3,60.00520844634695,
block,scenes,scenes018.bmp,0,148,148,148,,,,,,,None,,300.07384305999733,None,300.07384305999733,None,2021-06-17-13:42:35.604025,300.0787045999896,300.3894893999968,300.0787045999896,300.0787045999896,None,300.0787045999896,300.0787045999896,300.89063656000656,None,,1,0001,2021_Jun_17_1339,localizer,2021.1.3,60.00520844634695,
block,scenes,scenes039.bmp,0,149,149,149,,,,,,,None,,300.89063656000656,None,300.89063656000656,None,2021-06-17-13:42:36.417639,300.8986609999847,301.2106405000086,300.8986609999847,None,None,300.8986609999847,None,301.70604385999616,None,,1,0001,2021_Jun_17_1339,localizer,2021.1.3,60.00520844634695,
block,scenes,scenes073.bmp,0,150,150,150,,,,,,,None,,301.70604385999616,None,301.70604385999616,None,2021-06-17-13:42:37.231075,301.7117861000006,302.0225256999838,301.7117861000006,None,None,301.7117861000006,None,302.5230368600111,None,,1,0001,2021_Jun_17_1339,localizer,2021.1.3,60.00520844634695,
block_end,scenes,scenes034.bmp,0,151,151,151,,,,,,,None,,302.5230368600111,None,302.5230368600111,None,2021-06-17-13:42:38.048064,302.52760619999026,302.8387309999962,302.52760619999026,None,None,302.52760619999026,None,303.33985146000634,None,,1,0001,2021_Jun_17_1339,localizer,2021.1.3,60.00520844634695,
null_block,null_block,null_block.bmp,0,152,152,152,,,,,,,t,1.7542930000054184,303.345422399987,None,303.345422399987,None,2021-06-17-13:42:40.656808,305.12972965998927,None,305.12972965998927,None,None,305.12972965998927,None,305.13572950000525,None,,1,0001,2021_Jun_17_1339,localizer,2021.1.3,60.00520844634695,
block_start,faces,faces001.bmp,0,153,153,153,,,,,,,t,1.9539602999866474,317.14560019999044,None,317.14560019999044,None,2021-06-17-13:42:54.647930,319.13028489999124,319.4290265000018,319.13028489999124,None,None,319.13028489999124,None,319.93941116000644,None,,1,0001,2021_Jun_17_1339,localizer,2021.1.3,60.00520844634695,
block,faces,faces060.bmp,0,154,154,154,,,,,,,None,,319.93941116000644,None,319.93941116000644,None,2021-06-17-13:42:55.464523,319.9419371999975,320.2565345999901,319.9419371999975,None,None,319.9419371999975,None,320.7563382599852,None,,1,0001,2021_Jun_17_1339,localizer,2021.1.3,60.00520844634695,
block,faces,faces058.bmp,0,155,155,155,,,,,,,None,,320.7563382599852,None,320.7563382599852,None,2021-06-17-13:42:56.281451,320.7616110999952,321.0720458999858,320.7616110999952,None,None,320.7616110999952,None,321.5730630599952,None,,1,0001,2021_Jun_17_1339,localizer,2021.1.3,60.00520844634695,
block,faces,faces039.bmp,0,156,156,156,,,,,,,None,,321.5730630599952,None,321.5730630599952,None,2021-06-17-13:42:57.098394,321.57331509998767,321.8724690999952,321.57331509998767,None,None,321.57331509998767,None,322.3724624600087,None,,1,0001,2021_Jun_17_1339,localizer,2021.1.3,60.00520844634695,
block,faces,faces043.bmp,0,157,157,157,,,,,,,None,,322.3724624600087,None,322.3724624600087,None,2021-06-17-13:42:57.899746,322.3732364999887,322.6720708000066,322.3732364999887,322.3732364999887,None,322.3732364999887,322.3732364999887,323.1725003599946,None,,1,0001,2021_Jun_17_1339,localizer,2021.1.3,60.00520844634695,
block,faces,faces037.bmp,0,158,158,158,,,,,,,None,,323.1725003599946,None,323.1725003599946,None,2021-06-17-13:42:58.697628,323.17541369999526,323.48855330000515,323.17541369999526,323.17541369999526,None,323.17541369999526,323.17541369999526,323.9893811599992,None,,1,0001,2021_Jun_17_1339,localizer,2021.1.3,60.00520844634695,
block,faces,faces089.bmp,0,159,159,159,,,,,,,None,,323.9893811599992,None,323.9893811599992,None,2021-06-17-13:42:59.514513,323.990298299992,324.28924169999664,323.990298299992,None,None,323.990298299992,None,324.79099515999553,None,,1,0001,2021_Jun_17_1339,localizer,2021.1.3,60.00520844634695,
block,faces,faces061.bmp,0,160,160,160,,,,,,,None,,324.79099515999553,None,324.79099515999553,None,2021-06-17-13:43:00.319163,324.79456809998374,325.10654340000474,324.79456809998374,324.79456809998374,None,324.79456809998374,324.79456809998374,325.6075517600053,None,,1,0001,2021_Jun_17_1339,localizer,2021.1.3,60.00520844634695,
block,faces,faces042.bmp,0,161,161,161,,,,,,,None,,325.6075517600053,None,325.6075517600053,None,2021-06-17-13:43:01.134717,325.61526550000417,325.92293000000063,325.61526550000417,None,None,325.61526550000417,None,326.42314525998665,None,,1,0001,2021_Jun_17_1339,localizer,2021.1.3,60.00520844634695,
block,faces,faces019.bmp,0,162,162,162,,,,,,,None,,326.42314525998665,None,326.42314525998665,None,2021-06-17-13:43:01.948283,326.4338516999851,326.73907459998736,326.4338516999851,None,None,326.4338516999851,None,327.2397206599941,None,,1,0001,2021_Jun_17_1339,localizer,2021.1.3,60.00520844634695,
block,faces,faces080.bmp,0,163,163,163,,,,,,,None,,327.2397206599941,None,327.2397206599941,None,2021-06-17-13:43:02.764871,327.24816369998734,327.5564561999927,327.24816369998734,None,None,327.24816369998734,None,328.0566044599924,None,,1,0001,2021_Jun_17_1339,localizer,2021.1.3,60.00520844634695,
block,faces,faces053.bmp,0,164,164,164,,,,,,,None,,328.0566044599924,None,328.0566044599924,None,2021-06-17-13:43:03.581745,328.06189370001084,328.37223199999426,328.06189370001084,None,None,328.06189370001084,None,328.87313005999897,None,,1,0001,2021_Jun_17_1339,localizer,2021.1.3,60.00520844634695,
block,faces,faces032.bmp,0,165,165,165,,,,,,,None,,328.87313005999897,None,328.87313005999897,None,2021-06-17-13:43:04.398483,328.876582900004,329.1888440999901,328.876582900004,None,None,328.876582900004,None,329.69100795999987,None,,1,0001,2021_Jun_17_1339,localizer,2021.1.3,60.00520844634695,
block,faces,faces063.bmp,0,166,166,166,,,,,,,None,,329.69100795999987,None,329.69100795999987,None,2021-06-17-13:43:05.217328,329.6927024000033,330.0062937999901,329.6927024000033,None,None,329.6927024000033,None,330.50696555998877,None,,1,0001,2021_Jun_17_1339,localizer,2021.1.3,60.00520844634695,
block_end,faces,faces049.bmp,0,167,167,167,,,,,,,None,,330.50696555998877,None,330.50696555998877,None,2021-06-17-13:43:06.032125,330.50749960000394,330.8065929999866,330.50749960000394,None,None,330.50749960000394,None,331.3068111599947,None,,1,0001,2021_Jun_17_1339,localizer,2021.1.3,60.00520844634695,
block_start,objects,objects015.bmp,0,168,168,168,,,,,,,t,1.7934012999758124,331.3060517999984,None,331.3060517999984,None,2021-06-17-13:43:08.650691,333.1309251000057,333.4390461999865,333.1309251000057,None,None,333.1309251000057,None,333.94002095999315,None,,1,0001,2021_Jun_17_1339,localizer,2021.1.3,60.00520844634695,
block,objects,objects020.bmp,0,169,169,169,,,,,,,None,,333.94002095999315,None,333.94002095999315,None,2021-06-17-13:43:09.465188,333.9441461999959,334.25576379999984,333.9441461999959,None,None,333.9441461999959,None,334.75708825999175,None,,1,0001,2021_Jun_17_1339,localizer,2021.1.3,60.00520844634695,
block,objects,objects023.bmp,0,170,170,170,,,,,,,None,,334.75708825999175,None,334.75708825999175,None,2021-06-17-13:43:10.283308,334.7626014999987,335.07264009999926,334.7626014999987,None,None,334.7626014999987,None,335.5752968600078,None,,1,0001,2021_Jun_17_1339,localizer,2021.1.3,60.00520844634695,
block,objects,objects049.bmp,0,171,171,171,,,,,,,None,,335.5752968600078,None,335.5752968600078,None,2021-06-17-13:43:11.103420,335.583718400012,335.8894175000023,335.583718400012,None,None,335.583718400012,None,336.39198166000426,None,,1,0001,2021_Jun_17_1339,localizer,2021.1.3,60.00520844634695,
block,objects,objects038.bmp,0,172,172,172,,,,,,,None,,336.39198166000426,None,336.39198166000426,None,2021-06-17-13:43:11.921106,336.3948880000098,336.7058293999871,336.3948880000098,None,None,336.3948880000098,None,337.2076328599884,None,,1,0001,2021_Jun_17_1339,localizer,2021.1.3,60.00520844634695,
block,objects,objects027.bmp,0,173,173,173,,,,,,,None,,337.2076328599884,None,337.2076328599884,None,2021-06-17-13:43:12.733795,337.2140817999898,337.5223622999911,337.2140817999898,None,None,337.2140817999898,None,338.0232517599885,None,,1,0001,2021_Jun_17_1339,localizer,2021.1.3,60.00520844634695,
block,objects,objects083.bmp,0,174,174,174,,,,,,,None,,338.0232517599885,None,338.0232517599885,None,2021-06-17-13:43:13.548438,338.0275261999923,338.33866869998747,338.0275261999923,None,None,338.0275261999923,None,338.83986385998435,None,,1,0001,2021_Jun_17_1339,localizer,2021.1.3,60.00520844634695,
block,objects,objects088.bmp,0,175,175,175,,,,,,,None,,338.83986385998435,None,338.83986385998435,None,2021-06-17-13:43:14.365057,338.840065700002,339.13922569999704,338.840065700002,None,None,338.840065700002,None,339.639503159991,None,,1,0001,2021_Jun_17_1339,localizer,2021.1.3,60.00520844634695,
block,objects,objects055.bmp,0,176,176,176,,,,,,,None,,339.639503159991,None,339.639503159991,None,2021-06-17-13:43:15.165988,339.6400483000034,339.9389089999895,339.6400483000034,339.6400483000034,None,339.6400483000034,339.6400483000034,340.43967765999844,None,,1,0001,2021_Jun_17_1339,localizer,2021.1.3,60.00520844634695,
block,objects,objects041.bmp,0,177,177,177,,,,,,,None,,340.43967765999844,None,340.43967765999844,None,2021-06-17-13:43:15.966464,340.4444278999872,340.7559246000019,340.4444278999872,340.4444278999872,None,340.4444278999872,340.4444278999872,341.25626526001145,None,,1,0001,2021_Jun_17_1339,localizer,2021.1.3,60.00520844634695,
block,objects,objects069.bmp,0,178,178,178,,,,,,,None,,341.25626526001145,None,341.25626526001145,None,2021-06-17-13:43:16.781469,341.258949399984,341.5727087999985,341.258949399984,None,None,341.258949399984,None,342.0741973599885,None,,1,0001,2021_Jun_17_1339,localizer,2021.1.3,60.00520844634695,
block,objects,objects062.bmp,0,179,179,179,,,,,,,None,,342.0741973599885,None,342.0741973599885,None,2021-06-17-13:43:17.598454,342.07588280001073,342.389508799999,342.07588280001073,None,None,342.07588280001073,None,342.88968595998597,None,,1,0001,2021_Jun_17_1339,localizer,2021.1.3,60.00520844634695,
block,objects,objects029.bmp,0,180,180,180,,,,,,,None,,342.88968595998597,None,342.88968595998597,None,2021-06-17-13:43:18.415425,342.89318079999066,343.20668699999806,342.89318079999066,None,None,342.89318079999066,None,343.70714065999493,None,,1,0001,2021_Jun_17_1339,localizer,2021.1.3,60.00520844634695,
block,objects,objects066.bmp,0,181,181,181,,,,,,,None,,343.70714065999493,None,343.70714065999493,None,2021-06-17-13:43:19.233531,343.7135081999877,344.0221645999991,343.7135081999877,None,None,343.7135081999877,None,344.52377295999906,None,,1,0001,2021_Jun_17_1339,localizer,2021.1.3,60.00520844634695,
block_end,objects,objects040.bmp,0,182,182,182,,,,,,,None,,344.52377295999906,None,344.52377295999906,None,2021-06-17-13:43:20.049958,344.52391859999625,344.82293279998703,344.52391859999625,None,None,344.52391859999625,None,345.3232076599903,None,,1,0001,2021_Jun_17_1339,localizer,2021.1.3,60.00520844634695,
block_start,scrambled,scrambled051.bmp,0,183,183,183,,,,,,,t,1.7770429000083823,345.32254749999265,None,345.32254749999265,None,2021-06-17-13:43:22.647237,347.1235422999889,347.42232789998525,347.1235422999889,None,None,347.1235422999889,None,347.92315876000214,None,,1,0001,2021_Jun_17_1339,localizer,2021.1.3,60.00520844634695,
block,scrambled,scrambled083.bmp,0,184,184,184,,,,,,,None,,347.92315876000214,None,347.92315876000214,None,2021-06-17-13:43:23.449388,347.9283069999947,348.23942599998554,347.9283069999947,347.9283069999947,None,347.9283069999947,347.9283069999947,348.7405648599903,None,,1,0001,2021_Jun_17_1339,localizer,2021.1.3,60.00520844634695,
block,scrambled,scrambled054.bmp,0,185,185,185,,,,,,,None,,348.7405648599903,None,348.7405648599903,None,2021-06-17-13:43:24.266738,348.7458016999881,349.0560325999977,348.7458016999881,None,None,348.7458016999881,None,349.55719755999746,None,,1,0001,2021_Jun_17_1339,localizer,2021.1.3,60.00520844634695,
block,scrambled,scrambled081.bmp,0,186,186,186,,,,,,,None,,349.55719755999746,None,349.55719755999746,None,2021-06-17-13:43:25.083603,349.5638263000001,349.8732616000052,349.5638263000001,None,None,349.5638263000001,None,350.37355005999564,None,,1,0001,2021_Jun_17_1339,localizer,2021.1.3,60.00520844634695,
block,scrambled,scrambled010.bmp,0,187,187,187,,,,,,,None,,350.37355005999564,None,350.37355005999564,None,2021-06-17-13:43:25.899002,350.37838969999575,350.68946669998695,350.37838969999575,None,None,350.37838969999575,None,351.1899114600034,None,,1,0001,2021_Jun_17_1339,localizer,2021.1.3,60.00520844634695,
block,scrambled,scrambled053.bmp,0,188,188,188,,,,,,,None,,351.1899114600034,None,351.1899114600034,None,2021-06-17-13:43:26.715412,351.1901280999882,351.4894597000093,351.1901280999882,None,None,351.1901280999882,None,351.9900222599914,None,,1,0001,2021_Jun_17_1339,localizer,2021.1.3,60.00520844634695,
block,scrambled,scrambled001.bmp,0,189,189,189,,,,,,,None,,351.9900222599914,None,351.9900222599914,None,2021-06-17-13:43:27.517263,351.99651090000407,352.3068498999928,351.99651090000407,351.99651090000407,None,351.99651090000407,351.99651090000407,352.80631176000463,None,,1,0001,2021_Jun_17_1339,localizer,2021.1.3,60.00520844634695,
block,scrambled,scrambled047.bmp,0,190,190,190,,,,,,,None,,352.80631176000463,None,352.80631176000463,None,2021-06-17-13:43:28.331569,352.806980399997,353.105893800006,352.806980399997,None,None,352.806980399997,None,353.60661065999886,None,,1,0001,2021_Jun_17_1339,localizer,2021.1.3,60.00520844634695,
block,scrambled,scrambled035.bmp,0,191,191,191,,,,,,,None,,353.60661065999886,None,353.60661065999886,None,2021-06-17-13:43:29.133862,353.6132517000078,353.922653799993,353.6132517000078,353.6132517000078,None,353.6132517000078,353.6132517000078,354.42538535998904,None,,1,0001,2021_Jun_17_1339,localizer,2021.1.3,60.00520844634695,
block,scrambled,scrambled044.bmp,0,192,192,192,,,,,,,None,,354.42538535998904,None,354.42538535998904,None,2021-06-17-13:43:29.954784,354.4304548999935,354.7391135999933,354.4304548999935,None,None,354.4304548999935,None,355.23994525998717,None,,1,0001,2021_Jun_17_1339,localizer,2021.1.3,60.00520844634695,
block,scrambled,scrambled063.bmp,0,193,193,193,,,,,,,None,,355.23994525998717,None,355.23994525998717,None,2021-06-17-13:43:30.765356,355.24432749999687,355.5560067000042,355.24432749999687,None,None,355.24432749999687,None,356.0578434599971,None,,1,0001,2021_Jun_17_1339,localizer,2021.1.3,60.00520844634695,
block,scrambled,scrambled002.bmp,0,194,194,194,,,,,,,None,,356.0578434599971,None,356.0578434599971,None,2021-06-17-13:43:31.585283,356.06711919998634,356.3790078999882,356.06711919998634,None,None,356.06711919998634,None,356.87338885999054,None,,1,0001,2021_Jun_17_1339,localizer,2021.1.3,60.00520844634695,
block,scrambled,scrambled077.bmp,0,195,195,195,,,,,,,None,,356.87338885999054,None,356.87338885999054,None,2021-06-17-13:43:32.398631,356.8735987000109,357.17265699998825,356.8735987000109,None,None,356.8735987000109,None,357.6728574600071,None,,1,0001,2021_Jun_17_1339,localizer,2021.1.3,60.00520844634695,
block,scrambled,scrambled059.bmp,0,196,196,196,,,,,,,None,,357.6728574600071,None,357.6728574600071,None,2021-06-17-13:43:33.200132,357.67349529999774,357.9727181000053,357.67349529999774,357.67349529999774,None,357.67349529999774,357.67349529999774,358.48001225999326,None,,1,0001,2021_Jun_17_1339,localizer,2021.1.3,60.00520844634695,
block_end,scrambled,scrambled007.bmp,0,197,197,197,,,,,,,None,,358.48001225999326,None,358.48001225999326,None,2021-06-17-13:43:34.009325,358.48389110001153,358.78977770000347,358.48389110001153,None,None,358.48389110001153,None,359.290124159999,None,,1,0001,2021_Jun_17_1339,localizer,2021.1.3,60.00520844634695,
block_start,objects,objects042.bmp,0,198,198,198,,,,,,,t,1.8102433999883942,359.2894554999948,None,359.2894554999948,None,2021-06-17-13:43:36.652665,361.1317659000051,361.4394886000082,361.1317659000051,None,None,361.1317659000051,None,361.94017256001246,None,,1,0001,2021_Jun_17_1339,localizer,2021.1.3,60.00520844634695,
block,objects,objects001.bmp,0,199,199,199,,,,,,,None,,361.94017256001246,None,361.94017256001246,None,2021-06-17-13:43:37.465683,361.9403592000017,362.23939289999544,361.9403592000017,None,None,361.9403592000017,None,362.7398012599966,None,,1,0001,2021_Jun_17_1339,localizer,2021.1.3,60.00520844634695,
block,objects,objects010.bmp,0,200,200,200,,,,,,,None,,362.7398012599966,None,362.7398012599966,None,2021-06-17-13:43:38.266099,362.7401399000082,363.0401172999991,362.7401399000082,362.7401399000082,None,362.7401399000082,362.7401399000082,363.5397685599979,None,,1,0001,2021_Jun_17_1339,localizer,2021.1.3,60.00520844634695,
block,objects,objects015.bmp,0,201,201,201,,,,,,,None,,363.5397685599979,None,363.5397685599979,None,2021-06-17-13:43:39.065959,363.5402499999909,363.8406861000112,363.5402499999909,363.5402499999909,None,363.5402499999909,363.5402499999909,364.3412036599999,None,,1,0001,2021_Jun_17_1339,localizer,2021.1.3,60.00520844634695,
block,objects,objects088.bmp,0,202,202,202,,,,,,,None,,364.3412036599999,None,364.3412036599999,None,2021-06-17-13:43:39.871655,364.3461569999927,364.6558098999958,364.3461569999927,364.3461569999927,None,364.3461569999927,364.3461569999927,365.1461605599849,None,,1,0001,2021_Jun_17_1339,localizer,2021.1.3,60.00520844634695,
block,objects,objects047.bmp,0,203,203,203,,,,,,,None,,365.1461605599849,None,365.1461605599849,None,2021-06-17-13:43:40.680448,365.1609843999904,365.4728531999863,365.1609843999904,365.1609843999904,None,365.1609843999904,365.1609843999904,365.97299196000097,None,,1,0001,2021_Jun_17_1339,localizer,2021.1.3,60.00520844634695,
block,objects,objects062.bmp,0,204,204,204,,,,,,,None,,365.97299196000097,None,365.97299196000097,None,2021-06-17-13:43:41.497352,365.97381679998944,366.2728989000025,365.97381679998944,None,None,365.97381679998944,None,366.773254060006,None,,1,0001,2021_Jun_17_1339,localizer,2021.1.3,60.00520844634695,
block,objects,objects064.bmp,0,205,205,205,,,,,,,None,,366.773254060006,None,366.773254060006,None,2021-06-17-13:43:42.300562,366.77977540000575,367.0900912999932,366.77977540000575,366.77977540000575,None,366.77977540000575,366.77977540000575,367.59070575999215,None,,1,0001,2021_Jun_17_1339,localizer,2021.1.3,60.00520844634695,
block,objects,objects071.bmp,0,206,206,206,,,,,,,None,,367.59070575999215,None,367.59070575999215,None,2021-06-17-13:43:43.117184,367.59064489998855,367.8895021000062,367.59064489998855,None,None,367.59064489998855,None,368.3906490599853,None,,1,0001,2021_Jun_17_1339,localizer,2021.1.3,60.00520844634695,
block,objects,objects080.bmp,0,207,207,207,,,,,,,None,,368.3906490599853,None,368.3906490599853,None,2021-06-17-13:43:43.919040,368.3977928000095,368.706354199996,368.3977928000095,368.3977928000095,None,368.3977928000095,368.3977928000095,369.2064548600116,None,,1,0001,2021_Jun_17_1339,localizer,2021.1.3,60.00520844634695,
block,objects,objects077.bmp,0,208,208,208,,,,,,,None,,369.2064548600116,None,369.2064548600116,None,2021-06-17-13:43:44.731786,369.20720340000116,369.5065413999837,369.20720340000116,None,None,369.20720340000116,None,370.00686106000796,None,,1,0001,2021_Jun_17_1339,localizer,2021.1.3,60.00520844634695,
block,objects,objects021.bmp,0,209,209,209,,,,,,,None,,370.00686106000796,None,370.00686106000796,None,2021-06-17-13:43:45.534184,370.01232720000553,370.32289029998356,370.01232720000553,370.01232720000553,None,370.01232720000553,370.01232720000553,370.8235975599906,None,,1,0001,2021_Jun_17_1339,localizer,2021.1.3,60.00520844634695,
block,objects,objects063.bmp,0,210,210,210,,,,,,,None,,370.8235975599906,None,370.8235975599906,None,2021-06-17-13:43:46.349143,370.82750240000314,371.13937650001026,370.82750240000314,None,None,370.82750240000314,None,371.6402045600058,None,,1,0001,2021_Jun_17_1339,localizer,2021.1.3,60.00520844634695,
block,objects,objects052.bmp,0,211,211,211,,,,,,,None,,371.6402045600058,None,371.6402045600058,None,2021-06-17-13:43:47.165257,371.65014499999234,371.95614649998606,371.65014499999234,None,None,371.65014499999234,None,372.45683666000843,None,,1,0001,2021_Jun_17_1339,localizer,2021.1.3,60.00520844634695,
block_end,objects,objects066.bmp,0,212,212,212,,,,,,,None,,372.45683666000843,None,372.45683666000843,None,2021-06-17-13:43:47.981323,372.457153299998,372.76261279999744,372.457153299998,None,None,372.457153299998,None,373.25665155998433,None,,1,0001,2021_Jun_17_1339,localizer,2021.1.3,60.00520844634695,
block_start,scenes,scenes089.bmp,0,213,213,213,,,,,,,t,1.8370436999830417,373.26250829998753,None,373.26250829998753,None,2021-06-17-13:43:50.647579,375.1237323000096,375.42267510000966,375.1237323000096,None,None,375.1237323000096,None,375.9236149600125,None,,1,0001,2021_Jun_17_1339,localizer,2021.1.3,60.00520844634695,
block,scenes,scenes024.bmp,0,214,214,214,,,,,,,None,,375.9236149600125,None,375.9236149600125,None,2021-06-17-13:43:51.450963,375.93009360000724,376.24003139999695,375.93009360000724,375.93009360000724,None,375.93009360000724,375.93009360000724,376.74079335998397,None,,1,0001,2021_Jun_17_1339,localizer,2021.1.3,60.00520844634695,
block,scenes,scenes033.bmp,0,215,215,215,,,,,,,None,,376.74079335998397,None,376.74079335998397,None,2021-06-17-13:43:52.267050,376.7461379999877,377.0562205000024,376.7461379999877,None,None,376.7461379999877,None,377.55664155998386,None,,1,0001,2021_Jun_17_1339,localizer,2021.1.3,60.00520844634695,
block,scenes,scenes056.bmp,0,216,216,216,,,,,,,None,,377.55664155998386,None,377.55664155998386,None,2021-06-17-13:43:53.082004,377.5609625999932,377.87361439998494,377.5609625999932,None,None,377.5609625999932,None,378.37334826000153,None,,1,0001,2021_Jun_17_1339,localizer,2021.1.3,60.00520844634695,
block,scenes,scenes056.bmp,0,217,217,217,,,,,,,None,,378.37334826000153,None,378.37334826000153,None,2021-06-17-13:43:53.899253,378.37372329999926,378.67298400000436,378.37372329999926,None,y,378.37372329999926,None,379.17316155999436,None,0.6196429999836255,1,0001,2021_Jun_17_1339,localizer,2021.1.3,60.00520844634695,
block,scenes,scenes038.bmp,0,218,218,218,,,,,,,None,,379.17316155999436,None,379.17316155999436,None,2021-06-17-13:43:54.699762,379.1771666999848,379.489407999994,379.1771666999848,379.1771666999848,None,379.1771666999848,379.1771666999848,379.9902194600087,None,,1,0001,2021_Jun_17_1339,localizer,2021.1.3,60.00520844634695,
block,scenes,scenes081.bmp,0,219,219,219,,,,,,,None,,379.9902194600087,None,379.9902194600087,None,2021-06-17-13:43:55.515829,379.9945305000001,380.30629459998454,379.9945305000001,None,None,379.9945305000001,None,380.80664526001203,None,,1,0001,2021_Jun_17_1339,localizer,2021.1.3,60.00520844634695,
block,scenes,scenes051.bmp,0,220,220,220,,,,,,,None,,380.80664526001203,None,380.80664526001203,None,2021-06-17-13:43:56.332317,380.8106715999893,381.1228409000032,380.8106715999893,None,None,380.8106715999893,None,381.62345095999774,None,,1,0001,2021_Jun_17_1339,localizer,2021.1.3,60.00520844634695,
block,scenes,scenes036.bmp,0,221,221,221,,,,,,,None,,381.62345095999774,None,381.62345095999774,None,2021-06-17-13:43:57.148830,381.6278022000042,381.93965350001235,381.6278022000042,None,None,381.6278022000042,None,382.4403106599872,None,,1,0001,2021_Jun_17_1339,localizer,2021.1.3,60.00520844634695,
block,scenes,scenes037.bmp,0,222,222,222,,,,,,,None,,382.4403106599872,None,382.4403106599872,None,2021-06-17-13:43:57.965694,382.44049360000645,382.73987620000844,382.44049360000645,None,None,382.44049360000645,None,383.2400613599981,None,,1,0001,2021_Jun_17_1339,localizer,2021.1.3,60.00520844634695,
block,scenes,scenes032.bmp,0,223,223,223,,,,,,,None,,383.2400613599981,None,383.2400613599981,None,2021-06-17-13:43:58.766448,383.24429130001226,383.5563380999956,383.24429130001226,383.24429130001226,None,383.24429130001226,383.24429130001226,384.0570248599921,None,,1,0001,2021_Jun_17_1339,localizer,2021.1.3,60.00520844634695,
block,scenes,scenes067.bmp,0,224,224,224,,,,,,,None,,384.0570248599921,None,384.0570248599921,None,2021-06-17-13:43:59.582414,384.05724409999675,384.37290940000094,384.05724409999675,None,None,384.05724409999675,None,384.8564309599984,None,,1,0001,2021_Jun_17_1339,localizer,2021.1.3,60.00520844634695,
block,scenes,scenes075.bmp,0,225,225,225,,,,,,,None,,384.8564309599984,None,384.8564309599984,None,2021-06-17-13:44:00.382828,384.8571590000065,385.15870880000875,384.8571590000065,384.8571590000065,None,384.8571590000065,384.8571590000065,385.6565859600029,None,,1,0001,2021_Jun_17_1339,localizer,2021.1.3,60.00520844634695,
block,scenes,scenes006.bmp,0,226,226,226,,,,,,,None,,385.6565859600029,None,385.6565859600029,None,2021-06-17-13:44:01.183983,385.6615290000045,385.97284450000734,385.6615290000045,385.6615290000045,None,385.6615290000045,385.6615290000045,386.47419115999367,None,,1,0001,2021_Jun_17_1339,localizer,2021.1.3,60.00520844634695,
block_end,scenes,scenes072.bmp,0,227,227,227,,,,,,,None,,386.47419115999367,None,386.47419115999367,None,2021-06-17-13:44:02.000650,386.47987660000217,386.78969189999043,386.47987660000217,None,None,386.47987660000217,None,387.2904697600112,None,,1,0001,2021_Jun_17_1339,localizer,2021.1.3,60.00520844634695,
block_start,faces,faces030.bmp,0,228,228,228,,,,,,,t,1.8095426999789197,387.28997799998615,None,387.28997799998615,None,2021-06-17-13:44:04.649240,389.12972940001055,389.43958080001175,389.12972940001055,None,None,389.12972940001055,None,389.9401000599843,None,,1,0001,2021_Jun_17_1339,localizer,2021.1.3,60.00520844634695,
block,faces,faces060.bmp,0,229,229,229,,,,,,,None,,389.9401000599843,None,389.9401000599843,None,2021-06-17-13:44:05.465522,389.94054790001246,390.2397052999877,389.94054790001246,None,None,389.94054790001246,None,390.7404108600109,None,,1,0001,2021_Jun_17_1339,localizer,2021.1.3,60.00520844634695,
block,faces,faces079.bmp,0,230,230,230,,,,,,,None,,390.7404108600109,None,390.7404108600109,None,2021-06-17-13:44:06.266154,390.7442958999891,391.0566918000113,390.7442958999891,390.7442958999891,None,390.7442958999891,390.7442958999891,391.5579400600051,None,,1,0001,2021_Jun_17_1339,localizer,2021.1.3,60.00520844634695,
block,faces,faces023.bmp,0,231,231,231,,,,,,,None,,391.5579400600051,None,391.5579400600051,None,2021-06-17-13:44:07.085526,391.55969940000796,391.87378230001195,391.55969940000796,None,None,391.55969940000796,None,392.3741881599941,None,,1,0001,2021_Jun_17_1339,localizer,2021.1.3,60.00520844634695,
block,faces,faces002.bmp,0,232,232,232,,,,,,,None,,392.3741881599941,None,392.3741881599941,None,2021-06-17-13:44:07.899602,392.3808922999888,392.68994589999784,392.3808922999888,None,None,392.3808922999888,None,393.1790560599999,None,,1,0001,2021_Jun_17_1339,localizer,2021.1.3,60.00520844634695,
block,faces,faces017.bmp,0,233,233,233,,,,,,,None,,393.1790560599999,None,393.1790560599999,None,2021-06-17-13:44:08.707489,393.18174679999356,393.49048159999074,393.18174679999356,None,None,393.18174679999356,None,393.9914496600046,None,,1,0001,2021_Jun_17_1339,localizer,2021.1.3,60.00520844634695,
block,faces,faces071.bmp,0,234,234,234,,,,,,,None,,393.9914496600046,None,393.9914496600046,None,2021-06-17-13:44:09.519858,393.995161800005,394.30611710000085,393.995161800005,None,None,393.995161800005,None,394.79614866000486,None,,1,0001,2021_Jun_17_1339,localizer,2021.1.3,60.00520844634695,
block,faces,faces051.bmp,0,235,235,235,,,,,,,None,,394.79614866000486,None,394.79614866000486,None,2021-06-17-13:44:10.327309,394.8016006000107,395.1067076000036,394.8016006000107,394.8016006000107,None,394.8016006000107,394.8016006000107,395.6072014599864,None,,1,0001,2021_Jun_17_1339,localizer,2021.1.3,60.00520844634695,
block,faces,faces022.bmp,0,236,236,236,,,,,,,None,,395.6072014599864,None,395.6072014599864,None,2021-06-17-13:44:11.132936,395.6141806000087,395.92342949999147,395.6141806000087,None,None,395.6141806000087,None,396.4235885599861,None,,1,0001,2021_Jun_17_1339,localizer,2021.1.3,60.00520844634695,
block,faces,faces084.bmp,0,237,237,237,,,,,,,None,,396.4235885599861,None,396.4235885599861,None,2021-06-17-13:44:11.948731,396.42735939999693,396.7399060000025,396.42735939999693,None,None,396.42735939999693,None,397.24143866000816,None,,1,0001,2021_Jun_17_1339,localizer,2021.1.3,60.00520844634695,
block,faces,faces006.bmp,0,238,238,238,,,,,,,None,,397.24143866000816,None,397.24143866000816,None,2021-06-17-13:44:12.769012,397.24337280000327,397.56355679998524,397.24337280000327,None,None,397.24337280000327,None,398.0581188599987,None,,1,0001,2021_Jun_17_1339,localizer,2021.1.3,60.00520844634695,
block,faces,faces054.bmp,0,239,239,239,,,,,,,None,,398.0581188599987,None,398.0581188599987,None,2021-06-17-13:44:13.586547,398.0668561999919,398.3741066000075,398.0668561999919,None,None,398.0668561999919,None,398.87373995998644,None,,1,0001,2021_Jun_17_1339,localizer,2021.1.3,60.00520844634695,
block,faces,faces085.bmp,0,240,240,240,,,,,,,None,,398.87373995998644,None,398.87373995998644,None,2021-06-17-13:44:14.399419,398.87416060001124,399.17373800001224,398.87416060001124,None,None,398.87416060001124,None,399.67419385999676,None,,1,0001,2021_Jun_17_1339,localizer,2021.1.3,60.00520844634695,
block,faces,faces046.bmp,0,241,241,241,,,,,,,None,,399.67419385999676,None,399.67419385999676,None,2021-06-17-13:44:15.202800,399.6829458999855,399.99042990000453,399.6829458999855,399.6829458999855,None,399.6829458999855,399.6829458999855,400.48996316000705,None,,1,0001,2021_Jun_17_1339,localizer,2021.1.3,60.00520844634695,
block_end,faces,faces039.bmp,0,242,242,242,,,,,,,None,,400.48996316000705,None,400.48996316000705,None,2021-06-17-13:44:16.015424,400.4908110999968,400.79043180000735,400.4908110999968,None,None,400.4908110999968,None,401.2910353600106,None,,1,0001,2021_Jun_17_1339,localizer,2021.1.3,60.00520844634695,
,,,,,,,,,,,,,t,1.8088515999843366,401.2906156000099,None,401.2906156000099,None,2021-06-17-13:44:18.648521,403.1238580600126,None,403.1238580600126,None,None,403.1238580600126,None,,,,,,,,,,
