block_type,condition,img_name,Button.thisRepN,Button.thisTrialN,Button.thisN,Button.thisIndex,trials.thisRepN,trials.thisTrialN,trials.thisN,trials.thisIndex,Ready_experimenter_text.started,Ready_experimenter_text.stopped,Ready_experimenter_resp.keys,Ready_experimenter_resp.rt,Ready_experimenter_resp.started,Ready_experimenter_resp.stopped,Alignment_background.started,Alignment_background.stopped,Alignment_image.started,Alignment_image.stopped,Alignment_resp.keys,Alignment_resp.rt,Alignment_resp.started,Alignment_resp.stopped,Button_text.started,Button_text.stopped,Index_text.started,Index_text.stopped,Index_resp.keys,Index_resp.rt,Index_resp.started,Index_resp.stopped,Middle_text.started,Middle_text.stopped,Middle_resp.keys,Middle_resp.rt,Middle_resp.started,Middle_resp.stopped,Repeat_text.started,Repeat_text.stopped,Repeat_resp.keys,Repeat_resp.corr,Repeat_resp.rt,Repeat_resp.started,Repeat_resp.stopped,instruction_text.started,instruction_text.stopped,key_resp.keys,key_resp.rt,key_resp.started,key_resp.stopped,scanner_t.keys,scanner_t.rt,scanner_t.started,scanner_t.stopped,fixation_wait_for_t.started,fixation_wait_for_t.stopped,real_timestamp_trial_start,image.started,image.stopped,fixation.started,fixation.stopped,repeat_response.keys,repeat_response.started,repeat_response.stopped,fixation_null.started,fixation_null.stopped,repeat_response.rt,end_text.started,end_text.stopped,participant,run,date,expName,psychopyVersion,frameRate,
,,,,,,,,,,,10.411920000100508,None,return,61.12731759995222,10.411920000100508,None,,,,,,,,,,,,,,,,,,,,,,,,,,,,,,,,,,,,,,,,,,,,,,,,,,,,,,,12015,0001,2022_May_12_1359,localizer,2021.1.3,60.2910490223374,
,,,,,,,,,,,,,,,,,71.59203829988837,None,71.59203829988837,None,return,7.814617000054568,71.59203829988837,None,,,,,,,,,,,,,,,,,,,,,,,,,,,,,,,,,,,,,,,,,,,,,,,12015,0001,2022_May_12_1359,localizer,2021.1.3,60.2910490223374,
,,,0,0,0,0,,,,,,,,,,,,,,,,,,,79.42128199990839,None,80.43552950001322,None,y,3.1294943999964744,80.43552950001322,None,83.58409380004741,None,b,1.6157275000587106,83.58409380004741,None,85.2180186000187,None,n,0,1.7994049999397248,85.2180186000187,None,,,,,,,,,,,,,,,,,,,,,,,,,,12015,0001,2022_May_12_1359,localizer,2021.1.3,60.2910490223374,
,,,,,,,,,,,,,,,,,,,,,,,,,,,,,,,,,,,,,,,,,,,,,,87.03370400005952,None,y,35.17029340006411,87.03370400005952,None,,,,,,,,,,,,,,,,,,,,12015,0001,2022_May_12_1359,localizer,2021.1.3,60.2910490223374,
null_block,null_block,null_block.bmp,,,,,0,0,0,0,,,,,,,,,,,,,,,,,,,,,,,,,,,,,,,,,,,,,,,,,,t,16.978462000144646,122.30158239998855,None,122.30158239998855,None,2022-05-12-14:01:14.898870,139.31927702003156,None,139.31927702003156,None,None,139.31927702003156,None,139.32213200000115,None,,,,12015,0001,2022_May_12_1359,localizer,2021.1.3,60.2910490223374,
block_start,scenes,scenes060.bmp,,,,,0,1,1,1,,,,,,,,,,,,,,,,,,,,,,,,,,,,,,,,,,,,,,,,,,t,1.9458973999135196,151.33423759997822,None,151.33423759997822,None,2022-05-12-14:01:28.903825,153.32151259994134,153.6342398999259,153.32151259994134,None,None,153.32151259994134,None,154.11709830996114,None,,,,12015,0001,2022_May_12_1359,localizer,2021.1.3,60.2910490223374,
block,scenes,scenes037.bmp,,,,,0,2,2,2,,,,,,,,,,,,,,,,,,,,,,,,,,,,,,,,,,,,,,,,,,None,,154.11709830996114,None,154.11709830996114,None,2022-05-12-14:01:29.710967,154.12520350003615,154.43390149995685,154.12520350003615,None,None,154.12520350003615,None,154.92361311002168,None,,,,12015,0001,2022_May_12_1359,localizer,2021.1.3,60.2910490223374,
block,scenes,scenes010.bmp,,,,,0,3,3,3,,,,,,,,,,,,,,,,,,,,,,,,,,,,,,,,,,,,,,,,,,None,,154.94028832004403,None,154.94028832004403,None,2022-05-12-14:01:30.638491,155.0517651999835,155.36694140010513,155.0517651999835,None,None,155.0517651999835,None,155.78412391005548,None,,,,12015,0001,2022_May_12_1359,localizer,2021.1.3,60.2910490223374,
block,scenes,scenes049.bmp,,,,,0,4,4,4,,,,,,,,,,,,,,,,,,,,,,,,,,,,,,,,,,,,,,,,,,None,,155.78412391005548,None,155.78412391005548,None,2022-05-12-14:01:31.379233,155.79442339995876,156.10115749994293,155.79442339995876,None,None,155.79442339995876,None,156.59061761007177,None,,,,12015,0001,2022_May_12_1359,localizer,2021.1.3,60.2910490223374,
block,scenes,scenes020.bmp,,,,,0,5,5,5,,,,,,,,,,,,,,,,,,,,,,,,,,,,,,,,,,,,,,,,,,None,,156.59061761007177,None,156.59061761007177,None,2022-05-12-14:01:32.189683,156.6058082000818,156.91714489995502,156.6058082000818,None,None,156.6058082000818,None,157.40033170992973,None,,,,12015,0001,2022_May_12_1359,localizer,2021.1.3,60.2910490223374,
block,scenes,scenes050.bmp,,,,,0,6,6,6,,,,,,,,,,,,,,,,,,,,,,,,,,,,,,,,,,,,,,,,,,None,,157.40033170992973,None,157.40033170992973,None,2022-05-12-14:01:32.994449,157.4086501998827,157.71751530002803,157.4086501998827,None,None,157.4086501998827,None,158.21722440996672,None,,,,12015,0001,2022_May_12_1359,localizer,2021.1.3,60.2910490223374,
block,scenes,scenes082.bmp,,,,,0,7,7,7,,,,,,,,,,,,,,,,,,,,,,,,,,,,,,,,,,,,,,,,,,None,,158.21722440996672,None,158.21722440996672,None,2022-05-12-14:01:33.812811,158.22742499993183,158.53408839995973,158.22742499993183,None,None,158.22742499993183,None,159.03406471007037,None,,,,12015,0001,2022_May_12_1359,localizer,2021.1.3,60.2910490223374,
block,scenes,scenes065.bmp,,,,,0,8,8,8,,,,,,,,,,,,,,,,,,,,,,,,,,,,,,,,,,,,,,,,,,None,,159.03406471007037,None,159.03406471007037,None,2022-05-12-14:01:34.629176,159.04352389997803,159.3507840000093,159.04352389997803,None,None,159.04352389997803,None,159.8506349100964,None,,,,12015,0001,2022_May_12_1359,localizer,2021.1.3,60.2910490223374,
block,scenes,scenes043.bmp,,,,,0,9,9,9,,,,,,,,,,,,,,,,,,,,,,,,,,,,,,,,,,,,,,,,,,None,,159.8506349100964,None,159.8506349100964,None,2022-05-12-14:01:35.446223,159.86082220007665,160.16948350006714,159.86082220007665,None,None,159.86082220007665,None,160.6679702100111,None,,,,12015,0001,2022_May_12_1359,localizer,2021.1.3,60.2910490223374,
block,scenes,scenes014.bmp,,,,,0,10,10,10,,,,,,,,,,,,,,,,,,,,,,,,,,,,,,,,,,,,,,,,,,None,,160.6679702100111,None,160.6679702100111,None,2022-05-12-14:01:36.264254,160.68072649999522,160.98380600009114,160.68072649999522,None,None,160.68072649999522,None,161.4841759099392,None,,,,12015,0001,2022_May_12_1359,localizer,2021.1.3,60.2910490223374,
block,scenes,scenes008.bmp,,,,,0,11,11,11,,,,,,,,,,,,,,,,,,,,,,,,,,,,,,,,,,,,,,,,,,None,,161.4841759099392,None,161.4841759099392,None,2022-05-12-14:01:37.079475,161.49475140008144,161.8006269999314,161.49475140008144,None,None,161.49475140008144,None,162.30176551004405,None,,,,12015,0001,2022_May_12_1359,localizer,2021.1.3,60.2910490223374,
block,scenes,scenes005.bmp,,,,,0,12,12,12,,,,,,,,,,,,,,,,,,,,,,,,,,,,,,,,,,,,,,,,,,None,,162.30176551004405,None,162.30176551004405,None,2022-05-12-14:01:37.897277,162.31050299992785,162.61786430003121,162.31050299992785,None,None,162.31050299992785,None,163.1184862099355,None,,,,12015,0001,2022_May_12_1359,localizer,2021.1.3,60.2910490223374,
block,scenes,scenes036.bmp,,,,,0,13,13,13,,,,,,,,,,,,,,,,,,,,,,,,,,,,,,,,,,,,,,,,,,None,,163.1184862099355,None,163.1184862099355,None,2022-05-12-14:01:38.712607,163.122415299993,163.4337112000212,163.122415299993,None,None,163.122415299993,None,163.93518611013423,None,,,,12015,0001,2022_May_12_1359,localizer,2021.1.3,60.2910490223374,
block,scenes,scenes054.bmp,,,,,0,14,14,14,,,,,,,,,,,,,,,,,,,,,,,,,,,,,,,,,,,,,,,,,,None,,163.93518611013423,None,163.93518611013423,None,2022-05-12-14:01:39.531257,163.94638430001214,164.25068580009975,163.94638430001214,None,None,163.94638430001214,None,164.75113200994673,None,,,,12015,0001,2022_May_12_1359,localizer,2021.1.3,60.2910490223374,
block_end,scenes,scenes009.bmp,,,,,0,15,15,15,,,,,,,,,,,,,,,,,,,,,,,,,,,,,,,,,,,,,,,,,,None,,164.75113200994673,None,164.75113200994673,None,2022-05-12-14:01:40.346422,164.7619560000021,165.06723479996435,164.7619560000021,None,None,164.7619560000021,None,165.5670532099204,None,,,,12015,0001,2022_May_12_1359,localizer,2021.1.3,60.2910490223374,
block_start,objects,objects083.bmp,,,,,0,16,16,16,,,,,,,,,,,,,,,,,,,,,,,,,,,,,,,,,,,,,,,,,,t,1.7128315998706967,165.5670332000591,None,165.5670332000591,None,2022-05-12-14:01:42.897537,167.31308820005506,167.61742040002719,167.31308820005506,None,None,167.31308820005506,None,168.12058261006604,None,,,,12015,0001,2022_May_12_1359,localizer,2021.1.3,60.2910490223374,
block,objects,objects068.bmp,,,,,0,17,17,17,,,,,,,,,,,,,,,,,,,,,,,,,,,,,,,,,,,,,,,,,,None,,168.12058261006604,None,168.12058261006604,None,2022-05-12-14:01:43.719825,168.1368593000807,168.45062280003913,168.1368593000807,None,None,168.1368593000807,None,168.93428660992066,None,,,,12015,0001,2022_May_12_1359,localizer,2021.1.3,60.2910490223374,
block,objects,objects011.bmp,,,,,0,18,18,18,,,,,,,,,,,,,,,,,,,,,,,,,,,,,,,,,,,,,,,,,,None,,168.93428660992066,None,168.93428660992066,None,2022-05-12-14:01:44.529393,168.94542160001583,169.25055149989203,168.94542160001583,None,None,168.94542160001583,None,169.7507893100148,None,,,,12015,0001,2022_May_12_1359,localizer,2021.1.3,60.2910490223374,
block,objects,objects046.bmp,,,,,0,19,19,19,,,,,,,,,,,,,,,,,,,,,,,,,,,,,,,,,,,,,,,,,,None,,169.7507893100148,None,169.7507893100148,None,2022-05-12-14:01:45.345693,169.76044140011072,170.07237270008773,169.76044140011072,None,None,169.76044140011072,None,170.5563831100473,None,,,,12015,0001,2022_May_12_1359,localizer,2021.1.3,60.2910490223374,
block,objects,objects066.bmp,,,,,0,20,20,20,,,,,,,,,,,,,,,,,,,,,,,,,,,,,,,,,,,,,,,,,,None,,170.5563831100473,None,170.5563831100473,None,2022-05-12-14:01:46.158383,170.5794110998977,170.88402309990488,170.5794110998977,None,None,170.5794110998977,None,171.36747061011846,None,,,,12015,0001,2022_May_12_1359,localizer,2021.1.3,60.2910490223374,
block,objects,objects060.bmp,,,,,0,21,21,21,,,,,,,,,,,,,,,,,,,,,,,,,,,,,,,,,,,,,,,,,,None,,171.36747061011846,None,171.36747061011846,None,2022-05-12-14:01:46.962582,171.3771798000671,171.68399509997107,171.3771798000671,None,None,171.3771798000671,None,172.18431351000908,None,,,,12015,0001,2022_May_12_1359,localizer,2021.1.3,60.2910490223374,
block,objects,objects029.bmp,,,,,0,22,22,22,,,,,,,,,,,,,,,,,,,,,,,,,,,,,,,,,,,,,,,,,,None,,172.18431351000908,None,172.18431351000908,None,2022-05-12-14:01:47.779416,172.19520070008002,172.50115399993956,172.19520070008002,None,None,172.19520070008002,None,173.00078861012588,None,,,,12015,0001,2022_May_12_1359,localizer,2021.1.3,60.2910490223374,
block,objects,objects088.bmp,,,,,0,23,23,23,,,,,,,,,,,,,,,,,,,,,,,,,,,,,,,,,,,,,,,,,,None,,173.00078861012588,None,173.00078861012588,None,2022-05-12-14:01:48.595901,173.01083689997904,173.31799879996106,173.01083689997904,None,None,173.01083689997904,None,173.81747891001868,None,,,,12015,0001,2022_May_12_1359,localizer,2021.1.3,60.2910490223374,
block,objects,objects047.bmp,,,,,0,24,24,24,,,,,,,,,,,,,,,,,,,,,,,,,,,,,,,,,,,,,,,,,,None,,173.81747891001868,None,173.81747891001868,None,2022-05-12-14:01:49.412525,173.82706440007314,174.1342029001098,173.82706440007314,None,None,173.82706440007314,None,174.63460811011026,None,,,,12015,0001,2022_May_12_1359,localizer,2021.1.3,60.2910490223374,
block,objects,objects042.bmp,,,,,0,25,25,25,,,,,,,,,,,,,,,,,,,,,,,,,,,,,,,,,,,,,,,,,,None,,174.63460811011026,None,174.63460811011026,None,2022-05-12-14:01:50.230901,174.6466969999019,174.95057910005562,174.6466969999019,None,None,174.6466969999019,None,175.45068440998438,None,,,,12015,0001,2022_May_12_1359,localizer,2021.1.3,60.2910490223374,
block,objects,objects023.bmp,,,,,0,26,26,26,,,,,,,,,,,,,,,,,,,,,,,,,,,,,,,,,,,,,,,,,,None,,175.45068440998438,None,175.45068440998438,None,2022-05-12-14:01:51.046499,175.4607903000433,175.76725929998793,175.4607903000433,None,None,175.4607903000433,None,176.26815701012964,None,,,,12015,0001,2022_May_12_1359,localizer,2021.1.3,60.2910490223374,
block,objects,objects081.bmp,,,,,0,27,27,27,,,,,,,,,,,,,,,,,,,,,,,,,,,,,,,,,,,,,,,,,,None,,176.26815701012964,None,176.26815701012964,None,2022-05-12-14:01:51.864355,176.2758798999712,176.5838951000478,176.2758798999712,None,None,176.2758798999712,None,177.08426931004504,None,,,,12015,0001,2022_May_12_1359,localizer,2021.1.3,60.2910490223374,
block,objects,objects065.bmp,,,,,0,28,28,28,,,,,,,,,,,,,,,,,,,,,,,,,,,,,,,,,,,,,,,,,,None,,177.08426931004504,None,177.08426931004504,None,2022-05-12-14:01:52.679376,177.09458380006254,177.4006517000962,177.09458380006254,None,None,177.09458380006254,None,177.90088221004697,None,,,,12015,0001,2022_May_12_1359,localizer,2021.1.3,60.2910490223374,
block,objects,objects073.bmp,,,,,0,29,29,29,,,,,,,,,,,,,,,,,,,,,,,,,,,,,,,,,,,,,,,,,,None,,177.90088221004697,None,177.90088221004697,None,2022-05-12-14:01:53.496198,177.91071449988522,178.21731500001624,177.91071449988522,None,None,177.91071449988522,None,178.71865171000826,None,,,,12015,0001,2022_May_12_1359,localizer,2021.1.3,60.2910490223374,
block_end,objects,objects030.bmp,,,,,0,30,30,30,,,,,,,,,,,,,,,,,,,,,,,,,,,,,,,,,,,,,,,,,,None,,178.71865171000826,None,178.71865171000826,None,2022-05-12-14:01:54.314741,178.73156220000237,179.03396099992096,178.73156220000237,None,None,178.73156220000237,None,179.53398610993753,None,,,,12015,0001,2022_May_12_1359,localizer,2021.1.3,60.2910490223374,
block_start,scrambled,scrambled052.bmp,,,,,0,31,31,31,,,,,,,,,,,,,,,,,,,,,,,,,,,,,,,,,,,,,,,,,,t,1.744706500088796,179.53420399990864,None,179.53420399990864,None,2022-05-12-14:01:56.897591,181.31302040000446,181.6171927000396,181.31302040000446,None,None,181.31302040000446,None,182.11747800994198,None,,,,12015,0001,2022_May_12_1359,localizer,2021.1.3,60.2910490223374,
block,scrambled,scrambled032.bmp,,,,,0,32,32,32,,,,,,,,,,,,,,,,,,,,,,,,,,,,,,,,,,,,,,,,,,None,,182.11747800994198,None,182.11747800994198,None,2022-05-12-14:01:57.712527,182.12692789989524,182.43412639992312,182.12692789989524,None,None,182.12692789989524,None,182.93397321009542,None,,,,12015,0001,2022_May_12_1359,localizer,2021.1.3,60.2910490223374,
block,scrambled,scrambled068.bmp,,,,,0,33,33,33,,,,,,,,,,,,,,,,,,,,,,,,,,,,,,,,,,,,,,,,,,None,,182.93397321009542,None,182.93397321009542,None,2022-05-12-14:01:58.529369,182.93937949999236,183.2507251999341,182.93937949999236,None,None,182.93937949999236,None,183.75088691005948,None,,,,12015,0001,2022_May_12_1359,localizer,2021.1.3,60.2910490223374,
block,scrambled,scrambled084.bmp,,,,,0,34,34,34,,,,,,,,,,,,,,,,,,,,,,,,,,,,,,,,,,,,,,,,,,None,,183.75088691005948,None,183.75088691005948,None,2022-05-12-14:01:59.345991,183.7622084999457,184.06734549999237,183.7622084999457,None,None,183.7622084999457,None,184.567343509919,None,,,,12015,0001,2022_May_12_1359,localizer,2021.1.3,60.2910490223374,
block,scrambled,scrambled063.bmp,,,,,0,35,35,35,,,,,,,,,,,,,,,,,,,,,,,,,,,,,,,,,,,,,,,,,,None,,184.567343509919,None,184.567343509919,None,2022-05-12-14:02:00.162671,184.57624939992093,184.8841707999818,184.57624939992093,None,None,184.57624939992093,None,185.38376330996397,None,,,,12015,0001,2022_May_12_1359,localizer,2021.1.3,60.2910490223374,
block,scrambled,scrambled041.bmp,,,,,0,36,36,36,,,,,,,,,,,,,,,,,,,,,,,,,,,,,,,,,,,,,,,,,,None,,185.38376330996397,None,185.38376330996397,None,2022-05-12-14:02:00.977880,185.3918004001025,185.70069930003956,185.3918004001025,None,None,185.3918004001025,None,186.20060870999004,None,,,,12015,0001,2022_May_12_1359,localizer,2021.1.3,60.2910490223374,
block,scrambled,scrambled025.bmp,,,,,0,37,37,37,,,,,,,,,,,,,,,,,,,,,,,,,,,,,,,,,,,,,,,,,,None,,186.20060870999004,None,186.20060870999004,None,2022-05-12-14:02:01.795720,186.20576320006512,186.51714919996448,186.20576320006512,None,None,186.20576320006512,None,187.0174924099585,None,,,,12015,0001,2022_May_12_1359,localizer,2021.1.3,60.2910490223374,
block,scrambled,scrambled004.bmp,,,,,0,38,38,38,,,,,,,,,,,,,,,,,,,,,,,,,,,,,,,,,,,,,,,,,,None,,187.0174924099585,None,187.0174924099585,None,2022-05-12-14:02:02.612603,187.02738210000098,187.3355626000557,187.02738210000098,None,None,187.02738210000098,None,187.8354578101309,None,,,,12015,0001,2022_May_12_1359,localizer,2021.1.3,60.2910490223374,
block,scrambled,scrambled039.bmp,,,,,0,39,39,39,,,,,,,,,,,,,,,,,,,,,,,,,,,,,,,,,,,,,,,,,,None,,187.8354578101309,None,187.8354578101309,None,2022-05-12-14:02:03.432714,187.84893879992887,188.15037630009465,187.84893879992887,None,None,187.84893879992887,None,188.6515129100764,None,,,,12015,0001,2022_May_12_1359,localizer,2021.1.3,60.2910490223374,
block,scrambled,scrambled011.bmp,,,,,0,40,40,40,,,,,,,,,,,,,,,,,,,,,,,,,,,,,,,,,,,,,,,,,,None,,188.6515129100764,None,188.6515129100764,None,2022-05-12-14:02:04.247809,188.66313460003585,188.96764619997703,188.66313460003585,None,None,188.66313460003585,None,189.46821090991142,None,,,,12015,0001,2022_May_12_1359,localizer,2021.1.3,60.2910490223374,
block,scrambled,scrambled012.bmp,,,,,0,41,41,41,,,,,,,,,,,,,,,,,,,,,,,,,,,,,,,,,,,,,,,,,,None,,189.46821090991142,None,189.46821090991142,None,2022-05-12-14:02:05.064439,189.47981989989057,189.784390399931,189.47981989989057,None,None,189.47981989989057,None,190.28436171000357,None,,,,12015,0001,2022_May_12_1359,localizer,2021.1.3,60.2910490223374,
block,scrambled,scrambled059.bmp,,,,,0,42,42,42,,,,,,,,,,,,,,,,,,,,,,,,,,,,,,,,,,,,,,,,,,None,,190.28436171000357,None,190.28436171000357,None,2022-05-12-14:02:05.879468,190.29531649989076,190.60095870005898,190.29531649989076,None,None,190.29531649989076,None,191.10075840998906,None,,,,12015,0001,2022_May_12_1359,localizer,2021.1.3,60.2910490223374,
block,scrambled,scrambled088.bmp,,,,,0,43,43,43,,,,,,,,,,,,,,,,,,,,,,,,,,,,,,,,,,,,,,,,,,None,,191.10075840998906,None,191.10075840998906,None,2022-05-12-14:02:06.695933,191.10941969999112,191.4239403998945,191.10941969999112,None,None,191.10941969999112,None,191.9173498099437,None,,,,12015,0001,2022_May_12_1359,localizer,2021.1.3,60.2910490223374,
block,scrambled,scrambled048.bmp,,,,,0,44,44,44,,,,,,,,,,,,,,,,,,,,,,,,,,,,,,,,,,,,,,,,,,None,,191.9173498099437,None,191.9173498099437,None,2022-05-12-14:02:07.512461,191.92579360003583,192.23428920004517,191.92579360003583,None,None,191.92579360003583,None,192.73441231010946,None,,,,12015,0001,2022_May_12_1359,localizer,2021.1.3,60.2910490223374,
block_end,scrambled,scrambled035.bmp,,,,,0,45,45,45,,,,,,,,,,,,,,,,,,,,,,,,,,,,,,,,,,,,,,,,,,None,,192.73441231010946,None,192.73441231010946,None,2022-05-12-14:02:08.329519,192.74461110006087,193.05073980009183,192.74461110006087,None,None,192.74461110006087,None,193.55095621005165,None,,,,12015,0001,2022_May_12_1359,localizer,2021.1.3,60.2910490223374,
block_start,faces,faces009.bmp,,,,,0,46,46,46,,,,,,,,,,,,,,,,,,,,,,,,,,,,,,,,,,,,,,,,,,t,1.7281365001108497,193.55074770003557,None,193.55074770003557,None,2022-05-12-14:02:10.897624,195.31343299988657,195.61736049992032,195.31343299988657,None,None,195.31343299988657,None,196.11790800995658,None,,,,12015,0001,2022_May_12_1359,localizer,2021.1.3,60.2910490223374,
block,faces,faces075.bmp,,,,,0,47,47,47,,,,,,,,,,,,,,,,,,,,,,,,,,,,,,,,,,,,,,,,,,None,,196.11790800995658,None,196.11790800995658,None,2022-05-12-14:02:11.713200,196.12848539999686,196.43547950009815,196.12848539999686,None,None,196.12848539999686,None,196.93511231003794,None,,,,12015,0001,2022_May_12_1359,localizer,2021.1.3,60.2910490223374,
block,faces,faces051.bmp,,,,,0,48,48,48,,,,,,,,,,,,,,,,,,,,,,,,,,,,,,,,,,,,,,,,,,None,,196.93511231003794,None,196.93511231003794,None,2022-05-12-14:02:12.531464,196.94422470009886,197.25077820010483,196.94422470009886,None,None,196.94422470009886,None,197.75102101003284,None,,,,12015,0001,2022_May_12_1359,localizer,2021.1.3,60.2910490223374,
block,faces,faces035.bmp,,,,,0,49,49,49,,,,,,,,,,,,,,,,,,,,,,,,,,,,,,,,,,,,,,,,,,None,,197.75102101003284,None,197.75102101003284,None,2022-05-12-14:02:13.346134,197.7620798998978,198.0678787000943,197.7620798998978,None,None,197.7620798998978,None,198.56797751008997,None,,,,12015,0001,2022_May_12_1359,localizer,2021.1.3,60.2910490223374,
block,faces,faces085.bmp,,,,,0,50,50,50,,,,,,,,,,,,,,,,,,,,,,,,,,,,,,,,,,,,,,,,,,None,,198.56797751008997,None,198.56797751008997,None,2022-05-12-14:02:14.163081,198.5792771000415,198.88405249989592,198.5792771000415,None,None,198.5792771000415,None,199.3847999099409,None,,,,12015,0001,2022_May_12_1359,localizer,2021.1.3,60.2910490223374,
block,faces,faces052.bmp,,,,,0,51,51,51,,,,,,,,,,,,,,,,,,,,,,,,,,,,,,,,,,,,,,,,,,None,,199.3847999099409,None,199.3847999099409,None,2022-05-12-14:02:14.981093,199.3975303999614,199.70115710003302,199.3975303999614,None,None,199.3975303999614,None,200.2020807100227,None,,,,12015,0001,2022_May_12_1359,localizer,2021.1.3,60.2910490223374,
block,faces,faces019.bmp,,,,,0,52,52,52,,,,,,,,,,,,,,,,,,,,,,,,,,,,,,,,,,,,,,,,,,None,,200.2020807100227,None,200.2020807100227,None,2022-05-12-14:02:15.798169,200.22514769993722,200.5342665000353,200.22514769993722,None,None,200.22514769993722,None,201.01803190999198,None,,,,12015,0001,2022_May_12_1359,localizer,2021.1.3,60.2910490223374,
block,faces,faces044.bmp,,,,,0,53,53,53,,,,,,,,,,,,,,,,,,,,,,,,,,,,,,,,,,,,,,,,,,None,,201.01803190999198,None,201.01803190999198,None,2022-05-12-14:02:16.613135,201.02931690006517,201.3345210000407,201.02931690006517,None,None,201.02931690006517,None,201.833933009929,None,,,,12015,0001,2022_May_12_1359,localizer,2021.1.3,60.2910490223374,
block,faces,faces013.bmp,,,,,0,54,54,54,,,,,,,,,,,,,,,,,,,,,,,,,,,,,,,,,,,,,,,,,,None,,201.833933009929,None,201.833933009929,None,2022-05-12-14:02:17.429048,201.83881299989298,202.15058319992386,201.83881299989298,None,None,201.83881299989298,None,202.6519941100152,None,,,,12015,0001,2022_May_12_1359,localizer,2021.1.3,60.2910490223374,
block,faces,faces055.bmp,,,,,0,55,55,55,,,,,,,,,,,,,,,,,,,,,,,,,,,,,,,,,,,,,,,,,,None,,202.6519941100152,None,202.6519941100152,None,2022-05-12-14:02:18.247102,202.65824020002037,202.9674565999303,202.65824020002037,None,None,202.65824020002037,None,203.45725720997433,None,,,,12015,0001,2022_May_12_1359,localizer,2021.1.3,60.2910490223374,
block,faces,faces022.bmp,,,,,0,56,56,56,,,,,,,,,,,,,,,,,,,,,,,,,,,,,,,,,,,,,,,,,,None,,203.45725720997433,None,203.45725720997433,None,2022-05-12-14:02:19.060158,203.47411790001206,203.78440020000562,203.47411790001206,None,None,203.47411790001206,None,204.26871760997454,None,,,,12015,0001,2022_May_12_1359,localizer,2021.1.3,60.2910490223374,
block,faces,faces022.bmp,,,,,0,57,57,57,,,,,,,,,,,,,,,,,,,,,,,,,,,,,,,,,,,,,,,,,,None,,204.26871760997454,None,204.26871760997454,None,2022-05-12-14:02:19.865786,204.27162860007957,204.58528040000238,204.27162860007957,None,y,204.27162860007957,None,205.08421231007668,None,0.6580314999446273,,,12015,0001,2022_May_12_1359,localizer,2021.1.3,60.2910490223374,
block,faces,faces059.bmp,,,,,0,58,58,58,,,,,,,,,,,,,,,,,,,,,,,,,,,,,,,,,,,,,,,,,,None,,205.08421231007668,None,205.08421231007668,None,2022-05-12-14:02:20.679322,205.09381509991363,205.40097790001892,205.09381509991363,None,None,205.09381509991363,None,205.90104090997482,None,,,,12015,0001,2022_May_12_1359,localizer,2021.1.3,60.2910490223374,
block,faces,faces077.bmp,,,,,0,59,59,59,,,,,,,,,,,,,,,,,,,,,,,,,,,,,,,,,,,,,,,,,,None,,205.90104090997482,None,205.90104090997482,None,2022-05-12-14:02:21.496163,205.91231999988668,206.21752459998243,205.91231999988668,None,None,205.91231999988668,None,206.7188935099868,None,,,,12015,0001,2022_May_12_1359,localizer,2021.1.3,60.2910490223374,
block_end,faces,faces049.bmp,,,,,0,60,60,60,,,,,,,,,,,,,,,,,,,,,,,,,,,,,,,,,,,,,,,,,,None,,206.7188935099868,None,206.7188935099868,None,2022-05-12-14:02:22.314982,206.7318070998881,207.0342157999985,206.7318070998881,None,None,206.7318070998881,None,207.53397911011706,None,,,,12015,0001,2022_May_12_1359,localizer,2021.1.3,60.2910490223374,
block_start,scenes,scenes033.bmp,,,,,0,61,61,61,,,,,,,,,,,,,,,,,,,,,,,,,,,,,,,,,,,,,,,,,,t,1.7449533001054078,207.53391089988872,None,207.53391089988872,None,2022-05-12-14:02:24.895179,209.3109373000916,209.61750839999877,209.3109373000916,None,None,209.3109373000916,None,210.12375741002614,None,,,,12015,0001,2022_May_12_1359,localizer,2021.1.3,60.2910490223374,
block,scenes,scenes019.bmp,,,,,0,62,62,62,,,,,,,,,,,,,,,,,,,,,,,,,,,,,,,,,,,,,,,,,,None,,210.12375741002614,None,210.12375741002614,None,2022-05-12-14:02:25.725813,210.14243260002695,210.4509862998966,210.14243260002695,None,None,210.14243260002695,None,210.9364060099935,None,,,,12015,0001,2022_May_12_1359,localizer,2021.1.3,60.2910490223374,
block,scenes,scenes002.bmp,,,,,0,63,63,63,,,,,,,,,,,,,,,,,,,,,,,,,,,,,,,,,,,,,,,,,,None,,210.9364060099935,None,210.9364060099935,None,2022-05-12-14:02:26.535457,210.9518472000491,211.2680677000899,210.9518472000491,None,None,210.9518472000491,None,211.75102001002523,None,,,,12015,0001,2022_May_12_1359,localizer,2021.1.3,60.2910490223374,
block,scenes,scenes070.bmp,,,,,0,64,64,64,,,,,,,,,,,,,,,,,,,,,,,,,,,,,,,,,,,,,,,,,,None,,211.75102001002523,None,211.75102001002523,None,2022-05-12-14:02:27.346129,211.76208440004848,212.07437329995446,211.76208440004848,None,None,211.76208440004848,None,212.567150009959,None,,,,12015,0001,2022_May_12_1359,localizer,2021.1.3,60.2910490223374,
block,scenes,scenes056.bmp,,,,,0,65,65,65,,,,,,,,,,,,,,,,,,,,,,,,,,,,,,,,,,,,,,,,,,None,,212.567150009959,None,212.567150009959,None,2022-05-12-14:02:28.162264,212.57599560008384,212.88553009997122,212.57599560008384,None,None,212.57599560008384,None,213.3856310100993,None,,,,12015,0001,2022_May_12_1359,localizer,2021.1.3,60.2910490223374,
block,scenes,scenes084.bmp,,,,,0,66,66,66,,,,,,,,,,,,,,,,,,,,,,,,,,,,,,,,,,,,,,,,,,None,,213.3856310100993,None,213.3856310100993,None,2022-05-12-14:02:28.981907,213.39787429990247,213.70080849993974,213.39787429990247,None,None,213.39787429990247,None,214.20127341004553,None,,,,12015,0001,2022_May_12_1359,localizer,2021.1.3,60.2910490223374,
block,scenes,scenes021.bmp,,,,,0,67,67,67,,,,,,,,,,,,,,,,,,,,,,,,,,,,,,,,,,,,,,,,,,None,,214.20127341004553,None,214.20127341004553,None,2022-05-12-14:02:29.796619,214.21228000009432,214.51765870000236,214.21228000009432,None,None,214.21228000009432,None,215.01829151010605,None,,,,12015,0001,2022_May_12_1359,localizer,2021.1.3,60.2910490223374,
block,scenes,scenes028.bmp,,,,,0,68,68,68,,,,,,,,,,,,,,,,,,,,,,,,,,,,,,,,,,,,,,,,,,None,,215.01829151010605,None,215.01829151010605,None,2022-05-12-14:02:30.614406,215.02995190001093,215.33436929993331,215.02995190001093,None,None,215.02995190001093,None,215.83435321010182,None,,,,12015,0001,2022_May_12_1359,localizer,2021.1.3,60.2910490223374,
block,scenes,scenes041.bmp,,,,,0,69,69,69,,,,,,,,,,,,,,,,,,,,,,,,,,,,,,,,,,,,,,,,,,None,,215.83435321010182,None,215.83435321010182,None,2022-05-12-14:02:31.429464,215.8440179999452,216.15096349990927,215.8440179999452,None,None,215.8440179999452,None,216.6522518099984,None,,,,12015,0001,2022_May_12_1359,localizer,2021.1.3,60.2910490223374,
block,scenes,scenes003.bmp,,,,,0,70,70,70,,,,,,,,,,,,,,,,,,,,,,,,,,,,,,,,,,,,,,,,,,None,,216.6522518099984,None,216.6522518099984,None,2022-05-12-14:02:32.248518,216.66518700006418,216.96760220010765,216.66518700006418,None,None,216.66518700006418,None,217.46789460994768,None,,,,12015,0001,2022_May_12_1359,localizer,2021.1.3,60.2910490223374,
block,scenes,scenes024.bmp,,,,,0,71,71,71,,,,,,,,,,,,,,,,,,,,,,,,,,,,,,,,,,,,,,,,,,None,,217.46789460994768,None,217.46789460994768,None,2022-05-12-14:02:33.063003,217.47785370005295,217.7842047000304,217.47785370005295,None,None,217.47785370005295,None,218.28461520995478,None,,,,12015,0001,2022_May_12_1359,localizer,2021.1.3,60.2910490223374,
block,scenes,scenes065.bmp,,,,,0,72,72,72,,,,,,,,,,,,,,,,,,,,,,,,,,,,,,,,,,,,,,,,,,None,,218.28461520995478,None,218.28461520995478,None,2022-05-12-14:02:33.880016,218.28544480004348,218.5842152000405,218.28544480004348,None,None,218.28544480004348,None,219.10082151012028,None,,,,12015,0001,2022_May_12_1359,localizer,2021.1.3,60.2910490223374,
block,scenes,scenes045.bmp,,,,,0,73,73,73,,,,,,,,,,,,,,,,,,,,,,,,,,,,,,,,,,,,,,,,,,None,,219.10082151012028,None,219.10082151012028,None,2022-05-12-14:02:34.695933,219.10956889996305,219.4178659999743,219.10956889996305,None,None,219.10956889996305,None,219.91892370993736,None,,,,12015,0001,2022_May_12_1359,localizer,2021.1.3,60.2910490223374,
block,scenes,scenes022.bmp,,,,,0,74,74,74,,,,,,,,,,,,,,,,,,,,,,,,,,,,,,,,,,,,,,,,,,None,,219.91892370993736,None,219.91892370993736,None,2022-05-12-14:02:35.515878,219.92887780000456,220.2343508999329,219.92887780000456,None,None,219.92887780000456,None,220.73446101013104,None,,,,12015,0001,2022_May_12_1359,localizer,2021.1.3,60.2910490223374,
block_end,scenes,scenes059.bmp,,,,,0,75,75,75,,,,,,,,,,,,,,,,,,,,,,,,,,,,,,,,,,,,,,,,,,None,,220.73446101013104,None,220.73446101013104,None,2022-05-12-14:02:36.329600,220.74410329991952,221.05085920006968,220.74410329991952,None,None,220.74410329991952,None,221.5512316100532,None,,,,12015,0001,2022_May_12_1359,localizer,2021.1.3,60.2910490223374,
block_start,objects,objects034.bmp,,,,,0,76,76,76,,,,,,,,,,,,,,,,,,,,,,,,,,,,,,,,,,,,,,,,,,t,1.7282749000005424,221.55082820006646,None,221.55082820006646,None,2022-05-12-14:02:38.894230,223.30871929996647,223.61794649995863,223.30871929996647,None,None,223.30871929996647,None,224.11768451000097,None,,,,12015,0001,2022_May_12_1359,localizer,2021.1.3,60.2910490223374,
block,objects,objects070.bmp,,,,,0,77,77,77,,,,,,,,,,,,,,,,,,,,,,,,,,,,,,,,,,,,,,,,,,None,,224.11768451000097,None,224.11768451000097,None,2022-05-12-14:02:39.712824,224.12643639999442,224.43820949993096,224.12643639999442,None,None,224.12643639999442,None,224.93507161007727,None,,,,12015,0001,2022_May_12_1359,localizer,2021.1.3,60.2910490223374,
block,objects,objects076.bmp,,,,,0,78,78,78,,,,,,,,,,,,,,,,,,,,,,,,,,,,,,,,,,,,,,,,,,None,,224.93507161007727,None,224.93507161007727,None,2022-05-12-14:02:40.530515,224.94363350002095,225.25138620007783,224.94363350002095,None,None,224.94363350002095,None,225.75128951009827,None,,,,12015,0001,2022_May_12_1359,localizer,2021.1.3,60.2910490223374,
block,objects,objects003.bmp,,,,,0,79,79,79,,,,,,,,,,,,,,,,,,,,,,,,,,,,,,,,,,,,,,,,,,None,,225.75128951009827,None,225.75128951009827,None,2022-05-12-14:02:41.346397,225.76109399995767,226.06775219994597,225.76109399995767,None,None,225.76109399995767,None,226.56762470996472,None,,,,12015,0001,2022_May_12_1359,localizer,2021.1.3,60.2910490223374,
block,objects,objects003.bmp,,,,,0,80,80,80,,,,,,,,,,,,,,,,,,,,,,,,,,,,,,,,,,,,,,,,,,None,,226.56762470996472,None,226.56762470996472,None,2022-05-12-14:02:42.163021,226.56896540010348,226.8845156999305,226.56896540010348,None,y,226.56896540010348,None,227.36898621001745,None,0.5631226000841707,,,12015,0001,2022_May_12_1359,localizer,2021.1.3,60.2910490223374,
block,objects,objects007.bmp,,,,,0,81,81,81,,,,,,,,,,,,,,,,,,,,,,,,,,,,,,,,,,,,,,,,,,None,,227.36898621001745,None,227.36898621001745,None,2022-05-12-14:02:42.969066,227.38274849997833,227.684590900084,227.38274849997833,227.38274849997833,None,227.38274849997833,227.38274849997833,228.18463721002917,None,,,,12015,0001,2022_May_12_1359,localizer,2021.1.3,60.2910490223374,
block,objects,objects005.bmp,,,,,0,82,82,82,,,,,,,,,,,,,,,,,,,,,,,,,,,,,,,,,,,,,,,,,,None,,228.18463721002917,None,228.18463721002917,None,2022-05-12-14:02:43.779952,228.1954975000117,228.5012815000955,228.1954975000117,None,None,228.1954975000117,None,229.0016760101309,None,,,,12015,0001,2022_May_12_1359,localizer,2021.1.3,60.2910490223374,
block,objects,objects022.bmp,,,,,0,83,83,83,,,,,,,,,,,,,,,,,,,,,,,,,,,,,,,,,,,,,,,,,,None,,229.0016760101309,None,229.0016760101309,None,2022-05-12-14:02:44.597965,229.01352900010534,229.31815920001827,229.01352900010534,None,None,229.01352900010534,None,229.81857521010096,None,,,,12015,0001,2022_May_12_1359,localizer,2021.1.3,60.2910490223374,
block,objects,objects071.bmp,,,,,0,84,84,84,,,,,,,,,,,,,,,,,,,,,,,,,,,,,,,,,,,,,,,,,,None,,229.81857521010096,None,229.81857521010096,None,2022-05-12-14:02:45.414861,229.83018280006945,230.13440790004097,229.83018280006945,None,None,229.83018280006945,None,230.63337731005157,None,,,,12015,0001,2022_May_12_1359,localizer,2021.1.3,60.2910490223374,
block,objects,objects052.bmp,,,,,0,85,85,85,,,,,,,,,,,,,,,,,,,,,,,,,,,,,,,,,,,,,,,,,,None,,230.63337731005157,None,230.63337731005157,None,2022-05-12-14:02:46.227182,230.64180370001122,230.95125090004876,230.64180370001122,None,None,230.64180370001122,None,231.454841110087,None,,,,12015,0001,2022_May_12_1359,localizer,2021.1.3,60.2910490223374,
block,objects,objects055.bmp,,,,,0,86,86,86,,,,,,,,,,,,,,,,,,,,,,,,,,,,,,,,,,,,,,,,,,None,,231.454841110087,None,231.454841110087,None,2022-05-12-14:02:47.056808,231.47349489992484,231.78453830000944,231.47349489992484,None,None,231.47349489992484,None,232.26783461000304,None,,,,12015,0001,2022_May_12_1359,localizer,2021.1.3,60.2910490223374,
block,objects,objects041.bmp,,,,,0,87,87,87,,,,,,,,,,,,,,,,,,,,,,,,,,,,,,,,,,,,,,,,,,None,,232.26783461000304,None,232.26783461000304,None,2022-05-12-14:02:47.862940,232.27801900007762,232.58749329997227,232.27801900007762,None,None,232.27801900007762,None,233.08434950995724,None,,,,12015,0001,2022_May_12_1359,localizer,2021.1.3,60.2910490223374,
block,objects,objects025.bmp,,,,,0,88,88,88,,,,,,,,,,,,,,,,,,,,,,,,,,,,,,,,,,,,,,,,,,None,,233.08434950995724,None,233.08434950995724,None,2022-05-12-14:02:48.679462,233.09287669998594,233.40161009994335,233.09287669998594,None,None,233.09287669998594,None,233.90131951000075,None,,,,12015,0001,2022_May_12_1359,localizer,2021.1.3,60.2910490223374,
block,objects,objects002.bmp,,,,,0,89,89,89,,,,,,,,,,,,,,,,,,,,,,,,,,,,,,,,,,,,,,,,,,None,,233.90131951000075,None,233.90131951000075,None,2022-05-12-14:02:49.496426,233.9119589999318,234.2177057999652,233.9119589999318,None,None,233.9119589999318,None,234.71904550998005,None,,,,12015,0001,2022_May_12_1359,localizer,2021.1.3,60.2910490223374,
block_end,objects,objects056.bmp,,,,,0,90,90,90,,,,,,,,,,,,,,,,,,,,,,,,,,,,,,,,,,,,,,,,,,None,,234.71904550998005,None,234.71904550998005,None,2022-05-12-14:02:50.315273,234.73141429992393,235.03449740004726,234.73141429992393,None,None,234.73141429992393,None,235.53450581005308,None,,,,12015,0001,2022_May_12_1359,localizer,2021.1.3,60.2910490223374,
null_block,null_block,null_block.bmp,,,,,0,91,91,91,,,,,,,,,,,,,,,,,,,,,,,,,,,,,,,,,,,,,,,,,,t,1.7444186001084745,235.53451239992864,None,235.53451239992864,None,2022-05-12-14:02:52.896762,237.3014158100588,None,237.3014158100588,None,None,237.3014158100588,None,237.30522860004567,None,,,,12015,0001,2022_May_12_1359,localizer,2021.1.3,60.2910490223374,
block_start,scrambled,scrambled012.bmp,,,,,0,92,92,92,,,,,,,,,,,,,,,,,,,,,,,,,,,,,,,,,,,,,,,,,,t,1.9600305000785738,249.3189634999726,None,249.3189634999726,None,2022-05-12-14:03:06.901649,251.31156349997036,251.61829910008237,251.31156349997036,None,None,251.31156349997036,None,252.12064990999642,None,,,,12015,0001,2022_May_12_1359,localizer,2021.1.3,60.2910490223374,
block,scrambled,scrambled045.bmp,,,,,0,93,93,93,,,,,,,,,,,,,,,,,,,,,,,,,,,,,,,,,,,,,,,,,,None,,252.12064990999642,None,252.12064990999642,None,2022-05-12-14:03:07.718895,252.1321725999005,252.43411100003868,252.1321725999005,None,None,252.1321725999005,None,252.93487580998334,None,,,,12015,0001,2022_May_12_1359,localizer,2021.1.3,60.2910490223374,
block,scrambled,scrambled002.bmp,,,,,0,94,94,94,,,,,,,,,,,,,,,,,,,,,,,,,,,,,,,,,,,,,,,,,,None,,252.93487580998334,None,252.93487580998334,None,2022-05-12-14:03:08.529981,252.94669990008697,253.25160810002126,252.94669990008697,None,None,252.94669990008697,None,253.75341221007983,None,,,,12015,0001,2022_May_12_1359,localizer,2021.1.3,60.2910490223374,
block,scrambled,scrambled080.bmp,,,,,0,95,95,95,,,,,,,,,,,,,,,,,,,,,,,,,,,,,,,,,,,,,,,,,,None,,253.75341221007983,None,253.75341221007983,None,2022-05-12-14:03:09.351508,253.76801289990544,254.06792600010522,253.76801289990544,None,None,253.76801289990544,None,254.56785471008624,None,,,,12015,0001,2022_May_12_1359,localizer,2021.1.3,60.2910490223374,
block,scrambled,scrambled066.bmp,,,,,0,96,96,96,,,,,,,,,,,,,,,,,,,,,,,,,,,,,,,,,,,,,,,,,,None,,254.56785471008624,None,254.56785471008624,None,2022-05-12-14:03:10.163501,254.57640910008922,254.8847431000322,254.57640910008922,None,None,254.57640910008922,None,255.3858147099847,None,,,,12015,0001,2022_May_12_1359,localizer,2021.1.3,60.2910490223374,
block,scrambled,scrambled068.bmp,,,,,0,97,97,97,,,,,,,,,,,,,,,,,,,,,,,,,,,,,,,,,,,,,,,,,,None,,255.3858147099847,None,255.3858147099847,None,2022-05-12-14:03:10.981903,255.38754729996435,255.70112630003132,255.38754729996435,None,None,255.38754729996435,None,256.20108521000947,None,,,,12015,0001,2022_May_12_1359,localizer,2021.1.3,60.2910490223374,
block,scrambled,scrambled018.bmp,,,,,0,98,98,98,,,,,,,,,,,,,,,,,,,,,,,,,,,,,,,,,,,,,,,,,,None,,256.20108521000947,None,256.20108521000947,None,2022-05-12-14:03:11.796487,256.2097787000239,256.51785019994713,256.2097787000239,None,None,256.2097787000239,None,257.01811921007464,None,,,,12015,0001,2022_May_12_1359,localizer,2021.1.3,60.2910490223374,
block,scrambled,scrambled031.bmp,,,,,0,99,99,99,,,,,,,,,,,,,,,,,,,,,,,,,,,,,,,,,,,,,,,,,,None,,257.01811921007464,None,257.01811921007464,None,2022-05-12-14:03:12.613242,257.0281018000096,257.33462719991803,257.0281018000096,None,None,257.0281018000096,None,257.8346267099725,None,,,,12015,0001,2022_May_12_1359,localizer,2021.1.3,60.2910490223374,
block,scrambled,scrambled030.bmp,,,,,0,100,100,100,,,,,,,,,,,,,,,,,,,,,,,,,,,,,,,,,,,,,,,,,,None,,257.8346267099725,None,257.8346267099725,None,2022-05-12-14:03:13.429737,257.84111859998666,258.15125719993375,257.84111859998666,None,None,257.84111859998666,None,258.6519633100135,None,,,,12015,0001,2022_May_12_1359,localizer,2021.1.3,60.2910490223374,
block,scrambled,scrambled067.bmp,,,,,0,101,101,101,,,,,,,,,,,,,,,,,,,,,,,,,,,,,,,,,,,,,,,,,,None,,258.6519633100135,None,258.6519633100135,None,2022-05-12-14:03:14.248162,258.6636222000234,258.9679833999835,258.6636222000234,None,None,258.6636222000234,None,259.46799661002586,None,,,,12015,0001,2022_May_12_1359,localizer,2021.1.3,60.2910490223374,
block,scrambled,scrambled070.bmp,,,,,0,102,102,102,,,,,,,,,,,,,,,,,,,,,,,,,,,,,,,,,,,,,,,,,,None,,259.46799661002586,None,259.46799661002586,None,2022-05-12-14:03:15.063105,259.4781780000776,259.78464589989744,259.4781780000776,None,None,259.4781780000776,None,260.28459301001857,None,,,,12015,0001,2022_May_12_1359,localizer,2021.1.3,60.2910490223374,
block,scrambled,scrambled039.bmp,,,,,0,103,103,103,,,,,,,,,,,,,,,,,,,,,,,,,,,,,,,,,,,,,,,,,,None,,260.28459301001857,None,260.28459301001857,None,2022-05-12-14:03:15.879702,260.28544440004043,260.5844405000098,260.28544440004043,None,None,260.28544440004043,None,261.0910006099613,None,,,,12015,0001,2022_May_12_1359,localizer,2021.1.3,60.2910490223374,
block,scrambled,scrambled078.bmp,,,,,0,104,104,104,,,,,,,,,,,,,,,,,,,,,,,,,,,,,,,,,,,,,,,,,,None,,261.0910006099613,None,261.0910006099613,None,2022-05-12-14:03:16.690877,261.10695019993,261.417839899892,261.10695019993,None,None,261.10695019993,None,261.9012626099167,None,,,,12015,0001,2022_May_12_1359,localizer,2021.1.3,60.2910490223374,
block,scrambled,scrambled015.bmp,,,,,0,105,105,105,,,,,,,,,,,,,,,,,,,,,,,,,,,,,,,,,,,,,,,,,,None,,261.9012626099167,None,261.9012626099167,None,2022-05-12-14:03:17.496372,261.9121272000484,262.224363300018,261.9121272000484,None,None,261.9121272000484,None,262.7182760100579,None,,,,12015,0001,2022_May_12_1359,localizer,2021.1.3,60.2910490223374,
block_end,scrambled,scrambled024.bmp,,,,,0,106,106,106,,,,,,,,,,,,,,,,,,,,,,,,,,,,,,,,,,,,,,,,,,None,,262.7182760100579,None,262.7182760100579,None,2022-05-12-14:03:18.313544,262.7289897000883,263.0343728000298,262.7289897000883,None,None,262.7289897000883,None,263.53512421010527,None,,,,12015,0001,2022_May_12_1359,localizer,2021.1.3,60.2910490223374,
block_start,faces,faces089.bmp,,,,,0,107,107,107,,,,,,,,,,,,,,,,,,,,,,,,,,,,,,,,,,,,,,,,,,t,1.7438932999502867,263.5350355000701,None,263.5350355000701,None,2022-05-12-14:03:20.895665,265.3075391999446,265.61816280009225,265.3075391999446,None,None,265.3075391999446,None,266.11836371005046,None,,,,12015,0001,2022_May_12_1359,localizer,2021.1.3,60.2910490223374,
block,faces,faces076.bmp,,,,,0,108,108,108,,,,,,,,,,,,,,,,,,,,,,,,,,,,,,,,,,,,,,,,,,None,,266.11836371005046,None,266.11836371005046,None,2022-05-12-14:03:21.713692,266.12919769994915,266.4345263999421,266.12919769994915,None,None,266.12919769994915,None,266.9348402099451,None,,,,12015,0001,2022_May_12_1359,localizer,2021.1.3,60.2910490223374,
block,faces,faces042.bmp,,,,,0,109,109,109,,,,,,,,,,,,,,,,,,,,,,,,,,,,,,,,,,,,,,,,,,None,,266.9348402099451,None,266.9348402099451,None,2022-05-12-14:03:22.529950,266.94441769993864,267.252709900029,266.94441769993864,None,None,266.94441769993864,None,267.7517614100827,None,,,,12015,0001,2022_May_12_1359,localizer,2021.1.3,60.2910490223374,
block,faces,faces058.bmp,,,,,0,110,110,110,,,,,,,,,,,,,,,,,,,,,,,,,,,,,,,,,,,,,,,,,,None,,267.7517614100827,None,267.7517614100827,None,2022-05-12-14:03:23.346864,267.7629821000155,268.0745896000881,267.7629821000155,None,None,267.7629821000155,None,268.56816541000734,None,,,,12015,0001,2022_May_12_1359,localizer,2021.1.3,60.2910490223374,
block,faces,faces053.bmp,,,,,0,111,111,111,,,,,,,,,,,,,,,,,,,,,,,,,,,,,,,,,,,,,,,,,,None,,268.56816541000734,None,268.56816541000734,None,2022-05-12-14:03:24.163275,268.5779019999318,268.8847825000994,268.5779019999318,None,None,268.5779019999318,None,269.3847327101277,None,,,,12015,0001,2022_May_12_1359,localizer,2021.1.3,60.2910490223374,
block,faces,faces057.bmp,,,,,0,112,112,112,,,,,,,,,,,,,,,,,,,,,,,,,,,,,,,,,,,,,,,,,,None,,269.3847327101277,None,269.3847327101277,None,2022-05-12-14:03:24.980066,269.3956605999265,269.7014417001046,269.3956605999265,None,None,269.3956605999265,None,270.20156731007154,None,,,,12015,0001,2022_May_12_1359,localizer,2021.1.3,60.2910490223374,
block,faces,faces012.bmp,,,,,0,113,113,113,,,,,,,,,,,,,,,,,,,,,,,,,,,,,,,,,,,,,,,,,,None,,270.20156731007154,None,270.20156731007154,None,2022-05-12-14:03:25.796678,270.21214980003424,270.51772699994035,270.21214980003424,None,None,270.21214980003424,None,271.0181305100443,None,,,,12015,0001,2022_May_12_1359,localizer,2021.1.3,60.2910490223374,
block,faces,faces041.bmp,,,,,0,114,114,114,,,,,,,,,,,,,,,,,,,,,,,,,,,,,,,,,,,,,,,,,,None,,271.0181305100443,None,271.0181305100443,None,2022-05-12-14:03:26.613439,271.0281728999689,271.334843599936,271.0281728999689,None,None,271.0281728999689,None,271.8353310100967,None,,,,12015,0001,2022_May_12_1359,localizer,2021.1.3,60.2910490223374,
block,faces,faces003.bmp,,,,,0,115,115,115,,,,,,,,,,,,,,,,,,,,,,,,,,,,,,,,,,,,,,,,,,None,,271.8353310100967,None,271.8353310100967,None,2022-05-12-14:03:27.431426,271.8450674000196,272.15139440004714,271.8450674000196,None,None,271.8450674000196,None,272.65207381004,None,,,,12015,0001,2022_May_12_1359,localizer,2021.1.3,60.2910490223374,
block,faces,faces004.bmp,,,,,0,116,116,116,,,,,,,,,,,,,,,,,,,,,,,,,,,,,,,,,,,,,,,,,,None,,272.65207381004,None,272.65207381004,None,2022-05-12-14:03:28.248237,272.6677397999447,272.96817829995416,272.6677397999447,None,None,272.6677397999447,None,273.4681845099432,None,,,,12015,0001,2022_May_12_1359,localizer,2021.1.3,60.2910490223374,
block,faces,faces029.bmp,,,,,0,117,117,117,,,,,,,,,,,,,,,,,,,,,,,,,,,,,,,,,,,,,,,,,,None,,273.4681845099432,None,273.4681845099432,None,2022-05-12-14:03:29.063292,273.4793942999095,273.78511289996095,273.4793942999095,None,None,273.4793942999095,None,274.28687971008475,None,,,,12015,0001,2022_May_12_1359,localizer,2021.1.3,60.2910490223374,
block,faces,faces077.bmp,,,,,0,118,118,118,,,,,,,,,,,,,,,,,,,,,,,,,,,,,,,,,,,,,,,,,,None,,274.28687971008475,None,274.28687971008475,None,2022-05-12-14:03:29.885132,274.2899694000371,274.6007956000976,274.2899694000371,None,None,274.2899694000371,None,275.0911367099499,None,,,,12015,0001,2022_May_12_1359,localizer,2021.1.3,60.2910490223374,
block,faces,faces084.bmp,,,,,0,119,119,119,,,,,,,,,,,,,,,,,,,,,,,,,,,,,,,,,,,,,,,,,,None,,275.0911367099499,None,275.0911367099499,None,2022-05-12-14:03:30.691312,275.10851070005447,275.4183378999587,275.10851070005447,275.10851070005447,None,275.10851070005447,275.10851070005447,275.90110581011976,None,,,,12015,0001,2022_May_12_1359,localizer,2021.1.3,60.2910490223374,
block,faces,faces006.bmp,,,,,0,120,120,120,,,,,,,,,,,,,,,,,,,,,,,,,,,,,,,,,,,,,,,,,,None,,275.90110581011976,None,275.90110581011976,None,2022-05-12-14:03:31.496218,275.90975639992394,276.2184446998872,275.90975639992394,None,None,275.90975639992394,None,276.7180467100581,None,,,,12015,0001,2022_May_12_1359,localizer,2021.1.3,60.2910490223374,
block_end,faces,faces045.bmp,,,,,0,121,121,121,,,,,,,,,,,,,,,,,,,,,,,,,,,,,,,,,,,,,,,,,,None,,276.7180467100581,None,276.7180467100581,None,2022-05-12-14:03:32.313155,276.7280441999901,277.03482829988934,276.7280441999901,None,None,276.7280441999901,None,277.5350239099236,None,,,,12015,0001,2022_May_12_1359,localizer,2021.1.3,60.2910490223374,
block_start,scenes,scenes055.bmp,,,,,0,122,122,122,,,,,,,,,,,,,,,,,,,,,,,,,,,,,,,,,,,,,,,,,,t,1.7440611000638455,277.53489169990644,None,277.53489169990644,None,2022-05-12-14:03:34.898241,279.31527470005676,279.61826630006544,279.31527470005676,None,None,279.31527470005676,None,280.11817931004333,None,,,,12015,0001,2022_May_12_1359,localizer,2021.1.3,60.2910490223374,
block,scenes,scenes088.bmp,,,,,0,123,123,123,,,,,,,,,,,,,,,,,,,,,,,,,,,,,,,,,,,,,,,,,,None,,280.11817931004333,None,280.11817931004333,None,2022-05-12-14:03:35.713332,280.1279714999255,280.43480679998174,280.1279714999255,None,None,280.1279714999255,None,280.93493760998825,None,,,,12015,0001,2022_May_12_1359,localizer,2021.1.3,60.2910490223374,
block,scenes,scenes075.bmp,,,,,0,124,124,124,,,,,,,,,,,,,,,,,,,,,,,,,,,,,,,,,,,,,,,,,,None,,280.93493760998825,None,280.93493760998825,None,2022-05-12-14:03:36.530045,280.9447244000621,281.25148419989273,280.9447244000621,None,None,280.9447244000621,None,281.75154621007385,None,,,,12015,0001,2022_May_12_1359,localizer,2021.1.3,60.2910490223374,
block,scenes,scenes051.bmp,,,,,0,125,125,125,,,,,,,,,,,,,,,,,,,,,,,,,,,,,,,,,,,,,,,,,,None,,281.75154621007385,None,281.75154621007385,None,2022-05-12-14:03:37.347119,281.76282240008004,282.07447259989567,281.76282240008004,None,None,281.76282240008004,None,282.5678997099632,None,,,,12015,0001,2022_May_12_1359,localizer,2021.1.3,60.2910490223374,
block,scenes,scenes071.bmp,,,,,0,126,126,126,,,,,,,,,,,,,,,,,,,,,,,,,,,,,,,,,,,,,,,,,,None,,282.5678997099632,None,282.5678997099632,None,2022-05-12-14:03:38.163265,282.5766537000891,282.8848596001044,282.5766537000891,None,None,282.5766537000891,None,283.38505751003976,None,,,,12015,0001,2022_May_12_1359,localizer,2021.1.3,60.2910490223374,
block,scenes,scenes065.bmp,,,,,0,127,127,127,,,,,,,,,,,,,,,,,,,,,,,,,,,,,,,,,,,,,,,,,,None,,283.38505751003976,None,283.38505751003976,None,2022-05-12-14:03:38.980165,283.3858374999836,283.68542429991066,283.3858374999836,None,None,283.3858374999836,None,284.1849404100096,None,,,,12015,0001,2022_May_12_1359,localizer,2021.1.3,60.2910490223374,
block,scenes,scenes083.bmp,,,,,0,128,128,128,,,,,,,,,,,,,,,,,,,,,,,,,,,,,,,,,,,,,,,,,,None,,284.1849404100096,None,284.1849404100096,None,2022-05-12-14:03:39.782238,284.1971819999162,284.5016306999605,284.1971819999162,284.1971819999162,None,284.1971819999162,284.1971819999162,285.0014967100462,None,,,,12015,0001,2022_May_12_1359,localizer,2021.1.3,60.2910490223374,
block,scenes,scenes011.bmp,,,,,0,129,129,129,,,,,,,,,,,,,,,,,,,,,,,,,,,,,,,,,,,,,,,,,,None,,285.0014967100462,None,285.0014967100462,None,2022-05-12-14:03:40.596606,285.0112554000225,285.31762550002895,285.0112554000225,None,None,285.0112554000225,None,285.8176856100792,None,,,,12015,0001,2022_May_12_1359,localizer,2021.1.3,60.2910490223374,
block,scenes,scenes053.bmp,,,,,0,130,130,130,,,,,,,,,,,,,,,,,,,,,,,,,,,,,,,,,,,,,,,,,,None,,285.8176856100792,None,285.8176856100792,None,2022-05-12-14:03:41.412955,285.82725399988703,286.1346114000771,285.82725399988703,None,None,285.82725399988703,None,286.634799210052,None,,,,12015,0001,2022_May_12_1359,localizer,2021.1.3,60.2910490223374,
block,scenes,scenes046.bmp,,,,,0,131,131,131,,,,,,,,,,,,,,,,,,,,,,,,,,,,,,,,,,,,,,,,,,None,,286.634799210052,None,286.634799210052,None,2022-05-12-14:03:42.230150,286.6446245999541,286.9517244999297,286.6446245999541,None,None,286.6446245999541,None,287.45533331010955,None,,,,12015,0001,2022_May_12_1359,localizer,2021.1.3,60.2910490223374,
block,scenes,scenes013.bmp,,,,,0,132,132,132,,,,,,,,,,,,,,,,,,,,,,,,,,,,,,,,,,,,,,,,,,None,,287.45533331010955,None,287.45533331010955,None,2022-05-12-14:03:43.059490,287.47333159996197,287.7846601998899,287.47333159996197,None,None,287.47333159996197,None,288.2681314099347,None,,,,12015,0001,2022_May_12_1359,localizer,2021.1.3,60.2910490223374,
block,scenes,scenes069.bmp,,,,,0,133,133,133,,,,,,,,,,,,,,,,,,,,,,,,,,,,,,,,,,,,,,,,,,None,,288.2681314099347,None,288.2681314099347,None,2022-05-12-14:03:43.863242,288.2778857999947,288.58641289989464,288.2778857999947,None,None,288.2778857999947,None,289.0846665100427,None,,,,12015,0001,2022_May_12_1359,localizer,2021.1.3,60.2910490223374,
block,scenes,scenes008.bmp,,,,,0,134,134,134,,,,,,,,,,,,,,,,,,,,,,,,,,,,,,,,,,,,,,,,,,None,,289.0846665100427,None,289.0846665100427,None,2022-05-12-14:03:44.679781,289.0861587000545,289.40149120008573,289.0861587000545,None,None,289.0861587000545,None,289.88614390993024,None,,,,12015,0001,2022_May_12_1359,localizer,2021.1.3,60.2910490223374,
block,scenes,scenes090.bmp,,,,,0,135,135,135,,,,,,,,,,,,,,,,,,,,,,,,,,,,,,,,,,,,,,,,,,None,,289.88614390993024,None,289.88614390993024,None,2022-05-12-14:03:45.485452,289.90074829990044,290.20160380005836,289.90074829990044,289.90074829990044,None,289.90074829990044,289.90074829990044,290.70166970991994,None,,,,12015,0001,2022_May_12_1359,localizer,2021.1.3,60.2910490223374,
block_end,scenes,scenes078.bmp,,,,,0,136,136,136,,,,,,,,,,,,,,,,,,,,,,,,,,,,,,,,,,,,,,,,,,None,,290.70166970991994,None,290.70166970991994,None,2022-05-12-14:03:46.297194,290.7114097001031,291.01840019994415,290.7114097001031,None,None,290.7114097001031,None,291.5183175100712,None,,,,12015,0001,2022_May_12_1359,localizer,2021.1.3,60.2910490223374,
block_start,objects,objects009.bmp,,,,,0,137,137,137,,,,,,,,,,,,,,,,,,,,,,,,,,,,,,,,,,,,,,,,,,t,1.76079440000467,291.518134099897,None,291.518134099897,None,2022-05-12-14:03:48.895915,293.3121941999998,293.61801109998487,293.3121941999998,None,None,293.3121941999998,None,294.11821860999333,None,,,,12015,0001,2022_May_12_1359,localizer,2021.1.3,60.2910490223374,
block,objects,objects044.bmp,,,,,0,138,138,138,,,,,,,,,,,,,,,,,,,,,,,,,,,,,,,,,,,,,,,,,,None,,294.11821860999333,None,294.11821860999333,None,2022-05-12-14:03:49.713336,294.1269068000838,294.43449659994803,294.1269068000838,None,None,294.1269068000838,None,294.93478520999196,None,,,,12015,0001,2022_May_12_1359,localizer,2021.1.3,60.2910490223374,
block,objects,objects063.bmp,,,,,0,139,139,139,,,,,,,,,,,,,,,,,,,,,,,,,,,,,,,,,,,,,,,,,,None,,294.93478520999196,None,294.93478520999196,None,2022-05-12-14:03:50.529020,294.9381474000402,295.2515294998884,294.9381474000402,None,None,294.9381474000402,None,295.7520969099598,None,,,,12015,0001,2022_May_12_1359,localizer,2021.1.3,60.2910490223374,
block,objects,objects064.bmp,,,,,0,140,140,140,,,,,,,,,,,,,,,,,,,,,,,,,,,,,,,,,,,,,,,,,,None,,295.7520969099598,None,295.7520969099598,None,2022-05-12-14:03:51.347402,295.7639419999905,296.06798720010556,295.7639419999905,None,None,295.7639419999905,None,296.5720551099395,None,,,,12015,0001,2022_May_12_1359,localizer,2021.1.3,60.2910490223374,
block,objects,objects088.bmp,,,,,0,141,141,141,,,,,,,,,,,,,,,,,,,,,,,,,,,,,,,,,,,,,,,,,,None,,296.5720551099395,None,296.5720551099395,None,2022-05-12-14:03:52.176197,296.58008209988475,296.8850529999472,296.58008209988475,None,None,296.58008209988475,None,297.38477061006705,None,,,,12015,0001,2022_May_12_1359,localizer,2021.1.3,60.2910490223374,
block,objects,objects041.bmp,,,,,0,142,142,142,,,,,,,,,,,,,,,,,,,,,,,,,,,,,,,,,,,,,,,,,,None,,297.38477061006705,None,297.38477061006705,None,2022-05-12-14:03:52.980143,297.3859401999507,297.7016755999066,297.3859401999507,None,None,297.3859401999507,None,298.18595310992094,None,,,,12015,0001,2022_May_12_1359,localizer,2021.1.3,60.2910490223374,
block,objects,objects058.bmp,,,,,0,143,143,143,,,,,,,,,,,,,,,,,,,,,,,,,,,,,,,,,,,,,,,,,,None,,298.18595310992094,None,298.18595310992094,None,2022-05-12-14:03:53.785039,298.20243089995347,298.5013862999622,298.20243089995347,298.20243089995347,None,298.20243089995347,298.20243089995347,299.0015921100741,None,,,,12015,0001,2022_May_12_1359,localizer,2021.1.3,60.2910490223374,
block,objects,objects015.bmp,,,,,0,144,144,144,,,,,,,,,,,,,,,,,,,,,,,,,,,,,,,,,,,,,,,,,,None,,299.0015921100741,None,299.0015921100741,None,2022-05-12-14:03:54.596700,299.0110333999619,299.31834040000103,299.0110333999619,None,None,299.0110333999619,None,299.8244626099942,None,,,,12015,0001,2022_May_12_1359,localizer,2021.1.3,60.2910490223374,
block,objects,objects023.bmp,,,,,0,145,145,145,,,,,,,,,,,,,,,,,,,,,,,,,,,,,,,,,,,,,,,,,,None,,299.8244626099942,None,299.8244626099942,None,2022-05-12-14:03:55.427526,299.8304681999143,300.1350366999395,299.8304681999143,None,None,299.8304681999143,None,300.63477650999556,None,,,,12015,0001,2022_May_12_1359,localizer,2021.1.3,60.2910490223374,
block,objects,objects006.bmp,,,,,0,146,146,146,,,,,,,,,,,,,,,,,,,,,,,,,,,,,,,,,,,,,,,,,,None,,300.63477650999556,None,300.63477650999556,None,2022-05-12-14:03:56.228896,300.64309359993786,300.9517814000137,300.64309359993786,None,None,300.64309359993786,None,301.4529003099771,None,,,,12015,0001,2022_May_12_1359,localizer,2021.1.3,60.2910490223374,
block,objects,objects074.bmp,,,,,0,147,147,147,,,,,,,,,,,,,,,,,,,,,,,,,,,,,,,,,,,,,,,,,,None,,301.4529003099771,None,301.4529003099771,None,2022-05-12-14:03:57.049174,301.4659275999293,301.76817260007374,301.4659275999293,None,None,301.4659275999293,None,302.2683312100591,None,,,,12015,0001,2022_May_12_1359,localizer,2021.1.3,60.2910490223374,
block,objects,objects061.bmp,,,,,0,148,148,148,,,,,,,,,,,,,,,,,,,,,,,,,,,,,,,,,,,,,,,,,,None,,302.2683312100591,None,302.2683312100591,None,2022-05-12-14:03:57.863443,302.27712079999037,302.5846617000643,302.27712079999037,None,None,302.27712079999037,None,303.0844925101148,None,,,,12015,0001,2022_May_12_1359,localizer,2021.1.3,60.2910490223374,
block,objects,objects019.bmp,,,,,0,149,149,149,,,,,,,,,,,,,,,,,,,,,,,,,,,,,,,,,,,,,,,,,,None,,303.0844925101148,None,303.0844925101148,None,2022-05-12-14:03:58.679606,303.093591199955,303.4019917000551,303.093591199955,None,None,303.093591199955,None,303.9017797100125,None,,,,12015,0001,2022_May_12_1359,localizer,2021.1.3,60.2910490223374,
block,objects,objects024.bmp,,,,,0,150,150,150,,,,,,,,,,,,,,,,,,,,,,,,,,,,,,,,,,,,,,,,,,None,,303.9017797100125,None,303.9017797100125,None,2022-05-12-14:03:59.496883,303.9124211000744,304.21823369991034,303.9124211000744,None,None,303.9124211000744,None,304.7183375099441,None,,,,12015,0001,2022_May_12_1359,localizer,2021.1.3,60.2910490223374,
block_end,objects,objects026.bmp,,,,,0,151,151,151,,,,,,,,,,,,,,,,,,,,,,,,,,,,,,,,,,,,,,,,,,None,,304.7183375099441,None,304.7183375099441,None,2022-05-12-14:04:00.313636,304.7277430999093,305.0348733998835,304.7277430999093,None,None,304.7277430999093,None,305.5347282101167,None,,,,12015,0001,2022_May_12_1359,localizer,2021.1.3,60.2910490223374,
null_block,null_block,null_block.bmp,,,,,0,152,152,152,,,,,,,,,,,,,,,,,,,,,,,,,,,,,,,,,,,,,,,,,,t,1.7440714999102056,305.5348125998862,None,305.5348125998862,None,2022-05-12-14:04:02.896582,307.30166821011807,None,307.30166821011807,None,None,307.30166821011807,None,307.3038719999604,None,,,,12015,0001,2022_May_12_1359,localizer,2021.1.3,60.2910490223374,
block_start,scrambled,scrambled004.bmp,,,,,0,153,153,153,,,,,,,,,,,,,,,,,,,,,,,,,,,,,,,,,,,,,,,,,,t,1.9588591998908669,319.3190391000826,None,319.3190391000826,None,2022-05-12-14:04:16.897935,321.30272700008936,321.61815920006484,321.30272700008936,None,None,321.30272700008936,None,322.10474781009833,None,,,,12015,0001,2022_May_12_1359,localizer,2021.1.3,60.2910490223374,
block,scrambled,scrambled022.bmp,,,,,0,154,154,154,,,,,,,,,,,,,,,,,,,,,,,,,,,,,,,,,,,,,,,,,,None,,322.10474781009833,None,322.10474781009833,None,2022-05-12-14:04:17.704826,322.12142789992504,322.43504379992373,322.12142789992504,322.12142789992504,None,322.12142789992504,322.12142789992504,322.9183642099844,None,,,,12015,0001,2022_May_12_1359,localizer,2021.1.3,60.2910490223374,
block,scrambled,scrambled056.bmp,,,,,0,155,155,155,,,,,,,,,,,,,,,,,,,,,,,,,,,,,,,,,,,,,,,,,,None,,322.9183642099844,None,322.9183642099844,None,2022-05-12-14:04:18.513483,322.9266605998855,323.235002100002,322.9266605998855,None,None,322.9266605998855,None,323.73531960991676,None,,,,12015,0001,2022_May_12_1359,localizer,2021.1.3,60.2910490223374,
block,scrambled,scrambled076.bmp,,,,,0,156,156,156,,,,,,,,,,,,,,,,,,,,,,,,,,,,,,,,,,,,,,,,,,None,,323.73531960991676,None,323.73531960991676,None,2022-05-12-14:04:19.330399,323.7453638999723,324.0515532998834,323.7453638999723,None,None,323.7453638999723,None,324.55199861007276,None,,,,12015,0001,2022_May_12_1359,localizer,2021.1.3,60.2910490223374,
block,scrambled,scrambled086.bmp,,,,,0,157,157,157,,,,,,,,,,,,,,,,,,,,,,,,,,,,,,,,,,,,,,,,,,None,,324.55199861007276,None,324.55199861007276,None,2022-05-12-14:04:20.147338,324.56240019993857,324.8684529000893,324.56240019993857,None,None,324.56240019993857,None,325.36865741007495,None,,,,12015,0001,2022_May_12_1359,localizer,2021.1.3,60.2910490223374,
block,scrambled,scrambled025.bmp,,,,,0,158,158,158,,,,,,,,,,,,,,,,,,,,,,,,,,,,,,,,,,,,,,,,,,None,,325.36865741007495,None,325.36865741007495,None,2022-05-12-14:04:20.963959,325.3694335001055,325.6850590999238,325.3694335001055,None,None,325.3694335001055,None,326.18486851004417,None,,,,12015,0001,2022_May_12_1359,localizer,2021.1.3,60.2910490223374,
block,scrambled,scrambled014.bmp,,,,,0,159,159,159,,,,,,,,,,,,,,,,,,,,,,,,,,,,,,,,,,,,,,,,,,None,,326.18486851004417,None,326.18486851004417,None,2022-05-12-14:04:21.779911,326.19461430003867,326.50153749994934,326.19461430003867,None,None,326.19461430003867,None,327.0018702099798,None,,,,12015,0001,2022_May_12_1359,localizer,2021.1.3,60.2910490223374,
block,scrambled,scrambled033.bmp,,,,,0,160,160,160,,,,,,,,,,,,,,,,,,,,,,,,,,,,,,,,,,,,,,,,,,None,,327.0018702099798,None,327.0018702099798,None,2022-05-12-14:04:22.597192,327.01193260005675,327.3187029999681,327.01193260005675,None,None,327.01193260005675,None,327.8181614099769,None,,,,12015,0001,2022_May_12_1359,localizer,2021.1.3,60.2910490223374,
block,scrambled,scrambled033.bmp,,,,,0,161,161,161,,,,,,,,,,,,,,,,,,,,,,,,,,,,,,,,,,,,,,,,,,None,,327.8181614099769,None,327.8181614099769,None,2022-05-12-14:04:23.413276,327.8194943999406,328.11901789996773,327.8194943999406,None,None,327.8194943999406,None,328.63498250993433,None,,,,12015,0001,2022_May_12_1359,localizer,2021.1.3,60.2910490223374,
block,scrambled,scrambled024.bmp,,,,,0,162,162,162,,,,,,,,,,,,,,,,,,,,,,,,,,,,,,,,,,,,,,,,,,None,,328.63498250993433,None,328.63498250993433,None,2022-05-12-14:04:24.230096,328.63619209988974,328.951715500094,328.63619209988974,None,None,328.63619209988974,None,329.4352053100476,None,,,,12015,0001,2022_May_12_1359,localizer,2021.1.3,60.2910490223374,
block,scrambled,scrambled085.bmp,,,,,0,163,163,163,,,,,,,,,,,,,,,,,,,,,,,,,,,,,,,,,,,,,,,,,,None,,329.4352053100476,None,329.4352053100476,None,2022-05-12-14:04:25.032310,329.44363999995403,329.75190509995446,329.44363999995403,329.44363999995403,None,329.44363999995403,329.44363999995403,330.2525673100492,None,,,,12015,0001,2022_May_12_1359,localizer,2021.1.3,60.2910490223374,
block,scrambled,scrambled062.bmp,,,,,0,164,164,164,,,,,,,,,,,,,,,,,,,,,,,,,,,,,,,,,,,,,,,,,,None,,330.2525673100492,None,330.2525673100492,None,2022-05-12-14:04:25.848854,330.2642260999419,330.5746873000171,330.2642260999419,None,None,330.2642260999419,None,331.06971131002064,None,,,,12015,0001,2022_May_12_1359,localizer,2021.1.3,60.2910490223374,
block,scrambled,scrambled065.bmp,,,,,0,165,165,165,,,,,,,,,,,,,,,,,,,,,,,,,,,,,,,,,,,,,,,,,,None,,331.06971131002064,None,331.06971131002064,None,2022-05-12-14:04:26.666977,331.08436480001546,331.38537269993685,331.08436480001546,None,None,331.08436480001546,None,331.88481871008406,None,,,,12015,0001,2022_May_12_1359,localizer,2021.1.3,60.2910490223374,
block,scrambled,scrambled032.bmp,,,,,0,166,166,166,,,,,,,,,,,,,,,,,,,,,,,,,,,,,,,,,,,,,,,,,,None,,331.88481871008406,None,331.88481871008406,None,2022-05-12-14:04:27.479934,331.8861207999289,332.2016326999292,331.8861207999289,None,None,331.8861207999289,None,332.70170881010125,None,,,,12015,0001,2022_May_12_1359,localizer,2021.1.3,60.2910490223374,
block_end,scrambled,scrambled037.bmp,,,,,0,167,167,167,,,,,,,,,,,,,,,,,,,,,,,,,,,,,,,,,,,,,,,,,,None,,332.70170881010125,None,332.70170881010125,None,2022-05-12-14:04:28.296827,332.71164339990355,333.018503600033,332.71164339990355,None,None,332.71164339990355,None,333.51864341010804,None,,,,12015,0001,2022_May_12_1359,localizer,2021.1.3,60.2910490223374,
block_start,faces,faces048.bmp,,,,,0,168,168,168,,,,,,,,,,,,,,,,,,,,,,,,,,,,,,,,,,,,,,,,,,t,1.7593285001348704,333.51851610001177,None,333.51851610001177,None,2022-05-12-14:04:30.898876,335.3156334001105,335.6197168000508,335.3156334001105,None,None,335.3156334001105,None,336.1183382099727,None,,,,12015,0001,2022_May_12_1359,localizer,2021.1.3,60.2910490223374,
block,faces,faces088.bmp,,,,,0,169,169,169,,,,,,,,,,,,,,,,,,,,,,,,,,,,,,,,,,,,,,,,,,None,,336.1183382099727,None,336.1183382099727,None,2022-05-12-14:04:31.713444,336.1296699999366,336.4350326000713,336.1296699999366,None,None,336.1296699999366,None,336.93565661010797,None,,,,12015,0001,2022_May_12_1359,localizer,2021.1.3,60.2910490223374,
block,faces,faces019.bmp,,,,,0,170,170,170,,,,,,,,,,,,,,,,,,,,,,,,,,,,,,,,,,,,,,,,,,None,,336.93565661010797,None,336.93565661010797,None,2022-05-12-14:04:32.531945,336.93670399999246,337.2520955000073,336.93670399999246,None,None,336.93670399999246,None,337.75216461012604,None,,,,12015,0001,2022_May_12_1359,localizer,2021.1.3,60.2910490223374,
block,faces,faces024.bmp,,,,,0,171,171,171,,,,,,,,,,,,,,,,,,,,,,,,,,,,,,,,,,,,,,,,,,None,,337.75216461012604,None,337.75216461012604,None,2022-05-12-14:04:33.347287,337.7632257998921,338.0684034000151,337.7632257998921,None,None,337.7632257998921,None,338.57021371012087,None,,,,12015,0001,2022_May_12_1359,localizer,2021.1.3,60.2910490223374,
block,faces,faces045.bmp,,,,,0,172,172,172,,,,,,,,,,,,,,,,,,,,,,,,,,,,,,,,,,,,,,,,,,None,,338.57021371012087,None,338.57021371012087,None,2022-05-12-14:04:34.164331,338.56982650002465,338.88518429989927,338.56982650002465,None,None,338.56982650002465,None,339.3697309099836,None,,,,12015,0001,2022_May_12_1359,localizer,2021.1.3,60.2910490223374,
block,faces,faces017.bmp,,,,,0,173,173,173,,,,,,,,,,,,,,,,,,,,,,,,,,,,,,,,,,,,,,,,,,None,,339.3697309099836,None,339.3697309099836,None,2022-05-12-14:04:34.967944,339.3856307999231,339.6855242000893,339.3856307999231,339.3856307999231,None,339.3856307999231,339.3856307999231,340.185213110107,None,,,,12015,0001,2022_May_12_1359,localizer,2021.1.3,60.2910490223374,
block,faces,faces020.bmp,,,,,0,174,174,174,,,,,,,,,,,,,,,,,,,,,,,,,,,,,,,,,,,,,,,,,,None,,340.185213110107,None,340.185213110107,None,2022-05-12-14:04:35.780323,340.19548389990814,340.5018400999252,340.19548389990814,None,None,340.19548389990814,None,341.0020858099917,None,,,,12015,0001,2022_May_12_1359,localizer,2021.1.3,60.2910490223374,
block,faces,faces027.bmp,,,,,0,175,175,175,,,,,,,,,,,,,,,,,,,,,,,,,,,,,,,,,,,,,,,,,,None,,341.0020858099917,None,341.0020858099917,None,2022-05-12-14:04:36.597406,341.0132782999426,341.31884830002673,341.0132782999426,None,None,341.0132782999426,None,341.8197717100149,None,,,,12015,0001,2022_May_12_1359,localizer,2021.1.3,60.2910490223374,
block,faces,faces009.bmp,,,,,0,176,176,176,,,,,,,,,,,,,,,,,,,,,,,,,,,,,,,,,,,,,,,,,,None,,341.8197717100149,None,341.8197717100149,None,2022-05-12-14:04:37.417051,341.8223580000922,342.13562029995956,341.8223580000922,None,None,341.8223580000922,None,342.6350691101281,None,,,,12015,0001,2022_May_12_1359,localizer,2021.1.3,60.2910490223374,
block,faces,faces013.bmp,,,,,0,177,177,177,,,,,,,,,,,,,,,,,,,,,,,,,,,,,,,,,,,,,,,,,,None,,342.6350691101281,None,342.6350691101281,None,2022-05-12-14:04:38.230208,342.63620349997655,342.9359506999608,342.63620349997655,None,None,342.63620349997655,None,343.43557100992183,None,,,,12015,0001,2022_May_12_1359,localizer,2021.1.3,60.2910490223374,
block,faces,faces086.bmp,,,,,0,178,178,178,,,,,,,,,,,,,,,,,,,,,,,,,,,,,,,,,,,,,,,,,,None,,343.43557100992183,None,343.43557100992183,None,2022-05-12-14:04:39.032857,343.44921629992314,343.7519127998967,343.44921629992314,343.44921629992314,None,343.44921629992314,343.44921629992314,344.2521652101306,None,,,,12015,0001,2022_May_12_1359,localizer,2021.1.3,60.2910490223374,
block,faces,faces087.bmp,,,,,0,179,179,179,,,,,,,,,,,,,,,,,,,,,,,,,,,,,,,,,,,,,,,,,,None,,344.2521652101306,None,344.2521652101306,None,2022-05-12-14:04:39.847495,344.2641932000406,344.5685260000173,344.2641932000406,None,None,344.2641932000406,None,345.0683912100969,None,,,,12015,0001,2022_May_12_1359,localizer,2021.1.3,60.2910490223374,
block,faces,faces016.bmp,,,,,0,180,180,180,,,,,,,,,,,,,,,,,,,,,,,,,,,,,,,,,,,,,,,,,,None,,345.0683912100969,None,345.0683912100969,None,2022-05-12-14:04:40.663469,345.075714699924,345.3853645999916,345.075714699924,None,None,345.075714699924,None,345.8859068101039,None,,,,12015,0001,2022_May_12_1359,localizer,2021.1.3,60.2910490223374,
block,faces,faces052.bmp,,,,,0,181,181,181,,,,,,,,,,,,,,,,,,,,,,,,,,,,,,,,,,,,,,,,,,None,,345.8859068101039,None,345.8859068101039,None,2022-05-12-14:04:41.481195,345.88666269998066,346.20189590007067,345.88666269998066,None,None,345.88666269998066,None,346.70223600992466,None,,,,12015,0001,2022_May_12_1359,localizer,2021.1.3,60.2910490223374,
block_end,faces,faces044.bmp,,,,,0,182,182,182,,,,,,,,,,,,,,,,,,,,,,,,,,,,,,,,,,,,,,,,,,None,,346.70223600992466,None,346.70223600992466,None,2022-05-12-14:04:42.297534,346.70296090003103,347.0022398000583,346.70296090003103,None,None,346.70296090003103,None,347.51841821002307,None,,,,12015,0001,2022_May_12_1359,localizer,2021.1.3,60.2910490223374,
block_start,faces,faces018.bmp,,,,,0,183,183,183,,,,,,,,,,,,,,,,,,,,,,,,,,,,,,,,,,,,,,,,,,t,1.7593328000511974,347.5185060000513,None,347.5185060000513,None,2022-05-12-14:04:44.896510,349.3135551000014,349.61864209990017,349.3135551000014,None,None,349.3135551000014,None,350.1185970100807,None,,,,12015,0001,2022_May_12_1359,localizer,2021.1.3,60.2910490223374,
block,faces,faces044.bmp,,,,,0,184,184,184,,,,,,,,,,,,,,,,,,,,,,,,,,,,,,,,,,,,,,,,,,None,,350.1185970100807,None,350.1185970100807,None,2022-05-12-14:04:45.713709,350.1194486001041,350.4185780000407,350.1194486001041,None,None,350.1194486001041,None,350.9342133099446,None,,,,12015,0001,2022_May_12_1359,localizer,2021.1.3,60.2910490223374,
block,faces,faces046.bmp,,,,,0,185,185,185,,,,,,,,,,,,,,,,,,,,,,,,,,,,,,,,,,,,,,,,,,None,,350.9342133099446,None,350.9342133099446,None,2022-05-12-14:04:46.528882,350.943330100039,351.2529953001067,350.943330100039,None,None,350.943330100039,None,351.751621409948,None,,,,12015,0001,2022_May_12_1359,localizer,2021.1.3,60.2910490223374,
block,faces,faces019.bmp,,,,,0,186,186,186,,,,,,,,,,,,,,,,,,,,,,,,,,,,,,,,,,,,,,,,,,None,,351.751621409948,None,351.751621409948,None,2022-05-12-14:04:47.346735,351.7532106998842,352.06851779995486,351.7532106998842,None,None,351.7532106998842,None,352.55231840994674,None,,,,12015,0001,2022_May_12_1359,localizer,2021.1.3,60.2910490223374,
block,faces,faces029.bmp,,,,,0,187,187,187,,,,,,,,,,,,,,,,,,,,,,,,,,,,,,,,,,,,,,,,,,None,,352.55231840994674,None,352.55231840994674,None,2022-05-12-14:04:48.149417,352.5531246000901,352.85238870000467,352.5531246000901,352.5531246000901,None,352.5531246000901,352.5531246000901,353.36861861001233,None,,,,12015,0001,2022_May_12_1359,localizer,2021.1.3,60.2910490223374,
block,faces,faces034.bmp,,,,,0,188,188,188,,,,,,,,,,,,,,,,,,,,,,,,,,,,,,,,,,,,,,,,,,None,,353.36861861001233,None,353.36861861001233,None,2022-05-12-14:04:48.963730,353.3789103999734,353.6852142000571,353.3789103999734,None,None,353.3789103999734,None,354.1852469101315,None,,,,12015,0001,2022_May_12_1359,localizer,2021.1.3,60.2910490223374,
block,faces,faces012.bmp,,,,,0,189,189,189,,,,,,,,,,,,,,,,,,,,,,,,,,,,,,,,,,,,,,,,,,None,,354.1852469101315,None,354.1852469101315,None,2022-05-12-14:04:49.780358,354.18626129999757,354.48525070003234,354.18626129999757,None,None,354.18626129999757,None,354.98573021001647,None,,,,12015,0001,2022_May_12_1359,localizer,2021.1.3,60.2910490223374,
block,faces,faces053.bmp,,,,,0,190,190,190,,,,,,,,,,,,,,,,,,,,,,,,,,,,,,,,,,,,,,,,,,None,,354.98573021001647,None,354.98573021001647,None,2022-05-12-14:04:50.582829,354.9882537999656,355.30143229989335,354.9882537999656,354.9882537999656,None,354.9882537999656,354.9882537999656,355.80225371003615,None,,,,12015,0001,2022_May_12_1359,localizer,2021.1.3,60.2910490223374,
block,faces,faces052.bmp,,,,,0,191,191,191,,,,,,,,,,,,,,,,,,,,,,,,,,,,,,,,,,,,,,,,,,None,,355.80225371003615,None,355.80225371003615,None,2022-05-12-14:04:51.397383,355.80291180009954,356.1020637000911,355.80291180009954,None,None,355.80291180009954,None,356.60198011009487,None,,,,12015,0001,2022_May_12_1359,localizer,2021.1.3,60.2910490223374,
block,faces,faces013.bmp,,,,,0,192,192,192,,,,,,,,,,,,,,,,,,,,,,,,,,,,,,,,,,,,,,,,,,None,,356.60198011009487,None,356.60198011009487,None,2022-05-12-14:04:52.199083,356.60317989997566,356.9024473999161,356.60317989997566,356.60317989997566,None,356.60317989997566,356.60317989997566,357.4024316099705,None,,,,12015,0001,2022_May_12_1359,localizer,2021.1.3,60.2910490223374,
block,faces,faces026.bmp,,,,,0,193,193,193,,,,,,,,,,,,,,,,,,,,,,,,,,,,,,,,,,,,,,,,,,None,,357.4024316099705,None,357.4024316099705,None,2022-05-12-14:04:53.000502,357.4471239000559,357.75377000006847,357.4471239000559,357.4471239000559,None,357.4471239000559,357.4471239000559,358.2186050100019,None,,,,12015,0001,2022_May_12_1359,localizer,2021.1.3,60.2910490223374,
block,faces,faces030.bmp,,,,,0,194,194,194,,,,,,,,,,,,,,,,,,,,,,,,,,,,,,,,,,,,,,,,,,None,,358.2186050100019,None,358.2186050100019,None,2022-05-12-14:04:53.813716,358.2283628000878,358.53509510005824,358.2283628000878,None,None,358.2283628000878,None,359.03541761001105,None,,,,12015,0001,2022_May_12_1359,localizer,2021.1.3,60.2910490223374,
block,faces,faces064.bmp,,,,,0,195,195,195,,,,,,,,,,,,,,,,,,,,,,,,,,,,,,,,,,,,,,,,,,None,,359.03541761001105,None,359.03541761001105,None,2022-05-12-14:04:54.631028,359.04534909990616,359.3522204000037,359.04534909990616,None,None,359.04534909990616,None,359.85232470992486,None,,,,12015,0001,2022_May_12_1359,localizer,2021.1.3,60.2910490223374,
block,faces,faces016.bmp,,,,,0,196,196,196,,,,,,,,,,,,,,,,,,,,,,,,,,,,,,,,,,,,,,,,,,None,,359.85232470992486,None,359.85232470992486,None,2022-05-12-14:04:55.447410,359.85332300001755,360.1687316999305,359.85332300001755,None,None,359.85332300001755,None,360.6527744100196,None,,,,12015,0001,2022_May_12_1359,localizer,2021.1.3,60.2910490223374,
block_end,faces,faces065.bmp,,,,,0,197,197,197,,,,,,,,,,,,,,,,,,,,,,,,,,,,,,,,,,,,,,,,,,None,,360.6527744100196,None,360.6527744100196,None,2022-05-12-14:04:56.250865,360.6729144998826,360.9851867000107,360.6729144998826,360.6729144998826,None,360.6729144998826,360.6729144998826,361.4687212099554,None,,,,12015,0001,2022_May_12_1359,localizer,2021.1.3,60.2910490223374,
block_start,objects,objects052.bmp,,,,,0,198,198,198,,,,,,,,,,,,,,,,,,,,,,,,,,,,,,,,,,,,,,,,,,t,1.8092541999649256,361.46863509994,None,361.46863509994,None,2022-05-12-14:04:58.897266,363.3029688000679,363.6189602999948,363.3029688000679,None,None,363.3029688000679,None,364.10291521011385,None,,,,12015,0001,2022_May_12_1359,localizer,2021.1.3,60.2910490223374,
block,objects,objects071.bmp,,,,,0,199,199,199,,,,,,,,,,,,,,,,,,,,,,,,,,,,,,,,,,,,,,,,,,None,,364.10291521011385,None,364.10291521011385,None,2022-05-12-14:04:59.701027,364.10694080009125,364.4197792999912,364.10694080009125,364.10694080009125,None,364.10694080009125,364.10694080009125,364.91879260998684,None,,,,12015,0001,2022_May_12_1359,localizer,2021.1.3,60.2910490223374,
block,objects,objects024.bmp,,,,,0,200,200,200,,,,,,,,,,,,,,,,,,,,,,,,,,,,,,,,,,,,,,,,,,None,,364.91879260998684,None,364.91879260998684,None,2022-05-12-14:05:00.514340,364.91951679997146,365.225144200027,364.91951679997146,None,None,364.91951679997146,None,365.71856940996366,None,,,,12015,0001,2022_May_12_1359,localizer,2021.1.3,60.2910490223374,
block,objects,objects027.bmp,,,,,0,201,201,201,,,,,,,,,,,,,,,,,,,,,,,,,,,,,,,,,,,,,,,,,,None,,365.71856940996366,None,365.71856940996366,None,2022-05-12-14:05:01.314675,365.72976489993744,366.0356489000842,365.72976489993744,365.72976489993744,None,365.72976489993744,365.72976489993744,366.53546880993525,None,,,,12015,0001,2022_May_12_1359,localizer,2021.1.3,60.2910490223374,
block,objects,objects062.bmp,,,,,0,202,202,202,,,,,,,,,,,,,,,,,,,,,,,,,,,,,,,,,,,,,,,,,,None,,366.53546880993525,None,366.53546880993525,None,2022-05-12-14:05:02.130579,366.54514060006477,366.85266770003363,366.54514060006477,None,None,366.54514060006477,None,367.3528139099246,None,,,,12015,0001,2022_May_12_1359,localizer,2021.1.3,60.2910490223374,
block,objects,objects084.bmp,,,,,0,203,203,203,,,,,,,,,,,,,,,,,,,,,,,,,,,,,,,,,,,,,,,,,,None,,367.3528139099246,None,367.3528139099246,None,2022-05-12-14:05:02.950016,367.3663848999422,367.66909540002234,367.3663848999422,None,None,367.3663848999422,None,368.1687974100234,None,,,,12015,0001,2022_May_12_1359,localizer,2021.1.3,60.2910490223374,
block,objects,objects043.bmp,,,,,0,204,204,204,,,,,,,,,,,,,,,,,,,,,,,,,,,,,,,,,,,,,,,,,,None,,368.1687974100234,None,368.1687974100234,None,2022-05-12-14:05:03.764308,368.1798791999463,368.48518000007607,368.1798791999463,None,None,368.1798791999463,None,368.98556980995926,None,,,,12015,0001,2022_May_12_1359,localizer,2021.1.3,60.2910490223374,
block,objects,objects010.bmp,,,,,0,205,205,205,,,,,,,,,,,,,,,,,,,,,,,,,,,,,,,,,,,,,,,,,,None,,368.98556980995926,None,368.98556980995926,None,2022-05-12-14:05:04.580676,368.9965633000247,369.3021945999935,368.9965633000247,None,None,368.9965633000247,None,369.8019081099657,None,,,,12015,0001,2022_May_12_1359,localizer,2021.1.3,60.2910490223374,
block,objects,objects016.bmp,,,,,0,206,206,206,,,,,,,,,,,,,,,,,,,,,,,,,,,,,,,,,,,,,,,,,,None,,369.8019081099657,None,369.8019081099657,None,2022-05-12-14:05:05.397215,369.8120726000052,370.1186887000222,369.8120726000052,None,None,369.8120726000052,None,370.61846651013474,None,,,,12015,0001,2022_May_12_1359,localizer,2021.1.3,60.2910490223374,
block,objects,objects029.bmp,,,,,0,207,207,207,,,,,,,,,,,,,,,,,,,,,,,,,,,,,,,,,,,,,,,,,,None,,370.61846651013474,None,370.61846651013474,None,2022-05-12-14:05:06.213325,370.6199153000489,370.919290299993,370.6199153000489,None,None,370.6199153000489,None,371.43551580996717,None,,,,12015,0001,2022_May_12_1359,localizer,2021.1.3,60.2910490223374,
block,objects,objects015.bmp,,,,,0,208,208,208,,,,,,,,,,,,,,,,,,,,,,,,,,,,,,,,,,,,,,,,,,None,,371.43551580996717,None,371.43551580996717,None,2022-05-12-14:05:07.029575,371.43671540007927,371.735769999912,371.43671540007927,None,None,371.43671540007927,None,372.252171409945,None,,,,12015,0001,2022_May_12_1359,localizer,2021.1.3,60.2910490223374,
block,objects,objects013.bmp,,,,,0,209,209,209,,,,,,,,,,,,,,,,,,,,,,,,,,,,,,,,,,,,,,,,,,None,,372.252171409945,None,372.252171409945,None,2022-05-12-14:05:07.847281,372.2613905000035,372.5752564999275,372.2613905000035,None,None,372.2613905000035,None,373.06822621000464,None,,,,12015,0001,2022_May_12_1359,localizer,2021.1.3,60.2910490223374,
block,objects,objects003.bmp,,,,,0,210,210,210,,,,,,,,,,,,,,,,,,,,,,,,,,,,,,,,,,,,,,,,,,None,,373.06822621000464,None,373.06822621000464,None,2022-05-12-14:05:08.663994,373.0699058000464,373.38521960005164,373.0699058000464,None,None,373.0699058000464,None,373.88501450994517,None,,,,12015,0001,2022_May_12_1359,localizer,2021.1.3,60.2910490223374,
block,objects,objects046.bmp,,,,,0,211,211,211,,,,,,,,,,,,,,,,,,,,,,,,,,,,,,,,,,,,,,,,,,None,,373.88501450994517,None,373.88501450994517,None,2022-05-12-14:05:09.479458,373.8865133000072,374.2019050999079,373.8865133000072,None,None,373.8865133000072,None,374.68659470991696,None,,,,12015,0001,2022_May_12_1359,localizer,2021.1.3,60.2910490223374,
block_end,objects,objects063.bmp,,,,,0,212,212,212,,,,,,,,,,,,,,,,,,,,,,,,,,,,,,,,,,,,,,,,,,None,,374.68659470991696,None,374.68659470991696,None,2022-05-12-14:05:10.285735,374.6906238999218,375.00163140008226,374.6906238999218,374.6906238999218,None,374.6906238999218,374.6906238999218,375.5020426101284,None,,,,12015,0001,2022_May_12_1359,localizer,2021.1.3,60.2910490223374,
block_start,scrambled,scrambled013.bmp,,,,,0,213,213,213,,,,,,,,,,,,,,,,,,,,,,,,,,,,,,,,,,,,,,,,,,t,1.7759036000352353,375.5019638999365,None,375.5019638999365,None,2022-05-12-14:05:12.900737,377.3139641000889,377.61857359996065,377.3139641000889,None,None,377.3139641000889,None,378.11881671000737,None,,,,12015,0001,2022_May_12_1359,localizer,2021.1.3,60.2910490223374,
block,scrambled,scrambled027.bmp,,,,,0,214,214,214,,,,,,,,,,,,,,,,,,,,,,,,,,,,,,,,,,,,,,,,,,None,,378.11881671000737,None,378.11881671000737,None,2022-05-12-14:05:13.713930,378.12405340000987,378.4353583001066,378.12405340000987,None,None,378.12405340000987,None,378.9355931099737,None,,,,12015,0001,2022_May_12_1359,localizer,2021.1.3,60.2910490223374,
block,scrambled,scrambled028.bmp,,,,,0,215,215,215,,,,,,,,,,,,,,,,,,,,,,,,,,,,,,,,,,,,,,,,,,None,,378.9355931099737,None,378.9355931099737,None,2022-05-12-14:05:14.530462,378.9449575000908,379.25239389995113,378.9449575000908,None,None,378.9449575000908,None,379.75271621013525,None,,,,12015,0001,2022_May_12_1359,localizer,2021.1.3,60.2910490223374,
block,scrambled,scrambled002.bmp,,,,,0,216,216,216,,,,,,,,,,,,,,,,,,,,,,,,,,,,,,,,,,,,,,,,,,None,,379.75271621013525,None,379.75271621013525,None,2022-05-12-14:05:15.348835,379.7541670000646,380.0687756999396,379.7541670000646,None,None,379.7541670000646,None,380.5685078100534,None,,,,12015,0001,2022_May_12_1359,localizer,2021.1.3,60.2910490223374,
block,scrambled,scrambled078.bmp,,,,,0,217,217,217,,,,,,,,,,,,,,,,,,,,,,,,,,,,,,,,,,,,,,,,,,None,,380.5685078100534,None,380.5685078100534,None,2022-05-12-14:05:16.163192,380.57085700007156,380.8854910999071,380.57085700007156,None,None,380.57085700007156,None,381.3857140100328,None,,,,12015,0001,2022_May_12_1359,localizer,2021.1.3,60.2910490223374,
block,scrambled,scrambled034.bmp,,,,,0,218,218,218,,,,,,,,,,,,,,,,,,,,,,,,,,,,,,,,,,,,,,,,,,None,,381.3857140100328,None,381.3857140100328,None,2022-05-12-14:05:16.980861,381.39289729995653,381.7022239000071,381.39289729995653,None,None,381.39289729995653,None,382.20329010991844,None,,,,12015,0001,2022_May_12_1359,localizer,2021.1.3,60.2910490223374,
block,scrambled,scrambled059.bmp,,,,,0,219,219,219,,,,,,,,,,,,,,,,,,,,,,,,,,,,,,,,,,,,,,,,,,None,,382.20329010991844,None,382.20329010991844,None,2022-05-12-14:05:17.799513,382.20555690000765,382.5192664999049,382.20555690000765,None,None,382.20555690000765,None,383.0184603099944,None,,,,12015,0001,2022_May_12_1359,localizer,2021.1.3,60.2910490223374,
block,scrambled,scrambled051.bmp,,,,,0,220,220,220,,,,,,,,,,,,,,,,,,,,,,,,,,,,,,,,,,,,,,,,,,None,,383.0184603099944,None,383.0184603099944,None,2022-05-12-14:05:18.612846,383.0273450000677,383.3359364999924,383.0273450000677,None,None,383.0273450000677,None,383.8366243100492,None,,,,12015,0001,2022_May_12_1359,localizer,2021.1.3,60.2910490223374,
block,scrambled,scrambled039.bmp,,,,,0,221,221,221,,,,,,,,,,,,,,,,,,,,,,,,,,,,,,,,,,,,,,,,,,None,,383.8366243100492,None,383.8366243100492,None,2022-05-12-14:05:19.432716,383.83883020002395,384.1530452000443,383.83883020002395,None,None,383.83883020002395,None,384.6520136100473,None,,,,12015,0001,2022_May_12_1359,localizer,2021.1.3,60.2910490223374,
block,scrambled,scrambled008.bmp,,,,,0,222,222,222,,,,,,,,,,,,,,,,,,,,,,,,,,,,,,,,,,,,,,,,,,None,,384.6520136100473,None,384.6520136100473,None,2022-05-12-14:05:20.246911,384.66157809994183,384.96876850002445,384.66157809994183,None,None,384.66157809994183,None,385.46948480994905,None,,,,12015,0001,2022_May_12_1359,localizer,2021.1.3,60.2910490223374,
block,scrambled,scrambled071.bmp,,,,,0,223,223,223,,,,,,,,,,,,,,,,,,,,,,,,,,,,,,,,,,,,,,,,,,None,,385.46948480994905,None,385.46948480994905,None,2022-05-12-14:05:21.065581,385.48135320004076,385.7856242998969,385.48135320004076,None,None,385.48135320004076,None,386.28562200993764,None,,,,12015,0001,2022_May_12_1359,localizer,2021.1.3,60.2910490223374,
block,scrambled,scrambled076.bmp,,,,,0,224,224,224,,,,,,,,,,,,,,,,,,,,,,,,,,,,,,,,,,,,,,,,,,None,,386.28562200993764,None,386.28562200993764,None,2022-05-12-14:05:21.880733,386.2865277999081,386.60200789989904,386.2865277999081,None,None,386.2865277999081,None,387.08656211004126,None,,,,12015,0001,2022_May_12_1359,localizer,2021.1.3,60.2910490223374,
block,scrambled,scrambled086.bmp,,,,,0,225,225,225,,,,,,,,,,,,,,,,,,,,,,,,,,,,,,,,,,,,,,,,,,None,,387.08656211004126,None,387.08656211004126,None,2022-05-12-14:05:22.684734,387.0905281000305,387.40282479999587,387.0905281000305,387.0905281000305,None,387.0905281000305,387.0905281000305,387.9027988099726,None,,,,12015,0001,2022_May_12_1359,localizer,2021.1.3,60.2910490223374,
block,scrambled,scrambled040.bmp,,,,,0,226,226,226,,,,,,,,,,,,,,,,,,,,,,,,,,,,,,,,,,,,,,,,,,None,,387.9027988099726,None,387.9027988099726,None,2022-05-12-14:05:23.498988,387.9135280000046,388.21877699997276,387.9135280000046,None,None,387.9135280000046,None,388.70827341002877,None,,,,12015,0001,2022_May_12_1359,localizer,2021.1.3,60.2910490223374,
block_end,scrambled,scrambled007.bmp,,,,,0,227,227,227,,,,,,,,,,,,,,,,,,,,,,,,,,,,,,,,,,,,,,,,,,None,,388.70827341002877,None,388.70827341002877,None,2022-05-12-14:05:24.309292,388.7275404999964,389.0357669000514,388.7275404999964,None,None,388.7275404999964,None,389.5195610101102,None,,,,12015,0001,2022_May_12_1359,localizer,2021.1.3,60.2910490223374,
block_start,scenes,scenes020.bmp,,,,,0,228,228,228,,,,,,,,,,,,,,,,,,,,,,,,,,,,,,,,,,,,,,,,,,t,1.7583818000275642,389.5195047999732,None,389.5195047999732,None,2022-05-12-14:05:26.895704,391.3033666999545,391.619607700035,391.3033666999545,None,None,391.3033666999545,None,392.1057246100856,None,,,,12015,0001,2022_May_12_1359,localizer,2021.1.3,60.2910490223374,
block,scenes,scenes091.bmp,,,,,0,229,229,229,,,,,,,,,,,,,,,,,,,,,,,,,,,,,,,,,,,,,,,,,,None,,392.1057246100856,None,392.1057246100856,None,2022-05-12-14:05:27.703002,392.1208279998973,392.4355327000376,392.1208279998973,None,None,392.1208279998973,None,392.91910181001293,None,,,,12015,0001,2022_May_12_1359,localizer,2021.1.3,60.2910490223374,
block,scenes,scenes042.bmp,,,,,0,230,230,230,,,,,,,,,,,,,,,,,,,,,,,,,,,,,,,,,,,,,,,,,,None,,392.91910181001293,None,392.91910181001293,None,2022-05-12-14:05:28.514437,392.93049410008825,393.23555959993973,392.93049410008825,None,None,392.93049410008825,None,393.73557420999276,None,,,,12015,0001,2022_May_12_1359,localizer,2021.1.3,60.2910490223374,
block,scenes,scenes029.bmp,,,,,0,231,231,231,,,,,,,,,,,,,,,,,,,,,,,,,,,,,,,,,,,,,,,,,,None,,393.73557420999276,None,393.73557420999276,None,2022-05-12-14:05:29.330682,393.7451148000546,394.0523548000492,393.7451148000546,None,None,393.7451148000546,None,394.5525488100713,None,,,,12015,0001,2022_May_12_1359,localizer,2021.1.3,60.2910490223374,
block,scenes,scenes078.bmp,,,,,0,232,232,232,,,,,,,,,,,,,,,,,,,,,,,,,,,,,,,,,,,,,,,,,,None,,394.5525488100713,None,394.5525488100713,None,2022-05-12-14:05:30.147819,394.55324760009535,394.86890090000816,394.55324760009535,None,None,394.55324760009535,None,395.3531416099751,None,,,,12015,0001,2022_May_12_1359,localizer,2021.1.3,60.2910490223374,
block,scenes,scenes024.bmp,,,,,0,233,233,233,,,,,,,,,,,,,,,,,,,,,,,,,,,,,,,,,,,,,,,,,,None,,395.3531416099751,None,395.3531416099751,None,2022-05-12-14:05:30.951418,395.3574208000209,395.66972750006244,395.3574208000209,395.3574208000209,None,395.3574208000209,395.3574208000209,396.16912660996894,None,,,,12015,0001,2022_May_12_1359,localizer,2021.1.3,60.2910490223374,
block,scenes,scenes080.bmp,,,,,0,234,234,234,,,,,,,,,,,,,,,,,,,,,,,,,,,,,,,,,,,,,,,,,,None,,396.16912660996894,None,396.16912660996894,None,2022-05-12-14:05:31.764231,396.1804768999573,396.48777609993704,396.1804768999573,None,None,396.1804768999573,None,396.98654371004085,None,,,,12015,0001,2022_May_12_1359,localizer,2021.1.3,60.2910490223374,
block,scenes,scenes077.bmp,,,,,0,235,235,235,,,,,,,,,,,,,,,,,,,,,,,,,,,,,,,,,,,,,,,,,,None,,396.98654371004085,None,396.98654371004085,None,2022-05-12-14:05:32.583617,397.00218009995297,397.30268379999325,397.00218009995297,None,None,397.00218009995297,None,397.80213391005526,None,,,,12015,0001,2022_May_12_1359,localizer,2021.1.3,60.2910490223374,
block,scenes,scenes077.bmp,,,,,0,236,236,236,,,,,,,,,,,,,,,,,,,,,,,,,,,,,,,,,,,,,,,,,,None,,397.80213391005526,None,397.80213391005526,None,2022-05-12-14:05:33.397243,397.8032386000268,398.1026715999469,397.8032386000268,None,y,397.8032386000268,None,398.61905061004217,None,0.6405539999250323,,,12015,0001,2022_May_12_1359,localizer,2021.1.3,60.2910490223374,
block,scenes,scenes055.bmp,,,,,0,237,237,237,,,,,,,,,,,,,,,,,,,,,,,,,,,,,,,,,,,,,,,,,,None,,398.61905061004217,None,398.61905061004217,None,2022-05-12-14:05:34.214101,398.6198787998874,398.91908759996295,398.6198787998874,None,None,398.6198787998874,None,399.43551400995347,None,,,,12015,0001,2022_May_12_1359,localizer,2021.1.3,60.2910490223374,
block,scenes,scenes071.bmp,,,,,0,238,238,238,,,,,,,,,,,,,,,,,,,,,,,,,,,,,,,,,,,,,,,,,,None,,399.43551400995347,None,399.43551400995347,None,2022-05-12-14:05:35.030628,399.4365187000949,399.7520488000009,399.4365187000949,None,None,399.4365187000949,None,400.2358543099137,None,,,,12015,0001,2022_May_12_1359,localizer,2021.1.3,60.2910490223374,
block,scenes,scenes008.bmp,,,,,0,239,239,239,,,,,,,,,,,,,,,,,,,,,,,,,,,,,,,,,,,,,,,,,,None,,400.2358543099137,None,400.2358543099137,None,2022-05-12-14:05:35.833154,400.2374968000222,400.5521108000539,400.2374968000222,400.2374968000222,None,400.2374968000222,400.2374968000222,401.05241801000665,None,,,,12015,0001,2022_May_12_1359,localizer,2021.1.3,60.2910490223374,
block,scenes,scenes011.bmp,,,,,0,240,240,240,,,,,,,,,,,,,,,,,,,,,,,,,,,,,,,,,,,,,,,,,,None,,401.05241801000665,None,401.05241801000665,None,2022-05-12-14:05:36.647527,401.05316270003095,401.35242110001855,401.05316270003095,None,None,401.05316270003095,None,401.8530157100642,None,,,,12015,0001,2022_May_12_1359,localizer,2021.1.3,60.2910490223374,
block,scenes,scenes045.bmp,,,,,0,241,241,241,,,,,,,,,,,,,,,,,,,,,,,,,,,,,,,,,,,,,,,,,,None,,401.8530157100642,None,401.8530157100642,None,2022-05-12-14:05:37.451106,401.8559099000413,402.1689595999196,401.8559099000413,401.8559099000413,None,401.8559099000413,401.8559099000413,402.6691586099798,None,,,,12015,0001,2022_May_12_1359,localizer,2021.1.3,60.2910490223374,
block_end,scenes,scenes076.bmp,,,,,0,242,242,242,,,,,,,,,,,,,,,,,,,,,,,,,,,,,,,,,,,,,,,,,,None,,402.6691586099798,None,402.6691586099798,None,2022-05-12-14:05:38.264266,402.6803794000298,402.9855581000447,402.6803794000298,None,None,402.6803794000298,None,403.48575580997857,None,,,,12015,0001,2022_May_12_1359,localizer,2021.1.3,60.2910490223374,
null_block,null_block,null_block.bmp,,,,,0,243,243,243,,,,,,,,,,,,,,,,,,,,,,,,,,,,,,,,,,,,,,,,,,t,1.792561000213027,403.4856147998944,None,403.4856147998944,None,2022-05-12-14:05:40.897049,405.30248390992637,None,405.30248390992637,None,None,405.30248390992637,None,405.30451770010404,None,,,,12015,0001,2022_May_12_1359,localizer,2021.1.3,60.2910490223374,
,,,,,,,,,,,,,,,,,,,,,,,,,,,,,,,,,,,,,,,,,,,,,,,,,,,,,,,,,,,,,,,,,,,,,417.3192270998843,None,,,,,,,
