block_type,condition,img_name,Button.thisRepN,Button.thisTrialN,Button.thisN,Button.thisIndex,trials.thisRepN,trials.thisTrialN,trials.thisN,trials.thisIndex,Ready_experimenter_text.started,Ready_experimenter_text.stopped,Ready_experimenter_resp.keys,Ready_experimenter_resp.rt,Ready_experimenter_resp.started,Ready_experimenter_resp.stopped,Alignment_background.started,Alignment_background.stopped,Alignment_image.started,Alignment_image.stopped,Alignment_resp.keys,Alignment_resp.rt,Alignment_resp.started,Alignment_resp.stopped,Button_text.started,Button_text.stopped,Index_text.started,Index_text.stopped,Index_resp.keys,Index_resp.rt,Index_resp.started,Index_resp.stopped,Middle_text.started,Middle_text.stopped,Middle_resp.keys,Middle_resp.rt,Middle_resp.started,Middle_resp.stopped,Repeat_text.started,Repeat_text.stopped,Repeat_resp.keys,Repeat_resp.corr,Repeat_resp.rt,Repeat_resp.started,Repeat_resp.stopped,instruction_text.started,instruction_text.stopped,key_resp.keys,key_resp.rt,key_resp.started,key_resp.stopped,scanner_t.keys,scanner_t.rt,scanner_t.started,scanner_t.stopped,fixation_wait_for_t.started,fixation_wait_for_t.stopped,real_timestamp_trial_start,image.started,image.stopped,fixation.started,fixation.stopped,repeat_response.keys,repeat_response.started,repeat_response.stopped,fixation_null.started,fixation_null.stopped,repeat_response.rt,end_text.started,end_text.stopped,participant,run,date,expName,psychopyVersion,frameRate,
,,,,,,,,,,,15.718552999896929,None,return,439.3218084999826,15.718552999896929,None,,,,,,,,,,,,,,,,,,,,,,,,,,,,,,,,,,,,,,,,,,,,,,,,,,,,,,,22016,0002,2022_Oct_18_1521,localizer,2021.1.3,60.05901391904605,
,,,,,,,,,,,,,,,,,455.09049139986746,None,455.09049139986746,None,return,0.81768610002473,455.09049139986746,None,,,,,,,,,,,,,,,,,,,,,,,,,,,,,,,,,,,,,,,,,,,,,,,22016,0002,2022_Oct_18_1521,localizer,2021.1.3,60.05901391904605,
,,,0,0,0,0,,,,,,,,,,,,,,,,,,,455.9251734998543,None,456.924068500055,None,y,4.109827100066468,456.924068500055,None,461.0592112999875,None,b,1.379836699925363,461.0592112999875,None,462.4599213998299,None,n,0,2.5684099001809955,462.4599213998299,None,,,,,,,,,,,,,,,,,,,,,,,,,,22016,0002,2022_Oct_18_1521,localizer,2021.1.3,60.05901391904605,
,,,,,,,,,,,,,,,,,,,,,,,,,,,,,,,,,,,,,,,,,,,,,,465.05820450000465,None,y,29.423874200088903,465.05820450000465,None,,,,,,,,,,,,,,,,,,,,22016,0002,2022_Oct_18_1521,localizer,2021.1.3,60.05901391904605,
block_start,scenes,scenes017.bmp,,,,,0,0,0,0,,,,,,,,,,,,,,,,,,,,,,,,,,,,,,,,,,,,,,,,,,t,18.28781299991533,494.53832369996235,None,494.53832369996235,None,2022-10-18-15:29:22.007794,512.843630499905,513.1580558998976,512.843630499905,None,None,512.843630499905,None,513.6582645898918,None,,,,22016,0002,2022_Oct_18_1521,localizer,2021.1.3,60.05901391904605,
block,scenes,scenes016.bmp,,,,,0,1,1,1,,,,,,,,,,,,,,,,,,,,,,,,,,,,,,,,,,,,,,,,,,None,,513.6582645898918,None,513.6582645898918,None,2022-10-18-15:29:22.827206,513.6769105000421,513.9913021000102,513.6769105000421,None,None,513.6769105000421,None,514.4753849899164,None,,,,22016,0002,2022_Oct_18_1521,localizer,2021.1.3,60.05901391904605,
block,scenes,scenes014.bmp,,,,,0,2,2,2,,,,,,,,,,,,,,,,,,,,,,,,,,,,,,,,,,,,,,,,,,None,,514.4753849899164,None,514.4753849899164,None,2022-10-18-15:29:23.642535,514.475701799849,514.7750460999086,514.475701799849,None,None,514.475701799849,None,515.2754293898354,None,,,,22016,0002,2022_Oct_18_1521,localizer,2021.1.3,60.05901391904605,
block,scenes,scenes031.bmp,,,,,0,3,3,3,,,,,,,,,,,,,,,,,,,,,,,,,,,,,,,,,,,,,,,,,,None,,515.2754293898354,None,515.2754293898354,None,2022-10-18-15:29:24.444569,515.284136199858,515.591936300043,515.284136199858,515.284136199858,None,515.284136199858,515.284136199858,516.0921045899624,None,,,,22016,0002,2022_Oct_18_1521,localizer,2021.1.3,60.05901391904605,
block,scenes,scenes081.bmp,,,,,0,4,4,4,,,,,,,,,,,,,,,,,,,,,,,,,,,,,,,,,,,,,,,,,,None,,516.0921045899624,None,516.0921045899624,None,2022-10-18-15:29:25.260045,516.1037540000398,516.4085690998472,516.1037540000398,None,None,516.1037540000398,None,516.9085124900332,None,,,,22016,0002,2022_Oct_18_1521,localizer,2021.1.3,60.05901391904605,
block,scenes,scenes025.bmp,,,,,0,5,5,5,,,,,,,,,,,,,,,,,,,,,,,,,,,,,,,,,,,,,,,,,,None,,516.9085124900332,None,516.9085124900332,None,2022-10-18-15:29:26.076565,516.923322699964,517.2248733998276,516.923322699964,None,None,516.923322699964,None,517.7254402899882,None,,,,22016,0002,2022_Oct_18_1521,localizer,2021.1.3,60.05901391904605,
block,scenes,scenes083.bmp,,,,,0,6,6,6,,,,,,,,,,,,,,,,,,,,,,,,,,,,,,,,,,,,,,,,,,None,,517.7254402899882,None,517.7254402899882,None,2022-10-18-15:29:26.893380,517.7361871998291,518.0415211999789,517.7361871998291,None,None,517.7361871998291,None,518.5416425898904,None,,,,22016,0002,2022_Oct_18_1521,localizer,2021.1.3,60.05901391904605,
block,scenes,scenes032.bmp,,,,,0,7,7,7,,,,,,,,,,,,,,,,,,,,,,,,,,,,,,,,,,,,,,,,,,None,,518.5416425898904,None,518.5416425898904,None,2022-10-18-15:29:27.708588,518.5519083000254,518.8580733998679,518.5519083000254,None,None,518.5519083000254,None,519.358814889961,None,,,,22016,0002,2022_Oct_18_1521,localizer,2021.1.3,60.05901391904605,
block,scenes,scenes069.bmp,,,,,0,8,8,8,,,,,,,,,,,,,,,,,,,,,,,,,,,,,,,,,,,,,,,,,,None,,519.358814889961,None,519.358814889961,None,2022-10-18-15:29:28.526751,519.3595457999036,519.6752360998653,519.3595457999036,None,None,519.3595457999036,None,520.1751988899662,None,,,,22016,0002,2022_Oct_18_1521,localizer,2021.1.3,60.05901391904605,
block,scenes,scenes069.bmp,,,,,0,9,9,9,,,,,,,,,,,,,,,,,,,,,,,,,,,,,,,,,,,,,,,,,,None,,520.1751988899662,None,520.1751988899662,None,2022-10-18-15:29:29.342125,520.1757650999352,520.4750159999821,520.1757650999352,None,y,520.1757650999352,None,520.975124190026,None,0.6262016999535263,,,22016,0002,2022_Oct_18_1521,localizer,2021.1.3,60.05901391904605,
block,scenes,scenes053.bmp,,,,,0,10,10,10,,,,,,,,,,,,,,,,,,,,,,,,,,,,,,,,,,,,,,,,,,None,,520.975124190026,None,520.975124190026,None,2022-10-18-15:29:30.145040,520.9885458999779,521.2914372999221,520.9885458999779,520.9885458999779,None,520.9885458999779,520.9885458999779,521.7916984899668,None,,,,22016,0002,2022_Oct_18_1521,localizer,2021.1.3,60.05901391904605,
block,scenes,scenes074.bmp,,,,,0,11,11,11,,,,,,,,,,,,,,,,,,,,,,,,,,,,,,,,,,,,,,,,,,None,,521.7916984899668,None,521.7916984899668,None,2022-10-18-15:29:30.958649,521.8015699000098,522.1084618000314,521.8015699000098,None,None,521.8015699000098,None,522.6085870898562,None,,,,22016,0002,2022_Oct_18_1521,localizer,2021.1.3,60.05901391904605,
block,scenes,scenes071.bmp,,,,,0,12,12,12,,,,,,,,,,,,,,,,,,,,,,,,,,,,,,,,,,,,,,,,,,None,,522.6085870898562,None,522.6085870898562,None,2022-10-18-15:29:31.775740,522.6194304998498,522.9251580999698,522.6194304998498,None,None,522.6194304998498,None,523.42530988988,None,,,,22016,0002,2022_Oct_18_1521,localizer,2021.1.3,60.05901391904605,
block,scenes,scenes045.bmp,,,,,0,13,13,13,,,,,,,,,,,,,,,,,,,,,,,,,,,,,,,,,,,,,,,,,,None,,523.42530988988,None,523.42530988988,None,2022-10-18-15:29:32.593446,523.4261337998323,523.7254125999752,523.4261337998323,None,None,523.4261337998323,None,524.2253834900214,None,,,,22016,0002,2022_Oct_18_1521,localizer,2021.1.3,60.05901391904605,
block_end,scenes,scenes002.bmp,,,,,0,14,14,14,,,,,,,,,,,,,,,,,,,,,,,,,,,,,,,,,,,,,,,,,,None,,524.2253834900214,None,524.2253834900214,None,2022-10-18-15:29:33.395518,524.2281136000529,524.5415084999986,524.2281136000529,524.2281136000529,None,524.2281136000529,524.2281136000529,525.0418825898553,None,,,,22016,0002,2022_Oct_18_1521,localizer,2021.1.3,60.05901391904605,
null_block,null_block,null_block.bmp,,,,,0,15,15,15,,,,,,,,,,,,,,,,,,,,,,,,,,,,,,,,,,,,,,,,,,t,1.7842902999836951,525.0417761998251,None,525.0417761998251,None,2022-10-18-15:29:36.008601,526.8416731899372,None,526.8416731899372,None,None,526.8416731899372,None,526.846481199842,None,,,,22016,0002,2022_Oct_18_1521,localizer,2021.1.3,60.05901391904605,
block_start,faces,faces039.bmp,,,,,0,16,16,16,,,,,,,,,,,,,,,,,,,,,,,,,,,,,,,,,,,,,,,,,,t,1.9676811001263559,538.8584269999992,None,538.8584269999992,None,2022-10-18-15:29:50.011193,540.8549058998469,541.1584180998616,540.8549058998469,None,None,540.8549058998469,None,541.6587635899662,None,,,,22016,0002,2022_Oct_18_1521,localizer,2021.1.3,60.05901391904605,
block,faces,faces046.bmp,,,,,0,17,17,17,,,,,,,,,,,,,,,,,,,,,,,,,,,,,,,,,,,,,,,,,,None,,541.6587635899662,None,541.6587635899662,None,2022-10-18-15:29:50.826705,541.6604865000118,541.9752927999943,541.6604865000118,None,None,541.6604865000118,None,542.475534490007,None,,,,22016,0002,2022_Oct_18_1521,localizer,2021.1.3,60.05901391904605,
block,faces,faces088.bmp,,,,,0,18,18,18,,,,,,,,,,,,,,,,,,,,,,,,,,,,,,,,,,,,,,,,,,None,,542.475534490007,None,542.475534490007,None,2022-10-18-15:29:51.643672,542.4761725000571,542.7754017000552,542.4761725000571,None,None,542.4761725000571,None,543.2755604900187,None,,,,22016,0002,2022_Oct_18_1521,localizer,2021.1.3,60.05901391904605,
block,faces,faces085.bmp,,,,,0,19,19,19,,,,,,,,,,,,,,,,,,,,,,,,,,,,,,,,,,,,,,,,,,None,,543.2755604900187,None,543.2755604900187,None,2022-10-18-15:29:52.445687,543.2880204999819,543.5916565998923,543.2880204999819,543.2880204999819,None,543.2880204999819,543.2880204999819,544.0919489899418,None,,,,22016,0002,2022_Oct_18_1521,localizer,2021.1.3,60.05901391904605,
block,faces,faces018.bmp,,,,,0,20,20,20,,,,,,,,,,,,,,,,,,,,,,,,,,,,,,,,,,,,,,,,,,None,,544.0919489899418,None,544.0919489899418,None,2022-10-18-15:29:53.258892,544.1016669999808,544.4084199999925,544.1016669999808,None,None,544.1016669999808,None,544.9090819898295,None,,,,22016,0002,2022_Oct_18_1521,localizer,2021.1.3,60.05901391904605,
block,faces,faces086.bmp,,,,,0,21,21,21,,,,,,,,,,,,,,,,,,,,,,,,,,,,,,,,,,,,,,,,,,None,,544.9090819898295,None,544.9090819898295,None,2022-10-18-15:29:54.077089,544.9110801999923,545.2256092999596,544.9110801999923,None,None,544.9110801999923,None,545.7257412899519,None,,,,22016,0002,2022_Oct_18_1521,localizer,2021.1.3,60.05901391904605,
block,faces,faces041.bmp,,,,,0,22,22,22,,,,,,,,,,,,,,,,,,,,,,,,,,,,,,,,,,,,,,,,,,None,,545.7257412899519,None,545.7257412899519,None,2022-10-18-15:29:54.893676,545.7365997999441,546.0419816998765,545.7365997999441,None,None,545.7365997999441,None,546.5420220898698,None,,,,22016,0002,2022_Oct_18_1521,localizer,2021.1.3,60.05901391904605,
block,faces,faces003.bmp,,,,,0,23,23,23,,,,,,,,,,,,,,,,,,,,,,,,,,,,,,,,,,,,,,,,,,None,,546.5420220898698,None,546.5420220898698,None,2022-10-18-15:29:55.709167,546.5427657000255,546.8419581998605,546.5427657000255,None,None,546.5427657000255,None,547.3427631898551,None,,,,22016,0002,2022_Oct_18_1521,localizer,2021.1.3,60.05901391904605,
block,faces,faces010.bmp,,,,,0,24,24,24,,,,,,,,,,,,,,,,,,,,,,,,,,,,,,,,,,,,,,,,,,None,,547.3427631898551,None,547.3427631898551,None,2022-10-18-15:29:56.513880,547.3470603998285,547.6592886999715,547.3470603998285,547.3470603998285,None,547.3470603998285,547.3470603998285,548.1595483898884,None,,,,22016,0002,2022_Oct_18_1521,localizer,2021.1.3,60.05901391904605,
block,faces,faces033.bmp,,,,,0,25,25,25,,,,,,,,,,,,,,,,,,,,,,,,,,,,,,,,,,,,,,,,,,None,,548.1595483898884,None,548.1595483898884,None,2022-10-18-15:29:57.327672,548.1626344998367,548.4753647998441,548.1626344998367,None,None,548.1626344998367,None,548.9752820899478,None,,,,22016,0002,2022_Oct_18_1521,localizer,2021.1.3,60.05901391904605,
block,faces,faces052.bmp,,,,,0,26,26,26,,,,,,,,,,,,,,,,,,,,,,,,,,,,,,,,,,,,,,,,,,None,,548.9752820899478,None,548.9752820899478,None,2022-10-18-15:29:58.142225,548.9760016999207,549.2750666998327,548.9760016999207,None,None,548.9760016999207,None,549.7752805898665,None,,,,22016,0002,2022_Oct_18_1521,localizer,2021.1.3,60.05901391904605,
block,faces,faces015.bmp,,,,,0,27,27,27,,,,,,,,,,,,,,,,,,,,,,,,,,,,,,,,,,,,,,,,,,None,,549.7752805898665,None,549.7752805898665,None,2022-10-18-15:29:58.944438,549.7930829999968,550.1086808999535,549.7930829999968,549.7930829999968,None,549.7930829999968,549.7930829999968,550.5920951898909,None,,,,22016,0002,2022_Oct_18_1521,localizer,2021.1.3,60.05901391904605,
block,faces,faces008.bmp,,,,,0,28,28,28,,,,,,,,,,,,,,,,,,,,,,,,,,,,,,,,,,,,,,,,,,None,,550.5920951898909,None,550.5920951898909,None,2022-10-18-15:29:59.759216,550.6038381999824,550.9081237998325,550.6038381999824,None,None,550.6038381999824,None,551.4080393900397,None,,,,22016,0002,2022_Oct_18_1521,localizer,2021.1.3,60.05901391904605,
block,faces,faces017.bmp,,,,,0,29,29,29,,,,,,,,,,,,,,,,,,,,,,,,,,,,,,,,,,,,,,,,,,None,,551.4080393900397,None,551.4080393900397,None,2022-10-18-15:30:00.575223,551.411899899831,551.7249522998463,551.411899899831,None,None,551.411899899831,None,552.2254740900128,None,,,,22016,0002,2022_Oct_18_1521,localizer,2021.1.3,60.05901391904605,
block_end,faces,faces009.bmp,,,,,0,30,30,30,,,,,,,,,,,,,,,,,,,,,,,,,,,,,,,,,,,,,,,,,,None,,552.2254740900128,None,552.2254740900128,None,2022-10-18-15:30:01.393563,552.2260565999895,552.5254050998483,552.2260565999895,None,None,552.2260565999895,None,553.0254095899174,None,,,,22016,0002,2022_Oct_18_1521,localizer,2021.1.3,60.05901391904605,
block_start,objects,objects044.bmp,,,,,0,31,31,31,,,,,,,,,,,,,,,,,,,,,,,,,,,,,,,,,,,,,,,,,,t,1.8008977000135928,553.0251565000508,None,553.0251565000508,None,2022-10-18-15:30:04.009033,554.8450857000425,555.1592333998997,554.8450857000425,None,None,554.8450857000425,None,555.6587571899174,None,,,,22016,0002,2022_Oct_18_1521,localizer,2021.1.3,60.05901391904605,
block,objects,objects042.bmp,,,,,0,32,32,32,,,,,,,,,,,,,,,,,,,,,,,,,,,,,,,,,,,,,,,,,,None,,555.6587571899174,None,555.6587571899174,None,2022-10-18-15:30:04.825837,555.6690145998728,555.975579699967,555.6690145998728,None,None,555.6690145998728,None,556.4756320898189,None,,,,22016,0002,2022_Oct_18_1521,localizer,2021.1.3,60.05901391904605,
block,objects,objects045.bmp,,,,,0,33,33,33,,,,,,,,,,,,,,,,,,,,,,,,,,,,,,,,,,,,,,,,,,None,,556.4756320898189,None,556.4756320898189,None,2022-10-18-15:30:05.643570,556.4761051000096,556.7754227998666,556.4761051000096,None,None,556.4761051000096,None,557.2757428900106,None,,,,22016,0002,2022_Oct_18_1521,localizer,2021.1.3,60.05901391904605,
block,objects,objects047.bmp,,,,,0,34,34,34,,,,,,,,,,,,,,,,,,,,,,,,,,,,,,,,,,,,,,,,,,None,,557.2757428900106,None,557.2757428900106,None,2022-10-18-15:30:06.445878,557.2787689999677,557.5917243999429,557.2787689999677,557.2787689999677,None,557.2787689999677,557.2787689999677,558.0921264900128,None,,,,22016,0002,2022_Oct_18_1521,localizer,2021.1.3,60.05901391904605,
block,objects,objects076.bmp,,,,,0,35,35,35,,,,,,,,,,,,,,,,,,,,,,,,,,,,,,,,,,,,,,,,,,None,,558.0921264900128,None,558.0921264900128,None,2022-10-18-15:30:07.259068,558.1019878999796,558.4088808998931,558.1019878999796,None,None,558.1019878999796,None,558.9087378898869,None,,,,22016,0002,2022_Oct_18_1521,localizer,2021.1.3,60.05901391904605,
block,objects,objects014.bmp,,,,,0,36,36,36,,,,,,,,,,,,,,,,,,,,,,,,,,,,,,,,,,,,,,,,,,None,,558.9087378898869,None,558.9087378898869,None,2022-10-18-15:30:08.075893,558.9093929999508,559.2086791999172,558.9093929999508,None,None,558.9093929999508,None,559.7087686899351,None,,,,22016,0002,2022_Oct_18_1521,localizer,2021.1.3,60.05901391904605,
block,objects,objects053.bmp,,,,,0,37,37,37,,,,,,,,,,,,,,,,,,,,,,,,,,,,,,,,,,,,,,,,,,None,,559.7087686899351,None,559.7087686899351,None,2022-10-18-15:30:08.877897,559.7204191999044,560.0253325998783,559.7204191999044,559.7204191999044,None,559.7204191999044,559.7204191999044,560.5256904898445,None,,,,22016,0002,2022_Oct_18_1521,localizer,2021.1.3,60.05901391904605,
block,objects,objects064.bmp,,,,,0,38,38,38,,,,,,,,,,,,,,,,,,,,,,,,,,,,,,,,,,,,,,,,,,None,,560.5256904898445,None,560.5256904898445,None,2022-10-18-15:30:09.693832,560.526176400017,560.8256302999798,560.526176400017,None,None,560.526176400017,None,561.3419454900315,None,,,,22016,0002,2022_Oct_18_1521,localizer,2021.1.3,60.05901391904605,
block,objects,objects039.bmp,,,,,0,39,39,39,,,,,,,,,,,,,,,,,,,,,,,,,,,,,,,,,,,,,,,,,,None,,561.3419454900315,None,561.3419454900315,None,2022-10-18-15:30:10.509311,561.3427152000368,561.6417997998651,561.3427152000368,None,None,561.3427152000368,None,562.1422853899887,None,,,,22016,0002,2022_Oct_18_1521,localizer,2021.1.3,60.05901391904605,
block,objects,objects009.bmp,,,,,0,40,40,40,,,,,,,,,,,,,,,,,,,,,,,,,,,,,,,,,,,,,,,,,,None,,562.1422853899887,None,562.1422853899887,None,2022-10-18-15:30:11.312032,562.155169100035,562.4583934999537,562.155169100035,562.155169100035,None,562.155169100035,562.155169100035,562.9585110898363,None,,,,22016,0002,2022_Oct_18_1521,localizer,2021.1.3,60.05901391904605,
block,objects,objects012.bmp,,,,,0,41,41,41,,,,,,,,,,,,,,,,,,,,,,,,,,,,,,,,,,,,,,,,,,None,,562.9585110898363,None,562.9585110898363,None,2022-10-18-15:30:12.125661,562.9696380000096,563.2753975000232,562.9696380000096,None,None,562.9696380000096,None,563.7764486900298,None,,,,22016,0002,2022_Oct_18_1521,localizer,2021.1.3,60.05901391904605,
block,objects,objects063.bmp,,,,,0,42,42,42,,,,,,,,,,,,,,,,,,,,,,,,,,,,,,,,,,,,,,,,,,None,,563.7764486900298,None,563.7764486900298,None,2022-10-18-15:30:12.945354,563.7794134998694,564.0923848999664,563.7794134998694,None,None,563.7794134998694,None,564.5925325899618,None,,,,22016,0002,2022_Oct_18_1521,localizer,2021.1.3,60.05901391904605,
block,objects,objects031.bmp,,,,,0,43,43,43,,,,,,,,,,,,,,,,,,,,,,,,,,,,,,,,,,,,,,,,,,None,,564.5925325899618,None,564.5925325899618,None,2022-10-18-15:30:13.760659,564.6041262999643,564.9088759999722,564.6041262999643,None,None,564.6041262999643,None,565.4089323898545,None,,,,22016,0002,2022_Oct_18_1521,localizer,2021.1.3,60.05901391904605,
block,objects,objects003.bmp,,,,,0,44,44,44,,,,,,,,,,,,,,,,,,,,,,,,,,,,,,,,,,,,,,,,,,None,,565.4089323898545,None,565.4089323898545,None,2022-10-18-15:30:14.576871,565.4197042000014,565.725503299851,565.4197042000014,None,None,565.4197042000014,None,566.225640189997,None,,,,22016,0002,2022_Oct_18_1521,localizer,2021.1.3,60.05901391904605,
block_end,objects,objects027.bmp,,,,,0,45,45,45,,,,,,,,,,,,,,,,,,,,,,,,,,,,,,,,,,,,,,,,,,None,,566.225640189997,None,566.225640189997,None,2022-10-18-15:30:15.393581,566.2353689998854,566.5417761998251,566.2353689998854,None,None,566.2353689998854,None,567.0419984899229,None,,,,22016,0002,2022_Oct_18_1521,localizer,2021.1.3,60.05901391904605,
block_start,scrambled,scrambled045.bmp,,,,,0,46,46,46,,,,,,,,,,,,,,,,,,,,,,,,,,,,,,,,,,,,,,,,,,t,1.7841638000681996,567.0419311998412,None,567.0419311998412,None,2022-10-18-15:30:18.008909,568.8521485999227,569.1586547000334,568.8521485999227,None,None,568.8521485999227,None,569.6588967900491,None,,,,22016,0002,2022_Oct_18_1521,localizer,2021.1.3,60.05901391904605,
block,scrambled,scrambled029.bmp,,,,,0,47,47,47,,,,,,,,,,,,,,,,,,,,,,,,,,,,,,,,,,,,,,,,,,None,,569.6588967900491,None,569.6588967900491,None,2022-10-18-15:30:18.825912,569.669619299937,569.9754249998368,569.669619299937,None,None,569.669619299937,None,570.4756022898248,None,,,,22016,0002,2022_Oct_18_1521,localizer,2021.1.3,60.05901391904605,
block,scrambled,scrambled032.bmp,,,,,0,48,48,48,,,,,,,,,,,,,,,,,,,,,,,,,,,,,,,,,,,,,,,,,,None,,570.4756022898248,None,570.4756022898248,None,2022-10-18-15:30:19.643639,570.4853476998396,570.7916237998288,570.4853476998396,None,None,570.4853476998396,None,571.2921188899084,None,,,,22016,0002,2022_Oct_18_1521,localizer,2021.1.3,60.05901391904605,
block,scrambled,scrambled075.bmp,,,,,0,49,49,49,,,,,,,,,,,,,,,,,,,,,,,,,,,,,,,,,,,,,,,,,,None,,571.2921188899084,None,571.2921188899084,None,2022-10-18-15:30:20.460057,571.2987780999392,571.6096510998905,571.2987780999392,None,None,571.2987780999392,None,572.1089967898326,None,,,,22016,0002,2022_Oct_18_1521,localizer,2021.1.3,60.05901391904605,
block,scrambled,scrambled066.bmp,,,,,0,50,50,50,,,,,,,,,,,,,,,,,,,,,,,,,,,,,,,,,,,,,,,,,,None,,572.1089967898326,None,572.1089967898326,None,2022-10-18-15:30:21.277139,572.1094171998557,572.4092136998661,572.1094171998557,None,None,572.1094171998557,None,572.909233390051,None,,,,22016,0002,2022_Oct_18_1521,localizer,2021.1.3,60.05901391904605,
block,scrambled,scrambled077.bmp,,,,,0,51,51,51,,,,,,,,,,,,,,,,,,,,,,,,,,,,,,,,,,,,,,,,,,None,,572.909233390051,None,572.909233390051,None,2022-10-18-15:30:22.079092,572.9241067999974,573.2259347999934,572.9241067999974,572.9241067999974,None,572.9241067999974,572.9241067999974,573.7259530899348,None,,,,22016,0002,2022_Oct_18_1521,localizer,2021.1.3,60.05901391904605,
block,scrambled,scrambled048.bmp,,,,,0,52,52,52,,,,,,,,,,,,,,,,,,,,,,,,,,,,,,,,,,,,,,,,,,None,,573.7259530899348,None,573.7259530899348,None,2022-10-18-15:30:22.893886,573.7278229000513,574.0424962998368,573.7278229000513,None,None,573.7278229000513,None,574.5427980899578,None,,,,22016,0002,2022_Oct_18_1521,localizer,2021.1.3,60.05901391904605,
block,scrambled,scrambled067.bmp,,,,,0,53,53,53,,,,,,,,,,,,,,,,,,,,,,,,,,,,,,,,,,,,,,,,,,None,,574.5427980899578,None,574.5427980899578,None,2022-10-18-15:30:23.710711,574.5501556999516,574.8600518000312,574.5501556999516,None,None,574.5501556999516,None,575.3588796899887,None,,,,22016,0002,2022_Oct_18_1521,localizer,2021.1.3,60.05901391904605,
block,scrambled,scrambled052.bmp,,,,,0,54,54,54,,,,,,,,,,,,,,,,,,,,,,,,,,,,,,,,,,,,,,,,,,None,,575.3588796899887,None,575.3588796899887,None,2022-10-18-15:30:24.526006,575.3596448998433,575.6588470998686,575.3596448998433,None,None,575.3596448998433,None,576.1589154898422,None,,,,22016,0002,2022_Oct_18_1521,localizer,2021.1.3,60.05901391904605,
block,scrambled,scrambled060.bmp,,,,,0,55,55,55,,,,,,,,,,,,,,,,,,,,,,,,,,,,,,,,,,,,,,,,,,None,,576.1589154898422,None,576.1589154898422,None,2022-10-18-15:30:25.328071,576.1712195998989,576.4755512999836,576.1712195998989,576.1712195998989,None,576.1712195998989,576.1712195998989,576.9752841898473,None,,,,22016,0002,2022_Oct_18_1521,localizer,2021.1.3,60.05901391904605,
block,scrambled,scrambled020.bmp,,,,,0,56,56,56,,,,,,,,,,,,,,,,,,,,,,,,,,,,,,,,,,,,,,,,,,None,,576.9752841898473,None,576.9752841898473,None,2022-10-18-15:30:26.142476,576.9760916000232,577.2752290999051,576.9760916000232,None,None,576.9760916000232,None,577.7756268898258,None,,,,22016,0002,2022_Oct_18_1521,localizer,2021.1.3,60.05901391904605,
block,scrambled,scrambled011.bmp,,,,,0,57,57,57,,,,,,,,,,,,,,,,,,,,,,,,,,,,,,,,,,,,,,,,,,None,,577.7756268898258,None,577.7756268898258,None,2022-10-18-15:30:26.943770,577.7775387000293,578.0921710999683,577.7775387000293,577.7775387000293,None,577.7775387000293,577.7775387000293,578.5924172898988,None,,,,22016,0002,2022_Oct_18_1521,localizer,2021.1.3,60.05901391904605,
block,scrambled,scrambled063.bmp,,,,,0,58,58,58,,,,,,,,,,,,,,,,,,,,,,,,,,,,,,,,,,,,,,,,,,None,,578.5924172898988,None,578.5924172898988,None,2022-10-18-15:30:27.760355,578.5929219999816,578.9083147000056,578.5929219999816,None,None,578.5929219999816,None,579.39239078986,None,,,,22016,0002,2022_Oct_18_1521,localizer,2021.1.3,60.05901391904605,
block,scrambled,scrambled056.bmp,,,,,0,59,59,59,,,,,,,,,,,,,,,,,,,,,,,,,,,,,,,,,,,,,,,,,,None,,579.39239078986,None,579.39239078986,None,2022-10-18-15:30:28.561372,579.398613799829,579.7089525999036,579.398613799829,579.398613799829,None,579.398613799829,579.398613799829,580.2098866898334,None,,,,22016,0002,2022_Oct_18_1521,localizer,2021.1.3,60.05901391904605,
block_end,scrambled,scrambled064.bmp,,,,,0,60,60,60,,,,,,,,,,,,,,,,,,,,,,,,,,,,,,,,,,,,,,,,,,None,,580.2098866898334,None,580.2098866898334,None,2022-10-18-15:30:29.378932,580.223515599966,580.5252495999448,580.223515599966,None,None,580.223515599966,None,581.0256148899673,None,,,,22016,0002,2022_Oct_18_1521,localizer,2021.1.3,60.05901391904605,
null_block,null_block,null_block.bmp,,,,,0,61,61,61,,,,,,,,,,,,,,,,,,,,,,,,,,,,,,,,,,,,,,,,,,t,1.8009709001053125,581.0253949000034,None,581.0253949000034,None,2022-10-18-15:30:32.010644,582.8426359900507,None,582.8426359900507,None,None,582.8426359900507,None,582.8483916998375,None,,,,22016,0002,2022_Oct_18_1521,localizer,2021.1.3,60.05901391904605,
block_start,objects,objects037.bmp,,,,,0,62,62,62,,,,,,,,,,,,,,,,,,,,,,,,,,,,,,,,,,,,,,,,,,t,1.9668606000486761,594.8592612999491,None,594.8592612999491,None,2022-10-18-15:30:46.012590,596.8453526999801,597.1590787998866,596.8453526999801,None,None,596.8453526999801,None,597.6444777899189,None,,,,22016,0002,2022_Oct_18_1521,localizer,2021.1.3,60.05901391904605,
block,objects,objects076.bmp,,,,,0,63,63,63,,,,,,,,,,,,,,,,,,,,,,,,,,,,,,,,,,,,,,,,,,None,,597.6444777899189,None,597.6444777899189,None,2022-10-18-15:30:46.818569,597.6521892000455,597.9592533998657,597.6521892000455,597.6521892000455,None,597.6521892000455,597.6521892000455,598.4594723898219,None,,,,22016,0002,2022_Oct_18_1521,localizer,2021.1.3,60.05901391904605,
block,objects,objects083.bmp,,,,,0,64,64,64,,,,,,,,,,,,,,,,,,,,,,,,,,,,,,,,,,,,,,,,,,None,,598.4594723898219,None,598.4594723898219,None,2022-10-18-15:30:47.627388,598.4709399000276,598.7755374999251,598.4709399000276,None,None,598.4709399000276,None,599.2757065898506,None,,,,22016,0002,2022_Oct_18_1521,localizer,2021.1.3,60.05901391904605,
block,objects,objects068.bmp,,,,,0,65,65,65,,,,,,,,,,,,,,,,,,,,,,,,,,,,,,,,,,,,,,,,,,None,,599.2757065898506,None,599.2757065898506,None,2022-10-18-15:30:48.443616,599.2865202999674,599.5922401999123,599.2865202999674,None,None,599.2865202999674,None,600.0923710900126,None,,,,22016,0002,2022_Oct_18_1521,localizer,2021.1.3,60.05901391904605,
block,objects,objects055.bmp,,,,,0,66,66,66,,,,,,,,,,,,,,,,,,,,,,,,,,,,,,,,,,,,,,,,,,None,,600.0923710900126,None,600.0923710900126,None,2022-10-18-15:30:49.259295,600.0929825999774,600.3924226998352,600.0929825999774,None,None,600.0929825999774,None,600.8923187900102,None,,,,22016,0002,2022_Oct_18_1521,localizer,2021.1.3,60.05901391904605,
block,objects,objects051.bmp,,,,,0,67,67,67,,,,,,,,,,,,,,,,,,,,,,,,,,,,,,,,,,,,,,,,,,None,,600.8923187900102,None,600.8923187900102,None,2022-10-18-15:30:50.061253,600.9042239000555,601.2089078000281,600.9042239000555,600.9042239000555,None,600.9042239000555,600.9042239000555,601.7090063899989,None,,,,22016,0002,2022_Oct_18_1521,localizer,2021.1.3,60.05901391904605,
block,objects,objects028.bmp,,,,,0,68,68,68,,,,,,,,,,,,,,,,,,,,,,,,,,,,,,,,,,,,,,,,,,None,,601.7090063899989,None,601.7090063899989,None,2022-10-18-15:30:50.876189,601.7096518999897,602.0093660999555,601.7096518999897,None,None,601.7096518999897,None,602.5096648898209,None,,,,22016,0002,2022_Oct_18_1521,localizer,2021.1.3,60.05901391904605,
block,objects,objects062.bmp,,,,,0,69,69,69,,,,,,,,,,,,,,,,,,,,,,,,,,,,,,,,,,,,,,,,,,None,,602.5096648898209,None,602.5096648898209,None,2022-10-18-15:30:51.680772,602.5137469000183,602.8260961999185,602.5137469000183,602.5137469000183,None,602.5137469000183,602.5137469000183,603.3261819900247,None,,,,22016,0002,2022_Oct_18_1521,localizer,2021.1.3,60.05901391904605,
block,objects,objects045.bmp,,,,,0,70,70,70,,,,,,,,,,,,,,,,,,,,,,,,,,,,,,,,,,,,,,,,,,None,,603.3261819900247,None,603.3261819900247,None,2022-10-18-15:30:52.494311,603.3267923998646,603.6422702998389,603.3267923998646,None,None,603.3267923998646,None,604.1262538900367,None,,,,22016,0002,2022_Oct_18_1521,localizer,2021.1.3,60.05901391904605,
block,objects,objects039.bmp,,,,,0,71,71,71,,,,,,,,,,,,,,,,,,,,,,,,,,,,,,,,,,,,,,,,,,None,,604.1262538900367,None,604.1262538900367,None,2022-10-18-15:30:53.297103,604.1308567000087,604.4427402999718,604.1308567000087,604.1308567000087,None,604.1308567000087,604.1308567000087,604.9428071900504,None,,,,22016,0002,2022_Oct_18_1521,localizer,2021.1.3,60.05901391904605,
block,objects,objects035.bmp,,,,,0,72,72,72,,,,,,,,,,,,,,,,,,,,,,,,,,,,,,,,,,,,,,,,,,None,,604.9428071900504,None,604.9428071900504,None,2022-10-18-15:30:54.110831,604.9535009998363,605.2589203000534,604.9535009998363,None,None,604.9535009998363,None,605.7593102899148,None,,,,22016,0002,2022_Oct_18_1521,localizer,2021.1.3,60.05901391904605,
block,objects,objects002.bmp,,,,,0,73,73,73,,,,,,,,,,,,,,,,,,,,,,,,,,,,,,,,,,,,,,,,,,None,,605.7593102899148,None,605.7593102899148,None,2022-10-18-15:30:54.927250,605.7701152998488,606.0755932000466,605.7701152998488,None,None,605.7701152998488,None,606.5758693899727,None,,,,22016,0002,2022_Oct_18_1521,localizer,2021.1.3,60.05901391904605,
block,objects,objects016.bmp,,,,,0,74,74,74,,,,,,,,,,,,,,,,,,,,,,,,,,,,,,,,,,,,,,,,,,None,,606.5758693899727,None,606.5758693899727,None,2022-10-18-15:30:55.743007,606.586807299871,606.8923021999653,606.586807299871,None,None,606.586807299871,None,607.392764490028,None,,,,22016,0002,2022_Oct_18_1521,localizer,2021.1.3,60.05901391904605,
block,objects,objects038.bmp,,,,,0,75,75,75,,,,,,,,,,,,,,,,,,,,,,,,,,,,,,,,,,,,,,,,,,None,,607.392764490028,None,607.392764490028,None,2022-10-18-15:30:56.561649,607.4057777000125,607.7093276998494,607.4057777000125,None,None,607.4057777000125,None,608.2094125898323,None,,,,22016,0002,2022_Oct_18_1521,localizer,2021.1.3,60.05901391904605,
block_end,objects,objects021.bmp,,,,,0,76,76,76,,,,,,,,,,,,,,,,,,,,,,,,,,,,,,,,,,,,,,,,,,None,,608.2094125898323,None,608.2094125898323,None,2022-10-18-15:30:57.377332,608.2100408000406,608.5093262000009,608.2100408000406,None,None,608.2100408000406,None,609.0258671798279,None,,,,22016,0002,2022_Oct_18_1521,localizer,2021.1.3,60.05901391904605,
block_start,faces,faces036.bmp,,,,,0,77,77,77,,,,,,,,,,,,,,,,,,,,,,,,,,,,,,,,,,,,,,,,,,t,1.7913164999336004,609.0336728000548,None,609.0336728000548,None,2022-10-18-15:31:00.010952,610.8455521999858,611.1589772000443,610.8455521999858,None,None,610.8455521999858,None,611.6596059898613,None,,,,22016,0002,2022_Oct_18_1521,localizer,2021.1.3,60.05901391904605,
block,faces,faces008.bmp,,,,,0,78,78,78,,,,,,,,,,,,,,,,,,,,,,,,,,,,,,,,,,,,,,,,,,None,,611.6596059898613,None,611.6596059898613,None,2022-10-18-15:31:00.827539,611.6602771999314,611.9593750999775,611.6602771999314,None,None,611.6602771999314,None,612.4593947899295,None,,,,22016,0002,2022_Oct_18_1521,localizer,2021.1.3,60.05901391904605,
block,faces,faces033.bmp,,,,,0,79,79,79,,,,,,,,,,,,,,,,,,,,,,,,,,,,,,,,,,,,,,,,,,None,,612.4593947899295,None,612.4593947899295,None,2022-10-18-15:31:01.629525,612.4625796999317,612.7761706998572,612.4625796999317,612.4625796999317,None,612.4625796999317,612.4625796999317,613.2759572900134,None,,,,22016,0002,2022_Oct_18_1521,localizer,2021.1.3,60.05901391904605,
block,faces,faces046.bmp,,,,,0,80,80,80,,,,,,,,,,,,,,,,,,,,,,,,,,,,,,,,,,,,,,,,,,None,,613.2759572900134,None,613.2759572900134,None,2022-10-18-15:31:02.443112,613.2764069999103,613.5757992998697,613.2764069999103,None,None,613.2764069999103,None,614.0757604899584,None,,,,22016,0002,2022_Oct_18_1521,localizer,2021.1.3,60.05901391904605,
block,faces,faces081.bmp,,,,,0,81,81,81,,,,,,,,,,,,,,,,,,,,,,,,,,,,,,,,,,,,,,,,,,None,,614.0757604899584,None,614.0757604899584,None,2022-10-18-15:31:03.245635,614.0886397999711,614.3924102999736,614.0886397999711,614.0886397999711,None,614.0886397999711,614.0886397999711,614.8926364899846,None,,,,22016,0002,2022_Oct_18_1521,localizer,2021.1.3,60.05901391904605,
block,faces,faces037.bmp,,,,,0,82,82,82,,,,,,,,,,,,,,,,,,,,,,,,,,,,,,,,,,,,,,,,,,None,,614.8926364899846,None,614.8926364899846,None,2022-10-18-15:31:04.060574,614.8931640998926,615.1925556999631,614.8931640998926,None,None,614.8931640998926,None,615.6926522899187,None,,,,22016,0002,2022_Oct_18_1521,localizer,2021.1.3,60.05901391904605,
block,faces,faces007.bmp,,,,,0,83,83,83,,,,,,,,,,,,,,,,,,,,,,,,,,,,,,,,,,,,,,,,,,None,,615.6926522899187,None,615.6926522899187,None,2022-10-18-15:31:04.862587,615.6956107998267,616.0092249000445,615.6956107998267,615.6956107998267,None,615.6956107998267,615.6956107998267,616.5093931899639,None,,,,22016,0002,2022_Oct_18_1521,localizer,2021.1.3,60.05901391904605,
block,faces,faces034.bmp,,,,,0,84,84,84,,,,,,,,,,,,,,,,,,,,,,,,,,,,,,,,,,,,,,,,,,None,,616.5093931899639,None,616.5093931899639,None,2022-10-18-15:31:05.676370,616.5201124998275,616.8256756998599,616.5201124998275,None,None,616.5201124998275,None,617.3258887898876,None,,,,22016,0002,2022_Oct_18_1521,localizer,2021.1.3,60.05901391904605,
block,faces,faces004.bmp,,,,,0,85,85,85,,,,,,,,,,,,,,,,,,,,,,,,,,,,,,,,,,,,,,,,,,None,,617.3258887898876,None,617.3258887898876,None,2022-10-18-15:31:06.492830,617.3403133000247,617.6422504999209,617.3403133000247,None,None,617.3403133000247,None,618.142486989894,None,,,,22016,0002,2022_Oct_18_1521,localizer,2021.1.3,60.05901391904605,
block,faces,faces012.bmp,,,,,0,86,86,86,,,,,,,,,,,,,,,,,,,,,,,,,,,,,,,,,,,,,,,,,,None,,618.142486989894,None,618.142486989894,None,2022-10-18-15:31:07.309636,618.1431972000282,618.4425866999663,618.1431972000282,None,None,618.1431972000282,None,618.9588308899431,None,,,,22016,0002,2022_Oct_18_1521,localizer,2021.1.3,60.05901391904605,
block,faces,faces089.bmp,,,,,0,87,87,87,,,,,,,,,,,,,,,,,,,,,,,,,,,,,,,,,,,,,,,,,,None,,618.9588308899431,None,618.9588308899431,None,2022-10-18-15:31:08.125782,618.9640253998805,619.2758375999983,618.9640253998805,None,None,618.9640253998805,None,619.7759529898642,None,,,,22016,0002,2022_Oct_18_1521,localizer,2021.1.3,60.05901391904605,
block,faces,faces083.bmp,,,,,0,88,88,88,,,,,,,,,,,,,,,,,,,,,,,,,,,,,,,,,,,,,,,,,,None,,619.7759529898642,None,619.7759529898642,None,2022-10-18-15:31:08.943018,619.7767191999592,620.0760178999044,619.7767191999592,None,None,619.7767191999592,None,620.5759565899382,None,,,,22016,0002,2022_Oct_18_1521,localizer,2021.1.3,60.05901391904605,
block,faces,faces054.bmp,,,,,0,89,89,89,,,,,,,,,,,,,,,,,,,,,,,,,,,,,,,,,,,,,,,,,,None,,620.5759565899382,None,620.5759565899382,None,2022-10-18-15:31:09.745890,620.5787688998971,620.8927164999768,620.5787688998971,620.5787688998971,None,620.5787688998971,620.5787688998971,621.3913092898904,None,,,,22016,0002,2022_Oct_18_1521,localizer,2021.1.3,60.05901391904605,
block,faces,faces015.bmp,,,,,0,90,90,90,,,,,,,,,,,,,,,,,,,,,,,,,,,,,,,,,,,,,,,,,,None,,621.3913092898904,None,621.3913092898904,None,2022-10-18-15:31:10.557097,621.3925894999411,621.6930318998639,621.3925894999411,None,None,621.3925894999411,None,622.1938868900063,None,,,,22016,0002,2022_Oct_18_1521,localizer,2021.1.3,60.05901391904605,
block_end,faces,faces044.bmp,,,,,0,91,91,91,,,,,,,,,,,,,,,,,,,,,,,,,,,,,,,,,,,,,,,,,,None,,622.1938868900063,None,622.1938868900063,None,2022-10-18-15:31:11.366862,622.2120975998696,622.5256513999775,622.2120975998696,622.2120975998696,None,622.2120975998696,622.2120975998696,623.0135155899218,None,,,,22016,0002,2022_Oct_18_1521,localizer,2021.1.3,60.05901391904605,
block_start,scenes,scenes016.bmp,,,,,0,92,92,92,,,,,,,,,,,,,,,,,,,,,,,,,,,,,,,,,,,,,,,,,,t,1.8149479001294822,623.0100901999976,None,623.0100901999976,None,2022-10-18-15:31:14.009727,624.8431517998688,625.1426752998959,624.8431517998688,None,None,624.8431517998688,None,625.6424378898694,None,,,,22016,0002,2022_Oct_18_1521,localizer,2021.1.3,60.05901391904605,
block,scenes,scenes073.bmp,,,,,0,93,93,93,,,,,,,,,,,,,,,,,,,,,,,,,,,,,,,,,,,,,,,,,,None,,625.6424378898694,None,625.6424378898694,None,2022-10-18-15:31:14.811378,625.6555480000097,625.9590175999328,625.6555480000097,625.6555480000097,None,625.6555480000097,625.6555480000097,626.4592462898465,None,,,,22016,0002,2022_Oct_18_1521,localizer,2021.1.3,60.05901391904605,
block,scenes,scenes081.bmp,,,,,0,94,94,94,,,,,,,,,,,,,,,,,,,,,,,,,,,,,,,,,,,,,,,,,,None,,626.4592462898465,None,626.4592462898465,None,2022-10-18-15:31:15.626187,626.4601920999121,626.7757850999478,626.4601920999121,None,None,626.4601920999121,None,627.2611153900391,None,,,,22016,0002,2022_Oct_18_1521,localizer,2021.1.3,60.05901391904605,
block,scenes,scenes079.bmp,,,,,0,95,95,95,,,,,,,,,,,,,,,,,,,,,,,,,,,,,,,,,,,,,,,,,,None,,627.2611153900391,None,627.2611153900391,None,2022-10-18-15:31:16.433957,627.2683108998463,627.5755936000496,627.2683108998463,627.2683108998463,None,627.2683108998463,627.2683108998463,628.0760705898749,None,,,,22016,0002,2022_Oct_18_1521,localizer,2021.1.3,60.05901391904605,
block,scenes,scenes010.bmp,,,,,0,96,96,96,,,,,,,,,,,,,,,,,,,,,,,,,,,,,,,,,,,,,,,,,,None,,628.0760705898749,None,628.0760705898749,None,2022-10-18-15:31:17.243009,628.0870022999588,628.3925963998772,628.0870022999588,None,None,628.0870022999588,None,628.8919565900462,None,,,,22016,0002,2022_Oct_18_1521,localizer,2021.1.3,60.05901391904605,
block,scenes,scenes091.bmp,,,,,0,97,97,97,,,,,,,,,,,,,,,,,,,,,,,,,,,,,,,,,,,,,,,,,,None,,628.8919565900462,None,628.8919565900462,None,2022-10-18-15:31:18.058910,628.8933240999468,629.2089350000024,628.8933240999468,None,None,628.8933240999468,None,629.6924999900396,None,,,,22016,0002,2022_Oct_18_1521,localizer,2021.1.3,60.05901391904605,
block,scenes,scenes031.bmp,,,,,0,98,98,98,,,,,,,,,,,,,,,,,,,,,,,,,,,,,,,,,,,,,,,,,,None,,629.6924999900396,None,629.6924999900396,None,2022-10-18-15:31:18.861570,629.6951361999381,630.0089505000506,629.6951361999381,629.6951361999381,None,629.6951361999381,629.6951361999381,630.5092055899324,None,,,,22016,0002,2022_Oct_18_1521,localizer,2021.1.3,60.05901391904605,
block,scenes,scenes044.bmp,,,,,0,99,99,99,,,,,,,,,,,,,,,,,,,,,,,,,,,,,,,,,,,,,,,,,,None,,630.5092055899324,None,630.5092055899324,None,2022-10-18-15:31:19.676150,630.5100509000476,630.8091480999719,630.5100509000476,None,None,630.5100509000476,None,631.3092701900052,None,,,,22016,0002,2022_Oct_18_1521,localizer,2021.1.3,60.05901391904605,
block,scenes,scenes061.bmp,,,,,0,100,100,100,,,,,,,,,,,,,,,,,,,,,,,,,,,,,,,,,,,,,,,,,,None,,631.3092701900052,None,631.3092701900052,None,2022-10-18-15:31:20.478424,631.3120585000142,631.6256696998607,631.3120585000142,631.3120585000142,None,631.3120585000142,631.3120585000142,632.1260047898861,None,,,,22016,0002,2022_Oct_18_1521,localizer,2021.1.3,60.05901391904605,
block,scenes,scenes089.bmp,,,,,0,101,101,101,,,,,,,,,,,,,,,,,,,,,,,,,,,,,,,,,,,,,,,,,,None,,632.1260047898861,None,632.1260047898861,None,2022-10-18-15:31:21.293058,632.1325674999971,632.4428518998902,632.1325674999971,None,None,632.1325674999971,None,632.9431205898757,None,,,,22016,0002,2022_Oct_18_1521,localizer,2021.1.3,60.05901391904605,
block,scenes,scenes023.bmp,,,,,0,102,102,102,,,,,,,,,,,,,,,,,,,,,,,,,,,,,,,,,,,,,,,,,,None,,632.9431205898757,None,632.9431205898757,None,2022-10-18-15:31:22.111053,632.9547466000076,633.259096799884,632.9547466000076,None,None,632.9547466000076,None,633.7591446900508,None,,,,22016,0002,2022_Oct_18_1521,localizer,2021.1.3,60.05901391904605,
block,scenes,scenes022.bmp,,,,,0,103,103,103,,,,,,,,,,,,,,,,,,,,,,,,,,,,,,,,,,,,,,,,,,None,,633.7591446900508,None,633.7591446900508,None,2022-10-18-15:31:22.926087,633.7599688000046,634.0590093999635,633.7599688000046,None,None,633.7599688000046,None,634.5591793900123,None,,,,22016,0002,2022_Oct_18_1521,localizer,2021.1.3,60.05901391904605,
block,scenes,scenes050.bmp,,,,,0,104,104,104,,,,,,,,,,,,,,,,,,,,,,,,,,,,,,,,,,,,,,,,,,None,,634.5591793900123,None,634.5591793900123,None,2022-10-18-15:31:23.728345,634.5714590998832,634.8758843999822,634.5714590998832,634.5714590998832,None,634.5714590998832,634.5714590998832,635.3760346899974,None,,,,22016,0002,2022_Oct_18_1521,localizer,2021.1.3,60.05901391904605,
block,scenes,scenes046.bmp,,,,,0,105,105,105,,,,,,,,,,,,,,,,,,,,,,,,,,,,,,,,,,,,,,,,,,None,,635.3760346899974,None,635.3760346899974,None,2022-10-18-15:31:24.543147,635.3765807000455,635.6757485000417,635.3765807000455,None,None,635.3765807000455,None,636.1760413899785,None,,,,22016,0002,2022_Oct_18_1521,localizer,2021.1.3,60.05901391904605,
block_end,scenes,scenes054.bmp,,,,,0,106,106,106,,,,,,,,,,,,,,,,,,,,,,,,,,,,,,,,,,,,,,,,,,None,,636.1760413899785,None,636.1760413899785,None,2022-10-18-15:31:25.346185,636.1791439999361,636.4925156999379,636.1791439999361,636.1791439999361,None,636.1791439999361,636.1791439999361,636.992881189962,None,,,,22016,0002,2022_Oct_18_1521,localizer,2021.1.3,60.05901391904605,
block_start,scrambled,scrambled075.bmp,,,,,0,107,107,107,,,,,,,,,,,,,,,,,,,,,,,,,,,,,,,,,,,,,,,,,,t,1.832373300101608,636.9926727998536,None,636.9926727998536,None,2022-10-18-15:31:28.010859,638.8450348998886,639.158930900041,638.8450348998886,None,None,638.8450348998886,None,639.6593979899073,None,,,,22016,0002,2022_Oct_18_1521,localizer,2021.1.3,60.05901391904605,
block,scrambled,scrambled056.bmp,,,,,0,108,108,108,,,,,,,,,,,,,,,,,,,,,,,,,,,,,,,,,,,,,,,,,,None,,639.6593979899073,None,639.6593979899073,None,2022-10-18-15:31:28.826537,639.66005639988,639.9592952998355,639.66005639988,None,None,639.66005639988,None,640.4594245899236,None,,,,22016,0002,2022_Oct_18_1521,localizer,2021.1.3,60.05901391904605,
block,scrambled,scrambled076.bmp,,,,,0,109,109,109,,,,,,,,,,,,,,,,,,,,,,,,,,,,,,,,,,,,,,,,,,None,,640.4594245899236,None,640.4594245899236,None,2022-10-18-15:31:29.628573,640.4730370999314,640.775709599955,640.4730370999314,640.4730370999314,None,640.4730370999314,640.4730370999314,641.2768052899512,None,,,,22016,0002,2022_Oct_18_1521,localizer,2021.1.3,60.05901391904605,
block,scrambled,scrambled072.bmp,,,,,0,110,110,110,,,,,,,,,,,,,,,,,,,,,,,,,,,,,,,,,,,,,,,,,,None,,641.2768052899512,None,641.2768052899512,None,2022-10-18-15:31:30.444718,641.2892473998945,641.5923877998721,641.2892473998945,None,None,641.2892473998945,None,642.0927409899189,None,,,,22016,0002,2022_Oct_18_1521,localizer,2021.1.3,60.05901391904605,
block,scrambled,scrambled067.bmp,,,,,0,111,111,111,,,,,,,,,,,,,,,,,,,,,,,,,,,,,,,,,,,,,,,,,,None,,642.0927409899189,None,642.0927409899189,None,2022-10-18-15:31:31.259910,642.0933381998911,642.3921749999281,642.0933381998911,None,None,642.0933381998911,None,642.892378990003,None,,,,22016,0002,2022_Oct_18_1521,localizer,2021.1.3,60.05901391904605,
block,scrambled,scrambled027.bmp,,,,,0,112,112,112,,,,,,,,,,,,,,,,,,,,,,,,,,,,,,,,,,,,,,,,,,None,,642.892378990003,None,642.892378990003,None,2022-10-18-15:31:32.060598,642.9010912999511,643.2090902999043,642.9010912999511,642.9010912999511,None,642.9010912999511,642.9010912999511,643.7101198899793,None,,,,22016,0002,2022_Oct_18_1521,localizer,2021.1.3,60.05901391904605,
block,scrambled,scrambled063.bmp,,,,,0,113,113,113,,,,,,,,,,,,,,,,,,,,,,,,,,,,,,,,,,,,,,,,,,None,,643.7101198899793,None,643.7101198899793,None,2022-10-18-15:31:32.879139,643.7131278000306,644.0262076999061,643.7131278000306,None,None,643.7131278000306,None,644.5263006898342,None,,,,22016,0002,2022_Oct_18_1521,localizer,2021.1.3,60.05901391904605,
block,scrambled,scrambled034.bmp,,,,,0,114,114,114,,,,,,,,,,,,,,,,,,,,,,,,,,,,,,,,,,,,,,,,,,None,,644.5263006898342,None,644.5263006898342,None,2022-10-18-15:31:33.694426,644.5371077999007,644.8426470998675,644.5371077999007,None,None,644.5371077999007,None,645.3428472899134,None,,,,22016,0002,2022_Oct_18_1521,localizer,2021.1.3,60.05901391904605,
block,scrambled,scrambled088.bmp,,,,,0,115,115,115,,,,,,,,,,,,,,,,,,,,,,,,,,,,,,,,,,,,,,,,,,None,,645.3428472899134,None,645.3428472899134,None,2022-10-18-15:31:34.510002,645.343366399873,645.6425201999955,645.343366399873,None,None,645.343366399873,None,646.142461090046,None,,,,22016,0002,2022_Oct_18_1521,localizer,2021.1.3,60.05901391904605,
block,scrambled,scrambled013.bmp,,,,,0,116,116,116,,,,,,,,,,,,,,,,,,,,,,,,,,,,,,,,,,,,,,,,,,None,,646.142461090046,None,646.142461090046,None,2022-10-18-15:31:35.312601,646.145550499903,646.4592521998566,646.145550499903,646.145550499903,None,646.145550499903,646.145550499903,646.9594233899145,None,,,,22016,0002,2022_Oct_18_1521,localizer,2021.1.3,60.05901391904605,
block,scrambled,scrambled036.bmp,,,,,0,117,117,117,,,,,,,,,,,,,,,,,,,,,,,,,,,,,,,,,,,,,,,,,,None,,646.9594233899145,None,646.9594233899145,None,2022-10-18-15:31:36.126368,646.9691157999914,647.2759926000144,646.9691157999914,None,y,646.9691157999914,None,647.7771705898224,None,0.47484529996290803,,,22016,0002,2022_Oct_18_1521,localizer,2021.1.3,60.05901391904605,
block,scrambled,scrambled058.bmp,,,,,0,118,118,118,,,,,,,,,,,,,,,,,,,,,,,,,,,,,,,,,,,,,,,,,,None,,647.7771705898224,None,647.7771705898224,None,2022-10-18-15:31:36.947246,647.7908466998488,648.0922032999806,647.7908466998488,None,None,647.7908466998488,None,648.5986651898595,None,,,,22016,0002,2022_Oct_18_1521,localizer,2021.1.3,60.05901391904605,
block,scrambled,scrambled016.bmp,,,,,0,119,119,119,,,,,,,,,,,,,,,,,,,,,,,,,,,,,,,,,,,,,,,,,,None,,648.5986651898595,None,648.5986651898595,None,2022-10-18-15:31:37.773576,648.6146690000314,648.9257540998515,648.6146690000314,None,None,648.6146690000314,None,649.4089163899655,None,,,,22016,0002,2022_Oct_18_1521,localizer,2021.1.3,60.05901391904605,
block,scrambled,scrambled023.bmp,,,,,0,120,120,120,,,,,,,,,,,,,,,,,,,,,,,,,,,,,,,,,,,,,,,,,,None,,649.4089163899655,None,649.4089163899655,None,2022-10-18-15:31:38.575869,649.4101654000115,649.7256344999187,649.4101654000115,None,None,649.4101654000115,None,650.2096965898993,None,,,,22016,0002,2022_Oct_18_1521,localizer,2021.1.3,60.05901391904605,
block_end,scrambled,scrambled023.bmp,,,,,0,121,121,121,,,,,,,,,,,,,,,,,,,,,,,,,,,,,,,,,,,,,,,,,,None,,650.2096965898993,None,650.2096965898993,None,2022-10-18-15:31:39.379813,650.2120189999696,650.526094699977,650.2120189999696,650.2120189999696,y,650.2120189999696,650.2120189999696,651.0258856899338,None,0.6547225001268089,,,22016,0002,2022_Oct_18_1521,localizer,2021.1.3,60.05901391904605,
block_start,objects,objects009.bmp,,,,,0,122,122,122,,,,,,,,,,,,,,,,,,,,,,,,,,,,,,,,,,,,,,,,,,t,1.7995120999403298,651.0257625998929,None,651.0257625998929,None,2022-10-18-15:31:42.010741,652.8445435999893,653.1597857000306,652.8445435999893,None,None,652.8445435999893,None,653.659886389901,None,,,,22016,0002,2022_Oct_18_1521,localizer,2021.1.3,60.05901391904605,
block,objects,objects011.bmp,,,,,0,123,123,123,,,,,,,,,,,,,,,,,,,,,,,,,,,,,,,,,,,,,,,,,,None,,653.659886389901,None,653.659886389901,None,2022-10-18-15:31:42.827979,653.6620300998911,653.9764085998759,653.6620300998911,None,None,653.6620300998911,None,654.4764135898324,None,,,,22016,0002,2022_Oct_18_1521,localizer,2021.1.3,60.05901391904605,
block,objects,objects010.bmp,,,,,0,124,124,124,,,,,,,,,,,,,,,,,,,,,,,,,,,,,,,,,,,,,,,,,,None,,654.4764135898324,None,654.4764135898324,None,2022-10-18-15:31:43.644533,654.4785835999064,654.793096399866,654.4785835999064,None,None,654.4785835999064,None,655.2932905898663,None,,,,22016,0002,2022_Oct_18_1521,localizer,2021.1.3,60.05901391904605,
block,objects,objects067.bmp,,,,,0,125,125,125,,,,,,,,,,,,,,,,,,,,,,,,,,,,,,,,,,,,,,,,,,None,,655.2932905898663,None,655.2932905898663,None,2022-10-18-15:31:44.461425,655.2956260000356,655.6096548000351,655.2956260000356,None,None,655.2956260000356,None,656.1098319899058,None,,,,22016,0002,2022_Oct_18_1521,localizer,2021.1.3,60.05901391904605,
block,objects,objects017.bmp,,,,,0,126,126,126,,,,,,,,,,,,,,,,,,,,,,,,,,,,,,,,,,,,,,,,,,None,,656.1098319899058,None,656.1098319899058,None,2022-10-18-15:31:45.277964,656.112027999945,656.4263944998384,656.112027999945,None,None,656.112027999945,None,656.9265774899861,None,,,,22016,0002,2022_Oct_18_1521,localizer,2021.1.3,60.05901391904605,
block,objects,objects045.bmp,,,,,0,127,127,127,,,,,,,,,,,,,,,,,,,,,,,,,,,,,,,,,,,,,,,,,,None,,656.9265774899861,None,656.9265774899861,None,2022-10-18-15:31:46.094513,656.9285040998366,657.2431450998411,656.9285040998366,None,None,656.9285040998366,None,657.7431834898191,None,,,,22016,0002,2022_Oct_18_1521,localizer,2021.1.3,60.05901391904605,
block,objects,objects002.bmp,,,,,0,128,128,128,,,,,,,,,,,,,,,,,,,,,,,,,,,,,,,,,,,,,,,,,,None,,657.7431834898191,None,657.7431834898191,None,2022-10-18-15:31:46.911328,657.7453296999447,658.0591946998611,657.7453296999447,None,None,657.7453296999447,None,658.5592355899746,None,,,,22016,0002,2022_Oct_18_1521,localizer,2021.1.3,60.05901391904605,
block,objects,objects081.bmp,,,,,0,129,129,129,,,,,,,,,,,,,,,,,,,,,,,,,,,,,,,,,,,,,,,,,,None,,658.5592355899746,None,658.5592355899746,None,2022-10-18-15:31:47.726184,658.5682202000171,658.8761475000065,658.5682202000171,None,None,658.5682202000171,None,659.3763004899258,None,,,,22016,0002,2022_Oct_18_1521,localizer,2021.1.3,60.05901391904605,
block,objects,objects086.bmp,,,,,0,130,130,130,,,,,,,,,,,,,,,,,,,,,,,,,,,,,,,,,,,,,,,,,,None,,659.3763004899258,None,659.3763004899258,None,2022-10-18-15:31:48.544446,659.3767572999932,659.67641919991,659.3767572999932,None,None,659.3767572999932,None,660.1765174899949,None,,,,22016,0002,2022_Oct_18_1521,localizer,2021.1.3,60.05901391904605,
block,objects,objects063.bmp,,,,,0,131,131,131,,,,,,,,,,,,,,,,,,,,,,,,,,,,,,,,,,,,,,,,,,None,,660.1765174899949,None,660.1765174899949,None,2022-10-18-15:31:49.346594,660.1795840999112,660.492749299854,660.1795840999112,660.1795840999112,None,660.1795840999112,660.1795840999112,660.9938041900052,None,,,,22016,0002,2022_Oct_18_1521,localizer,2021.1.3,60.05901391904605,
block,objects,objects063.bmp,,,,,0,132,132,132,,,,,,,,,,,,,,,,,,,,,,,,,,,,,,,,,,,,,,,,,,None,,660.9938041900052,None,660.9938041900052,None,2022-10-18-15:31:50.164817,660.9980128000025,661.3091750999447,660.9980128000025,None,y,660.9980128000025,None,661.8094210898737,None,0.5764558000955731,,,22016,0002,2022_Oct_18_1521,localizer,2021.1.3,60.05901391904605,
block,objects,objects083.bmp,,,,,0,133,133,133,,,,,,,,,,,,,,,,,,,,,,,,,,,,,,,,,,,,,,,,,,None,,661.8094210898737,None,661.8094210898737,None,2022-10-18-15:31:50.976592,661.8098593000323,662.1090946998447,661.8098593000323,None,None,661.8098593000323,None,662.6095177898417,None,,,,22016,0002,2022_Oct_18_1521,localizer,2021.1.3,60.05901391904605,
block,objects,objects065.bmp,,,,,0,134,134,134,,,,,,,,,,,,,,,,,,,,,,,,,,,,,,,,,,,,,,,,,,None,,662.6095177898417,None,662.6095177898417,None,2022-10-18-15:31:51.779670,662.6224507999141,662.9258346999995,662.6224507999141,662.6224507999141,None,662.6224507999141,662.6224507999141,663.4257450899343,None,,,,22016,0002,2022_Oct_18_1521,localizer,2021.1.3,60.05901391904605,
block,objects,objects082.bmp,,,,,0,135,135,135,,,,,,,,,,,,,,,,,,,,,,,,,,,,,,,,,,,,,,,,,,None,,663.4257450899343,None,663.4257450899343,None,2022-10-18-15:31:52.592694,663.4267297999468,663.7261542000342,663.4267297999468,None,None,663.4267297999468,None,664.24233268986,None,,,,22016,0002,2022_Oct_18_1521,localizer,2021.1.3,60.05901391904605,
block_end,objects,objects025.bmp,,,,,0,136,136,136,,,,,,,,,,,,,,,,,,,,,,,,,,,,,,,,,,,,,,,,,,None,,664.24233268986,None,664.24233268986,None,2022-10-18-15:31:53.409265,664.2431955998763,664.5425930998754,664.2431955998763,None,None,664.2431955998763,None,665.0429625899299,None,,,,22016,0002,2022_Oct_18_1521,localizer,2021.1.3,60.05901391904605,
null_block,null_block,null_block.bmp,,,,,0,137,137,137,,,,,,,,,,,,,,,,,,,,,,,,,,,,,,,,,,,,,,,,,,t,1.78204600000754,665.0428176999558,None,665.0428176999558,None,2022-10-18-15:31:56.009972,666.8430346899434,None,666.8430346899434,None,None,666.8430346899434,None,666.8477242998779,None,,,,22016,0002,2022_Oct_18_1521,localizer,2021.1.3,60.05901391904605,
block_start,faces,faces042.bmp,,,,,0,138,138,138,,,,,,,,,,,,,,,,,,,,,,,,,,,,,,,,,,,,,,,,,,t,1.9658127001021057,678.8595042000525,None,678.8595042000525,None,2022-10-18-15:32:10.011264,680.8449243998621,681.159649600042,680.8449243998621,None,None,680.8449243998621,None,681.659240589873,None,,,,22016,0002,2022_Oct_18_1521,localizer,2021.1.3,60.05901391904605,
block,faces,faces008.bmp,,,,,0,139,139,139,,,,,,,,,,,,,,,,,,,,,,,,,,,,,,,,,,,,,,,,,,None,,681.659240589873,None,681.659240589873,None,2022-10-18-15:32:10.826195,681.6604193998501,681.9598188998643,681.6604193998501,None,None,681.6604193998501,None,682.4597602900351,None,,,,22016,0002,2022_Oct_18_1521,localizer,2021.1.3,60.05901391904605,
block,faces,faces081.bmp,,,,,0,140,140,140,,,,,,,,,,,,,,,,,,,,,,,,,,,,,,,,,,,,,,,,,,None,,682.4597602900351,None,682.4597602900351,None,2022-10-18-15:32:11.628893,682.4626829999033,682.7761971999425,682.4626829999033,682.4626829999033,None,682.4626829999033,682.4626829999033,683.2633461900289,None,,,,22016,0002,2022_Oct_18_1521,localizer,2021.1.3,60.05901391904605,
block,faces,faces030.bmp,,,,,0,141,141,141,,,,,,,,,,,,,,,,,,,,,,,,,,,,,,,,,,,,,,,,,,None,,683.2633461900289,None,683.2633461900289,None,2022-10-18-15:32:12.440432,683.2784662998747,683.592753799865,683.2784662998747,683.2784662998747,None,683.2784662998747,683.2784662998747,684.0766492899741,None,,,,22016,0002,2022_Oct_18_1521,localizer,2021.1.3,60.05901391904605,
block,faces,faces023.bmp,,,,,0,142,142,142,,,,,,,,,,,,,,,,,,,,,,,,,,,,,,,,,,,,,,,,,,None,,684.0766492899741,None,684.0766492899741,None,2022-10-18-15:32:13.243663,684.0871910999995,684.3932237999979,684.0871910999995,None,None,684.0871910999995,None,684.8933181899367,None,,,,22016,0002,2022_Oct_18_1521,localizer,2021.1.3,60.05901391904605,
block,faces,faces069.bmp,,,,,0,143,143,143,,,,,,,,,,,,,,,,,,,,,,,,,,,,,,,,,,,,,,,,,,None,,684.8933181899367,None,684.8933181899367,None,2022-10-18-15:32:14.061616,684.8955947998911,685.2099109999835,684.8955947998911,None,None,684.8955947998911,None,685.7101881899173,None,,,,22016,0002,2022_Oct_18_1521,localizer,2021.1.3,60.05901391904605,
block,faces,faces051.bmp,,,,,0,144,144,144,,,,,,,,,,,,,,,,,,,,,,,,,,,,,,,,,,,,,,,,,,None,,685.7101881899173,None,685.7101881899173,None,2022-10-18-15:32:14.878118,685.7121951000299,686.0266130999662,685.7121951000299,None,None,685.7121951000299,None,686.5272405898897,None,,,,22016,0002,2022_Oct_18_1521,localizer,2021.1.3,60.05901391904605,
block,faces,faces076.bmp,,,,,0,145,145,145,,,,,,,,,,,,,,,,,,,,,,,,,,,,,,,,,,,,,,,,,,None,,686.5272405898897,None,686.5272405898897,None,2022-10-18-15:32:15.696169,686.5406019999646,686.8426918999758,686.5406019999646,None,None,686.5406019999646,None,687.3435556899524,None,,,,22016,0002,2022_Oct_18_1521,localizer,2021.1.3,60.05901391904605,
block,faces,faces024.bmp,,,,,0,146,146,146,,,,,,,,,,,,,,,,,,,,,,,,,,,,,,,,,,,,,,,,,,None,,687.3435556899524,None,687.3435556899524,None,2022-10-18-15:32:16.511506,687.3455284000374,687.6599639998749,687.3455284000374,None,None,687.3455284000374,None,688.1605374898529,None,,,,22016,0002,2022_Oct_18_1521,localizer,2021.1.3,60.05901391904605,
block,faces,faces043.bmp,,,,,0,147,147,147,,,,,,,,,,,,,,,,,,,,,,,,,,,,,,,,,,,,,,,,,,None,,688.1605374898529,None,688.1605374898529,None,2022-10-18-15:32:17.329619,688.1638451998588,688.4770257999189,688.1638451998588,None,None,688.1638451998588,None,688.9766848899192,None,,,,22016,0002,2022_Oct_18_1521,localizer,2021.1.3,60.05901391904605,
block,faces,faces031.bmp,,,,,0,148,148,148,,,,,,,,,,,,,,,,,,,,,,,,,,,,,,,,,,,,,,,,,,None,,688.9766848899192,None,688.9766848899192,None,2022-10-18-15:32:18.145601,688.979195300024,689.2931019000243,688.979195300024,None,None,688.979195300024,None,689.7931157899322,None,,,,22016,0002,2022_Oct_18_1521,localizer,2021.1.3,60.05901391904605,
block,faces,faces016.bmp,,,,,0,149,149,149,,,,,,,,,,,,,,,,,,,,,,,,,,,,,,,,,,,,,,,,,,None,,689.7931157899322,None,689.7931157899322,None,2022-10-18-15:32:18.961258,689.7939075999893,690.0931505998597,689.7939075999893,None,None,689.7939075999893,None,690.593179990002,None,,,,22016,0002,2022_Oct_18_1521,localizer,2021.1.3,60.05901391904605,
block,faces,faces070.bmp,,,,,0,150,150,150,,,,,,,,,,,,,,,,,,,,,,,,,,,,,,,,,,,,,,,,,,None,,690.593179990002,None,690.593179990002,None,2022-10-18-15:32:19.763265,690.5960560999811,690.9098360999487,690.5960560999811,690.5960560999811,None,690.5960560999811,690.5960560999811,691.4098312898307,None,,,,22016,0002,2022_Oct_18_1521,localizer,2021.1.3,60.05901391904605,
block,faces,faces048.bmp,,,,,0,151,151,151,,,,,,,,,,,,,,,,,,,,,,,,,,,,,,,,,,,,,,,,,,None,,691.4098312898307,None,691.4098312898307,None,2022-10-18-15:32:20.577975,691.4105557999574,691.72614839999,691.4105557999574,None,None,691.4105557999574,None,692.2099654899678,None,,,,22016,0002,2022_Oct_18_1521,localizer,2021.1.3,60.05901391904605,
block_end,faces,faces032.bmp,,,,,0,152,152,152,,,,,,,,,,,,,,,,,,,,,,,,,,,,,,,,,,,,,,,,,,None,,692.2099654899678,None,692.2099654899678,None,2022-10-18-15:32:21.379899,692.2186067998409,692.5261231998447,692.2186067998409,692.2186067998409,None,692.2186067998409,692.2186067998409,693.026501389849,None,,,,22016,0002,2022_Oct_18_1521,localizer,2021.1.3,60.05901391904605,
block_start,scrambled,scrambled050.bmp,,,,,0,153,153,153,,,,,,,,,,,,,,,,,,,,,,,,,,,,,,,,,,,,,,,,,,t,1.798884900053963,693.0261713999789,None,693.0261713999789,None,2022-10-18-15:32:24.011083,694.8544800998643,695.1594420999754,694.8544800998643,None,None,694.8544800998643,None,695.6605351899518,None,,,,22016,0002,2022_Oct_18_1521,localizer,2021.1.3,60.05901391904605,
block,scrambled,scrambled052.bmp,,,,,0,154,154,154,,,,,,,,,,,,,,,,,,,,,,,,,,,,,,,,,,,,,,,,,,None,,695.6605351899518,None,695.6605351899518,None,2022-10-18-15:32:24.828467,695.6626466000453,695.9769414998591,695.6626466000453,None,None,695.6626466000453,None,696.4771353899735,None,,,,22016,0002,2022_Oct_18_1521,localizer,2021.1.3,60.05901391904605,
block,scrambled,scrambled076.bmp,,,,,0,155,155,155,,,,,,,,,,,,,,,,,,,,,,,,,,,,,,,,,,,,,,,,,,None,,696.4771353899735,None,696.4771353899735,None,2022-10-18-15:32:25.646212,696.4791121999733,696.7933872998692,696.4791121999733,None,None,696.4791121999733,None,697.2819259899436,None,,,,22016,0002,2022_Oct_18_1521,localizer,2021.1.3,60.05901391904605,
block,scrambled,scrambled019.bmp,,,,,0,156,156,156,,,,,,,,,,,,,,,,,,,,,,,,,,,,,,,,,,,,,,,,,,None,,697.2819259899436,None,697.2819259899436,None,2022-10-18-15:32:26.456854,697.2913512999658,697.5931577999145,697.2913512999658,697.2913512999658,None,697.2913512999658,697.2913512999658,698.0932386898669,None,,,,22016,0002,2022_Oct_18_1521,localizer,2021.1.3,60.05901391904605,
block,scrambled,scrambled020.bmp,,,,,0,157,157,157,,,,,,,,,,,,,,,,,,,,,,,,,,,,,,,,,,,,,,,,,,None,,698.0932386898669,None,698.0932386898669,None,2022-10-18-15:32:27.261178,698.0938901999034,698.393342499854,698.0938901999034,None,None,698.0938901999034,None,698.8934129899601,None,,,,22016,0002,2022_Oct_18_1521,localizer,2021.1.3,60.05901391904605,
block,scrambled,scrambled045.bmp,,,,,0,158,158,158,,,,,,,,,,,,,,,,,,,,,,,,,,,,,,,,,,,,,,,,,,None,,698.8934129899601,None,698.8934129899601,None,2022-10-18-15:32:28.063381,698.8963929999154,699.2098675998859,698.8963929999154,698.8963929999154,None,698.8963929999154,698.8963929999154,699.7099531899905,None,,,,22016,0002,2022_Oct_18_1521,localizer,2021.1.3,60.05901391904605,
block,scrambled,scrambled065.bmp,,,,,0,159,159,159,,,,,,,,,,,,,,,,,,,,,,,,,,,,,,,,,,,,,,,,,,None,,699.7099531899905,None,699.7099531899905,None,2022-10-18-15:32:28.877904,699.7105274000205,700.0100167000201,699.7105274000205,None,None,699.7105274000205,None,700.5099906899734,None,,,,22016,0002,2022_Oct_18_1521,localizer,2021.1.3,60.05901391904605,
block,scrambled,scrambled062.bmp,,,,,0,160,160,160,,,,,,,,,,,,,,,,,,,,,,,,,,,,,,,,,,,,,,,,,,None,,700.5099906899734,None,700.5099906899734,None,2022-10-18-15:32:29.680110,700.5130037998315,700.8273771000095,700.5130037998315,700.5130037998315,None,700.5130037998315,700.5130037998315,701.3273220899748,None,,,,22016,0002,2022_Oct_18_1521,localizer,2021.1.3,60.05901391904605,
block,scrambled,scrambled018.bmp,,,,,0,161,161,161,,,,,,,,,,,,,,,,,,,,,,,,,,,,,,,,,,,,,,,,,,None,,701.3273220899748,None,701.3273220899748,None,2022-10-18-15:32:30.496418,701.3398561999202,701.6434841998853,701.3398561999202,None,None,701.3398561999202,None,702.1430322899716,None,,,,22016,0002,2022_Oct_18_1521,localizer,2021.1.3,60.05901391904605,
block,scrambled,scrambled037.bmp,,,,,0,162,162,162,,,,,,,,,,,,,,,,,,,,,,,,,,,,,,,,,,,,,,,,,,None,,702.1430322899716,None,702.1430322899716,None,2022-10-18-15:32:31.310004,702.1533784999046,702.4596740999259,702.1533784999046,None,None,702.1533784999046,None,702.9602115898626,None,,,,22016,0002,2022_Oct_18_1521,localizer,2021.1.3,60.05901391904605,
block,scrambled,scrambled001.bmp,,,,,0,163,163,163,,,,,,,,,,,,,,,,,,,,,,,,,,,,,,,,,,,,,,,,,,None,,702.9602115898626,None,702.9602115898626,None,2022-10-18-15:32:32.128150,702.9708080999553,703.2797820998821,702.9708080999553,None,None,702.9708080999553,None,703.776526990044,None,,,,22016,0002,2022_Oct_18_1521,localizer,2021.1.3,60.05901391904605,
block,scrambled,scrambled031.bmp,,,,,0,164,164,164,,,,,,,,,,,,,,,,,,,,,,,,,,,,,,,,,,,,,,,,,,None,,703.776526990044,None,703.776526990044,None,2022-10-18-15:32:32.943671,703.7770746999886,704.0762630000245,703.7770746999886,None,None,703.7770746999886,None,704.5764953898499,None,,,,22016,0002,2022_Oct_18_1521,localizer,2021.1.3,60.05901391904605,
block,scrambled,scrambled015.bmp,,,,,0,165,165,165,,,,,,,,,,,,,,,,,,,,,,,,,,,,,,,,,,,,,,,,,,None,,704.5764953898499,None,704.5764953898499,None,2022-10-18-15:32:33.745431,704.5884215999395,704.8927251999266,704.5884215999395,704.5884215999395,None,704.5884215999395,704.5884215999395,705.3931237898535,None,,,,22016,0002,2022_Oct_18_1521,localizer,2021.1.3,60.05901391904605,
block,scrambled,scrambled048.bmp,,,,,0,166,166,166,,,,,,,,,,,,,,,,,,,,,,,,,,,,,,,,,,,,,,,,,,None,,705.3931237898535,None,705.3931237898535,None,2022-10-18-15:32:34.560273,705.3936958999839,705.6931892998982,705.3936958999839,None,None,705.3936958999839,None,706.1932427898748,None,,,,22016,0002,2022_Oct_18_1521,localizer,2021.1.3,60.05901391904605,
block_end,scrambled,scrambled025.bmp,,,,,0,167,167,167,,,,,,,,,,,,,,,,,,,,,,,,,,,,,,,,,,,,,,,,,,None,,706.1932427898748,None,706.1932427898748,None,2022-10-18-15:32:35.363180,706.1958218999207,706.5097898000386,706.1958218999207,706.1958218999207,None,706.1958218999207,706.1958218999207,707.0099168898771,None,,,,22016,0002,2022_Oct_18_1521,localizer,2021.1.3,60.05901391904605,
block_start,scenes,scenes038.bmp,,,,,0,168,168,168,,,,,,,,,,,,,,,,,,,,,,,,,,,,,,,,,,,,,,,,,,t,1.8157357999589294,707.0095953999553,None,707.0095953999553,None,2022-10-18-15:32:38.011335,708.8438836999703,709.1433731999714,708.8438836999703,None,None,708.8438836999703,None,709.6430928899674,None,,,,22016,0002,2022_Oct_18_1521,localizer,2021.1.3,60.05901391904605,
block,scenes,scenes066.bmp,,,,,0,169,169,169,,,,,,,,,,,,,,,,,,,,,,,,,,,,,,,,,,,,,,,,,,None,,709.6430928899674,None,709.6430928899674,None,2022-10-18-15:32:38.812033,709.6457950999029,709.9595766998827,709.6457950999029,709.6457950999029,None,709.6457950999029,709.6457950999029,710.4597136899131,None,,,,22016,0002,2022_Oct_18_1521,localizer,2021.1.3,60.05901391904605,
block,scenes,scenes088.bmp,,,,,0,170,170,170,,,,,,,,,,,,,,,,,,,,,,,,,,,,,,,,,,,,,,,,,,None,,710.4597136899131,None,710.4597136899131,None,2022-10-18-15:32:39.626673,710.4604423998389,710.7596841000486,710.4604423998389,None,None,710.4604423998389,None,711.2598088899861,None,,,,22016,0002,2022_Oct_18_1521,localizer,2021.1.3,60.05901391904605,
block,scenes,scenes005.bmp,,,,,0,171,171,171,,,,,,,,,,,,,,,,,,,,,,,,,,,,,,,,,,,,,,,,,,None,,711.2598088899861,None,711.2598088899861,None,2022-10-18-15:32:40.430005,711.2728679999709,711.5765505998861,711.2728679999709,711.2728679999709,None,711.2728679999709,711.2728679999709,712.0766848900123,None,,,,22016,0002,2022_Oct_18_1521,localizer,2021.1.3,60.05901391904605,
block,scenes,scenes087.bmp,,,,,0,172,172,172,,,,,,,,,,,,,,,,,,,,,,,,,,,,,,,,,,,,,,,,,,None,,712.0766848900123,None,712.0766848900123,None,2022-10-18-15:32:41.243646,712.0875041999388,712.3932920000516,712.0875041999388,None,None,712.0875041999388,None,712.8933692899766,None,,,,22016,0002,2022_Oct_18_1521,localizer,2021.1.3,60.05901391904605,
block,scenes,scenes033.bmp,,,,,0,173,173,173,,,,,,,,,,,,,,,,,,,,,,,,,,,,,,,,,,,,,,,,,,None,,712.8933692899766,None,712.8933692899766,None,2022-10-18-15:32:42.061367,712.8941491998266,713.2098511999939,712.8941491998266,None,None,712.8941491998266,None,713.6937028900022,None,,,,22016,0002,2022_Oct_18_1521,localizer,2021.1.3,60.05901391904605,
block,scenes,scenes085.bmp,,,,,0,174,174,174,,,,,,,,,,,,,,,,,,,,,,,,,,,,,,,,,,,,,,,,,,None,,713.6937028900022,None,713.6937028900022,None,2022-10-18-15:32:42.863631,713.6967602998484,714.0102076998446,713.6967602998484,713.6967602998484,None,713.6967602998484,713.6967602998484,714.5098231899785,None,,,,22016,0002,2022_Oct_18_1521,localizer,2021.1.3,60.05901391904605,
block,scenes,scenes078.bmp,,,,,0,175,175,175,,,,,,,,,,,,,,,,,,,,,,,,,,,,,,,,,,,,,,,,,,None,,714.5098231899785,None,714.5098231899785,None,2022-10-18-15:32:43.676806,714.5106118000112,714.8097798998933,714.5106118000112,None,None,714.5106118000112,None,715.3100381900324,None,,,,22016,0002,2022_Oct_18_1521,localizer,2021.1.3,60.05901391904605,
block,scenes,scenes020.bmp,,,,,0,176,176,176,,,,,,,,,,,,,,,,,,,,,,,,,,,,,,,,,,,,,,,,,,None,,715.3100381900324,None,715.3100381900324,None,2022-10-18-15:32:44.479949,715.3126707999036,715.6265364000574,715.3126707999036,715.3126707999036,None,715.3126707999036,715.3126707999036,716.1264817900258,None,,,,22016,0002,2022_Oct_18_1521,localizer,2021.1.3,60.05901391904605,
block,scenes,scenes017.bmp,,,,,0,177,177,177,,,,,,,,,,,,,,,,,,,,,,,,,,,,,,,,,,,,,,,,,,None,,716.1264817900258,None,716.1264817900258,None,2022-10-18-15:32:45.293468,716.1272241999395,716.4428962999955,716.1272241999395,None,None,716.1272241999395,None,716.9264694898623,None,,,,22016,0002,2022_Oct_18_1521,localizer,2021.1.3,60.05901391904605,
block,scenes,scenes069.bmp,,,,,0,178,178,178,,,,,,,,,,,,,,,,,,,,,,,,,,,,,,,,,,,,,,,,,,None,,716.9264694898623,None,716.9264694898623,None,2022-10-18-15:32:46.095390,716.9292013999075,717.2431776998565,716.9292013999075,716.9292013999075,None,716.9292013999075,716.9292013999075,717.7431663900381,None,,,,22016,0002,2022_Oct_18_1521,localizer,2021.1.3,60.05901391904605,
block,scenes,scenes035.bmp,,,,,0,179,179,179,,,,,,,,,,,,,,,,,,,,,,,,,,,,,,,,,,,,,,,,,,None,,717.7431663900381,None,717.7431663900381,None,2022-10-18-15:32:46.911076,717.743599700043,718.0432082999032,717.743599700043,None,None,717.743599700043,None,718.5434729898582,None,,,,22016,0002,2022_Oct_18_1521,localizer,2021.1.3,60.05901391904605,
block,scenes,scenes012.bmp,,,,,0,180,180,180,,,,,,,,,,,,,,,,,,,,,,,,,,,,,,,,,,,,,,,,,,None,,718.5434729898582,None,718.5434729898582,None,2022-10-18-15:32:47.713435,718.5570475000422,718.8600397000555,718.5570475000422,718.5570475000422,None,718.5570475000422,718.5570475000422,719.3600115898764,None,,,,22016,0002,2022_Oct_18_1521,localizer,2021.1.3,60.05901391904605,
block,scenes,scenes044.bmp,,,,,0,181,181,181,,,,,,,,,,,,,,,,,,,,,,,,,,,,,,,,,,,,,,,,,,None,,719.3600115898764,None,719.3600115898764,None,2022-10-18-15:32:48.526949,719.3607588999439,719.6598896000069,719.3607588999439,None,None,719.3607588999439,None,720.1600529900054,None,,,,22016,0002,2022_Oct_18_1521,localizer,2021.1.3,60.05901391904605,
block_end,scenes,scenes091.bmp,,,,,0,182,182,182,,,,,,,,,,,,,,,,,,,,,,,,,,,,,,,,,,,,,,,,,,None,,720.1600529900054,None,720.1600529900054,None,2022-10-18-15:32:49.330182,720.1630279000383,720.4766331999563,720.1630279000383,720.1630279000383,None,720.1630279000383,720.1630279000383,720.9766895898385,None,,,,22016,0002,2022_Oct_18_1521,localizer,2021.1.3,60.05901391904605,
block_start,faces,faces036.bmp,,,,,0,183,183,183,,,,,,,,,,,,,,,,,,,,,,,,,,,,,,,,,,,,,,,,,,t,1.8485687000211328,720.9765907998662,None,720.9765907998662,None,2022-10-18-15:32:52.011834,722.8464837998617,723.1595109000336,722.8464837998617,None,None,722.8464837998617,None,723.6600406900282,None,,,,22016,0002,2022_Oct_18_1521,localizer,2021.1.3,60.05901391904605,
block,faces,faces048.bmp,,,,,0,184,184,184,,,,,,,,,,,,,,,,,,,,,,,,,,,,,,,,,,,,,,,,,,None,,723.6600406900282,None,723.6600406900282,None,2022-10-18-15:32:52.826984,723.6606639998499,723.9601469000336,723.6606639998499,None,None,723.6606639998499,None,724.4758586899145,None,,,,22016,0002,2022_Oct_18_1521,localizer,2021.1.3,60.05901391904605,
block,faces,faces050.bmp,,,,,0,185,185,185,,,,,,,,,,,,,,,,,,,,,,,,,,,,,,,,,,,,,,,,,,None,,724.4758586899145,None,724.4758586899145,None,2022-10-18-15:32:53.642811,724.4839710998349,724.7970467000268,724.4839710998349,None,None,724.4839710998349,None,725.2934820900439,None,,,,22016,0002,2022_Oct_18_1521,localizer,2021.1.3,60.05901391904605,
block,faces,faces028.bmp,,,,,0,186,186,186,,,,,,,,,,,,,,,,,,,,,,,,,,,,,,,,,,,,,,,,,,None,,725.2934820900439,None,725.2934820900439,None,2022-10-18-15:32:54.461925,725.2944719998632,725.6101191998459,725.2944719998632,None,None,725.2944719998632,None,726.0934752900387,None,,,,22016,0002,2022_Oct_18_1521,localizer,2021.1.3,60.05901391904605,
block,faces,faces059.bmp,,,,,0,187,187,187,,,,,,,,,,,,,,,,,,,,,,,,,,,,,,,,,,,,,,,,,,None,,726.0934752900387,None,726.0934752900387,None,2022-10-18-15:32:55.263593,726.1072535999119,726.4100862999912,726.1072535999119,726.1072535999119,None,726.1072535999119,726.1072535999119,726.9094866900007,None,,,,22016,0002,2022_Oct_18_1521,localizer,2021.1.3,60.05901391904605,
block,faces,faces041.bmp,,,,,0,188,188,188,,,,,,,,,,,,,,,,,,,,,,,,,,,,,,,,,,,,,,,,,,None,,726.9094866900007,None,726.9094866900007,None,2022-10-18-15:32:56.076649,726.9104491998442,727.2096563000232,726.9104491998442,None,None,726.9104491998442,None,727.7098979900359,None,,,,22016,0002,2022_Oct_18_1521,localizer,2021.1.3,60.05901391904605,
block,faces,faces067.bmp,,,,,0,189,189,189,,,,,,,,,,,,,,,,,,,,,,,,,,,,,,,,,,,,,,,,,,None,,727.7098979900359,None,727.7098979900359,None,2022-10-18-15:32:56.878837,727.712798899971,728.0267683998682,727.712798899971,727.712798899971,None,727.712798899971,727.712798899971,728.5271244898206,None,,,,22016,0002,2022_Oct_18_1521,localizer,2021.1.3,60.05901391904605,
block,faces,faces020.bmp,,,,,0,190,190,190,,,,,,,,,,,,,,,,,,,,,,,,,,,,,,,,,,,,,,,,,,None,,728.5271244898206,None,728.5271244898206,None,2022-10-18-15:32:57.695055,728.5290661999024,728.8435515998863,728.5290661999024,None,None,728.5290661999024,None,729.3437078899472,None,,,,22016,0002,2022_Oct_18_1521,localizer,2021.1.3,60.05901391904605,
block,faces,faces007.bmp,,,,,0,191,191,191,,,,,,,,,,,,,,,,,,,,,,,,,,,,,,,,,,,,,,,,,,None,,729.3437078899472,None,729.3437078899472,None,2022-10-18-15:32:58.511643,729.3441516999155,729.6432906000409,729.3441516999155,None,None,729.3441516999155,None,730.1436471898808,None,,,,22016,0002,2022_Oct_18_1521,localizer,2021.1.3,60.05901391904605,
block,faces,faces049.bmp,,,,,0,192,192,192,,,,,,,,,,,,,,,,,,,,,,,,,,,,,,,,,,,,,,,,,,None,,730.1436471898808,None,730.1436471898808,None,2022-10-18-15:32:59.313564,730.1463698998559,730.4601510998327,730.1463698998559,730.1463698998559,None,730.1463698998559,730.1463698998559,730.9596670900239,None,,,,22016,0002,2022_Oct_18_1521,localizer,2021.1.3,60.05901391904605,
block,faces,faces080.bmp,,,,,0,193,193,193,,,,,,,,,,,,,,,,,,,,,,,,,,,,,,,,,,,,,,,,,,None,,730.9596670900239,None,730.9596670900239,None,2022-10-18-15:33:00.126611,730.9613361998927,731.2602627000306,730.9613361998927,None,None,730.9613361998927,None,731.7768305900274,None,,,,22016,0002,2022_Oct_18_1521,localizer,2021.1.3,60.05901391904605,
block,faces,faces089.bmp,,,,,0,194,194,194,,,,,,,,,,,,,,,,,,,,,,,,,,,,,,,,,,,,,,,,,,None,,731.7768305900274,None,731.7768305900274,None,2022-10-18-15:33:00.944768,731.7790792000014,732.0929199999664,731.7790792000014,None,None,731.7790792000014,None,732.5936330898433,None,,,,22016,0002,2022_Oct_18_1521,localizer,2021.1.3,60.05901391904605,
block,faces,faces056.bmp,,,,,0,195,195,195,,,,,,,,,,,,,,,,,,,,,,,,,,,,,,,,,,,,,,,,,,None,,732.5936330898433,None,732.5936330898433,None,2022-10-18-15:33:01.761744,732.6052562999539,732.9097712000366,732.6052562999539,None,None,732.6052562999539,None,733.4136059898185,None,,,,22016,0002,2022_Oct_18_1521,localizer,2021.1.3,60.05901391904605,
block,faces,faces056.bmp,,,,,0,196,196,196,,,,,,,,,,,,,,,,,,,,,,,,,,,,,,,,,,,,,,,,,,None,,733.4136059898185,None,733.4136059898185,None,2022-10-18-15:33:02.590731,733.4255951999221,733.7270249000285,733.4255951999221,None,y,733.4255951999221,None,734.2272354899208,None,0.6062390001025051,,,22016,0002,2022_Oct_18_1521,localizer,2021.1.3,60.05901391904605,
block_end,faces,faces025.bmp,,,,,0,197,197,197,,,,,,,,,,,,,,,,,,,,,,,,,,,,,,,,,,,,,,,,,,None,,734.2272354899208,None,734.2272354899208,None,2022-10-18-15:33:03.395167,734.2293294998817,734.5435269998852,734.2293294998817,None,None,734.2293294998817,None,735.0437723900425,None,,,,22016,0002,2022_Oct_18_1521,localizer,2021.1.3,60.05901391904605,
block_start,scrambled,scrambled057.bmp,,,,,0,198,198,198,,,,,,,,,,,,,,,,,,,,,,,,,,,,,,,,,,,,,,,,,,t,1.7813434000127017,735.0438304999843,None,735.0438304999843,None,2022-10-18-15:33:06.010943,736.8448254000396,737.1437470999081,736.8448254000396,None,None,736.8448254000396,None,737.6442305898993,None,,,,22016,0002,2022_Oct_18_1521,localizer,2021.1.3,60.05901391904605,
block,scrambled,scrambled040.bmp,,,,,0,199,199,199,,,,,,,,,,,,,,,,,,,,,,,,,,,,,,,,,,,,,,,,,,None,,737.6442305898993,None,737.6442305898993,None,2022-10-18-15:33:06.815149,737.6481748998631,737.9607752000447,737.6481748998631,737.6481748998631,None,737.6481748998631,737.6481748998631,738.4608761900338,None,,,,22016,0002,2022_Oct_18_1521,localizer,2021.1.3,60.05901391904605,
block,scrambled,scrambled015.bmp,,,,,0,200,200,200,,,,,,,,,,,,,,,,,,,,,,,,,,,,,,,,,,,,,,,,,,None,,738.4608761900338,None,738.4608761900338,None,2022-10-18-15:33:07.630202,738.464380600024,738.7775466998573,738.464380600024,None,None,738.464380600024,None,739.2775271899766,None,,,,22016,0002,2022_Oct_18_1521,localizer,2021.1.3,60.05901391904605,
block,scrambled,scrambled006.bmp,,,,,0,201,201,201,,,,,,,,,,,,,,,,,,,,,,,,,,,,,,,,,,,,,,,,,,None,,739.2775271899766,None,739.2775271899766,None,2022-10-18-15:33:08.445640,739.2799853000324,739.5932226998266,739.2799853000324,None,None,739.2799853000324,None,740.0941702899756,None,,,,22016,0002,2022_Oct_18_1521,localizer,2021.1.3,60.05901391904605,
block,scrambled,scrambled025.bmp,,,,,0,202,202,202,,,,,,,,,,,,,,,,,,,,,,,,,,,,,,,,,,,,,,,,,,None,,740.0941702899756,None,740.0941702899756,None,2022-10-18-15:33:09.262284,740.0966196998488,740.410474400036,740.0966196998488,None,None,740.0966196998488,None,740.9103392899735,None,,,,22016,0002,2022_Oct_18_1521,localizer,2021.1.3,60.05901391904605,
block,scrambled,scrambled038.bmp,,,,,0,203,203,203,,,,,,,,,,,,,,,,,,,,,,,,,,,,,,,,,,,,,,,,,,None,,740.9103392899735,None,740.9103392899735,None,2022-10-18-15:33:10.078291,740.9119110999163,741.2270213000011,740.9119110999163,None,None,740.9119110999163,None,741.726000089827,None,,,,22016,0002,2022_Oct_18_1521,localizer,2021.1.3,60.05901391904605,
block,scrambled,scrambled049.bmp,,,,,0,204,204,204,,,,,,,,,,,,,,,,,,,,,,,,,,,,,,,,,,,,,,,,,,None,,741.726000089827,None,741.726000089827,None,2022-10-18-15:33:10.892821,741.7273426000029,742.0429748999886,741.7273426000029,None,None,741.7273426000029,None,742.5287287900458,None,,,,22016,0002,2022_Oct_18_1521,localizer,2021.1.3,60.05901391904605,
block,scrambled,scrambled055.bmp,,,,,0,205,205,205,,,,,,,,,,,,,,,,,,,,,,,,,,,,,,,,,,,,,,,,,,None,,742.5287287900458,None,742.5287287900458,None,2022-10-18-15:33:11.702629,742.5434643998742,742.8433389000129,742.5434643998742,742.5434643998742,None,742.5434643998742,742.5434643998742,743.3433950898936,None,,,,22016,0002,2022_Oct_18_1521,localizer,2021.1.3,60.05901391904605,
block,scrambled,scrambled053.bmp,,,,,0,206,206,206,,,,,,,,,,,,,,,,,,,,,,,,,,,,,,,,,,,,,,,,,,None,,743.3433950898936,None,743.3433950898936,None,2022-10-18-15:33:12.511356,743.3528885999694,743.6599870999344,743.3528885999694,None,None,743.3528885999694,None,744.1602835898987,None,,,,22016,0002,2022_Oct_18_1521,localizer,2021.1.3,60.05901391904605,
block,scrambled,scrambled027.bmp,,,,,0,207,207,207,,,,,,,,,,,,,,,,,,,,,,,,,,,,,,,,,,,,,,,,,,None,,744.1602835898987,None,744.1602835898987,None,2022-10-18-15:33:13.329280,744.163022799883,744.4612755000126,744.163022799883,None,None,744.163022799883,None,744.977122189873,None,,,,22016,0002,2022_Oct_18_1521,localizer,2021.1.3,60.05901391904605,
block,scrambled,scrambled016.bmp,,,,,0,208,208,208,,,,,,,,,,,,,,,,,,,,,,,,,,,,,,,,,,,,,,,,,,None,,744.977122189873,None,744.977122189873,None,2022-10-18-15:33:14.145253,744.9793044000398,745.2937393998727,744.9793044000398,None,None,744.9793044000398,None,745.7938554898603,None,,,,22016,0002,2022_Oct_18_1521,localizer,2021.1.3,60.05901391904605,
block,scrambled,scrambled065.bmp,,,,,0,209,209,209,,,,,,,,,,,,,,,,,,,,,,,,,,,,,,,,,,,,,,,,,,None,,745.7938554898603,None,745.7938554898603,None,2022-10-18-15:33:14.962685,745.7966765998863,746.1105193998665,745.7966765998863,None,None,745.7966765998863,None,746.6104829899734,None,,,,22016,0002,2022_Oct_18_1521,localizer,2021.1.3,60.05901391904605,
block,scrambled,scrambled074.bmp,,,,,0,210,210,210,,,,,,,,,,,,,,,,,,,,,,,,,,,,,,,,,,,,,,,,,,None,,746.6104829899734,None,746.6104829899734,None,2022-10-18-15:33:15.778610,746.6220643999986,746.9263309000526,746.6220643999986,None,None,746.6220643999986,None,747.4265615899815,None,,,,22016,0002,2022_Oct_18_1521,localizer,2021.1.3,60.05901391904605,
block,scrambled,scrambled037.bmp,,,,,0,211,211,211,,,,,,,,,,,,,,,,,,,,,,,,,,,,,,,,,,,,,,,,,,None,,747.4265615899815,None,747.4265615899815,None,2022-10-18-15:33:16.593515,747.4273840999231,747.7270740000531,747.4273840999231,None,None,747.4273840999231,None,748.2265847899719,None,,,,22016,0002,2022_Oct_18_1521,localizer,2021.1.3,60.05901391904605,
block_end,scrambled,scrambled048.bmp,,,,,0,212,212,212,,,,,,,,,,,,,,,,,,,,,,,,,,,,,,,,,,,,,,,,,,None,,748.2265847899719,None,748.2265847899719,None,2022-10-18-15:33:17.394531,748.2273138999008,748.5271373998839,748.2273138999008,748.2273138999008,None,748.2273138999008,748.2273138999008,749.0272560898914,None,,,,22016,0002,2022_Oct_18_1521,localizer,2021.1.3,60.05901391904605,
null_block,null_block,null_block.bmp,,,,,0,213,213,213,,,,,,,,,,,,,,,,,,,,,,,,,,,,,,,,,,,,,,,,,,t,1.7965770999435335,749.0273974000011,None,749.0273974000011,None,2022-10-18-15:33:20.011901,750.8437766900054,None,750.8437766900054,None,None,750.8437766900054,None,750.8496536000166,None,,,,22016,0002,2022_Oct_18_1521,localizer,2021.1.3,60.05901391904605,
block_start,scenes,scenes090.bmp,,,,,0,214,214,214,,,,,,,,,,,,,,,,,,,,,,,,,,,,,,,,,,,,,,,,,,t,1.9640349999535829,762.8600540999323,None,762.8600540999323,None,2022-10-18-15:33:34.012367,764.8563405999448,765.1602890000213,764.8563405999448,None,None,764.8563405999448,None,765.660311589879,None,,,,22016,0002,2022_Oct_18_1521,localizer,2021.1.3,60.05901391904605,
block,scenes,scenes073.bmp,,,,,0,215,215,215,,,,,,,,,,,,,,,,,,,,,,,,,,,,,,,,,,,,,,,,,,None,,765.660311589879,None,765.660311589879,None,2022-10-18-15:33:34.827447,765.6630265000276,765.9765587998554,765.6630265000276,None,None,765.6630265000276,None,766.476686390047,None,,,,22016,0002,2022_Oct_18_1521,localizer,2021.1.3,60.05901391904605,
block,scenes,scenes035.bmp,,,,,0,216,216,216,,,,,,,,,,,,,,,,,,,,,,,,,,,,,,,,,,,,,,,,,,None,,766.476686390047,None,766.476686390047,None,2022-10-18-15:33:35.643626,766.4780079999473,766.7935776000377,766.4780079999473,None,None,766.4780079999473,None,767.2935736900429,None,,,,22016,0002,2022_Oct_18_1521,localizer,2021.1.3,60.05901391904605,
block,scenes,scenes015.bmp,,,,,0,217,217,217,,,,,,,,,,,,,,,,,,,,,,,,,,,,,,,,,,,,,,,,,,None,,767.2935736900429,None,767.2935736900429,None,2022-10-18-15:33:36.460518,767.2942194999196,767.5936173999216,767.2942194999196,None,None,767.2942194999196,None,768.0934933898272,None,,,,22016,0002,2022_Oct_18_1521,localizer,2021.1.3,60.05901391904605,
block,scenes,scenes087.bmp,,,,,0,218,218,218,,,,,,,,,,,,,,,,,,,,,,,,,,,,,,,,,,,,,,,,,,None,,768.0934933898272,None,768.0934933898272,None,2022-10-18-15:33:37.263646,768.0963143999688,768.4099864000455,768.0963143999688,768.0963143999688,None,768.0963143999688,768.0963143999688,768.8963608899387,None,,,,22016,0002,2022_Oct_18_1521,localizer,2021.1.3,60.05901391904605,
block,scenes,scenes061.bmp,,,,,0,219,219,219,,,,,,,,,,,,,,,,,,,,,,,,,,,,,,,,,,,,,,,,,,None,,768.8963608899387,None,768.8963608899387,None,2022-10-18-15:33:38.068457,768.90065960004,769.2098858999088,768.90065960004,768.90065960004,None,768.90065960004,768.90065960004,769.7099805899663,None,,,,22016,0002,2022_Oct_18_1521,localizer,2021.1.3,60.05901391904605,
block,scenes,scenes050.bmp,,,,,0,220,220,220,,,,,,,,,,,,,,,,,,,,,,,,,,,,,,,,,,,,,,,,,,None,,769.7099805899663,None,769.7099805899663,None,2022-10-18-15:33:38.876929,769.7109872000292,770.026559199905,769.7109872000292,None,None,769.7109872000292,None,770.5100623899373,None,,,,22016,0002,2022_Oct_18_1521,localizer,2021.1.3,60.05901391904605,
block,scenes,scenes067.bmp,,,,,0,221,221,221,,,,,,,,,,,,,,,,,,,,,,,,,,,,,,,,,,,,,,,,,,None,,770.5100623899373,None,770.5100623899373,None,2022-10-18-15:33:39.679000,770.5112362999935,770.8265855000354,770.5112362999935,770.5112362999935,None,770.5112362999935,770.5112362999935,771.3268641898642,None,,,,22016,0002,2022_Oct_18_1521,localizer,2021.1.3,60.05901391904605,
block,scenes,scenes074.bmp,,,,,0,222,222,222,,,,,,,,,,,,,,,,,,,,,,,,,,,,,,,,,,,,,,,,,,None,,771.3268641898642,None,771.3268641898642,None,2022-10-18-15:33:40.494019,771.3275927000213,771.626716800034,771.3275927000213,None,None,771.3275927000213,None,772.126895189914,None,,,,22016,0002,2022_Oct_18_1521,localizer,2021.1.3,60.05901391904605,
block,scenes,scenes026.bmp,,,,,0,223,223,223,,,,,,,,,,,,,,,,,,,,,,,,,,,,,,,,,,,,,,,,,,None,,772.126895189914,None,772.126895189914,None,2022-10-18-15:33:41.297026,772.1405251999386,772.4431657998357,772.1405251999386,772.1405251999386,None,772.1405251999386,772.1405251999386,772.9436712899944,None,,,,22016,0002,2022_Oct_18_1521,localizer,2021.1.3,60.05901391904605,
block,scenes,scenes017.bmp,,,,,0,224,224,224,,,,,,,,,,,,,,,,,,,,,,,,,,,,,,,,,,,,,,,,,,None,,772.9436712899944,None,772.9436712899944,None,2022-10-18-15:33:42.110816,772.9441799998749,773.2434964999557,772.9441799998749,None,None,772.9441799998749,None,773.743428489822,None,,,,22016,0002,2022_Oct_18_1521,localizer,2021.1.3,60.05901391904605,
block,scenes,scenes010.bmp,,,,,0,225,225,225,,,,,,,,,,,,,,,,,,,,,,,,,,,,,,,,,,,,,,,,,,None,,773.743428489822,None,773.743428489822,None,2022-10-18-15:33:42.912365,773.7446608999744,774.059890500037,773.7446608999744,773.7446608999744,None,773.7446608999744,773.7446608999744,774.5602010899922,None,,,,22016,0002,2022_Oct_18_1521,localizer,2021.1.3,60.05901391904605,
block,scenes,scenes053.bmp,,,,,0,226,226,226,,,,,,,,,,,,,,,,,,,,,,,,,,,,,,,,,,,,,,,,,,None,,774.5602010899922,None,774.5602010899922,None,2022-10-18-15:33:43.728143,774.5610553999431,774.8630804999266,774.5610553999431,None,None,774.5610553999431,None,775.3600870898692,None,,,,22016,0002,2022_Oct_18_1521,localizer,2021.1.3,60.05901391904605,
block,scenes,scenes034.bmp,,,,,0,227,227,227,,,,,,,,,,,,,,,,,,,,,,,,,,,,,,,,,,,,,,,,,,None,,775.3600870898692,None,775.3600870898692,None,2022-10-18-15:33:44.529237,775.3628469000105,775.6768205999397,775.3628469000105,775.3628469000105,None,775.3628469000105,775.3628469000105,776.1770599898184,None,,,,22016,0002,2022_Oct_18_1521,localizer,2021.1.3,60.05901391904605,
block_end,scenes,scenes056.bmp,,,,,0,228,228,228,,,,,,,,,,,,,,,,,,,,,,,,,,,,,,,,,,,,,,,,,,None,,776.1770599898184,None,776.1770599898184,None,2022-10-18-15:33:45.344006,776.1776250000112,776.4768493999727,776.1776250000112,None,None,776.1776250000112,None,776.9770062900382,None,,,,22016,0002,2022_Oct_18_1521,localizer,2021.1.3,60.05901391904605,
block_start,objects,objects052.bmp,,,,,0,229,229,229,,,,,,,,,,,,,,,,,,,,,,,,,,,,,,,,,,,,,,,,,,t,1.8471776000224054,776.9768216998782,None,776.9768216998782,None,2022-10-18-15:33:48.013561,778.8467253998388,779.1600871998817,778.8467253998388,None,None,778.8467253998388,None,779.6606958898949,None,,,,22016,0002,2022_Oct_18_1521,localizer,2021.1.3,60.05901391904605,
block,objects,objects022.bmp,,,,,0,230,230,230,,,,,,,,,,,,,,,,,,,,,,,,,,,,,,,,,,,,,,,,,,None,,779.6606958898949,None,779.6606958898949,None,2022-10-18-15:33:48.829583,779.6697782999836,779.9767644999083,779.6697782999836,None,None,779.6697782999836,None,780.4768572898349,None,,,,22016,0002,2022_Oct_18_1521,localizer,2021.1.3,60.05901391904605,
block,objects,objects012.bmp,,,,,0,231,231,231,,,,,,,,,,,,,,,,,,,,,,,,,,,,,,,,,,,,,,,,,,None,,780.4768572898349,None,780.4768572898349,None,2022-10-18-15:33:49.643803,780.4776214999147,780.7767471000552,780.4776214999147,None,None,780.4776214999147,None,781.2769496898866,None,,,,22016,0002,2022_Oct_18_1521,localizer,2021.1.3,60.05901391904605,
block,objects,objects009.bmp,,,,,0,232,232,232,,,,,,,,,,,,,,,,,,,,,,,,,,,,,,,,,,,,,,,,,,None,,781.2769496898866,None,781.2769496898866,None,2022-10-18-15:33:50.446866,781.2796771998983,781.594016399933,781.2796771998983,781.2796771998983,None,781.2796771998983,781.2796771998983,782.0931427899516,None,,,,22016,0002,2022_Oct_18_1521,localizer,2021.1.3,60.05901391904605,
block,objects,objects051.bmp,,,,,0,233,233,233,,,,,,,,,,,,,,,,,,,,,,,,,,,,,,,,,,,,,,,,,,None,,782.0931427899516,None,782.0931427899516,None,2022-10-18-15:33:51.260088,782.0942639999557,782.3938998999074,782.0942639999557,None,None,782.0942639999557,None,782.8940028899117,None,,,,22016,0002,2022_Oct_18_1521,localizer,2021.1.3,60.05901391904605,
block,objects,objects079.bmp,,,,,0,234,234,234,,,,,,,,,,,,,,,,,,,,,,,,,,,,,,,,,,,,,,,,,,None,,782.8940028899117,None,782.8940028899117,None,2022-10-18-15:33:52.063920,782.9075197000057,783.2104700000491,782.9075197000057,782.9075197000057,None,782.9075197000057,782.9075197000057,783.7112996898825,None,,,,22016,0002,2022_Oct_18_1521,localizer,2021.1.3,60.05901391904605,
block,objects,objects087.bmp,,,,,0,235,235,235,,,,,,,,,,,,,,,,,,,,,,,,,,,,,,,,,,,,,,,,,,None,,783.7112996898825,None,783.7112996898825,None,2022-10-18-15:33:52.880376,783.7134903999977,784.0270181000233,783.7134903999977,None,None,783.7134903999977,None,784.5270995899803,None,,,,22016,0002,2022_Oct_18_1521,localizer,2021.1.3,60.05901391904605,
block,objects,objects030.bmp,,,,,0,236,236,236,,,,,,,,,,,,,,,,,,,,,,,,,,,,,,,,,,,,,,,,,,None,,784.5270995899803,None,784.5270995899803,None,2022-10-18-15:33:53.694237,784.5276357999537,784.8271449999884,784.5276357999537,None,None,784.5276357999537,None,785.3268265900435,None,,,,22016,0002,2022_Oct_18_1521,localizer,2021.1.3,60.05901391904605,
block,objects,objects045.bmp,,,,,0,237,237,237,,,,,,,,,,,,,,,,,,,,,,,,,,,,,,,,,,,,,,,,,,None,,785.3268265900435,None,785.3268265900435,None,2022-10-18-15:33:54.496012,785.3286393999588,785.6433291998692,785.3286393999588,785.3286393999588,None,785.3286393999588,785.3286393999588,786.1436355900253,None,,,,22016,0002,2022_Oct_18_1521,localizer,2021.1.3,60.05901391904605,
block,objects,objects068.bmp,,,,,0,238,238,238,,,,,,,,,,,,,,,,,,,,,,,,,,,,,,,,,,,,,,,,,,None,,786.1436355900253,None,786.1436355900253,None,2022-10-18-15:33:55.310786,786.1443318000529,786.4434291999787,786.1443318000529,None,None,786.1443318000529,None,786.9434308900265,None,,,,22016,0002,2022_Oct_18_1521,localizer,2021.1.3,60.05901391904605,
block,objects,objects055.bmp,,,,,0,239,239,239,,,,,,,,,,,,,,,,,,,,,,,,,,,,,,,,,,,,,,,,,,None,,786.9434308900265,None,786.9434308900265,None,2022-10-18-15:33:56.112374,786.9445976999123,787.2598643999081,786.9445976999123,786.9445976999123,None,786.9445976999123,786.9445976999123,787.7436357898871,None,,,,22016,0002,2022_Oct_18_1521,localizer,2021.1.3,60.05901391904605,
block,objects,objects056.bmp,,,,,0,240,240,240,,,,,,,,,,,,,,,,,,,,,,,,,,,,,,,,,,,,,,,,,,None,,787.7436357898871,None,787.7436357898871,None,2022-10-18-15:33:56.913573,787.7558706998825,788.0602871999145,787.7558706998825,787.7558706998825,None,787.7558706998825,787.7558706998825,788.5601972899633,None,,,,22016,0002,2022_Oct_18_1521,localizer,2021.1.3,60.05901391904605,
block,objects,objects010.bmp,,,,,0,241,241,241,,,,,,,,,,,,,,,,,,,,,,,,,,,,,,,,,,,,,,,,,,None,,788.5601972899633,None,788.5601972899633,None,2022-10-18-15:33:57.728361,788.5610150999855,788.8601867000107,788.5610150999855,None,None,788.5610150999855,None,789.3625954898773,None,,,,22016,0002,2022_Oct_18_1521,localizer,2021.1.3,60.05901391904605,
block,objects,objects070.bmp,,,,,0,242,242,242,,,,,,,,,,,,,,,,,,,,,,,,,,,,,,,,,,,,,,,,,,None,,789.3625954898773,None,789.3625954898773,None,2022-10-18-15:33:58.536563,789.3803264000453,789.6933321999386,789.3803264000453,789.3803264000453,None,789.3803264000453,789.3803264000453,790.1770423899172,None,,,,22016,0002,2022_Oct_18_1521,localizer,2021.1.3,60.05901391904605,
block_end,objects,objects059.bmp,,,,,0,243,243,243,,,,,,,,,,,,,,,,,,,,,,,,,,,,,,,,,,,,,,,,,,None,,790.1770423899172,None,790.1770423899172,None,2022-10-18-15:33:59.345202,790.1776254998986,790.4769607998896,790.1776254998986,None,None,790.1776254998986,None,790.9767456899165,None,,,,22016,0002,2022_Oct_18_1521,localizer,2021.1.3,60.05901391904605,
,,,,,,,,,,,,,,,,,,,,,,,,,,,,,,,,,,,,,,,,,,,,,,,,,,,,,,,,,,,,,,,,,,,,,790.9772248999216,None,,,,,,,
