block_type,condition,img_name,Button.thisRepN,Button.thisTrialN,Button.thisN,Button.thisIndex,trials.thisRepN,trials.thisTrialN,trials.thisN,trials.thisIndex,Ready_experimenter_text.started,Ready_experimenter_text.stopped,Ready_experimenter_resp.keys,Ready_experimenter_resp.rt,Ready_experimenter_resp.started,Ready_experimenter_resp.stopped,Alignment_background.started,Alignment_background.stopped,Alignment_image.started,Alignment_image.stopped,Alignment_resp.keys,Alignment_resp.rt,Alignment_resp.started,Alignment_resp.stopped,Button_text.started,Button_text.stopped,Index_text.started,Index_text.stopped,Index_resp.keys,Index_resp.rt,Index_resp.started,Index_resp.stopped,Middle_text.started,Middle_text.stopped,Middle_resp.keys,Middle_resp.rt,Middle_resp.started,Middle_resp.stopped,Repeat_text.started,Repeat_text.stopped,Repeat_resp.keys,Repeat_resp.corr,Repeat_resp.rt,Repeat_resp.started,Repeat_resp.stopped,instruction_text.started,instruction_text.stopped,key_resp.keys,key_resp.rt,key_resp.started,key_resp.stopped,scanner_t.keys,scanner_t.rt,scanner_t.started,scanner_t.stopped,fixation_wait_for_t.started,fixation_wait_for_t.stopped,real_timestamp_trial_start,image.started,image.stopped,fixation.started,fixation.stopped,repeat_response.keys,repeat_response.started,repeat_response.stopped,fixation_null.started,fixation_null.stopped,repeat_response.rt,end_text.started,end_text.stopped,participant,run,date,expName,psychopyVersion,frameRate,
,,,,,,,,,,,13.584681700000147,None,return,499.87757899999997,13.584681700000147,None,,,,,,,,,,,,,,,,,,,,,,,,,,,,,,,,,,,,,,,,,,,,,,,,,,,,,,,22015,0002,2022_Oct_03_0959,localizer,2021.1.3,61.0338896777024,
,,,,,,,,,,,,,,,,,513.5086782999997,None,513.5086782999997,None,return,0.8840546000001268,513.5086782999997,None,,,,,,,,,,,,,,,,,,,,,,,,,,,,,,,,,,,,,,,,,,,,,,,22015,0002,2022_Oct_03_0959,localizer,2021.1.3,61.0338896777024,
,,,0,0,0,0,,,,,,,,,,,,,,,,,,,514.4185640999995,None,515.4222983999998,None,y,2.014194100000168,515.4222983999998,None,517.4680681999998,None,b,1.034321600000112,517.4680681999998,None,518.5193666999994,None,n,0,1.3497913000001063,518.5193666999994,None,,,,,,,,,,,,,,,,,,,,,,,,,,22015,0002,2022_Oct_03_0959,localizer,2021.1.3,61.0338896777024,
,,,,,,,,,,,,,,,,,,,,,,,,,,,,,,,,,,,,,,,,,,,,,,519.8862855999996,None,y,22.59115219999967,519.8862855999996,None,,,,,,,,,,,,,,,,,,,,22015,0002,2022_Oct_03_0959,localizer,2021.1.3,61.0338896777024,
null_block,null_block,null_block.bmp,,,,,0,0,0,0,,,,,,,,,,,,,,,,,,,,,,,,,,,,,,,,,,,,,,,,,,t,16.795123999999305,542.5384414999999,None,542.5384414999999,None,2022-10-03-10:08:58.018346,559.3542751899995,None,559.3542751899995,None,None,559.3542751899995,None,559.3637541999997,None,,,,22015,0002,2022_Oct_03_0959,localizer,2021.1.3,61.0338896777024,
block_start,objects,objects071.bmp,,,,,0,1,1,1,,,,,,,,,,,,,,,,,,,,,,,,,,,,,,,,,,,,,,,,,,t,1.9635110999997778,571.3699428999998,None,571.3699428999998,None,2022-10-03-10:09:12.017311,573.3541188999998,573.6682799,573.3541188999998,None,None,573.3541188999998,None,574.1687152899995,None,,,,22015,0002,2022_Oct_03_0959,localizer,2021.1.3,61.0338896777024,
block,objects,objects061.bmp,,,,,0,2,2,2,,,,,,,,,,,,,,,,,,,,,,,,,,,,,,,,,,,,,,,,,,None,,574.1687152899995,None,574.1687152899995,None,2022-10-03-10:09:12.832127,574.1697882999997,574.4686056999999,574.1697882999997,None,None,574.1697882999997,None,574.98540039,None,,,,22015,0002,2022_Oct_03_0959,localizer,2021.1.3,61.0338896777024,
block,objects,objects076.bmp,,,,,0,3,3,3,,,,,,,,,,,,,,,,,,,,,,,,,,,,,,,,,,,,,,,,,,None,,574.98540039,None,574.98540039,None,2022-10-03-10:09:13.649001,574.9864398999998,575.3020521999997,574.9864398999998,None,None,574.9864398999998,None,575.78560199,None,,,,22015,0002,2022_Oct_03_0959,localizer,2021.1.3,61.0338896777024,
block,objects,objects039.bmp,,,,,0,4,4,4,,,,,,,,,,,,,,,,,,,,,,,,,,,,,,,,,,,,,,,,,,None,,575.78560199,None,575.78560199,None,2022-10-03-10:09:14.450923,575.7965073999994,576.1017440999995,575.7965073999994,575.7965073999994,None,575.7965073999994,575.7965073999994,576.6018654899999,None,,,,22015,0002,2022_Oct_03_0959,localizer,2021.1.3,61.0338896777024,
block,objects,objects008.bmp,,,,,0,5,5,5,,,,,,,,,,,,,,,,,,,,,,,,,,,,,,,,,,,,,,,,,,None,,576.6018654899999,None,576.6018654899999,None,2022-10-03-10:09:15.264784,576.6107795999997,576.9185606000001,576.6107795999997,None,None,576.6107795999997,None,577.4187913899996,None,,,,22015,0002,2022_Oct_03_0959,localizer,2021.1.3,61.0338896777024,
block,objects,objects030.bmp,,,,,0,6,6,6,,,,,,,,,,,,,,,,,,,,,,,,,,,,,,,,,,,,,,,,,,None,,577.4187913899996,None,577.4187913899996,None,2022-10-03-10:09:16.082132,577.4202379999997,577.7350086999995,577.4202379999997,None,None,577.4202379999997,None,578.2354386899997,None,,,,22015,0002,2022_Oct_03_0959,localizer,2021.1.3,61.0338896777024,
block,objects,objects054.bmp,,,,,0,7,7,7,,,,,,,,,,,,,,,,,,,,,,,,,,,,,,,,,,,,,,,,,,None,,578.2354386899997,None,578.2354386899997,None,2022-10-03-10:09:16.899434,578.2398778999996,578.5522299999993,578.2398778999996,None,None,578.2398778999996,None,579.05239299,None,,,,22015,0002,2022_Oct_03_0959,localizer,2021.1.3,61.0338896777024,
block,objects,objects011.bmp,,,,,0,8,8,8,,,,,,,,,,,,,,,,,,,,,,,,,,,,,,,,,,,,,,,,,,None,,579.05239299,None,579.05239299,None,2022-10-03-10:09:17.715471,579.0532092999993,579.3551572999995,579.0532092999993,None,None,579.0532092999993,None,579.8685911899993,None,,,,22015,0002,2022_Oct_03_0959,localizer,2021.1.3,61.0338896777024,
block,objects,objects075.bmp,,,,,0,9,9,9,,,,,,,,,,,,,,,,,,,,,,,,,,,,,,,,,,,,,,,,,,None,,579.8685911899993,None,579.8685911899993,None,2022-10-03-10:09:18.531122,579.8770245999995,580.1851338999995,579.8770245999995,None,None,579.8770245999995,None,580.6851808900001,None,,,,22015,0002,2022_Oct_03_0959,localizer,2021.1.3,61.0338896777024,
block,objects,objects050.bmp,,,,,0,10,10,10,,,,,,,,,,,,,,,,,,,,,,,,,,,,,,,,,,,,,,,,,,None,,580.6851808900001,None,580.6851808900001,None,2022-10-03-10:09:19.348625,580.6930991999998,581.0021031999995,580.6930991999998,None,None,580.6930991999998,None,581.5022587899994,None,,,,22015,0002,2022_Oct_03_0959,localizer,2021.1.3,61.0338896777024,
block,objects,objects025.bmp,,,,,0,11,11,11,,,,,,,,,,,,,,,,,,,,,,,,,,,,,,,,,,,,,,,,,,None,,581.5022587899994,None,581.5022587899994,None,2022-10-03-10:09:20.165730,581.5031392000001,581.8187917999994,581.5031392000001,None,None,581.5031392000001,None,582.3186922899995,None,,,,22015,0002,2022_Oct_03_0959,localizer,2021.1.3,61.0338896777024,
block,objects,objects047.bmp,,,,,0,12,12,12,,,,,,,,,,,,,,,,,,,,,,,,,,,,,,,,,,,,,,,,,,None,,582.3186922899995,None,582.3186922899995,None,2022-10-03-10:09:20.981964,582.3198220999993,582.6356073999996,582.3198220999993,None,None,582.3198220999993,None,583.1352452900001,None,,,,22015,0002,2022_Oct_03_0959,localizer,2021.1.3,61.0338896777024,
block,objects,objects079.bmp,,,,,0,13,13,13,,,,,,,,,,,,,,,,,,,,,,,,,,,,,,,,,,,,,,,,,,None,,583.1352452900001,None,583.1352452900001,None,2022-10-03-10:09:21.798215,583.1435692999994,583.4521291000001,583.1435692999994,None,None,583.1435692999994,None,583.9522399899997,None,,,,22015,0002,2022_Oct_03_0959,localizer,2021.1.3,61.0338896777024,
block,objects,objects023.bmp,,,,,0,14,14,14,,,,,,,,,,,,,,,,,,,,,,,,,,,,,,,,,,,,,,,,,,None,,583.9522399899997,None,583.9522399899997,None,2022-10-03-10:09:22.615642,583.9529678999997,584.2519604999998,583.9529678999997,None,None,583.9529678999997,None,584.7522467899998,None,,,,22015,0002,2022_Oct_03_0959,localizer,2021.1.3,61.0338896777024,
block_end,objects,objects005.bmp,,,,,0,15,15,15,,,,,,,,,,,,,,,,,,,,,,,,,,,,,,,,,,,,,,,,,,None,,584.7522467899998,None,584.7522467899998,None,2022-10-03-10:09:23.417499,584.7529884999994,585.0521871000001,584.7529884999994,584.7529884999994,None,584.7529884999994,584.7529884999994,585.5521725899998,None,,,,22015,0002,2022_Oct_03_0959,localizer,2021.1.3,61.0338896777024,
block_start,faces,faces032.bmp,,,,,0,16,16,16,,,,,,,,,,,,,,,,,,,,,,,,,,,,,,,,,,,,,,,,,,t,1.7807247000000643,585.5517150999995,None,585.5517150999995,None,2022-10-03-10:09:26.014297,587.3611701,587.6687969999994,587.3611701,None,None,587.3611701,None,588.1689675899997,None,,,,22015,0002,2022_Oct_03_0959,localizer,2021.1.3,61.0338896777024,
block,faces,faces054.bmp,,,,,0,17,17,17,,,,,,,,,,,,,,,,,,,,,,,,,,,,,,,,,,,,,,,,,,None,,588.1689675899997,None,588.1689675899997,None,2022-10-03-10:09:26.831758,588.1775256999999,588.4853632999993,588.1775256999999,None,None,588.1775256999999,None,588.98538629,None,,,,22015,0002,2022_Oct_03_0959,localizer,2021.1.3,61.0338896777024,
block,faces,faces037.bmp,,,,,0,18,18,18,,,,,,,,,,,,,,,,,,,,,,,,,,,,,,,,,,,,,,,,,,None,,588.98538629,None,588.98538629,None,2022-10-03-10:09:27.648876,588.9938986999996,589.3020981999998,588.9938986999996,None,None,588.9938986999996,None,589.8023505900001,None,,,,22015,0002,2022_Oct_03_0959,localizer,2021.1.3,61.0338896777024,
block,faces,faces044.bmp,,,,,0,19,19,19,,,,,,,,,,,,,,,,,,,,,,,,,,,,,,,,,,,,,,,,,,None,,589.8023505900001,None,589.8023505900001,None,2022-10-03-10:09:28.465937,589.8035585999996,590.1187856999995,589.8035585999996,None,None,589.8035585999996,None,590.6189991900001,None,,,,22015,0002,2022_Oct_03_0959,localizer,2021.1.3,61.0338896777024,
block,faces,faces023.bmp,,,,,0,20,20,20,,,,,,,,,,,,,,,,,,,,,,,,,,,,,,,,,,,,,,,,,,None,,590.6189991900001,None,590.6189991900001,None,2022-10-03-10:09:29.282597,590.6274577999993,590.9356603999995,590.6274577999993,None,None,590.6274577999993,None,591.4356149899995,None,,,,22015,0002,2022_Oct_03_0959,localizer,2021.1.3,61.0338896777024,
block,faces,faces059.bmp,,,,,0,21,21,21,,,,,,,,,,,,,,,,,,,,,,,,,,,,,,,,,,,,,,,,,,None,,591.4356149899995,None,591.4356149899995,None,2022-10-03-10:09:30.098899,591.4372377999998,591.7517561999994,591.4372377999998,None,None,591.4372377999998,None,592.23773919,None,,,,22015,0002,2022_Oct_03_0959,localizer,2021.1.3,61.0338896777024,
block,faces,faces042.bmp,,,,,0,22,22,22,,,,,,,,,,,,,,,,,,,,,,,,,,,,,,,,,,,,,,,,,,None,,592.23773919,None,592.23773919,None,2022-10-03-10:09:30.904556,592.2461819999999,592.5520080999995,592.2461819999999,592.2461819999999,None,592.2461819999999,592.2461819999999,593.0584723900001,None,,,,22015,0002,2022_Oct_03_0959,localizer,2021.1.3,61.0338896777024,
block,faces,faces075.bmp,,,,,0,23,23,23,,,,,,,,,,,,,,,,,,,,,,,,,,,,,,,,,,,,,,,,,,None,,593.0584723900001,None,593.0584723900001,None,2022-10-03-10:09:31.730362,593.0707623999997,593.3855181999998,593.0707623999997,None,None,593.0707623999997,None,593.8688789899998,None,,,,22015,0002,2022_Oct_03_0959,localizer,2021.1.3,61.0338896777024,
block,faces,faces065.bmp,,,,,0,24,24,24,,,,,,,,,,,,,,,,,,,,,,,,,,,,,,,,,,,,,,,,,,None,,593.8688789899998,None,593.8688789899998,None,2022-10-03-10:09:32.532110,593.8701336999993,594.1728230999997,593.8701336999993,None,None,593.8701336999993,None,594.6856560899996,None,,,,22015,0002,2022_Oct_03_0959,localizer,2021.1.3,61.0338896777024,
block,faces,faces012.bmp,,,,,0,25,25,25,,,,,,,,,,,,,,,,,,,,,,,,,,,,,,,,,,,,,,,,,,None,,594.6856560899996,None,594.6856560899996,None,2022-10-03-10:09:33.349570,594.6871338000001,595.0022136999996,594.6871338000001,None,None,594.6871338000001,None,595.5021497899997,None,,,,22015,0002,2022_Oct_03_0959,localizer,2021.1.3,61.0338896777024,
block,faces,faces050.bmp,,,,,0,26,26,26,,,,,,,,,,,,,,,,,,,,,,,,,,,,,,,,,,,,,,,,,,None,,595.5021497899997,None,595.5021497899997,None,2022-10-03-10:09:34.165825,595.5107499999995,595.8188974999994,595.5107499999995,None,None,595.5107499999995,None,596.3190755899996,None,,,,22015,0002,2022_Oct_03_0959,localizer,2021.1.3,61.0338896777024,
block,faces,faces024.bmp,,,,,0,27,27,27,,,,,,,,,,,,,,,,,,,,,,,,,,,,,,,,,,,,,,,,,,None,,596.3190755899996,None,596.3190755899996,None,2022-10-03-10:09:34.982761,596.3200083000002,596.6356964999995,596.3200083000002,None,None,596.3200083000002,None,597.1353350899999,None,,,,22015,0002,2022_Oct_03_0959,localizer,2021.1.3,61.0338896777024,
block,faces,faces052.bmp,,,,,0,28,28,28,,,,,,,,,,,,,,,,,,,,,,,,,,,,,,,,,,,,,,,,,,None,,597.1353350899999,None,597.1353350899999,None,2022-10-03-10:09:35.798368,597.1368186,597.4522213999999,597.1368186,None,None,597.1368186,None,597.9520784899996,None,,,,22015,0002,2022_Oct_03_0959,localizer,2021.1.3,61.0338896777024,
block,faces,faces014.bmp,,,,,0,29,29,29,,,,,,,,,,,,,,,,,,,,,,,,,,,,,,,,,,,,,,,,,,None,,597.9520784899996,None,597.9520784899996,None,2022-10-03-10:09:36.615917,597.9608935999995,598.2689338999999,597.9608935999995,None,None,597.9608935999995,None,598.7723448899997,None,,,,22015,0002,2022_Oct_03_0959,localizer,2021.1.3,61.0338896777024,
block_end,faces,faces088.bmp,,,,,0,30,30,30,,,,,,,,,,,,,,,,,,,,,,,,,,,,,,,,,,,,,,,,,,None,,598.7723448899997,None,598.7723448899997,None,2022-10-03-10:09:37.440042,598.7776503999994,599.0857830999994,598.7776503999994,None,None,598.7776503999994,None,599.5855995900001,None,,,,22015,0002,2022_Oct_03_0959,localizer,2021.1.3,61.0338896777024,
block_start,scrambled,scrambled052.bmp,,,,,0,31,31,31,,,,,,,,,,,,,,,,,,,,,,,,,,,,,,,,,,,,,,,,,,t,1.7472756000006484,599.5853196999997,None,599.5853196999997,None,2022-10-03-10:09:40.015336,601.3538012999998,601.6690165,601.3538012999998,None,None,601.3538012999998,None,602.1690073899999,None,,,,22015,0002,2022_Oct_03_0959,localizer,2021.1.3,61.0338896777024,
block,scrambled,scrambled026.bmp,,,,,0,32,32,32,,,,,,,,,,,,,,,,,,,,,,,,,,,,,,,,,,,,,,,,,,None,,602.1690073899999,None,602.1690073899999,None,2022-10-03-10:09:40.837779,602.1877307999994,602.4900324999999,602.1877307999994,None,None,602.1877307999994,None,602.9856930899996,None,,,,22015,0002,2022_Oct_03_0959,localizer,2021.1.3,61.0338896777024,
block,scrambled,scrambled036.bmp,,,,,0,33,33,33,,,,,,,,,,,,,,,,,,,,,,,,,,,,,,,,,,,,,,,,,,None,,602.9856930899996,None,602.9856930899996,None,2022-10-03-10:09:41.648830,602.9933462999998,603.3021241999995,602.9933462999998,None,None,602.9933462999998,None,603.8018538899996,None,,,,22015,0002,2022_Oct_03_0959,localizer,2021.1.3,61.0338896777024,
block,scrambled,scrambled017.bmp,,,,,0,34,34,34,,,,,,,,,,,,,,,,,,,,,,,,,,,,,,,,,,,,,,,,,,None,,603.8018538899996,None,603.8018538899996,None,2022-10-03-10:09:42.464688,603.8096763999993,604.1188206999996,603.8096763999993,None,None,603.8096763999993,None,604.6192930899997,None,,,,22015,0002,2022_Oct_03_0959,localizer,2021.1.3,61.0338896777024,
block,scrambled,scrambled062.bmp,,,,,0,35,35,35,,,,,,,,,,,,,,,,,,,,,,,,,,,,,,,,,,,,,,,,,,None,,604.6192930899997,None,604.6192930899997,None,2022-10-03-10:09:43.283113,604.6204426999993,604.9353836,604.6204426999993,None,None,604.6204426999993,None,605.4357703899996,None,,,,22015,0002,2022_Oct_03_0959,localizer,2021.1.3,61.0338896777024,
block,scrambled,scrambled030.bmp,,,,,0,36,36,36,,,,,,,,,,,,,,,,,,,,,,,,,,,,,,,,,,,,,,,,,,None,,605.4357703899996,None,605.4357703899996,None,2022-10-03-10:09:44.099607,605.4366661999993,605.7357132999996,605.4366661999993,None,None,605.4366661999993,None,606.2360020899996,None,,,,22015,0002,2022_Oct_03_0959,localizer,2021.1.3,61.0338896777024,
block,scrambled,scrambled059.bmp,,,,,0,37,37,37,,,,,,,,,,,,,,,,,,,,,,,,,,,,,,,,,,,,,,,,,,None,,606.2360020899996,None,606.2360020899996,None,2022-10-03-10:09:44.901837,606.2371758999998,606.5522240999999,606.2371758999998,606.2371758999998,None,606.2371758999998,606.2371758999998,607.0520061899997,None,,,,22015,0002,2022_Oct_03_0959,localizer,2021.1.3,61.0338896777024,
block,scrambled,scrambled044.bmp,,,,,0,38,38,38,,,,,,,,,,,,,,,,,,,,,,,,,,,,,,,,,,,,,,,,,,None,,607.0520061899997,None,607.0520061899997,None,2022-10-03-10:09:45.714915,607.0549467999999,607.3689221999994,607.0549467999999,None,None,607.0549467999999,None,607.8688814899997,None,,,,22015,0002,2022_Oct_03_0959,localizer,2021.1.3,61.0338896777024,
block,scrambled,scrambled071.bmp,,,,,0,39,39,39,,,,,,,,,,,,,,,,,,,,,,,,,,,,,,,,,,,,,,,,,,None,,607.8688814899997,None,607.8688814899997,None,2022-10-03-10:09:46.532754,607.8699787999994,608.1686577,607.8699787999994,None,None,607.8699787999994,None,608.6691001899999,None,,,,22015,0002,2022_Oct_03_0959,localizer,2021.1.3,61.0338896777024,
block,scrambled,scrambled068.bmp,,,,,0,40,40,40,,,,,,,,,,,,,,,,,,,,,,,,,,,,,,,,,,,,,,,,,,None,,608.6691001899999,None,608.6691001899999,None,2022-10-03-10:09:47.333976,608.6699915999998,608.9857564999993,608.6699915999998,608.6699915999998,None,608.6699915999998,608.6699915999998,609.46922249,None,,,,22015,0002,2022_Oct_03_0959,localizer,2021.1.3,61.0338896777024,
block,scrambled,scrambled070.bmp,,,,,0,41,41,41,,,,,,,,,,,,,,,,,,,,,,,,,,,,,,,,,,,,,,,,,,None,,609.46922249,None,609.46922249,None,2022-10-03-10:09:48.134477,609.4700826999997,609.7688891999996,609.4700826999997,609.4700826999997,None,609.4700826999997,609.4700826999997,610.28568619,None,,,,22015,0002,2022_Oct_03_0959,localizer,2021.1.3,61.0338896777024,
block,scrambled,scrambled055.bmp,,,,,0,42,42,42,,,,,,,,,,,,,,,,,,,,,,,,,,,,,,,,,,,,,,,,,,None,,610.28568619,None,610.28568619,None,2022-10-03-10:09:48.948496,610.2938885999993,610.6030482999995,610.2938885999993,None,None,610.2938885999993,None,611.1020691899994,None,,,,22015,0002,2022_Oct_03_0959,localizer,2021.1.3,61.0338896777024,
block,scrambled,scrambled013.bmp,,,,,0,43,43,43,,,,,,,,,,,,,,,,,,,,,,,,,,,,,,,,,,,,,,,,,,None,,611.1020691899994,None,611.1020691899994,None,2022-10-03-10:09:49.764950,611.1035853999992,611.4021749999993,611.1035853999992,None,None,611.1035853999992,None,611.9191669900001,None,,,,22015,0002,2022_Oct_03_0959,localizer,2021.1.3,61.0338896777024,
block,scrambled,scrambled049.bmp,,,,,0,44,44,44,,,,,,,,,,,,,,,,,,,,,,,,,,,,,,,,,,,,,,,,,,None,,611.9191669900001,None,611.9191669900001,None,2022-10-03-10:09:50.583357,611.9289693999999,612.2353771999997,611.9289693999999,None,None,611.9289693999999,None,612.7358395900001,None,,,,22015,0002,2022_Oct_03_0959,localizer,2021.1.3,61.0338896777024,
block_end,scrambled,scrambled054.bmp,,,,,0,45,45,45,,,,,,,,,,,,,,,,,,,,,,,,,,,,,,,,,,,,,,,,,,None,,612.7358395900001,None,612.7358395900001,None,2022-10-03-10:09:51.399785,612.7452456999999,613.0524717999997,612.7452456999999,None,None,612.7452456999999,None,613.5527240900001,None,,,,22015,0002,2022_Oct_03_0959,localizer,2021.1.3,61.0338896777024,
block_start,scenes,scenes054.bmp,,,,,0,46,46,46,,,,,,,,,,,,,,,,,,,,,,,,,,,,,,,,,,,,,,,,,,t,1.7805126000002929,613.5518869999996,None,613.5518869999996,None,2022-10-03-10:09:54.015752,615.3535341999996,615.6549529999993,615.3535341999996,None,None,615.3535341999996,None,616.1689519900001,None,,,,22015,0002,2022_Oct_03_0959,localizer,2021.1.3,61.0338896777024,
block,scenes,scenes083.bmp,,,,,0,47,47,47,,,,,,,,,,,,,,,,,,,,,,,,,,,,,,,,,,,,,,,,,,None,,616.1689519900001,None,616.1689519900001,None,2022-10-03-10:09:54.832217,616.1705740999996,616.4852639000001,616.1705740999996,None,None,616.1705740999996,None,616.9856034899994,None,,,,22015,0002,2022_Oct_03_0959,localizer,2021.1.3,61.0338896777024,
block,scenes,scenes047.bmp,,,,,0,48,48,48,,,,,,,,,,,,,,,,,,,,,,,,,,,,,,,,,,,,,,,,,,None,,616.9856034899994,None,616.9856034899994,None,2022-10-03-10:09:55.648711,616.9936585999994,617.3021568999993,616.9936585999994,None,None,616.9936585999994,None,617.79211579,None,,,,22015,0002,2022_Oct_03_0959,localizer,2021.1.3,61.0338896777024,
block,scenes,scenes047.bmp,,,,,0,49,49,49,,,,,,,,,,,,,,,,,,,,,,,,,,,,,,,,,,,,,,,,,,None,,617.79211579,None,617.79211579,None,2022-10-03-10:09:56.457550,617.7964176999994,618.1021390999995,617.7964176999994,None,y,617.7964176999994,None,618.6028508899999,None,0.5177940000003218,,,22015,0002,2022_Oct_03_0959,localizer,2021.1.3,61.0338896777024,
block,scenes,scenes043.bmp,,,,,0,50,50,50,,,,,,,,,,,,,,,,,,,,,,,,,,,,,,,,,,,,,,,,,,None,,618.6028508899999,None,618.6028508899999,None,2022-10-03-10:09:57.267614,618.6033936999993,618.9024519999994,618.6033936999993,None,None,618.6033936999993,None,619.4193517899994,None,,,,22015,0002,2022_Oct_03_0959,localizer,2021.1.3,61.0338896777024,
block,scenes,scenes005.bmp,,,,,0,51,51,51,,,,,,,,,,,,,,,,,,,,,,,,,,,,,,,,,,,,,,,,,,None,,619.4193517899994,None,619.4193517899994,None,2022-10-03-10:09:58.083660,619.4200216999998,619.7353739,619.4200216999998,None,None,619.4200216999998,None,620.2190808899995,None,,,,22015,0002,2022_Oct_03_0959,localizer,2021.1.3,61.0338896777024,
block,scenes,scenes002.bmp,,,,,0,52,52,52,,,,,,,,,,,,,,,,,,,,,,,,,,,,,,,,,,,,,,,,,,None,,620.2190808899995,None,620.2190808899995,None,2022-10-03-10:09:58.885398,620.2207137999994,620.5359486999996,620.2207137999994,620.2207137999994,None,620.2207137999994,620.2207137999994,621.0361115899996,None,,,,22015,0002,2022_Oct_03_0959,localizer,2021.1.3,61.0338896777024,
block,scenes,scenes003.bmp,,,,,0,53,53,53,,,,,,,,,,,,,,,,,,,,,,,,,,,,,,,,,,,,,,,,,,None,,621.0361115899996,None,621.0361115899996,None,2022-10-03-10:09:59.700212,621.0369258999999,621.3361414000001,621.0369258999999,None,None,621.0369258999999,None,621.8526321899999,None,,,,22015,0002,2022_Oct_03_0959,localizer,2021.1.3,61.0338896777024,
block,scenes,scenes042.bmp,,,,,0,54,54,54,,,,,,,,,,,,,,,,,,,,,,,,,,,,,,,,,,,,,,,,,,None,,621.8526321899999,None,621.8526321899999,None,2022-10-03-10:10:00.516725,621.8534522999998,622.1689348999998,621.8534522999998,None,None,621.8534522999998,None,622.6565250899994,None,,,,22015,0002,2022_Oct_03_0959,localizer,2021.1.3,61.0338896777024,
block,scenes,scenes067.bmp,,,,,0,55,55,55,,,,,,,,,,,,,,,,,,,,,,,,,,,,,,,,,,,,,,,,,,None,,622.6565250899994,None,622.6565250899994,None,2022-10-03-10:10:01.324714,622.6725747,622.9855615999995,622.6725747,622.6725747,None,622.6725747,622.6725747,623.4707090900001,None,,,,22015,0002,2022_Oct_03_0959,localizer,2021.1.3,61.0338896777024,
block,scenes,scenes009.bmp,,,,,0,56,56,56,,,,,,,,,,,,,,,,,,,,,,,,,,,,,,,,,,,,,,,,,,None,,623.4707090900001,None,623.4707090900001,None,2022-10-03-10:10:02.133771,623.4704772999994,623.7858378000001,623.4704772999994,None,None,623.4704772999994,None,624.2856537899997,None,,,,22015,0002,2022_Oct_03_0959,localizer,2021.1.3,61.0338896777024,
block,scenes,scenes080.bmp,,,,,0,57,57,57,,,,,,,,,,,,,,,,,,,,,,,,,,,,,,,,,,,,,,,,,,None,,624.2856537899997,None,624.2856537899997,None,2022-10-03-10:10:02.949300,624.2861736999994,624.5858343999998,624.2861736999994,None,None,624.2861736999994,None,625.0921259899997,None,,,,22015,0002,2022_Oct_03_0959,localizer,2021.1.3,61.0338896777024,
block,scenes,scenes034.bmp,,,,,0,58,58,58,,,,,,,,,,,,,,,,,,,,,,,,,,,,,,,,,,,,,,,,,,None,,625.0921259899997,None,625.0921259899997,None,2022-10-03-10:10:03.763149,625.1103967999998,625.4188477999996,625.1103967999998,None,None,625.1103967999998,None,625.9029062899999,None,,,,22015,0002,2022_Oct_03_0959,localizer,2021.1.3,61.0338896777024,
block,scenes,scenes088.bmp,,,,,0,59,59,59,,,,,,,,,,,,,,,,,,,,,,,,,,,,,,,,,,,,,,,,,,None,,625.9029062899999,None,625.9029062899999,None,2022-10-03-10:10:04.566021,625.9041511999994,626.2193979999993,625.9041511999994,None,None,625.9041511999994,None,626.7097919899998,None,,,,22015,0002,2022_Oct_03_0959,localizer,2021.1.3,61.0338896777024,
block_end,scenes,scenes060.bmp,,,,,0,60,60,60,,,,,,,,,,,,,,,,,,,,,,,,,,,,,,,,,,,,,,,,,,None,,626.7097919899998,None,626.7097919899998,None,2022-10-03-10:10:05.380894,626.7181820999995,627.0196837999993,626.7181820999995,None,None,626.7181820999995,None,627.5193830899998,None,,,,22015,0002,2022_Oct_03_0959,localizer,2021.1.3,61.0338896777024,
null_block,null_block,null_block.bmp,,,,,0,61,61,61,,,,,,,,,,,,,,,,,,,,,,,,,,,,,,,,,,,,,,,,,,t,1.8133312999998452,627.5191620999994,None,627.5191620999994,None,2022-10-03-10:10:08.018081,629.3530614900001,None,629.3530614900001,None,None,629.3530614900001,None,629.3564275999997,None,,,,22015,0002,2022_Oct_03_0959,localizer,2021.1.3,61.0338896777024,
block_start,scrambled,scrambled081.bmp,,,,,0,62,62,62,,,,,,,,,,,,,,,,,,,,,,,,,,,,,,,,,,,,,,,,,,t,1.9633596000003308,641.3691610999995,None,641.3691610999995,None,2022-10-03-10:10:22.017413,643.3650424999996,643.6716188999999,643.3650424999996,None,None,643.3650424999996,None,644.1707817899996,None,,,,22015,0002,2022_Oct_03_0959,localizer,2021.1.3,61.0338896777024,
block,scrambled,scrambled029.bmp,,,,,0,63,63,63,,,,,,,,,,,,,,,,,,,,,,,,,,,,,,,,,,,,,,,,,,None,,644.1707817899996,None,644.1707817899996,None,2022-10-03-10:10:22.836359,644.1833477999999,644.4925002,644.1833477999999,None,None,644.1833477999999,None,644.9759133899997,None,,,,22015,0002,2022_Oct_03_0959,localizer,2021.1.3,61.0338896777024,
block,scrambled,scrambled082.bmp,,,,,0,64,64,64,,,,,,,,,,,,,,,,,,,,,,,,,,,,,,,,,,,,,,,,,,None,,644.9759133899997,None,644.9759133899997,None,2022-10-03-10:10:23.645375,644.9885015999998,645.3028600999996,644.9885015999998,None,None,644.9885015999998,None,645.7867762899996,None,,,,22015,0002,2022_Oct_03_0959,localizer,2021.1.3,61.0338896777024,
block,scrambled,scrambled085.bmp,,,,,0,65,65,65,,,,,,,,,,,,,,,,,,,,,,,,,,,,,,,,,,,,,,,,,,None,,645.7867762899996,None,645.7867762899996,None,2022-10-03-10:10:24.452220,645.7871814999999,646.1025732999997,645.7871814999999,None,None,645.7871814999999,None,646.5872822900001,None,,,,22015,0002,2022_Oct_03_0959,localizer,2021.1.3,61.0338896777024,
block,scrambled,scrambled041.bmp,,,,,0,66,66,66,,,,,,,,,,,,,,,,,,,,,,,,,,,,,,,,,,,,,,,,,,None,,646.5872822900001,None,646.5872822900001,None,2022-10-03-10:10:25.255923,646.5915888,646.9062395999999,646.5915888,646.5915888,None,646.5915888,646.5915888,647.4026843900001,None,,,,22015,0002,2022_Oct_03_0959,localizer,2021.1.3,61.0338896777024,
block,scrambled,scrambled034.bmp,,,,,0,67,67,67,,,,,,,,,,,,,,,,,,,,,,,,,,,,,,,,,,,,,,,,,,None,,647.4026843900001,None,647.4026843900001,None,2022-10-03-10:10:26.065929,647.4039223,647.7194217999995,647.4039223,None,None,647.4039223,None,648.2041786899999,None,,,,22015,0002,2022_Oct_03_0959,localizer,2021.1.3,61.0338896777024,
block,scrambled,scrambled037.bmp,,,,,0,68,68,68,,,,,,,,,,,,,,,,,,,,,,,,,,,,,,,,,,,,,,,,,,None,,648.2041786899999,None,648.2041786899999,None,2022-10-03-10:10:26.872845,648.2081515,648.5195952999993,648.2081515,648.2081515,None,648.2081515,648.2081515,649.0193408899995,None,,,,22015,0002,2022_Oct_03_0959,localizer,2021.1.3,61.0338896777024,
block,scrambled,scrambled052.bmp,,,,,0,69,69,69,,,,,,,,,,,,,,,,,,,,,,,,,,,,,,,,,,,,,,,,,,None,,649.0193408899995,None,649.0193408899995,None,2022-10-03-10:10:27.683862,649.0204365,649.3196210999995,649.0204365,None,None,649.0204365,None,649.8206085900001,None,,,,22015,0002,2022_Oct_03_0959,localizer,2021.1.3,61.0338896777024,
block,scrambled,scrambled053.bmp,,,,,0,70,70,70,,,,,,,,,,,,,,,,,,,,,,,,,,,,,,,,,,,,,,,,,,None,,649.8206085900001,None,649.8206085900001,None,2022-10-03-10:10:28.489213,649.8352744999993,650.1363948999997,649.8352744999993,649.8352744999993,y,649.8352744999993,649.8352744999993,650.6367546900001,None,0.44791449999956967,,,22015,0002,2022_Oct_03_0959,localizer,2021.1.3,61.0338896777024,
block,scrambled,scrambled076.bmp,,,,,0,71,71,71,,,,,,,,,,,,,,,,,,,,,,,,,,,,,,,,,,,,,,,,,,None,,650.6367546900001,None,650.6367546900001,None,2022-10-03-10:10:29.303260,650.6385673999994,650.9531760999998,650.6385673999994,None,None,650.6385673999994,None,651.45902209,None,,,,22015,0002,2022_Oct_03_0959,localizer,2021.1.3,61.0338896777024,
block,scrambled,scrambled028.bmp,,,,,0,72,72,72,,,,,,,,,,,,,,,,,,,,,,,,,,,,,,,,,,,,,,,,,,None,,651.45902209,None,651.45902209,None,2022-10-03-10:10:30.123014,651.4628362999993,651.7704872999993,651.4628362999993,None,None,651.4628362999993,None,652.2694520899995,None,,,,22015,0002,2022_Oct_03_0959,localizer,2021.1.3,61.0338896777024,
block,scrambled,scrambled030.bmp,,,,,0,73,73,73,,,,,,,,,,,,,,,,,,,,,,,,,,,,,,,,,,,,,,,,,,None,,652.2694520899995,None,652.2694520899995,None,2022-10-03-10:10:30.933698,652.2705900000001,652.5717397999997,652.2705900000001,None,None,652.2705900000001,None,653.0858592899995,None,,,,22015,0002,2022_Oct_03_0959,localizer,2021.1.3,61.0338896777024,
block,scrambled,scrambled056.bmp,,,,,0,74,74,74,,,,,,,,,,,,,,,,,,,,,,,,,,,,,,,,,,,,,,,,,,None,,653.0858592899995,None,653.0858592899995,None,2022-10-03-10:10:31.749977,653.0872104,653.4028306,653.0872104,None,None,653.0872104,None,653.90260709,None,,,,22015,0002,2022_Oct_03_0959,localizer,2021.1.3,61.0338896777024,
block,scrambled,scrambled065.bmp,,,,,0,75,75,75,,,,,,,,,,,,,,,,,,,,,,,,,,,,,,,,,,,,,,,,,,None,,653.90260709,None,653.90260709,None,2022-10-03-10:10:32.566761,653.9039812999999,654.2026857999999,653.9039812999999,None,None,653.9039812999999,None,654.7191871899995,None,,,,22015,0002,2022_Oct_03_0959,localizer,2021.1.3,61.0338896777024,
block_end,scrambled,scrambled014.bmp,,,,,0,76,76,76,,,,,,,,,,,,,,,,,,,,,,,,,,,,,,,,,,,,,,,,,,None,,654.7191871899995,None,654.7191871899995,None,2022-10-03-10:10:33.383802,654.7203113999994,655.0190925999996,654.7203113999994,None,None,654.7203113999994,None,655.5358835899997,None,,,,22015,0002,2022_Oct_03_0959,localizer,2021.1.3,61.0338896777024,
block_start,faces,faces078.bmp,,,,,0,77,77,77,,,,,,,,,,,,,,,,,,,,,,,,,,,,,,,,,,,,,,,,,,t,1.796954100000221,655.5356732999999,None,655.5356732999999,None,2022-10-03-10:10:36.015458,657.3553920999993,657.6693657999995,657.3553920999993,None,None,657.3553920999993,None,658.1694112899995,None,,,,22015,0002,2022_Oct_03_0959,localizer,2021.1.3,61.0338896777024,
block,faces,faces070.bmp,,,,,0,78,78,78,,,,,,,,,,,,,,,,,,,,,,,,,,,,,,,,,,,,,,,,,,None,,658.1694112899995,None,658.1694112899995,None,2022-10-03-10:10:36.834079,658.1793358999994,658.4857938999994,658.1793358999994,None,None,658.1793358999994,None,658.9884773899994,None,,,,22015,0002,2022_Oct_03_0959,localizer,2021.1.3,61.0338896777024,
block,faces,faces057.bmp,,,,,0,79,79,79,,,,,,,,,,,,,,,,,,,,,,,,,,,,,,,,,,,,,,,,,,None,,658.9884773899994,None,658.9884773899994,None,2022-10-03-10:10:37.654311,658.9895567999993,659.3027052999996,658.9895567999993,None,None,658.9895567999993,None,659.8025937899993,None,,,,22015,0002,2022_Oct_03_0959,localizer,2021.1.3,61.0338896777024,
block,faces,faces002.bmp,,,,,0,80,80,80,,,,,,,,,,,,,,,,,,,,,,,,,,,,,,,,,,,,,,,,,,None,,659.8025937899993,None,659.8025937899993,None,2022-10-03-10:10:38.466290,659.8129067999998,660.1191779000001,659.8129067999998,None,None,659.8129067999998,None,660.6195730899999,None,,,,22015,0002,2022_Oct_03_0959,localizer,2021.1.3,61.0338896777024,
block,faces,faces067.bmp,,,,,0,81,81,81,,,,,,,,,,,,,,,,,,,,,,,,,,,,,,,,,,,,,,,,,,None,,660.6195730899999,None,660.6195730899999,None,2022-10-03-10:10:39.284308,660.6314954,660.9427511999993,660.6314954,None,None,660.6314954,None,661.43605639,None,,,,22015,0002,2022_Oct_03_0959,localizer,2021.1.3,61.0338896777024,
block,faces,faces021.bmp,,,,,0,82,82,82,,,,,,,,,,,,,,,,,,,,,,,,,,,,,,,,,,,,,,,,,,None,,661.43605639,None,661.43605639,None,2022-10-03-10:10:40.101147,661.4465260999996,661.7527536999996,661.4465260999996,None,None,661.4465260999996,None,662.25307419,None,,,,22015,0002,2022_Oct_03_0959,localizer,2021.1.3,61.0338896777024,
block,faces,faces008.bmp,,,,,0,83,83,83,,,,,,,,,,,,,,,,,,,,,,,,,,,,,,,,,,,,,,,,,,None,,662.25307419,None,662.25307419,None,2022-10-03-10:10:40.918018,662.2647730999997,662.5695311,662.2647730999997,None,None,662.2647730999997,None,663.0695297900002,None,,,,22015,0002,2022_Oct_03_0959,localizer,2021.1.3,61.0338896777024,
block,faces,faces025.bmp,,,,,0,84,84,84,,,,,,,,,,,,,,,,,,,,,,,,,,,,,,,,,,,,,,,,,,None,,663.0695297900002,None,663.0695297900002,None,2022-10-03-10:10:41.733688,663.0783394999999,663.3864128999994,663.0783394999999,None,None,663.0783394999999,None,663.8868810899994,None,,,,22015,0002,2022_Oct_03_0959,localizer,2021.1.3,61.0338896777024,
block,faces,faces062.bmp,,,,,0,85,85,85,,,,,,,,,,,,,,,,,,,,,,,,,,,,,,,,,,,,,,,,,,None,,663.8868810899994,None,663.8868810899994,None,2022-10-03-10:10:42.552623,663.8985200999996,664.2090539999999,663.8985200999996,None,None,663.8985200999996,None,664.7025499900001,None,,,,22015,0002,2022_Oct_03_0959,localizer,2021.1.3,61.0338896777024,
block,faces,faces019.bmp,,,,,0,86,86,86,,,,,,,,,,,,,,,,,,,,,,,,,,,,,,,,,,,,,,,,,,None,,664.7025499900001,None,664.7025499900001,None,2022-10-03-10:10:43.367320,664.7040606999999,665.0191451999999,664.7040606999999,None,None,664.7040606999999,None,665.5189666899996,None,,,,22015,0002,2022_Oct_03_0959,localizer,2021.1.3,61.0338896777024,
block,faces,faces033.bmp,,,,,0,87,87,87,,,,,,,,,,,,,,,,,,,,,,,,,,,,,,,,,,,,,,,,,,None,,665.5189666899996,None,665.5189666899996,None,2022-10-03-10:10:44.182563,665.5352990000001,665.8354687000001,665.5352990000001,None,None,665.5352990000001,None,666.3358838899994,None,,,,22015,0002,2022_Oct_03_0959,localizer,2021.1.3,61.0338896777024,
block,faces,faces061.bmp,,,,,0,88,88,88,,,,,,,,,,,,,,,,,,,,,,,,,,,,,,,,,,,,,,,,,,None,,666.3358838899994,None,666.3358838899994,None,2022-10-03-10:10:45.000239,666.3469404999996,666.6524153,666.3469404999996,None,None,666.3469404999996,None,667.1427221899994,None,,,,22015,0002,2022_Oct_03_0959,localizer,2021.1.3,61.0338896777024,
block,faces,faces018.bmp,,,,,0,89,89,89,,,,,,,,,,,,,,,,,,,,,,,,,,,,,,,,,,,,,,,,,,None,,667.1427221899994,None,667.1427221899994,None,2022-10-03-10:10:45.815400,667.1523440999999,667.4526855999993,667.1523440999999,None,None,667.1523440999999,None,667.9529202899994,None,,,,22015,0002,2022_Oct_03_0959,localizer,2021.1.3,61.0338896777024,
block,faces,faces072.bmp,,,,,0,90,90,90,,,,,,,,,,,,,,,,,,,,,,,,,,,,,,,,,,,,,,,,,,None,,667.9529202899994,None,667.9529202899994,None,2022-10-03-10:10:46.617980,667.9632216,668.2691150999999,667.9632216,None,None,667.9632216,None,668.7691994899997,None,,,,22015,0002,2022_Oct_03_0959,localizer,2021.1.3,61.0338896777024,
block_end,faces,faces072.bmp,,,,,0,91,91,91,,,,,,,,,,,,,,,,,,,,,,,,,,,,,,,,,,,,,,,,,,None,,668.7691994899997,None,668.7691994899997,None,2022-10-03-10:10:47.432620,668.7713680999996,669.0861174000001,668.7713680999996,None,y,668.7713680999996,None,669.5858117899998,None,0.5336539999998422,,,22015,0002,2022_Oct_03_0959,localizer,2021.1.3,61.0338896777024,
block_start,scenes,scenes011.bmp,,,,,0,92,92,92,,,,,,,,,,,,,,,,,,,,,,,,,,,,,,,,,,,,,,,,,,t,1.7465426999997362,669.5858573999994,None,669.5858573999994,None,2022-10-03-10:10:50.016416,671.3548228999998,671.6691308999998,671.3548228999998,None,None,671.3548228999998,None,672.1695072899993,None,,,,22015,0002,2022_Oct_03_0959,localizer,2021.1.3,61.0338896777024,
block,scenes,scenes074.bmp,,,,,0,93,93,93,,,,,,,,,,,,,,,,,,,,,,,,,,,,,,,,,,,,,,,,,,None,,672.1695072899993,None,672.1695072899993,None,2022-10-03-10:10:50.834674,672.1778553999993,672.4857193999997,672.1778553999993,None,None,672.1778553999993,None,672.9861987899994,None,,,,22015,0002,2022_Oct_03_0959,localizer,2021.1.3,61.0338896777024,
block,scenes,scenes021.bmp,,,,,0,94,94,94,,,,,,,,,,,,,,,,,,,,,,,,,,,,,,,,,,,,,,,,,,None,,672.9861987899994,None,672.9861987899994,None,2022-10-03-10:10:51.651097,672.9871464999997,673.3027253999999,672.9871464999997,None,None,672.9871464999997,None,673.7867998900001,None,,,,22015,0002,2022_Oct_03_0959,localizer,2021.1.3,61.0338896777024,
block,scenes,scenes014.bmp,,,,,0,95,95,95,,,,,,,,,,,,,,,,,,,,,,,,,,,,,,,,,,,,,,,,,,None,,673.7867998900001,None,673.7867998900001,None,2022-10-03-10:10:52.451717,673.7871274999998,674.0864473000001,673.7871274999998,673.7871274999998,None,673.7871274999998,673.7871274999998,674.5863457899995,None,,,,22015,0002,2022_Oct_03_0959,localizer,2021.1.3,61.0338896777024,
block,scenes,scenes046.bmp,,,,,0,96,96,96,,,,,,,,,,,,,,,,,,,,,,,,,,,,,,,,,,,,,,,,,,None,,674.5863457899995,None,674.5863457899995,None,2022-10-03-10:10:53.252831,674.5869929,674.8862738999997,674.5869929,674.5869929,None,674.5869929,674.5869929,675.3863392899993,None,,,,22015,0002,2022_Oct_03_0959,localizer,2021.1.3,61.0338896777024,
block,scenes,scenes079.bmp,,,,,0,97,97,97,,,,,,,,,,,,,,,,,,,,,,,,,,,,,,,,,,,,,,,,,,None,,675.3863392899993,None,675.3863392899993,None,2022-10-03-10:10:54.052773,675.3973534999996,675.7026974999999,675.3973534999996,675.3973534999996,None,675.3973534999996,675.3973534999996,676.2030631899997,None,,,,22015,0002,2022_Oct_03_0959,localizer,2021.1.3,61.0338896777024,
block,scenes,scenes035.bmp,,,,,0,98,98,98,,,,,,,,,,,,,,,,,,,,,,,,,,,,,,,,,,,,,,,,,,None,,676.2030631899997,None,676.2030631899997,None,2022-10-03-10:10:54.868010,676.2115218999998,676.5193550999993,676.2115218999998,None,None,676.2115218999998,None,677.0194769899999,None,,,,22015,0002,2022_Oct_03_0959,localizer,2021.1.3,61.0338896777024,
block,scenes,scenes053.bmp,,,,,0,99,99,99,,,,,,,,,,,,,,,,,,,,,,,,,,,,,,,,,,,,,,,,,,None,,677.0194769899999,None,677.0194769899999,None,2022-10-03-10:10:55.683573,677.0208052999997,677.3361803999996,677.0208052999997,None,None,677.0208052999997,None,677.83601989,None,,,,22015,0002,2022_Oct_03_0959,localizer,2021.1.3,61.0338896777024,
block,scenes,scenes029.bmp,,,,,0,100,100,100,,,,,,,,,,,,,,,,,,,,,,,,,,,,,,,,,,,,,,,,,,None,,677.83601989,None,677.83601989,None,2022-10-03-10:10:56.499744,677.8379011999996,678.1527063999993,677.8379011999996,None,None,677.8379011999996,None,678.6531300899996,None,,,,22015,0002,2022_Oct_03_0959,localizer,2021.1.3,61.0338896777024,
block,scenes,scenes017.bmp,,,,,0,101,101,101,,,,,,,,,,,,,,,,,,,,,,,,,,,,,,,,,,,,,,,,,,None,,678.6531300899996,None,678.6531300899996,None,2022-10-03-10:10:57.317266,678.6618171999999,678.9692349999996,678.6618171999999,None,None,678.6618171999999,None,679.4692121899998,None,,,,22015,0002,2022_Oct_03_0959,localizer,2021.1.3,61.0338896777024,
block,scenes,scenes086.bmp,,,,,0,102,102,102,,,,,,,,,,,,,,,,,,,,,,,,,,,,,,,,,,,,,,,,,,None,,679.4692121899998,None,679.4692121899998,None,2022-10-03-10:10:58.133010,679.4774109,679.7861416999995,679.4774109,None,None,679.4774109,None,680.28625199,None,,,,22015,0002,2022_Oct_03_0959,localizer,2021.1.3,61.0338896777024,
block,scenes,scenes073.bmp,,,,,0,103,103,103,,,,,,,,,,,,,,,,,,,,,,,,,,,,,,,,,,,,,,,,,,None,,680.28625199,None,680.28625199,None,2022-10-03-10:10:58.950141,680.2969149999999,680.6026788999998,680.2969149999999,None,None,680.2969149999999,None,681.1026937899996,None,,,,22015,0002,2022_Oct_03_0959,localizer,2021.1.3,61.0338896777024,
block,scenes,scenes016.bmp,,,,,0,104,104,104,,,,,,,,,,,,,,,,,,,,,,,,,,,,,,,,,,,,,,,,,,None,,681.1026937899996,None,681.1026937899996,None,2022-10-03-10:10:59.766873,681.1188415999995,681.4191599999995,681.1188415999995,None,None,681.1188415999995,None,681.9218613899993,None,,,,22015,0002,2022_Oct_03_0959,localizer,2021.1.3,61.0338896777024,
block,scenes,scenes026.bmp,,,,,0,105,105,105,,,,,,,,,,,,,,,,,,,,,,,,,,,,,,,,,,,,,,,,,,None,,681.9218613899993,None,681.9218613899993,None,2022-10-03-10:11:00.590844,681.9395873999993,682.2525021000001,681.9395873999993,None,None,681.9395873999993,None,682.7363176899999,None,,,,22015,0002,2022_Oct_03_0959,localizer,2021.1.3,61.0338896777024,
block_end,scenes,scenes092.bmp,,,,,0,106,106,106,,,,,,,,,,,,,,,,,,,,,,,,,,,,,,,,,,,,,,,,,,None,,682.7363176899999,None,682.7363176899999,None,2022-10-03-10:11:01.401628,682.7459819999995,683.0529656999997,682.7459819999995,None,None,682.7459819999995,None,683.5529622899994,None,,,,22015,0002,2022_Oct_03_0959,localizer,2021.1.3,61.0338896777024,
block_start,objects,objects059.bmp,,,,,0,107,107,107,,,,,,,,,,,,,,,,,,,,,,,,,,,,,,,,,,,,,,,,,,t,1.7794234000002689,683.5529929999993,None,683.5529929999993,None,2022-10-03-10:11:04.016275,685.3607717999994,685.6689808000001,685.3607717999994,None,None,685.3607717999994,None,686.1694721899994,None,,,,22015,0002,2022_Oct_03_0959,localizer,2021.1.3,61.0338896777024,
block,objects,objects060.bmp,,,,,0,108,108,108,,,,,,,,,,,,,,,,,,,,,,,,,,,,,,,,,,,,,,,,,,None,,686.1694721899994,None,686.1694721899994,None,2022-10-03-10:11:04.833268,686.1708122999999,686.4758406000001,686.1708122999999,None,None,686.1708122999999,None,686.9698660899994,None,,,,22015,0002,2022_Oct_03_0959,localizer,2021.1.3,61.0338896777024,
block,objects,objects013.bmp,,,,,0,109,109,109,,,,,,,,,,,,,,,,,,,,,,,,,,,,,,,,,,,,,,,,,,None,,686.9698660899994,None,686.9698660899994,None,2022-10-03-10:11:05.636209,686.9705927999994,687.269456,686.9705927999994,686.9705927999994,None,686.9705927999994,686.9705927999994,687.7697348900001,None,,,,22015,0002,2022_Oct_03_0959,localizer,2021.1.3,61.0338896777024,
block,objects,objects010.bmp,,,,,0,110,110,110,,,,,,,,,,,,,,,,,,,,,,,,,,,,,,,,,,,,,,,,,,None,,687.7697348900001,None,687.7697348900001,None,2022-10-03-10:11:06.436107,687.7701116999997,688.0695821999998,687.7701116999997,687.7701116999997,None,687.7701116999997,687.7701116999997,688.5696013899997,None,,,,22015,0002,2022_Oct_03_0959,localizer,2021.1.3,61.0338896777024,
block,objects,objects051.bmp,,,,,0,111,111,111,,,,,,,,,,,,,,,,,,,,,,,,,,,,,,,,,,,,,,,,,,None,,688.5696013899997,None,688.5696013899997,None,2022-10-03-10:11:07.235241,688.5784540999994,688.8870110999997,688.5784540999994,688.5784540999994,None,688.5784540999994,688.5784540999994,689.38613859,None,,,,22015,0002,2022_Oct_03_0959,localizer,2021.1.3,61.0338896777024,
block,objects,objects034.bmp,,,,,0,112,112,112,,,,,,,,,,,,,,,,,,,,,,,,,,,,,,,,,,,,,,,,,,None,,689.38613859,None,689.38613859,None,2022-10-03-10:11:08.049967,689.3881272999997,689.702773,689.3881272999997,None,None,689.3881272999997,None,690.2029116899994,None,,,,22015,0002,2022_Oct_03_0959,localizer,2021.1.3,61.0338896777024,
block,objects,objects019.bmp,,,,,0,113,113,113,,,,,,,,,,,,,,,,,,,,,,,,,,,,,,,,,,,,,,,,,,None,,690.2029116899994,None,690.2029116899994,None,2022-10-03-10:11:08.868085,690.2038576999994,690.5192041,690.2038576999994,None,None,690.2038576999994,None,691.0030401899994,None,,,,22015,0002,2022_Oct_03_0959,localizer,2021.1.3,61.0338896777024,
block,objects,objects031.bmp,,,,,0,114,114,114,,,,,,,,,,,,,,,,,,,,,,,,,,,,,,,,,,,,,,,,,,None,,691.0030401899994,None,691.0030401899994,None,2022-10-03-10:11:09.669955,691.0129631,691.3194115999995,691.0129631,691.0129631,None,691.0129631,691.0129631,691.8235791899997,None,,,,22015,0002,2022_Oct_03_0959,localizer,2021.1.3,61.0338896777024,
block,objects,objects057.bmp,,,,,0,115,115,115,,,,,,,,,,,,,,,,,,,,,,,,,,,,,,,,,,,,,,,,,,None,,691.8235791899997,None,691.8235791899997,None,2022-10-03-10:11:10.492907,691.8377667999994,692.1528723000001,691.8377667999994,None,None,691.8377667999994,None,692.6370383899994,None,,,,22015,0002,2022_Oct_03_0959,localizer,2021.1.3,61.0338896777024,
block,objects,objects072.bmp,,,,,0,116,116,116,,,,,,,,,,,,,,,,,,,,,,,,,,,,,,,,,,,,,,,,,,None,,692.6370383899994,None,692.6370383899994,None,2022-10-03-10:11:11.303623,692.6487829999996,692.9530667999998,692.6487829999996,None,None,692.6487829999996,None,693.4530161899993,None,,,,22015,0002,2022_Oct_03_0959,localizer,2021.1.3,61.0338896777024,
block,objects,objects018.bmp,,,,,0,117,117,117,,,,,,,,,,,,,,,,,,,,,,,,,,,,,,,,,,,,,,,,,,None,,693.4530161899993,None,693.4530161899993,None,2022-10-03-10:11:12.118241,693.4621315999993,693.7696020999992,693.4621315999993,None,None,693.4621315999993,None,694.2695415899998,None,,,,22015,0002,2022_Oct_03_0959,localizer,2021.1.3,61.0338896777024,
block,objects,objects004.bmp,,,,,0,118,118,118,,,,,,,,,,,,,,,,,,,,,,,,,,,,,,,,,,,,,,,,,,None,,694.2695415899998,None,694.2695415899998,None,2022-10-03-10:11:12.934468,694.2774939000001,694.5867688999997,694.2774939000001,None,None,694.2774939000001,None,695.0860285899998,None,,,,22015,0002,2022_Oct_03_0959,localizer,2021.1.3,61.0338896777024,
block,objects,objects064.bmp,,,,,0,119,119,119,,,,,,,,,,,,,,,,,,,,,,,,,,,,,,,,,,,,,,,,,,None,,695.0860285899998,None,695.0860285899998,None,2022-10-03-10:11:13.750114,695.0874080999993,695.4024642999993,695.0874080999993,None,None,695.0874080999993,None,695.9027263899998,None,,,,22015,0002,2022_Oct_03_0959,localizer,2021.1.3,61.0338896777024,
block,objects,objects048.bmp,,,,,0,120,120,120,,,,,,,,,,,,,,,,,,,,,,,,,,,,,,,,,,,,,,,,,,None,,695.9027263899998,None,695.9027263899998,None,2022-10-03-10:11:14.568328,695.9125758,696.2196622000001,695.9125758,None,None,695.9125758,None,696.7193487899995,None,,,,22015,0002,2022_Oct_03_0959,localizer,2021.1.3,61.0338896777024,
block_end,objects,objects049.bmp,,,,,0,121,121,121,,,,,,,,,,,,,,,,,,,,,,,,,,,,,,,,,,,,,,,,,,None,,696.7193487899995,None,696.7193487899995,None,2022-10-03-10:11:15.383297,696.7270979999994,697.0361201999995,696.7270979999994,None,None,696.7270979999994,None,697.5365152899994,None,,,,22015,0002,2022_Oct_03_0959,localizer,2021.1.3,61.0338896777024,
block_start,faces,faces045.bmp,,,,,0,122,122,122,,,,,,,,,,,,,,,,,,,,,,,,,,,,,,,,,,,,,,,,,,t,1.796038800000133,697.5363226,None,697.5363226,None,2022-10-03-10:11:18.018052,699.3540282999993,699.6695793999997,699.3540282999993,None,None,699.3540282999993,None,700.1530513899997,None,,,,22015,0002,2022_Oct_03_0959,localizer,2021.1.3,61.0338896777024,
block,faces,faces026.bmp,,,,,0,123,123,123,,,,,,,,,,,,,,,,,,,,,,,,,,,,,,,,,,,,,,,,,,None,,700.1530513899997,None,700.1530513899997,None,2022-10-03-10:11:18.820372,700.1544952999993,700.4696459999996,700.1544952999993,700.1544952999993,None,700.1544952999993,700.1544952999993,700.9694879899998,None,,,,22015,0002,2022_Oct_03_0959,localizer,2021.1.3,61.0338896777024,
block,faces,faces074.bmp,,,,,0,124,124,124,,,,,,,,,,,,,,,,,,,,,,,,,,,,,,,,,,,,,,,,,,None,,700.9694879899998,None,700.9694879899998,None,2022-10-03-10:11:19.634019,700.9759100000001,701.2863349999998,700.9759100000001,None,None,700.9759100000001,None,701.7860509900001,None,,,,22015,0002,2022_Oct_03_0959,localizer,2021.1.3,61.0338896777024,
block,faces,faces085.bmp,,,,,0,125,125,125,,,,,,,,,,,,,,,,,,,,,,,,,,,,,,,,,,,,,,,,,,None,,701.7860509900001,None,701.7860509900001,None,2022-10-03-10:11:20.450137,701.7875011999995,702.1030228,701.7875011999995,None,None,701.7875011999995,None,702.6030366899995,None,,,,22015,0002,2022_Oct_03_0959,localizer,2021.1.3,61.0338896777024,
block,faces,faces022.bmp,,,,,0,126,126,126,,,,,,,,,,,,,,,,,,,,,,,,,,,,,,,,,,,,,,,,,,None,,702.6030366899995,None,702.6030366899995,None,2022-10-03-10:11:21.268443,702.6040454999993,702.9194037999996,702.6040454999993,None,None,702.6040454999993,None,703.4196606899995,None,,,,22015,0002,2022_Oct_03_0959,localizer,2021.1.3,61.0338896777024,
block,faces,faces012.bmp,,,,,0,127,127,127,,,,,,,,,,,,,,,,,,,,,,,,,,,,,,,,,,,,,,,,,,None,,703.4196606899995,None,703.4196606899995,None,2022-10-03-10:11:22.085038,703.4207503999996,703.7213787999999,703.4207503999996,None,None,703.4207503999996,None,704.2202123899997,None,,,,22015,0002,2022_Oct_03_0959,localizer,2021.1.3,61.0338896777024,
block,faces,faces024.bmp,,,,,0,128,128,128,,,,,,,,,,,,,,,,,,,,,,,,,,,,,,,,,,,,,,,,,,None,,704.2202123899997,None,704.2202123899997,None,2022-10-03-10:11:22.888591,704.2230589999999,704.5365671,704.2230589999999,704.2230589999999,None,704.2230589999999,704.2230589999999,705.0365299899995,None,,,,22015,0002,2022_Oct_03_0959,localizer,2021.1.3,61.0338896777024,
block,faces,faces047.bmp,,,,,0,129,129,129,,,,,,,,,,,,,,,,,,,,,,,,,,,,,,,,,,,,,,,,,,None,,705.0365299899995,None,705.0365299899995,None,2022-10-03-10:11:23.701934,705.0477559999999,705.3529202,705.0477559999999,None,None,705.0477559999999,None,705.8531784899997,None,,,,22015,0002,2022_Oct_03_0959,localizer,2021.1.3,61.0338896777024,
block,faces,faces004.bmp,,,,,0,130,130,130,,,,,,,,,,,,,,,,,,,,,,,,,,,,,,,,,,,,,,,,,,None,,705.8531784899997,None,705.8531784899997,None,2022-10-03-10:11:24.518597,705.8540679999996,706.1696290999998,705.8540679999996,None,None,705.8540679999996,None,706.6697510899994,None,,,,22015,0002,2022_Oct_03_0959,localizer,2021.1.3,61.0338896777024,
block,faces,faces017.bmp,,,,,0,131,131,131,,,,,,,,,,,,,,,,,,,,,,,,,,,,,,,,,,,,,,,,,,None,,706.6697510899994,None,706.6697510899994,None,2022-10-03-10:11:25.334026,706.6710778999995,706.9859652999994,706.6710778999995,None,None,706.6710778999995,None,707.4861705899993,None,,,,22015,0002,2022_Oct_03_0959,localizer,2021.1.3,61.0338896777024,
block,faces,faces039.bmp,,,,,0,132,132,132,,,,,,,,,,,,,,,,,,,,,,,,,,,,,,,,,,,,,,,,,,None,,707.4861705899993,None,707.4861705899993,None,2022-10-03-10:11:26.152216,707.4976526999999,707.8023589999993,707.4976526999999,None,None,707.4976526999999,None,708.3031631899994,None,,,,22015,0002,2022_Oct_03_0959,localizer,2021.1.3,61.0338896777024,
block,faces,faces013.bmp,,,,,0,133,133,133,,,,,,,,,,,,,,,,,,,,,,,,,,,,,,,,,,,,,,,,,,None,,708.3031631899994,None,708.3031631899994,None,2022-10-03-10:11:26.967550,708.3046102999997,708.6193944999995,708.3046102999997,None,None,708.3046102999997,None,709.1195860899998,None,,,,22015,0002,2022_Oct_03_0959,localizer,2021.1.3,61.0338896777024,
block,faces,faces060.bmp,,,,,0,134,134,134,,,,,,,,,,,,,,,,,,,,,,,,,,,,,,,,,,,,,,,,,,None,,709.1195860899998,None,709.1195860899998,None,2022-10-03-10:11:27.784084,709.1240539,709.4364240999994,709.1240539,None,None,709.1240539,None,709.9359233899995,None,,,,22015,0002,2022_Oct_03_0959,localizer,2021.1.3,61.0338896777024,
block,faces,faces027.bmp,,,,,0,135,135,135,,,,,,,,,,,,,,,,,,,,,,,,,,,,,,,,,,,,,,,,,,None,,709.9359233899995,None,709.9359233899995,None,2022-10-03-10:11:28.600894,709.9375110000001,710.2530761999997,709.9375110000001,None,None,709.9375110000001,None,710.7532192899998,None,,,,22015,0002,2022_Oct_03_0959,localizer,2021.1.3,61.0338896777024,
block_end,faces,faces031.bmp,,,,,0,136,136,136,,,,,,,,,,,,,,,,,,,,,,,,,,,,,,,,,,,,,,,,,,None,,710.7532192899998,None,710.7532192899998,None,2022-10-03-10:11:29.419090,710.7605162,711.0695269999997,710.7605162,None,None,710.7605162,None,711.5696308899996,None,,,,22015,0002,2022_Oct_03_0959,localizer,2021.1.3,61.0338896777024,
block_start,objects,objects071.bmp,,,,,0,137,137,137,,,,,,,,,,,,,,,,,,,,,,,,,,,,,,,,,,,,,,,,,,t,1.7619955999998638,711.5694048999994,None,711.5694048999994,None,2022-10-03-10:11:32.018291,713.3547476999993,713.6694758999993,713.3547476999993,None,None,713.3547476999993,None,714.16972429,None,,,,22015,0002,2022_Oct_03_0959,localizer,2021.1.3,61.0338896777024,
block,objects,objects019.bmp,,,,,0,138,138,138,,,,,,,,,,,,,,,,,,,,,,,,,,,,,,,,,,,,,,,,,,None,,714.16972429,None,714.16972429,None,2022-10-03-10:11:32.834113,714.1714429999993,714.4865675000001,714.1714429999993,None,None,714.1714429999993,None,714.9862961899998,None,,,,22015,0002,2022_Oct_03_0959,localizer,2021.1.3,61.0338896777024,
block,objects,objects005.bmp,,,,,0,139,139,139,,,,,,,,,,,,,,,,,,,,,,,,,,,,,,,,,,,,,,,,,,None,,714.9862961899998,None,714.9862961899998,None,2022-10-03-10:11:33.651217,714.9874691999994,715.3032069000001,714.9874691999994,None,None,714.9874691999994,None,715.7865856899998,None,,,,22015,0002,2022_Oct_03_0959,localizer,2021.1.3,61.0338896777024,
block,objects,objects049.bmp,,,,,0,140,140,140,,,,,,,,,,,,,,,,,,,,,,,,,,,,,,,,,,,,,,,,,,None,,715.7865856899998,None,715.7865856899998,None,2022-10-03-10:11:34.453404,715.7872343999998,716.1028836999994,715.7872343999998,715.7872343999998,None,715.7872343999998,715.7872343999998,716.5865875899999,None,,,,22015,0002,2022_Oct_03_0959,localizer,2021.1.3,61.0338896777024,
block,objects,objects034.bmp,,,,,0,141,141,141,,,,,,,,,,,,,,,,,,,,,,,,,,,,,,,,,,,,,,,,,,None,,716.5865875899999,None,716.5865875899999,None,2022-10-03-10:11:35.253172,716.5874623999998,716.9029112999997,716.5874623999998,716.5874623999998,None,716.5874623999998,716.5874623999998,717.3865467899996,None,,,,22015,0002,2022_Oct_03_0959,localizer,2021.1.3,61.0338896777024,
block,objects,objects058.bmp,,,,,0,142,142,142,,,,,,,,,,,,,,,,,,,,,,,,,,,,,,,,,,,,,,,,,,None,,717.3865467899996,None,717.3865467899996,None,2022-10-03-10:11:36.053144,717.3875367,717.7028191999998,717.3875367,717.3875367,None,717.3875367,717.3875367,718.2029954899999,None,,,,22015,0002,2022_Oct_03_0959,localizer,2021.1.3,61.0338896777024,
block,objects,objects058.bmp,,,,,0,143,143,143,,,,,,,,,,,,,,,,,,,,,,,,,,,,,,,,,,,,,,,,,,None,,718.2029954899999,None,718.2029954899999,None,2022-10-03-10:11:36.867262,718.2044784999998,718.5201354000001,718.2044784999998,None,y,718.2044784999998,None,719.0199951899995,None,0.48177120000036666,,,22015,0002,2022_Oct_03_0959,localizer,2021.1.3,61.0338896777024,
block,objects,objects043.bmp,,,,,0,144,144,144,,,,,,,,,,,,,,,,,,,,,,,,,,,,,,,,,,,,,,,,,,None,,719.0199951899995,None,719.0199951899995,None,2022-10-03-10:11:37.685167,719.0213514999996,719.3367349999999,719.0213514999996,None,None,719.0213514999996,None,719.8362052899993,None,,,,22015,0002,2022_Oct_03_0959,localizer,2021.1.3,61.0338896777024,
block,objects,objects074.bmp,,,,,0,145,145,145,,,,,,,,,,,,,,,,,,,,,,,,,,,,,,,,,,,,,,,,,,None,,719.8362052899993,None,719.8362052899993,None,2022-10-03-10:11:38.500768,719.8376568999993,720.1532311999999,719.8376568999993,None,None,719.8376568999993,None,720.65284849,None,,,,22015,0002,2022_Oct_03_0959,localizer,2021.1.3,61.0338896777024,
block,objects,objects087.bmp,,,,,0,146,146,146,,,,,,,,,,,,,,,,,,,,,,,,,,,,,,,,,,,,,,,,,,None,,720.65284849,None,720.65284849,None,2022-10-03-10:11:39.317266,720.6609872999998,720.9696802999997,720.6609872999998,None,None,720.6609872999998,None,721.4692328900001,None,,,,22015,0002,2022_Oct_03_0959,localizer,2021.1.3,61.0338896777024,
block,objects,objects006.bmp,,,,,0,147,147,147,,,,,,,,,,,,,,,,,,,,,,,,,,,,,,,,,,,,,,,,,,None,,721.4692328900001,None,721.4692328900001,None,2022-10-03-10:11:40.133872,721.471321,721.7864092,721.471321,None,None,721.471321,None,722.2864334899996,None,,,,22015,0002,2022_Oct_03_0959,localizer,2021.1.3,61.0338896777024,
block,objects,objects023.bmp,,,,,0,148,148,148,,,,,,,,,,,,,,,,,,,,,,,,,,,,,,,,,,,,,,,,,,None,,722.2864334899996,None,722.2864334899996,None,2022-10-03-10:11:40.951561,722.2873976000001,722.5861318999996,722.2873976000001,None,None,722.2873976000001,None,723.0869881899998,None,,,,22015,0002,2022_Oct_03_0959,localizer,2021.1.3,61.0338896777024,
block,objects,objects027.bmp,,,,,0,149,149,149,,,,,,,,,,,,,,,,,,,,,,,,,,,,,,,,,,,,,,,,,,None,,723.0869881899998,None,723.0869881899998,None,2022-10-03-10:11:41.755878,723.0897547999994,723.4031520999997,723.0897547999994,723.0897547999994,None,723.0897547999994,723.0897547999994,723.9034296899999,None,,,,22015,0002,2022_Oct_03_0959,localizer,2021.1.3,61.0338896777024,
block,objects,objects035.bmp,,,,,0,150,150,150,,,,,,,,,,,,,,,,,,,,,,,,,,,,,,,,,,,,,,,,,,None,,723.9034296899999,None,723.9034296899999,None,2022-10-03-10:11:42.569129,723.9124142999999,724.2199345999998,723.9124142999999,None,None,723.9124142999999,None,724.7195451899997,None,,,,22015,0002,2022_Oct_03_0959,localizer,2021.1.3,61.0338896777024,
block_end,objects,objects084.bmp,,,,,0,151,151,151,,,,,,,,,,,,,,,,,,,,,,,,,,,,,,,,,,,,,,,,,,None,,724.7195451899997,None,724.7195451899997,None,2022-10-03-10:11:43.384653,724.7209225999995,725.0363054999998,724.7209225999995,None,None,724.7209225999995,None,725.5364774899999,None,,,,22015,0002,2022_Oct_03_0959,localizer,2021.1.3,61.0338896777024,
null_block,null_block,null_block.bmp,,,,,0,152,152,152,,,,,,,,,,,,,,,,,,,,,,,,,,,,,,,,,,,,,,,,,,t,1.7948927999996158,725.5364165999999,None,725.5364165999999,None,2022-10-03-10:11:46.018247,727.3531847899994,None,727.3531847899994,None,None,727.3531847899994,None,727.3557740999995,None,,,,22015,0002,2022_Oct_03_0959,localizer,2021.1.3,61.0338896777024,
block_start,scenes,scenes069.bmp,,,,,0,153,153,153,,,,,,,,,,,,,,,,,,,,,,,,,,,,,,,,,,,,,,,,,,t,1.961512799999582,739.3698406999993,None,739.3698406999993,None,2022-10-03-10:12:00.026890,741.3608298999998,741.6697283999993,741.3608298999998,None,None,741.3608298999998,None,742.1700403899995,None,,,,22015,0002,2022_Oct_03_0959,localizer,2021.1.3,61.0338896777024,
block,scenes,scenes035.bmp,,,,,0,154,154,154,,,,,,,,,,,,,,,,,,,,,,,,,,,,,,,,,,,,,,,,,,None,,742.1700403899995,None,742.1700403899995,None,2022-10-03-10:12:00.836614,742.1710458999996,742.4864914999998,742.1710458999996,None,None,742.1710458999996,None,742.98671139,None,,,,22015,0002,2022_Oct_03_0959,localizer,2021.1.3,61.0338896777024,
block,scenes,scenes077.bmp,,,,,0,155,155,155,,,,,,,,,,,,,,,,,,,,,,,,,,,,,,,,,,,,,,,,,,None,,742.98671139,None,742.98671139,None,2022-10-03-10:12:01.652717,742.9876939999995,743.3032779999994,742.9876939999995,None,None,742.9876939999995,None,743.7872568899993,None,,,,22015,0002,2022_Oct_03_0959,localizer,2021.1.3,61.0338896777024,
block,scenes,scenes064.bmp,,,,,0,156,156,156,,,,,,,,,,,,,,,,,,,,,,,,,,,,,,,,,,,,,,,,,,None,,743.7872568899993,None,743.7872568899993,None,2022-10-03-10:12:02.456261,743.7997877999996,744.1031351000001,743.7997877999996,743.7997877999996,None,743.7997877999996,743.7997877999996,744.6027945899996,None,,,,22015,0002,2022_Oct_03_0959,localizer,2021.1.3,61.0338896777024,
block,scenes,scenes012.bmp,,,,,0,157,157,157,,,,,,,,,,,,,,,,,,,,,,,,,,,,,,,,,,,,,,,,,,None,,744.6027945899996,None,744.6027945899996,None,2022-10-03-10:12:03.269235,744.6084645999999,744.9211366999998,744.6084645999999,None,None,744.6084645999999,None,745.4197301899994,None,,,,22015,0002,2022_Oct_03_0959,localizer,2021.1.3,61.0338896777024,
block,scenes,scenes088.bmp,,,,,0,158,158,158,,,,,,,,,,,,,,,,,,,,,,,,,,,,,,,,,,,,,,,,,,None,,745.4197301899994,None,745.4197301899994,None,2022-10-03-10:12:04.084435,745.4219453999995,745.7365909,745.4219453999995,None,None,745.4219453999995,None,746.2363590899995,None,,,,22015,0002,2022_Oct_03_0959,localizer,2021.1.3,61.0338896777024,
block,scenes,scenes076.bmp,,,,,0,159,159,159,,,,,,,,,,,,,,,,,,,,,,,,,,,,,,,,,,,,,,,,,,None,,746.2363590899995,None,746.2363590899995,None,2022-10-03-10:12:04.901712,746.2378874999995,746.5533563999998,746.2378874999995,None,None,746.2378874999995,None,747.0532539899996,None,,,,22015,0002,2022_Oct_03_0959,localizer,2021.1.3,61.0338896777024,
block,scenes,scenes085.bmp,,,,,0,160,160,160,,,,,,,,,,,,,,,,,,,,,,,,,,,,,,,,,,,,,,,,,,None,,747.0532539899996,None,747.0532539899996,None,2022-10-03-10:12:05.717925,747.0612299999993,747.3692641999996,747.0612299999993,None,None,747.0612299999993,None,747.8696624899994,None,,,,22015,0002,2022_Oct_03_0959,localizer,2021.1.3,61.0338896777024,
block,scenes,scenes054.bmp,,,,,0,161,161,161,,,,,,,,,,,,,,,,,,,,,,,,,,,,,,,,,,,,,,,,,,None,,747.8696624899994,None,747.8696624899994,None,2022-10-03-10:12:06.534937,747.8711359999998,748.1861837999995,747.8711359999998,None,None,747.8711359999998,None,748.6863115899996,None,,,,22015,0002,2022_Oct_03_0959,localizer,2021.1.3,61.0338896777024,
block,scenes,scenes011.bmp,,,,,0,162,162,162,,,,,,,,,,,,,,,,,,,,,,,,,,,,,,,,,,,,,,,,,,None,,748.6863115899996,None,748.6863115899996,None,2022-10-03-10:12:07.351769,748.6874915999997,749.0030928999995,748.6874915999997,None,None,748.6874915999997,None,749.48674639,None,,,,22015,0002,2022_Oct_03_0959,localizer,2021.1.3,61.0338896777024,
block,scenes,scenes089.bmp,,,,,0,163,163,163,,,,,,,,,,,,,,,,,,,,,,,,,,,,,,,,,,,,,,,,,,None,,749.48674639,None,749.48674639,None,2022-10-03-10:12:08.154442,749.4994864999999,749.8105581,749.4994864999999,749.4994864999999,None,749.4994864999999,749.4994864999999,750.3030071899993,None,,,,22015,0002,2022_Oct_03_0959,localizer,2021.1.3,61.0338896777024,
block,scenes,scenes074.bmp,,,,,0,164,164,164,,,,,,,,,,,,,,,,,,,,,,,,,,,,,,,,,,,,,,,,,,None,,750.3030071899993,None,750.3030071899993,None,2022-10-03-10:12:08.968388,750.3042529999993,750.6199118999994,750.3042529999993,None,None,750.3042529999993,None,751.11983659,None,,,,22015,0002,2022_Oct_03_0959,localizer,2021.1.3,61.0338896777024,
block,scenes,scenes043.bmp,,,,,0,165,165,165,,,,,,,,,,,,,,,,,,,,,,,,,,,,,,,,,,,,,,,,,,None,,751.11983659,None,751.11983659,None,2022-10-03-10:12:09.784667,751.121177,751.4360196999996,751.121177,None,None,751.121177,None,751.9365107899994,None,,,,22015,0002,2022_Oct_03_0959,localizer,2021.1.3,61.0338896777024,
block,scenes,scenes033.bmp,,,,,0,166,166,166,,,,,,,,,,,,,,,,,,,,,,,,,,,,,,,,,,,,,,,,,,None,,751.9365107899994,None,751.9365107899994,None,2022-10-03-10:12:10.601588,751.9375196000001,752.2399396000001,751.9375196000001,None,None,751.9375196000001,None,752.7366401899999,None,,,,22015,0002,2022_Oct_03_0959,localizer,2021.1.3,61.0338896777024,
block_end,scenes,scenes068.bmp,,,,,0,167,167,167,,,,,,,,,,,,,,,,,,,,,,,,,,,,,,,,,,,,,,,,,,None,,752.7366401899999,None,752.7366401899999,None,2022-10-03-10:12:11.404794,752.7436923999994,753.0530823999998,752.7436923999994,752.7436923999994,None,752.7436923999994,752.7436923999994,753.5533861899994,None,,,,22015,0002,2022_Oct_03_0959,localizer,2021.1.3,61.0338896777024,
block_start,scrambled,scrambled081.bmp,,,,,0,168,168,168,,,,,,,,,,,,,,,,,,,,,,,,,,,,,,,,,,,,,,,,,,t,1.778067799999917,753.5533477999998,None,753.5533477999998,None,2022-10-03-10:12:14.017962,755.3543940999998,755.6532528999996,755.3543940999998,None,None,755.3543940999998,None,756.1536346899993,None,,,,22015,0002,2022_Oct_03_0959,localizer,2021.1.3,61.0338896777024,
block,scrambled,scrambled049.bmp,,,,,0,169,169,169,,,,,,,,,,,,,,,,,,,,,,,,,,,,,,,,,,,,,,,,,,None,,756.1536346899993,None,756.1536346899993,None,2022-10-03-10:12:14.821842,756.1563848999995,756.4703067,756.1563848999995,756.1563848999995,None,756.1563848999995,756.1563848999995,756.9705086899994,None,,,,22015,0002,2022_Oct_03_0959,localizer,2021.1.3,61.0338896777024,
block,scrambled,scrambled046.bmp,,,,,0,170,170,170,,,,,,,,,,,,,,,,,,,,,,,,,,,,,,,,,,,,,,,,,,None,,756.9705086899994,None,756.9705086899994,None,2022-10-03-10:12:15.638386,756.9824594000002,757.2877336000001,756.9824594000002,None,None,756.9824594000002,None,757.7878594899994,None,,,,22015,0002,2022_Oct_03_0959,localizer,2021.1.3,61.0338896777024,
block,scrambled,scrambled082.bmp,,,,,0,171,171,171,,,,,,,,,,,,,,,,,,,,,,,,,,,,,,,,,,,,,,,,,,None,,757.7878594899994,None,757.7878594899994,None,2022-10-03-10:12:16.455266,757.7903507000001,758.1040317999996,757.7903507000001,None,None,757.7903507000001,None,758.6046124899995,None,,,,22015,0002,2022_Oct_03_0959,localizer,2021.1.3,61.0338896777024,
block,scrambled,scrambled004.bmp,,,,,0,172,172,172,,,,,,,,,,,,,,,,,,,,,,,,,,,,,,,,,,,,,,,,,,None,,758.6046124899995,None,758.6046124899995,None,2022-10-03-10:12:17.271981,758.6069595999998,758.9202924000001,758.6069595999998,None,None,758.6069595999998,None,759.4207590899996,None,,,,22015,0002,2022_Oct_03_0959,localizer,2021.1.3,61.0338896777024,
block,scrambled,scrambled014.bmp,,,,,0,173,173,173,,,,,,,,,,,,,,,,,,,,,,,,,,,,,,,,,,,,,,,,,,None,,759.4207590899996,None,759.4207590899996,None,2022-10-03-10:12:18.088225,759.4212328999993,759.7364737999997,759.4212328999993,None,None,759.4212328999993,None,760.2206595899997,None,,,,22015,0002,2022_Oct_03_0959,localizer,2021.1.3,61.0338896777024,
block,scrambled,scrambled056.bmp,,,,,0,174,174,174,,,,,,,,,,,,,,,,,,,,,,,,,,,,,,,,,,,,,,,,,,None,,760.2206595899997,None,760.2206595899997,None,2022-10-03-10:12:18.890115,760.2229434000001,760.5371941999992,760.2229434000001,760.2229434000001,None,760.2229434000001,760.2229434000001,761.0373097900001,None,,,,22015,0002,2022_Oct_03_0959,localizer,2021.1.3,61.0338896777024,
block,scrambled,scrambled037.bmp,,,,,0,175,175,175,,,,,,,,,,,,,,,,,,,,,,,,,,,,,,,,,,,,,,,,,,None,,761.0373097900001,None,761.0373097900001,None,2022-10-03-10:12:19.704590,761.0379389,761.3372042999999,761.0379389,None,None,761.0379389,None,761.8372968899994,None,,,,22015,0002,2022_Oct_03_0959,localizer,2021.1.3,61.0338896777024,
block,scrambled,scrambled039.bmp,,,,,0,176,176,176,,,,,,,,,,,,,,,,,,,,,,,,,,,,,,,,,,,,,,,,,,None,,761.8372968899994,None,761.8372968899994,None,2022-10-03-10:12:20.506787,761.8402086999995,762.1538086,761.8402086999995,761.8402086999995,None,761.8402086999995,761.8402086999995,762.65317159,None,,,,22015,0002,2022_Oct_03_0959,localizer,2021.1.3,61.0338896777024,
block,scrambled,scrambled072.bmp,,,,,0,177,177,177,,,,,,,,,,,,,,,,,,,,,,,,,,,,,,,,,,,,,,,,,,None,,762.65317159,None,762.65317159,None,2022-10-03-10:12:21.318505,762.6617894999999,762.9704889999994,762.6617894999999,None,None,762.6617894999999,None,763.4704911899998,None,,,,22015,0002,2022_Oct_03_0959,localizer,2021.1.3,61.0338896777024,
block,scrambled,scrambled026.bmp,,,,,0,178,178,178,,,,,,,,,,,,,,,,,,,,,,,,,,,,,,,,,,,,,,,,,,None,,763.4704911899998,None,763.4704911899998,None,2022-10-03-10:12:22.137990,763.4716478,763.7871293999997,763.4716478,None,None,763.4716478,None,764.27064969,None,,,,22015,0002,2022_Oct_03_0959,localizer,2021.1.3,61.0338896777024,
block,scrambled,scrambled027.bmp,,,,,0,179,179,179,,,,,,,,,,,,,,,,,,,,,,,,,,,,,,,,,,,,,,,,,,None,,764.27064969,None,764.27064969,None,2022-10-03-10:12:22.940105,764.2736740999999,764.5872517999996,764.2736740999999,764.2736740999999,None,764.2736740999999,764.2736740999999,765.08738429,None,,,,22015,0002,2022_Oct_03_0959,localizer,2021.1.3,61.0338896777024,
block,scrambled,scrambled044.bmp,,,,,0,180,180,180,,,,,,,,,,,,,,,,,,,,,,,,,,,,,,,,,,,,,,,,,,None,,765.08738429,None,765.08738429,None,2022-10-03-10:12:23.754802,765.0879328000001,765.3872855999998,765.0879328000001,None,y,765.0879328000001,None,765.9032224899993,None,0.7636375000001863,,,22015,0002,2022_Oct_03_0959,localizer,2021.1.3,61.0338896777024,
block,scrambled,scrambled073.bmp,,,,,0,181,181,181,,,,,,,,,,,,,,,,,,,,,,,,,,,,,,,,,,,,,,,,,,None,,765.9032224899993,None,765.9032224899993,None,2022-10-03-10:12:24.569594,765.9108028999999,766.2201961000001,765.9108028999999,None,None,765.9108028999999,None,766.72015749,None,,,,22015,0002,2022_Oct_03_0959,localizer,2021.1.3,61.0338896777024,
block_end,scrambled,scrambled070.bmp,,,,,0,182,182,182,,,,,,,,,,,,,,,,,,,,,,,,,,,,,,,,,,,,,,,,,,None,,766.72015749,None,766.72015749,None,2022-10-03-10:12:25.386993,766.7211835999997,767.0207876999993,766.7211835999997,None,None,766.7211835999997,None,767.5206206899993,None,,,,22015,0002,2022_Oct_03_0959,localizer,2021.1.3,61.0338896777024,
block_start,scenes,scenes012.bmp,,,,,0,183,183,183,,,,,,,,,,,,,,,,,,,,,,,,,,,,,,,,,,,,,,,,,,t,1.8105916000004072,767.5207676999999,None,767.5207676999999,None,2022-10-03-10:12:28.019909,769.3548900999995,769.6705603999999,769.3548900999995,None,None,769.3548900999995,None,770.1540577899996,None,,,,22015,0002,2022_Oct_03_0959,localizer,2021.1.3,61.0338896777024,
block,scenes,scenes018.bmp,,,,,0,184,184,184,,,,,,,,,,,,,,,,,,,,,,,,,,,,,,,,,,,,,,,,,,None,,770.1540577899996,None,770.1540577899996,None,2022-10-03-10:12:28.823668,770.1689347000001,770.4700975999995,770.1689347000001,770.1689347000001,None,770.1689347000001,770.1689347000001,770.9702794899995,None,,,,22015,0002,2022_Oct_03_0959,localizer,2021.1.3,61.0338896777024,
block,scenes,scenes009.bmp,,,,,0,185,185,185,,,,,,,,,,,,,,,,,,,,,,,,,,,,,,,,,,,,,,,,,,None,,770.9702794899995,None,770.9702794899995,None,2022-10-03-10:12:29.636728,770.9712986999994,771.2868105999996,770.9712986999994,None,None,770.9712986999994,None,771.77033699,None,,,,22015,0002,2022_Oct_03_0959,localizer,2021.1.3,61.0338896777024,
block,scenes,scenes003.bmp,,,,,0,186,186,186,,,,,,,,,,,,,,,,,,,,,,,,,,,,,,,,,,,,,,,,,,None,,771.77033699,None,771.77033699,None,2022-10-03-10:12:30.438689,771.7713328999998,772.0868443999998,771.7713328999998,771.7713328999998,None,771.7713328999998,771.7713328999998,772.5703619899996,None,,,,22015,0002,2022_Oct_03_0959,localizer,2021.1.3,61.0338896777024,
block,scenes,scenes017.bmp,,,,,0,187,187,187,,,,,,,,,,,,,,,,,,,,,,,,,,,,,,,,,,,,,,,,,,None,,772.5703619899996,None,772.5703619899996,None,2022-10-03-10:12:31.238829,772.5717959999993,772.8869526999997,772.5717959999993,772.5717959999993,None,772.5717959999993,772.5717959999993,773.3869834899997,None,,,,22015,0002,2022_Oct_03_0959,localizer,2021.1.3,61.0338896777024,
block,scenes,scenes075.bmp,,,,,0,188,188,188,,,,,,,,,,,,,,,,,,,,,,,,,,,,,,,,,,,,,,,,,,None,,773.3869834899997,None,773.3869834899997,None,2022-10-03-10:12:32.053466,773.3878566999992,773.7033118999998,773.3878566999992,None,None,773.3878566999992,None,774.1870793899998,None,,,,22015,0002,2022_Oct_03_0959,localizer,2021.1.3,61.0338896777024,
block,scenes,scenes061.bmp,,,,,0,189,189,189,,,,,,,,,,,,,,,,,,,,,,,,,,,,,,,,,,,,,,,,,,None,,774.1870793899998,None,774.1870793899998,None,2022-10-03-10:12:32.855578,774.2008065,774.5035057999994,774.2008065,774.2008065,None,774.2008065,774.2008065,775.0036945900001,None,,,,22015,0002,2022_Oct_03_0959,localizer,2021.1.3,61.0338896777024,
block,scenes,scenes065.bmp,,,,,0,190,190,190,,,,,,,,,,,,,,,,,,,,,,,,,,,,,,,,,,,,,,,,,,None,,775.0036945900001,None,775.0036945900001,None,2022-10-03-10:12:33.670207,775.0045960999996,775.3201985999995,775.0045960999996,None,None,775.0045960999996,None,775.8200651899997,None,,,,22015,0002,2022_Oct_03_0959,localizer,2021.1.3,61.0338896777024,
block,scenes,scenes006.bmp,,,,,0,191,191,191,,,,,,,,,,,,,,,,,,,,,,,,,,,,,,,,,,,,,,,,,,None,,775.8200651899997,None,775.8200651899997,None,2022-10-03-10:12:34.486805,775.8296335999994,776.1370115,775.8296335999994,None,None,775.8296335999994,None,776.6368641899999,None,,,,22015,0002,2022_Oct_03_0959,localizer,2021.1.3,61.0338896777024,
block,scenes,scenes091.bmp,,,,,0,192,192,192,,,,,,,,,,,,,,,,,,,,,,,,,,,,,,,,,,,,,,,,,,None,,776.6368641899999,None,776.6368641899999,None,2022-10-03-10:12:35.302409,776.6380605999993,776.9533628999998,776.6380605999993,None,None,776.6380605999993,None,777.4371723899994,None,,,,22015,0002,2022_Oct_03_0959,localizer,2021.1.3,61.0338896777024,
block,scenes,scenes008.bmp,,,,,0,193,193,193,,,,,,,,,,,,,,,,,,,,,,,,,,,,,,,,,,,,,,,,,,None,,777.4371723899994,None,777.4371723899994,None,2022-10-03-10:12:36.105081,777.4393788999996,777.7537392999993,777.4393788999996,777.4393788999996,None,777.4393788999996,777.4393788999996,778.2539085899998,None,,,,22015,0002,2022_Oct_03_0959,localizer,2021.1.3,61.0338896777024,
block,scenes,scenes057.bmp,,,,,0,194,194,194,,,,,,,,,,,,,,,,,,,,,,,,,,,,,,,,,,,,,,,,,,None,,778.2539085899998,None,778.2539085899998,None,2022-10-03-10:12:36.920466,778.2649132999995,778.5693217999997,778.2649132999995,None,None,778.2649132999995,None,779.0708604900001,None,,,,22015,0002,2022_Oct_03_0959,localizer,2021.1.3,61.0338896777024,
block,scenes,scenes088.bmp,,,,,0,195,195,195,,,,,,,,,,,,,,,,,,,,,,,,,,,,,,,,,,,,,,,,,,None,,779.0708604900001,None,779.0708604900001,None,2022-10-03-10:12:37.738609,779.0715777999994,779.3869896999995,779.0715777999994,None,None,779.0715777999994,None,779.88711109,None,,,,22015,0002,2022_Oct_03_0959,localizer,2021.1.3,61.0338896777024,
block,scenes,scenes036.bmp,,,,,0,196,196,196,,,,,,,,,,,,,,,,,,,,,,,,,,,,,,,,,,,,,,,,,,None,,779.88711109,None,779.88711109,None,2022-10-03-10:12:38.553697,779.887858,780.1871854000001,779.887858,None,None,779.887858,None,780.6868862900001,None,,,,22015,0002,2022_Oct_03_0959,localizer,2021.1.3,61.0338896777024,
block_end,scenes,scenes039.bmp,,,,,0,197,197,197,,,,,,,,,,,,,,,,,,,,,,,,,,,,,,,,,,,,,,,,,,None,,780.6868862900001,None,780.6868862900001,None,2022-10-03-10:12:39.354487,780.6958766999996,781.0041651000001,780.6958766999996,780.6958766999996,None,780.6958766999996,780.6958766999996,781.5043850900001,None,,,,22015,0002,2022_Oct_03_0959,localizer,2021.1.3,61.0338896777024,
null_block,null_block,null_block.bmp,,,,,0,198,198,198,,,,,,,,,,,,,,,,,,,,,,,,,,,,,,,,,,,,,,,,,,t,1.8272561000003407,781.5042014999999,None,781.5042014999999,None,2022-10-03-10:12:42.020667,783.3540292899997,None,783.3540292899997,None,None,783.3540292899997,None,783.3575989000001,None,,,,22015,0002,2022_Oct_03_0959,localizer,2021.1.3,61.0338896777024,
block_start,scrambled,scrambled075.bmp,,,,,0,199,199,199,,,,,,,,,,,,,,,,,,,,,,,,,,,,,,,,,,,,,,,,,,t,1.9609987000003457,795.3704735000001,None,795.3704735000001,None,2022-10-03-10:12:56.023080,797.3663044999994,797.6702000999994,797.3663044999994,None,None,797.3663044999994,None,798.1703483900001,None,,,,22015,0002,2022_Oct_03_0959,localizer,2021.1.3,61.0338896777024,
block,scrambled,scrambled075.bmp,,,,,0,200,200,200,,,,,,,,,,,,,,,,,,,,,,,,,,,,,,,,,,,,,,,,,,None,,798.1703483900001,None,798.1703483900001,None,2022-10-03-10:12:56.837456,798.1712008999993,798.4703564000001,798.1712008999993,None,y,798.1712008999993,None,798.97044129,None,0.574163000000226,,,22015,0002,2022_Oct_03_0959,localizer,2021.1.3,61.0338896777024,
block,scrambled,scrambled032.bmp,,,,,0,201,201,201,,,,,,,,,,,,,,,,,,,,,,,,,,,,,,,,,,,,,,,,,,None,,798.97044129,None,798.97044129,None,2022-10-03-10:12:57.639299,798.971697,799.2869197,798.971697,798.971697,None,798.971697,798.971697,799.7870716899997,None,,,,22015,0002,2022_Oct_03_0959,localizer,2021.1.3,61.0338896777024,
block,scrambled,scrambled052.bmp,,,,,0,202,202,202,,,,,,,,,,,,,,,,,,,,,,,,,,,,,,,,,,,,,,,,,,None,,799.7870716899997,None,799.7870716899997,None,2022-10-03-10:12:58.453942,799.7878737000001,800.0869929,799.7878737000001,None,None,799.7878737000001,None,800.5871352899994,None,,,,22015,0002,2022_Oct_03_0959,localizer,2021.1.3,61.0338896777024,
block,scrambled,scrambled048.bmp,,,,,0,203,203,203,,,,,,,,,,,,,,,,,,,,,,,,,,,,,,,,,,,,,,,,,,None,,800.5871352899994,None,800.5871352899994,None,2022-10-03-10:12:59.256004,800.5882462999998,800.9037560999996,800.5882462999998,800.5882462999998,None,800.5882462999998,800.5882462999998,801.4036914899998,None,,,,22015,0002,2022_Oct_03_0959,localizer,2021.1.3,61.0338896777024,
block,scrambled,scrambled077.bmp,,,,,0,204,204,204,,,,,,,,,,,,,,,,,,,,,,,,,,,,,,,,,,,,,,,,,,None,,801.4036914899998,None,801.4036914899998,None,2022-10-03-10:13:00.070867,801.4126858,801.7210375999994,801.4126858,None,None,801.4126858,None,802.22116069,None,,,,22015,0002,2022_Oct_03_0959,localizer,2021.1.3,61.0338896777024,
block,scrambled,scrambled024.bmp,,,,,0,205,205,205,,,,,,,,,,,,,,,,,,,,,,,,,,,,,,,,,,,,,,,,,,None,,802.22116069,None,802.22116069,None,2022-10-03-10:13:00.890049,802.2239369999998,802.5377889000001,802.2239369999998,None,None,802.2239369999998,None,803.0378798900001,None,,,,22015,0002,2022_Oct_03_0959,localizer,2021.1.3,61.0338896777024,
block,scrambled,scrambled062.bmp,,,,,0,206,206,206,,,,,,,,,,,,,,,,,,,,,,,,,,,,,,,,,,,,,,,,,,None,,803.0378798900001,None,803.0378798900001,None,2022-10-03-10:13:01.705792,803.0397652000001,803.3543340999995,803.0397652000001,None,None,803.0397652000001,None,803.8541978899993,None,,,,22015,0002,2022_Oct_03_0959,localizer,2021.1.3,61.0338896777024,
block,scrambled,scrambled049.bmp,,,,,0,207,207,207,,,,,,,,,,,,,,,,,,,,,,,,,,,,,,,,,,,,,,,,,,None,,803.8541978899993,None,803.8541978899993,None,2022-10-03-10:13:02.522314,803.8547697999993,804.1599458000001,803.8547697999993,None,None,803.8547697999993,None,804.6545117899996,None,,,,22015,0002,2022_Oct_03_0959,localizer,2021.1.3,61.0338896777024,
block,scrambled,scrambled005.bmp,,,,,0,208,208,208,,,,,,,,,,,,,,,,,,,,,,,,,,,,,,,,,,,,,,,,,,None,,804.6545117899996,None,804.6545117899996,None,2022-10-03-10:13:03.324395,804.6683106999999,804.9703104,804.6683106999999,804.6683106999999,None,804.6683106999999,804.6683106999999,805.47058079,None,,,,22015,0002,2022_Oct_03_0959,localizer,2021.1.3,61.0338896777024,
block,scrambled,scrambled053.bmp,,,,,0,209,209,209,,,,,,,,,,,,,,,,,,,,,,,,,,,,,,,,,,,,,,,,,,None,,805.47058079,None,805.47058079,None,2022-10-03-10:13:04.137487,805.4713855999998,805.7704734999998,805.4713855999998,None,None,805.4713855999998,None,806.2705269899998,None,,,,22015,0002,2022_Oct_03_0959,localizer,2021.1.3,61.0338896777024,
block,scrambled,scrambled040.bmp,,,,,0,210,210,210,,,,,,,,,,,,,,,,,,,,,,,,,,,,,,,,,,,,,,,,,,None,,806.2705269899998,None,806.2705269899998,None,2022-10-03-10:13:04.939015,806.2713985999999,806.5705664999996,806.2713985999999,806.2713985999999,None,806.2713985999999,806.2713985999999,807.0704957899998,None,,,,22015,0002,2022_Oct_03_0959,localizer,2021.1.3,61.0338896777024,
block,scrambled,scrambled041.bmp,,,,,0,211,211,211,,,,,,,,,,,,,,,,,,,,,,,,,,,,,,,,,,,,,,,,,,None,,807.0704957899998,None,807.0704957899998,None,2022-10-03-10:13:05.739564,807.0717142999993,807.3870907999999,807.0717142999993,807.0717142999993,None,807.0717142999993,807.0717142999993,807.8869994899997,None,,,,22015,0002,2022_Oct_03_0959,localizer,2021.1.3,61.0338896777024,
block,scrambled,scrambled068.bmp,,,,,0,212,212,212,,,,,,,,,,,,,,,,,,,,,,,,,,,,,,,,,,,,,,,,,,None,,807.8869994899997,None,807.8869994899997,None,2022-10-03-10:13:06.553943,807.8879683999994,808.1872311999996,807.8879683999994,None,None,807.8879683999994,None,808.6882688899996,None,,,,22015,0002,2022_Oct_03_0959,localizer,2021.1.3,61.0338896777024,
block_end,scrambled,scrambled007.bmp,,,,,0,213,213,213,,,,,,,,,,,,,,,,,,,,,,,,,,,,,,,,,,,,,,,,,,None,,808.6882688899996,None,808.6882688899996,None,2022-10-03-10:13:07.359400,808.6919093999995,809.0035542999995,808.6919093999995,808.6919093999995,None,808.6919093999995,808.6919093999995,809.5038977899994,None,,,,22015,0002,2022_Oct_03_0959,localizer,2021.1.3,61.0338896777024,
block_start,faces,faces069.bmp,,,,,0,214,214,214,,,,,,,,,,,,,,,,,,,,,,,,,,,,,,,,,,,,,,,,,,t,1.8277007000006051,809.5037340999997,None,809.5037340999997,None,2022-10-03-10:13:10.019641,811.3583038999996,811.6710834999994,811.3583038999996,None,None,811.3583038999996,None,812.1714516900001,None,,,,22015,0002,2022_Oct_03_0959,localizer,2021.1.3,61.0338896777024,
block,faces,faces027.bmp,,,,,0,215,215,215,,,,,,,,,,,,,,,,,,,,,,,,,,,,,,,,,,,,,,,,,,None,,812.1714516900001,None,812.1714516900001,None,2022-10-03-10:13:10.839461,812.1735860999997,812.4863829999995,812.1735860999997,None,None,812.1735860999997,None,812.98674579,None,,,,22015,0002,2022_Oct_03_0959,localizer,2021.1.3,61.0338896777024,
block,faces,faces065.bmp,,,,,0,216,216,216,,,,,,,,,,,,,,,,,,,,,,,,,,,,,,,,,,,,,,,,,,None,,812.98674579,None,812.98674579,None,2022-10-03-10:13:11.653924,812.9883376999996,813.3036965000001,812.9883376999996,None,None,812.9883376999996,None,813.8038335900001,None,,,,22015,0002,2022_Oct_03_0959,localizer,2021.1.3,61.0338896777024,
block,faces,faces053.bmp,,,,,0,217,217,217,,,,,,,,,,,,,,,,,,,,,,,,,,,,,,,,,,,,,,,,,,None,,813.8038335900001,None,813.8038335900001,None,2022-10-03-10:13:12.470797,813.8047470000001,814.1039236999995,813.8047470000001,None,None,813.8047470000001,None,814.6037930899993,None,,,,22015,0002,2022_Oct_03_0959,localizer,2021.1.3,61.0338896777024,
block,faces,faces060.bmp,,,,,0,218,218,218,,,,,,,,,,,,,,,,,,,,,,,,,,,,,,,,,,,,,,,,,,None,,814.6037930899993,None,814.6037930899993,None,2022-10-03-10:13:13.272760,814.6050275999996,814.9205290999998,814.6050275999996,814.6050275999996,None,814.6050275999996,814.6050275999996,815.4203780899998,None,,,,22015,0002,2022_Oct_03_0959,localizer,2021.1.3,61.0338896777024,
block,faces,faces016.bmp,,,,,0,219,219,219,,,,,,,,,,,,,,,,,,,,,,,,,,,,,,,,,,,,,,,,,,None,,815.4203780899998,None,815.4203780899998,None,2022-10-03-10:13:14.087606,815.4214200999995,815.7368809,815.4214200999995,None,None,815.4214200999995,None,816.22176339,None,,,,22015,0002,2022_Oct_03_0959,localizer,2021.1.3,61.0338896777024,
block,faces,faces048.bmp,,,,,0,220,220,220,,,,,,,,,,,,,,,,,,,,,,,,,,,,,,,,,,,,,,,,,,None,,816.22176339,None,816.22176339,None,2022-10-03-10:13:14.893929,816.2258969999993,816.5371982999995,816.2258969999993,816.2258969999993,None,816.2258969999993,816.2258969999993,817.03721529,None,,,,22015,0002,2022_Oct_03_0959,localizer,2021.1.3,61.0338896777024,
block,faces,faces071.bmp,,,,,0,221,221,221,,,,,,,,,,,,,,,,,,,,,,,,,,,,,,,,,,,,,,,,,,None,,817.03721529,None,817.03721529,None,2022-10-03-10:13:15.704201,817.0445879999997,817.3540316999997,817.0445879999997,None,None,817.0445879999997,None,817.8537549899993,None,,,,22015,0002,2022_Oct_03_0959,localizer,2021.1.3,61.0338896777024,
block,faces,faces007.bmp,,,,,0,222,222,222,,,,,,,,,,,,,,,,,,,,,,,,,,,,,,,,,,,,,,,,,,None,,817.8537549899993,None,817.8537549899993,None,2022-10-03-10:13:16.520747,817.8637924999994,818.1703504999996,817.8637924999994,None,None,817.8637924999994,None,818.6706391899997,None,,,,22015,0002,2022_Oct_03_0959,localizer,2021.1.3,61.0338896777024,
block,faces,faces062.bmp,,,,,0,223,223,223,,,,,,,,,,,,,,,,,,,,,,,,,,,,,,,,,,,,,,,,,,None,,818.6706391899997,None,818.6706391899997,None,2022-10-03-10:13:17.337634,818.6713875999994,818.9704543999997,818.6713875999994,None,None,818.6713875999994,None,819.4705843900001,None,,,,22015,0002,2022_Oct_03_0959,localizer,2021.1.3,61.0338896777024,
block,faces,faces088.bmp,,,,,0,224,224,224,,,,,,,,,,,,,,,,,,,,,,,,,,,,,,,,,,,,,,,,,,None,,819.4705843900001,None,819.4705843900001,None,2022-10-03-10:13:18.138584,819.4715642000001,819.7705894000001,819.4715642000001,819.4715642000001,None,819.4715642000001,819.4715642000001,820.2709730899996,None,,,,22015,0002,2022_Oct_03_0959,localizer,2021.1.3,61.0338896777024,
block,faces,faces008.bmp,,,,,0,225,225,225,,,,,,,,,,,,,,,,,,,,,,,,,,,,,,,,,,,,,,,,,,None,,820.2709730899996,None,820.2709730899996,None,2022-10-03-10:13:18.941029,820.2737772999999,820.5874709999998,820.2737772999999,820.2737772999999,None,820.2737772999999,820.2737772999999,821.08757169,None,,,,22015,0002,2022_Oct_03_0959,localizer,2021.1.3,61.0338896777024,
block,faces,faces001.bmp,,,,,0,226,226,226,,,,,,,,,,,,,,,,,,,,,,,,,,,,,,,,,,,,,,,,,,None,,821.08757169,None,821.08757169,None,2022-10-03-10:13:19.755498,821.1005872999995,821.4037807999994,821.1005872999995,None,None,821.1005872999995,None,821.9040059899999,None,,,,22015,0002,2022_Oct_03_0959,localizer,2021.1.3,61.0338896777024,
block,faces,faces020.bmp,,,,,0,227,227,227,,,,,,,,,,,,,,,,,,,,,,,,,,,,,,,,,,,,,,,,,,None,,821.9040059899999,None,821.9040059899999,None,2022-10-03-10:13:20.571024,821.9048619999994,822.2039025999993,821.9048619999994,None,None,821.9048619999994,None,822.70408099,None,,,,22015,0002,2022_Oct_03_0959,localizer,2021.1.3,61.0338896777024,
block_end,faces,faces012.bmp,,,,,0,228,228,228,,,,,,,,,,,,,,,,,,,,,,,,,,,,,,,,,,,,,,,,,,None,,822.70408099,None,822.70408099,None,2022-10-03-10:13:21.373409,822.7060173,823.0206883999999,822.7060173,822.7060173,None,822.7060173,822.7060173,823.5209392899997,None,,,,22015,0002,2022_Oct_03_0959,localizer,2021.1.3,61.0338896777024,
block_start,objects,objects070.bmp,,,,,0,229,229,229,,,,,,,,,,,,,,,,,,,,,,,,,,,,,,,,,,,,,,,,,,t,1.81068839999989,823.5207764999996,None,823.5207764999996,None,2022-10-03-10:13:24.020028,825.3548424999999,825.6707286999999,825.3548424999999,None,None,825.3548424999999,None,826.1551633899999,None,,,,22015,0002,2022_Oct_03_0959,localizer,2021.1.3,61.0338896777024,
block,objects,objects026.bmp,,,,,0,230,230,230,,,,,,,,,,,,,,,,,,,,,,,,,,,,,,,,,,,,,,,,,,None,,826.1551633899999,None,826.1551633899999,None,2022-10-03-10:13:24.827410,826.1588653999997,826.4706620999996,826.1588653999997,826.1588653999997,None,826.1588653999997,826.1588653999997,826.97082219,None,,,,22015,0002,2022_Oct_03_0959,localizer,2021.1.3,61.0338896777024,
block,objects,objects003.bmp,,,,,0,231,231,231,,,,,,,,,,,,,,,,,,,,,,,,,,,,,,,,,,,,,,,,,,None,,826.97082219,None,826.97082219,None,2022-10-03-10:13:25.637762,826.9714647999999,827.2707288000001,826.9714647999999,None,None,826.9714647999999,None,827.7718352900001,None,,,,22015,0002,2022_Oct_03_0959,localizer,2021.1.3,61.0338896777024,
block,objects,objects069.bmp,,,,,0,232,232,232,,,,,,,,,,,,,,,,,,,,,,,,,,,,,,,,,,,,,,,,,,None,,827.7718352900001,None,827.7718352900001,None,2022-10-03-10:13:26.440174,827.7807724999993,828.0875661,827.7807724999993,827.7807724999993,None,827.7807724999993,827.7807724999993,828.5876331899999,None,,,,22015,0002,2022_Oct_03_0959,localizer,2021.1.3,61.0338896777024,
block,objects,objects059.bmp,,,,,0,233,233,233,,,,,,,,,,,,,,,,,,,,,,,,,,,,,,,,,,,,,,,,,,None,,828.5876331899999,None,828.5876331899999,None,2022-10-03-10:13:27.254969,828.5882213999994,828.8874632999996,828.5882213999994,None,None,828.5882213999994,None,829.3875407899995,None,,,,22015,0002,2022_Oct_03_0959,localizer,2021.1.3,61.0338896777024,
block,objects,objects034.bmp,,,,,0,234,234,234,,,,,,,,,,,,,,,,,,,,,,,,,,,,,,,,,,,,,,,,,,None,,829.3875407899995,None,829.3875407899995,None,2022-10-03-10:13:28.056600,829.3902447999999,829.7041337,829.3902447999999,829.3902447999999,None,829.3902447999999,829.3902447999999,830.2045241899996,None,,,,22015,0002,2022_Oct_03_0959,localizer,2021.1.3,61.0338896777024,
block,objects,objects074.bmp,,,,,0,235,235,235,,,,,,,,,,,,,,,,,,,,,,,,,,,,,,,,,,,,,,,,,,None,,830.2045241899996,None,830.2045241899996,None,2022-10-03-10:13:28.872815,830.2051434999994,830.5205126999999,830.2051434999994,None,None,830.2051434999994,None,831.0041567899998,None,,,,22015,0002,2022_Oct_03_0959,localizer,2021.1.3,61.0338896777024,
block,objects,objects005.bmp,,,,,0,236,236,236,,,,,,,,,,,,,,,,,,,,,,,,,,,,,,,,,,,,,,,,,,None,,831.0041567899998,None,831.0041567899998,None,2022-10-03-10:13:29.673290,831.0058152000001,831.3207063,831.0058152000001,831.0058152000001,None,831.0058152000001,831.0058152000001,831.8060715900001,None,,,,22015,0002,2022_Oct_03_0959,localizer,2021.1.3,61.0338896777024,
block,objects,objects033.bmp,,,,,0,237,237,237,,,,,,,,,,,,,,,,,,,,,,,,,,,,,,,,,,,,,,,,,,None,,831.8060715900001,None,831.8060715900001,None,2022-10-03-10:13:30.480475,831.8254238,832.1373864999996,831.8254238,831.8254238,None,831.8254238,831.8254238,832.6205551899993,None,,,,22015,0002,2022_Oct_03_0959,localizer,2021.1.3,61.0338896777024,
block,objects,objects028.bmp,,,,,0,238,238,238,,,,,,,,,,,,,,,,,,,,,,,,,,,,,,,,,,,,,,,,,,None,,832.6205551899993,None,832.6205551899993,None,2022-10-03-10:13:31.287644,832.6304463999995,832.9373867999993,832.6304463999995,None,None,832.6304463999995,None,833.4375034899995,None,,,,22015,0002,2022_Oct_03_0959,localizer,2021.1.3,61.0338896777024,
block,objects,objects014.bmp,,,,,0,239,239,239,,,,,,,,,,,,,,,,,,,,,,,,,,,,,,,,,,,,,,,,,,None,,833.4375034899995,None,833.4375034899995,None,2022-10-03-10:13:32.104598,833.4475936999997,833.7540215999998,833.4475936999997,None,None,833.4475936999997,None,834.2545813899997,None,,,,22015,0002,2022_Oct_03_0959,localizer,2021.1.3,61.0338896777024,
block,objects,objects016.bmp,,,,,0,240,240,240,,,,,,,,,,,,,,,,,,,,,,,,,,,,,,,,,,,,,,,,,,None,,834.2545813899997,None,834.2545813899997,None,2022-10-03-10:13:32.922843,834.2553698000002,834.5705837999994,834.2553698000002,None,None,834.2553698000002,None,835.0709167899995,None,,,,22015,0002,2022_Oct_03_0959,localizer,2021.1.3,61.0338896777024,
block,objects,objects008.bmp,,,,,0,241,241,241,,,,,,,,,,,,,,,,,,,,,,,,,,,,,,,,,,,,,,,,,,None,,835.0709167899995,None,835.0709167899995,None,2022-10-03-10:13:33.738022,835.0716358,835.3707424999993,835.0716358,None,None,835.0716358,None,835.8708211899993,None,,,,22015,0002,2022_Oct_03_0959,localizer,2021.1.3,61.0338896777024,
block,objects,objects084.bmp,,,,,0,242,242,242,,,,,,,,,,,,,,,,,,,,,,,,,,,,,,,,,,,,,,,,,,None,,835.8708211899993,None,835.8708211899993,None,2022-10-03-10:13:34.538930,835.8714276000001,836.1706709999999,835.8714276000001,835.8714276000001,None,835.8714276000001,835.8714276000001,836.6709530899998,None,,,,22015,0002,2022_Oct_03_0959,localizer,2021.1.3,61.0338896777024,
block_end,objects,objects024.bmp,,,,,0,243,243,243,,,,,,,,,,,,,,,,,,,,,,,,,,,,,,,,,,,,,,,,,,None,,836.6709530899998,None,836.6709530899998,None,2022-10-03-10:13:35.340064,836.6726487999995,836.9873878999997,836.6726487999995,836.6726487999995,None,836.6726487999995,836.6726487999995,837.4874505899998,None,,,,22015,0002,2022_Oct_03_0959,localizer,2021.1.3,61.0338896777024,
,,,,,,,,,,,,,,,,,,,,,,,,,,,,,,,,,,,,,,,,,,,,,,,,,,,,,,,,,,,,,,,,,,,,,837.4912386999995,None,,,,,,,
