block_type,condition,img_name,Button.thisRepN,Button.thisTrialN,Button.thisN,Button.thisIndex,trials.thisRepN,trials.thisTrialN,trials.thisN,trials.thisIndex,Ready_experimenter_text.started,Ready_experimenter_text.stopped,Ready_experimenter_resp.keys,Ready_experimenter_resp.rt,Ready_experimenter_resp.started,Ready_experimenter_resp.stopped,Alignment_background.started,Alignment_background.stopped,Alignment_image.started,Alignment_image.stopped,Alignment_resp.keys,Alignment_resp.rt,Alignment_resp.started,Alignment_resp.stopped,Button_text.started,Button_text.stopped,Index_text.started,Index_text.stopped,Index_resp.keys,Index_resp.rt,Index_resp.started,Index_resp.stopped,Middle_text.started,Middle_text.stopped,Middle_resp.keys,Middle_resp.rt,Middle_resp.started,Middle_resp.stopped,Repeat_text.started,Repeat_text.stopped,Repeat_resp.keys,Repeat_resp.corr,Repeat_resp.rt,Repeat_resp.started,Repeat_resp.stopped,instruction_text.started,instruction_text.stopped,key_resp.keys,key_resp.rt,key_resp.started,key_resp.stopped,scanner_t.keys,scanner_t.rt,scanner_t.started,scanner_t.stopped,fixation_wait_for_t.started,fixation_wait_for_t.stopped,real_timestamp_trial_start,image.started,image.stopped,fixation.started,fixation.stopped,repeat_response.keys,repeat_response.started,repeat_response.stopped,fixation_null.started,fixation_null.stopped,repeat_response.rt,end_text.started,end_text.stopped,participant,run,date,expName,psychopyVersion,frameRate,
,,,,,,,,,,,8.540041399886832,None,return,107.81908649997786,8.540041399886832,None,,,,,,,,,,,,,,,,,,,,,,,,,,,,,,,,,,,,,,,,,,,,,,,,,,,,,,,11017,0001,2022_Jun_14_1439,localizer,2021.1.3,59.99152924331289,
,,,,,,,,,,,,,,,,,116.40756409987807,None,116.40756409987807,None,return,4.591252999845892,116.40756409987807,None,,,,,,,,,,,,,,,,,,,,,,,,,,,,,,,,,,,,,,,,,,,,,,,11017,0001,2022_Jun_14_1439,localizer,2021.1.3,59.99152924331289,
,,,0,0,0,0,,,,,,,,,,,,,,,,,,,121.02415319997817,None,122.03492959984578,None,y,2.5286494998726994,122.03492959984578,None,124.5930979999248,None,b,1.2591937999241054,124.5930979999248,None,125.86821629991755,None,n,0,1.6606840000022203,125.86821629991755,None,,,,,,,,,,,,,,,,,,,,,,,,,,11017,0001,2022_Jun_14_1439,localizer,2021.1.3,59.99152924331289,
,,,,,,,,,,,,,,,,,,,,,,,,,,,,,,,,,,,,,,,,,,,,,,127.55238320003264,None,y,28.60997059987858,127.55238320003264,None,,,,,,,,,,,,,,,,,,,,11017,0001,2022_Jun_14_1439,localizer,2021.1.3,59.99152924331289,
block_start,objects,objects031.bmp,,,,,0,0,0,0,,,,,,,,,,,,,,,,,,,,,,,,,,,,,,,,,,,,,,,,,,t,15.282278399914503,156.25808589998633,None,156.25808589998633,None,2022-06-14-14:42:31.756542,171.58071489981376,171.8854879999999,171.58071489981376,None,None,171.58071489981376,None,172.38612838985864,None,,,,11017,0001,2022_Jun_14_1439,localizer,2021.1.3,59.99152924331289,
block,objects,objects072.bmp,,,,,0,1,1,1,,,,,,,,,,,,,,,,,,,,,,,,,,,,,,,,,,,,,,,,,,None,,172.38612838985864,None,172.38612838985864,None,2022-06-14-14:42:32.574171,172.39634300000034,172.7023149000015,172.39634300000034,None,None,172.39634300000034,None,173.20239518990275,None,,,,11017,0001,2022_Jun_14_1439,localizer,2021.1.3,59.99152924331289,
block,objects,objects015.bmp,,,,,0,2,2,2,,,,,,,,,,,,,,,,,,,,,,,,,,,,,,,,,,,,,,,,,,None,,173.20239518990275,None,173.20239518990275,None,2022-06-14-14:42:33.390655,173.21324680000544,173.51916539995,173.21324680000544,None,None,173.21324680000544,None,174.01953808998223,None,,,,11017,0001,2022_Jun_14_1439,localizer,2021.1.3,59.99152924331289,
block,objects,objects043.bmp,,,,,0,3,3,3,,,,,,,,,,,,,,,,,,,,,,,,,,,,,,,,,,,,,,,,,,None,,174.01953808998223,None,174.01953808998223,None,2022-06-14-14:42:34.208756,174.0313826999627,174.3356802999042,174.0313826999627,None,None,174.0313826999627,None,174.8389432899421,None,,,,11017,0001,2022_Jun_14_1439,localizer,2021.1.3,59.99152924331289,
block,objects,objects011.bmp,,,,,0,4,4,4,,,,,,,,,,,,,,,,,,,,,,,,,,,,,,,,,,,,,,,,,,None,,174.8389432899421,None,174.8389432899421,None,2022-06-14-14:42:35.030960,174.8539332000073,175.16919199982658,174.8539332000073,None,None,174.8539332000073,None,175.65292818995658,None,,,,11017,0001,2022_Jun_14_1439,localizer,2021.1.3,59.99152924331289,
block,objects,objects027.bmp,,,,,0,5,5,5,,,,,,,,,,,,,,,,,,,,,,,,,,,,,,,,,,,,,,,,,,None,,175.65292818995658,None,175.65292818995658,None,2022-06-14-14:42:35.842148,175.66460739984177,175.96898499992676,175.66460739984177,None,None,175.66460739984177,None,176.46968328987714,None,,,,11017,0001,2022_Jun_14_1439,localizer,2021.1.3,59.99152924331289,
block,objects,objects045.bmp,,,,,0,6,6,6,,,,,,,,,,,,,,,,,,,,,,,,,,,,,,,,,,,,,,,,,,None,,176.46968328987714,None,176.46968328987714,None,2022-06-14-14:42:36.658649,176.4810878999997,176.7856521999929,176.4810878999997,None,None,176.4810878999997,None,177.2869082899997,None,,,,11017,0001,2022_Jun_14_1439,localizer,2021.1.3,59.99152924331289,
block,objects,objects084.bmp,,,,,0,7,7,7,,,,,,,,,,,,,,,,,,,,,,,,,,,,,,,,,,,,,,,,,,None,,177.2869082899997,None,177.2869082899997,None,2022-06-14-14:42:37.477907,177.3018604000099,177.6020674998872,177.3018604000099,None,None,177.3018604000099,None,178.10367888992187,None,,,,11017,0001,2022_Jun_14_1439,localizer,2021.1.3,59.99152924331289,
block,objects,objects073.bmp,,,,,0,8,8,8,,,,,,,,,,,,,,,,,,,,,,,,,,,,,,,,,,,,,,,,,,None,,178.10367888992187,None,178.10367888992187,None,2022-06-14-14:42:38.292878,178.1189702998381,178.4191368999891,178.1189702998381,None,None,178.1189702998381,None,178.9192922898801,None,,,,11017,0001,2022_Jun_14_1439,localizer,2021.1.3,59.99152924331289,
block,objects,objects066.bmp,,,,,0,9,9,9,,,,,,,,,,,,,,,,,,,,,,,,,,,,,,,,,,,,,,,,,,None,,178.9192922898801,None,178.9192922898801,None,2022-06-14-14:42:39.107744,178.92983229993843,179.23552459990606,178.92983229993843,None,None,178.92983229993843,None,179.73584469000343,None,,,,11017,0001,2022_Jun_14_1439,localizer,2021.1.3,59.99152924331289,
block,objects,objects030.bmp,,,,,0,10,10,10,,,,,,,,,,,,,,,,,,,,,,,,,,,,,,,,,,,,,,,,,,None,,179.73584469000343,None,179.73584469000343,None,2022-06-14-14:42:39.924334,179.746591999894,180.0522960999515,179.746591999894,None,None,179.746591999894,None,180.55220329004806,None,,,,11017,0001,2022_Jun_14_1439,localizer,2021.1.3,59.99152924331289,
block,objects,objects071.bmp,,,,,0,11,11,11,,,,,,,,,,,,,,,,,,,,,,,,,,,,,,,,,,,,,,,,,,None,,180.55220329004806,None,180.55220329004806,None,2022-06-14-14:42:40.740034,180.56140280002728,180.86899279989302,180.56140280002728,None,None,180.56140280002728,None,181.3692939899629,None,,,,11017,0001,2022_Jun_14_1439,localizer,2021.1.3,59.99152924331289,
block,objects,objects001.bmp,,,,,0,12,12,12,,,,,,,,,,,,,,,,,,,,,,,,,,,,,,,,,,,,,,,,,,None,,181.3692939899629,None,181.3692939899629,None,2022-06-14-14:42:41.558308,181.37998219998553,181.6854179999791,181.37998219998553,None,None,181.37998219998553,None,182.18579948984552,None,,,,11017,0001,2022_Jun_14_1439,localizer,2021.1.3,59.99152924331289,
block,objects,objects008.bmp,,,,,0,13,13,13,,,,,,,,,,,,,,,,,,,,,,,,,,,,,,,,,,,,,,,,,,None,,182.18579948984552,None,182.18579948984552,None,2022-06-14-14:42:42.373972,182.19721350003965,182.50231569982134,182.19721350003965,None,None,182.19721350003965,None,183.00242298992816,None,,,,11017,0001,2022_Jun_14_1439,localizer,2021.1.3,59.99152924331289,
block_end,objects,objects061.bmp,,,,,0,14,14,14,,,,,,,,,,,,,,,,,,,,,,,,,,,,,,,,,,,,,,,,,,None,,183.00242298992816,None,183.00242298992816,None,2022-06-14-14:42:43.190461,183.01258199987933,183.32197940000333,183.01258199987933,None,None,183.01258199987933,None,183.81864048994612,None,,,,11017,0001,2022_Jun_14_1439,localizer,2021.1.3,59.99152924331289,
null_block,null_block,null_block.bmp,,,,,0,15,15,15,,,,,,,,,,,,,,,,,,,,,,,,,,,,,,,,,,,,,,,,,,t,1.7218279000371695,183.81845539994538,None,183.81845539994538,None,2022-06-14-14:42:45.760333,185.5870974799618,None,185.5870974799618,None,None,185.5870974799618,None,185.58815600001253,None,,,,11017,0001,2022_Jun_14_1439,localizer,2021.1.3,59.99152924331289,
block_start,scrambled,scrambled086.bmp,,,,,0,16,16,16,,,,,,,,,,,,,,,,,,,,,,,,,,,,,,,,,,,,,,,,,,t,1.93646560003981,197.60265449993312,None,197.60265449993312,None,2022-06-14-14:42:59.759716,199.58095199987292,199.88538619992323,199.58095199987292,None,None,199.58095199987292,None,200.38590408989694,None,,,,11017,0001,2022_Jun_14_1439,localizer,2021.1.3,59.99152924331289,
block,scrambled,scrambled064.bmp,,,,,0,17,17,17,,,,,,,,,,,,,,,,,,,,,,,,,,,,,,,,,,,,,,,,,,None,,200.38590408989694,None,200.38590408989694,None,2022-06-14-14:43:00.573948,200.39632299984805,200.7021808999125,200.39632299984805,None,None,200.39632299984805,None,201.2026268899208,None,,,,11017,0001,2022_Jun_14_1439,localizer,2021.1.3,59.99152924331289,
block,scrambled,scrambled085.bmp,,,,,0,18,18,18,,,,,,,,,,,,,,,,,,,,,,,,,,,,,,,,,,,,,,,,,,None,,201.2026268899208,None,201.2026268899208,None,2022-06-14-14:43:01.390883,201.21460899990052,201.51932409987785,201.21460899990052,None,None,201.21460899990052,None,202.01897559000645,None,,,,11017,0001,2022_Jun_14_1439,localizer,2021.1.3,59.99152924331289,
block,scrambled,scrambled069.bmp,,,,,0,19,19,19,,,,,,,,,,,,,,,,,,,,,,,,,,,,,,,,,,,,,,,,,,None,,202.01897559000645,None,202.01897559000645,None,2022-06-14-14:43:02.207026,202.02744410000741,202.33615779993124,202.02744410000741,None,None,202.02744410000741,None,202.83599338994827,None,,,,11017,0001,2022_Jun_14_1439,localizer,2021.1.3,59.99152924331289,
block,scrambled,scrambled080.bmp,,,,,0,20,20,20,,,,,,,,,,,,,,,,,,,,,,,,,,,,,,,,,,,,,,,,,,None,,202.83599338994827,None,202.83599338994827,None,2022-06-14-14:43:03.024039,202.84551099990495,203.15244710003026,202.84551099990495,None,None,202.84551099990495,None,203.65254039003048,None,,,,11017,0001,2022_Jun_14_1439,localizer,2021.1.3,59.99152924331289,
block,scrambled,scrambled084.bmp,,,,,0,21,21,21,,,,,,,,,,,,,,,,,,,,,,,,,,,,,,,,,,,,,,,,,,None,,203.65254039003048,None,203.65254039003048,None,2022-06-14-14:43:03.840596,203.66321229981259,203.96906269993633,203.66321229981259,None,y,203.66321229981259,None,204.4698355899891,None,0.16341070015914738,,,11017,0001,2022_Jun_14_1439,localizer,2021.1.3,59.99152924331289,
block,scrambled,scrambled060.bmp,,,,,0,22,22,22,,,,,,,,,,,,,,,,,,,,,,,,,,,,,,,,,,,,,,,,,,None,,204.4698355899891,None,204.4698355899891,None,2022-06-14-14:43:04.658877,204.47805819986388,204.78603029996157,204.47805819986388,None,None,204.47805819986388,None,205.2861842898419,None,,,,11017,0001,2022_Jun_14_1439,localizer,2021.1.3,59.99152924331289,
block,scrambled,scrambled057.bmp,,,,,0,23,23,23,,,,,,,,,,,,,,,,,,,,,,,,,,,,,,,,,,,,,,,,,,None,,205.2861842898419,None,205.2861842898419,None,2022-06-14-14:43:05.474491,205.29797549988143,205.60226819990203,205.29797549988143,None,None,205.29797549988143,None,206.1026834900258,None,,,,11017,0001,2022_Jun_14_1439,localizer,2021.1.3,59.99152924331289,
block,scrambled,scrambled014.bmp,,,,,0,24,24,24,,,,,,,,,,,,,,,,,,,,,,,,,,,,,,,,,,,,,,,,,,None,,206.1026834900258,None,206.1026834900258,None,2022-06-14-14:43:06.290730,206.11233619996347,206.4191194998566,206.11233619996347,None,None,206.11233619996347,None,206.9197745899437,None,,,,11017,0001,2022_Jun_14_1439,localizer,2021.1.3,59.99152924331289,
block,scrambled,scrambled061.bmp,,,,,0,25,25,25,,,,,,,,,,,,,,,,,,,,,,,,,,,,,,,,,,,,,,,,,,None,,206.9197745899437,None,206.9197745899437,None,2022-06-14-14:43:07.108812,206.93168939999305,207.23569619981572,206.93168939999305,None,None,206.93168939999305,None,207.73673858994152,None,,,,11017,0001,2022_Jun_14_1439,localizer,2021.1.3,59.99152924331289,
block,scrambled,scrambled067.bmp,,,,,0,26,26,26,,,,,,,,,,,,,,,,,,,,,,,,,,,,,,,,,,,,,,,,,,None,,207.73673858994152,None,207.73673858994152,None,2022-06-14-14:43:07.925958,207.74915459984913,208.05247340002097,207.74915459984913,None,None,207.74915459984913,None,208.5528587900335,None,,,,11017,0001,2022_Jun_14_1439,localizer,2021.1.3,59.99152924331289,
block,scrambled,scrambled051.bmp,,,,,0,27,27,27,,,,,,,,,,,,,,,,,,,,,,,,,,,,,,,,,,,,,,,,,,None,,208.5528587900335,None,208.5528587900335,None,2022-06-14-14:43:08.740900,208.56368719995953,208.86905179987662,208.56368719995953,None,None,208.56368719995953,None,209.36918708996382,None,,,,11017,0001,2022_Jun_14_1439,localizer,2021.1.3,59.99152924331289,
block,scrambled,scrambled053.bmp,,,,,0,28,28,28,,,,,,,,,,,,,,,,,,,,,,,,,,,,,,,,,,,,,,,,,,None,,209.36918708996382,None,209.36918708996382,None,2022-06-14-14:43:09.557241,209.378163699992,209.6858596999664,209.378163699992,None,None,209.378163699992,None,210.1861234899843,None,,,,11017,0001,2022_Jun_14_1439,localizer,2021.1.3,59.99152924331289,
block,scrambled,scrambled052.bmp,,,,,0,29,29,29,,,,,,,,,,,,,,,,,,,,,,,,,,,,,,,,,,,,,,,,,,None,,210.1861234899843,None,210.1861234899843,None,2022-06-14-14:43:10.375393,210.19688609987497,210.50295009999536,210.19688609987497,None,None,210.19688609987497,None,211.00329439004418,None,,,,11017,0001,2022_Jun_14_1439,localizer,2021.1.3,59.99152924331289,
block_end,scrambled,scrambled045.bmp,,,,,0,30,30,30,,,,,,,,,,,,,,,,,,,,,,,,,,,,,,,,,,,,,,,,,,None,,211.00329439004418,None,211.00329439004418,None,2022-06-14-14:43:11.192524,211.01481369999237,211.31890069996007,211.01481369999237,None,None,211.01481369999237,None,211.81942248984706,None,,,,11017,0001,2022_Jun_14_1439,localizer,2021.1.3,59.99152924331289,
block_start,scenes,scenes046.bmp,,,,,0,31,31,31,,,,,,,,,,,,,,,,,,,,,,,,,,,,,,,,,,,,,,,,,,t,1.719962599920109,211.81923919986002,None,211.81923919986002,None,2022-06-14-14:43:13.755706,213.57900169980712,213.88571239984594,213.57900169980712,None,None,213.57900169980712,None,214.38632109004539,None,,,,11017,0001,2022_Jun_14_1439,localizer,2021.1.3,59.99152924331289,
block,scenes,scenes086.bmp,,,,,0,32,32,32,,,,,,,,,,,,,,,,,,,,,,,,,,,,,,,,,,,,,,,,,,None,,214.38632109004539,None,214.38632109004539,None,2022-06-14-14:43:14.575365,214.39696369995363,214.70281569985673,214.39696369995363,None,None,214.39696369995363,None,215.2028431900544,None,,,,11017,0001,2022_Jun_14_1439,localizer,2021.1.3,59.99152924331289,
block,scenes,scenes031.bmp,,,,,0,33,33,33,,,,,,,,,,,,,,,,,,,,,,,,,,,,,,,,,,,,,,,,,,None,,215.2028431900544,None,215.2028431900544,None,2022-06-14-14:43:15.392207,215.21362179983407,215.5188574998174,215.21362179983407,None,None,215.21362179983407,None,216.01934018998872,None,,,,11017,0001,2022_Jun_14_1439,localizer,2021.1.3,59.99152924331289,
block,scenes,scenes004.bmp,,,,,0,34,34,34,,,,,,,,,,,,,,,,,,,,,,,,,,,,,,,,,,,,,,,,,,None,,216.01934018998872,None,216.01934018998872,None,2022-06-14-14:43:16.207388,216.03613139991648,216.33597889984958,216.03613139991648,None,None,216.03613139991648,None,216.83620968984906,None,,,,11017,0001,2022_Jun_14_1439,localizer,2021.1.3,59.99152924331289,
block,scenes,scenes088.bmp,,,,,0,35,35,35,,,,,,,,,,,,,,,,,,,,,,,,,,,,,,,,,,,,,,,,,,None,,216.83620968984906,None,216.83620968984906,None,2022-06-14-14:43:17.025457,216.85147210001014,217.15250710002147,216.85147210001014,None,None,216.85147210001014,None,217.65296479000244,None,,,,11017,0001,2022_Jun_14_1439,localizer,2021.1.3,59.99152924331289,
block,scenes,scenes069.bmp,,,,,0,36,36,36,,,,,,,,,,,,,,,,,,,,,,,,,,,,,,,,,,,,,,,,,,None,,217.65296479000244,None,217.65296479000244,None,2022-06-14-14:43:17.842229,217.6635816998314,217.9690518998541,217.6635816998314,None,None,217.6635816998314,None,218.46942918992136,None,,,,11017,0001,2022_Jun_14_1439,localizer,2021.1.3,59.99152924331289,
block,scenes,scenes012.bmp,,,,,0,37,37,37,,,,,,,,,,,,,,,,,,,,,,,,,,,,,,,,,,,,,,,,,,None,,218.46942918992136,None,218.46942918992136,None,2022-06-14-14:43:18.658660,218.48028020001948,218.78572009992786,218.48028020001948,None,None,218.48028020001948,None,219.28607119002845,None,,,,11017,0001,2022_Jun_14_1439,localizer,2021.1.3,59.99152924331289,
block,scenes,scenes012.bmp,,,,,0,38,38,38,,,,,,,,,,,,,,,,,,,,,,,,,,,,,,,,,,,,,,,,,,None,,219.28607119002845,None,219.28607119002845,None,2022-06-14-14:43:19.474120,219.28662969986908,219.58585909986869,219.28662969986908,None,None,219.28662969986908,None,220.08621679001953,None,,,,11017,0001,2022_Jun_14_1439,localizer,2021.1.3,59.99152924331289,
block,scenes,scenes007.bmp,,,,,0,39,39,39,,,,,,,,,,,,,,,,,,,,,,,,,,,,,,,,,,,,,,,,,,None,,220.08621679001953,None,220.08621679001953,None,2022-06-14-14:43:20.276475,220.10385679989122,220.41905469982885,220.10385679989122,220.10385679989122,y,220.10385679989122,220.10385679989122,220.9038941898616,None,0.1331802001222968,,,11017,0001,2022_Jun_14_1439,localizer,2021.1.3,59.99152924331289,
block,scenes,scenes081.bmp,,,,,0,40,40,40,,,,,,,,,,,,,,,,,,,,,,,,,,,,,,,,,,,,,,,,,,None,,220.9038941898616,None,220.9038941898616,None,2022-06-14-14:43:21.094934,220.91829980001785,221.21930109988898,220.91829980001785,None,None,220.91829980001785,None,221.71951669000555,None,,,,11017,0001,2022_Jun_14_1439,localizer,2021.1.3,59.99152924331289,
block,scenes,scenes022.bmp,,,,,0,41,41,41,,,,,,,,,,,,,,,,,,,,,,,,,,,,,,,,,,,,,,,,,,None,,221.71951669000555,None,221.71951669000555,None,2022-06-14-14:43:21.907777,221.7308769999072,222.04262840002775,221.7308769999072,None,None,221.7308769999072,None,222.53721218986902,None,,,,11017,0001,2022_Jun_14_1439,localizer,2021.1.3,59.99152924331289,
block,scenes,scenes002.bmp,,,,,0,42,42,42,,,,,,,,,,,,,,,,,,,,,,,,,,,,,,,,,,,,,,,,,,None,,222.53721218986902,None,222.53721218986902,None,2022-06-14-14:43:22.726426,222.5504105000291,222.85258700000122,222.5504105000291,None,None,222.5504105000291,None,223.35290808987338,None,,,,11017,0001,2022_Jun_14_1439,localizer,2021.1.3,59.99152924331289,
block,scenes,scenes054.bmp,,,,,0,43,43,43,,,,,,,,,,,,,,,,,,,,,,,,,,,,,,,,,,,,,,,,,,None,,223.35290808987338,None,223.35290808987338,None,2022-06-14-14:43:23.541168,223.36460269987583,223.66913529997692,223.36460269987583,None,None,223.36460269987583,None,224.16958838992286,None,,,,11017,0001,2022_Jun_14_1439,localizer,2021.1.3,59.99152924331289,
block,scenes,scenes021.bmp,,,,,0,44,44,44,,,,,,,,,,,,,,,,,,,,,,,,,,,,,,,,,,,,,,,,,,None,,224.16958838992286,None,224.16958838992286,None,2022-06-14-14:43:24.357834,224.1813673998695,224.48599249986,224.1813673998695,None,None,224.1813673998695,None,224.98622418998275,None,,,,11017,0001,2022_Jun_14_1439,localizer,2021.1.3,59.99152924331289,
block_end,scenes,scenes079.bmp,,,,,0,45,45,45,,,,,,,,,,,,,,,,,,,,,,,,,,,,,,,,,,,,,,,,,,None,,224.98622418998275,None,224.98622418998275,None,2022-06-14-14:43:25.174476,224.99814559984952,225.30295249982737,224.99814559984952,None,None,224.99814559984952,None,225.8023676899029,None,,,,11017,0001,2022_Jun_14_1439,localizer,2021.1.3,59.99152924331289,
block_start,faces,faces003.bmp,,,,,0,46,46,46,,,,,,,,,,,,,,,,,,,,,,,,,,,,,,,,,,,,,,,,,,t,1.736971199978143,225.80227710003965,None,225.80227710003965,None,2022-06-14-14:43:27.759079,227.58317140000872,227.88571649999358,227.58317140000872,None,None,227.58317140000872,None,228.38565758999903,None,,,,11017,0001,2022_Jun_14_1439,localizer,2021.1.3,59.99152924331289,
block,faces,faces027.bmp,,,,,0,47,47,47,,,,,,,,,,,,,,,,,,,,,,,,,,,,,,,,,,,,,,,,,,None,,228.38565758999903,None,228.38565758999903,None,2022-06-14-14:43:28.573717,228.39167429995723,228.70250979997218,228.39167429995723,None,None,228.39167429995723,None,229.20304638997186,None,,,,11017,0001,2022_Jun_14_1439,localizer,2021.1.3,59.99152924331289,
block,faces,faces010.bmp,,,,,0,48,48,48,,,,,,,,,,,,,,,,,,,,,,,,,,,,,,,,,,,,,,,,,,None,,229.20304638997186,None,229.20304638997186,None,2022-06-14-14:43:29.391207,229.21520740003325,229.51923999981955,229.21520740003325,None,None,229.21520740003325,None,230.01981638988946,None,,,,11017,0001,2022_Jun_14_1439,localizer,2021.1.3,59.99152924331289,
block,faces,faces019.bmp,,,,,0,49,49,49,,,,,,,,,,,,,,,,,,,,,,,,,,,,,,,,,,,,,,,,,,None,,230.01981638988946,None,230.01981638988946,None,2022-06-14-14:43:30.208846,230.0369400999043,230.336113399826,230.0369400999043,None,None,230.0369400999043,None,230.8364013900282,None,,,,11017,0001,2022_Jun_14_1439,localizer,2021.1.3,59.99152924331289,
block,faces,faces087.bmp,,,,,0,50,50,50,,,,,,,,,,,,,,,,,,,,,,,,,,,,,,,,,,,,,,,,,,None,,230.8364013900282,None,230.8364013900282,None,2022-06-14-14:43:31.024454,230.84851559996605,231.1526617000345,230.84851559996605,None,None,230.84851559996605,None,231.6426468900172,None,,,,11017,0001,2022_Jun_14_1439,localizer,2021.1.3,59.99152924331289,
block,faces,faces084.bmp,,,,,0,51,51,51,,,,,,,,,,,,,,,,,,,,,,,,,,,,,,,,,,,,,,,,,,None,,231.6426468900172,None,231.6426468900172,None,2022-06-14-14:43:31.837680,231.6617325998377,231.969151499914,231.6617325998377,None,None,231.6617325998377,None,232.45278408995364,None,,,,11017,0001,2022_Jun_14_1439,localizer,2021.1.3,59.99152924331289,
block,faces,faces070.bmp,,,,,0,52,52,52,,,,,,,,,,,,,,,,,,,,,,,,,,,,,,,,,,,,,,,,,,None,,232.45278408995364,None,232.45278408995364,None,2022-06-14-14:43:32.640785,232.46370520000346,232.76907849987037,232.46370520000346,None,None,232.46370520000346,None,233.26929008995648,None,,,,11017,0001,2022_Jun_14_1439,localizer,2021.1.3,59.99152924331289,
block,faces,faces011.bmp,,,,,0,53,53,53,,,,,,,,,,,,,,,,,,,,,,,,,,,,,,,,,,,,,,,,,,None,,233.26929008995648,None,233.26929008995648,None,2022-06-14-14:43:33.457350,233.27781839994714,233.58595229987986,233.27781839994714,None,None,233.27781839994714,None,234.08711338986177,None,,,,11017,0001,2022_Jun_14_1439,localizer,2021.1.3,59.99152924331289,
block,faces,faces026.bmp,,,,,0,54,54,54,,,,,,,,,,,,,,,,,,,,,,,,,,,,,,,,,,,,,,,,,,None,,234.08711338986177,None,234.08711338986177,None,2022-06-14-14:43:34.276335,234.1279509998858,234.43637029989623,234.1279509998858,None,None,234.1279509998858,None,234.90337098983582,None,,,,11017,0001,2022_Jun_14_1439,localizer,2021.1.3,59.99152924331289,
block,faces,faces056.bmp,,,,,0,55,55,55,,,,,,,,,,,,,,,,,,,,,,,,,,,,,,,,,,,,,,,,,,None,,234.90337098983582,None,234.90337098983582,None,2022-06-14-14:43:35.092612,234.91567779984325,235.21938339993358,234.91567779984325,None,None,234.91567779984325,None,235.71954648999963,None,,,,11017,0001,2022_Jun_14_1439,localizer,2021.1.3,59.99152924331289,
block,faces,faces007.bmp,,,,,0,56,56,56,,,,,,,,,,,,,,,,,,,,,,,,,,,,,,,,,,,,,,,,,,None,,235.71954648999963,None,235.71954648999963,None,2022-06-14-14:43:35.907601,235.72632619994693,236.03637719992548,235.72632619994693,None,None,235.72632619994693,None,236.5361349900486,None,,,,11017,0001,2022_Jun_14_1439,localizer,2021.1.3,59.99152924331289,
block,faces,faces047.bmp,,,,,0,57,57,57,,,,,,,,,,,,,,,,,,,,,,,,,,,,,,,,,,,,,,,,,,None,,236.5361349900486,None,236.5361349900486,None,2022-06-14-14:43:36.724405,236.55206869984977,236.85279799997807,236.55206869984977,None,None,236.55206869984977,None,237.3530482900096,None,,,,11017,0001,2022_Jun_14_1439,localizer,2021.1.3,59.99152924331289,
block,faces,faces037.bmp,,,,,0,58,58,58,,,,,,,,,,,,,,,,,,,,,,,,,,,,,,,,,,,,,,,,,,None,,237.3530482900096,None,237.3530482900096,None,2022-06-14-14:43:37.542066,237.3646662000101,237.66930429986678,237.3646662000101,None,None,237.3646662000101,None,238.16945128992666,None,,,,11017,0001,2022_Jun_14_1439,localizer,2021.1.3,59.99152924331289,
block,faces,faces015.bmp,,,,,0,59,59,59,,,,,,,,,,,,,,,,,,,,,,,,,,,,,,,,,,,,,,,,,,None,,238.16945128992666,None,238.16945128992666,None,2022-06-14-14:43:38.357509,238.1884271998424,238.50328519986942,238.1884271998424,None,None,238.1884271998424,None,238.98672148992773,None,,,,11017,0001,2022_Jun_14_1439,localizer,2021.1.3,59.99152924331289,
block_end,faces,faces023.bmp,,,,,0,60,60,60,,,,,,,,,,,,,,,,,,,,,,,,,,,,,,,,,,,,,,,,,,None,,238.98672148992773,None,238.98672148992773,None,2022-06-14-14:43:39.175766,238.99865820002742,239.30251890001819,238.99865820002742,None,None,238.99865820002742,None,239.80305449001025,None,,,,11017,0001,2022_Jun_14_1439,localizer,2021.1.3,59.99152924331289,
null_block,null_block,null_block.bmp,,,,,0,61,61,61,,,,,,,,,,,,,,,,,,,,,,,,,,,,,,,,,,,,,,,,,,t,1.7363809999078512,239.80270070000552,None,239.80270070000552,None,2022-06-14-14:43:41.759067,241.56980808998924,None,241.56980808998924,None,None,241.56980808998924,None,241.57443619985133,None,,,,11017,0001,2022_Jun_14_1439,localizer,2021.1.3,59.99152924331289,
block_start,objects,objects059.bmp,,,,,0,62,62,62,,,,,,,,,,,,,,,,,,,,,,,,,,,,,,,,,,,,,,,,,,t,1.9520361002068967,253.58705549989827,None,253.58705549989827,None,2022-06-14-14:43:55.757951,255.57947420002893,255.8860522999894,255.57947420002893,None,None,255.57947420002893,None,256.3864029898541,None,,,,11017,0001,2022_Jun_14_1439,localizer,2021.1.3,59.99152924331289,
block,objects,objects080.bmp,,,,,0,63,63,63,,,,,,,,,,,,,,,,,,,,,,,,,,,,,,,,,,,,,,,,,,None,,256.3864029898541,None,256.3864029898541,None,2022-06-14-14:43:56.575663,256.397140200017,256.7041412999388,256.397140200017,None,None,256.397140200017,None,257.20304049004335,None,,,,11017,0001,2022_Jun_14_1439,localizer,2021.1.3,59.99152924331289,
block,objects,objects017.bmp,,,,,0,64,64,64,,,,,,,,,,,,,,,,,,,,,,,,,,,,,,,,,,,,,,,,,,None,,257.20304049004335,None,257.20304049004335,None,2022-06-14-14:43:57.391312,257.2137934998609,257.51939469994977,257.2137934998609,None,None,257.2137934998609,None,258.0203388900263,None,,,,11017,0001,2022_Jun_14_1439,localizer,2021.1.3,59.99152924331289,
block,objects,objects032.bmp,,,,,0,65,65,65,,,,,,,,,,,,,,,,,,,,,,,,,,,,,,,,,,,,,,,,,,None,,258.0203388900263,None,258.0203388900263,None,2022-06-14-14:43:58.210577,258.03340579988435,258.33633189997636,258.03340579988435,None,None,258.03340579988435,None,258.8367158899782,None,,,,11017,0001,2022_Jun_14_1439,localizer,2021.1.3,59.99152924331289,
block,objects,objects087.bmp,,,,,0,66,66,66,,,,,,,,,,,,,,,,,,,,,,,,,,,,,,,,,,,,,,,,,,None,,258.8367158899782,None,258.8367158899782,None,2022-06-14-14:43:59.025925,258.84848609985784,259.15301040001214,258.84848609985784,None,None,258.84848609985784,None,259.6533984899288,None,,,,11017,0001,2022_Jun_14_1439,localizer,2021.1.3,59.99152924331289,
block,objects,objects016.bmp,,,,,0,67,67,67,,,,,,,,,,,,,,,,,,,,,,,,,,,,,,,,,,,,,,,,,,None,,259.6533984899288,None,259.6533984899288,None,2022-06-14-14:43:59.842450,259.66490989993326,259.9692958998494,259.66490989993326,None,None,259.66490989993326,None,260.4707868898986,None,,,,11017,0001,2022_Jun_14_1439,localizer,2021.1.3,59.99152924331289,
block,objects,objects086.bmp,,,,,0,68,68,68,,,,,,,,,,,,,,,,,,,,,,,,,,,,,,,,,,,,,,,,,,None,,260.4707868898986,None,260.4707868898986,None,2022-06-14-14:44:00.660427,260.48390170000494,260.7860457999632,260.48390170000494,None,None,260.48390170000494,None,261.2863111899933,None,,,,11017,0001,2022_Jun_14_1439,localizer,2021.1.3,59.99152924331289,
block,objects,objects076.bmp,,,,,0,69,69,69,,,,,,,,,,,,,,,,,,,,,,,,,,,,,,,,,,,,,,,,,,None,,261.2863111899933,None,261.2863111899933,None,2022-06-14-14:44:01.480360,261.3091088999063,261.62067370000295,261.3091088999063,None,None,261.3091088999063,None,262.10327088984195,None,,,,11017,0001,2022_Jun_14_1439,localizer,2021.1.3,59.99152924331289,
block,objects,objects026.bmp,,,,,0,70,70,70,,,,,,,,,,,,,,,,,,,,,,,,,,,,,,,,,,,,,,,,,,None,,262.10327088984195,None,262.10327088984195,None,2022-06-14-14:44:02.292522,262.1160766999237,262.4190074999351,262.1160766999237,None,None,262.1160766999237,None,262.92023448983673,None,,,,11017,0001,2022_Jun_14_1439,localizer,2021.1.3,59.99152924331289,
block,objects,objects038.bmp,,,,,0,71,71,71,,,,,,,,,,,,,,,,,,,,,,,,,,,,,,,,,,,,,,,,,,None,,262.92023448983673,None,262.92023448983673,None,2022-06-14-14:44:03.109307,262.9316338999197,263.2360512998421,262.9316338999197,None,None,262.9316338999197,None,263.7364040898392,None,,,,11017,0001,2022_Jun_14_1439,localizer,2021.1.3,59.99152924331289,
block,objects,objects034.bmp,,,,,0,72,72,72,,,,,,,,,,,,,,,,,,,,,,,,,,,,,,,,,,,,,,,,,,None,,263.7364040898392,None,263.7364040898392,None,2022-06-14-14:44:03.924410,263.7470426999498,264.05259549990296,263.7470426999498,None,None,263.7470426999498,None,264.55364718998317,None,,,,11017,0001,2022_Jun_14_1439,localizer,2021.1.3,59.99152924331289,
block,objects,objects088.bmp,,,,,0,73,73,73,,,,,,,,,,,,,,,,,,,,,,,,,,,,,,,,,,,,,,,,,,None,,264.55364718998317,None,264.55364718998317,None,2022-06-14-14:44:04.743899,264.5664752998855,264.86936529981904,264.5664752998855,None,None,264.5664752998855,None,265.3701888899086,None,,,,11017,0001,2022_Jun_14_1439,localizer,2021.1.3,59.99152924331289,
block,objects,objects056.bmp,,,,,0,74,74,74,,,,,,,,,,,,,,,,,,,,,,,,,,,,,,,,,,,,,,,,,,None,,265.3701888899086,None,265.3701888899086,None,2022-06-14-14:44:05.559427,265.38175849989057,265.68639169982634,265.38175849989057,None,None,265.38175849989057,None,266.18661858991254,None,,,,11017,0001,2022_Jun_14_1439,localizer,2021.1.3,59.99152924331289,
block,objects,objects068.bmp,,,,,0,75,75,75,,,,,,,,,,,,,,,,,,,,,,,,,,,,,,,,,,,,,,,,,,None,,266.18661858991254,None,266.18661858991254,None,2022-06-14-14:44:06.375850,266.19730889983475,266.50307670002803,266.19730889983475,None,None,266.19730889983475,None,267.0032402899815,None,,,,11017,0001,2022_Jun_14_1439,localizer,2021.1.3,59.99152924331289,
block_end,objects,objects053.bmp,,,,,0,76,76,76,,,,,,,,,,,,,,,,,,,,,,,,,,,,,,,,,,,,,,,,,,None,,267.0032402899815,None,267.0032402899815,None,2022-06-14-14:44:07.192298,267.0138860999141,267.3193818000145,267.0138860999141,None,None,267.0138860999141,None,267.81970608991105,None,,,,11017,0001,2022_Jun_14_1439,localizer,2021.1.3,59.99152924331289,
block_start,faces,faces058.bmp,,,,,0,77,77,77,,,,,,,,,,,,,,,,,,,,,,,,,,,,,,,,,,,,,,,,,,t,1.720043399836868,267.81932040001266,None,267.81932040001266,None,2022-06-14-14:44:09.761331,269.5897880999837,269.9024562998675,269.5897880999837,None,None,269.5897880999837,None,270.38597628998104,None,,,,11017,0001,2022_Jun_14_1439,localizer,2021.1.3,59.99152924331289,
block,faces,faces018.bmp,,,,,0,78,78,78,,,,,,,,,,,,,,,,,,,,,,,,,,,,,,,,,,,,,,,,,,None,,270.38597628998104,None,270.38597628998104,None,2022-06-14-14:44:10.574042,270.39586950000376,270.7030652000103,270.39586950000376,None,None,270.39586950000376,None,271.20341038994957,None,,,,11017,0001,2022_Jun_14_1439,localizer,2021.1.3,59.99152924331289,
block,faces,faces072.bmp,,,,,0,79,79,79,,,,,,,,,,,,,,,,,,,,,,,,,,,,,,,,,,,,,,,,,,None,,271.20341038994957,None,271.20341038994957,None,2022-06-14-14:44:11.392566,271.21094329981133,271.51961389998905,271.21094329981133,None,None,271.21094329981133,None,272.0211655899184,None,,,,11017,0001,2022_Jun_14_1439,localizer,2021.1.3,59.99152924331289,
block,faces,faces056.bmp,,,,,0,80,80,80,,,,,,,,,,,,,,,,,,,,,,,,,,,,,,,,,,,,,,,,,,None,,272.0211655899184,None,272.0211655899184,None,2022-06-14-14:44:12.212209,272.02507429989055,272.3357360998634,272.02507429989055,None,None,272.02507429989055,None,272.83642728987616,None,,,,11017,0001,2022_Jun_14_1439,localizer,2021.1.3,59.99152924331289,
block,faces,faces053.bmp,,,,,0,81,81,81,,,,,,,,,,,,,,,,,,,,,,,,,,,,,,,,,,,,,,,,,,None,,272.83642728987616,None,272.83642728987616,None,2022-06-14-14:44:13.025031,272.8472674000077,273.1528000999242,272.8472674000077,None,y,272.8472674000077,None,273.65305038995575,None,0.0949655999429524,,,11017,0001,2022_Jun_14_1439,localizer,2021.1.3,59.99152924331289,
block,faces,faces065.bmp,,,,,0,82,82,82,,,,,,,,,,,,,,,,,,,,,,,,,,,,,,,,,,,,,,,,,,None,,273.65305038995575,None,273.65305038995575,None,2022-06-14-14:44:13.841117,273.67103139986284,273.98602239997126,273.67103139986284,None,None,273.67103139986284,None,274.47055989003275,None,,,,11017,0001,2022_Jun_14_1439,localizer,2021.1.3,59.99152924331289,
block,faces,faces086.bmp,,,,,0,83,83,83,,,,,,,,,,,,,,,,,,,,,,,,,,,,,,,,,,,,,,,,,,None,,274.47055989003275,None,274.47055989003275,None,2022-06-14-14:44:14.660787,274.4848304998595,274.79192149988376,274.4848304998595,None,None,274.4848304998595,None,275.28683208988514,None,,,,11017,0001,2022_Jun_14_1439,localizer,2021.1.3,59.99152924331289,
block,faces,faces005.bmp,,,,,0,84,84,84,,,,,,,,,,,,,,,,,,,,,,,,,,,,,,,,,,,,,,,,,,None,,275.28683208988514,None,275.28683208988514,None,2022-06-14-14:44:15.475871,275.2987315999344,275.6032779000234,275.2987315999344,None,None,275.2987315999344,None,276.1039584899554,None,,,,11017,0001,2022_Jun_14_1439,localizer,2021.1.3,59.99152924331289,
block,faces,faces001.bmp,,,,,0,85,85,85,,,,,,,,,,,,,,,,,,,,,,,,,,,,,,,,,,,,,,,,,,None,,276.1039584899554,None,276.1039584899554,None,2022-06-14-14:44:16.293879,276.1181705999188,276.41977139981464,276.1181705999188,None,None,276.1181705999188,None,276.9199382899096,None,,,,11017,0001,2022_Jun_14_1439,localizer,2021.1.3,59.99152924331289,
block,faces,faces050.bmp,,,,,0,86,86,86,,,,,,,,,,,,,,,,,,,,,,,,,,,,,,,,,,,,,,,,,,None,,276.9199382899096,None,276.9199382899096,None,2022-06-14-14:44:17.109206,276.93088110000826,277.23612799984403,276.93088110000826,None,None,276.93088110000826,None,277.7370469899615,None,,,,11017,0001,2022_Jun_14_1439,localizer,2021.1.3,59.99152924331289,
block,faces,faces034.bmp,,,,,0,87,87,87,,,,,,,,,,,,,,,,,,,,,,,,,,,,,,,,,,,,,,,,,,None,,277.7370469899615,None,277.7370469899615,None,2022-06-14-14:44:17.926083,277.7490699000191,278.0534471999854,277.7490699000191,None,None,277.7490699000191,None,278.5535896898946,None,,,,11017,0001,2022_Jun_14_1439,localizer,2021.1.3,59.99152924331289,
block,faces,faces003.bmp,,,,,0,88,88,88,,,,,,,,,,,,,,,,,,,,,,,,,,,,,,,,,,,,,,,,,,None,,278.5535896898946,None,278.5535896898946,None,2022-06-14-14:44:18.742819,278.554414199898,278.8698166999966,278.554414199898,None,None,278.554414199898,None,279.36996838997584,None,,,,11017,0001,2022_Jun_14_1439,localizer,2021.1.3,59.99152924331289,
block,faces,faces076.bmp,,,,,0,89,89,89,,,,,,,,,,,,,,,,,,,,,,,,,,,,,,,,,,,,,,,,,,None,,279.36996838997584,None,279.36996838997584,None,2022-06-14-14:44:19.558254,279.38149649999104,279.6863094998989,279.38149649999104,None,None,279.38149649999104,None,280.1864530899329,None,,,,11017,0001,2022_Jun_14_1439,localizer,2021.1.3,59.99152924331289,
block,faces,faces031.bmp,,,,,0,90,90,90,,,,,,,,,,,,,,,,,,,,,,,,,,,,,,,,,,,,,,,,,,None,,280.1864530899329,None,280.1864530899329,None,2022-06-14-14:44:20.374522,280.19716939982027,280.5024023000151,280.19716939982027,None,None,280.19716939982027,None,281.0041566899745,None,,,,11017,0001,2022_Jun_14_1439,localizer,2021.1.3,59.99152924331289,
block_end,faces,faces029.bmp,,,,,0,91,91,91,,,,,,,,,,,,,,,,,,,,,,,,,,,,,,,,,,,,,,,,,,None,,281.0041566899745,None,281.0041566899745,None,2022-06-14-14:44:21.194046,281.0220418998506,281.33716530003585,281.0220418998506,None,None,281.0220418998506,None,281.8198813899653,None,,,,11017,0001,2022_Jun_14_1439,localizer,2021.1.3,59.99152924331289,
block_start,scenes,scenes012.bmp,,,,,0,92,92,92,,,,,,,,,,,,,,,,,,,,,,,,,,,,,,,,,,,,,,,,,,t,1.719548000022769,281.8196084999945,None,281.8196084999945,None,2022-06-14-14:44:23.759302,283.57073169993237,283.8700271998532,283.57073169993237,None,None,283.57073169993237,None,284.3702735899715,None,,,,11017,0001,2022_Jun_14_1439,localizer,2021.1.3,59.99152924331289,
block,scenes,scenes004.bmp,,,,,0,93,93,93,,,,,,,,,,,,,,,,,,,,,,,,,,,,,,,,,,,,,,,,,,None,,284.3702735899715,None,284.3702735899715,None,2022-06-14-14:44:24.561305,284.3730064998381,284.68666829983704,284.3730064998381,284.3730064998381,y,284.3730064998381,284.3730064998381,285.1870191899361,None,0.37494520004838705,,,11017,0001,2022_Jun_14_1439,localizer,2021.1.3,59.99152924331289,
block,scenes,scenes050.bmp,,,,,0,94,94,94,,,,,,,,,,,,,,,,,,,,,,,,,,,,,,,,,,,,,,,,,,None,,285.1870191899361,None,285.1870191899361,None,2022-06-14-14:44:25.376137,285.19926589983515,285.50270559987985,285.19926589983515,None,y,285.19926589983515,None,286.00296558986884,None,0.7225906001403928,,,11017,0001,2022_Jun_14_1439,localizer,2021.1.3,59.99152924331289,
block,scenes,scenes074.bmp,,,,,0,95,95,95,,,,,,,,,,,,,,,,,,,,,,,,,,,,,,,,,,,,,,,,,,None,,286.00296558986884,None,286.00296558986884,None,2022-06-14-14:44:26.191040,286.0120933998842,286.3195533999242,286.0120933998842,None,None,286.0120933998842,None,286.81980208994355,None,,,,11017,0001,2022_Jun_14_1439,localizer,2021.1.3,59.99152924331289,
block,scenes,scenes089.bmp,,,,,0,96,96,96,,,,,,,,,,,,,,,,,,,,,,,,,,,,,,,,,,,,,,,,,,None,,286.81980208994355,None,286.81980208994355,None,2022-06-14-14:44:27.007870,286.83005569991656,287.13626419985667,286.83005569991656,None,None,286.83005569991656,None,287.64322869002353,None,,,,11017,0001,2022_Jun_14_1439,localizer,2021.1.3,59.99152924331289,
block,scenes,scenes064.bmp,,,,,0,97,97,97,,,,,,,,,,,,,,,,,,,,,,,,,,,,,,,,,,,,,,,,,,None,,287.64322869002353,None,287.64322869002353,None,2022-06-14-14:44:27.838252,287.6631566998549,287.96931259986013,287.6631566998549,None,None,287.6631566998549,None,288.4534566899529,None,,,,11017,0001,2022_Jun_14_1439,localizer,2021.1.3,59.99152924331289,
block,scenes,scenes013.bmp,,,,,0,98,98,98,,,,,,,,,,,,,,,,,,,,,,,,,,,,,,,,,,,,,,,,,,None,,288.4534566899529,None,288.4534566899529,None,2022-06-14-14:44:28.641540,288.46508369990624,288.7694951000158,288.46508369990624,None,None,288.46508369990624,None,289.2699487899663,None,,,,11017,0001,2022_Jun_14_1439,localizer,2021.1.3,59.99152924331289,
block,scenes,scenes060.bmp,,,,,0,99,99,99,,,,,,,,,,,,,,,,,,,,,,,,,,,,,,,,,,,,,,,,,,None,,289.2699487899663,None,289.2699487899663,None,2022-06-14-14:44:29.458015,289.28214009990916,289.58597439993173,289.28214009990916,None,None,289.28214009990916,None,290.08846169000026,None,,,,11017,0001,2022_Jun_14_1439,localizer,2021.1.3,59.99152924331289,
block,scenes,scenes073.bmp,,,,,0,100,100,100,,,,,,,,,,,,,,,,,,,,,,,,,,,,,,,,,,,,,,,,,,None,,290.08846169000026,None,290.08846169000026,None,2022-06-14-14:44:30.280545,290.10566439991817,290.41938019986264,290.10566439991817,None,None,290.10566439991817,None,290.90341189003084,None,,,,11017,0001,2022_Jun_14_1439,localizer,2021.1.3,59.99152924331289,
block,scenes,scenes083.bmp,,,,,0,101,101,101,,,,,,,,,,,,,,,,,,,,,,,,,,,,,,,,,,,,,,,,,,None,,290.90341189003084,None,290.90341189003084,None,2022-06-14-14:44:31.091660,290.91971619986,291.22077829996124,290.91971619986,None,None,290.91971619986,None,291.7197689899476,None,,,,11017,0001,2022_Jun_14_1439,localizer,2021.1.3,59.99152924331289,
block,scenes,scenes027.bmp,,,,,0,102,102,102,,,,,,,,,,,,,,,,,,,,,,,,,,,,,,,,,,,,,,,,,,None,,291.7197689899476,None,291.7197689899476,None,2022-06-14-14:44:31.907840,291.73129469994456,292.0363878000062,291.73129469994456,None,None,291.73129469994456,None,292.53756739001255,None,,,,11017,0001,2022_Jun_14_1439,localizer,2021.1.3,59.99152924331289,
block,scenes,scenes072.bmp,,,,,0,103,103,103,,,,,,,,,,,,,,,,,,,,,,,,,,,,,,,,,,,,,,,,,,None,,292.53756739001255,None,292.53756739001255,None,2022-06-14-14:44:32.726622,292.5509630998131,292.853127699811,292.5509630998131,None,None,292.5509630998131,None,293.3534351900453,None,,,,11017,0001,2022_Jun_14_1439,localizer,2021.1.3,59.99152924331289,
block,scenes,scenes029.bmp,,,,,0,104,104,104,,,,,,,,,,,,,,,,,,,,,,,,,,,,,,,,,,,,,,,,,,None,,293.3534351900453,None,293.3534351900453,None,2022-06-14-14:44:33.541528,293.3641307000071,293.66956719988957,293.3641307000071,None,None,293.3641307000071,None,294.1701199900126,None,,,,11017,0001,2022_Jun_14_1439,localizer,2021.1.3,59.99152924331289,
block,scenes,scenes076.bmp,,,,,0,105,105,105,,,,,,,,,,,,,,,,,,,,,,,,,,,,,,,,,,,,,,,,,,None,,294.1701199900126,None,294.1701199900126,None,2022-06-14-14:44:34.358381,294.1811509998515,294.485988299828,294.1811509998515,None,None,294.1811509998515,None,294.98673868982587,None,,,,11017,0001,2022_Jun_14_1439,localizer,2021.1.3,59.99152924331289,
block_end,scenes,scenes078.bmp,,,,,0,106,106,106,,,,,,,,,,,,,,,,,,,,,,,,,,,,,,,,,,,,,,,,,,None,,294.98673868982587,None,294.98673868982587,None,2022-06-14-14:44:35.174808,294.99842479988,295.3027681999374,294.99842479988,None,None,294.99842479988,None,295.80290449003223,None,,,,11017,0001,2022_Jun_14_1439,localizer,2021.1.3,59.99152924331289,
block_start,scrambled,scrambled018.bmp,,,,,0,107,107,107,,,,,,,,,,,,,,,,,,,,,,,,,,,,,,,,,,,,,,,,,,t,1.7365592999849468,295.80254739988595,None,295.80254739988595,None,2022-06-14-14:44:37.756959,297.58010249980725,297.8865431000013,297.58010249980725,None,None,297.58010249980725,None,298.3868824898964,None,,,,11017,0001,2022_Jun_14_1439,localizer,2021.1.3,59.99152924331289,
block,scrambled,scrambled039.bmp,,,,,0,108,108,108,,,,,,,,,,,,,,,,,,,,,,,,,,,,,,,,,,,,,,,,,,None,,298.3868824898964,None,298.3868824898964,None,2022-06-14-14:44:38.574953,298.3986803998705,298.702860099962,298.3986803998705,None,None,298.3986803998705,None,299.2034229900455,None,,,,11017,0001,2022_Jun_14_1439,localizer,2021.1.3,59.99152924331289,
block,scrambled,scrambled050.bmp,,,,,0,109,109,109,,,,,,,,,,,,,,,,,,,,,,,,,,,,,,,,,,,,,,,,,,None,,299.2034229900455,None,299.2034229900455,None,2022-06-14-14:44:39.391678,299.21408689999953,299.51930269994773,299.21408689999953,None,None,299.21408689999953,None,300.0194451898569,None,,,,11017,0001,2022_Jun_14_1439,localizer,2021.1.3,59.99152924331289,
block,scrambled,scrambled083.bmp,,,,,0,110,110,110,,,,,,,,,,,,,,,,,,,,,,,,,,,,,,,,,,,,,,,,,,None,,300.0194451898569,None,300.0194451898569,None,2022-06-14-14:44:40.207441,300.0279413999524,300.33674429985695,300.0279413999524,None,None,300.0279413999524,None,300.82654528983403,None,,,,11017,0001,2022_Jun_14_1439,localizer,2021.1.3,59.99152924331289,
block,scrambled,scrambled035.bmp,,,,,0,111,111,111,,,,,,,,,,,,,,,,,,,,,,,,,,,,,,,,,,,,,,,,,,None,,300.82654528983403,None,300.82654528983403,None,2022-06-14-14:44:41.019612,300.8454085998237,301.15292389993556,300.8454085998237,None,None,300.8454085998237,None,301.63628028996754,None,,,,11017,0001,2022_Jun_14_1439,localizer,2021.1.3,59.99152924331289,
block,scrambled,scrambled020.bmp,,,,,0,112,112,112,,,,,,,,,,,,,,,,,,,,,,,,,,,,,,,,,,,,,,,,,,None,,301.63628028996754,None,301.63628028996754,None,2022-06-14-14:44:41.824359,301.6451730998233,301.9526354998816,301.6451730998233,None,None,301.6451730998233,None,302.4535756899277,None,,,,11017,0001,2022_Jun_14_1439,localizer,2021.1.3,59.99152924331289,
block,scrambled,scrambled029.bmp,,,,,0,113,113,113,,,,,,,,,,,,,,,,,,,,,,,,,,,,,,,,,,,,,,,,,,None,,302.4535756899277,None,302.4535756899277,None,2022-06-14-14:44:42.642822,302.46116629987955,302.7695014998317,302.46116629987955,None,None,302.46116629987955,None,303.27017459005583,None,,,,11017,0001,2022_Jun_14_1439,localizer,2021.1.3,59.99152924331289,
block,scrambled,scrambled007.bmp,,,,,0,114,114,114,,,,,,,,,,,,,,,,,,,,,,,,,,,,,,,,,,,,,,,,,,None,,303.27017459005583,None,303.27017459005583,None,2022-06-14-14:44:43.458268,303.28082369989716,303.58693989994936,303.28082369989716,None,None,303.28082369989716,None,304.0861793899676,None,,,,11017,0001,2022_Jun_14_1439,localizer,2021.1.3,59.99152924331289,
block,scrambled,scrambled066.bmp,,,,,0,115,115,115,,,,,,,,,,,,,,,,,,,,,,,,,,,,,,,,,,,,,,,,,,None,,304.0861793899676,None,304.0861793899676,None,2022-06-14-14:44:44.273334,304.09503149986267,304.402946599992,304.09503149986267,None,None,304.09503149986267,None,304.90289798995946,None,,,,11017,0001,2022_Jun_14_1439,localizer,2021.1.3,59.99152924331289,
block,scrambled,scrambled033.bmp,,,,,0,116,116,116,,,,,,,,,,,,,,,,,,,,,,,,,,,,,,,,,,,,,,,,,,None,,304.90289798995946,None,304.90289798995946,None,2022-06-14-14:44:45.090982,304.91125539992936,305.2194595998153,304.91125539992936,None,None,304.91125539992936,None,305.7199144900078,None,,,,11017,0001,2022_Jun_14_1439,localizer,2021.1.3,59.99152924331289,
block,scrambled,scrambled033.bmp,,,,,0,117,117,117,,,,,,,,,,,,,,,,,,,,,,,,,,,,,,,,,,,,,,,,,,None,,305.7199144900078,None,305.7199144900078,None,2022-06-14-14:44:45.908012,305.7204738999717,306.0202770999167,305.7204738999717,None,y,305.7204738999717,None,306.52052589005325,None,0.6054458001162857,,,11017,0001,2022_Jun_14_1439,localizer,2021.1.3,59.99152924331289,
block,scrambled,scrambled058.bmp,,,,,0,118,118,118,,,,,,,,,,,,,,,,,,,,,,,,,,,,,,,,,,,,,,,,,,None,,306.52052589005325,None,306.52052589005325,None,2022-06-14-14:44:46.711775,306.53462359984405,306.8364253998734,306.53462359984405,306.53462359984405,None,306.53462359984405,306.53462359984405,307.337967689964,None,,,,11017,0001,2022_Jun_14_1439,localizer,2021.1.3,59.99152924331289,
block,scrambled,scrambled065.bmp,,,,,0,119,119,119,,,,,,,,,,,,,,,,,,,,,,,,,,,,,,,,,,,,,,,,,,None,,307.337967689964,None,307.337967689964,None,2022-06-14-14:44:47.529020,307.351646799827,307.6531513000373,307.351646799827,None,None,307.351646799827,None,308.1541591900168,None,,,,11017,0001,2022_Jun_14_1439,localizer,2021.1.3,59.99152924331289,
block,scrambled,scrambled057.bmp,,,,,0,120,120,120,,,,,,,,,,,,,,,,,,,,,,,,,,,,,,,,,,,,,,,,,,None,,308.1541591900168,None,308.1541591900168,None,2022-06-14-14:44:48.343221,308.1559813998174,308.47025249991566,308.1559813998174,None,None,308.1559813998174,None,308.96999219001736,None,,,,11017,0001,2022_Jun_14_1439,localizer,2021.1.3,59.99152924331289,
block_end,scrambled,scrambled008.bmp,,,,,0,121,121,121,,,,,,,,,,,,,,,,,,,,,,,,,,,,,,,,,,,,,,,,,,None,,308.96999219001736,None,308.96999219001736,None,2022-06-14-14:44:49.158486,308.98171429987997,309.2859207999427,308.98171429987997,None,None,308.98171429987997,None,309.78528929001186,None,,,,11017,0001,2022_Jun_14_1439,localizer,2021.1.3,59.99152924331289,
block_start,scenes,scenes077.bmp,,,,,0,122,122,122,,,,,,,,,,,,,,,,,,,,,,,,,,,,,,,,,,,,,,,,,,t,1.7541767000220716,309.78509269980714,None,309.78509269980714,None,2022-06-14-14:44:51.743863,311.5644245999865,311.8703340999782,311.5644245999865,None,None,311.5644245999865,None,312.37041488999967,None,,,,11017,0001,2022_Jun_14_1439,localizer,2021.1.3,59.99152924331289,
block,scenes,scenes050.bmp,,,,,0,123,123,123,,,,,,,,,,,,,,,,,,,,,,,,,,,,,,,,,,,,,,,,,,None,,312.37041488999967,None,312.37041488999967,None,2022-06-14-14:44:52.559855,312.37271779985167,312.6858758998569,312.37271779985167,None,None,312.37271779985167,None,313.1877252898412,None,,,,11017,0001,2022_Jun_14_1439,localizer,2021.1.3,59.99152924331289,
block,scenes,scenes089.bmp,,,,,0,124,124,124,,,,,,,,,,,,,,,,,,,,,,,,,,,,,,,,,,,,,,,,,,None,,313.1877252898412,None,313.1877252898412,None,2022-06-14-14:44:53.377782,313.1908621999901,313.5026891999878,313.1908621999901,None,None,313.1908621999901,None,314.0033925898606,None,,,,11017,0001,2022_Jun_14_1439,localizer,2021.1.3,59.99152924331289,
block,scenes,scenes047.bmp,,,,,0,125,125,125,,,,,,,,,,,,,,,,,,,,,,,,,,,,,,,,,,,,,,,,,,None,,314.0033925898606,None,314.0033925898606,None,2022-06-14-14:44:54.191470,314.01368029997684,314.31971860001795,314.01368029997684,None,None,314.01368029997684,None,314.8195276899496,None,,,,11017,0001,2022_Jun_14_1439,localizer,2021.1.3,59.99152924331289,
block,scenes,scenes063.bmp,,,,,0,126,126,126,,,,,,,,,,,,,,,,,,,,,,,,,,,,,,,,,,,,,,,,,,None,,314.8195276899496,None,314.8195276899496,None,2022-06-14-14:44:55.008611,314.82684409990907,315.1363619999029,314.82684409990907,None,None,314.82684409990907,None,315.6366875899257,None,,,,11017,0001,2022_Jun_14_1439,localizer,2021.1.3,59.99152924331289,
block,scenes,scenes059.bmp,,,,,0,127,127,127,,,,,,,,,,,,,,,,,,,,,,,,,,,,,,,,,,,,,,,,,,None,,315.6366875899257,None,315.6366875899257,None,2022-06-14-14:44:55.824766,315.6466612999793,315.95301009994,315.6466612999793,None,None,315.6466612999793,None,316.45348858984653,None,,,,11017,0001,2022_Jun_14_1439,localizer,2021.1.3,59.99152924331289,
block,scenes,scenes075.bmp,,,,,0,128,128,128,,,,,,,,,,,,,,,,,,,,,,,,,,,,,,,,,,,,,,,,,,None,,316.45348858984653,None,316.45348858984653,None,2022-06-14-14:44:56.641754,316.4642015998252,316.7700079998467,316.4642015998252,None,None,316.4642015998252,None,317.2700260899728,None,,,,11017,0001,2022_Jun_14_1439,localizer,2021.1.3,59.99152924331289,
block,scenes,scenes064.bmp,,,,,0,129,129,129,,,,,,,,,,,,,,,,,,,,,,,,,,,,,,,,,,,,,,,,,,None,,317.2700260899728,None,317.2700260899728,None,2022-06-14-14:44:57.458103,317.27062450000085,317.57008879981004,317.27062450000085,None,None,317.27062450000085,None,318.07041219004896,None,,,,11017,0001,2022_Jun_14_1439,localizer,2021.1.3,59.99152924331289,
block,scenes,scenes055.bmp,,,,,0,130,130,130,,,,,,,,,,,,,,,,,,,,,,,,,,,,,,,,,,,,,,,,,,None,,318.07041219004896,None,318.07041219004896,None,2022-06-14-14:44:58.261544,318.08526550000533,318.3859372998122,318.08526550000533,318.08526550000533,None,318.08526550000533,318.08526550000533,318.88703188986983,None,,,,11017,0001,2022_Jun_14_1439,localizer,2021.1.3,59.99152924331289,
block,scenes,scenes060.bmp,,,,,0,131,131,131,,,,,,,,,,,,,,,,,,,,,,,,,,,,,,,,,,,,,,,,,,None,,318.88703188986983,None,318.88703188986983,None,2022-06-14-14:44:59.076490,318.8877269998193,319.1867080000229,318.8877269998193,None,None,318.8877269998193,None,319.68687288986985,None,,,,11017,0001,2022_Jun_14_1439,localizer,2021.1.3,59.99152924331289,
block,scenes,scenes053.bmp,,,,,0,132,132,132,,,,,,,,,,,,,,,,,,,,,,,,,,,,,,,,,,,,,,,,,,None,,319.68687288986985,None,319.68687288986985,None,2022-06-14-14:44:59.877923,319.69923849985935,320.0030123000033,319.69923849985935,319.69923849985935,None,319.69923849985935,319.69923849985935,320.5038117900258,None,,,,11017,0001,2022_Jun_14_1439,localizer,2021.1.3,59.99152924331289,
block,scenes,scenes033.bmp,,,,,0,133,133,133,,,,,,,,,,,,,,,,,,,,,,,,,,,,,,,,,,,,,,,,,,None,,320.5038117900258,None,320.5038117900258,None,2022-06-14-14:45:00.692863,320.5155415998306,320.81924999994226,320.5155415998306,None,None,320.5155415998306,None,321.3260059900349,None,,,,11017,0001,2022_Jun_14_1439,localizer,2021.1.3,59.99152924331289,
block,scenes,scenes071.bmp,,,,,0,134,134,134,,,,,,,,,,,,,,,,,,,,,,,,,,,,,,,,,,,,,,,,,,None,,321.3260059900349,None,321.3260059900349,None,2022-06-14-14:45:01.521998,321.3461022998672,321.6530026998371,321.3461022998672,None,None,321.3461022998672,None,322.1366922898451,None,,,,11017,0001,2022_Jun_14_1439,localizer,2021.1.3,59.99152924331289,
block,scenes,scenes032.bmp,,,,,0,135,135,135,,,,,,,,,,,,,,,,,,,,,,,,,,,,,,,,,,,,,,,,,,None,,322.1366922898451,None,322.1366922898451,None,2022-06-14-14:45:02.324772,322.1475360998884,322.4533561000135,322.1475360998884,None,None,322.1475360998884,None,322.9544004899217,None,,,,11017,0001,2022_Jun_14_1439,localizer,2021.1.3,59.99152924331289,
block_end,scenes,scenes020.bmp,,,,,0,136,136,136,,,,,,,,,,,,,,,,,,,,,,,,,,,,,,,,,,,,,,,,,,None,,322.9544004899217,None,322.9544004899217,None,2022-06-14-14:45:03.144521,322.96861379989423,323.27026359993033,322.96861379989423,None,None,322.96861379989423,None,323.7703709899215,None,,,,11017,0001,2022_Jun_14_1439,localizer,2021.1.3,59.99152924331289,
block_start,scrambled,scrambled010.bmp,,,,,0,137,137,137,,,,,,,,,,,,,,,,,,,,,,,,,,,,,,,,,,,,,,,,,,t,1.7691547002177685,323.7700018999167,None,323.7700018999167,None,2022-06-14-14:45:05.757386,325.58179949992336,325.88680529990233,325.58179949992336,None,None,325.58179949992336,None,326.3874629900092,None,,,,11017,0001,2022_Jun_14_1439,localizer,2021.1.3,59.99152924331289,
block,scrambled,scrambled014.bmp,,,,,0,138,138,138,,,,,,,,,,,,,,,,,,,,,,,,,,,,,,,,,,,,,,,,,,None,,326.3874629900092,None,326.3874629900092,None,2022-06-14-14:45:06.577568,326.3902129998896,326.7029991999734,326.3902129998896,None,None,326.3902129998896,None,327.2030265900539,None,,,,11017,0001,2022_Jun_14_1439,localizer,2021.1.3,59.99152924331289,
block,scrambled,scrambled001.bmp,,,,,0,139,139,139,,,,,,,,,,,,,,,,,,,,,,,,,,,,,,,,,,,,,,,,,,None,,327.2030265900539,None,327.2030265900539,None,2022-06-14-14:45:07.391127,327.21245289989747,327.51973709999584,327.21245289989747,None,None,327.21245289989747,None,328.019806689932,None,,,,11017,0001,2022_Jun_14_1439,localizer,2021.1.3,59.99152924331289,
block,scrambled,scrambled004.bmp,,,,,0,140,140,140,,,,,,,,,,,,,,,,,,,,,,,,,,,,,,,,,,,,,,,,,,None,,328.019806689932,None,328.019806689932,None,2022-06-14-14:45:08.207895,328.02808379987255,328.33632049988955,328.02808379987255,None,None,328.02808379987255,None,328.8368978899671,None,,,,11017,0001,2022_Jun_14_1439,localizer,2021.1.3,59.99152924331289,
block,scrambled,scrambled078.bmp,,,,,0,141,141,141,,,,,,,,,,,,,,,,,,,,,,,,,,,,,,,,,,,,,,,,,,None,,328.8368978899671,None,328.8368978899671,None,2022-06-14-14:45:09.025000,328.84762399992906,329.1532584000379,328.84762399992906,None,None,328.84762399992906,None,329.65364048990887,None,,,,11017,0001,2022_Jun_14_1439,localizer,2021.1.3,59.99152924331289,
block,scrambled,scrambled019.bmp,,,,,0,142,142,142,,,,,,,,,,,,,,,,,,,,,,,,,,,,,,,,,,,,,,,,,,None,,329.65364048990887,None,329.65364048990887,None,2022-06-14-14:45:09.842910,329.66430159984156,329.9695410998538,329.66430159984156,None,None,329.66430159984156,None,330.47053448983934,None,,,,11017,0001,2022_Jun_14_1439,localizer,2021.1.3,59.99152924331289,
block,scrambled,scrambled042.bmp,,,,,0,143,143,143,,,,,,,,,,,,,,,,,,,,,,,,,,,,,,,,,,,,,,,,,,None,,330.47053448983934,None,330.47053448983934,None,2022-06-14-14:45:10.659795,330.4819781999104,330.7926842998713,330.4819781999104,None,None,330.4819781999104,None,331.2865740900161,None,,,,11017,0001,2022_Jun_14_1439,localizer,2021.1.3,59.99152924331289,
block,scrambled,scrambled067.bmp,,,,,0,144,144,144,,,,,,,,,,,,,,,,,,,,,,,,,,,,,,,,,,,,,,,,,,None,,331.2865740900161,None,331.2865740900161,None,2022-06-14-14:45:11.473660,331.28745769988745,331.58682839991525,331.28745769988745,None,None,331.28745769988745,None,332.0870346898446,None,,,,11017,0001,2022_Jun_14_1439,localizer,2021.1.3,59.99152924331289,
block,scrambled,scrambled038.bmp,,,,,0,145,145,145,,,,,,,,,,,,,,,,,,,,,,,,,,,,,,,,,,,,,,,,,,None,,332.0870346898446,None,332.0870346898446,None,2022-06-14-14:45:12.278215,332.10188369988464,332.4032417999115,332.10188369988464,332.10188369988464,None,332.10188369988464,332.10188369988464,332.9032864900073,None,,,,11017,0001,2022_Jun_14_1439,localizer,2021.1.3,59.99152924331289,
block,scrambled,scrambled032.bmp,,,,,0,146,146,146,,,,,,,,,,,,,,,,,,,,,,,,,,,,,,,,,,,,,,,,,,None,,332.9032864900073,None,332.9032864900073,None,2022-06-14-14:45:13.091373,332.9126378998626,333.2197822998278,332.9126378998626,None,None,332.9126378998626,None,333.72076528996695,None,,,,11017,0001,2022_Jun_14_1439,localizer,2021.1.3,59.99152924331289,
block,scrambled,scrambled021.bmp,,,,,0,147,147,147,,,,,,,,,,,,,,,,,,,,,,,,,,,,,,,,,,,,,,,,,,None,,333.72076528996695,None,333.72076528996695,None,2022-06-14-14:45:13.909835,333.7331907998305,334.03634239989333,333.7331907998305,None,None,333.7331907998305,None,334.5367447900353,None,,,,11017,0001,2022_Jun_14_1439,localizer,2021.1.3,59.99152924331289,
block,scrambled,scrambled016.bmp,,,,,0,148,148,148,,,,,,,,,,,,,,,,,,,,,,,,,,,,,,,,,,,,,,,,,,None,,334.5367447900353,None,334.5367447900353,None,2022-06-14-14:45:14.725052,334.54782720003277,334.85386010003276,334.54782720003277,None,None,334.54782720003277,None,335.3539328899933,None,,,,11017,0001,2022_Jun_14_1439,localizer,2021.1.3,59.99152924331289,
block,scrambled,scrambled013.bmp,,,,,0,149,149,149,,,,,,,,,,,,,,,,,,,,,,,,,,,,,,,,,,,,,,,,,,None,,335.3539328899933,None,335.3539328899933,None,2022-06-14-14:45:15.543059,335.36545179993846,335.66986200003885,335.36545179993846,None,None,335.36545179993846,None,336.1704102900112,None,,,,11017,0001,2022_Jun_14_1439,localizer,2021.1.3,59.99152924331289,
block,scrambled,scrambled054.bmp,,,,,0,150,150,150,,,,,,,,,,,,,,,,,,,,,,,,,,,,,,,,,,,,,,,,,,None,,336.1704102900112,None,336.1704102900112,None,2022-06-14-14:45:16.359487,336.18200859986246,336.48678639996797,336.18200859986246,None,None,336.18200859986246,None,336.98698278993834,None,,,,11017,0001,2022_Jun_14_1439,localizer,2021.1.3,59.99152924331289,
block_end,scrambled,scrambled028.bmp,,,,,0,151,151,151,,,,,,,,,,,,,,,,,,,,,,,,,,,,,,,,,,,,,,,,,,None,,336.98698278993834,None,336.98698278993834,None,2022-06-14-14:45:17.176043,336.9988082998898,337.30347579997033,336.9988082998898,None,None,336.9988082998898,None,337.8036935898708,None,,,,11017,0001,2022_Jun_14_1439,localizer,2021.1.3,59.99152924331289,
block_start,objects,objects043.bmp,,,,,0,152,152,152,,,,,,,,,,,,,,,,,,,,,,,,,,,,,,,,,,,,,,,,,,t,1.7344359001144767,337.80351949995384,None,337.80351949995384,None,2022-06-14-14:45:19.740483,339.55397360003553,339.85311809997074,339.55397360003553,None,None,339.55397360003553,None,340.35311848984566,None,,,,11017,0001,2022_Jun_14_1439,localizer,2021.1.3,59.99152924331289,
block,objects,objects044.bmp,,,,,0,153,153,153,,,,,,,,,,,,,,,,,,,,,,,,,,,,,,,,,,,,,,,,,,None,,340.35311848984566,None,340.35311848984566,None,2022-06-14-14:45:20.542209,340.362791699823,340.6700848999899,340.362791699823,340.362791699823,None,340.362791699823,340.362791699823,341.1700925900368,None,,,,11017,0001,2022_Jun_14_1439,localizer,2021.1.3,59.99152924331289,
block,objects,objects031.bmp,,,,,0,154,154,154,,,,,,,,,,,,,,,,,,,,,,,,,,,,,,,,,,,,,,,,,,None,,341.1700925900368,None,341.1700925900368,None,2022-06-14-14:45:21.358179,341.1707293000072,341.46988360001706,341.1707293000072,None,None,341.1707293000072,None,341.9703834898537,None,,,,11017,0001,2022_Jun_14_1439,localizer,2021.1.3,59.99152924331289,
block,objects,objects012.bmp,,,,,0,155,155,155,,,,,,,,,,,,,,,,,,,,,,,,,,,,,,,,,,,,,,,,,,None,,341.9703834898537,None,341.9703834898537,None,2022-06-14-14:45:22.161459,341.9832693999633,342.286338099977,341.9832693999633,341.9832693999633,None,341.9832693999633,341.9832693999633,342.78684528998565,None,,,,11017,0001,2022_Jun_14_1439,localizer,2021.1.3,59.99152924331289,
block,objects,objects027.bmp,,,,,0,156,156,156,,,,,,,,,,,,,,,,,,,,,,,,,,,,,,,,,,,,,,,,,,None,,342.78684528998565,None,342.78684528998565,None,2022-06-14-14:45:22.975137,342.7875518000219,343.0864301000256,342.7875518000219,None,None,342.7875518000219,None,343.58708158985246,None,,,,11017,0001,2022_Jun_14_1439,localizer,2021.1.3,59.99152924331289,
block,objects,objects058.bmp,,,,,0,157,157,157,,,,,,,,,,,,,,,,,,,,,,,,,,,,,,,,,,,,,,,,,,None,,343.58708158985246,None,343.58708158985246,None,2022-06-14-14:45:23.778350,343.6003741999157,343.9032160998322,343.6003741999157,343.6003741999157,None,343.6003741999157,343.6003741999157,344.40339118998963,None,,,,11017,0001,2022_Jun_14_1439,localizer,2021.1.3,59.99152924331289,
block,objects,objects035.bmp,,,,,0,158,158,158,,,,,,,,,,,,,,,,,,,,,,,,,,,,,,,,,,,,,,,,,,None,,344.40339118998963,None,344.40339118998963,None,2022-06-14-14:45:24.591478,344.4140549998265,344.72004939988256,344.4140549998265,None,None,344.4140549998265,None,345.22011719003785,None,,,,11017,0001,2022_Jun_14_1439,localizer,2021.1.3,59.99152924331289,
block,objects,objects076.bmp,,,,,0,159,159,159,,,,,,,,,,,,,,,,,,,,,,,,,,,,,,,,,,,,,,,,,,None,,345.22011719003785,None,345.22011719003785,None,2022-06-14-14:45:25.408417,345.22075059986673,345.51971349981613,345.22075059986673,None,None,345.22075059986673,None,346.02053848991636,None,,,,11017,0001,2022_Jun_14_1439,localizer,2021.1.3,59.99152924331289,
block,objects,objects030.bmp,,,,,0,160,160,160,,,,,,,,,,,,,,,,,,,,,,,,,,,,,,,,,,,,,,,,,,None,,346.02053848991636,None,346.02053848991636,None,2022-06-14-14:45:26.211795,346.0235172000248,346.33627679990605,346.0235172000248,346.0235172000248,None,346.0235172000248,346.0235172000248,346.83647338987794,None,,,,11017,0001,2022_Jun_14_1439,localizer,2021.1.3,59.99152924331289,
block,objects,objects022.bmp,,,,,0,161,161,161,,,,,,,,,,,,,,,,,,,,,,,,,,,,,,,,,,,,,,,,,,None,,346.83647338987794,None,346.83647338987794,None,2022-06-14-14:45:27.024568,346.8408160000108,347.1534859999083,346.8408160000108,None,None,346.8408160000108,None,347.65355568996165,None,,,,11017,0001,2022_Jun_14_1439,localizer,2021.1.3,59.99152924331289,
block,objects,objects061.bmp,,,,,0,162,162,162,,,,,,,,,,,,,,,,,,,,,,,,,,,,,,,,,,,,,,,,,,None,,347.65355568996165,None,347.65355568996165,None,2022-06-14-14:45:27.841640,347.6540258999448,347.9533465998247,347.6540258999448,None,None,347.6540258999448,None,348.4534190898994,None,,,,11017,0001,2022_Jun_14_1439,localizer,2021.1.3,59.99152924331289,
block,objects,objects016.bmp,,,,,0,163,163,163,,,,,,,,,,,,,,,,,,,,,,,,,,,,,,,,,,,,,,,,,,None,,348.4534190898994,None,348.4534190898994,None,2022-06-14-14:45:28.643729,348.4560759998858,348.76984149985947,348.4560759998858,348.4560759998858,None,348.4560759998858,348.4560759998858,349.270240289974,None,,,,11017,0001,2022_Jun_14_1439,localizer,2021.1.3,59.99152924331289,
block,objects,objects063.bmp,,,,,0,164,164,164,,,,,,,,,,,,,,,,,,,,,,,,,,,,,,,,,,,,,,,,,,None,,349.270240289974,None,349.270240289974,None,2022-06-14-14:45:29.458524,349.28011789987795,349.5861734999344,349.28011789987795,None,None,349.28011789987795,None,350.08717398985755,None,,,,11017,0001,2022_Jun_14_1439,localizer,2021.1.3,59.99152924331289,
block,objects,objects057.bmp,,,,,0,165,165,165,,,,,,,,,,,,,,,,,,,,,,,,,,,,,,,,,,,,,,,,,,None,,350.08717398985755,None,350.08717398985755,None,2022-06-14-14:45:30.276458,350.0983845000155,350.40293139987625,350.0983845000155,None,None,350.0983845000155,None,350.90357018995564,None,,,,11017,0001,2022_Jun_14_1439,localizer,2021.1.3,59.99152924331289,
block_end,objects,objects046.bmp,,,,,0,166,166,166,,,,,,,,,,,,,,,,,,,,,,,,,,,,,,,,,,,,,,,,,,None,,350.90357018995564,None,350.90357018995564,None,2022-06-14-14:45:31.091948,350.91431269980967,351.2197695998475,350.91431269980967,None,None,350.91431269980967,None,351.7201436898904,None,,,,11017,0001,2022_Jun_14_1439,localizer,2021.1.3,59.99152924331289,
null_block,null_block,null_block.bmp,,,,,0,167,167,167,,,,,,,,,,,,,,,,,,,,,,,,,,,,,,,,,,,,,,,,,,t,1.8181195999495685,351.7199097999837,None,351.7199097999837,None,2022-06-14-14:45:33.740603,353.55351008998696,None,353.55351008998696,None,None,353.55351008998696,None,353.55571959982626,None,,,,11017,0001,2022_Jun_14_1439,localizer,2021.1.3,59.99152924331289,
block_start,faces,faces036.bmp,,,,,0,168,168,168,,,,,,,,,,,,,,,,,,,,,,,,,,,,,,,,,,,,,,,,,,t,1.983405000064522,365.5546662998386,None,365.5546662998386,None,2022-06-14-14:45:47.744294,367.5663091999013,367.8695783999283,367.5663091999013,None,None,367.5663091999013,None,368.3700463898713,None,,,,11017,0001,2022_Jun_14_1439,localizer,2021.1.3,59.99152924331289,
block,faces,faces067.bmp,,,,,0,169,169,169,,,,,,,,,,,,,,,,,,,,,,,,,,,,,,,,,,,,,,,,,,None,,368.3700463898713,None,368.3700463898713,None,2022-06-14-14:45:48.558144,368.38169099995866,368.68663310003467,368.38169099995866,None,None,368.38169099995866,None,369.18694948998746,None,,,,11017,0001,2022_Jun_14_1439,localizer,2021.1.3,59.99152924331289,
block,faces,faces035.bmp,,,,,0,170,170,170,,,,,,,,,,,,,,,,,,,,,,,,,,,,,,,,,,,,,,,,,,None,,369.18694948998746,None,369.18694948998746,None,2022-06-14-14:45:49.375045,369.1987617998384,369.5033429998439,369.1987617998384,None,None,369.1987617998384,None,370.00231748993974,None,,,,11017,0001,2022_Jun_14_1439,localizer,2021.1.3,59.99152924331289,
block,faces,faces075.bmp,,,,,0,171,171,171,,,,,,,,,,,,,,,,,,,,,,,,,,,,,,,,,,,,,,,,,,None,,370.00231748993974,None,370.00231748993974,None,2022-06-14-14:45:50.189759,370.00677550002,370.31990280002356,370.00677550002,None,None,370.00677550002,None,370.82045818993356,None,,,,11017,0001,2022_Jun_14_1439,localizer,2021.1.3,59.99152924331289,
block,faces,faces063.bmp,,,,,0,172,172,172,,,,,,,,,,,,,,,,,,,,,,,,,,,,,,,,,,,,,,,,,,None,,370.82045818993356,None,370.82045818993356,None,2022-06-14-14:45:51.009547,370.83327919989824,371.13663419988006,370.83327919989824,None,None,370.83327919989824,None,371.62636428989936,None,,,,11017,0001,2022_Jun_14_1439,localizer,2021.1.3,59.99152924331289,
block,faces,faces077.bmp,,,,,0,173,173,173,,,,,,,,,,,,,,,,,,,,,,,,,,,,,,,,,,,,,,,,,,None,,371.62636428989936,None,371.62636428989936,None,2022-06-14-14:45:51.822334,371.6447115999181,371.9531675998587,371.6447115999181,None,None,371.6447115999181,None,372.43685498984996,None,,,,11017,0001,2022_Jun_14_1439,localizer,2021.1.3,59.99152924331289,
block,faces,faces054.bmp,,,,,0,174,174,174,,,,,,,,,,,,,,,,,,,,,,,,,,,,,,,,,,,,,,,,,,None,,372.43685498984996,None,372.43685498984996,None,2022-06-14-14:45:52.624953,372.4478037999943,372.75360729987733,372.4478037999943,None,None,372.4478037999943,None,373.25335339002777,None,,,,11017,0001,2022_Jun_14_1439,localizer,2021.1.3,59.99152924331289,
block,faces,faces017.bmp,,,,,0,175,175,175,,,,,,,,,,,,,,,,,,,,,,,,,,,,,,,,,,,,,,,,,,None,,373.25335339002777,None,373.25335339002777,None,2022-06-14-14:45:53.441617,373.2633142999839,373.57018659985624,373.2633142999839,None,None,373.2633142999839,None,374.0705995898461,None,,,,11017,0001,2022_Jun_14_1439,localizer,2021.1.3,59.99152924331289,
block,faces,faces028.bmp,,,,,0,176,176,176,,,,,,,,,,,,,,,,,,,,,,,,,,,,,,,,,,,,,,,,,,None,,374.0705995898461,None,374.0705995898461,None,2022-06-14-14:45:54.259670,374.0832303999923,374.38700399990194,374.0832303999923,None,None,374.0832303999923,None,374.8864392900141,None,,,,11017,0001,2022_Jun_14_1439,localizer,2021.1.3,59.99152924331289,
block,faces,faces086.bmp,,,,,0,177,177,177,,,,,,,,,,,,,,,,,,,,,,,,,,,,,,,,,,,,,,,,,,None,,374.8864392900141,None,374.8864392900141,None,2022-06-14-14:45:55.074808,374.8875082999002,375.1866038998123,374.8875082999002,None,None,374.8875082999002,None,375.68668898998294,None,,,,11017,0001,2022_Jun_14_1439,localizer,2021.1.3,59.99152924331289,
block,faces,faces052.bmp,,,,,0,178,178,178,,,,,,,,,,,,,,,,,,,,,,,,,,,,,,,,,,,,,,,,,,None,,375.68668898998294,None,375.68668898998294,None,2022-06-14-14:45:55.876822,375.6996619999409,376.0036008998286,375.6996619999409,375.6996619999409,None,375.6996619999409,375.6996619999409,376.50368268985767,None,,,,11017,0001,2022_Jun_14_1439,localizer,2021.1.3,59.99152924331289,
block,faces,faces020.bmp,,,,,0,179,179,179,,,,,,,,,,,,,,,,,,,,,,,,,,,,,,,,,,,,,,,,,,None,,376.50368268985767,None,376.50368268985767,None,2022-06-14-14:45:56.691762,376.514570399886,376.82038119994104,376.514570399886,None,None,376.514570399886,None,377.3095406900393,None,,,,11017,0001,2022_Jun_14_1439,localizer,2021.1.3,59.99152924331289,
block,faces,faces012.bmp,,,,,0,180,180,180,,,,,,,,,,,,,,,,,,,,,,,,,,,,,,,,,,,,,,,,,,None,,377.3095406900393,None,377.3095406900393,None,2022-06-14-14:45:57.497648,377.31819569994695,377.620148899965,377.31819569994695,None,None,377.31819569994695,None,378.1202946900157,None,,,,11017,0001,2022_Jun_14_1439,localizer,2021.1.3,59.99152924331289,
block,faces,faces012.bmp,,,,,0,181,181,181,,,,,,,,,,,,,,,,,,,,,,,,,,,,,,,,,,,,,,,,,,None,,378.1202946900157,None,378.1202946900157,None,2022-06-14-14:45:58.308590,378.12080959999,378.4202209999785,378.12080959999,None,y,378.12080959999,None,378.9203450899804,None,0.5162549999076873,,,11017,0001,2022_Jun_14_1439,localizer,2021.1.3,59.99152924331289,
block_end,faces,faces034.bmp,,,,,0,182,182,182,,,,,,,,,,,,,,,,,,,,,,,,,,,,,,,,,,,,,,,,,,None,,378.9203450899804,None,378.9203450899804,None,2022-06-14-14:45:59.110436,378.9230833000038,379.23691320000216,378.9230833000038,378.9230833000038,None,378.9230833000038,378.9230833000038,379.7369138899958,None,,,,11017,0001,2022_Jun_14_1439,localizer,2021.1.3,59.99152924331289,
block_start,faces,faces075.bmp,,,,,0,183,183,183,,,,,,,,,,,,,,,,,,,,,,,,,,,,,,,,,,,,,,,,,,t,1.8014115998521447,379.7365935998969,None,379.7365935998969,None,2022-06-14-14:46:01.742306,381.554424099857,381.8697958998382,381.554424099857,None,None,381.554424099857,None,382.35351768985856,None,,,,11017,0001,2022_Jun_14_1439,localizer,2021.1.3,59.99152924331289,
block,faces,faces073.bmp,,,,,0,184,184,184,,,,,,,,,,,,,,,,,,,,,,,,,,,,,,,,,,,,,,,,,,None,,382.35351768985856,None,382.35351768985856,None,2022-06-14-14:46:02.542923,382.36328369984403,382.66995669994503,382.36328369984403,382.36328369984403,None,382.36328369984403,382.36328369984403,383.1708754898282,None,,,,11017,0001,2022_Jun_14_1439,localizer,2021.1.3,59.99152924331289,
block,faces,faces043.bmp,,,,,0,185,185,185,,,,,,,,,,,,,,,,,,,,,,,,,,,,,,,,,,,,,,,,,,None,,383.1708754898282,None,383.1708754898282,None,2022-06-14-14:46:03.359041,383.1826651999727,383.4869136000052,383.1826651999727,None,None,383.1826651999727,None,383.98701428982895,None,,,,11017,0001,2022_Jun_14_1439,localizer,2021.1.3,59.99152924331289,
block,faces,faces018.bmp,,,,,0,186,186,186,,,,,,,,,,,,,,,,,,,,,,,,,,,,,,,,,,,,,,,,,,None,,383.98701428982895,None,383.98701428982895,None,2022-06-14-14:46:04.175366,383.9876818000339,384.28680699993856,383.9876818000339,None,None,383.9876818000339,None,384.787403789931,None,,,,11017,0001,2022_Jun_14_1439,localizer,2021.1.3,59.99152924331289,
block,faces,faces011.bmp,,,,,0,187,187,187,,,,,,,,,,,,,,,,,,,,,,,,,,,,,,,,,,,,,,,,,,None,,384.787403789931,None,384.787403789931,None,2022-06-14-14:46:04.984625,384.7983649999369,385.10353620001115,384.7983649999369,384.7983649999369,None,384.7983649999369,384.7983649999369,385.6103353899671,None,,,,11017,0001,2022_Jun_14_1439,localizer,2021.1.3,59.99152924331289,
block,faces,faces038.bmp,,,,,0,188,188,188,,,,,,,,,,,,,,,,,,,,,,,,,,,,,,,,,,,,,,,,,,None,,385.6103353899671,None,385.6103353899671,None,2022-06-14-14:46:05.806671,385.6373042999767,385.93712699995376,385.6373042999767,None,None,385.6373042999767,None,386.4209307899,None,,,,11017,0001,2022_Jun_14_1439,localizer,2021.1.3,59.99152924331289,
block,faces,faces058.bmp,,,,,0,189,189,189,,,,,,,,,,,,,,,,,,,,,,,,,,,,,,,,,,,,,,,,,,None,,386.4209307899,None,386.4209307899,None,2022-06-14-14:46:06.610330,386.4228223999962,386.736658499809,386.4228223999962,None,None,386.4228223999962,None,387.2373139898991,None,,,,11017,0001,2022_Jun_14_1439,localizer,2021.1.3,59.99152924331289,
block,faces,faces014.bmp,,,,,0,190,190,190,,,,,,,,,,,,,,,,,,,,,,,,,,,,,,,,,,,,,,,,,,None,,387.2373139898991,None,387.2373139898991,None,2022-06-14-14:46:07.426560,387.24894499988295,387.55339789995924,387.24894499988295,None,None,387.24894499988295,None,388.05405908997636,None,,,,11017,0001,2022_Jun_14_1439,localizer,2021.1.3,59.99152924331289,
block,faces,faces002.bmp,,,,,0,191,191,191,,,,,,,,,,,,,,,,,,,,,,,,,,,,,,,,,,,,,,,,,,None,,388.05405908997636,None,388.05405908997636,None,2022-06-14-14:46:08.244214,388.067397599807,388.3703733999282,388.067397599807,None,None,388.067397599807,None,388.8698046900099,None,,,,11017,0001,2022_Jun_14_1439,localizer,2021.1.3,59.99152924331289,
block,faces,faces025.bmp,,,,,0,192,192,192,,,,,,,,,,,,,,,,,,,,,,,,,,,,,,,,,,,,,,,,,,None,,388.8698046900099,None,388.8698046900099,None,2022-06-14-14:46:09.058070,388.87947449996136,389.1871219999157,388.87947449996136,None,None,388.87947449996136,None,389.68693548988085,None,,,,11017,0001,2022_Jun_14_1439,localizer,2021.1.3,59.99152924331289,
block,faces,faces034.bmp,,,,,0,193,193,193,,,,,,,,,,,,,,,,,,,,,,,,,,,,,,,,,,,,,,,,,,None,,389.68693548988085,None,389.68693548988085,None,2022-06-14-14:46:09.874222,389.6876391998958,389.9867014999036,389.6876391998958,None,None,389.6876391998958,None,390.4873354899464,None,,,,11017,0001,2022_Jun_14_1439,localizer,2021.1.3,59.99152924331289,
block,faces,faces088.bmp,,,,,0,194,194,194,,,,,,,,,,,,,,,,,,,,,,,,,,,,,,,,,,,,,,,,,,None,,390.4873354899464,None,390.4873354899464,None,2022-06-14-14:46:10.678647,390.502511800034,390.8037917998154,390.502511800034,390.502511800034,None,390.502511800034,390.502511800034,391.3032602899475,None,,,,11017,0001,2022_Jun_14_1439,localizer,2021.1.3,59.99152924331289,
block,faces,faces021.bmp,,,,,0,195,195,195,,,,,,,,,,,,,,,,,,,,,,,,,,,,,,,,,,,,,,,,,,None,,391.3032602899475,None,391.3032602899475,None,2022-06-14-14:46:11.491570,391.31361209996976,391.6201788999606,391.31361209996976,None,None,391.31361209996976,None,392.1203180899611,None,,,,11017,0001,2022_Jun_14_1439,localizer,2021.1.3,59.99152924331289,
block,faces,faces076.bmp,,,,,0,196,196,196,,,,,,,,,,,,,,,,,,,,,,,,,,,,,,,,,,,,,,,,,,None,,392.1203180899611,None,392.1203180899611,None,2022-06-14-14:46:12.308855,392.120948900003,392.42008910002187,392.120948900003,None,None,392.120948900003,None,392.9217735900311,None,,,,11017,0001,2022_Jun_14_1439,localizer,2021.1.3,59.99152924331289,
block_end,faces,faces003.bmp,,,,,0,197,197,197,,,,,,,,,,,,,,,,,,,,,,,,,,,,,,,,,,,,,,,,,,None,,392.9217735900311,None,392.9217735900311,None,2022-06-14-14:46:13.116072,392.9279642000329,393.2373979999684,392.9279642000329,392.9279642000329,None,392.9279642000329,392.9279642000329,393.7369456900051,None,,,,11017,0001,2022_Jun_14_1439,localizer,2021.1.3,59.99152924331289,
block_start,scenes,scenes059.bmp,,,,,0,198,198,198,,,,,,,,,,,,,,,,,,,,,,,,,,,,,,,,,,,,,,,,,,t,1.801249099895358,393.7366853998974,None,393.7366853998974,None,2022-06-14-14:46:15.740781,395.5606523999013,395.87013299996033,395.5606523999013,None,None,395.5606523999013,None,396.37066149001475,None,,,,11017,0001,2022_Jun_14_1439,localizer,2021.1.3,59.99152924331289,
block,scenes,scenes030.bmp,,,,,0,199,199,199,,,,,,,,,,,,,,,,,,,,,,,,,,,,,,,,,,,,,,,,,,None,,396.37066149001475,None,396.37066149001475,None,2022-06-14-14:46:16.560459,396.38228200003505,396.6870554999914,396.38228200003505,None,None,396.38228200003505,None,397.1871495899977,None,,,,11017,0001,2022_Jun_14_1439,localizer,2021.1.3,59.99152924331289,
block,scenes,scenes037.bmp,,,,,0,200,200,200,,,,,,,,,,,,,,,,,,,,,,,,,,,,,,,,,,,,,,,,,,None,,397.1871495899977,None,397.1871495899977,None,2022-06-14-14:46:17.375603,397.1968055998441,397.5036008998286,397.1968055998441,None,None,397.1968055998441,None,398.00372368993703,None,,,,11017,0001,2022_Jun_14_1439,localizer,2021.1.3,59.99152924331289,
block,scenes,scenes068.bmp,,,,,0,201,201,201,,,,,,,,,,,,,,,,,,,,,,,,,,,,,,,,,,,,,,,,,,None,,398.00372368993703,None,398.00372368993703,None,2022-06-14-14:46:18.192197,398.0143212999683,398.32018939987756,398.0143212999683,None,None,398.0143212999683,None,398.80997698998544,None,,,,11017,0001,2022_Jun_14_1439,localizer,2021.1.3,59.99152924331289,
block,scenes,scenes033.bmp,,,,,0,202,202,202,,,,,,,,,,,,,,,,,,,,,,,,,,,,,,,,,,,,,,,,,,None,,398.80997698998544,None,398.80997698998544,None,2022-06-14-14:46:19.006356,398.81660220003687,399.12026509991847,398.81660220003687,None,None,398.81660220003687,None,399.62095339002553,None,,,,11017,0001,2022_Jun_14_1439,localizer,2021.1.3,59.99152924331289,
block,scenes,scenes078.bmp,,,,,0,203,203,203,,,,,,,,,,,,,,,,,,,,,,,,,,,,,,,,,,,,,,,,,,None,,399.62095339002553,None,399.62095339002553,None,2022-06-14-14:46:19.810366,399.62233029981144,399.93707560002804,399.62233029981144,None,None,399.62233029981144,None,400.4434203900164,None,,,,11017,0001,2022_Jun_14_1439,localizer,2021.1.3,59.99152924331289,
block,scenes,scenes057.bmp,,,,,0,204,204,204,,,,,,,,,,,,,,,,,,,,,,,,,,,,,,,,,,,,,,,,,,None,,400.4434203900164,None,400.4434203900164,None,2022-06-14-14:46:20.639823,400.46036399994045,400.7704708999954,400.46036399994045,None,None,400.46036399994045,None,401.2539894898655,None,,,,11017,0001,2022_Jun_14_1439,localizer,2021.1.3,59.99152924331289,
block,scenes,scenes070.bmp,,,,,0,205,205,205,,,,,,,,,,,,,,,,,,,,,,,,,,,,,,,,,,,,,,,,,,None,,401.2539894898655,None,401.2539894898655,None,2022-06-14-14:46:21.442457,401.264821899822,401.57032709987834,401.264821899822,None,None,401.264821899822,None,402.07081889000256,None,,,,11017,0001,2022_Jun_14_1439,localizer,2021.1.3,59.99152924331289,
block,scenes,scenes085.bmp,,,,,0,206,206,206,,,,,,,,,,,,,,,,,,,,,,,,,,,,,,,,,,,,,,,,,,None,,402.07081889000256,None,402.07081889000256,None,2022-06-14-14:46:22.260295,402.0825604998972,402.38683789991774,402.0825604998972,None,None,402.0825604998972,None,402.88742309005465,None,,,,11017,0001,2022_Jun_14_1439,localizer,2021.1.3,59.99152924331289,
block,scenes,scenes023.bmp,,,,,0,207,207,207,,,,,,,,,,,,,,,,,,,,,,,,,,,,,,,,,,,,,,,,,,None,,402.88742309005465,None,402.88742309005465,None,2022-06-14-14:46:23.077176,402.8950864998624,403.2041709998157,402.8950864998624,None,None,402.8950864998624,None,403.7040518898284,None,,,,11017,0001,2022_Jun_14_1439,localizer,2021.1.3,59.99152924331289,
block,scenes,scenes049.bmp,,,,,0,208,208,208,,,,,,,,,,,,,,,,,,,,,,,,,,,,,,,,,,,,,,,,,,None,,403.7040518898284,None,403.7040518898284,None,2022-06-14-14:46:23.893558,403.7155647999607,404.0202258999925,403.7155647999607,None,None,403.7155647999607,None,404.52081099001225,None,,,,11017,0001,2022_Jun_14_1439,localizer,2021.1.3,59.99152924331289,
block,scenes,scenes074.bmp,,,,,0,209,209,209,,,,,,,,,,,,,,,,,,,,,,,,,,,,,,,,,,,,,,,,,,None,,404.52081099001225,None,404.52081099001225,None,2022-06-14-14:46:24.710534,404.5213063999545,404.8206026998814,404.5213063999545,None,None,404.5213063999545,None,405.3206445899559,None,,,,11017,0001,2022_Jun_14_1439,localizer,2021.1.3,59.99152924331289,
block,scenes,scenes022.bmp,,,,,0,210,210,210,,,,,,,,,,,,,,,,,,,,,,,,,,,,,,,,,,,,,,,,,,None,,405.3206445899559,None,405.3206445899559,None,2022-06-14-14:46:25.512155,405.3232414999511,405.62683729990385,405.3232414999511,405.3232414999511,None,405.3232414999511,405.3232414999511,406.13722798984963,None,,,,11017,0001,2022_Jun_14_1439,localizer,2021.1.3,59.99152924331289,
block,scenes,scenes013.bmp,,,,,0,211,211,211,,,,,,,,,,,,,,,,,,,,,,,,,,,,,,,,,,,,,,,,,,None,,406.13722798984963,None,406.13722798984963,None,2022-06-14-14:46:26.325782,406.13769689993933,406.4368854998611,406.13769689993933,None,None,406.13769689993933,None,406.9371311898576,None,,,,11017,0001,2022_Jun_14_1439,localizer,2021.1.3,59.99152924331289,
block_end,scenes,scenes024.bmp,,,,,0,212,212,212,,,,,,,,,,,,,,,,,,,,,,,,,,,,,,,,,,,,,,,,,,None,,406.9371311898576,None,406.9371311898576,None,2022-06-14-14:46:27.127279,406.945363599807,407.253597300034,406.945363599807,406.945363599807,None,406.945363599807,406.945363599807,407.754330190015,None,,,,11017,0001,2022_Jun_14_1439,localizer,2021.1.3,59.99152924331289,
block_start,objects,objects009.bmp,,,,,0,213,213,213,,,,,,,,,,,,,,,,,,,,,,,,,,,,,,,,,,,,,,,,,,t,1.7840686000417918,407.7539027999155,None,407.7539027999155,None,2022-06-14-14:46:29.741801,409.56365529983304,409.8702815999277,409.56365529983304,None,None,409.56365529983304,None,410.3705375898862,None,,,,11017,0001,2022_Jun_14_1439,localizer,2021.1.3,59.99152924331289,
block,objects,objects088.bmp,,,,,0,214,214,214,,,,,,,,,,,,,,,,,,,,,,,,,,,,,,,,,,,,,,,,,,None,,410.3705375898862,None,410.3705375898862,None,2022-06-14-14:46:30.559164,410.3711891998537,410.67002970003523,410.3711891998537,None,None,410.3711891998537,None,411.171266690013,None,,,,11017,0001,2022_Jun_14_1439,localizer,2021.1.3,59.99152924331289,
block,objects,objects025.bmp,,,,,0,215,215,215,,,,,,,,,,,,,,,,,,,,,,,,,,,,,,,,,,,,,,,,,,None,,411.171266690013,None,411.171266690013,None,2022-06-14-14:46:31.362869,411.1856829999015,411.48663629987277,411.1856829999015,411.1856829999015,None,411.1856829999015,411.1856829999015,411.98825028992724,None,,,,11017,0001,2022_Jun_14_1439,localizer,2021.1.3,59.99152924331289,
block,objects,objects069.bmp,,,,,0,216,216,216,,,,,,,,,,,,,,,,,,,,,,,,,,,,,,,,,,,,,,,,,,None,,411.98825028992724,None,411.98825028992724,None,2022-06-14-14:46:32.178956,412.00096359988675,412.30307159991935,412.00096359988675,None,None,412.00096359988675,None,412.80334218998905,None,,,,11017,0001,2022_Jun_14_1439,localizer,2021.1.3,59.99152924331289,
block,objects,objects032.bmp,,,,,0,217,217,217,,,,,,,,,,,,,,,,,,,,,,,,,,,,,,,,,,,,,,,,,,None,,412.80334218998905,None,412.80334218998905,None,2022-06-14-14:46:32.992018,412.80504559981637,413.12041289987974,412.80504559981637,None,None,412.80504559981637,None,413.620187889901,None,,,,11017,0001,2022_Jun_14_1439,localizer,2021.1.3,59.99152924331289,
block,objects,objects037.bmp,,,,,0,218,218,218,,,,,,,,,,,,,,,,,,,,,,,,,,,,,,,,,,,,,,,,,,None,,413.620187889901,None,413.620187889901,None,2022-06-14-14:46:33.809035,413.6251753999386,413.9373084998224,413.6251753999386,None,None,413.6251753999386,None,414.4382326899795,None,,,,11017,0001,2022_Jun_14_1439,localizer,2021.1.3,59.99152924331289,
block,objects,objects037.bmp,,,,,0,219,219,219,,,,,,,,,,,,,,,,,,,,,,,,,,,,,,,,,,,,,,,,,,None,,414.4382326899795,None,414.4382326899795,None,2022-06-14-14:46:34.629086,414.440263699973,414.75412840000354,414.440263699973,None,y,414.440263699973,None,415.254238190013,None,0.624616099987179,,,11017,0001,2022_Jun_14_1439,localizer,2021.1.3,59.99152924331289,
block,objects,objects040.bmp,,,,,0,220,220,220,,,,,,,,,,,,,,,,,,,,,,,,,,,,,,,,,,,,,,,,,,None,,415.254238190013,None,415.254238190013,None,2022-06-14-14:46:35.444151,415.26581969996914,415.57027089991607,415.26581969996914,None,None,415.26581969996914,None,416.0705824898323,None,,,,11017,0001,2022_Jun_14_1439,localizer,2021.1.3,59.99152924331289,
block,objects,objects075.bmp,,,,,0,221,221,221,,,,,,,,,,,,,,,,,,,,,,,,,,,,,,,,,,,,,,,,,,None,,416.0705824898323,None,416.0705824898323,None,2022-06-14-14:46:36.259306,416.0812062998302,416.3869737999048,416.0812062998302,None,None,416.0812062998302,None,416.8874653900275,None,,,,11017,0001,2022_Jun_14_1439,localizer,2021.1.3,59.99152924331289,
block,objects,objects058.bmp,,,,,0,222,222,222,,,,,,,,,,,,,,,,,,,,,,,,,,,,,,,,,,,,,,,,,,None,,416.8874653900275,None,416.8874653900275,None,2022-06-14-14:46:37.077381,416.88834599987604,417.18756120000035,416.88834599987604,None,None,416.88834599987604,None,417.7033420900116,None,,,,11017,0001,2022_Jun_14_1439,localizer,2021.1.3,59.99152924331289,
block,objects,objects079.bmp,,,,,0,223,223,223,,,,,,,,,,,,,,,,,,,,,,,,,,,,,,,,,,,,,,,,,,None,,417.7033420900116,None,417.7033420900116,None,2022-06-14-14:46:37.892040,417.7090409998782,418.02025269996375,417.7090409998782,None,None,417.7090409998782,None,418.5204248899827,None,,,,11017,0001,2022_Jun_14_1439,localizer,2021.1.3,59.99152924331289,
block,objects,objects030.bmp,,,,,0,224,224,224,,,,,,,,,,,,,,,,,,,,,,,,,,,,,,,,,,,,,,,,,,None,,418.5204248899827,None,418.5204248899827,None,2022-06-14-14:46:38.709190,418.5209872999694,418.8201281998772,418.5209872999694,None,None,418.5209872999694,None,419.32014568999875,None,,,,11017,0001,2022_Jun_14_1439,localizer,2021.1.3,59.99152924331289,
block,objects,objects034.bmp,,,,,0,225,225,225,,,,,,,,,,,,,,,,,,,,,,,,,,,,,,,,,,,,,,,,,,None,,419.32014568999875,None,419.32014568999875,None,2022-06-14-14:46:39.511037,419.3211198998615,419.62007219996303,419.3211198998615,419.3211198998615,None,419.3211198998615,419.3211198998615,420.12116058997344,None,,,,11017,0001,2022_Jun_14_1439,localizer,2021.1.3,59.99152924331289,
block,objects,objects085.bmp,,,,,0,226,226,226,,,,,,,,,,,,,,,,,,,,,,,,,,,,,,,,,,,,,,,,,,None,,420.12116058997344,None,420.12116058997344,None,2022-06-14-14:46:40.313109,420.13144159992225,420.443379299948,420.13144159992225,420.13144159992225,None,420.13144159992225,420.13144159992225,420.937280189828,None,,,,11017,0001,2022_Jun_14_1439,localizer,2021.1.3,59.99152924331289,
block_end,objects,objects024.bmp,,,,,0,227,227,227,,,,,,,,,,,,,,,,,,,,,,,,,,,,,,,,,,,,,,,,,,None,,420.937280189828,None,420.937280189828,None,2022-06-14-14:46:41.126292,420.9482404999435,421.25363729987293,420.9482404999435,None,None,420.9482404999435,None,421.7537883898476,None,,,,11017,0001,2022_Jun_14_1439,localizer,2021.1.3,59.99152924331289,
null_block,null_block,null_block.bmp,,,,,0,228,228,228,,,,,,,,,,,,,,,,,,,,,,,,,,,,,,,,,,,,,,,,,,t,1.7843260001391172,421.75363929988816,None,421.75363929988816,None,2022-06-14-14:46:43.743023,423.5539575900184,None,423.5539575900184,None,None,423.5539575900184,None,423.5573302998673,None,,,,11017,0001,2022_Jun_14_1439,localizer,2021.1.3,59.99152924331289,
block_start,scrambled,scrambled039.bmp,,,,,0,229,229,229,,,,,,,,,,,,,,,,,,,,,,,,,,,,,,,,,,,,,,,,,,t,1.967368699843064,435.57053739996627,None,435.57053739996627,None,2022-06-14-14:46:57.745302,437.5565438999329,437.8702459000051,437.5565438999329,None,None,437.5565438999329,None,438.37076288985554,None,,,,11017,0001,2022_Jun_14_1439,localizer,2021.1.3,59.99152924331289,
block,scrambled,scrambled080.bmp,,,,,0,230,230,230,,,,,,,,,,,,,,,,,,,,,,,,,,,,,,,,,,,,,,,,,,None,,438.37076288985554,None,438.37076288985554,None,2022-06-14-14:46:58.559864,438.37125039985403,438.6706209999975,438.37125039985403,None,None,438.37125039985403,None,439.1727706900565,None,,,,11017,0001,2022_Jun_14_1439,localizer,2021.1.3,59.99152924331289,
block,scrambled,scrambled056.bmp,,,,,0,231,231,231,,,,,,,,,,,,,,,,,,,,,,,,,,,,,,,,,,,,,,,,,,None,,439.1727706900565,None,439.1727706900565,None,2022-06-14-14:46:59.364996,439.21616569999605,439.5205282999668,439.21616569999605,439.21616569999605,None,439.21616569999605,439.21616569999605,439.98734778992366,None,,,,11017,0001,2022_Jun_14_1439,localizer,2021.1.3,59.99152924331289,
block,scrambled,scrambled002.bmp,,,,,0,232,232,232,,,,,,,,,,,,,,,,,,,,,,,,,,,,,,,,,,,,,,,,,,None,,439.98734778992366,None,439.98734778992366,None,2022-06-14-14:47:00.176491,440.0001667998731,440.3038250999525,440.0001667998731,None,None,440.0001667998731,None,440.8034442899516,None,,,,11017,0001,2022_Jun_14_1439,localizer,2021.1.3,59.99152924331289,
block,scrambled,scrambled065.bmp,,,,,0,233,233,233,,,,,,,,,,,,,,,,,,,,,,,,,,,,,,,,,,,,,,,,,,None,,440.8034442899516,None,440.8034442899516,None,2022-06-14-14:47:00.992596,440.80479189986363,441.1202445998788,440.80479189986363,None,None,440.80479189986363,None,441.60597128991503,None,,,,11017,0001,2022_Jun_14_1439,localizer,2021.1.3,59.99152924331289,
block,scrambled,scrambled062.bmp,,,,,0,234,234,234,,,,,,,,,,,,,,,,,,,,,,,,,,,,,,,,,,,,,,,,,,None,,441.60597128991503,None,441.60597128991503,None,2022-06-14-14:47:01.801117,441.62748729996383,441.9375087998342,441.62748729996383,441.62748729996383,None,441.62748729996383,441.62748729996383,442.4204836898716,None,,,,11017,0001,2022_Jun_14_1439,localizer,2021.1.3,59.99152924331289,
block,scrambled,scrambled032.bmp,,,,,0,235,235,235,,,,,,,,,,,,,,,,,,,,,,,,,,,,,,,,,,,,,,,,,,None,,442.4204836898716,None,442.4204836898716,None,2022-06-14-14:47:02.609659,442.42104529985227,442.72019609995186,442.42104529985227,None,None,442.42104529985227,None,443.2206341900164,None,,,,11017,0001,2022_Jun_14_1439,localizer,2021.1.3,59.99152924331289,
block,scrambled,scrambled042.bmp,,,,,0,236,236,236,,,,,,,,,,,,,,,,,,,,,,,,,,,,,,,,,,,,,,,,,,None,,443.2206341900164,None,443.2206341900164,None,2022-06-14-14:47:03.411829,443.22327519999817,443.53705869987607,443.22327519999817,443.22327519999817,None,443.22327519999817,443.22327519999817,444.0373421899276,None,,,,11017,0001,2022_Jun_14_1439,localizer,2021.1.3,59.99152924331289,
block,scrambled,scrambled063.bmp,,,,,0,237,237,237,,,,,,,,,,,,,,,,,,,,,,,,,,,,,,,,,,,,,,,,,,None,,444.0373421899276,None,444.0373421899276,None,2022-06-14-14:47:04.226669,444.0481445000041,444.3537856999319,444.0481445000041,None,None,444.0481445000041,None,444.85401448991615,None,,,,11017,0001,2022_Jun_14_1439,localizer,2021.1.3,59.99152924331289,
block,scrambled,scrambled069.bmp,,,,,0,238,238,238,,,,,,,,,,,,,,,,,,,,,,,,,,,,,,,,,,,,,,,,,,None,,444.85401448991615,None,444.85401448991615,None,2022-06-14-14:47:05.043433,444.8544637998566,445.15359220001847,444.8544637998566,None,None,444.8544637998566,None,445.65405558992643,None,,,,11017,0001,2022_Jun_14_1439,localizer,2021.1.3,59.99152924331289,
block,scrambled,scrambled034.bmp,,,,,0,239,239,239,,,,,,,,,,,,,,,,,,,,,,,,,,,,,,,,,,,,,,,,,,None,,445.65405558992643,None,445.65405558992643,None,2022-06-14-14:47:05.845275,445.6663324998226,445.9703511998523,445.6663324998226,445.6663324998226,None,445.6663324998226,445.6663324998226,446.47091299004387,None,,,,11017,0001,2022_Jun_14_1439,localizer,2021.1.3,59.99152924331289,
block,scrambled,scrambled059.bmp,,,,,0,240,240,240,,,,,,,,,,,,,,,,,,,,,,,,,,,,,,,,,,,,,,,,,,None,,446.47091299004387,None,446.47091299004387,None,2022-06-14-14:47:06.661360,446.482629599981,446.7869825998787,446.482629599981,None,None,446.482629599981,None,447.28776689001825,None,,,,11017,0001,2022_Jun_14_1439,localizer,2021.1.3,59.99152924331289,
block,scrambled,scrambled084.bmp,,,,,0,241,241,241,,,,,,,,,,,,,,,,,,,,,,,,,,,,,,,,,,,,,,,,,,None,,447.28776689001825,None,447.28776689001825,None,2022-06-14-14:47:07.478010,447.28827969986014,447.58718649996445,447.28827969986014,None,None,447.28827969986014,None,448.0875225899508,None,,,,11017,0001,2022_Jun_14_1439,localizer,2021.1.3,59.99152924331289,
block,scrambled,scrambled064.bmp,,,,,0,242,242,242,,,,,,,,,,,,,,,,,,,,,,,,,,,,,,,,,,,,,,,,,,None,,448.0875225899508,None,448.0875225899508,None,2022-06-14-14:47:08.279759,448.0901047999505,448.40414559980854,448.0901047999505,448.0901047999505,None,448.0901047999505,448.0901047999505,448.9051378899021,None,,,,11017,0001,2022_Jun_14_1439,localizer,2021.1.3,59.99152924331289,
block_end,scrambled,scrambled045.bmp,,,,,0,243,243,243,,,,,,,,,,,,,,,,,,,,,,,,,,,,,,,,,,,,,,,,,,None,,448.9051378899021,None,448.9051378899021,None,2022-06-14-14:47:09.096573,448.9072336999234,449.2210644998122,448.9072336999234,None,None,448.9072336999234,None,449.72122188995127,None,,,,11017,0001,2022_Jun_14_1439,localizer,2021.1.3,59.99152924331289,
,,,,,,,,,,,,,,,,,,,,,,,,,,,,,,,,,,,,,,,,,,,,,,,,,,,,,,,,,,,,,,,,,,,,,449.7200696999207,None,,,,,,,
