block_type,condition,img_name,Button.thisRepN,Button.thisTrialN,Button.thisN,Button.thisIndex,trials.thisRepN,trials.thisTrialN,trials.thisN,trials.thisIndex,Ready_experimenter_text.started,Ready_experimenter_text.stopped,Ready_experimenter_resp.keys,Ready_experimenter_resp.rt,Ready_experimenter_resp.started,Ready_experimenter_resp.stopped,Alignment_background.started,Alignment_background.stopped,Alignment_image.started,Alignment_image.stopped,Alignment_resp.keys,Alignment_resp.rt,Alignment_resp.started,Alignment_resp.stopped,Button_text.started,Button_text.stopped,Index_text.started,Index_text.stopped,Index_resp.keys,Index_resp.rt,Index_resp.started,Index_resp.stopped,Middle_text.started,Middle_text.stopped,Middle_resp.keys,Middle_resp.rt,Middle_resp.started,Middle_resp.stopped,Repeat_text.started,Repeat_text.stopped,Repeat_resp.keys,Repeat_resp.corr,Repeat_resp.rt,Repeat_resp.started,Repeat_resp.stopped,instruction_text.started,instruction_text.stopped,key_resp.keys,key_resp.rt,key_resp.started,key_resp.stopped,scanner_t.keys,scanner_t.rt,scanner_t.started,scanner_t.stopped,fixation_wait_for_t.started,fixation_wait_for_t.stopped,real_timestamp_trial_start,image.started,image.stopped,fixation.started,fixation.stopped,repeat_response.keys,repeat_response.started,repeat_response.stopped,fixation_null.started,fixation_null.stopped,repeat_response.rt,end_text.started,end_text.stopped,participant,run,date,expName,psychopyVersion,frameRate,
,,,,,,,,,,,12.140518400352448,None,return,447.2264231001027,12.140518400352448,None,,,,,,,,,,,,,,,,,,,,,,,,,,,,,,,,,,,,,,,,,,,,,,,,,,,,,,,21007,0002,2022_Jul_25_1407,localizer,2021.1.3,58.578670575221715,
,,,,,,,,,,,,,,,,,459.40841670008376,None,459.40841670008376,None,return,1.1664300002157688,459.40841670008376,None,,,,,,,,,,,,,,,,,,,,,,,,,,,,,,,,,,,,,,,,,,,,,,,21007,0002,2022_Jul_25_1407,localizer,2021.1.3,58.578670575221715,
,,,0,0,0,0,,,,,,,,,,,,,,,,,,,460.59589840006083,None,461.5951303001493,None,y,3.3421133998781443,461.5951303001493,None,464.96744160028175,None,b,3.746719699818641,464.96744160028175,None,468.7466335003264,None,n,0,1.6045273998752236,468.7466335003264,None,,,,,,,,,,,,,,,,,,,,,,,,,,21007,0002,2022_Jul_25_1407,localizer,2021.1.3,58.578670575221715,
,,,,,,,,,,,,,,,,,,,,,,,,,,,,,,,,,,,,,,,,,,,,,,470.3732678000815,None,y,41.35431639989838,470.3732678000815,None,,,,,,,,,,,,,,,,,,,,21007,0002,2022_Jul_25_1407,localizer,2021.1.3,58.578670575221715,
block_start,scenes,scenes052.bmp,,,,,0,0,0,0,,,,,,,,,,,,,,,,,,,,,,,,,,,,,,,,,,,,,,,,,,t,20.04228729987517,511.7688516001217,None,511.7688516001217,None,2022-07-25-14:16:11.226262,531.8307691002265,532.1303793000989,531.8307691002265,None,None,531.8307691002265,None,532.6301346303429,None,,,,21007,0002,2022_Jul_25_1407,localizer,2021.1.3,58.578670575221715,
block,scenes,scenes035.bmp,,,,,0,1,1,1,,,,,,,,,,,,,,,,,,,,,,,,,,,,,,,,,,,,,,,,,,None,,532.6301346303429,None,532.6301346303429,None,2022-07-25-14:16:12.035317,532.6384058003314,532.9460376999341,532.6384058003314,532.6384058003314,None,532.6384058003314,532.6384058003314,533.4468599300366,None,,,,21007,0002,2022_Jul_25_1407,localizer,2021.1.3,58.578670575221715,
block,scenes,scenes021.bmp,,,,,0,2,2,2,,,,,,,,,,,,,,,,,,,,,,,,,,,,,,,,,,,,,,,,,,None,,533.4468599300366,None,533.4468599300366,None,2022-07-25-14:16:12.847995,533.4503366001882,533.7624464002438,533.4503366001882,None,None,533.4503366001882,None,534.2623820303473,None,,,,21007,0002,2022_Jul_25_1407,localizer,2021.1.3,58.578670575221715,
block,scenes,scenes017.bmp,,,,,0,3,3,3,,,,,,,,,,,,,,,,,,,,,,,,,,,,,,,,,,,,,,,,,,None,,534.2623820303473,None,534.2623820303473,None,2022-07-25-14:16:13.661457,534.2639448000118,534.5793524002656,534.2639448000118,None,None,534.2639448000118,None,535.0629535302054,None,,,,21007,0002,2022_Jul_25_1407,localizer,2021.1.3,58.578670575221715,
block,scenes,scenes037.bmp,,,,,0,4,4,4,,,,,,,,,,,,,,,,,,,,,,,,,,,,,,,,,,,,,,,,,,None,,535.0629535302054,None,535.0629535302054,None,2022-07-25-14:16:14.464990,535.0772200003266,535.378905300051,535.0772200003266,535.0772200003266,None,535.0772200003266,535.0772200003266,535.8787298303563,None,,,,21007,0002,2022_Jul_25_1407,localizer,2021.1.3,58.578670575221715,
block,scenes,scenes012.bmp,,,,,0,5,5,5,,,,,,,,,,,,,,,,,,,,,,,,,,,,,,,,,,,,,,,,,,None,,535.8787298303563,None,535.8787298303563,None,2022-07-25-14:16:15.276817,535.8804803001694,536.1960714999586,535.8804803001694,None,None,535.8804803001694,None,536.6795994302723,None,,,,21007,0002,2022_Jul_25_1407,localizer,2021.1.3,58.578670575221715,
block,scenes,scenes074.bmp,,,,,0,6,6,6,,,,,,,,,,,,,,,,,,,,,,,,,,,,,,,,,,,,,,,,,,None,,536.6795994302723,None,536.6795994302723,None,2022-07-25-14:16:16.081642,536.6938197002746,536.995703200344,536.6938197002746,536.6938197002746,None,536.6938197002746,536.6938197002746,537.4962398301344,None,,,,21007,0002,2022_Jul_25_1407,localizer,2021.1.3,58.578670575221715,
block,scenes,scenes082.bmp,,,,,0,7,7,7,,,,,,,,,,,,,,,,,,,,,,,,,,,,,,,,,,,,,,,,,,None,,537.4962398301344,None,537.4962398301344,None,2022-07-25-14:16:16.896461,537.5087071000598,537.8124224003404,537.5087071000598,None,None,537.5087071000598,None,538.3134786298964,None,,,,21007,0002,2022_Jul_25_1407,localizer,2021.1.3,58.578670575221715,
block,scenes,scenes038.bmp,,,,,0,8,8,8,,,,,,,,,,,,,,,,,,,,,,,,,,,,,,,,,,,,,,,,,,None,,538.3134786298964,None,538.3134786298964,None,2022-07-25-14:16:17.715471,538.3156353002414,538.6291148001328,538.3156353002414,None,None,538.3156353002414,None,539.1291940299328,None,,,,21007,0002,2022_Jul_25_1407,localizer,2021.1.3,58.578670575221715,
block,scenes,scenes015.bmp,,,,,0,9,9,9,,,,,,,,,,,,,,,,,,,,,,,,,,,,,,,,,,,,,,,,,,None,,539.1291940299328,None,539.1291940299328,None,2022-07-25-14:16:18.528249,539.1301293000579,539.429354400374,539.1301293000579,None,None,539.1301293000579,None,539.9453043302987,None,,,,21007,0002,2022_Jul_25_1407,localizer,2021.1.3,58.578670575221715,
block,scenes,scenes072.bmp,,,,,0,10,10,10,,,,,,,,,,,,,,,,,,,,,,,,,,,,,,,,,,,,,,,,,,None,,539.9453043302987,None,539.9453043302987,None,2022-07-25-14:16:19.344281,539.9559790999629,540.2621337003075,539.9559790999629,None,None,539.9559790999629,None,540.762195630325,None,,,,21007,0002,2022_Jul_25_1407,localizer,2021.1.3,58.578670575221715,
block,scenes,scenes031.bmp,,,,,0,11,11,11,,,,,,,,,,,,,,,,,,,,,,,,,,,,,,,,,,,,,,,,,,None,,540.762195630325,None,540.762195630325,None,2022-07-25-14:16:20.161296,540.7637900002301,541.0792232002132,540.7637900002301,None,None,540.7637900002301,None,541.5789004302118,None,,,,21007,0002,2022_Jul_25_1407,localizer,2021.1.3,58.578670575221715,
block,scenes,scenes047.bmp,,,,,0,12,12,12,,,,,,,,,,,,,,,,,,,,,,,,,,,,,,,,,,,,,,,,,,None,,541.5789004302118,None,541.5789004302118,None,2022-07-25-14:16:20.978001,541.579992600251,541.895754000172,541.579992600251,None,None,541.579992600251,None,542.395424130233,None,,,,21007,0002,2022_Jul_25_1407,localizer,2021.1.3,58.578670575221715,
block,scenes,scenes042.bmp,,,,,0,13,13,13,,,,,,,,,,,,,,,,,,,,,,,,,,,,,,,,,,,,,,,,,,None,,542.395424130233,None,542.395424130233,None,2022-07-25-14:16:21.794528,542.3969502002001,542.7123885001056,542.3969502002001,None,None,542.3969502002001,None,543.2123849302064,None,,,,21007,0002,2022_Jul_25_1407,localizer,2021.1.3,58.578670575221715,
block_end,scenes,scenes044.bmp,,,,,0,14,14,14,,,,,,,,,,,,,,,,,,,,,,,,,,,,,,,,,,,,,,,,,,None,,543.2123849302064,None,543.2123849302064,None,2022-07-25-14:16:22.611483,543.2234453000128,543.5290864002891,543.2234453000128,None,None,543.2234453000128,None,544.0290184298996,None,,,,21007,0002,2022_Jul_25_1407,localizer,2021.1.3,58.578670575221715,
block_start,objects,objects003.bmp,,,,,0,15,15,15,,,,,,,,,,,,,,,,,,,,,,,,,,,,,,,,,,,,,,,,,,t,1.7822389001958072,544.0292223002762,None,544.0292223002762,None,2022-07-25-14:16:25.228071,545.8301274999976,546.1457736003213,545.8301274999976,None,None,545.8301274999976,None,546.645685930131,None,,,,21007,0002,2022_Jul_25_1407,localizer,2021.1.3,58.578670575221715,
block,objects,objects082.bmp,,,,,0,16,16,16,,,,,,,,,,,,,,,,,,,,,,,,,,,,,,,,,,,,,,,,,,None,,546.645685930131,None,546.645685930131,None,2022-07-25-14:16:26.044805,546.6562177003361,546.9625636003911,546.6562177003361,None,None,546.6562177003361,None,547.4629619301762,None,,,,21007,0002,2022_Jul_25_1407,localizer,2021.1.3,58.578670575221715,
block,objects,objects028.bmp,,,,,0,17,17,17,,,,,,,,,,,,,,,,,,,,,,,,,,,,,,,,,,,,,,,,,,None,,547.4629619301762,None,547.4629619301762,None,2022-07-25-14:16:26.863261,547.4655181001872,547.7790490002371,547.4655181001872,None,None,547.4655181001872,None,548.2790772303473,None,,,,21007,0002,2022_Jul_25_1407,localizer,2021.1.3,58.578670575221715,
block,objects,objects014.bmp,,,,,0,18,18,18,,,,,,,,,,,,,,,,,,,,,,,,,,,,,,,,,,,,,,,,,,None,,548.2790772303473,None,548.2790772303473,None,2022-07-25-14:16:27.678198,548.2900539003313,548.5956836999394,548.2900539003313,None,None,548.2900539003313,None,549.0956205300521,None,,,,21007,0002,2022_Jul_25_1407,localizer,2021.1.3,58.578670575221715,
block,objects,objects070.bmp,,,,,0,19,19,19,,,,,,,,,,,,,,,,,,,,,,,,,,,,,,,,,,,,,,,,,,None,,549.0956205300521,None,549.0956205300521,None,2022-07-25-14:16:28.494745,549.096798799932,549.4123717001639,549.096798799932,None,None,549.096798799932,None,549.8958799302112,None,,,,21007,0002,2022_Jul_25_1407,localizer,2021.1.3,58.578670575221715,
block,objects,objects066.bmp,,,,,0,20,20,20,,,,,,,,,,,,,,,,,,,,,,,,,,,,,,,,,,,,,,,,,,None,,549.8958799302112,None,549.8958799302112,None,2022-07-25-14:16:29.298237,549.8989504002966,550.2125000003725,549.8989504002966,549.8989504002966,None,549.8989504002966,549.8989504002966,550.7124523300212,None,,,,21007,0002,2022_Jul_25_1407,localizer,2021.1.3,58.578670575221715,
block,objects,objects029.bmp,,,,,0,21,21,21,,,,,,,,,,,,,,,,,,,,,,,,,,,,,,,,,,,,,,,,,,None,,550.7124523300212,None,550.7124523300212,None,2022-07-25-14:16:30.111582,550.7131838002242,551.0125073003583,550.7131838002242,None,None,550.7131838002242,None,551.5123083301354,None,,,,21007,0002,2022_Jul_25_1407,localizer,2021.1.3,58.578670575221715,
block,objects,objects020.bmp,,,,,0,22,22,22,,,,,,,,,,,,,,,,,,,,,,,,,,,,,,,,,,,,,,,,,,None,,551.5123083301354,None,551.5123083301354,None,2022-07-25-14:16:30.912439,551.5135214002803,551.8291084002703,551.5135214002803,551.5135214002803,None,551.5135214002803,551.5135214002803,552.3129830303136,None,,,,21007,0002,2022_Jul_25_1407,localizer,2021.1.3,58.578670575221715,
block,objects,objects069.bmp,,,,,0,23,23,23,,,,,,,,,,,,,,,,,,,,,,,,,,,,,,,,,,,,,,,,,,None,,552.3129830303136,None,552.3129830303136,None,2022-07-25-14:16:31.715101,552.3163339002058,552.6357436999679,552.3163339002058,552.3163339002058,None,552.3163339002058,552.3163339002058,553.1157640301157,None,,,,21007,0002,2022_Jul_25_1407,localizer,2021.1.3,58.578670575221715,
block,objects,objects065.bmp,,,,,0,24,24,24,,,,,,,,,,,,,,,,,,,,,,,,,,,,,,,,,,,,,,,,,,None,,553.1157640301157,None,553.1157640301157,None,2022-07-25-14:16:32.520983,553.1214451999404,553.4294286002405,553.1214451999404,553.1214451999404,None,553.1214451999404,553.1214451999404,553.928691630112,None,,,,21007,0002,2022_Jul_25_1407,localizer,2021.1.3,58.578670575221715,
block,objects,objects065.bmp,,,,,0,25,25,25,,,,,,,,,,,,,,,,,,,,,,,,,,,,,,,,,,,,,,,,,,None,,553.928691630112,None,553.928691630112,None,2022-07-25-14:16:33.327827,553.93004140025,554.2456453000195,553.93004140025,None,None,553.93004140025,None,554.7292003299575,None,,,,21007,0002,2022_Jul_25_1407,localizer,2021.1.3,58.578670575221715,
block,objects,objects081.bmp,,,,,0,26,26,26,,,,,,,,,,,,,,,,,,,,,,,,,,,,,,,,,,,,,,,,,,None,,554.7292003299575,None,554.7292003299575,None,2022-07-25-14:16:34.129518,554.7442049002275,555.0458673001267,554.7442049002275,554.7442049002275,None,554.7442049002275,554.7442049002275,555.5455080301966,None,,,,21007,0002,2022_Jul_25_1407,localizer,2021.1.3,58.578670575221715,
block,objects,objects036.bmp,,,,,0,27,27,27,,,,,,,,,,,,,,,,,,,,,,,,,,,,,,,,,,,,,,,,,,None,,555.5455080301966,None,555.5455080301966,None,2022-07-25-14:16:34.944613,555.554471900221,555.8693651002832,555.554471900221,None,None,555.554471900221,None,556.3655303300824,None,,,,21007,0002,2022_Jul_25_1407,localizer,2021.1.3,58.578670575221715,
block,objects,objects054.bmp,,,,,0,28,28,28,,,,,,,,,,,,,,,,,,,,,,,,,,,,,,,,,,,,,,,,,,None,,556.3655303300824,None,556.3655303300824,None,2022-07-25-14:16:35.764688,556.3741924003698,556.6792712002061,556.3741924003698,None,None,556.3741924003698,None,557.1791679298971,None,,,,21007,0002,2022_Jul_25_1407,localizer,2021.1.3,58.578670575221715,
block_end,objects,objects009.bmp,,,,,0,29,29,29,,,,,,,,,,,,,,,,,,,,,,,,,,,,,,,,,,,,,,,,,,None,,557.1791679298971,None,557.1791679298971,None,2022-07-25-14:16:36.578506,557.1801454001106,557.4809080003761,557.1801454001106,None,None,557.1801454001106,None,557.9954761302564,None,,,,21007,0002,2022_Jul_25_1407,localizer,2021.1.3,58.578670575221715,
null_block,null_block,null_block.bmp,,,,,0,30,30,30,,,,,,,,,,,,,,,,,,,,,,,,,,,,,,,,,,,,,,,,,,t,1.815560800023377,557.9955915999599,None,557.9955915999599,None,2022-07-25-14:16:39.229988,559.8296724300366,None,559.8296724300366,None,None,559.8296724300366,None,559.8356471001171,None,,,,21007,0002,2022_Jul_25_1407,localizer,2021.1.3,58.578670575221715,
block_start,scrambled,scrambled006.bmp,,,,,0,31,31,31,,,,,,,,,,,,,,,,,,,,,,,,,,,,,,,,,,,,,,,,,,t,1.9654369996860623,571.8456572000869,None,571.8456572000869,None,2022-07-25-14:16:53.228716,573.8401132002473,574.1466573001817,573.8401132002473,None,None,573.8401132002473,None,574.6456168301869,None,,,,21007,0002,2022_Jul_25_1407,localizer,2021.1.3,58.578670575221715,
block,scrambled,scrambled087.bmp,,,,,0,32,32,32,,,,,,,,,,,,,,,,,,,,,,,,,,,,,,,,,,,,,,,,,,None,,574.6456168301869,None,574.6456168301869,None,2022-07-25-14:16:54.044842,574.6548461001366,574.9627201999538,574.6548461001366,None,None,574.6548461001366,None,575.4625110303517,None,,,,21007,0002,2022_Jul_25_1407,localizer,2021.1.3,58.578670575221715,
block,scrambled,scrambled069.bmp,,,,,0,33,33,33,,,,,,,,,,,,,,,,,,,,,,,,,,,,,,,,,,,,,,,,,,None,,575.4625110303517,None,575.4625110303517,None,2022-07-25-14:16:54.861732,575.4638058999553,575.7792711001821,575.4638058999553,None,None,575.4638058999553,None,576.2787898302544,None,,,,21007,0002,2022_Jul_25_1407,localizer,2021.1.3,58.578670575221715,
block,scrambled,scrambled044.bmp,,,,,0,34,34,34,,,,,,,,,,,,,,,,,,,,,,,,,,,,,,,,,,,,,,,,,,None,,576.2787898302544,None,576.2787898302544,None,2022-07-25-14:16:55.677023,576.2801540000364,576.5960412002169,576.2801540000364,None,None,576.2801540000364,None,577.0805264300201,None,,,,21007,0002,2022_Jul_25_1407,localizer,2021.1.3,58.578670575221715,
block,scrambled,scrambled002.bmp,,,,,0,35,35,35,,,,,,,,,,,,,,,,,,,,,,,,,,,,,,,,,,,,,,,,,,None,,577.0805264300201,None,577.0805264300201,None,2022-07-25-14:16:56.483798,577.0929881003685,577.3960220003501,577.0929881003685,577.0929881003685,None,577.0929881003685,577.0929881003685,577.9014995301608,None,,,,21007,0002,2022_Jul_25_1407,localizer,2021.1.3,58.578670575221715,
block,scrambled,scrambled041.bmp,,,,,0,36,36,36,,,,,,,,,,,,,,,,,,,,,,,,,,,,,,,,,,,,,,,,,,None,,577.9014995301608,None,577.9014995301608,None,2022-07-25-14:16:57.304622,577.9048296003602,578.2129860003479,577.9048296003602,None,None,577.9048296003602,None,578.7130054299254,None,,,,21007,0002,2022_Jul_25_1407,localizer,2021.1.3,58.578670575221715,
block,scrambled,scrambled038.bmp,,,,,0,37,37,37,,,,,,,,,,,,,,,,,,,,,,,,,,,,,,,,,,,,,,,,,,None,,578.7130054299254,None,578.7130054299254,None,2022-07-25-14:16:58.113433,578.7261765003204,579.0295711001381,578.7261765003204,None,None,578.7261765003204,None,579.529125530133,None,,,,21007,0002,2022_Jul_25_1407,localizer,2021.1.3,58.578670575221715,
block,scrambled,scrambled059.bmp,,,,,0,38,38,38,,,,,,,,,,,,,,,,,,,,,,,,,,,,,,,,,,,,,,,,,,None,,579.529125530133,None,579.529125530133,None,2022-07-25-14:16:58.928365,579.5390882003121,579.8460334003903,579.5390882003121,None,None,579.5390882003121,None,580.3471931301523,None,,,,21007,0002,2022_Jul_25_1407,localizer,2021.1.3,58.578670575221715,
block,scrambled,scrambled012.bmp,,,,,0,39,39,39,,,,,,,,,,,,,,,,,,,,,,,,,,,,,,,,,,,,,,,,,,None,,580.3471931301523,None,580.3471931301523,None,2022-07-25-14:16:59.748956,580.3616378000006,580.6627135002054,580.3616378000006,None,None,580.3616378000006,None,581.1626981299836,None,,,,21007,0002,2022_Jul_25_1407,localizer,2021.1.3,58.578670575221715,
block,scrambled,scrambled023.bmp,,,,,0,40,40,40,,,,,,,,,,,,,,,,,,,,,,,,,,,,,,,,,,,,,,,,,,None,,581.1626981299836,None,581.1626981299836,None,2022-07-25-14:17:00.561939,581.173792600166,581.4793524001725,581.173792600166,None,None,581.173792600166,None,581.9795901298988,None,,,,21007,0002,2022_Jul_25_1407,localizer,2021.1.3,58.578670575221715,
block,scrambled,scrambled003.bmp,,,,,0,41,41,41,,,,,,,,,,,,,,,,,,,,,,,,,,,,,,,,,,,,,,,,,,None,,581.9795901298988,None,581.9795901298988,None,2022-07-25-14:17:01.379055,581.9905088003725,582.2959790001623,581.9905088003725,None,None,581.9905088003725,None,582.7964446301106,None,,,,21007,0002,2022_Jul_25_1407,localizer,2021.1.3,58.578670575221715,
block,scrambled,scrambled029.bmp,,,,,0,42,42,42,,,,,,,,,,,,,,,,,,,,,,,,,,,,,,,,,,,,,,,,,,None,,582.7964446301106,None,582.7964446301106,None,2022-07-25-14:17:02.196867,582.798957800027,583.1126809003763,582.798957800027,None,None,582.798957800027,None,583.6126135302242,None,,,,21007,0002,2022_Jul_25_1407,localizer,2021.1.3,58.578670575221715,
block,scrambled,scrambled053.bmp,,,,,0,43,43,43,,,,,,,,,,,,,,,,,,,,,,,,,,,,,,,,,,,,,,,,,,None,,583.6126135302242,None,583.6126135302242,None,2022-07-25-14:17:03.012985,583.6136814001948,583.9294823003002,583.6136814001948,None,None,583.6136814001948,None,584.4127290303353,None,,,,21007,0002,2022_Jul_25_1407,localizer,2021.1.3,58.578670575221715,
block,scrambled,scrambled010.bmp,,,,,0,44,44,44,,,,,,,,,,,,,,,,,,,,,,,,,,,,,,,,,,,,,,,,,,None,,584.4127290303353,None,584.4127290303353,None,2022-07-25-14:17:03.814070,584.4235563003458,584.735626200214,584.4235563003458,584.4235563003458,None,584.4235563003458,584.4235563003458,585.2293188300449,None,,,,21007,0002,2022_Jul_25_1407,localizer,2021.1.3,58.578670575221715,
block_end,scrambled,scrambled017.bmp,,,,,0,45,45,45,,,,,,,,,,,,,,,,,,,,,,,,,,,,,,,,,,,,,,,,,,None,,585.2293188300449,None,585.2293188300449,None,2022-07-25-14:17:04.628751,585.2303120000288,585.5462392000481,585.2303120000288,None,None,585.2303120000288,None,586.0457486299332,None,,,,21007,0002,2022_Jul_25_1407,localizer,2021.1.3,58.578670575221715,
block_start,faces,faces015.bmp,,,,,0,46,46,46,,,,,,,,,,,,,,,,,,,,,,,,,,,,,,,,,,,,,,,,,,t,1.764175500255078,586.0459036999382,None,586.0459036999382,None,2022-07-25-14:17:07.231726,587.853935000021,588.1627715001814,587.853935000021,None,None,587.853935000021,None,588.6458000301849,None,,,,21007,0002,2022_Jul_25_1407,localizer,2021.1.3,58.578670575221715,
block,faces,faces002.bmp,,,,,0,47,47,47,,,,,,,,,,,,,,,,,,,,,,,,,,,,,,,,,,,,,,,,,,None,,588.6458000301849,None,588.6458000301849,None,2022-07-25-14:17:08.045043,588.6561847003177,588.9630157002248,588.6561847003177,None,None,588.6561847003177,None,589.4638771301601,None,,,,21007,0002,2022_Jul_25_1407,localizer,2021.1.3,58.578670575221715,
block,faces,faces033.bmp,,,,,0,48,48,48,,,,,,,,,,,,,,,,,,,,,,,,,,,,,,,,,,,,,,,,,,None,,589.4638771301601,None,589.4638771301601,None,2022-07-25-14:17:08.865703,589.486939500086,589.796210099943,589.486939500086,None,None,589.486939500086,None,590.2791450301651,None,,,,21007,0002,2022_Jul_25_1407,localizer,2021.1.3,58.578670575221715,
block,faces,faces030.bmp,,,,,0,49,49,49,,,,,,,,,,,,,,,,,,,,,,,,,,,,,,,,,,,,,,,,,,None,,590.2791450301651,None,590.2791450301651,None,2022-07-25-14:17:09.678164,590.2902134000324,590.5953474999405,590.2902134000324,None,None,590.2902134000324,None,591.0962358301971,None,,,,21007,0002,2022_Jul_25_1407,localizer,2021.1.3,58.578670575221715,
block,faces,faces050.bmp,,,,,0,50,50,50,,,,,,,,,,,,,,,,,,,,,,,,,,,,,,,,,,,,,,,,,,None,,591.0962358301971,None,591.0962358301971,None,2022-07-25-14:17:10.496490,591.1077963002026,591.4122303002514,591.1077963002026,None,None,591.1077963002026,None,591.9124276301358,None,,,,21007,0002,2022_Jul_25_1407,localizer,2021.1.3,58.578670575221715,
block,faces,faces076.bmp,,,,,0,51,51,51,,,,,,,,,,,,,,,,,,,,,,,,,,,,,,,,,,,,,,,,,,None,,591.9124276301358,None,591.9124276301358,None,2022-07-25-14:17:11.311648,591.9136385000311,592.2294968003407,591.9136385000311,None,None,591.9136385000311,None,592.7291054300498,None,,,,21007,0002,2022_Jul_25_1407,localizer,2021.1.3,58.578670575221715,
block,faces,faces036.bmp,,,,,0,52,52,52,,,,,,,,,,,,,,,,,,,,,,,,,,,,,,,,,,,,,,,,,,None,,592.7291054300498,None,592.7291054300498,None,2022-07-25-14:17:12.127895,592.7394461003132,593.0461074002087,592.7394461003132,None,None,592.7394461003132,None,593.5488790300209,None,,,,21007,0002,2022_Jul_25_1407,localizer,2021.1.3,58.578670575221715,
block,faces,faces089.bmp,,,,,0,53,53,53,,,,,,,,,,,,,,,,,,,,,,,,,,,,,,,,,,,,,,,,,,None,,593.5488790300209,None,593.5488790300209,None,2022-07-25-14:17:12.949291,593.5488173002377,593.8699215999804,593.5488173002377,None,None,593.5488173002377,None,594.3623468301724,None,,,,21007,0002,2022_Jul_25_1407,localizer,2021.1.3,58.578670575221715,
block,faces,faces021.bmp,,,,,0,54,54,54,,,,,,,,,,,,,,,,,,,,,,,,,,,,,,,,,,,,,,,,,,None,,594.3623468301724,None,594.3623468301724,None,2022-07-25-14:17:13.761645,594.3640177003108,594.6794556002133,594.3640177003108,None,None,594.3640177003108,None,595.1635043303016,None,,,,21007,0002,2022_Jul_25_1407,localizer,2021.1.3,58.578670575221715,
block,faces,faces024.bmp,,,,,0,55,55,55,,,,,,,,,,,,,,,,,,,,,,,,,,,,,,,,,,,,,,,,,,None,,595.1635043303016,None,595.1635043303016,None,2022-07-25-14:17:14.566930,595.1678069001064,595.4795009000227,595.1678069001064,595.1678069001064,None,595.1678069001064,595.1678069001064,595.9791791302617,None,,,,21007,0002,2022_Jul_25_1407,localizer,2021.1.3,58.578670575221715,
block,faces,faces044.bmp,,,,,0,56,56,56,,,,,,,,,,,,,,,,,,,,,,,,,,,,,,,,,,,,,,,,,,None,,595.9791791302617,None,595.9791791302617,None,2022-07-25-14:17:15.378478,595.9906812002882,596.2959014000371,595.9906812002882,None,None,595.9906812002882,None,596.7957912300247,None,,,,21007,0002,2022_Jul_25_1407,localizer,2021.1.3,58.578670575221715,
block,faces,faces077.bmp,,,,,0,57,57,57,,,,,,,,,,,,,,,,,,,,,,,,,,,,,,,,,,,,,,,,,,None,,596.7957912300247,None,596.7957912300247,None,2022-07-25-14:17:16.195099,596.8066961001605,597.1127595002763,596.8066961001605,None,None,596.8066961001605,None,597.6127329299692,None,,,,21007,0002,2022_Jul_25_1407,localizer,2021.1.3,58.578670575221715,
block,faces,faces022.bmp,,,,,0,58,58,58,,,,,,,,,,,,,,,,,,,,,,,,,,,,,,,,,,,,,,,,,,None,,597.6127329299692,None,597.6127329299692,None,2022-07-25-14:17:17.012345,597.6212400002405,597.9291986003518,597.6212400002405,None,None,597.6212400002405,None,598.4292130301241,None,,,,21007,0002,2022_Jul_25_1407,localizer,2021.1.3,58.578670575221715,
block,faces,faces052.bmp,,,,,0,59,59,59,,,,,,,,,,,,,,,,,,,,,,,,,,,,,,,,,,,,,,,,,,None,,598.4292130301241,None,598.4292130301241,None,2022-07-25-14:17:17.828523,598.4303921000101,598.7460299003869,598.4303921000101,None,None,598.4303921000101,None,599.2457314299885,None,,,,21007,0002,2022_Jul_25_1407,localizer,2021.1.3,58.578670575221715,
block_end,faces,faces039.bmp,,,,,0,60,60,60,,,,,,,,,,,,,,,,,,,,,,,,,,,,,,,,,,,,,,,,,,None,,599.2457314299885,None,599.2457314299885,None,2022-07-25-14:17:18.644991,599.2472036001272,599.5628606001846,599.2472036001272,None,None,599.2472036001272,None,600.0621708299499,None,,,,21007,0002,2022_Jul_25_1407,localizer,2021.1.3,58.578670575221715,
block_start,objects,objects078.bmp,,,,,0,61,61,61,,,,,,,,,,,,,,,,,,,,,,,,,,,,,,,,,,,,,,,,,,t,1.747443400323391,600.0626481999643,None,600.0626481999643,None,2022-07-25-14:17:21.227545,601.8382852002978,602.1462195003405,601.8382852002978,None,None,601.8382852002978,None,602.6460346303414,None,,,,21007,0002,2022_Jul_25_1407,localizer,2021.1.3,58.578670575221715,
block,objects,objects073.bmp,,,,,0,62,62,62,,,,,,,,,,,,,,,,,,,,,,,,,,,,,,,,,,,,,,,,,,None,,602.6460346303414,None,602.6460346303414,None,2022-07-25-14:17:22.045920,602.6471239002421,602.9625967000611,602.6471239002421,None,None,602.6471239002421,None,603.4625184301752,None,,,,21007,0002,2022_Jul_25_1407,localizer,2021.1.3,58.578670575221715,
block,objects,objects080.bmp,,,,,0,63,63,63,,,,,,,,,,,,,,,,,,,,,,,,,,,,,,,,,,,,,,,,,,None,,603.4625184301752,None,603.4625184301752,None,2022-07-25-14:17:22.861851,603.4673251002096,603.780212700367,603.4673251002096,None,None,603.4673251002096,None,604.2794297303539,None,,,,21007,0002,2022_Jul_25_1407,localizer,2021.1.3,58.578670575221715,
block,objects,objects064.bmp,,,,,0,64,64,64,,,,,,,,,,,,,,,,,,,,,,,,,,,,,,,,,,,,,,,,,,None,,604.2794297303539,None,604.2794297303539,None,2022-07-25-14:17:23.678756,604.2803727001883,604.5796425002627,604.2803727001883,None,None,604.2803727001883,None,605.0958509299438,None,,,,21007,0002,2022_Jul_25_1407,localizer,2021.1.3,58.578670575221715,
block,objects,objects034.bmp,,,,,0,65,65,65,,,,,,,,,,,,,,,,,,,,,,,,,,,,,,,,,,,,,,,,,,None,,605.0958509299438,None,605.0958509299438,None,2022-07-25-14:17:24.495186,605.0970123000443,605.412746600341,605.0970123000443,None,None,605.0970123000443,None,605.9005960299168,None,,,,21007,0002,2022_Jul_25_1407,localizer,2021.1.3,58.578670575221715,
block,objects,objects070.bmp,,,,,0,66,66,66,,,,,,,,,,,,,,,,,,,,,,,,,,,,,,,,,,,,,,,,,,None,,605.9005960299168,None,605.9005960299168,None,2022-07-25-14:17:25.302079,605.9065157999285,606.2128037000075,605.9065157999285,None,None,605.9065157999285,None,606.7127442302648,None,,,,21007,0002,2022_Jul_25_1407,localizer,2021.1.3,58.578670575221715,
block,objects,objects039.bmp,,,,,0,67,67,67,,,,,,,,,,,,,,,,,,,,,,,,,,,,,,,,,,,,,,,,,,None,,606.7127442302648,None,606.7127442302648,None,2022-07-25-14:17:26.112081,606.7137850001454,607.0294393002987,606.7137850001454,None,None,606.7137850001454,None,607.5294466301333,None,,,,21007,0002,2022_Jul_25_1407,localizer,2021.1.3,58.578670575221715,
block,objects,objects044.bmp,,,,,0,68,68,68,,,,,,,,,,,,,,,,,,,,,,,,,,,,,,,,,,,,,,,,,,None,,607.5294466301333,None,607.5294466301333,None,2022-07-25-14:17:26.928794,607.5309318001382,607.8458727002144,607.5309318001382,None,None,607.5309318001382,None,608.3462238301057,None,,,,21007,0002,2022_Jul_25_1407,localizer,2021.1.3,58.578670575221715,
block,objects,objects060.bmp,,,,,0,69,69,69,,,,,,,,,,,,,,,,,,,,,,,,,,,,,,,,,,,,,,,,,,None,,608.3462238301057,None,608.3462238301057,None,2022-07-25-14:17:27.746676,608.3473147000186,608.6629278003238,608.3473147000186,None,None,608.3473147000186,None,609.1624537299853,None,,,,21007,0002,2022_Jul_25_1407,localizer,2021.1.3,58.578670575221715,
block,objects,objects043.bmp,,,,,0,70,70,70,,,,,,,,,,,,,,,,,,,,,,,,,,,,,,,,,,,,,,,,,,None,,609.1624537299853,None,609.1624537299853,None,2022-07-25-14:17:28.561804,609.1637637000531,609.4634386999533,609.1637637000531,None,None,609.1637637000531,None,609.9627650299575,None,,,,21007,0002,2022_Jul_25_1407,localizer,2021.1.3,58.578670575221715,
block,objects,objects042.bmp,,,,,0,71,71,71,,,,,,,,,,,,,,,,,,,,,,,,,,,,,,,,,,,,,,,,,,None,,609.9627650299575,None,609.9627650299575,None,2022-07-25-14:17:29.364303,609.976172900293,610.2793820002116,609.976172900293,609.976172900293,None,609.976172900293,609.976172900293,610.77905873009,None,,,,21007,0002,2022_Jul_25_1407,localizer,2021.1.3,58.578670575221715,
block,objects,objects029.bmp,,,,,0,72,72,72,,,,,,,,,,,,,,,,,,,,,,,,,,,,,,,,,,,,,,,,,,None,,610.77905873009,None,610.77905873009,None,2022-07-25-14:17:30.178417,610.7805310999975,611.0957764000632,610.7805310999975,None,None,610.7805310999975,None,611.5796021300833,None,,,,21007,0002,2022_Jul_25_1407,localizer,2021.1.3,58.578670575221715,
block,objects,objects058.bmp,,,,,0,73,73,73,,,,,,,,,,,,,,,,,,,,,,,,,,,,,,,,,,,,,,,,,,None,,611.5796021300833,None,611.5796021300833,None,2022-07-25-14:17:30.980668,611.581218500156,611.8959910999984,611.581218500156,611.581218500156,None,611.581218500156,611.581218500156,612.3956396298948,None,,,,21007,0002,2022_Jul_25_1407,localizer,2021.1.3,58.578670575221715,
block,objects,objects077.bmp,,,,,0,74,74,74,,,,,,,,,,,,,,,,,,,,,,,,,,,,,,,,,,,,,,,,,,None,,612.3956396298948,None,612.3956396298948,None,2022-07-25-14:17:31.795004,612.4049364002421,612.7129252003506,612.4049364002421,None,None,612.4049364002421,None,613.2124768303241,None,,,,21007,0002,2022_Jul_25_1407,localizer,2021.1.3,58.578670575221715,
block_end,objects,objects021.bmp,,,,,0,75,75,75,,,,,,,,,,,,,,,,,,,,,,,,,,,,,,,,,,,,,,,,,,None,,613.2124768303241,None,613.2124768303241,None,2022-07-25-14:17:32.611842,613.2223474001512,613.5295751001686,613.2223474001512,None,None,613.2223474001512,None,614.0334065299015,None,,,,21007,0002,2022_Jul_25_1407,localizer,2021.1.3,58.578670575221715,
block_start,faces,faces072.bmp,,,,,0,76,76,76,,,,,,,,,,,,,,,,,,,,,,,,,,,,,,,,,,,,,,,,,,t,1.7780129997991025,614.0320548000745,None,614.0320548000745,None,2022-07-25-14:17:35.228783,615.8304211003706,616.1297650001943,615.8304211003706,None,None,615.8304211003706,None,616.6297273299191,None,,,,21007,0002,2022_Jul_25_1407,localizer,2021.1.3,58.578670575221715,
block,faces,faces019.bmp,,,,,0,77,77,77,,,,,,,,,,,,,,,,,,,,,,,,,,,,,,,,,,,,,,,,,,None,,616.6297273299191,None,616.6297273299191,None,2022-07-25-14:17:36.031091,616.6328305001371,616.9463061001152,616.6328305001371,616.6328305001371,None,616.6328305001371,616.6328305001371,617.4467880300712,None,,,,21007,0002,2022_Jul_25_1407,localizer,2021.1.3,58.578670575221715,
block,faces,faces083.bmp,,,,,0,78,78,78,,,,,,,,,,,,,,,,,,,,,,,,,,,,,,,,,,,,,,,,,,None,,617.4467880300712,None,617.4467880300712,None,2022-07-25-14:17:36.847354,617.4607269000262,617.7635326003656,617.4607269000262,None,None,617.4607269000262,None,618.2626934301574,None,,,,21007,0002,2022_Jul_25_1407,localizer,2021.1.3,58.578670575221715,
block,faces,faces031.bmp,,,,,0,79,79,79,,,,,,,,,,,,,,,,,,,,,,,,,,,,,,,,,,,,,,,,,,None,,618.2626934301574,None,618.2626934301574,None,2022-07-25-14:17:37.662023,618.2643457003869,618.5637606000528,618.2643457003869,None,None,618.2643457003869,None,619.0789066300262,None,,,,21007,0002,2022_Jul_25_1407,localizer,2021.1.3,58.578670575221715,
block,faces,faces059.bmp,,,,,0,80,80,80,,,,,,,,,,,,,,,,,,,,,,,,,,,,,,,,,,,,,,,,,,None,,619.0789066300262,None,619.0789066300262,None,2022-07-25-14:17:38.478500,619.080447900109,619.3959587002173,619.080447900109,None,None,619.080447900109,None,619.8959270299878,None,,,,21007,0002,2022_Jul_25_1407,localizer,2021.1.3,58.578670575221715,
block,faces,faces067.bmp,,,,,0,81,81,81,,,,,,,,,,,,,,,,,,,,,,,,,,,,,,,,,,,,,,,,,,None,,619.8959270299878,None,619.8959270299878,None,2022-07-25-14:17:39.295319,619.9069797000848,620.2132855001837,619.9069797000848,None,None,619.9069797000848,None,620.712741929898,None,,,,21007,0002,2022_Jul_25_1407,localizer,2021.1.3,58.578670575221715,
block,faces,faces085.bmp,,,,,0,82,82,82,,,,,,,,,,,,,,,,,,,,,,,,,,,,,,,,,,,,,,,,,,None,,620.712741929898,None,620.712741929898,None,2022-07-25-14:17:40.112494,620.7239544000477,621.0296285999939,620.7239544000477,None,None,620.7239544000477,None,621.5295538300182,None,,,,21007,0002,2022_Jul_25_1407,localizer,2021.1.3,58.578670575221715,
block,faces,faces011.bmp,,,,,0,83,83,83,,,,,,,,,,,,,,,,,,,,,,,,,,,,,,,,,,,,,,,,,,None,,621.5295538300182,None,621.5295538300182,None,2022-07-25-14:17:40.928945,621.530537399929,621.8296958003193,621.530537399929,None,None,621.530537399929,None,622.3461540302727,None,,,,21007,0002,2022_Jul_25_1407,localizer,2021.1.3,58.578670575221715,
block,faces,faces036.bmp,,,,,0,84,84,84,,,,,,,,,,,,,,,,,,,,,,,,,,,,,,,,,,,,,,,,,,None,,622.3461540302727,None,622.3461540302727,None,2022-07-25-14:17:41.745914,622.3472222001292,622.6626307000406,622.3472222001292,None,None,622.3472222001292,None,623.1467666303273,None,,,,21007,0002,2022_Jul_25_1407,localizer,2021.1.3,58.578670575221715,
block,faces,faces007.bmp,,,,,0,85,85,85,,,,,,,,,,,,,,,,,,,,,,,,,,,,,,,,,,,,,,,,,,None,,623.1467666303273,None,623.1467666303273,None,2022-07-25-14:17:42.549148,623.1614457000978,623.4631310002878,623.1614457000978,623.1614457000978,None,623.1614457000978,623.1614457000978,623.9628062302712,None,,,,21007,0002,2022_Jul_25_1407,localizer,2021.1.3,58.578670575221715,
block,faces,faces054.bmp,,,,,0,86,86,86,,,,,,,,,,,,,,,,,,,,,,,,,,,,,,,,,,,,,,,,,,None,,623.9628062302712,None,623.9628062302712,None,2022-07-25-14:17:43.362177,623.9738728003576,624.2800202001818,623.9738728003576,None,None,623.9738728003576,None,624.7790069299284,None,,,,21007,0002,2022_Jul_25_1407,localizer,2021.1.3,58.578670575221715,
block,faces,faces004.bmp,,,,,0,87,87,87,,,,,,,,,,,,,,,,,,,,,,,,,,,,,,,,,,,,,,,,,,None,,624.7790069299284,None,624.7790069299284,None,2022-07-25-14:17:44.178667,624.7934687002562,625.0963345002383,624.7934687002562,None,None,624.7934687002562,None,625.596094129933,None,,,,21007,0002,2022_Jul_25_1407,localizer,2021.1.3,58.578670575221715,
block,faces,faces086.bmp,,,,,0,88,88,88,,,,,,,,,,,,,,,,,,,,,,,,,,,,,,,,,,,,,,,,,,None,,625.596094129933,None,625.596094129933,None,2022-07-25-14:17:44.995630,625.5972621999681,625.8961316002533,625.5972621999681,None,None,625.5972621999681,None,626.3964963302482,None,,,,21007,0002,2022_Jul_25_1407,localizer,2021.1.3,58.578670575221715,
block,faces,faces069.bmp,,,,,0,89,89,89,,,,,,,,,,,,,,,,,,,,,,,,,,,,,,,,,,,,,,,,,,None,,626.3964963302482,None,626.3964963302482,None,2022-07-25-14:17:45.798892,626.3995904000476,626.7128342003562,626.3995904000476,626.3995904000476,None,626.3995904000476,626.3995904000476,627.2029219300952,None,,,,21007,0002,2022_Jul_25_1407,localizer,2021.1.3,58.578670575221715,
block_end,faces,faces027.bmp,,,,,0,90,90,90,,,,,,,,,,,,,,,,,,,,,,,,,,,,,,,,,,,,,,,,,,None,,627.2029219300952,None,627.2029219300952,None,2022-07-25-14:17:46.611334,627.2107784003019,627.5125712002628,627.2107784003019,627.2107784003019,None,627.2107784003019,627.2107784003019,628.0123611300718,None,,,,21007,0002,2022_Jul_25_1407,localizer,2021.1.3,58.578670575221715,
null_block,null_block,null_block.bmp,,,,,0,91,91,91,,,,,,,,,,,,,,,,,,,,,,,,,,,,,,,,,,,,,,,,,,t,1.7974548996426165,628.0125656002201,None,628.0125656002201,None,2022-07-25-14:17:49.229047,629.8293116300832,None,629.8293116300832,None,None,629.8293116300832,None,629.832503200043,None,,,,21007,0002,2022_Jul_25_1407,localizer,2021.1.3,58.578670575221715,
block_start,scrambled,scrambled044.bmp,,,,,0,92,92,92,,,,,,,,,,,,,,,,,,,,,,,,,,,,,,,,,,,,,,,,,,t,1.9643358001485467,641.8456752002239,None,641.8456752002239,None,2022-07-25-14:18:03.229279,643.8306992002763,644.1299032000825,643.8306992002763,None,None,643.8306992002763,None,644.6462056300137,None,,,,21007,0002,2022_Jul_25_1407,localizer,2021.1.3,58.578670575221715,
block,scrambled,scrambled076.bmp,,,,,0,93,93,93,,,,,,,,,,,,,,,,,,,,,,,,,,,,,,,,,,,,,,,,,,None,,644.6462056300137,None,644.6462056300137,None,2022-07-25-14:18:04.046683,644.6473425999284,644.9631015001796,644.6473425999284,None,None,644.6473425999284,None,645.4627511299681,None,,,,21007,0002,2022_Jul_25_1407,localizer,2021.1.3,58.578670575221715,
block,scrambled,scrambled067.bmp,,,,,0,94,94,94,,,,,,,,,,,,,,,,,,,,,,,,,,,,,,,,,,,,,,,,,,None,,645.4627511299681,None,645.4627511299681,None,2022-07-25-14:18:04.862234,645.4734020000324,645.7796144001186,645.4734020000324,None,None,645.4734020000324,None,646.27955143,None,,,,21007,0002,2022_Jul_25_1407,localizer,2021.1.3,58.578670575221715,
block,scrambled,scrambled003.bmp,,,,,0,95,95,95,,,,,,,,,,,,,,,,,,,,,,,,,,,,,,,,,,,,,,,,,,None,,646.27955143,None,646.27955143,None,2022-07-25-14:18:05.679335,646.2809187001549,646.5961704002693,646.2809187001549,None,None,646.2809187001549,None,647.0962307302747,None,,,,21007,0002,2022_Jul_25_1407,localizer,2021.1.3,58.578670575221715,
block,scrambled,scrambled063.bmp,,,,,0,96,96,96,,,,,,,,,,,,,,,,,,,,,,,,,,,,,,,,,,,,,,,,,,None,,647.0962307302747,None,647.0962307302747,None,2022-07-25-14:18:06.495719,647.1069404999726,647.4131821002811,647.1069404999726,None,None,647.1069404999726,None,647.9126835301053,None,,,,21007,0002,2022_Jul_25_1407,localizer,2021.1.3,58.578670575221715,
block,scrambled,scrambled010.bmp,,,,,0,97,97,97,,,,,,,,,,,,,,,,,,,,,,,,,,,,,,,,,,,,,,,,,,None,,647.9126835301053,None,647.9126835301053,None,2022-07-25-14:18:07.311183,647.9140947000124,648.2296033999883,647.9140947000124,None,None,647.9140947000124,None,648.7296853301581,None,,,,21007,0002,2022_Jul_25_1407,localizer,2021.1.3,58.578670575221715,
block,scrambled,scrambled016.bmp,,,,,0,98,98,98,,,,,,,,,,,,,,,,,,,,,,,,,,,,,,,,,,,,,,,,,,None,,648.7296853301581,None,648.7296853301581,None,2022-07-25-14:18:08.129212,648.7406369000673,649.0460751000792,648.7406369000673,None,None,648.7406369000673,None,649.5460826301481,None,,,,21007,0002,2022_Jul_25_1407,localizer,2021.1.3,58.578670575221715,
block,scrambled,scrambled058.bmp,,,,,0,99,99,99,,,,,,,,,,,,,,,,,,,,,,,,,,,,,,,,,,,,,,,,,,None,,649.5460826301481,None,649.5460826301481,None,2022-07-25-14:18:08.945580,649.5473176003434,649.8627176000737,649.5473176003434,None,None,649.5473176003434,None,650.3463287300896,None,,,,21007,0002,2022_Jul_25_1407,localizer,2021.1.3,58.578670575221715,
block,scrambled,scrambled080.bmp,,,,,0,100,100,100,,,,,,,,,,,,,,,,,,,,,,,,,,,,,,,,,,,,,,,,,,None,,650.3463287300896,None,650.3463287300896,None,2022-07-25-14:18:09.747820,650.3491966002621,650.6634153001942,650.3491966002621,650.3491966002621,None,650.3491966002621,650.3491966002621,651.1525443302002,None,,,,21007,0002,2022_Jul_25_1407,localizer,2021.1.3,58.578670575221715,
block,scrambled,scrambled045.bmp,,,,,0,101,101,101,,,,,,,,,,,,,,,,,,,,,,,,,,,,,,,,,,,,,,,,,,None,,651.1525443302002,None,651.1525443302002,None,2022-07-25-14:18:10.562143,651.1668259999715,651.4795485003851,651.1668259999715,651.1668259999715,None,651.1668259999715,651.1668259999715,651.9667417303193,None,,,,21007,0002,2022_Jul_25_1407,localizer,2021.1.3,58.578670575221715,
block,scrambled,scrambled074.bmp,,,,,0,102,102,102,,,,,,,,,,,,,,,,,,,,,,,,,,,,,,,,,,,,,,,,,,None,,651.9667417303193,None,651.9667417303193,None,2022-07-25-14:18:11.367061,651.9727521003224,652.2796877003275,651.9727521003224,None,None,651.9727521003224,None,652.7793627300765,None,,,,21007,0002,2022_Jul_25_1407,localizer,2021.1.3,58.578670575221715,
block,scrambled,scrambled002.bmp,,,,,0,103,103,103,,,,,,,,,,,,,,,,,,,,,,,,,,,,,,,,,,,,,,,,,,None,,652.7793627300765,None,652.7793627300765,None,2022-07-25-14:18:12.178877,652.7806692002341,653.0963990003802,652.7806692002341,None,None,652.7806692002341,None,653.5960222299676,None,,,,21007,0002,2022_Jul_25_1407,localizer,2021.1.3,58.578670575221715,
block,scrambled,scrambled046.bmp,,,,,0,104,104,104,,,,,,,,,,,,,,,,,,,,,,,,,,,,,,,,,,,,,,,,,,None,,653.5960222299676,None,653.5960222299676,None,2022-07-25-14:18:12.995443,653.6061062002555,653.912836600095,653.6061062002555,None,None,653.6061062002555,None,654.4127796300221,None,,,,21007,0002,2022_Jul_25_1407,localizer,2021.1.3,58.578670575221715,
block,scrambled,scrambled047.bmp,,,,,0,105,105,105,,,,,,,,,,,,,,,,,,,,,,,,,,,,,,,,,,,,,,,,,,None,,654.4127796300221,None,654.4127796300221,None,2022-07-25-14:18:13.812296,654.4139702999964,654.7298373002559,654.4139702999964,None,None,654.4139702999964,None,655.2294030299876,None,,,,21007,0002,2022_Jul_25_1407,localizer,2021.1.3,58.578670575221715,
block_end,scrambled,scrambled039.bmp,,,,,0,106,106,106,,,,,,,,,,,,,,,,,,,,,,,,,,,,,,,,,,,,,,,,,,None,,655.2294030299876,None,655.2294030299876,None,2022-07-25-14:18:14.628922,655.2306979000568,655.5300164003856,655.2306979000568,None,None,655.2306979000568,None,656.0460310302209,None,,,,21007,0002,2022_Jul_25_1407,localizer,2021.1.3,58.578670575221715,
block_start,scenes,scenes008.bmp,,,,,0,107,107,107,,,,,,,,,,,,,,,,,,,,,,,,,,,,,,,,,,,,,,,,,,t,1.7637895001098514,656.0462013999932,None,656.0462013999932,None,2022-07-25-14:18:17.227991,657.838865400292,658.1462465003133,657.838865400292,None,None,657.838865400292,None,658.6464142299723,None,,,,21007,0002,2022_Jul_25_1407,localizer,2021.1.3,58.578670575221715,
block,scenes,scenes052.bmp,,,,,0,108,108,108,,,,,,,,,,,,,,,,,,,,,,,,,,,,,,,,,,,,,,,,,,None,,658.6464142299723,None,658.6464142299723,None,2022-07-25-14:18:18.046560,658.6474152002484,658.9626964000054,658.6474152002484,None,None,658.6474152002484,None,659.4465432300698,None,,,,21007,0002,2022_Jul_25_1407,localizer,2021.1.3,58.578670575221715,
block,scenes,scenes085.bmp,,,,,0,109,109,109,,,,,,,,,,,,,,,,,,,,,,,,,,,,,,,,,,,,,,,,,,None,,659.4465432300698,None,659.4465432300698,None,2022-07-25-14:18:18.848200,659.4594860002398,659.7631586999632,659.4594860002398,659.4594860002398,None,659.4594860002398,659.4594860002398,660.2630309302825,None,,,,21007,0002,2022_Jul_25_1407,localizer,2021.1.3,58.578670575221715,
block,scenes,scenes027.bmp,,,,,0,110,110,110,,,,,,,,,,,,,,,,,,,,,,,,,,,,,,,,,,,,,,,,,,None,,660.2630309302825,None,660.2630309302825,None,2022-07-25-14:18:19.662559,660.2641867999919,660.5798023003154,660.2641867999919,None,None,660.2641867999919,None,661.0796495302114,None,,,,21007,0002,2022_Jul_25_1407,localizer,2021.1.3,58.578670575221715,
block,scenes,scenes087.bmp,,,,,0,111,111,111,,,,,,,,,,,,,,,,,,,,,,,,,,,,,,,,,,,,,,,,,,None,,661.0796495302114,None,661.0796495302114,None,2022-07-25-14:18:20.479413,661.0905969003215,661.3979649003595,661.0905969003215,None,None,661.0905969003215,None,661.896078730328,None,,,,21007,0002,2022_Jul_25_1407,localizer,2021.1.3,58.578670575221715,
block,scenes,scenes087.bmp,,,,,0,112,112,112,,,,,,,,,,,,,,,,,,,,,,,,,,,,,,,,,,,,,,,,,,None,,661.896078730328,None,661.896078730328,None,2022-07-25-14:18:21.295616,661.8977931002155,662.2130466001108,661.8977931002155,None,None,661.8977931002155,None,662.7128166303504,None,,,,21007,0002,2022_Jul_25_1407,localizer,2021.1.3,58.578670575221715,
block,scenes,scenes028.bmp,,,,,0,113,113,113,,,,,,,,,,,,,,,,,,,,,,,,,,,,,,,,,,,,,,,,,,None,,662.7128166303504,None,662.7128166303504,None,2022-07-25-14:18:22.112335,662.720857700333,663.0296237999573,662.720857700333,None,None,662.720857700333,None,663.5298565303441,None,,,,21007,0002,2022_Jul_25_1407,localizer,2021.1.3,58.578670575221715,
block,scenes,scenes084.bmp,,,,,0,114,114,114,,,,,,,,,,,,,,,,,,,,,,,,,,,,,,,,,,,,,,,,,,None,,663.5298565303441,None,663.5298565303441,None,2022-07-25-14:18:22.930612,663.530864899978,663.8304556999356,663.530864899978,None,None,663.530864899978,None,664.3459819302428,None,,,,21007,0002,2022_Jul_25_1407,localizer,2021.1.3,58.578670575221715,
block,scenes,scenes069.bmp,,,,,0,115,115,115,,,,,,,,,,,,,,,,,,,,,,,,,,,,,,,,,,,,,,,,,,None,,664.3459819302428,None,664.3459819302428,None,2022-07-25-14:18:23.745027,664.3556959000416,664.662881300319,664.3556959000416,None,None,664.3556959000416,None,665.1629935301374,None,,,,21007,0002,2022_Jul_25_1407,localizer,2021.1.3,58.578670575221715,
block,scenes,scenes070.bmp,,,,,0,116,116,116,,,,,,,,,,,,,,,,,,,,,,,,,,,,,,,,,,,,,,,,,,None,,665.1629935301374,None,665.1629935301374,None,2022-07-25-14:18:24.562530,665.164030500222,665.463146999944,665.164030500222,None,None,665.164030500222,None,665.9631017300766,None,,,,21007,0002,2022_Jul_25_1407,localizer,2021.1.3,58.578670575221715,
block,scenes,scenes016.bmp,,,,,0,117,117,117,,,,,,,,,,,,,,,,,,,,,,,,,,,,,,,,,,,,,,,,,,None,,665.9631017300766,None,665.9631017300766,None,2022-07-25-14:18:25.364857,665.980891500134,666.2962515000254,665.980891500134,665.980891500134,None,665.980891500134,665.980891500134,666.7793054299894,None,,,,21007,0002,2022_Jul_25_1407,localizer,2021.1.3,58.578670575221715,
block,scenes,scenes079.bmp,,,,,0,118,118,118,,,,,,,,,,,,,,,,,,,,,,,,,,,,,,,,,,,,,,,,,,None,,666.7793054299894,None,666.7793054299894,None,2022-07-25-14:18:26.178632,666.7886314000934,667.096262300387,666.7886314000934,None,None,666.7886314000934,None,667.5962516300846,None,,,,21007,0002,2022_Jul_25_1407,localizer,2021.1.3,58.578670575221715,
block,scenes,scenes081.bmp,,,,,0,119,119,119,,,,,,,,,,,,,,,,,,,,,,,,,,,,,,,,,,,,,,,,,,None,,667.5962516300846,None,667.5962516300846,None,2022-07-25-14:18:26.995792,667.5974217001349,667.8975884001702,667.5974217001349,None,None,667.5974217001349,None,668.4128912299406,None,,,,21007,0002,2022_Jul_25_1407,localizer,2021.1.3,58.578670575221715,
block,scenes,scenes041.bmp,,,,,0,120,120,120,,,,,,,,,,,,,,,,,,,,,,,,,,,,,,,,,,,,,,,,,,None,,668.4128912299406,None,668.4128912299406,None,2022-07-25-14:18:27.812577,668.4232097002678,668.7339211003855,668.4232097002678,None,None,668.4232097002678,None,669.2303442301694,None,,,,21007,0002,2022_Jul_25_1407,localizer,2021.1.3,58.578670575221715,
block_end,scenes,scenes057.bmp,,,,,0,121,121,121,,,,,,,,,,,,,,,,,,,,,,,,,,,,,,,,,,,,,,,,,,None,,669.2303442301694,None,669.2303442301694,None,2022-07-25-14:18:28.629882,669.2361392001621,669.546456400305,669.2361392001621,None,None,669.2361392001621,None,670.0462260300759,None,,,,21007,0002,2022_Jul_25_1407,localizer,2021.1.3,58.578670575221715,
block_start,faces,faces077.bmp,,,,,0,122,122,122,,,,,,,,,,,,,,,,,,,,,,,,,,,,,,,,,,,,,,,,,,t,1.7634304002858698,670.0465441001579,None,670.0465441001579,None,2022-07-25-14:18:31.228338,671.8306013001129,672.1464913999662,671.8306013001129,None,None,671.8306013001129,None,672.6462497300002,None,,,,21007,0002,2022_Jul_25_1407,localizer,2021.1.3,58.578670575221715,
block,faces,faces040.bmp,,,,,0,123,123,123,,,,,,,,,,,,,,,,,,,,,,,,,,,,,,,,,,,,,,,,,,None,,672.6462497300002,None,672.6462497300002,None,2022-07-25-14:18:32.045800,672.6569337002002,672.9632538999431,672.6569337002002,None,None,672.6569337002002,None,673.4628686302807,None,,,,21007,0002,2022_Jul_25_1407,localizer,2021.1.3,58.578670575221715,
block,faces,faces024.bmp,,,,,0,124,124,124,,,,,,,,,,,,,,,,,,,,,,,,,,,,,,,,,,,,,,,,,,None,,673.4628686302807,None,673.4628686302807,None,2022-07-25-14:18:32.862689,673.4644618001767,673.7796996003017,673.4644618001767,None,None,673.4644618001767,None,674.2802443302702,None,,,,21007,0002,2022_Jul_25_1407,localizer,2021.1.3,58.578670575221715,
block,faces,faces073.bmp,,,,,0,125,125,125,,,,,,,,,,,,,,,,,,,,,,,,,,,,,,,,,,,,,,,,,,None,,674.2802443302702,None,674.2802443302702,None,2022-07-25-14:18:33.680782,674.282568000257,674.5966403000057,674.282568000257,None,None,674.282568000257,None,675.0964334303047,None,,,,21007,0002,2022_Jul_25_1407,localizer,2021.1.3,58.578670575221715,
block,faces,faces014.bmp,,,,,0,126,126,126,,,,,,,,,,,,,,,,,,,,,,,,,,,,,,,,,,,,,,,,,,None,,675.0964334303047,None,675.0964334303047,None,2022-07-25-14:18:34.496211,675.1077749002725,675.4131207000464,675.1077749002725,None,None,675.1077749002725,None,675.9030078303534,None,,,,21007,0002,2022_Jul_25_1407,localizer,2021.1.3,58.578670575221715,
block,faces,faces018.bmp,,,,,0,127,127,127,,,,,,,,,,,,,,,,,,,,,,,,,,,,,,,,,,,,,,,,,,None,,675.9030078303534,None,675.9030078303534,None,2022-07-25-14:18:35.306474,675.907424100209,676.2132538999431,675.907424100209,None,None,675.907424100209,None,676.7129654300865,None,,,,21007,0002,2022_Jul_25_1407,localizer,2021.1.3,58.578670575221715,
block,faces,faces021.bmp,,,,,0,128,128,128,,,,,,,,,,,,,,,,,,,,,,,,,,,,,,,,,,,,,,,,,,None,,676.7129654300865,None,676.7129654300865,None,2022-07-25-14:18:36.112504,676.7140238001011,677.0296958000399,676.7140238001011,None,None,676.7140238001011,None,677.5134583300445,None,,,,21007,0002,2022_Jul_25_1407,localizer,2021.1.3,58.578670575221715,
block,faces,faces001.bmp,,,,,0,129,129,129,,,,,,,,,,,,,,,,,,,,,,,,,,,,,,,,,,,,,,,,,,None,,677.5134583300445,None,677.5134583300445,None,2022-07-25-14:18:36.913319,677.5246777003631,677.829780000262,677.5246777003631,677.5246777003631,None,677.5246777003631,677.5246777003631,678.3300530299078,None,,,,21007,0002,2022_Jul_25_1407,localizer,2021.1.3,58.578670575221715,
block,faces,faces080.bmp,,,,,0,130,130,130,,,,,,,,,,,,,,,,,,,,,,,,,,,,,,,,,,,,,,,,,,None,,678.3300530299078,None,678.3300530299078,None,2022-07-25-14:18:37.729811,678.3456224002875,678.6461680000648,678.3456224002875,None,None,678.3456224002875,None,679.1465188300702,None,,,,21007,0002,2022_Jul_25_1407,localizer,2021.1.3,58.578670575221715,
block,faces,faces020.bmp,,,,,0,131,131,131,,,,,,,,,,,,,,,,,,,,,,,,,,,,,,,,,,,,,,,,,,None,,679.1465188300702,None,679.1465188300702,None,2022-07-25-14:18:38.547069,679.1484032003209,679.4633017000742,679.1484032003209,None,None,679.1484032003209,None,679.9634689300786,None,,,,21007,0002,2022_Jul_25_1407,localizer,2021.1.3,58.578670575221715,
block,faces,faces019.bmp,,,,,0,132,132,132,,,,,,,,,,,,,,,,,,,,,,,,,,,,,,,,,,,,,,,,,,None,,679.9634689300786,None,679.9634689300786,None,2022-07-25-14:18:39.364005,679.9643876999617,680.2679622001015,679.9643876999617,None,None,679.9643876999617,None,680.7691395299975,None,,,,21007,0002,2022_Jul_25_1407,localizer,2021.1.3,58.578670575221715,
block,faces,faces023.bmp,,,,,0,133,133,133,,,,,,,,,,,,,,,,,,,,,,,,,,,,,,,,,,,,,,,,,,None,,680.7691395299975,None,680.7691395299975,None,2022-07-25-14:18:40.176407,680.7828965000808,681.0969740999863,680.7828965000808,None,None,680.7828965000808,None,681.5796095299069,None,,,,21007,0002,2022_Jul_25_1407,localizer,2021.1.3,58.578670575221715,
block,faces,faces063.bmp,,,,,0,134,134,134,,,,,,,,,,,,,,,,,,,,,,,,,,,,,,,,,,,,,,,,,,None,,681.5796095299069,None,681.5796095299069,None,2022-07-25-14:18:40.979171,681.5924072000198,681.8977443999611,681.5924072000198,None,None,681.5924072000198,None,682.3960208300035,None,,,,21007,0002,2022_Jul_25_1407,localizer,2021.1.3,58.578670575221715,
block,faces,faces022.bmp,,,,,0,135,135,135,,,,,,,,,,,,,,,,,,,,,,,,,,,,,,,,,,,,,,,,,,None,,682.3960208300035,None,682.3960208300035,None,2022-07-25-14:18:41.795860,682.3974806000479,682.7128167999908,682.3974806000479,None,None,682.3974806000479,None,683.1966618302744,None,,,,21007,0002,2022_Jul_25_1407,localizer,2021.1.3,58.578670575221715,
block_end,faces,faces041.bmp,,,,,0,136,136,136,,,,,,,,,,,,,,,,,,,,,,,,,,,,,,,,,,,,,,,,,,None,,683.1966618302744,None,683.1966618302744,None,2022-07-25-14:18:42.599216,683.2104088999331,683.5131244999357,683.2104088999331,683.2104088999331,None,683.2104088999331,683.2104088999331,684.0132658303249,None,,,,21007,0002,2022_Jul_25_1407,localizer,2021.1.3,58.578670575221715,
block_start,scenes,scenes080.bmp,,,,,0,137,137,137,,,,,,,,,,,,,,,,,,,,,,,,,,,,,,,,,,,,,,,,,,t,1.7965532001107931,684.0133214001544,None,684.0133214001544,None,2022-07-25-14:18:45.228183,685.8310895003378,686.1462900000624,685.8310895003378,None,None,685.8310895003378,None,686.6303765302058,None,,,,21007,0002,2022_Jul_25_1407,localizer,2021.1.3,58.578670575221715,
block,scenes,scenes028.bmp,,,,,0,138,138,138,,,,,,,,,,,,,,,,,,,,,,,,,,,,,,,,,,,,,,,,,,None,,686.6303765302058,None,686.6303765302058,None,2022-07-25-14:18:46.033930,686.6346325003542,686.9464404000901,686.6346325003542,686.6346325003542,None,686.6346325003542,686.6346325003542,687.44658303014,None,,,,21007,0002,2022_Jul_25_1407,localizer,2021.1.3,58.578670575221715,
block,scenes,scenes065.bmp,,,,,0,139,139,139,,,,,,,,,,,,,,,,,,,,,,,,,,,,,,,,,,,,,,,,,,None,,687.44658303014,None,687.44658303014,None,2022-07-25-14:18:46.845943,687.4475684002973,687.7631577001885,687.4475684002973,None,None,687.4475684002973,None,688.2627524299081,None,,,,21007,0002,2022_Jul_25_1407,localizer,2021.1.3,58.578670575221715,
block,scenes,scenes090.bmp,,,,,0,140,140,140,,,,,,,,,,,,,,,,,,,,,,,,,,,,,,,,,,,,,,,,,,None,,688.2627524299081,None,688.2627524299081,None,2022-07-25-14:18:47.662323,688.2641477002762,688.563482800033,688.2641477002762,None,None,688.2641477002762,None,689.0637311300728,None,,,,21007,0002,2022_Jul_25_1407,localizer,2021.1.3,58.578670575221715,
block,scenes,scenes038.bmp,,,,,0,141,141,141,,,,,,,,,,,,,,,,,,,,,,,,,,,,,,,,,,,,,,,,,,None,,689.0637311300728,None,689.0637311300728,None,2022-07-25-14:18:48.466271,689.0671002003364,689.379780900199,689.0671002003364,689.0671002003364,None,689.0671002003364,689.0671002003364,689.8694901301991,None,,,,21007,0002,2022_Jul_25_1407,localizer,2021.1.3,58.578670575221715,
block,scenes,scenes027.bmp,,,,,0,142,142,142,,,,,,,,,,,,,,,,,,,,,,,,,,,,,,,,,,,,,,,,,,None,,689.8694901301991,None,689.8694901301991,None,2022-07-25-14:18:49.278331,689.8770429003052,690.180023800116,689.8770429003052,689.8770429003052,None,689.8770429003052,689.8770429003052,690.6798681303393,None,,,,21007,0002,2022_Jul_25_1407,localizer,2021.1.3,58.578670575221715,
block,scenes,scenes001.bmp,,,,,0,143,143,143,,,,,,,,,,,,,,,,,,,,,,,,,,,,,,,,,,,,,,,,,,None,,690.6798681303393,None,690.6798681303393,None,2022-07-25-14:18:50.079661,690.6910997000523,690.9964964999817,690.6910997000523,None,None,690.6910997000523,None,691.4966095302719,None,,,,21007,0002,2022_Jul_25_1407,localizer,2021.1.3,58.578670575221715,
block,scenes,scenes067.bmp,,,,,0,144,144,144,,,,,,,,,,,,,,,,,,,,,,,,,,,,,,,,,,,,,,,,,,None,,691.4966095302719,None,691.4966095302719,None,2022-07-25-14:18:50.896062,691.4975848002359,691.8133531003259,691.4975848002359,None,None,691.4975848002359,None,692.3128487303387,None,,,,21007,0002,2022_Jul_25_1407,localizer,2021.1.3,58.578670575221715,
block,scenes,scenes073.bmp,,,,,0,145,145,145,,,,,,,,,,,,,,,,,,,,,,,,,,,,,,,,,,,,,,,,,,None,,692.3128487303387,None,692.3128487303387,None,2022-07-25-14:18:51.712432,692.325473099947,692.6299382001162,692.325473099947,None,None,692.325473099947,None,693.1297202299814,None,,,,21007,0002,2022_Jul_25_1407,localizer,2021.1.3,58.578670575221715,
block,scenes,scenes007.bmp,,,,,0,146,146,146,,,,,,,,,,,,,,,,,,,,,,,,,,,,,,,,,,,,,,,,,,None,,693.1297202299814,None,693.1297202299814,None,2022-07-25-14:18:52.528535,693.1442800001241,693.4466651002876,693.1442800001241,None,None,693.1442800001241,None,693.9460829299409,None,,,,21007,0002,2022_Jul_25_1407,localizer,2021.1.3,58.578670575221715,
block,scenes,scenes003.bmp,,,,,0,147,147,147,,,,,,,,,,,,,,,,,,,,,,,,,,,,,,,,,,,,,,,,,,None,,693.9460829299409,None,693.9460829299409,None,2022-07-25-14:18:53.346196,693.9571956000291,694.2633084002882,693.9571956000291,None,None,693.9571956000291,None,694.7697132302914,None,,,,21007,0002,2022_Jul_25_1407,localizer,2021.1.3,58.578670575221715,
block,scenes,scenes053.bmp,,,,,0,148,148,148,,,,,,,,,,,,,,,,,,,,,,,,,,,,,,,,,,,,,,,,,,None,,694.7697132302914,None,694.7697132302914,None,2022-07-25-14:18:54.175127,694.7762175002135,695.0857151001692,694.7762175002135,None,None,694.7762175002135,None,695.5797989301849,None,,,,21007,0002,2022_Jul_25_1407,localizer,2021.1.3,58.578670575221715,
block,scenes,scenes024.bmp,,,,,0,149,149,149,,,,,,,,,,,,,,,,,,,,,,,,,,,,,,,,,,,,,,,,,,None,,695.5797989301849,None,695.5797989301849,None,2022-07-25-14:18:54.979387,695.5899752001278,695.896383299958,695.5899752001278,None,None,695.5899752001278,None,696.3963316300418,None,,,,21007,0002,2022_Jul_25_1407,localizer,2021.1.3,58.578670575221715,
block,scenes,scenes017.bmp,,,,,0,150,150,150,,,,,,,,,,,,,,,,,,,,,,,,,,,,,,,,,,,,,,,,,,None,,696.3963316300418,None,696.3963316300418,None,2022-07-25-14:18:55.795955,696.3980128001422,696.713047100231,696.3980128001422,None,None,696.3980128001422,None,697.2130405300762,None,,,,21007,0002,2022_Jul_25_1407,localizer,2021.1.3,58.578670575221715,
block_end,scenes,scenes060.bmp,,,,,0,151,151,151,,,,,,,,,,,,,,,,,,,,,,,,,,,,,,,,,,,,,,,,,,None,,697.2130405300762,None,697.2130405300762,None,2022-07-25-14:18:56.612839,697.2243197001517,697.530116500333,697.2243197001517,None,None,697.2243197001517,None,698.0294394300785,None,,,,21007,0002,2022_Jul_25_1407,localizer,2021.1.3,58.578670575221715,
block_start,scrambled,scrambled043.bmp,,,,,0,152,152,152,,,,,,,,,,,,,,,,,,,,,,,,,,,,,,,,,,,,,,,,,,t,1.780667099636048,698.0296974000521,None,698.0296974000521,None,2022-07-25-14:18:59.240083,699.8419861001894,700.1463942001574,699.8419861001894,None,None,699.8419861001894,None,700.6464295302052,None,,,,21007,0002,2022_Jul_25_1407,localizer,2021.1.3,58.578670575221715,
block,scrambled,scrambled013.bmp,,,,,0,153,153,153,,,,,,,,,,,,,,,,,,,,,,,,,,,,,,,,,,,,,,,,,,None,,700.6464295302052,None,700.6464295302052,None,2022-07-25-14:19:00.046004,700.6474254000932,700.946860300377,700.6474254000932,None,None,700.6474254000932,None,701.4468033303041,None,,,,21007,0002,2022_Jul_25_1407,localizer,2021.1.3,58.578670575221715,
block,scrambled,scrambled077.bmp,,,,,0,154,154,154,,,,,,,,,,,,,,,,,,,,,,,,,,,,,,,,,,,,,,,,,,None,,701.4468033303041,None,701.4468033303041,None,2022-07-25-14:19:00.849594,701.4608861003071,701.7650206000544,701.4608861003071,701.4608861003071,None,701.4608861003071,701.4608861003071,702.2633282303344,None,,,,21007,0002,2022_Jul_25_1407,localizer,2021.1.3,58.578670575221715,
block,scrambled,scrambled031.bmp,,,,,0,155,155,155,,,,,,,,,,,,,,,,,,,,,,,,,,,,,,,,,,,,,,,,,,None,,702.2633282303344,None,702.2633282303344,None,2022-07-25-14:19:01.663110,702.2643687999807,702.5801797001623,702.2643687999807,None,None,702.2643687999807,None,703.0794914302882,None,,,,21007,0002,2022_Jul_25_1407,localizer,2021.1.3,58.578670575221715,
block,scrambled,scrambled034.bmp,,,,,0,156,156,156,,,,,,,,,,,,,,,,,,,,,,,,,,,,,,,,,,,,,,,,,,None,,703.0794914302882,None,703.0794914302882,None,2022-07-25-14:19:02.479098,703.0883557000197,703.3965263999999,703.0883557000197,None,None,703.0883557000197,None,703.8867104303557,None,,,,21007,0002,2022_Jul_25_1407,localizer,2021.1.3,58.578670575221715,
block,scrambled,scrambled037.bmp,,,,,0,157,157,157,,,,,,,,,,,,,,,,,,,,,,,,,,,,,,,,,,,,,,,,,,None,,703.8867104303557,None,703.8867104303557,None,2022-07-25-14:19:03.290178,703.8899856000207,704.1964785000309,703.8899856000207,None,None,703.8899856000207,None,704.6967506300192,None,,,,21007,0002,2022_Jul_25_1407,localizer,2021.1.3,58.578670575221715,
block,scrambled,scrambled004.bmp,,,,,0,158,158,158,,,,,,,,,,,,,,,,,,,,,,,,,,,,,,,,,,,,,,,,,,None,,704.6967506300192,None,704.6967506300192,None,2022-07-25-14:19:04.096352,704.6976725002751,704.9972817003727,704.6976725002751,None,None,704.6976725002751,None,705.5131052302662,None,,,,21007,0002,2022_Jul_25_1407,localizer,2021.1.3,58.578670575221715,
block,scrambled,scrambled075.bmp,,,,,0,159,159,159,,,,,,,,,,,,,,,,,,,,,,,,,,,,,,,,,,,,,,,,,,None,,705.5131052302662,None,705.5131052302662,None,2022-07-25-14:19:04.912022,705.5144878001884,705.829993000254,705.5144878001884,None,None,705.5144878001884,None,706.3295435303356,None,,,,21007,0002,2022_Jul_25_1407,localizer,2021.1.3,58.578670575221715,
block,scrambled,scrambled012.bmp,,,,,0,160,160,160,,,,,,,,,,,,,,,,,,,,,,,,,,,,,,,,,,,,,,,,,,None,,706.3295435303356,None,706.3295435303356,None,2022-07-25-14:19:05.729156,706.3307785000652,706.6296064001508,706.3307785000652,None,None,706.3307785000652,None,707.1298249301966,None,,,,21007,0002,2022_Jul_25_1407,localizer,2021.1.3,58.578670575221715,
block,scrambled,scrambled008.bmp,,,,,0,161,161,161,,,,,,,,,,,,,,,,,,,,,,,,,,,,,,,,,,,,,,,,,,None,,707.1298249301966,None,707.1298249301966,None,2022-07-25-14:19:06.530660,707.1309819002636,707.4299519001506,707.1309819002636,707.1309819002636,None,707.1309819002636,707.1309819002636,707.930322130071,None,,,,21007,0002,2022_Jul_25_1407,localizer,2021.1.3,58.578670575221715,
block,scrambled,scrambled061.bmp,,,,,0,162,162,162,,,,,,,,,,,,,,,,,,,,,,,,,,,,,,,,,,,,,,,,,,None,,707.930322130071,None,707.930322130071,None,2022-07-25-14:19:07.333058,707.94538510032,708.2463355003856,707.94538510032,707.94538510032,None,707.94538510032,707.94538510032,708.7528081302065,None,,,,21007,0002,2022_Jul_25_1407,localizer,2021.1.3,58.578670575221715,
block,scrambled,scrambled026.bmp,,,,,0,163,163,163,,,,,,,,,,,,,,,,,,,,,,,,,,,,,,,,,,,,,,,,,,None,,708.7528081302065,None,708.7528081302065,None,2022-07-25-14:19:08.159216,708.7612455002964,709.0631838003173,708.7612455002964,None,None,708.7612455002964,None,709.5642664300743,None,,,,21007,0002,2022_Jul_25_1407,localizer,2021.1.3,58.578670575221715,
block,scrambled,scrambled074.bmp,,,,,0,164,164,164,,,,,,,,,,,,,,,,,,,,,,,,,,,,,,,,,,,,,,,,,,None,,709.5642664300743,None,709.5642664300743,None,2022-07-25-14:19:08.965993,709.5667481003329,709.8705724002793,709.5667481003329,None,None,709.5667481003329,None,710.3669080299791,None,,,,21007,0002,2022_Jul_25_1407,localizer,2021.1.3,58.578670575221715,
block,scrambled,scrambled074.bmp,,,,,0,165,165,165,,,,,,,,,,,,,,,,,,,,,,,,,,,,,,,,,,,,,,,,,,None,,710.3669080299791,None,710.3669080299791,None,2022-07-25-14:19:09.776277,710.3796956003644,710.6806629002094,710.3796956003644,710.3796956003644,None,710.3796956003644,710.3796956003644,711.179616430169,None,,,,21007,0002,2022_Jul_25_1407,localizer,2021.1.3,58.578670575221715,
block_end,scrambled,scrambled018.bmp,,,,,0,166,166,166,,,,,,,,,,,,,,,,,,,,,,,,,,,,,,,,,,,,,,,,,,None,,711.179616430169,None,711.179616430169,None,2022-07-25-14:19:10.579232,711.1849526003934,711.4968997002579,711.1849526003934,None,None,711.1849526003934,None,711.9968469299841,None,,,,21007,0002,2022_Jul_25_1407,localizer,2021.1.3,58.578670575221715,
null_block,null_block,null_block.bmp,,,,,0,167,167,167,,,,,,,,,,,,,,,,,,,,,,,,,,,,,,,,,,,,,,,,,,t,1.8120746999047697,711.9969937000424,None,711.9969937000424,None,2022-07-25-14:19:13.229485,713.8298662303481,None,713.8298662303481,None,None,713.8298662303481,None,713.8336430001073,None,,,,21007,0002,2022_Jul_25_1407,localizer,2021.1.3,58.578670575221715,
block_start,objects,objects004.bmp,,,,,0,168,168,168,,,,,,,,,,,,,,,,,,,,,,,,,,,,,,,,,,,,,,,,,,t,1.9559365003369749,725.8529765000567,None,725.8529765000567,None,2022-07-25-14:19:27.229928,727.8413899000734,728.1467909002677,727.8413899000734,None,None,727.8413899000734,None,728.6469604301732,None,,,,21007,0002,2022_Jul_25_1407,localizer,2021.1.3,58.578670575221715,
block,objects,objects082.bmp,,,,,0,169,169,169,,,,,,,,,,,,,,,,,,,,,,,,,,,,,,,,,,,,,,,,,,None,,728.6469604301732,None,728.6469604301732,None,2022-07-25-14:19:28.046801,728.6479209000245,728.9479714003392,728.6479209000245,None,None,728.6479209000245,None,729.4633177303243,None,,,,21007,0002,2022_Jul_25_1407,localizer,2021.1.3,58.578670575221715,
block,objects,objects006.bmp,,,,,0,170,170,170,,,,,,,,,,,,,,,,,,,,,,,,,,,,,,,,,,,,,,,,,,None,,729.4633177303243,None,729.4633177303243,None,2022-07-25-14:19:28.863176,729.4746006000787,729.7798175001517,729.4746006000787,None,None,729.4746006000787,None,730.2802950300742,None,,,,21007,0002,2022_Jul_25_1407,localizer,2021.1.3,58.578670575221715,
block,objects,objects068.bmp,,,,,0,171,171,171,,,,,,,,,,,,,,,,,,,,,,,,,,,,,,,,,,,,,,,,,,None,,730.2802950300742,None,730.2802950300742,None,2022-07-25-14:19:29.679935,730.2813152000308,730.5971603002399,730.2813152000308,None,None,730.2813152000308,None,731.0964658300858,None,,,,21007,0002,2022_Jul_25_1407,localizer,2021.1.3,58.578670575221715,
block,objects,objects072.bmp,,,,,0,172,172,172,,,,,,,,,,,,,,,,,,,,,,,,,,,,,,,,,,,,,,,,,,None,,731.0964658300858,None,731.0964658300858,None,2022-07-25-14:19:30.496116,731.1063324999996,731.4135775002651,731.1063324999996,None,None,731.1063324999996,None,731.9013500300701,None,,,,21007,0002,2022_Jul_25_1407,localizer,2021.1.3,58.578670575221715,
block,objects,objects071.bmp,,,,,0,173,173,173,,,,,,,,,,,,,,,,,,,,,,,,,,,,,,,,,,,,,,,,,,None,,731.9013500300701,None,731.9013500300701,None,2022-07-25-14:19:31.303961,731.9156931000762,732.2301125000231,731.9156931000762,None,None,731.9156931000762,None,732.7132388300728,None,,,,21007,0002,2022_Jul_25_1407,localizer,2021.1.3,58.578670575221715,
block,objects,objects085.bmp,,,,,0,174,174,174,,,,,,,,,,,,,,,,,,,,,,,,,,,,,,,,,,,,,,,,,,None,,732.7132388300728,None,732.7132388300728,None,2022-07-25-14:19:32.112891,732.7143788002431,733.0172145999968,732.7143788002431,None,None,732.7143788002431,None,733.5302327301819,None,,,,21007,0002,2022_Jul_25_1407,localizer,2021.1.3,58.578670575221715,
block,objects,objects084.bmp,,,,,0,175,175,175,,,,,,,,,,,,,,,,,,,,,,,,,,,,,,,,,,,,,,,,,,None,,733.5302327301819,None,733.5302327301819,None,2022-07-25-14:19:32.930114,733.5411879001185,733.8465486001223,733.5411879001185,None,None,733.5411879001185,None,734.3464272300247,None,,,,21007,0002,2022_Jul_25_1407,localizer,2021.1.3,58.578670575221715,
block,objects,objects063.bmp,,,,,0,176,176,176,,,,,,,,,,,,,,,,,,,,,,,,,,,,,,,,,,,,,,,,,,None,,734.3464272300247,None,734.3464272300247,None,2022-07-25-14:19:33.746581,734.347705299966,734.6635461002588,734.347705299966,None,None,734.347705299966,None,735.147332530329,None,,,,21007,0002,2022_Jul_25_1407,localizer,2021.1.3,58.578670575221715,
block,objects,objects043.bmp,,,,,0,177,177,177,,,,,,,,,,,,,,,,,,,,,,,,,,,,,,,,,,,,,,,,,,None,,735.147332530329,None,735.147332530329,None,2022-07-25-14:19:34.551150,735.1503486000001,735.4637946002185,735.1503486000001,735.1503486000001,None,735.1503486000001,735.1503486000001,735.9630885299761,None,,,,21007,0002,2022_Jul_25_1407,localizer,2021.1.3,58.578670575221715,
block,objects,objects074.bmp,,,,,0,178,178,178,,,,,,,,,,,,,,,,,,,,,,,,,,,,,,,,,,,,,,,,,,None,,735.9630885299761,None,735.9630885299761,None,2022-07-25-14:19:35.362978,735.9648458003066,736.2639757003635,735.9648458003066,None,None,735.9648458003066,None,736.7638813302386,None,,,,21007,0002,2022_Jul_25_1407,localizer,2021.1.3,58.578670575221715,
block,objects,objects083.bmp,,,,,0,179,179,179,,,,,,,,,,,,,,,,,,,,,,,,,,,,,,,,,,,,,,,,,,None,,736.7638813302386,None,736.7638813302386,None,2022-07-25-14:19:36.167080,736.7785561000928,737.0801985003054,736.7785561000928,736.7785561000928,None,736.7785561000928,736.7785561000928,737.579994730046,None,,,,21007,0002,2022_Jul_25_1407,localizer,2021.1.3,58.578670575221715,
block,objects,objects077.bmp,,,,,0,180,180,180,,,,,,,,,,,,,,,,,,,,,,,,,,,,,,,,,,,,,,,,,,None,,737.579994730046,None,737.579994730046,None,2022-07-25-14:19:36.980255,737.5810988000594,737.8966463003308,737.5810988000594,None,None,737.5810988000594,None,738.386080330098,None,,,,21007,0002,2022_Jul_25_1407,localizer,2021.1.3,58.578670575221715,
block,objects,objects066.bmp,,,,,0,181,181,181,,,,,,,,,,,,,,,,,,,,,,,,,,,,,,,,,,,,,,,,,,None,,738.386080330098,None,738.386080330098,None,2022-07-25-14:19:37.789680,738.3906547003426,738.6968801999465,738.3906547003426,None,None,738.3906547003426,None,739.1968462302815,None,,,,21007,0002,2022_Jul_25_1407,localizer,2021.1.3,58.578670575221715,
block_end,objects,objects017.bmp,,,,,0,182,182,182,,,,,,,,,,,,,,,,,,,,,,,,,,,,,,,,,,,,,,,,,,None,,739.1968462302815,None,739.1968462302815,None,2022-07-25-14:19:38.596730,739.2044056002051,739.5142538002692,739.2044056002051,None,None,739.2044056002051,None,740.0138794303406,None,,,,21007,0002,2022_Jul_25_1407,localizer,2021.1.3,58.578670575221715,
null_block,null_block,null_block.bmp,,,,,0,183,183,183,,,,,,,,,,,,,,,,,,,,,,,,,,,,,,,,,,,,,,,,,,t,1.7945185001008213,740.0141976000741,None,740.0141976000741,None,2022-07-25-14:19:41.229810,741.8298313299659,None,741.8298313299659,None,None,741.8298313299659,None,741.8329380000941,None,,,,21007,0002,2022_Jul_25_1407,localizer,2021.1.3,58.578670575221715,
block_start,objects,objects029.bmp,,,,,0,184,184,184,,,,,,,,,,,,,,,,,,,,,,,,,,,,,,,,,,,,,,,,,,t,1.9621072998270392,753.8466151002795,None,753.8466151002795,None,2022-07-25-14:19:55.230749,755.8312973002903,756.1305853002705,755.8312973002903,None,None,755.8312973002903,None,756.6363468299154,None,,,,21007,0002,2022_Jul_25_1407,localizer,2021.1.3,58.578670575221715,
block,objects,objects072.bmp,,,,,0,185,185,185,,,,,,,,,,,,,,,,,,,,,,,,,,,,,,,,,,,,,,,,,,None,,756.6363468299154,None,756.6363468299154,None,2022-07-25-14:19:56.043859,756.6459972001612,756.9468024000525,756.6459972001612,None,None,756.6459972001612,None,757.4469829302747,None,,,,21007,0002,2022_Jul_25_1407,localizer,2021.1.3,58.578670575221715,
block,objects,objects059.bmp,,,,,0,186,186,186,,,,,,,,,,,,,,,,,,,,,,,,,,,,,,,,,,,,,,,,,,None,,757.4469829302747,None,757.4469829302747,None,2022-07-25-14:19:56.846771,757.4477467001416,757.7701344001107,757.4477467001416,None,None,757.4477467001416,None,758.2632609301712,None,,,,21007,0002,2022_Jul_25_1407,localizer,2021.1.3,58.578670575221715,
block,objects,objects047.bmp,,,,,0,187,187,187,,,,,,,,,,,,,,,,,,,,,,,,,,,,,,,,,,,,,,,,,,None,,758.2632609301712,None,758.2632609301712,None,2022-07-25-14:19:57.663180,758.2737319003791,758.580999400001,758.2737319003791,None,None,758.2737319003791,None,759.084390530223,None,,,,21007,0002,2022_Jul_25_1407,localizer,2021.1.3,58.578670575221715,
block,objects,objects061.bmp,,,,,0,188,188,188,,,,,,,,,,,,,,,,,,,,,,,,,,,,,,,,,,,,,,,,,,None,,759.084390530223,None,759.084390530223,None,2022-07-25-14:19:58.489039,759.0911958999932,759.3998762001283,759.0911958999932,None,None,759.0911958999932,None,759.896603430016,None,,,,21007,0002,2022_Jul_25_1407,localizer,2021.1.3,58.578670575221715,
block,objects,objects038.bmp,,,,,0,189,189,189,,,,,,,,,,,,,,,,,,,,,,,,,,,,,,,,,,,,,,,,,,None,,759.896603430016,None,759.896603430016,None,2022-07-25-14:19:59.296540,759.9069055002183,760.2136024003848,759.9069055002183,None,None,759.9069055002183,None,760.7132542299572,None,,,,21007,0002,2022_Jul_25_1407,localizer,2021.1.3,58.578670575221715,
block,objects,objects079.bmp,,,,,0,190,190,190,,,,,,,,,,,,,,,,,,,,,,,,,,,,,,,,,,,,,,,,,,None,,760.7132542299572,None,760.7132542299572,None,2022-07-25-14:20:00.112958,760.7159514999948,761.030072900001,760.7159514999948,None,None,760.7159514999948,None,761.5303244300652,None,,,,21007,0002,2022_Jul_25_1407,localizer,2021.1.3,58.578670575221715,
block,objects,objects010.bmp,,,,,0,191,191,191,,,,,,,,,,,,,,,,,,,,,,,,,,,,,,,,,,,,,,,,,,None,,761.5303244300652,None,761.5303244300652,None,2022-07-25-14:20:00.930205,761.5312712001614,761.8498492999934,761.5312712001614,None,None,761.5312712001614,None,762.3306456299964,None,,,,21007,0002,2022_Jul_25_1407,localizer,2021.1.3,58.578670575221715,
block,objects,objects049.bmp,,,,,0,192,192,192,,,,,,,,,,,,,,,,,,,,,,,,,,,,,,,,,,,,,,,,,,None,,762.3306456299964,None,762.3306456299964,None,2022-07-25-14:20:01.733513,762.3341522002593,762.6474518999457,762.3341522002593,762.3341522002593,None,762.3341522002593,762.3341522002593,763.1469204303343,None,,,,21007,0002,2022_Jul_25_1407,localizer,2021.1.3,58.578670575221715,
block,objects,objects088.bmp,,,,,0,193,193,193,,,,,,,,,,,,,,,,,,,,,,,,,,,,,,,,,,,,,,,,,,None,,763.1469204303343,None,763.1469204303343,None,2022-07-25-14:20:02.546745,763.1578594003804,763.4637596001849,763.1578594003804,None,None,763.1578594003804,None,763.9633663299959,None,,,,21007,0002,2022_Jul_25_1407,localizer,2021.1.3,58.578670575221715,
block,objects,objects003.bmp,,,,,0,194,194,194,,,,,,,,,,,,,,,,,,,,,,,,,,,,,,,,,,,,,,,,,,None,,763.9633663299959,None,763.9633663299959,None,2022-07-25-14:20:03.363073,763.9643064001575,764.2806025003083,763.9643064001575,None,None,763.9643064001575,None,764.7700101303402,None,,,,21007,0002,2022_Jul_25_1407,localizer,2021.1.3,58.578670575221715,
block,objects,objects021.bmp,,,,,0,195,195,195,,,,,,,,,,,,,,,,,,,,,,,,,,,,,,,,,,,,,,,,,,None,,764.7700101303402,None,764.7700101303402,None,2022-07-25-14:20:04.173624,764.7746653002687,765.0803499002941,764.7746653002687,None,None,764.7746653002687,None,765.5813350303564,None,,,,21007,0002,2022_Jul_25_1407,localizer,2021.1.3,58.578670575221715,
block,objects,objects057.bmp,,,,,0,196,196,196,,,,,,,,,,,,,,,,,,,,,,,,,,,,,,,,,,,,,,,,,,None,,765.5813350303564,None,765.5813350303564,None,2022-07-25-14:20:04.983167,765.5837469999678,765.8970246003009,765.5837469999678,None,None,765.5837469999678,None,766.3970530301798,None,,,,21007,0002,2022_Jul_25_1407,localizer,2021.1.3,58.578670575221715,
block,objects,objects056.bmp,,,,,0,197,197,197,,,,,,,,,,,,,,,,,,,,,,,,,,,,,,,,,,,,,,,,,,None,,766.3970530301798,None,766.3970530301798,None,2022-07-25-14:20:05.797977,766.409114500042,766.7133293002844,766.409114500042,None,None,766.409114500042,None,767.2032159300055,None,,,,21007,0002,2022_Jul_25_1407,localizer,2021.1.3,58.578670575221715,
block_end,objects,objects055.bmp,,,,,0,198,198,198,,,,,,,,,,,,,,,,,,,,,,,,,,,,,,,,,,,,,,,,,,None,,767.2032159300055,None,767.2032159300055,None,2022-07-25-14:20:06.606852,767.2077387003228,767.5136993001215,767.2077387003228,None,None,767.2077387003228,None,768.013337130053,None,,,,21007,0002,2022_Jul_25_1407,localizer,2021.1.3,58.578670575221715,
block_start,scrambled,scrambled040.bmp,,,,,0,199,199,199,,,,,,,,,,,,,,,,,,,,,,,,,,,,,,,,,,,,,,,,,,t,1.7954414002597332,768.0134571003728,None,768.0134571003728,None,2022-07-25-14:20:09.229115,769.8406862001866,770.1471384000033,769.8406862001866,None,None,769.8406862001866,None,770.6476220300887,None,,,,21007,0002,2022_Jul_25_1407,localizer,2021.1.3,58.578670575221715,
block,scrambled,scrambled076.bmp,,,,,0,200,200,200,,,,,,,,,,,,,,,,,,,,,,,,,,,,,,,,,,,,,,,,,,None,,770.6476220300887,None,770.6476220300887,None,2022-07-25-14:20:10.049162,770.650653200224,770.9636420002207,770.650653200224,None,None,770.650653200224,None,771.4644180302042,None,,,,21007,0002,2022_Jul_25_1407,localizer,2021.1.3,58.578670575221715,
block,scrambled,scrambled033.bmp,,,,,0,201,201,201,,,,,,,,,,,,,,,,,,,,,,,,,,,,,,,,,,,,,,,,,,None,,771.4644180302042,None,771.4644180302042,None,2022-07-25-14:20:10.865403,771.4672233001329,771.7808727002703,771.4672233001329,None,None,771.4672233001329,None,772.2803958299104,None,,,,21007,0002,2022_Jul_25_1407,localizer,2021.1.3,58.578670575221715,
block,scrambled,scrambled041.bmp,,,,,0,202,202,202,,,,,,,,,,,,,,,,,,,,,,,,,,,,,,,,,,,,,,,,,,None,,772.2803958299104,None,772.2803958299104,None,2022-07-25-14:20:11.680613,772.2812287001871,772.5805242001079,772.2812287001871,None,None,772.2812287001871,None,773.080994030321,None,,,,21007,0002,2022_Jul_25_1407,localizer,2021.1.3,58.578670575221715,
block,scrambled,scrambled052.bmp,,,,,0,203,203,203,,,,,,,,,,,,,,,,,,,,,,,,,,,,,,,,,,,,,,,,,,None,,773.080994030321,None,773.080994030321,None,2022-07-25-14:20:12.483854,773.0854636002332,773.3974880999885,773.0854636002332,773.0854636002332,None,773.0854636002332,773.0854636002332,773.8966359299142,None,,,,21007,0002,2022_Jul_25_1407,localizer,2021.1.3,58.578670575221715,
block,scrambled,scrambled086.bmp,,,,,0,204,204,204,,,,,,,,,,,,,,,,,,,,,,,,,,,,,,,,,,,,,,,,,,None,,773.8966359299142,None,773.8966359299142,None,2022-07-25-14:20:13.296510,773.9051589001901,774.2142993002199,773.9051589001901,None,None,773.9051589001901,None,774.7136082303244,None,,,,21007,0002,2022_Jul_25_1407,localizer,2021.1.3,58.578670575221715,
block,scrambled,scrambled009.bmp,,,,,0,205,205,205,,,,,,,,,,,,,,,,,,,,,,,,,,,,,,,,,,,,,,,,,,None,,774.7136082303244,None,774.7136082303244,None,2022-07-25-14:20:14.113491,774.724714900367,775.0301891001873,774.724714900367,None,None,774.724714900367,None,775.5303541299421,None,,,,21007,0002,2022_Jul_25_1407,localizer,2021.1.3,58.578670575221715,
block,scrambled,scrambled014.bmp,,,,,0,206,206,206,,,,,,,,,,,,,,,,,,,,,,,,,,,,,,,,,,,,,,,,,,None,,775.5303541299421,None,775.5303541299421,None,2022-07-25-14:20:14.930266,775.5313385003246,775.8530344003811,775.5313385003246,None,None,775.5313385003246,None,776.3468010303098,None,,,,21007,0002,2022_Jul_25_1407,localizer,2021.1.3,58.578670575221715,
block,scrambled,scrambled022.bmp,,,,,0,207,207,207,,,,,,,,,,,,,,,,,,,,,,,,,,,,,,,,,,,,,,,,,,None,,776.3468010303098,None,776.3468010303098,None,2022-07-25-14:20:15.747265,776.3570567001589,776.6637544003315,776.3570567001589,None,None,776.3570567001589,None,777.163856330188,None,,,,21007,0002,2022_Jul_25_1407,localizer,2021.1.3,58.578670575221715,
block,scrambled,scrambled058.bmp,,,,,0,208,208,208,,,,,,,,,,,,,,,,,,,,,,,,,,,,,,,,,,,,,,,,,,None,,777.163856330188,None,777.163856330188,None,2022-07-25-14:20:16.564779,777.1648413999937,777.4643741003238,777.1648413999937,None,None,777.1648413999937,None,777.9803484299686,None,,,,21007,0002,2022_Jul_25_1407,localizer,2021.1.3,58.578670575221715,
block,scrambled,scrambled010.bmp,,,,,0,209,209,209,,,,,,,,,,,,,,,,,,,,,,,,,,,,,,,,,,,,,,,,,,None,,777.9803484299686,None,777.9803484299686,None,2022-07-25-14:20:17.381362,777.9814794999547,778.2968597002327,777.9814794999547,None,None,777.9814794999547,None,778.7820626300294,None,,,,21007,0002,2022_Jul_25_1407,localizer,2021.1.3,58.578670575221715,
block,scrambled,scrambled026.bmp,,,,,0,210,210,210,,,,,,,,,,,,,,,,,,,,,,,,,,,,,,,,,,,,,,,,,,None,,778.7820626300294,None,778.7820626300294,None,2022-07-25-14:20:18.186992,778.7859706999734,779.0978534002788,778.7859706999734,778.7859706999734,None,778.7859706999734,778.7859706999734,779.5975568302441,None,,,,21007,0002,2022_Jul_25_1407,localizer,2021.1.3,58.578670575221715,
block,scrambled,scrambled060.bmp,,,,,0,211,211,211,,,,,,,,,,,,,,,,,,,,,,,,,,,,,,,,,,,,,,,,,,None,,779.5975568302441,None,779.5975568302441,None,2022-07-25-14:20:18.999418,779.6104041002691,779.9136910000816,779.6104041002691,None,None,779.6104041002691,None,780.4130566300358,None,,,,21007,0002,2022_Jul_25_1407,localizer,2021.1.3,58.578670575221715,
block,scrambled,scrambled056.bmp,,,,,0,212,212,212,,,,,,,,,,,,,,,,,,,,,,,,,,,,,,,,,,,,,,,,,,None,,780.4130566300358,None,780.4130566300358,None,2022-07-25-14:20:19.813052,780.4224316002801,780.7369335000403,780.4224316002801,None,None,780.4224316002801,None,781.2305128302891,None,,,,21007,0002,2022_Jul_25_1407,localizer,2021.1.3,58.578670575221715,
block_end,scrambled,scrambled034.bmp,,,,,0,213,213,213,,,,,,,,,,,,,,,,,,,,,,,,,,,,,,,,,,,,,,,,,,None,,781.2305128302891,None,781.2305128302891,None,2022-07-25-14:20:20.630687,781.2314319000579,781.54667850025,781.2314319000579,None,None,781.2314319000579,None,782.0469773303251,None,,,,21007,0002,2022_Jul_25_1407,localizer,2021.1.3,58.578670575221715,
block_start,scenes,scenes035.bmp,,,,,0,214,214,214,,,,,,,,,,,,,,,,,,,,,,,,,,,,,,,,,,,,,,,,,,t,1.7615554998628795,782.0472925002687,None,782.0472925002687,None,2022-07-25-14:20:23.231734,783.8314237003215,784.1469899001531,783.8314237003215,None,None,783.8314237003215,None,784.6304362303111,None,,,,21007,0002,2022_Jul_25_1407,localizer,2021.1.3,58.578670575221715,
block,scenes,scenes053.bmp,,,,,0,215,215,215,,,,,,,,,,,,,,,,,,,,,,,,,,,,,,,,,,,,,,,,,,None,,784.6304362303111,None,784.6304362303111,None,2022-07-25-14:20:24.032720,784.6338734002784,784.9473250000738,784.6338734002784,784.6338734002784,None,784.6338734002784,784.6338734002784,785.436292330129,None,,,,21007,0002,2022_Jul_25_1407,localizer,2021.1.3,58.578670575221715,
block,scenes,scenes088.bmp,,,,,0,216,216,216,,,,,,,,,,,,,,,,,,,,,,,,,,,,,,,,,,,,,,,,,,None,,785.436292330129,None,785.436292330129,None,2022-07-25-14:20:24.846215,785.4491294999607,785.763999900315,785.4491294999607,785.4491294999607,None,785.4491294999607,785.4491294999607,786.2469219303224,None,,,,21007,0002,2022_Jul_25_1407,localizer,2021.1.3,58.578670575221715,
block,scenes,scenes014.bmp,,,,,0,217,217,217,,,,,,,,,,,,,,,,,,,,,,,,,,,,,,,,,,,,,,,,,,None,,786.2469219303224,None,786.2469219303224,None,2022-07-25-14:20:25.646842,786.247869099956,786.5532768000849,786.247869099956,None,None,786.247869099956,None,787.0635228300001,None,,,,21007,0002,2022_Jul_25_1407,localizer,2021.1.3,58.578670575221715,
block,scenes,scenes059.bmp,,,,,0,218,218,218,,,,,,,,,,,,,,,,,,,,,,,,,,,,,,,,,,,,,,,,,,None,,787.0635228300001,None,787.0635228300001,None,2022-07-25-14:20:26.463637,787.0646232999861,787.3639124999754,787.0646232999861,None,None,787.0646232999861,None,787.869740830129,None,,,,21007,0002,2022_Jul_25_1407,localizer,2021.1.3,58.578670575221715,
block,scenes,scenes011.bmp,,,,,0,219,219,219,,,,,,,,,,,,,,,,,,,,,,,,,,,,,,,,,,,,,,,,,,None,,787.869740830129,None,787.869740830129,None,2022-07-25-14:20:27.277744,787.8768521002494,788.1810816000216,787.8768521002494,None,None,787.8768521002494,None,788.6798948299605,None,,,,21007,0002,2022_Jul_25_1407,localizer,2021.1.3,58.578670575221715,
block,scenes,scenes070.bmp,,,,,0,220,220,220,,,,,,,,,,,,,,,,,,,,,,,,,,,,,,,,,,,,,,,,,,None,,788.6798948299605,None,788.6798948299605,None,2022-07-25-14:20:28.080334,788.6814133999869,788.9971467000432,788.6814133999869,None,None,788.6814133999869,None,789.4809464303311,None,,,,21007,0002,2022_Jul_25_1407,localizer,2021.1.3,58.578670575221715,
block,scenes,scenes008.bmp,,,,,0,221,221,221,,,,,,,,,,,,,,,,,,,,,,,,,,,,,,,,,,,,,,,,,,None,,789.4809464303311,None,789.4809464303311,None,2022-07-25-14:20:28.884263,789.4844101001509,789.8006806001067,789.4844101001509,789.4844101001509,None,789.4844101001509,789.4844101001509,790.2967899300623,None,,,,21007,0002,2022_Jul_25_1407,localizer,2021.1.3,58.578670575221715,
block,scenes,scenes032.bmp,,,,,0,222,222,222,,,,,,,,,,,,,,,,,,,,,,,,,,,,,,,,,,,,,,,,,,None,,790.2967899300623,None,790.2967899300623,None,2022-07-25-14:20:29.696964,790.3067254000343,790.6137407002971,790.3067254000343,None,None,790.3067254000343,None,791.1132845299784,None,,,,21007,0002,2022_Jul_25_1407,localizer,2021.1.3,58.578670575221715,
block,scenes,scenes078.bmp,,,,,0,223,223,223,,,,,,,,,,,,,,,,,,,,,,,,,,,,,,,,,,,,,,,,,,None,,791.1132845299784,None,791.1132845299784,None,2022-07-25-14:20:30.513477,791.1147313001566,791.414330100175,791.1147313001566,None,None,791.1147313001566,None,791.9302970299963,None,,,,21007,0002,2022_Jul_25_1407,localizer,2021.1.3,58.578670575221715,
block,scenes,scenes077.bmp,,,,,0,224,224,224,,,,,,,,,,,,,,,,,,,,,,,,,,,,,,,,,,,,,,,,,,None,,791.9302970299963,None,791.9302970299963,None,2022-07-25-14:20:31.330605,791.9406735002995,792.2475839001127,791.9406735002995,None,None,791.9406735002995,None,792.746618730342,None,,,,21007,0002,2022_Jul_25_1407,localizer,2021.1.3,58.578670575221715,
block,scenes,scenes023.bmp,,,,,0,225,225,225,,,,,,,,,,,,,,,,,,,,,,,,,,,,,,,,,,,,,,,,,,None,,792.746618730342,None,792.746618730342,None,2022-07-25-14:20:32.147094,792.7483765003271,793.0640433002263,792.7483765003271,None,None,792.7483765003271,None,793.5638124303426,None,,,,21007,0002,2022_Jul_25_1407,localizer,2021.1.3,58.578670575221715,
block,scenes,scenes058.bmp,,,,,0,226,226,226,,,,,,,,,,,,,,,,,,,,,,,,,,,,,,,,,,,,,,,,,,None,,793.5638124303426,None,793.5638124303426,None,2022-07-25-14:20:32.964093,793.5748634999618,793.8796376003884,793.5748634999618,None,None,793.5748634999618,None,794.3800060300622,None,,,,21007,0002,2022_Jul_25_1407,localizer,2021.1.3,58.578670575221715,
block,scenes,scenes071.bmp,,,,,0,227,227,227,,,,,,,,,,,,,,,,,,,,,,,,,,,,,,,,,,,,,,,,,,None,,794.3800060300622,None,794.3800060300622,None,2022-07-25-14:20:33.780257,794.3813481000252,794.6969278003089,794.3813481000252,None,None,794.3813481000252,None,795.180966430204,None,,,,21007,0002,2022_Jul_25_1407,localizer,2021.1.3,58.578670575221715,
block_end,scenes,scenes089.bmp,,,,,0,228,228,228,,,,,,,,,,,,,,,,,,,,,,,,,,,,,,,,,,,,,,,,,,None,,795.180966430204,None,795.180966430204,None,2022-07-25-14:20:34.585166,795.1959949000739,795.4974719001912,795.1959949000739,795.1959949000739,None,795.1959949000739,795.1959949000739,795.996996930195,None,,,,21007,0002,2022_Jul_25_1407,localizer,2021.1.3,58.578670575221715,
block_start,faces,faces014.bmp,,,,,0,229,229,229,,,,,,,,,,,,,,,,,,,,,,,,,,,,,,,,,,,,,,,,,,t,1.8116518002934754,795.9971605003811,None,795.9971605003811,None,2022-07-25-14:20:37.229899,797.831336800009,798.1471011000685,797.831336800009,None,None,797.831336800009,None,798.6304502299521,None,,,,21007,0002,2022_Jul_25_1407,localizer,2021.1.3,58.578670575221715,
block,faces,faces024.bmp,,,,,0,230,230,230,,,,,,,,,,,,,,,,,,,,,,,,,,,,,,,,,,,,,,,,,,None,,798.6304502299521,None,798.6304502299521,None,2022-07-25-14:20:38.033765,798.6333956001326,798.9371238001622,798.6333956001326,798.6333956001326,None,798.6333956001326,798.6333956001326,799.4480926299933,None,,,,21007,0002,2022_Jul_25_1407,localizer,2021.1.3,58.578670575221715,
block,faces,faces024.bmp,,,,,0,231,231,231,,,,,,,,,,,,,,,,,,,,,,,,,,,,,,,,,,,,,,,,,,None,,799.4480926299933,None,799.4480926299933,None,2022-07-25-14:20:38.850560,799.4505386003293,799.7643037000671,799.4505386003293,None,y,799.4505386003293,None,800.2641762302723,None,0.7661599996499717,,,21007,0002,2022_Jul_25_1407,localizer,2021.1.3,58.578670575221715,
block,faces,faces040.bmp,,,,,0,232,232,232,,,,,,,,,,,,,,,,,,,,,,,,,,,,,,,,,,,,,,,,,,None,,800.2641762302723,None,800.2641762302723,None,2022-07-25-14:20:39.665715,800.2667662003078,800.5805234001018,800.2667662003078,None,None,800.2667662003078,None,801.0802937302273,None,,,,21007,0002,2022_Jul_25_1407,localizer,2021.1.3,58.578670575221715,
block,faces,faces058.bmp,,,,,0,233,233,233,,,,,,,,,,,,,,,,,,,,,,,,,,,,,,,,,,,,,,,,,,None,,801.0802937302273,None,801.0802937302273,None,2022-07-25-14:20:40.480669,801.0925156003796,801.3975860001519,801.0925156003796,None,None,801.0925156003796,None,801.8965625300538,None,,,,21007,0002,2022_Jul_25_1407,localizer,2021.1.3,58.578670575221715,
block,faces,faces080.bmp,,,,,0,234,234,234,,,,,,,,,,,,,,,,,,,,,,,,,,,,,,,,,,,,,,,,,,None,,801.8965625300538,None,801.8965625300538,None,2022-07-25-14:20:41.296257,801.8990663001314,802.2137072002515,801.8990663001314,None,None,801.8990663001314,None,802.7138691300992,None,,,,21007,0002,2022_Jul_25_1407,localizer,2021.1.3,58.578670575221715,
block,faces,faces054.bmp,,,,,0,235,235,235,,,,,,,,,,,,,,,,,,,,,,,,,,,,,,,,,,,,,,,,,,None,,802.7138691300992,None,802.7138691300992,None,2022-07-25-14:20:42.115266,802.715525700245,803.0303249000572,802.715525700245,None,None,802.715525700245,None,803.5303105300758,None,,,,21007,0002,2022_Jul_25_1407,localizer,2021.1.3,58.578670575221715,
block,faces,faces089.bmp,,,,,0,236,236,236,,,,,,,,,,,,,,,,,,,,,,,,,,,,,,,,,,,,,,,,,,None,,803.5303105300758,None,803.5303105300758,None,2022-07-25-14:20:42.930725,803.5313959000632,803.8468985003419,803.5313959000632,None,None,803.5313959000632,None,804.330724930251,None,,,,21007,0002,2022_Jul_25_1407,localizer,2021.1.3,58.578670575221715,
block,faces,faces042.bmp,,,,,0,237,237,237,,,,,,,,,,,,,,,,,,,,,,,,,,,,,,,,,,,,,,,,,,None,,804.330724930251,None,804.330724930251,None,2022-07-25-14:20:43.734336,804.3334474000148,804.6474489001557,804.3334474000148,804.3334474000148,None,804.3334474000148,804.3334474000148,805.1469582299236,None,,,,21007,0002,2022_Jul_25_1407,localizer,2021.1.3,58.578670575221715,
block,faces,faces041.bmp,,,,,0,238,238,238,,,,,,,,,,,,,,,,,,,,,,,,,,,,,,,,,,,,,,,,,,None,,805.1469582299236,None,805.1469582299236,None,2022-07-25-14:20:44.547537,805.1481560999528,805.4472140003927,805.1481560999528,None,None,805.1481560999528,None,805.9480576299596,None,,,,21007,0002,2022_Jul_25_1407,localizer,2021.1.3,58.578670575221715,
block,faces,faces021.bmp,,,,,0,239,239,239,,,,,,,,,,,,,,,,,,,,,,,,,,,,,,,,,,,,,,,,,,None,,805.9480576299596,None,805.9480576299596,None,2022-07-25-14:20:45.356660,805.9544469001703,806.263741100207,805.9544469001703,805.9544469001703,None,805.9544469001703,805.9544469001703,806.7634342302102,None,,,,21007,0002,2022_Jul_25_1407,localizer,2021.1.3,58.578670575221715,
block,faces,faces065.bmp,,,,,0,240,240,240,,,,,,,,,,,,,,,,,,,,,,,,,,,,,,,,,,,,,,,,,,None,,806.7634342302102,None,806.7634342302102,None,2022-07-25-14:20:46.163916,806.7648497000337,807.0802564001642,806.7648497000337,None,None,806.7648497000337,None,807.5803988299798,None,,,,21007,0002,2022_Jul_25_1407,localizer,2021.1.3,58.578670575221715,
block,faces,faces052.bmp,,,,,0,241,241,241,,,,,,,,,,,,,,,,,,,,,,,,,,,,,,,,,,,,,,,,,,None,,807.5803988299798,None,807.5803988299798,None,2022-07-25-14:20:46.981025,807.5813620002009,807.8835734999739,807.5813620002009,None,None,807.5813620002009,None,808.3969532301184,None,,,,21007,0002,2022_Jul_25_1407,localizer,2021.1.3,58.578670575221715,
block,faces,faces043.bmp,,,,,0,242,242,242,,,,,,,,,,,,,,,,,,,,,,,,,,,,,,,,,,,,,,,,,,None,,808.3969532301184,None,808.3969532301184,None,2022-07-25-14:20:47.797504,808.4074933002703,808.7138706003316,808.4074933002703,None,None,808.4074933002703,None,809.2135968300048,None,,,,21007,0002,2022_Jul_25_1407,localizer,2021.1.3,58.578670575221715,
block_end,faces,faces069.bmp,,,,,0,243,243,243,,,,,,,,,,,,,,,,,,,,,,,,,,,,,,,,,,,,,,,,,,None,,809.2135968300048,None,809.2135968300048,None,2022-07-25-14:20:48.614130,809.2148563000374,809.5305436002091,809.2148563000374,None,None,809.2148563000374,None,810.0139668303076,None,,,,21007,0002,2022_Jul_25_1407,localizer,2021.1.3,58.578670575221715,
,,,,,,,,,,,,,,,,,,,,,,,,,,,,,,,,,,,,,,,,,,,,,,,,,,,,,,,,,,,,,,,,,,,,,810.0151836001314,None,,,,,,,
