block_type,condition,img_name,Button.thisRepN,Button.thisTrialN,Button.thisN,Button.thisIndex,trials.thisRepN,trials.thisTrialN,trials.thisN,trials.thisIndex,Ready_experimenter_text.started,Ready_experimenter_text.stopped,Ready_experimenter_resp.keys,Ready_experimenter_resp.rt,Ready_experimenter_resp.started,Ready_experimenter_resp.stopped,Alignment_background.started,Alignment_background.stopped,Alignment_image.started,Alignment_image.stopped,Alignment_resp.keys,Alignment_resp.rt,Alignment_resp.started,Alignment_resp.stopped,Button_text.started,Button_text.stopped,Index_text.started,Index_text.stopped,Index_resp.keys,Index_resp.rt,Index_resp.started,Index_resp.stopped,Middle_text.started,Middle_text.stopped,Middle_resp.keys,Middle_resp.rt,Middle_resp.started,Middle_resp.stopped,Repeat_text.started,Repeat_text.stopped,Repeat_resp.keys,Repeat_resp.corr,Repeat_resp.rt,Repeat_resp.started,Repeat_resp.stopped,instruction_text.started,instruction_text.stopped,key_resp.keys,key_resp.rt,key_resp.started,key_resp.stopped,scanner_t.keys,scanner_t.rt,scanner_t.started,scanner_t.stopped,fixation_wait_for_t.started,fixation_wait_for_t.stopped,real_timestamp_trial_start,image.started,image.stopped,fixation.started,fixation.stopped,repeat_response.keys,repeat_response.started,repeat_response.stopped,fixation_null.started,fixation_null.stopped,repeat_response.rt,end_text.started,end_text.stopped,participant,run,date,expName,psychopyVersion,frameRate,
,,,,,,,,,,,12.573718199972063,None,return,444.0305906999856,12.573718199972063,None,,,,,,,,,,,,,,,,,,,,,,,,,,,,,,,,,,,,,,,,,,,,,,,,,,,,,,,22012,0002,2022_Sep_06_1357,localizer,2021.1.3,59.30765415803344,
,,,,,,,,,,,,,,,,,456.6521092997864,None,456.6521092997864,None,return,0.7108990997076035,456.6521092997864,None,,,,,,,,,,,,,,,,,,,,,,,,,,,,,,,,,,,,,,,,,,,,,,,22012,0002,2022_Sep_06_1357,localizer,2021.1.3,59.30765415803344,
,,,0,0,0,0,,,,,,,,,,,,,,,,,,,457.3796881996095,None,458.379007099662,None,y,1.4881172999739647,458.379007099662,None,459.89631239976734,None,b,2.075769599992782,459.89631239976734,None,461.9965013000183,None,n,0,1.1985442000441253,461.9965013000183,None,,,,,,,,,,,,,,,,,,,,,,,,,,22012,0002,2022_Sep_06_1357,localizer,2021.1.3,59.30765415803344,
,,,,,,,,,,,,,,,,,,,,,,,,,,,,,,,,,,,,,,,,,,,,,,463.2125991997309,None,y,25.355469499714673,463.2125991997309,None,,,,,,,,,,,,,,,,,,,,22012,0002,2022_Sep_06_1357,localizer,2021.1.3,59.30765415803344,
block_start,faces,faces018.bmp,,,,,0,0,0,0,,,,,,,,,,,,,,,,,,,,,,,,,,,,,,,,,,,,,,,,,,t,19.52448910009116,488.62445859983563,None,488.62445859983563,None,2022-09-06-14:05:51.237334,508.19030389981344,508.49634729977697,508.19030389981344,None,None,508.19030389981344,None,508.9960364498198,None,,,,22012,0002,2022_Sep_06_1357,localizer,2021.1.3,59.30765415803344,
block,faces,faces083.bmp,,,,,0,1,1,1,,,,,,,,,,,,,,,,,,,,,,,,,,,,,,,,,,,,,,,,,,None,,508.9960364498198,None,508.9960364498198,None,2022-09-06-14:05:52.053625,508.99754059966654,509.29647659976035,508.99754059966654,None,None,508.99754059966654,None,509.80365024963396,None,,,,22012,0002,2022_Sep_06_1357,localizer,2021.1.3,59.30765415803344,
block,faces,faces081.bmp,,,,,0,2,2,2,,,,,,,,,,,,,,,,,,,,,,,,,,,,,,,,,,,,,,,,,,None,,509.80365024963396,None,509.80365024963396,None,2022-09-06-14:05:52.866583,509.82564159994945,510.12985459994525,509.82564159994945,None,None,509.82564159994945,None,510.6126783498563,None,,,,22012,0002,2022_Sep_06_1357,localizer,2021.1.3,59.30765415803344,
block,faces,faces067.bmp,,,,,0,3,3,3,,,,,,,,,,,,,,,,,,,,,,,,,,,,,,,,,,,,,,,,,,None,,510.6126783498563,None,510.6126783498563,None,2022-09-06-14:05:53.669257,510.6143598998897,510.9288744996302,510.6143598998897,None,None,510.6143598998897,None,511.4154345499352,None,,,,22012,0002,2022_Sep_06_1357,localizer,2021.1.3,59.30765415803344,
block,faces,faces035.bmp,,,,,0,4,4,4,,,,,,,,,,,,,,,,,,,,,,,,,,,,,,,,,,,,,,,,,,None,,511.4154345499352,None,511.4154345499352,None,2022-09-06-14:05:54.475173,511.4257098999806,511.7287325998768,511.4257098999806,511.4257098999806,None,511.4257098999806,511.4257098999806,512.2298158499412,None,,,,22012,0002,2022_Sep_06_1357,localizer,2021.1.3,59.30765415803344,
block,faces,faces026.bmp,,,,,0,5,5,5,,,,,,,,,,,,,,,,,,,,,,,,,,,,,,,,,,,,,,,,,,None,,512.2298158499412,None,512.2298158499412,None,2022-09-06-14:05:55.288049,512.2312158998102,512.545477299951,512.2312158998102,None,None,512.2312158998102,None,513.0520063498058,None,,,,22012,0002,2022_Sep_06_1357,localizer,2021.1.3,59.30765415803344,
block,faces,faces029.bmp,,,,,0,6,6,6,,,,,,,,,,,,,,,,,,,,,,,,,,,,,,,,,,,,,,,,,,None,,513.0520063498058,None,513.0520063498058,None,2022-09-06-14:05:56.118468,513.0775979999453,513.3792415000498,513.0775979999453,None,None,513.0775979999453,None,513.8623431496322,None,,,,22012,0002,2022_Sep_06_1357,localizer,2021.1.3,59.30765415803344,
block,faces,faces079.bmp,,,,,0,7,7,7,,,,,,,,,,,,,,,,,,,,,,,,,,,,,,,,,,,,,,,,,,None,,513.8623431496322,None,513.8623431496322,None,2022-09-06-14:05:56.919549,513.8672213000245,514.1794304000214,513.8672213000245,None,None,513.8672213000245,None,514.6798044498079,None,,,,22012,0002,2022_Sep_06_1357,localizer,2021.1.3,59.30765415803344,
block,faces,faces042.bmp,,,,,0,8,8,8,,,,,,,,,,,,,,,,,,,,,,,,,,,,,,,,,,,,,,,,,,None,,514.6798044498079,None,514.6798044498079,None,2022-09-06-14:05:57.737638,514.6807315000333,514.9962696000002,514.6807315000333,None,None,514.6807315000333,None,515.496489250008,None,,,,22012,0002,2022_Sep_06_1357,localizer,2021.1.3,59.30765415803344,
block,faces,faces044.bmp,,,,,0,9,9,9,,,,,,,,,,,,,,,,,,,,,,,,,,,,,,,,,,,,,,,,,,None,,515.496489250008,None,515.496489250008,None,2022-09-06-14:05:58.554276,515.4971889997832,515.7969929999672,515.4971889997832,None,None,515.4971889997832,None,516.2978222499602,None,,,,22012,0002,2022_Sep_06_1357,localizer,2021.1.3,59.30765415803344,
block,faces,faces069.bmp,,,,,0,10,10,10,,,,,,,,,,,,,,,,,,,,,,,,,,,,,,,,,,,,,,,,,,None,,516.2978222499602,None,516.2978222499602,None,2022-09-06-14:05:59.359204,516.3094841996208,516.6135680996813,516.3094841996208,516.3094841996208,None,516.3094841996208,516.3094841996208,517.1134405498393,None,,,,22012,0002,2022_Sep_06_1357,localizer,2021.1.3,59.30765415803344,
block,faces,faces045.bmp,,,,,0,11,11,11,,,,,,,,,,,,,,,,,,,,,,,,,,,,,,,,,,,,,,,,,,None,,517.1134405498393,None,517.1134405498393,None,2022-09-06-14:06:00.171613,517.1147463996895,517.4298085998744,517.1147463996895,None,None,517.1147463996895,None,517.9141537499614,None,,,,22012,0002,2022_Sep_06_1357,localizer,2021.1.3,59.30765415803344,
block,faces,faces016.bmp,,,,,0,12,12,12,,,,,,,,,,,,,,,,,,,,,,,,,,,,,,,,,,,,,,,,,,None,,517.9141537499614,None,517.9141537499614,None,2022-09-06-14:06:00.974665,517.9257973995991,518.2300595999695,517.9257973995991,517.9257973995991,None,517.9257973995991,517.9257973995991,518.7318364497274,None,,,,22012,0002,2022_Sep_06_1357,localizer,2021.1.3,59.30765415803344,
block,faces,faces060.bmp,,,,,0,13,13,13,,,,,,,,,,,,,,,,,,,,,,,,,,,,,,,,,,,,,,,,,,None,,518.7318364497274,None,518.7318364497274,None,2022-09-06-14:06:01.790186,518.7424620999955,519.0462576998398,518.7424620999955,None,None,518.7424620999955,None,519.5460704498925,None,,,,22012,0002,2022_Sep_06_1357,localizer,2021.1.3,59.30765415803344,
block_end,faces,faces014.bmp,,,,,0,14,14,14,,,,,,,,,,,,,,,,,,,,,,,,,,,,,,,,,,,,,,,,,,None,,519.5460704498925,None,519.5460704498925,None,2022-09-06-14:06:02.604151,519.5528358998708,519.8630307996646,519.5528358998708,None,None,519.5528358998708,None,520.3638676497154,None,,,,22012,0002,2022_Sep_06_1357,localizer,2021.1.3,59.30765415803344,
null_block,null_block,null_block.bmp,,,,,0,15,15,15,,,,,,,,,,,,,,,,,,,,,,,,,,,,,,,,,,,,,,,,,,t,1.785239600110799,520.3636827999726,None,520.3636827999726,None,2022-09-06-14:06:05.237269,522.1796032496728,None,522.1796032496728,None,None,522.1796032496728,None,522.1833444000222,None,,,,22012,0002,2022_Sep_06_1357,localizer,2021.1.3,59.30765415803344,
block_start,scrambled,scrambled028.bmp,,,,,0,16,16,16,,,,,,,,,,,,,,,,,,,,,,,,,,,,,,,,,,,,,,,,,,t,1.9524646997451782,534.1967454999685,None,534.1967454999685,None,2022-09-06-14:06:19.224736,536.1772525999695,536.4792059999891,536.1772525999695,None,None,536.1772525999695,None,536.9797288499773,None,,,,22012,0002,2022_Sep_06_1357,localizer,2021.1.3,59.30765415803344,
block,scrambled,scrambled008.bmp,,,,,0,17,17,17,,,,,,,,,,,,,,,,,,,,,,,,,,,,,,,,,,,,,,,,,,None,,536.9797288499773,None,536.9797288499773,None,2022-09-06-14:06:20.037319,536.9891730998643,537.2969175996259,536.9891730998643,None,None,536.9891730998643,None,537.7973016499542,None,,,,22012,0002,2022_Sep_06_1357,localizer,2021.1.3,59.30765415803344,
block,scrambled,scrambled025.bmp,,,,,0,18,18,18,,,,,,,,,,,,,,,,,,,,,,,,,,,,,,,,,,,,,,,,,,None,,537.7973016499542,None,537.7973016499542,None,2022-09-06-14:06:20.855873,537.7978121996857,538.0972916996107,537.7978121996857,None,None,537.7978121996857,None,538.6125658498146,None,,,,22012,0002,2022_Sep_06_1357,localizer,2021.1.3,59.30765415803344,
block,scrambled,scrambled038.bmp,,,,,0,19,19,19,,,,,,,,,,,,,,,,,,,,,,,,,,,,,,,,,,,,,,,,,,None,,538.6125658498146,None,538.6125658498146,None,2022-09-06-14:06:21.669443,538.6171195995994,538.9305673995987,538.6171195995994,None,None,538.6171195995994,None,539.431164049916,None,,,,22012,0002,2022_Sep_06_1357,localizer,2021.1.3,59.30765415803344,
block,scrambled,scrambled019.bmp,,,,,0,20,20,20,,,,,,,,,,,,,,,,,,,,,,,,,,,,,,,,,,,,,,,,,,None,,539.431164049916,None,539.431164049916,None,2022-09-06-14:06:22.489728,539.4333507996053,539.7467572996393,539.4333507996053,None,None,539.4333507996053,None,540.2472702496685,None,,,,22012,0002,2022_Sep_06_1357,localizer,2021.1.3,59.30765415803344,
block,scrambled,scrambled036.bmp,,,,,0,21,21,21,,,,,,,,,,,,,,,,,,,,,,,,,,,,,,,,,,,,,,,,,,None,,540.2472702496685,None,540.2472702496685,None,2022-09-06-14:06:23.305840,540.2591172000393,540.5669029997662,540.2591172000393,None,None,540.2591172000393,None,541.0670724496246,None,,,,22012,0002,2022_Sep_06_1357,localizer,2021.1.3,59.30765415803344,
block,scrambled,scrambled039.bmp,,,,,0,22,22,22,,,,,,,,,,,,,,,,,,,,,,,,,,,,,,,,,,,,,,,,,,None,,541.0670724496246,None,541.0670724496246,None,2022-09-06-14:06:24.134523,541.0811193999834,541.3792491997592,541.0811193999834,None,None,541.0811193999834,None,541.8797979498282,None,,,,22012,0002,2022_Sep_06_1357,localizer,2021.1.3,59.30765415803344,
block,scrambled,scrambled064.bmp,,,,,0,23,23,23,,,,,,,,,,,,,,,,,,,,,,,,,,,,,,,,,,,,,,,,,,None,,541.8797979498282,None,541.8797979498282,None,2022-09-06-14:06:24.937387,541.8884143000469,542.1964984997176,541.8884143000469,None,None,541.8884143000469,None,542.6965377497487,None,,,,22012,0002,2022_Sep_06_1357,localizer,2021.1.3,59.30765415803344,
block,scrambled,scrambled060.bmp,,,,,0,24,24,24,,,,,,,,,,,,,,,,,,,,,,,,,,,,,,,,,,,,,,,,,,None,,542.6965377497487,None,542.6965377497487,None,2022-09-06-14:06:25.754126,542.697709299624,542.9976544999518,542.697709299624,None,None,542.697709299624,None,543.5132327497937,None,,,,22012,0002,2022_Sep_06_1357,localizer,2021.1.3,59.30765415803344,
block,scrambled,scrambled060.bmp,,,,,0,25,25,25,,,,,,,,,,,,,,,,,,,,,,,,,,,,,,,,,,,,,,,,,,None,,543.5132327497937,None,543.5132327497937,None,2022-09-06-14:06:26.570818,543.514283800032,543.8297384995967,543.514283800032,None,y,543.514283800032,None,544.3300095497631,None,0.6119190002791584,,,22012,0002,2022_Sep_06_1357,localizer,2021.1.3,59.30765415803344,
block,scrambled,scrambled002.bmp,,,,,0,26,26,26,,,,,,,,,,,,,,,,,,,,,,,,,,,,,,,,,,,,,,,,,,None,,544.3300095497631,None,544.3300095497631,None,2022-09-06-14:06:27.387595,544.3309086998925,544.6464447998442,544.3309086998925,None,None,544.3309086998925,None,545.1318994498812,None,,,,22012,0002,2022_Sep_06_1357,localizer,2021.1.3,59.30765415803344,
block,scrambled,scrambled013.bmp,,,,,0,27,27,27,,,,,,,,,,,,,,,,,,,,,,,,,,,,,,,,,,,,,,,,,,None,,545.1318994498812,None,545.1318994498812,None,2022-09-06-14:06:28.191053,545.1374331000261,545.4466988998465,545.1374331000261,545.1374331000261,None,545.1374331000261,545.1374331000261,545.9468938497827,None,,,,22012,0002,2022_Sep_06_1357,localizer,2021.1.3,59.30765415803344,
block,scrambled,scrambled016.bmp,,,,,0,28,28,28,,,,,,,,,,,,,,,,,,,,,,,,,,,,,,,,,,,,,,,,,,None,,545.9468938497827,None,545.9468938497827,None,2022-09-06-14:06:29.003301,545.9508177000098,546.2631954997778,545.9508177000098,None,None,545.9508177000098,None,546.7640097498894,None,,,,22012,0002,2022_Sep_06_1357,localizer,2021.1.3,59.30765415803344,
block,scrambled,scrambled082.bmp,,,,,0,29,29,29,,,,,,,,,,,,,,,,,,,,,,,,,,,,,,,,,,,,,,,,,,None,,546.7640097498894,None,546.7640097498894,None,2022-09-06-14:06:29.822581,546.7769313999452,547.079601699952,546.7769313999452,None,None,546.7769313999452,None,547.5798724497669,None,,,,22012,0002,2022_Sep_06_1357,localizer,2021.1.3,59.30765415803344,
block_end,scrambled,scrambled032.bmp,,,,,0,30,30,30,,,,,,,,,,,,,,,,,,,,,,,,,,,,,,,,,,,,,,,,,,None,,547.5798724497669,None,547.5798724497669,None,2022-09-06-14:06:30.637731,547.588440399617,547.8964014998637,547.588440399617,None,None,547.588440399617,None,548.3962721497752,None,,,,22012,0002,2022_Sep_06_1357,localizer,2021.1.3,59.30765415803344,
block_start,objects,objects044.bmp,,,,,0,31,31,31,,,,,,,,,,,,,,,,,,,,,,,,,,,,,,,,,,,,,,,,,,t,1.752658000215888,548.3964557996951,None,548.3964557996951,None,2022-09-06-14:06:33.223191,550.1718396996148,550.4795094998553,550.1718396996148,None,None,550.1718396996148,None,550.9802945497446,None,,,,22012,0002,2022_Sep_06_1357,localizer,2021.1.3,59.30765415803344,
block,objects,objects046.bmp,,,,,0,32,32,32,,,,,,,,,,,,,,,,,,,,,,,,,,,,,,,,,,,,,,,,,,None,,550.9802945497446,None,550.9802945497446,None,2022-09-06-14:06:34.038564,550.9814766999334,551.2964295996353,550.9814766999334,None,None,550.9814766999334,None,551.7965980497189,None,,,,22012,0002,2022_Sep_06_1357,localizer,2021.1.3,59.30765415803344,
block,objects,objects021.bmp,,,,,0,33,33,33,,,,,,,,,,,,,,,,,,,,,,,,,,,,,,,,,,,,,,,,,,None,,551.7965980497189,None,551.7965980497189,None,2022-09-06-14:06:34.854181,551.7974159000441,552.1130641000345,551.7974159000441,None,None,551.7974159000441,None,552.5978944496252,None,,,,22012,0002,2022_Sep_06_1357,localizer,2021.1.3,59.30765415803344,
block,objects,objects001.bmp,,,,,0,34,34,34,,,,,,,,,,,,,,,,,,,,,,,,,,,,,,,,,,,,,,,,,,None,,552.5978944496252,None,552.5978944496252,None,2022-09-06-14:06:35.659684,552.6113707995974,552.9130229996517,552.6113707995974,552.6113707995974,None,552.6113707995974,552.6113707995974,553.4132339497097,None,,,,22012,0002,2022_Sep_06_1357,localizer,2021.1.3,59.30765415803344,
block,objects,objects053.bmp,,,,,0,35,35,35,,,,,,,,,,,,,,,,,,,,,,,,,,,,,,,,,,,,,,,,,,None,,553.4132339497097,None,553.4132339497097,None,2022-09-06-14:06:36.470824,553.4169668997638,553.7298006997444,553.4169668997638,None,None,553.4169668997638,None,554.2296918499284,None,,,,22012,0002,2022_Sep_06_1357,localizer,2021.1.3,59.30765415803344,
block,objects,objects018.bmp,,,,,0,36,36,36,,,,,,,,,,,,,,,,,,,,,,,,,,,,,,,,,,,,,,,,,,None,,554.2296918499284,None,554.2296918499284,None,2022-09-06-14:06:37.287282,554.2309758998454,554.5464882999659,554.2309758998454,None,None,554.2309758998454,None,555.0464830500074,None,,,,22012,0002,2022_Sep_06_1357,localizer,2021.1.3,59.30765415803344,
block,objects,objects017.bmp,,,,,0,37,37,37,,,,,,,,,,,,,,,,,,,,,,,,,,,,,,,,,,,,,,,,,,None,,555.0464830500074,None,555.0464830500074,None,2022-09-06-14:06:38.104072,555.0551621997729,555.3681047996506,555.0551621997729,None,None,555.0551621997729,None,555.8632528496906,None,,,,22012,0002,2022_Sep_06_1357,localizer,2021.1.3,59.30765415803344,
block,objects,objects032.bmp,,,,,0,38,38,38,,,,,,,,,,,,,,,,,,,,,,,,,,,,,,,,,,,,,,,,,,None,,555.8632528496906,None,555.8632528496906,None,2022-09-06-14:06:38.920577,555.8680872996338,556.1799208000302,555.8680872996338,None,None,555.8680872996338,None,556.6800221497193,None,,,,22012,0002,2022_Sep_06_1357,localizer,2021.1.3,59.30765415803344,
block,objects,objects024.bmp,,,,,0,39,39,39,,,,,,,,,,,,,,,,,,,,,,,,,,,,,,,,,,,,,,,,,,None,,556.6800221497193,None,556.6800221497193,None,2022-09-06-14:06:39.737609,556.6810197997838,556.9970231996849,556.6810197997838,None,None,556.6810197997838,None,557.4967557498254,None,,,,22012,0002,2022_Sep_06_1357,localizer,2021.1.3,59.30765415803344,
block,objects,objects029.bmp,,,,,0,40,40,40,,,,,,,,,,,,,,,,,,,,,,,,,,,,,,,,,,,,,,,,,,None,,557.4967557498254,None,557.4967557498254,None,2022-09-06-14:06:40.554384,557.505299099721,557.8132641999982,557.505299099721,None,None,557.505299099721,None,558.3160465498455,None,,,,22012,0002,2022_Sep_06_1357,localizer,2021.1.3,59.30765415803344,
block,objects,objects050.bmp,,,,,0,41,41,41,,,,,,,,,,,,,,,,,,,,,,,,,,,,,,,,,,,,,,,,,,None,,558.3160465498455,None,558.3160465498455,None,2022-09-06-14:06:41.377568,558.3187372996472,558.6367625999264,558.3187372996472,None,None,558.3187372996472,None,559.1296350498684,None,,,,22012,0002,2022_Sep_06_1357,localizer,2021.1.3,59.30765415803344,
block,objects,objects004.bmp,,,,,0,42,42,42,,,,,,,,,,,,,,,,,,,,,,,,,,,,,,,,,,,,,,,,,,None,,559.1296350498684,None,559.1296350498684,None,2022-09-06-14:06:42.187226,559.1309659997933,559.4338635997847,559.1309659997933,None,None,559.1309659997933,None,559.9299744497054,None,,,,22012,0002,2022_Sep_06_1357,localizer,2021.1.3,59.30765415803344,
block,objects,objects049.bmp,,,,,0,43,43,43,,,,,,,,,,,,,,,,,,,,,,,,,,,,,,,,,,,,,,,,,,None,,559.9299744497054,None,559.9299744497054,None,2022-09-06-14:06:42.988563,559.9391981996596,560.2466731998138,559.9391981996596,559.9391981996596,None,559.9391981996596,559.9391981996596,560.7463631498628,None,,,,22012,0002,2022_Sep_06_1357,localizer,2021.1.3,59.30765415803344,
block,objects,objects060.bmp,,,,,0,44,44,44,,,,,,,,,,,,,,,,,,,,,,,,,,,,,,,,,,,,,,,,,,None,,560.7463631498628,None,560.7463631498628,None,2022-09-06-14:06:43.803953,560.7549149999395,561.0632132999599,560.7549149999395,None,None,560.7549149999395,None,561.5638164499775,None,,,,22012,0002,2022_Sep_06_1357,localizer,2021.1.3,59.30765415803344,
block_end,objects,objects033.bmp,,,,,0,45,45,45,,,,,,,,,,,,,,,,,,,,,,,,,,,,,,,,,,,,,,,,,,None,,561.5638164499775,None,561.5638164499775,None,2022-09-06-14:06:44.621397,561.5644647995941,561.8798517999239,561.5644647995941,None,None,561.5644647995941,None,562.365472849831,None,,,,22012,0002,2022_Sep_06_1357,localizer,2021.1.3,59.30765415803344,
block_start,scenes,scenes061.bmp,,,,,0,46,46,46,,,,,,,,,,,,,,,,,,,,,,,,,,,,,,,,,,,,,,,,,,t,1.7840780997648835,562.3639436997473,None,562.3639436997473,None,2022-09-06-14:06:47.222090,564.167381499894,564.4798687999137,564.167381499894,None,None,564.167381499894,None,564.9802158497274,None,,,,22012,0002,2022_Sep_06_1357,localizer,2021.1.3,59.30765415803344,
block,scenes,scenes048.bmp,,,,,0,47,47,47,,,,,,,,,,,,,,,,,,,,,,,,,,,,,,,,,,,,,,,,,,None,,564.9802158497274,None,564.9802158497274,None,2022-09-06-14:06:48.038010,564.9811036996543,565.2965532997623,564.9811036996543,None,None,564.9811036996543,None,565.7965799499303,None,,,,22012,0002,2022_Sep_06_1357,localizer,2021.1.3,59.30765415803344,
block,scenes,scenes010.bmp,,,,,0,48,48,48,,,,,,,,,,,,,,,,,,,,,,,,,,,,,,,,,,,,,,,,,,None,,565.7965799499303,None,565.7965799499303,None,2022-09-06-14:06:48.854170,565.7977181999013,566.1132383998483,565.7977181999013,None,None,565.7977181999013,None,566.5970847498626,None,,,,22012,0002,2022_Sep_06_1357,localizer,2021.1.3,59.30765415803344,
block,scenes,scenes086.bmp,,,,,0,49,49,49,,,,,,,,,,,,,,,,,,,,,,,,,,,,,,,,,,,,,,,,,,None,,566.5970847498626,None,566.5970847498626,None,2022-09-06-14:06:49.655624,566.6041929996572,566.9133035000414,566.6041929996572,566.6041929996572,None,566.6041929996572,566.6041929996572,567.4132785498165,None,,,,22012,0002,2022_Sep_06_1357,localizer,2021.1.3,59.30765415803344,
block,scenes,scenes036.bmp,,,,,0,50,50,50,,,,,,,,,,,,,,,,,,,,,,,,,,,,,,,,,,,,,,,,,,None,,567.4132785498165,None,567.4132785498165,None,2022-09-06-14:06:50.470868,567.4215090996586,567.7303318995982,567.4215090996586,None,None,567.4215090996586,None,568.2309240497649,None,,,,22012,0002,2022_Sep_06_1357,localizer,2021.1.3,59.30765415803344,
block,scenes,scenes076.bmp,,,,,0,51,51,51,,,,,,,,,,,,,,,,,,,,,,,,,,,,,,,,,,,,,,,,,,None,,568.2309240497649,None,568.2309240497649,None,2022-09-06-14:06:51.289495,568.2427043998614,568.5464822999202,568.2427043998614,None,None,568.2427043998614,None,569.046750449948,None,,,,22012,0002,2022_Sep_06_1357,localizer,2021.1.3,59.30765415803344,
block,scenes,scenes008.bmp,,,,,0,52,52,52,,,,,,,,,,,,,,,,,,,,,,,,,,,,,,,,,,,,,,,,,,None,,569.046750449948,None,569.046750449948,None,2022-09-06-14:06:52.104526,569.0480570998043,569.363313799724,569.0480570998043,None,None,569.0480570998043,None,569.8633758499287,None,,,,22012,0002,2022_Sep_06_1357,localizer,2021.1.3,59.30765415803344,
block,scenes,scenes020.bmp,,,,,0,53,53,53,,,,,,,,,,,,,,,,,,,,,,,,,,,,,,,,,,,,,,,,,,None,,569.8633758499287,None,569.8633758499287,None,2022-09-06-14:06:52.920961,569.8724767998792,570.1802248996682,569.8724767998792,None,None,569.8724767998792,None,570.6798962498084,None,,,,22012,0002,2022_Sep_06_1357,localizer,2021.1.3,59.30765415803344,
block,scenes,scenes066.bmp,,,,,0,54,54,54,,,,,,,,,,,,,,,,,,,,,,,,,,,,,,,,,,,,,,,,,,None,,570.6798962498084,None,570.6798962498084,None,2022-09-06-14:06:53.736490,570.688138099853,570.9965696996078,570.688138099853,None,None,570.688138099853,None,571.4970613498241,None,,,,22012,0002,2022_Sep_06_1357,localizer,2021.1.3,59.30765415803344,
block,scenes,scenes077.bmp,,,,,0,55,55,55,,,,,,,,,,,,,,,,,,,,,,,,,,,,,,,,,,,,,,,,,,None,,571.4970613498241,None,571.4970613498241,None,2022-09-06-14:06:54.555373,571.5076252999716,571.8129688999616,571.5076252999716,None,None,571.5076252999716,None,572.3146692499519,None,,,,22012,0002,2022_Sep_06_1357,localizer,2021.1.3,59.30765415803344,
block,scenes,scenes033.bmp,,,,,0,56,56,56,,,,,,,,,,,,,,,,,,,,,,,,,,,,,,,,,,,,,,,,,,None,,572.3146692499519,None,572.3146692499519,None,2022-09-06-14:06:55.375378,572.3310587997548,572.6465329998173,572.3310587997548,None,None,572.3310587997548,None,573.1302247498185,None,,,,22012,0002,2022_Sep_06_1357,localizer,2021.1.3,59.30765415803344,
block,scenes,scenes026.bmp,,,,,0,57,57,57,,,,,,,,,,,,,,,,,,,,,,,,,,,,,,,,,,,,,,,,,,None,,573.1302247498185,None,573.1302247498185,None,2022-09-06-14:06:56.187810,573.131138399709,573.4466339000501,573.131138399709,None,None,573.131138399709,None,573.946848549787,None,,,,22012,0002,2022_Sep_06_1357,localizer,2021.1.3,59.30765415803344,
block,scenes,scenes054.bmp,,,,,0,58,58,58,,,,,,,,,,,,,,,,,,,,,,,,,,,,,,,,,,,,,,,,,,None,,573.946848549787,None,573.946848549787,None,2022-09-06-14:06:57.004647,573.953195199836,574.2633416997269,573.953195199836,None,None,573.953195199836,None,574.7634998498485,None,,,,22012,0002,2022_Sep_06_1357,localizer,2021.1.3,59.30765415803344,
block,scenes,scenes024.bmp,,,,,0,59,59,59,,,,,,,,,,,,,,,,,,,,,,,,,,,,,,,,,,,,,,,,,,None,,574.7634998498485,None,574.7634998498485,None,2022-09-06-14:06:57.821087,574.7729268996045,575.0817048996687,574.7729268996045,None,None,574.7729268996045,None,575.5802661496215,None,,,,22012,0002,2022_Sep_06_1357,localizer,2021.1.3,59.30765415803344,
block_end,scenes,scenes017.bmp,,,,,0,60,60,60,,,,,,,,,,,,,,,,,,,,,,,,,,,,,,,,,,,,,,,,,,None,,575.5802661496215,None,575.5802661496215,None,2022-09-06-14:06:58.637848,575.5863035996445,575.8969723000191,575.5863035996445,None,None,575.5863035996445,None,576.3964982497506,None,,,,22012,0002,2022_Sep_06_1357,localizer,2021.1.3,59.30765415803344,
null_block,null_block,null_block.bmp,,,,,0,61,61,61,,,,,,,,,,,,,,,,,,,,,,,,,,,,,,,,,,,,,,,,,,t,1.7515308000147343,576.396619099658,None,576.396619099658,None,2022-09-06-14:07:01.236591,578.1799983497709,None,578.1799983497709,None,None,578.1799983497709,None,578.1825468000025,None,,,,22012,0002,2022_Sep_06_1357,localizer,2021.1.3,59.30765415803344,
block_start,scrambled,scrambled070.bmp,,,,,0,62,62,62,,,,,,,,,,,,,,,,,,,,,,,,,,,,,,,,,,,,,,,,,,t,1.9520353004336357,590.1962236999534,None,590.1962236999534,None,2022-09-06-14:07:15.222301,592.1654873997904,592.4800497996621,592.1654873997904,None,None,592.1654873997904,None,592.9809361499734,None,,,,22012,0002,2022_Sep_06_1357,localizer,2021.1.3,59.30765415803344,
block,scrambled,scrambled007.bmp,,,,,0,63,63,63,,,,,,,,,,,,,,,,,,,,,,,,,,,,,,,,,,,,,,,,,,None,,592.9809361499734,None,592.9809361499734,None,2022-09-06-14:07:16.039482,592.9977680998854,593.2968368995935,592.9977680998854,None,None,592.9977680998854,None,593.7968801496551,None,,,,22012,0002,2022_Sep_06_1357,localizer,2021.1.3,59.30765415803344,
block,scrambled,scrambled071.bmp,,,,,0,64,64,64,,,,,,,,,,,,,,,,,,,,,,,,,,,,,,,,,,,,,,,,,,None,,593.7968801496551,None,593.7968801496551,None,2022-09-06-14:07:16.854466,593.7979296999983,594.1133105000481,593.7979296999983,None,None,593.7979296999983,None,594.5971516500227,None,,,,22012,0002,2022_Sep_06_1357,localizer,2021.1.3,59.30765415803344,
block,scrambled,scrambled033.bmp,,,,,0,65,65,65,,,,,,,,,,,,,,,,,,,,,,,,,,,,,,,,,,,,,,,,,,None,,594.5971516500227,None,594.5971516500227,None,2022-09-06-14:07:17.657881,594.5994974998757,594.9142872998491,594.5994974998757,594.5994974998757,None,594.5994974998757,594.5994974998757,595.4136028498411,None,,,,22012,0002,2022_Sep_06_1357,localizer,2021.1.3,59.30765415803344,
block,scrambled,scrambled028.bmp,,,,,0,66,66,66,,,,,,,,,,,,,,,,,,,,,,,,,,,,,,,,,,,,,,,,,,None,,595.4136028498411,None,595.4136028498411,None,2022-09-06-14:07:18.471463,595.4144849996082,595.7300950000063,595.4144849996082,None,None,595.4144849996082,None,596.2201716498472,None,,,,22012,0002,2022_Sep_06_1357,localizer,2021.1.3,59.30765415803344,
block,scrambled,scrambled088.bmp,,,,,0,67,67,67,,,,,,,,,,,,,,,,,,,,,,,,,,,,,,,,,,,,,,,,,,None,,596.2201716498472,None,596.2201716498472,None,2022-09-06-14:07:19.281693,596.2240430000238,596.5302130999044,596.2240430000238,None,None,596.2240430000238,None,597.0306543497369,None,,,,22012,0002,2022_Sep_06_1357,localizer,2021.1.3,59.30765415803344,
block,scrambled,scrambled053.bmp,,,,,0,68,68,68,,,,,,,,,,,,,,,,,,,,,,,,,,,,,,,,,,,,,,,,,,None,,597.0306543497369,None,597.0306543497369,None,2022-09-06-14:07:20.087233,597.0307622998953,597.3300624997355,597.0307622998953,None,None,597.0307622998953,None,597.8302725496702,None,,,,22012,0002,2022_Sep_06_1357,localizer,2021.1.3,59.30765415803344,
block,scrambled,scrambled058.bmp,,,,,0,69,69,69,,,,,,,,,,,,,,,,,,,,,,,,,,,,,,,,,,,,,,,,,,None,,597.8302725496702,None,597.8302725496702,None,2022-09-06-14:07:20.888853,597.8396633998491,598.1467733997852,597.8396633998491,597.8396633998491,None,597.8396633998491,597.8396633998491,598.6466271499172,None,,,,22012,0002,2022_Sep_06_1357,localizer,2021.1.3,59.30765415803344,
block,scrambled,scrambled034.bmp,,,,,0,70,70,70,,,,,,,,,,,,,,,,,,,,,,,,,,,,,,,,,,,,,,,,,,None,,598.6466271499172,None,598.6466271499172,None,2022-09-06-14:07:21.704218,598.6477966997772,598.9510927000083,598.6477966997772,None,None,598.6477966997772,None,599.4478164500557,None,,,,22012,0002,2022_Sep_06_1357,localizer,2021.1.3,59.30765415803344,
block,scrambled,scrambled081.bmp,,,,,0,71,71,71,,,,,,,,,,,,,,,,,,,,,,,,,,,,,,,,,,,,,,,,,,None,,599.4478164500557,None,599.4478164500557,None,2022-09-06-14:07:22.507400,599.447899799794,599.74715499999,599.447899799794,599.447899799794,None,599.447899799794,599.447899799794,600.2633816496469,None,,,,22012,0002,2022_Sep_06_1357,localizer,2021.1.3,59.30765415803344,
block,scrambled,scrambled047.bmp,,,,,0,72,72,72,,,,,,,,,,,,,,,,,,,,,,,,,,,,,,,,,,,,,,,,,,None,,600.2633816496469,None,600.2633816496469,None,2022-09-06-14:07:23.321217,600.272543899715,600.5802472997457,600.272543899715,None,None,600.272543899715,None,601.0700689497404,None,,,,22012,0002,2022_Sep_06_1357,localizer,2021.1.3,59.30765415803344,
block,scrambled,scrambled004.bmp,,,,,0,73,73,73,,,,,,,,,,,,,,,,,,,,,,,,,,,,,,,,,,,,,,,,,,None,,601.0700689497404,None,601.0700689497404,None,2022-09-06-14:07:24.132485,601.0834804996848,601.3967544999905,601.0834804996848,None,None,601.0834804996848,None,601.8870755498298,None,,,,22012,0002,2022_Sep_06_1357,localizer,2021.1.3,59.30765415803344,
block,scrambled,scrambled056.bmp,,,,,0,74,74,74,,,,,,,,,,,,,,,,,,,,,,,,,,,,,,,,,,,,,,,,,,None,,601.8870755498298,None,601.8870755498298,None,2022-09-06-14:07:24.948540,601.8971575000323,602.1968560996465,601.8971575000323,None,None,601.8971575000323,None,602.6968589498662,None,,,,22012,0002,2022_Sep_06_1357,localizer,2021.1.3,59.30765415803344,
block,scrambled,scrambled061.bmp,,,,,0,75,75,75,,,,,,,,,,,,,,,,,,,,,,,,,,,,,,,,,,,,,,,,,,None,,602.6968589498662,None,602.6968589498662,None,2022-09-06-14:07:25.754879,602.6979028000496,603.0134105999023,602.6979028000496,None,None,602.6979028000496,None,603.497944950033,None,,,,22012,0002,2022_Sep_06_1357,localizer,2021.1.3,59.30765415803344,
block_end,scrambled,scrambled079.bmp,,,,,0,76,76,76,,,,,,,,,,,,,,,,,,,,,,,,,,,,,,,,,,,,,,,,,,None,,603.497944950033,None,603.497944950033,None,2022-09-06-14:07:26.556534,603.4978422997519,603.8135040998459,603.4978422997519,603.4978422997519,None,603.4978422997519,603.4978422997519,604.3137432498858,None,,,,22012,0002,2022_Sep_06_1357,localizer,2021.1.3,59.30765415803344,
block_start,scenes,scenes090.bmp,,,,,0,77,77,77,,,,,,,,,,,,,,,,,,,,,,,,,,,,,,,,,,,,,,,,,,t,1.8350868001580238,604.3133381996304,None,604.3133381996304,None,2022-09-06-14:07:29.220180,606.1646042997018,606.480035000015,606.1646042997018,None,None,606.1646042997018,None,606.9636656496674,None,,,,22012,0002,2022_Sep_06_1357,localizer,2021.1.3,59.30765415803344,
block,scenes,scenes027.bmp,,,,,0,78,78,78,,,,,,,,,,,,,,,,,,,,,,,,,,,,,,,,,,,,,,,,,,None,,606.9636656496674,None,606.9636656496674,None,2022-09-06-14:07:30.022963,606.9719376997091,607.2803859999403,606.9719376997091,606.9719376997091,None,606.9719376997091,606.9719376997091,607.7804908500053,None,,,,22012,0002,2022_Sep_06_1357,localizer,2021.1.3,59.30765415803344,
block,scenes,scenes012.bmp,,,,,0,79,79,79,,,,,,,,,,,,,,,,,,,,,,,,,,,,,,,,,,,,,,,,,,None,,607.7804908500053,None,607.7804908500053,None,2022-09-06-14:07:30.838075,607.7812123997137,608.0802982999012,607.7812123997137,None,None,607.7812123997137,None,608.5968511499465,None,,,,22012,0002,2022_Sep_06_1357,localizer,2021.1.3,59.30765415803344,
block,scenes,scenes014.bmp,,,,,0,80,80,80,,,,,,,,,,,,,,,,,,,,,,,,,,,,,,,,,,,,,,,,,,None,,608.5968511499465,None,608.5968511499465,None,2022-09-06-14:07:31.654441,608.6067955996841,608.9137134999037,608.6067955996841,None,None,608.6067955996841,None,609.41398754986,None,,,,22012,0002,2022_Sep_06_1357,localizer,2021.1.3,59.30765415803344,
block,scenes,scenes017.bmp,,,,,0,81,81,81,,,,,,,,,,,,,,,,,,,,,,,,,,,,,,,,,,,,,,,,,,None,,609.41398754986,None,609.41398754986,None,2022-09-06-14:07:32.471759,609.4148416998796,609.7300446997397,609.4148416998796,None,None,609.4148416998796,None,610.2165874497965,None,,,,22012,0002,2022_Sep_06_1357,localizer,2021.1.3,59.30765415803344,
block,scenes,scenes038.bmp,,,,,0,82,82,82,,,,,,,,,,,,,,,,,,,,,,,,,,,,,,,,,,,,,,,,,,None,,610.2165874497965,None,610.2165874497965,None,2022-09-06-14:07:33.276187,610.2241730997339,610.5302776996978,610.2241730997339,610.2241730997339,None,610.2241730997339,610.2241730997339,611.0304171497934,None,,,,22012,0002,2022_Sep_06_1357,localizer,2021.1.3,59.30765415803344,
block,scenes,scenes037.bmp,,,,,0,83,83,83,,,,,,,,,,,,,,,,,,,,,,,,,,,,,,,,,,,,,,,,,,None,,611.0304171497934,None,611.0304171497934,None,2022-09-06-14:07:34.088002,611.0314527996816,611.3334927000105,611.0314527996816,None,None,611.0314527996816,None,611.8469111499377,None,,,,22012,0002,2022_Sep_06_1357,localizer,2021.1.3,59.30765415803344,
block,scenes,scenes020.bmp,,,,,0,84,84,84,,,,,,,,,,,,,,,,,,,,,,,,,,,,,,,,,,,,,,,,,,None,,611.8469111499377,None,611.8469111499377,None,2022-09-06-14:07:34.904502,611.8481321996078,612.1633297996596,611.8481321996078,None,None,611.8481321996078,None,612.6480543500744,None,,,,22012,0002,2022_Sep_06_1357,localizer,2021.1.3,59.30765415803344,
block,scenes,scenes026.bmp,,,,,0,85,85,85,,,,,,,,,,,,,,,,,,,,,,,,,,,,,,,,,,,,,,,,,,None,,612.6480543500744,None,612.6480543500744,None,2022-09-06-14:07:35.707739,612.6573889995925,612.9636117997579,612.6573889995925,612.6573889995925,None,612.6573889995925,612.6573889995925,613.4640424497426,None,,,,22012,0002,2022_Sep_06_1357,localizer,2021.1.3,59.30765415803344,
block,scenes,scenes045.bmp,,,,,0,86,86,86,,,,,,,,,,,,,,,,,,,,,,,,,,,,,,,,,,,,,,,,,,None,,613.4640424497426,None,613.4640424497426,None,2022-09-06-14:07:36.521630,613.4649438997731,613.7801453997381,613.4649438997731,None,None,613.4649438997731,None,614.2802387498319,None,,,,22012,0002,2022_Sep_06_1357,localizer,2021.1.3,59.30765415803344,
block,scenes,scenes064.bmp,,,,,0,87,87,87,,,,,,,,,,,,,,,,,,,,,,,,,,,,,,,,,,,,,,,,,,None,,614.2802387498319,None,614.2802387498319,None,2022-09-06-14:07:37.337830,614.2887979997322,614.6005613999441,614.2887979997322,None,None,614.2887979997322,None,615.0964889497496,None,,,,22012,0002,2022_Sep_06_1357,localizer,2021.1.3,59.30765415803344,
block,scenes,scenes062.bmp,,,,,0,88,88,88,,,,,,,,,,,,,,,,,,,,,,,,,,,,,,,,,,,,,,,,,,None,,615.0964889497496,None,615.0964889497496,None,2022-09-06-14:07:38.153928,615.1014022999443,615.4199953000061,615.1014022999443,None,None,615.1014022999443,None,615.9151052496396,None,,,,22012,0002,2022_Sep_06_1357,localizer,2021.1.3,59.30765415803344,
block,scenes,scenes035.bmp,,,,,0,89,89,89,,,,,,,,,,,,,,,,,,,,,,,,,,,,,,,,,,,,,,,,,,None,,615.9151052496396,None,615.9151052496396,None,2022-09-06-14:07:38.974399,615.9247057000175,616.2308934000321,615.9247057000175,None,None,615.9247057000175,None,616.7333958497271,None,,,,22012,0002,2022_Sep_06_1357,localizer,2021.1.3,59.30765415803344,
block,scenes,scenes049.bmp,,,,,0,90,90,90,,,,,,,,,,,,,,,,,,,,,,,,,,,,,,,,,,,,,,,,,,None,,616.7333958497271,None,616.7333958497271,None,2022-09-06-14:07:39.791971,616.7333779996261,617.0469535999,616.7333779996261,None,None,616.7333779996261,None,617.5469764498063,None,,,,22012,0002,2022_Sep_06_1357,localizer,2021.1.3,59.30765415803344,
block_end,scenes,scenes032.bmp,,,,,0,91,91,91,,,,,,,,,,,,,,,,,,,,,,,,,,,,,,,,,,,,,,,,,,None,,617.5469764498063,None,617.5469764498063,None,2022-09-06-14:07:40.603529,617.5480815996416,617.863474200014,617.5480815996416,None,None,617.5480815996416,None,618.3530676499009,None,,,,22012,0002,2022_Sep_06_1357,localizer,2021.1.3,59.30765415803344,
block_start,objects,objects085.bmp,,,,,0,92,92,92,,,,,,,,,,,,,,,,,,,,,,,,,,,,,,,,,,,,,,,,,,t,1.8013467001728714,618.3467524996959,None,618.3467524996959,None,2022-09-06-14:07:43.222299,620.1647405000404,620.4803074998781,620.1647405000404,None,None,620.1647405000404,None,620.9649502499029,None,,,,22012,0002,2022_Sep_06_1357,localizer,2021.1.3,59.30765415803344,
block,objects,objects050.bmp,,,,,0,93,93,93,,,,,,,,,,,,,,,,,,,,,,,,,,,,,,,,,,,,,,,,,,None,,620.9649502499029,None,620.9649502499029,None,2022-09-06-14:07:44.025057,620.9683917998336,621.2801903998479,620.9683917998336,620.9683917998336,None,620.9683917998336,620.9683917998336,621.770152249746,None,,,,22012,0002,2022_Sep_06_1357,localizer,2021.1.3,59.30765415803344,
block,objects,objects047.bmp,,,,,0,94,94,94,,,,,,,,,,,,,,,,,,,,,,,,,,,,,,,,,,,,,,,,,,None,,621.770152249746,None,621.770152249746,None,2022-09-06-14:07:44.837740,621.782480799593,622.0970588000491,621.782480799593,621.782480799593,None,621.782480799593,621.782480799593,622.5968437496573,None,,,,22012,0002,2022_Sep_06_1357,localizer,2021.1.3,59.30765415803344,
block,objects,objects069.bmp,,,,,0,95,95,95,,,,,,,,,,,,,,,,,,,,,,,,,,,,,,,,,,,,,,,,,,None,,622.5968437496573,None,622.5968437496573,None,2022-09-06-14:07:45.653038,622.6077051996253,622.913362399675,622.6077051996253,None,None,622.6077051996253,None,623.4136017499492,None,,,,22012,0002,2022_Sep_06_1357,localizer,2021.1.3,59.30765415803344,
block,objects,objects012.bmp,,,,,0,96,96,96,,,,,,,,,,,,,,,,,,,,,,,,,,,,,,,,,,,,,,,,,,None,,623.4136017499492,None,623.4136017499492,None,2022-09-06-14:07:46.471185,623.4145392999053,623.7140838997439,623.4145392999053,None,None,623.4145392999053,None,624.2137805497274,None,,,,22012,0002,2022_Sep_06_1357,localizer,2021.1.3,59.30765415803344,
block,objects,objects052.bmp,,,,,0,97,97,97,,,,,,,,,,,,,,,,,,,,,,,,,,,,,,,,,,,,,,,,,,None,,624.2137805497274,None,624.2137805497274,None,2022-09-06-14:07:47.272368,624.2194423000328,624.5302577000111,624.2194423000328,624.2194423000328,None,624.2194423000328,624.2194423000328,625.0303425499238,None,,,,22012,0002,2022_Sep_06_1357,localizer,2021.1.3,59.30765415803344,
block,objects,objects044.bmp,,,,,0,98,98,98,,,,,,,,,,,,,,,,,,,,,,,,,,,,,,,,,,,,,,,,,,None,,625.0303425499238,None,625.0303425499238,None,2022-09-06-14:07:48.087928,625.0317103997804,625.3304793997668,625.0317103997804,None,None,625.0317103997804,None,625.8343841497787,None,,,,22012,0002,2022_Sep_06_1357,localizer,2021.1.3,59.30765415803344,
block,objects,objects003.bmp,,,,,0,99,99,99,,,,,,,,,,,,,,,,,,,,,,,,,,,,,,,,,,,,,,,,,,None,,625.8343841497787,None,625.8343841497787,None,2022-09-06-14:07:48.902015,625.842481599655,626.1474223998375,625.842481599655,625.842481599655,None,625.842481599655,625.842481599655,626.6534831499681,None,,,,22012,0002,2022_Sep_06_1357,localizer,2021.1.3,59.30765415803344,
block,objects,objects046.bmp,,,,,0,100,100,100,,,,,,,,,,,,,,,,,,,,,,,,,,,,,,,,,,,,,,,,,,None,,626.6534831499681,None,626.6534831499681,None,2022-09-06-14:07:49.715063,626.6566780996509,626.9701332999393,626.6566780996509,None,None,626.6566780996509,None,627.4636618498713,None,,,,22012,0002,2022_Sep_06_1357,localizer,2021.1.3,59.30765415803344,
block,objects,objects017.bmp,,,,,0,101,101,101,,,,,,,,,,,,,,,,,,,,,,,,,,,,,,,,,,,,,,,,,,None,,627.4636618498713,None,627.4636618498713,None,2022-09-06-14:07:50.521746,627.4649506998248,627.7638162998483,627.4649506998248,None,None,627.4649506998248,None,628.2802516500466,None,,,,22012,0002,2022_Sep_06_1357,localizer,2021.1.3,59.30765415803344,
block,objects,objects040.bmp,,,,,0,102,102,102,,,,,,,,,,,,,,,,,,,,,,,,,,,,,,,,,,,,,,,,,,None,,628.2802516500466,None,628.2802516500466,None,2022-09-06-14:07:51.336841,628.2838836000301,628.5983314998448,628.2838836000301,None,None,628.2838836000301,None,629.0867707500234,None,,,,22012,0002,2022_Sep_06_1357,localizer,2021.1.3,59.30765415803344,
block,objects,objects025.bmp,,,,,0,103,103,103,,,,,,,,,,,,,,,,,,,,,,,,,,,,,,,,,,,,,,,,,,None,,629.0867707500234,None,629.0867707500234,None,2022-09-06-14:07:52.152387,629.1116255996749,629.413595999591,629.1116255996749,None,None,629.1116255996749,None,629.8985125500709,None,,,,22012,0002,2022_Sep_06_1357,localizer,2021.1.3,59.30765415803344,
block,objects,objects057.bmp,,,,,0,104,104,104,,,,,,,,,,,,,,,,,,,,,,,,,,,,,,,,,,,,,,,,,,None,,629.8985125500709,None,629.8985125500709,None,2022-09-06-14:07:52.958531,629.9077336997725,630.214121799916,629.9077336997725,None,None,629.9077336997725,None,630.7135827498511,None,,,,22012,0002,2022_Sep_06_1357,localizer,2021.1.3,59.30765415803344,
block,objects,objects005.bmp,,,,,0,105,105,105,,,,,,,,,,,,,,,,,,,,,,,,,,,,,,,,,,,,,,,,,,None,,630.7135827498511,None,630.7135827498511,None,2022-09-06-14:07:53.770120,630.7153650997207,631.0302519998513,630.7153650997207,None,None,630.7153650997207,None,631.5306479496882,None,,,,22012,0002,2022_Sep_06_1357,localizer,2021.1.3,59.30765415803344,
block_end,objects,objects059.bmp,,,,,0,106,106,106,,,,,,,,,,,,,,,,,,,,,,,,,,,,,,,,,,,,,,,,,,None,,631.5306479496882,None,631.5306479496882,None,2022-09-06-14:07:54.588237,631.5420860997401,631.8499626000412,631.5420860997401,None,None,631.5420860997401,None,632.3361270496622,None,,,,22012,0002,2022_Sep_06_1357,localizer,2021.1.3,59.30765415803344,
block_start,faces,faces063.bmp,,,,,0,107,107,107,,,,,,,,,,,,,,,,,,,,,,,,,,,,,,,,,,,,,,,,,,t,1.813104399945587,632.3351830998436,None,632.3351830998436,None,2022-09-06-14:07:57.226448,634.1823498997837,634.4965769997798,634.1823498997837,None,None,634.1823498997837,None,634.979882149864,None,,,,22012,0002,2022_Sep_06_1357,localizer,2021.1.3,59.30765415803344,
block,faces,faces032.bmp,,,,,0,108,108,108,,,,,,,,,,,,,,,,,,,,,,,,,,,,,,,,,,,,,,,,,,None,,634.979882149864,None,634.979882149864,None,2022-09-06-14:07:58.036325,634.9822471998632,635.2971874000505,634.9822471998632,None,None,634.9822471998632,None,635.798070649989,None,,,,22012,0002,2022_Sep_06_1357,localizer,2021.1.3,59.30765415803344,
block,faces,faces070.bmp,,,,,0,109,109,109,,,,,,,,,,,,,,,,,,,,,,,,,,,,,,,,,,,,,,,,,,None,,635.798070649989,None,635.798070649989,None,2022-09-06-14:07:58.856411,635.7993027996272,636.1130355997011,635.7993027996272,None,None,635.7993027996272,None,636.6004743500613,None,,,,22012,0002,2022_Sep_06_1357,localizer,2021.1.3,59.30765415803344,
block,faces,faces039.bmp,,,,,0,110,110,110,,,,,,,,,,,,,,,,,,,,,,,,,,,,,,,,,,,,,,,,,,None,,636.6004743500613,None,636.6004743500613,None,2022-09-06-14:07:59.662174,636.6135619999841,636.9129589996301,636.6135619999841,636.6135619999841,None,636.6135619999841,636.6135619999841,637.4153061498888,None,,,,22012,0002,2022_Sep_06_1357,localizer,2021.1.3,59.30765415803344,
block,faces,faces007.bmp,,,,,0,111,111,111,,,,,,,,,,,,,,,,,,,,,,,,,,,,,,,,,,,,,,,,,,None,,637.4153061498888,None,637.4153061498888,None,2022-09-06-14:08:00.474084,637.4175269999541,637.7167126997374,637.4175269999541,None,None,637.4175269999541,None,638.2211624499411,None,,,,22012,0002,2022_Sep_06_1357,localizer,2021.1.3,59.30765415803344,
block,faces,faces051.bmp,,,,,0,112,112,112,,,,,,,,,,,,,,,,,,,,,,,,,,,,,,,,,,,,,,,,,,None,,638.2211624499411,None,638.2211624499411,None,2022-09-06-14:08:01.285516,638.2283744998276,638.5298796999268,638.2283744998276,None,None,638.2283744998276,None,639.0335308498703,None,,,,22012,0002,2022_Sep_06_1357,localizer,2021.1.3,59.30765415803344,
block,faces,faces052.bmp,,,,,0,113,113,113,,,,,,,,,,,,,,,,,,,,,,,,,,,,,,,,,,,,,,,,,,None,,639.0335308498703,None,639.0335308498703,None,2022-09-06-14:08:02.095053,639.0526032997295,639.3535257000476,639.0526032997295,None,None,639.0526032997295,None,639.8471547499299,None,,,,22012,0002,2022_Sep_06_1357,localizer,2021.1.3,59.30765415803344,
block,faces,faces047.bmp,,,,,0,114,114,114,,,,,,,,,,,,,,,,,,,,,,,,,,,,,,,,,,,,,,,,,,None,,639.8471547499299,None,639.8471547499299,None,2022-09-06-14:08:02.904742,639.8482551998459,640.1637458996847,639.8482551998459,None,None,639.8482551998459,None,640.6481464499608,None,,,,22012,0002,2022_Sep_06_1357,localizer,2021.1.3,59.30765415803344,
block,faces,faces047.bmp,,,,,0,115,115,115,,,,,,,,,,,,,,,,,,,,,,,,,,,,,,,,,,,,,,,,,,None,,640.6481464499608,None,640.6481464499608,None,2022-09-06-14:08:03.708832,640.6513652997091,640.9637955999933,640.6513652997091,640.6513652997091,None,640.6513652997091,640.6513652997091,641.4503739498556,None,,,,22012,0002,2022_Sep_06_1357,localizer,2021.1.3,59.30765415803344,
block,faces,faces057.bmp,,,,,0,116,116,116,,,,,,,,,,,,,,,,,,,,,,,,,,,,,,,,,,,,,,,,,,None,,641.4503739498556,None,641.4503739498556,None,2022-09-06-14:08:04.515038,641.4589417995885,641.7639414998703,641.4589417995885,641.4589417995885,y,641.4589417995885,641.4589417995885,642.2653938498348,None,0.03997089993208647,,,22012,0002,2022_Sep_06_1357,localizer,2021.1.3,59.30765415803344,
block,faces,faces034.bmp,,,,,0,117,117,117,,,,,,,,,,,,,,,,,,,,,,,,,,,,,,,,,,,,,,,,,,None,,642.2653938498348,None,642.2653938498348,None,2022-09-06-14:08:05.324961,642.2684606998228,642.5802660998888,642.2684606998228,None,None,642.2684606998228,None,643.0798288499005,None,,,,22012,0002,2022_Sep_06_1357,localizer,2021.1.3,59.30765415803344,
block,faces,faces045.bmp,,,,,0,118,118,118,,,,,,,,,,,,,,,,,,,,,,,,,,,,,,,,,,,,,,,,,,None,,643.0798288499005,None,643.0798288499005,None,2022-09-06-14:08:06.136611,643.0815649996512,643.38304529991,643.0815649996512,None,None,643.0815649996512,None,643.8973715499975,None,,,,22012,0002,2022_Sep_06_1357,localizer,2021.1.3,59.30765415803344,
block,faces,faces013.bmp,,,,,0,119,119,119,,,,,,,,,,,,,,,,,,,,,,,,,,,,,,,,,,,,,,,,,,None,,643.8973715499975,None,643.8973715499975,None,2022-09-06-14:08:06.954956,643.8979825000279,644.2000261000358,643.8979825000279,None,None,643.8979825000279,None,644.7035087499768,None,,,,22012,0002,2022_Sep_06_1357,localizer,2021.1.3,59.30765415803344,
block,faces,faces074.bmp,,,,,0,120,120,120,,,,,,,,,,,,,,,,,,,,,,,,,,,,,,,,,,,,,,,,,,None,,644.7035087499768,None,644.7035087499768,None,2022-09-06-14:08:07.761392,644.7078913999721,645.0157000999898,644.7078913999721,None,None,644.7078913999721,None,645.51576444963,None,,,,22012,0002,2022_Sep_06_1357,localizer,2021.1.3,59.30765415803344,
block_end,faces,faces079.bmp,,,,,0,121,121,121,,,,,,,,,,,,,,,,,,,,,,,,,,,,,,,,,,,,,,,,,,None,,645.51576444963,None,645.51576444963,None,2022-09-06-14:08:08.574990,645.5174149000086,645.830617999658,645.5174149000086,None,None,645.5174149000086,None,646.331041149702,None,,,,22012,0002,2022_Sep_06_1357,localizer,2021.1.3,59.30765415803344,
block_start,scrambled,scrambled088.bmp,,,,,0,122,122,122,,,,,,,,,,,,,,,,,,,,,,,,,,,,,,,,,,,,,,,,,,t,1.8174129999242723,646.330702799838,None,646.330702799838,None,2022-09-06-14:08:11.220505,648.165019699838,648.4803987997584,648.165019699838,None,None,648.165019699838,None,648.9801972498186,None,,,,22012,0002,2022_Sep_06_1357,localizer,2021.1.3,59.30765415803344,
block,scrambled,scrambled015.bmp,,,,,0,123,123,123,,,,,,,,,,,,,,,,,,,,,,,,,,,,,,,,,,,,,,,,,,None,,648.9801972498186,None,648.9801972498186,None,2022-09-06-14:08:12.037786,648.9820212996565,649.2829474997707,648.9820212996565,None,None,648.9820212996565,None,649.7818665498868,None,,,,22012,0002,2022_Sep_06_1357,localizer,2021.1.3,59.30765415803344,
block,scrambled,scrambled059.bmp,,,,,0,124,124,124,,,,,,,,,,,,,,,,,,,,,,,,,,,,,,,,,,,,,,,,,,None,,649.7818665498868,None,649.7818665498868,None,2022-09-06-14:08:12.843294,649.7985495999455,650.1137541998178,649.7985495999455,649.7985495999455,None,649.7985495999455,649.7985495999455,650.5971766499803,None,,,,22012,0002,2022_Sep_06_1357,localizer,2021.1.3,59.30765415803344,
block,scrambled,scrambled003.bmp,,,,,0,125,125,125,,,,,,,,,,,,,,,,,,,,,,,,,,,,,,,,,,,,,,,,,,None,,650.5971766499803,None,650.5971766499803,None,2022-09-06-14:08:13.655266,650.6037589996122,650.9163096998818,650.6037589996122,None,None,650.6037589996122,None,651.4159555499442,None,,,,22012,0002,2022_Sep_06_1357,localizer,2021.1.3,59.30765415803344,
block,scrambled,scrambled049.bmp,,,,,0,126,126,126,,,,,,,,,,,,,,,,,,,,,,,,,,,,,,,,,,,,,,,,,,None,,651.4159555499442,None,651.4159555499442,None,2022-09-06-14:08:14.476945,651.4297519000247,651.7334709996358,651.4297519000247,None,None,651.4297519000247,None,652.2305249496363,None,,,,22012,0002,2022_Sep_06_1357,localizer,2021.1.3,59.30765415803344,
block,scrambled,scrambled032.bmp,,,,,0,127,127,127,,,,,,,,,,,,,,,,,,,,,,,,,,,,,,,,,,,,,,,,,,None,,652.2305249496363,None,652.2305249496363,None,2022-09-06-14:08:15.288498,652.2314488999546,652.5306028998457,652.2314488999546,None,None,652.2314488999546,None,653.0305830500089,None,,,,22012,0002,2022_Sep_06_1357,localizer,2021.1.3,59.30765415803344,
block,scrambled,scrambled061.bmp,,,,,0,128,128,128,,,,,,,,,,,,,,,,,,,,,,,,,,,,,,,,,,,,,,,,,,None,,653.0305830500089,None,653.0305830500089,None,2022-09-06-14:08:16.089441,653.0314587997273,653.3324124999344,653.0314587997273,653.0314587997273,None,653.0314587997273,653.0314587997273,653.8339723496698,None,,,,22012,0002,2022_Sep_06_1357,localizer,2021.1.3,59.30765415803344,
block,scrambled,scrambled054.bmp,,,,,0,129,129,129,,,,,,,,,,,,,,,,,,,,,,,,,,,,,,,,,,,,,,,,,,None,,653.8339723496698,None,653.8339723496698,None,2022-09-06-14:08:16.898710,653.8417388997041,654.1471310998313,653.8417388997041,653.8417388997041,None,653.8417388997041,653.8417388997041,654.6474191498943,None,,,,22012,0002,2022_Sep_06_1357,localizer,2021.1.3,59.30765415803344,
block,scrambled,scrambled074.bmp,,,,,0,130,130,130,,,,,,,,,,,,,,,,,,,,,,,,,,,,,,,,,,,,,,,,,,None,,654.6474191498943,None,654.6474191498943,None,2022-09-06-14:08:17.705072,654.6485081999563,654.9704549997114,654.6485081999563,None,None,654.6485081999563,None,655.4485502498225,None,,,,22012,0002,2022_Sep_06_1357,localizer,2021.1.3,59.30765415803344,
block,scrambled,scrambled019.bmp,,,,,0,131,131,131,,,,,,,,,,,,,,,,,,,,,,,,,,,,,,,,,,,,,,,,,,None,,655.4485502498225,None,655.4485502498225,None,2022-09-06-14:08:18.510638,655.4531179997139,655.7637358997017,655.4531179997139,655.4531179997139,None,655.4531179997139,655.4531179997139,656.2548484498635,None,,,,22012,0002,2022_Sep_06_1357,localizer,2021.1.3,59.30765415803344,
block,scrambled,scrambled023.bmp,,,,,0,132,132,132,,,,,,,,,,,,,,,,,,,,,,,,,,,,,,,,,,,,,,,,,,None,,656.2548484498635,None,656.2548484498635,None,2022-09-06-14:08:19.318503,656.2699778997339,656.5805548997596,656.2699778997339,656.2699778997339,None,656.2699778997339,656.2699778997339,657.0638794497587,None,,,,22012,0002,2022_Sep_06_1357,localizer,2021.1.3,59.30765415803344,
block,scrambled,scrambled087.bmp,,,,,0,133,133,133,,,,,,,,,,,,,,,,,,,,,,,,,,,,,,,,,,,,,,,,,,None,,657.0638794497587,None,657.0638794497587,None,2022-09-06-14:08:20.120454,657.0646988996305,657.3643055995926,657.0646988996305,None,None,657.0646988996305,None,657.866298850067,None,,,,22012,0002,2022_Sep_06_1357,localizer,2021.1.3,59.30765415803344,
block,scrambled,scrambled021.bmp,,,,,0,134,134,134,,,,,,,,,,,,,,,,,,,,,,,,,,,,,,,,,,,,,,,,,,None,,657.866298850067,None,657.866298850067,None,2022-09-06-14:08:20.929862,657.8735888996162,658.184601099696,657.8735888996162,657.8735888996162,None,657.8735888996162,657.8735888996162,658.6869847498834,None,,,,22012,0002,2022_Sep_06_1357,localizer,2021.1.3,59.30765415803344,
block,scrambled,scrambled069.bmp,,,,,0,135,135,135,,,,,,,,,,,,,,,,,,,,,,,,,,,,,,,,,,,,,,,,,,None,,658.6869847498834,None,658.6869847498834,None,2022-09-06-14:08:21.752517,658.6976724998094,658.9970928998664,658.6976724998094,None,None,658.6976724998094,None,659.4997059497051,None,,,,22012,0002,2022_Sep_06_1357,localizer,2021.1.3,59.30765415803344,
block_end,scrambled,scrambled039.bmp,,,,,0,136,136,136,,,,,,,,,,,,,,,,,,,,,,,,,,,,,,,,,,,,,,,,,,None,,659.4997059497051,None,659.4997059497051,None,2022-09-06-14:08:22.559348,659.507914299611,659.8139181998558,659.507914299611,None,None,659.507914299611,None,660.3146103498526,None,,,,22012,0002,2022_Sep_06_1357,localizer,2021.1.3,59.30765415803344,
null_block,null_block,null_block.bmp,,,,,0,137,137,137,,,,,,,,,,,,,,,,,,,,,,,,,,,,,,,,,,,,,,,,,,t,1.833419400267303,660.3146131997928,None,660.3146131997928,None,2022-09-06-14:08:25.221015,662.1636125500314,None,662.1636125500314,None,None,662.1636125500314,None,662.1663923999295,None,,,,22012,0002,2022_Sep_06_1357,localizer,2021.1.3,59.30765415803344,
block_start,faces,faces012.bmp,,,,,0,138,138,138,,,,,,,,,,,,,,,,,,,,,,,,,,,,,,,,,,,,,,,,,,t,1.967658800072968,674.1805970999412,None,674.1805970999412,None,2022-09-06-14:08:39.222999,676.1666915998794,676.4646870996803,676.1666915998794,None,None,676.1666915998794,None,676.9804541500285,None,,,,22012,0002,2022_Sep_06_1357,localizer,2021.1.3,59.30765415803344,
block,faces,faces013.bmp,,,,,0,139,139,139,,,,,,,,,,,,,,,,,,,,,,,,,,,,,,,,,,,,,,,,,,None,,676.9804541500285,None,676.9804541500285,None,2022-09-06-14:08:40.036850,676.9814938995987,677.297128399834,676.9814938995987,None,None,676.9814938995987,None,677.7819943496958,None,,,,22012,0002,2022_Sep_06_1357,localizer,2021.1.3,59.30765415803344,
block,faces,faces065.bmp,,,,,0,140,140,140,,,,,,,,,,,,,,,,,,,,,,,,,,,,,,,,,,,,,,,,,,None,,677.7819943496958,None,677.7819943496958,None,2022-09-06-14:08:40.843703,677.7861079997383,678.0977056999691,677.7861079997383,677.7861079997383,None,677.7861079997383,677.7861079997383,678.5985991497524,None,,,,22012,0002,2022_Sep_06_1357,localizer,2021.1.3,59.30765415803344,
block,faces,faces027.bmp,,,,,0,141,141,141,,,,,,,,,,,,,,,,,,,,,,,,,,,,,,,,,,,,,,,,,,None,,678.5985991497524,None,678.5985991497524,None,2022-09-06-14:08:41.659099,678.6014948999509,678.8986076000147,678.6014948999509,None,None,678.6014948999509,None,679.4152358499356,None,,,,22012,0002,2022_Sep_06_1357,localizer,2021.1.3,59.30765415803344,
block,faces,faces050.bmp,,,,,0,142,142,142,,,,,,,,,,,,,,,,,,,,,,,,,,,,,,,,,,,,,,,,,,None,,679.4152358499356,None,679.4152358499356,None,2022-09-06-14:08:42.474940,679.4266605000012,679.7378065995872,679.4266605000012,None,None,679.4266605000012,None,680.2372197498568,None,,,,22012,0002,2022_Sep_06_1357,localizer,2021.1.3,59.30765415803344,
block,faces,faces059.bmp,,,,,0,143,143,143,,,,,,,,,,,,,,,,,,,,,,,,,,,,,,,,,,,,,,,,,,None,,680.2372197498568,None,680.2372197498568,None,2022-09-06-14:08:43.298790,680.2506518997252,680.5644962997176,680.2506518997252,None,None,680.2506518997252,None,681.0486260497943,None,,,,22012,0002,2022_Sep_06_1357,localizer,2021.1.3,59.30765415803344,
block,faces,faces031.bmp,,,,,0,144,144,144,,,,,,,,,,,,,,,,,,,,,,,,,,,,,,,,,,,,,,,,,,None,,681.0486260497943,None,681.0486260497943,None,2022-09-06-14:08:44.108284,681.0617309999652,681.3639281997457,681.0617309999652,None,None,681.0617309999652,None,681.8672742498107,None,,,,22012,0002,2022_Sep_06_1357,localizer,2021.1.3,59.30765415803344,
block,faces,faces069.bmp,,,,,0,145,145,145,,,,,,,,,,,,,,,,,,,,,,,,,,,,,,,,,,,,,,,,,,None,,681.8672742498107,None,681.8672742498107,None,2022-09-06-14:08:44.928931,681.8727023997344,682.1810710998252,681.8727023997344,None,None,681.8727023997344,None,682.6805246499367,None,,,,22012,0002,2022_Sep_06_1357,localizer,2021.1.3,59.30765415803344,
block,faces,faces033.bmp,,,,,0,146,146,146,,,,,,,,,,,,,,,,,,,,,,,,,,,,,,,,,,,,,,,,,,None,,682.6805246499367,None,682.6805246499367,None,2022-09-06-14:08:45.737922,682.6820954997092,682.9972616997547,682.6820954997092,None,None,682.6820954997092,None,683.4821374499239,None,,,,22012,0002,2022_Sep_06_1357,localizer,2021.1.3,59.30765415803344,
block,faces,faces056.bmp,,,,,0,147,147,147,,,,,,,,,,,,,,,,,,,,,,,,,,,,,,,,,,,,,,,,,,None,,683.4821374499239,None,683.4821374499239,None,2022-09-06-14:08:46.543698,683.4974018000066,683.7979883998632,683.4974018000066,683.4974018000066,None,683.4974018000066,683.4974018000066,684.2971942498349,None,,,,22012,0002,2022_Sep_06_1357,localizer,2021.1.3,59.30765415803344,
block,faces,faces026.bmp,,,,,0,148,148,148,,,,,,,,,,,,,,,,,,,,,,,,,,,,,,,,,,,,,,,,,,None,,684.2971942498349,None,684.2971942498349,None,2022-09-06-14:08:47.354414,684.2985701998696,684.5993041996844,684.2985701998696,None,None,684.2985701998696,None,685.0995133499615,None,,,,22012,0002,2022_Sep_06_1357,localizer,2021.1.3,59.30765415803344,
block,faces,faces049.bmp,,,,,0,149,149,149,,,,,,,,,,,,,,,,,,,,,,,,,,,,,,,,,,,,,,,,,,None,,685.0995133499615,None,685.0995133499615,None,2022-09-06-14:08:48.163030,685.1067851996049,685.4150102999993,685.1067851996049,685.1067851996049,None,685.1067851996049,685.1067851996049,685.913844349701,None,,,,22012,0002,2022_Sep_06_1357,localizer,2021.1.3,59.30765415803344,
block,faces,faces052.bmp,,,,,0,150,150,150,,,,,,,,,,,,,,,,,,,,,,,,,,,,,,,,,,,,,,,,,,None,,685.913844349701,None,685.913844349701,None,2022-09-06-14:08:48.971841,685.9154021996073,686.2306110998616,685.9154021996073,None,None,685.9154021996073,None,686.7307153496891,None,,,,22012,0002,2022_Sep_06_1357,localizer,2021.1.3,59.30765415803344,
block,faces,faces081.bmp,,,,,0,151,151,151,,,,,,,,,,,,,,,,,,,,,,,,,,,,,,,,,,,,,,,,,,None,,686.7307153496891,None,686.7307153496891,None,2022-09-06-14:08:49.788632,686.7318425998092,687.04745849967,686.7318425998092,None,None,686.7318425998092,None,687.5329742500559,None,,,,22012,0002,2022_Sep_06_1357,localizer,2021.1.3,59.30765415803344,
block_end,faces,faces071.bmp,,,,,0,152,152,152,,,,,,,,,,,,,,,,,,,,,,,,,,,,,,,,,,,,,,,,,,None,,687.5329742500559,None,687.5329742500559,None,2022-09-06-14:08:50.596642,687.5642347997054,687.8637419999577,687.5642347997054,687.5642347997054,None,687.5642347997054,687.5642347997054,688.3471165498719,None,,,,22012,0002,2022_Sep_06_1357,localizer,2021.1.3,59.30765415803344,
block_start,objects,objects032.bmp,,,,,0,153,153,153,,,,,,,,,,,,,,,,,,,,,,,,,,,,,,,,,,,,,,,,,,t,1.7998412000015378,688.347275799606,None,688.347275799606,None,2022-09-06-14:08:53.222451,690.1650608000346,690.4808061998338,690.1650608000346,None,None,690.1650608000346,None,690.970192149654,None,,,,22012,0002,2022_Sep_06_1357,localizer,2021.1.3,59.30765415803344,
block,objects,objects057.bmp,,,,,0,154,154,154,,,,,,,,,,,,,,,,,,,,,,,,,,,,,,,,,,,,,,,,,,None,,690.970192149654,None,690.970192149654,None,2022-09-06-14:08:54.033595,690.9763762997463,691.2806404996663,690.9763762997463,None,None,690.9763762997463,None,691.781482649874,None,,,,22012,0002,2022_Sep_06_1357,localizer,2021.1.3,59.30765415803344,
block,objects,objects055.bmp,,,,,0,155,155,155,,,,,,,,,,,,,,,,,,,,,,,,,,,,,,,,,,,,,,,,,,None,,691.781482649874,None,691.781482649874,None,2022-09-06-14:08:54.840240,691.7901304997504,692.1038199998438,691.7901304997504,None,None,691.7901304997504,None,692.5981861496344,None,,,,22012,0002,2022_Sep_06_1357,localizer,2021.1.3,59.30765415803344,
block,objects,objects058.bmp,,,,,0,156,156,156,,,,,,,,,,,,,,,,,,,,,,,,,,,,,,,,,,,,,,,,,,None,,692.5981861496344,None,692.5981861496344,None,2022-09-06-14:08:55.656756,692.6103538000025,692.9139727996662,692.6103538000025,None,None,692.6103538000025,None,693.4140342496336,None,,,,22012,0002,2022_Sep_06_1357,localizer,2021.1.3,59.30765415803344,
block,objects,objects013.bmp,,,,,0,157,157,157,,,,,,,,,,,,,,,,,,,,,,,,,,,,,,,,,,,,,,,,,,None,,693.4140342496336,None,693.4140342496336,None,2022-09-06-14:08:56.471690,693.4232031996362,693.7306583998725,693.4232031996362,None,None,693.4232031996362,None,694.2306379497983,None,,,,22012,0002,2022_Sep_06_1357,localizer,2021.1.3,59.30765415803344,
block,objects,objects021.bmp,,,,,0,158,158,158,,,,,,,,,,,,,,,,,,,,,,,,,,,,,,,,,,,,,,,,,,None,,694.2306379497983,None,694.2306379497983,None,2022-09-06-14:08:57.288224,694.2319548996165,694.5537468995899,694.2319548996165,None,None,694.2319548996165,None,695.0354279497639,None,,,,22012,0002,2022_Sep_06_1357,localizer,2021.1.3,59.30765415803344,
block,objects,objects024.bmp,,,,,0,159,159,159,,,,,,,,,,,,,,,,,,,,,,,,,,,,,,,,,,,,,,,,,,None,,695.0354279497639,None,695.0354279497639,None,2022-09-06-14:08:58.097474,695.0402493998408,695.3515033000149,695.0402493998408,None,None,695.0402493998408,None,695.847434549965,None,,,,22012,0002,2022_Sep_06_1357,localizer,2021.1.3,59.30765415803344,
block,objects,objects049.bmp,,,,,0,160,160,160,,,,,,,,,,,,,,,,,,,,,,,,,,,,,,,,,,,,,,,,,,None,,695.847434549965,None,695.847434549965,None,2022-09-06-14:08:58.905023,695.8481794996187,696.1639029998332,695.8481794996187,None,None,695.8481794996187,None,696.6477161500603,None,,,,22012,0002,2022_Sep_06_1357,localizer,2021.1.3,59.30765415803344,
block,objects,objects073.bmp,,,,,0,161,161,161,,,,,,,,,,,,,,,,,,,,,,,,,,,,,,,,,,,,,,,,,,None,,696.6477161500603,None,696.6477161500603,None,2022-09-06-14:08:59.708286,696.6505865999497,696.9637635997497,696.6505865999497,696.6505865999497,None,696.6505865999497,696.6505865999497,697.4645985499025,None,,,,22012,0002,2022_Sep_06_1357,localizer,2021.1.3,59.30765415803344,
block,objects,objects037.bmp,,,,,0,162,162,162,,,,,,,,,,,,,,,,,,,,,,,,,,,,,,,,,,,,,,,,,,None,,697.4645985499025,None,697.4645985499025,None,2022-09-06-14:09:00.522503,697.4661911996081,697.7807571999729,697.4661911996081,None,None,697.4661911996081,None,698.2807184498757,None,,,,22012,0002,2022_Sep_06_1357,localizer,2021.1.3,59.30765415803344,
block,objects,objects074.bmp,,,,,0,163,163,163,,,,,,,,,,,,,,,,,,,,,,,,,,,,,,,,,,,,,,,,,,None,,698.2807184498757,None,698.2807184498757,None,2022-09-06-14:09:01.338307,698.2816138998605,698.5808772998862,698.2816138998605,None,None,698.2816138998605,None,699.0808021499776,None,,,,22012,0002,2022_Sep_06_1357,localizer,2021.1.3,59.30765415803344,
block,objects,objects015.bmp,,,,,0,164,164,164,,,,,,,,,,,,,,,,,,,,,,,,,,,,,,,,,,,,,,,,,,None,,699.0808021499776,None,699.0808021499776,None,2022-09-06-14:09:02.140385,699.0821038000286,699.397272199858,699.0821038000286,699.0821038000286,None,699.0821038000286,699.0821038000286,699.8823618496768,None,,,,22012,0002,2022_Sep_06_1357,localizer,2021.1.3,59.30765415803344,
block,objects,objects014.bmp,,,,,0,165,165,165,,,,,,,,,,,,,,,,,,,,,,,,,,,,,,,,,,,,,,,,,,None,,699.8823618496768,None,699.8823618496768,None,2022-09-06-14:09:02.941438,699.8833665000275,700.2035934999585,699.8833665000275,699.8833665000275,None,699.8833665000275,699.8833665000275,700.6872427499853,None,,,,22012,0002,2022_Sep_06_1357,localizer,2021.1.3,59.30765415803344,
block,objects,objects064.bmp,,,,,0,166,166,166,,,,,,,,,,,,,,,,,,,,,,,,,,,,,,,,,,,,,,,,,,None,,700.6872427499853,None,700.6872427499853,None,2022-09-06-14:09:03.750834,700.705065799877,701.0148505996913,700.705065799877,700.705065799877,None,700.705065799877,700.705065799877,701.4975715497509,None,,,,22012,0002,2022_Sep_06_1357,localizer,2021.1.3,59.30765415803344,
block_end,objects,objects064.bmp,,,,,0,167,167,167,,,,,,,,,,,,,,,,,,,,,,,,,,,,,,,,,,,,,,,,,,None,,701.4975715497509,None,701.4975715497509,None,2022-09-06-14:09:04.555157,701.4984871000051,701.8140507997014,701.4984871000051,None,y,701.4984871000051,None,702.3181360498071,None,0.684466099832207,,,22012,0002,2022_Sep_06_1357,localizer,2021.1.3,59.30765415803344,
block_start,scenes,scenes061.bmp,,,,,0,168,168,168,,,,,,,,,,,,,,,,,,,,,,,,,,,,,,,,,,,,,,,,,,t,1.8337110998108983,702.3135555000044,None,702.3135555000044,None,2022-09-06-14:09:07.229269,704.1741026998498,704.4844024996273,704.1741026998498,None,None,704.1741026998498,None,704.9810553499498,None,,,,22012,0002,2022_Sep_06_1357,localizer,2021.1.3,59.30765415803344,
block,scenes,scenes063.bmp,,,,,0,169,169,169,,,,,,,,,,,,,,,,,,,,,,,,,,,,,,,,,,,,,,,,,,None,,704.9810553499498,None,704.9810553499498,None,2022-09-06-14:09:08.038879,704.9909166996367,705.303869899828,704.9909166996367,None,None,704.9909166996367,None,705.7972139496356,None,,,,22012,0002,2022_Sep_06_1357,localizer,2021.1.3,59.30765415803344,
block,scenes,scenes029.bmp,,,,,0,170,170,170,,,,,,,,,,,,,,,,,,,,,,,,,,,,,,,,,,,,,,,,,,None,,705.7972139496356,None,705.7972139496356,None,2022-09-06-14:09:08.853499,705.7988430997357,706.0979327997193,705.7988430997357,None,None,705.7988430997357,None,706.5997023497708,None,,,,22012,0002,2022_Sep_06_1357,localizer,2021.1.3,59.30765415803344,
block,scenes,scenes073.bmp,,,,,0,171,171,171,,,,,,,,,,,,,,,,,,,,,,,,,,,,,,,,,,,,,,,,,,None,,706.5997023497708,None,706.5997023497708,None,2022-09-06-14:09:09.662868,706.608421199955,706.9143675998785,706.608421199955,706.608421199955,None,706.608421199955,706.608421199955,707.4142855498009,None,,,,22012,0002,2022_Sep_06_1357,localizer,2021.1.3,59.30765415803344,
block,scenes,scenes071.bmp,,,,,0,172,172,172,,,,,,,,,,,,,,,,,,,,,,,,,,,,,,,,,,,,,,,,,,None,,707.4142855498009,None,707.4142855498009,None,2022-09-06-14:09:10.470878,707.4157232996076,707.7372789997607,707.4157232996076,None,None,707.4157232996076,None,708.2207084497437,None,,,,22012,0002,2022_Sep_06_1357,localizer,2021.1.3,59.30765415803344,
block,scenes,scenes022.bmp,,,,,0,173,173,173,,,,,,,,,,,,,,,,,,,,,,,,,,,,,,,,,,,,,,,,,,None,,708.2207084497437,None,708.2207084497437,None,2022-09-06-14:09:11.282284,708.2367744999938,708.5474704997614,708.2367744999938,None,None,708.2367744999938,None,709.0341132496484,None,,,,22012,0002,2022_Sep_06_1357,localizer,2021.1.3,59.30765415803344,
block,scenes,scenes037.bmp,,,,,0,174,174,174,,,,,,,,,,,,,,,,,,,,,,,,,,,,,,,,,,,,,,,,,,None,,709.0341132496484,None,709.0341132496484,None,2022-09-06-14:09:12.096701,709.0381842995994,709.3474085000344,709.0381842995994,None,None,709.0381842995994,None,709.8475390499458,None,,,,22012,0002,2022_Sep_06_1357,localizer,2021.1.3,59.30765415803344,
block,scenes,scenes001.bmp,,,,,0,175,175,175,,,,,,,,,,,,,,,,,,,,,,,,,,,,,,,,,,,,,,,,,,None,,709.8475390499458,None,709.8475390499458,None,2022-09-06-14:09:12.905128,709.8525638999417,710.1640359996818,709.8525638999417,None,None,709.8525638999417,None,710.6639708498493,None,,,,22012,0002,2022_Sep_06_1357,localizer,2021.1.3,59.30765415803344,
block,scenes,scenes044.bmp,,,,,0,176,176,176,,,,,,,,,,,,,,,,,,,,,,,,,,,,,,,,,,,,,,,,,,None,,710.6639708498493,None,710.6639708498493,None,2022-09-06-14:09:13.721240,710.665780399926,710.9804357998073,710.665780399926,None,None,710.665780399926,None,711.480695449654,None,,,,22012,0002,2022_Sep_06_1357,localizer,2021.1.3,59.30765415803344,
block,scenes,scenes013.bmp,,,,,0,177,177,177,,,,,,,,,,,,,,,,,,,,,,,,,,,,,,,,,,,,,,,,,,None,,711.480695449654,None,711.480695449654,None,2022-09-06-14:09:14.538284,711.4856387996115,711.7981987996027,711.4856387996115,None,None,711.4856387996115,None,712.298972849641,None,,,,22012,0002,2022_Sep_06_1357,localizer,2021.1.3,59.30765415803344,
block,scenes,scenes091.bmp,,,,,0,178,178,178,,,,,,,,,,,,,,,,,,,,,,,,,,,,,,,,,,,,,,,,,,None,,712.298972849641,None,712.298972849641,None,2022-09-06-14:09:15.359518,712.3134518000297,712.614081799984,712.3134518000297,None,None,712.3134518000297,None,713.1151704498567,None,,,,22012,0002,2022_Sep_06_1357,localizer,2021.1.3,59.30765415803344,
block,scenes,scenes036.bmp,,,,,0,179,179,179,,,,,,,,,,,,,,,,,,,,,,,,,,,,,,,,,,,,,,,,,,None,,713.1151704498567,None,713.1151704498567,None,2022-09-06-14:09:16.173448,713.1166592999361,713.4306479999796,713.1166592999361,None,None,713.1166592999361,None,713.9316349498928,None,,,,22012,0002,2022_Sep_06_1357,localizer,2021.1.3,59.30765415803344,
block,scenes,scenes015.bmp,,,,,0,180,180,180,,,,,,,,,,,,,,,,,,,,,,,,,,,,,,,,,,,,,,,,,,None,,713.9316349498928,None,713.9316349498928,None,2022-09-06-14:09:16.990269,713.932612199802,714.2312052999623,713.932612199802,None,None,713.932612199802,None,714.7372800497338,None,,,,22012,0002,2022_Sep_06_1357,localizer,2021.1.3,59.30765415803344,
block,scenes,scenes079.bmp,,,,,0,181,181,181,,,,,,,,,,,,,,,,,,,,,,,,,,,,,,,,,,,,,,,,,,None,,714.7372800497338,None,714.7372800497338,None,2022-09-06-14:09:17.801845,714.7456940999255,715.0474213999696,714.7456940999255,None,None,714.7456940999255,None,715.5476494500414,None,,,,22012,0002,2022_Sep_06_1357,localizer,2021.1.3,59.30765415803344,
block_end,scenes,scenes011.bmp,,,,,0,182,182,182,,,,,,,,,,,,,,,,,,,,,,,,,,,,,,,,,,,,,,,,,,None,,715.5476494500414,None,715.5476494500414,None,2022-09-06-14:09:18.605536,715.5488191000186,715.847512499895,715.5488191000186,None,None,715.5488191000186,None,716.3640847498551,None,,,,22012,0002,2022_Sep_06_1357,localizer,2021.1.3,59.30765415803344,
block_start,scenes,scenes010.bmp,,,,,0,183,183,183,,,,,,,,,,,,,,,,,,,,,,,,,,,,,,,,,,,,,,,,,,t,1.7833440001122653,716.3639585999772,None,716.3639585999772,None,2022-09-06-14:09:21.222464,718.1657971995883,718.4649950000457,718.1657971995883,None,None,718.1657971995883,None,718.969918549899,None,,,,22012,0002,2022_Sep_06_1357,localizer,2021.1.3,59.30765415803344,
block,scenes,scenes014.bmp,,,,,0,184,184,184,,,,,,,,,,,,,,,,,,,,,,,,,,,,,,,,,,,,,,,,,,None,,718.969918549899,None,718.969918549899,None,2022-09-06-14:09:22.033437,718.9772441997193,719.2814837000333,718.9772441997193,None,None,718.9772441997193,None,719.7850004498847,None,,,,22012,0002,2022_Sep_06_1357,localizer,2021.1.3,59.30765415803344,
block,scenes,scenes092.bmp,,,,,0,185,185,185,,,,,,,,,,,,,,,,,,,,,,,,,,,,,,,,,,,,,,,,,,None,,719.7850004498847,None,719.7850004498847,None,2022-09-06-14:09:22.849312,719.7931752996519,720.0972788999788,719.7931752996519,None,None,719.7931752996519,None,720.6037003499456,None,,,,22012,0002,2022_Sep_06_1357,localizer,2021.1.3,59.30765415803344,
block,scenes,scenes092.bmp,,,,,0,186,186,186,,,,,,,,,,,,,,,,,,,,,,,,,,,,,,,,,,,,,,,,,,None,,720.6037003499456,None,720.6037003499456,None,2022-09-06-14:09:23.665272,720.6080737998709,720.9144488996826,720.6080737998709,None,y,720.6080737998709,None,721.4141935500317,None,0.4381492002867162,,,22012,0002,2022_Sep_06_1357,localizer,2021.1.3,59.30765415803344,
block,scenes,scenes078.bmp,,,,,0,187,187,187,,,,,,,,,,,,,,,,,,,,,,,,,,,,,,,,,,,,,,,,,,None,,721.4141935500317,None,721.4141935500317,None,2022-09-06-14:09:24.471780,721.415157799609,721.7145628998987,721.415157799609,None,None,721.415157799609,None,722.2205848497339,None,,,,22012,0002,2022_Sep_06_1357,localizer,2021.1.3,59.30765415803344,
block,scenes,scenes001.bmp,,,,,0,188,188,188,,,,,,,,,,,,,,,,,,,,,,,,,,,,,,,,,,,,,,,,,,None,,722.2205848497339,None,722.2205848497339,None,2022-09-06-14:09:25.283048,722.2268210998736,722.530981999822,722.2268210998736,None,None,722.2268210998736,None,723.030892250035,None,,,,22012,0002,2022_Sep_06_1357,localizer,2021.1.3,59.30765415803344,
block,scenes,scenes007.bmp,,,,,0,189,189,189,,,,,,,,,,,,,,,,,,,,,,,,,,,,,,,,,,,,,,,,,,None,,723.030892250035,None,723.030892250035,None,2022-09-06-14:09:26.088957,723.0318415998481,723.331771899946,723.0318415998481,None,None,723.0318415998481,None,723.8317076497711,None,,,,22012,0002,2022_Sep_06_1357,localizer,2021.1.3,59.30765415803344,
block,scenes,scenes035.bmp,,,,,0,190,190,190,,,,,,,,,,,,,,,,,,,,,,,,,,,,,,,,,,,,,,,,,,None,,723.8317076497711,None,723.8317076497711,None,2022-09-06-14:09:26.892277,723.8345943000168,724.1383682996966,723.8345943000168,723.8345943000168,None,723.8345943000168,723.8345943000168,724.6355583499186,None,,,,22012,0002,2022_Sep_06_1357,localizer,2021.1.3,59.30765415803344,
block,scenes,scenes057.bmp,,,,,0,191,191,191,,,,,,,,,,,,,,,,,,,,,,,,,,,,,,,,,,,,,,,,,,None,,724.6355583499186,None,724.6355583499186,None,2022-09-06-14:09:27.699188,724.6420278996229,724.9481048998423,724.6420278996229,724.6420278996229,None,724.6420278996229,724.6420278996229,725.4489307500422,None,,,,22012,0002,2022_Sep_06_1357,localizer,2021.1.3,59.30765415803344,
block,scenes,scenes058.bmp,,,,,0,192,192,192,,,,,,,,,,,,,,,,,,,,,,,,,,,,,,,,,,,,,,,,,,None,,725.4489307500422,None,725.4489307500422,None,2022-09-06-14:09:28.508640,725.452112399973,725.7651027999818,725.452112399973,None,None,725.452112399973,None,726.265541949682,None,,,,22012,0002,2022_Sep_06_1357,localizer,2021.1.3,59.30765415803344,
block,scenes,scenes031.bmp,,,,,0,193,193,193,,,,,,,,,,,,,,,,,,,,,,,,,,,,,,,,,,,,,,,,,,None,,726.265541949682,None,726.265541949682,None,2022-09-06-14:09:29.324533,726.2791372998618,726.5807690997608,726.2791372998618,None,None,726.2791372998618,None,727.0809586498887,None,,,,22012,0002,2022_Sep_06_1357,localizer,2021.1.3,59.30765415803344,
block,scenes,scenes080.bmp,,,,,0,194,194,194,,,,,,,,,,,,,,,,,,,,,,,,,,,,,,,,,,,,,,,,,,None,,727.0809586498887,None,727.0809586498887,None,2022-09-06-14:09:30.138541,727.0818634997122,727.3808830999769,727.0818634997122,None,None,727.0818634997122,None,727.8818081500009,None,,,,22012,0002,2022_Sep_06_1357,localizer,2021.1.3,59.30765415803344,
block,scenes,scenes045.bmp,,,,,0,195,195,195,,,,,,,,,,,,,,,,,,,,,,,,,,,,,,,,,,,,,,,,,,None,,727.8818081500009,None,727.8818081500009,None,2022-09-06-14:09:30.942565,727.8849775996059,728.2035344997421,727.8849775996059,727.8849775996059,None,727.8849775996059,727.8849775996059,728.6873322496191,None,,,,22012,0002,2022_Sep_06_1357,localizer,2021.1.3,59.30765415803344,
block,scenes,scenes059.bmp,,,,,0,196,196,196,,,,,,,,,,,,,,,,,,,,,,,,,,,,,,,,,,,,,,,,,,None,,728.6873322496191,None,728.6873322496191,None,2022-09-06-14:09:31.754882,728.7164261997677,729.0381404999644,728.7164261997677,728.7164261997677,None,728.7164261997677,728.7164261997677,729.5042963497341,None,,,,22012,0002,2022_Sep_06_1357,localizer,2021.1.3,59.30765415803344,
block_end,scenes,scenes034.bmp,,,,,0,197,197,197,,,,,,,,,,,,,,,,,,,,,,,,,,,,,,,,,,,,,,,,,,None,,729.5042963497341,None,729.5042963497341,None,2022-09-06-14:09:32.565858,729.5218104999512,729.8307856996544,729.5218104999512,None,None,729.5218104999512,None,730.3210968500003,None,,,,22012,0002,2022_Sep_06_1357,localizer,2021.1.3,59.30765415803344,
block_start,objects,objects069.bmp,,,,,0,198,198,198,,,,,,,,,,,,,,,,,,,,,,,,,,,,,,,,,,,,,,,,,,t,1.8274055002257228,730.3195102997124,None,730.3195102997124,None,2022-09-06-14:09:35.221919,732.166926200036,732.4814467998222,732.166926200036,None,None,732.166926200036,None,732.9811264499091,None,,,,22012,0002,2022_Sep_06_1357,localizer,2021.1.3,59.30765415803344,
block,objects,objects070.bmp,,,,,0,199,199,199,,,,,,,,,,,,,,,,,,,,,,,,,,,,,,,,,,,,,,,,,,None,,732.9811264499091,None,732.9811264499091,None,2022-09-06-14:09:36.038513,732.9818906998262,733.2810907997191,732.9818906998262,None,None,732.9818906998262,None,733.7817617500201,None,,,,22012,0002,2022_Sep_06_1357,localizer,2021.1.3,59.30765415803344,
block,objects,objects046.bmp,,,,,0,200,200,200,,,,,,,,,,,,,,,,,,,,,,,,,,,,,,,,,,,,,,,,,,None,,733.7817617500201,None,733.7817617500201,None,2022-09-06-14:09:36.842481,733.7849462996237,734.0985182998702,733.7849462996237,733.7849462996237,None,733.7849462996237,733.7849462996237,734.5979874496348,None,,,,22012,0002,2022_Sep_06_1357,localizer,2021.1.3,59.30765415803344,
block,objects,objects038.bmp,,,,,0,201,201,201,,,,,,,,,,,,,,,,,,,,,,,,,,,,,,,,,,,,,,,,,,None,,734.5979874496348,None,734.5979874496348,None,2022-09-06-14:09:37.655486,734.5986425997689,734.9010088997893,734.5986425997689,None,None,734.5986425997689,None,735.3979180496186,None,,,,22012,0002,2022_Sep_06_1357,localizer,2021.1.3,59.30765415803344,
block,objects,objects028.bmp,,,,,0,202,202,202,,,,,,,,,,,,,,,,,,,,,,,,,,,,,,,,,,,,,,,,,,None,,735.3979180496186,None,735.3979180496186,None,2022-09-06-14:09:38.457587,735.3997895997018,735.7141857999377,735.3997895997018,735.3997895997018,None,735.3997895997018,735.3997895997018,736.2143740499392,None,,,,22012,0002,2022_Sep_06_1357,localizer,2021.1.3,59.30765415803344,
block,objects,objects021.bmp,,,,,0,203,203,203,,,,,,,,,,,,,,,,,,,,,,,,,,,,,,,,,,,,,,,,,,None,,736.2143740499392,None,736.2143740499392,None,2022-09-06-14:09:39.271960,736.2152929999866,736.5311834998429,736.2152929999866,None,None,736.2152929999866,None,737.0146853499115,None,,,,22012,0002,2022_Sep_06_1357,localizer,2021.1.3,59.30765415803344,
block,objects,objects050.bmp,,,,,0,204,204,204,,,,,,,,,,,,,,,,,,,,,,,,,,,,,,,,,,,,,,,,,,None,,737.0146853499115,None,737.0146853499115,None,2022-09-06-14:09:40.074349,737.0163035998121,737.3350004996173,737.0163035998121,737.0163035998121,None,737.0163035998121,737.0163035998121,737.8165447496809,None,,,,22012,0002,2022_Sep_06_1357,localizer,2021.1.3,59.30765415803344,
block,objects,objects039.bmp,,,,,0,205,205,205,,,,,,,,,,,,,,,,,,,,,,,,,,,,,,,,,,,,,,,,,,None,,737.8165447496809,None,737.8165447496809,None,2022-09-06-14:09:40.880096,737.8228772999719,738.1312001999468,737.8228772999719,737.8228772999719,None,737.8228772999719,737.8228772999719,738.6323704499752,None,,,,22012,0002,2022_Sep_06_1357,localizer,2021.1.3,59.30765415803344,
block,objects,objects031.bmp,,,,,0,206,206,206,,,,,,,,,,,,,,,,,,,,,,,,,,,,,,,,,,,,,,,,,,None,,738.6323704499752,None,738.6323704499752,None,2022-09-06-14:09:41.690663,738.6378550999798,738.9476565998048,738.6378550999798,None,None,738.6378550999798,None,739.4489953498356,None,,,,22012,0002,2022_Sep_06_1357,localizer,2021.1.3,59.30765415803344,
block,objects,objects056.bmp,,,,,0,207,207,207,,,,,,,,,,,,,,,,,,,,,,,,,,,,,,,,,,,,,,,,,,None,,739.4489953498356,None,739.4489953498356,None,2022-09-06-14:09:42.507560,739.4646813999861,739.7671222998761,739.4646813999861,None,None,739.4646813999861,None,740.2645019496791,None,,,,22012,0002,2022_Sep_06_1357,localizer,2021.1.3,59.30765415803344,
block,objects,objects006.bmp,,,,,0,208,208,208,,,,,,,,,,,,,,,,,,,,,,,,,,,,,,,,,,,,,,,,,,None,,740.2645019496791,None,740.2645019496791,None,2022-09-06-14:09:43.328043,740.2846074998379,740.5840253997594,740.2846074998379,None,None,740.2846074998379,None,741.0811917496845,None,,,,22012,0002,2022_Sep_06_1357,localizer,2021.1.3,59.30765415803344,
block,objects,objects034.bmp,,,,,0,209,209,209,,,,,,,,,,,,,,,,,,,,,,,,,,,,,,,,,,,,,,,,,,None,,741.0811917496845,None,741.0811917496845,None,2022-09-06-14:09:44.139367,741.0829813997261,741.3874031999148,741.0829813997261,None,None,741.0829813997261,None,741.8833675500006,None,,,,22012,0002,2022_Sep_06_1357,localizer,2021.1.3,59.30765415803344,
block,objects,objects060.bmp,,,,,0,210,210,210,,,,,,,,,,,,,,,,,,,,,,,,,,,,,,,,,,,,,,,,,,None,,741.8833675500006,None,741.8833675500006,None,2022-09-06-14:09:44.947099,741.8908601999283,742.1974026998505,741.8908601999283,741.8908601999283,None,741.8908601999283,741.8908601999283,742.699695449695,None,,,,22012,0002,2022_Sep_06_1357,localizer,2021.1.3,59.30765415803344,
block,objects,objects085.bmp,,,,,0,211,211,211,,,,,,,,,,,,,,,,,,,,,,,,,,,,,,,,,,,,,,,,,,None,,742.699695449695,None,742.699695449695,None,2022-09-06-14:09:45.757975,742.6989139998332,742.9986450998113,742.6989139998332,None,None,742.6989139998332,None,743.5145211498253,None,,,,22012,0002,2022_Sep_06_1357,localizer,2021.1.3,59.30765415803344,
block_end,objects,objects032.bmp,,,,,0,212,212,212,,,,,,,,,,,,,,,,,,,,,,,,,,,,,,,,,,,,,,,,,,None,,743.5145211498253,None,743.5145211498253,None,2022-09-06-14:09:46.572021,743.5152874998748,743.8144655996002,743.5152874998748,None,None,743.5152874998748,None,744.3162796496414,None,,,,22012,0002,2022_Sep_06_1357,localizer,2021.1.3,59.30765415803344,
block_start,scrambled,scrambled030.bmp,,,,,0,213,213,213,,,,,,,,,,,,,,,,,,,,,,,,,,,,,,,,,,,,,,,,,,t,1.8307582000270486,744.3162941997871,None,744.3162941997871,None,2022-09-06-14:09:49.221299,746.1745678996667,746.4805148998275,746.1745678996667,None,None,746.1745678996667,None,746.9825592496433,None,,,,22012,0002,2022_Sep_06_1357,localizer,2021.1.3,59.30765415803344,
block,scrambled,scrambled012.bmp,,,,,0,214,214,214,,,,,,,,,,,,,,,,,,,,,,,,,,,,,,,,,,,,,,,,,,None,,746.9825592496433,None,746.9825592496433,None,2022-09-06-14:09:50.044289,746.9867278998718,747.2982116998173,746.9867278998718,None,None,746.9867278998718,None,747.79856265001,None,,,,22012,0002,2022_Sep_06_1357,localizer,2021.1.3,59.30765415803344,
block,scrambled,scrambled075.bmp,,,,,0,215,215,215,,,,,,,,,,,,,,,,,,,,,,,,,,,,,,,,,,,,,,,,,,None,,747.79856265001,None,747.79856265001,None,2022-09-06-14:09:50.857281,747.8089293995872,748.1153257996775,747.8089293995872,None,None,747.8089293995872,None,748.6167151498609,None,,,,22012,0002,2022_Sep_06_1357,localizer,2021.1.3,59.30765415803344,
block,scrambled,scrambled003.bmp,,,,,0,216,216,216,,,,,,,,,,,,,,,,,,,,,,,,,,,,,,,,,,,,,,,,,,None,,748.6167151498609,None,748.6167151498609,None,2022-09-06-14:09:51.677390,748.6207778998651,748.9314602999948,748.6207778998651,None,None,748.6207778998651,None,749.4310773498379,None,,,,22012,0002,2022_Sep_06_1357,localizer,2021.1.3,59.30765415803344,
block,scrambled,scrambled011.bmp,,,,,0,217,217,217,,,,,,,,,,,,,,,,,,,,,,,,,,,,,,,,,,,,,,,,,,None,,749.4310773498379,None,749.4310773498379,None,2022-09-06-14:09:52.488840,749.4320711996406,749.7478876998648,749.4320711996406,None,None,749.4320711996406,None,750.2324781500735,None,,,,22012,0002,2022_Sep_06_1357,localizer,2021.1.3,59.30765415803344,
block,scrambled,scrambled016.bmp,,,,,0,218,218,218,,,,,,,,,,,,,,,,,,,,,,,,,,,,,,,,,,,,,,,,,,None,,750.2324781500735,None,750.2324781500735,None,2022-09-06-14:09:53.293691,750.2361099999398,750.5473646996543,750.2361099999398,750.2361099999398,None,750.2361099999398,750.2361099999398,751.0483818500303,None,,,,22012,0002,2022_Sep_06_1357,localizer,2021.1.3,59.30765415803344,
block,scrambled,scrambled032.bmp,,,,,0,219,219,219,,,,,,,,,,,,,,,,,,,,,,,,,,,,,,,,,,,,,,,,,,None,,751.0483818500303,None,751.0483818500303,None,2022-09-06-14:09:54.106952,751.0498898997903,751.3480569999665,751.0498898997903,None,None,751.0498898997903,None,751.8499868497253,None,,,,22012,0002,2022_Sep_06_1357,localizer,2021.1.3,59.30765415803344,
block,scrambled,scrambled084.bmp,,,,,0,220,220,220,,,,,,,,,,,,,,,,,,,,,,,,,,,,,,,,,,,,,,,,,,None,,751.8499868497253,None,751.8499868497253,None,2022-09-06-14:09:54.912315,751.8538685999811,752.1656505996361,751.8538685999811,751.8538685999811,None,751.8538685999811,751.8538685999811,752.6643413499929,None,,,,22012,0002,2022_Sep_06_1357,localizer,2021.1.3,59.30765415803344,
block,scrambled,scrambled083.bmp,,,,,0,221,221,221,,,,,,,,,,,,,,,,,,,,,,,,,,,,,,,,,,,,,,,,,,None,,752.6643413499929,None,752.6643413499929,None,2022-09-06-14:09:55.720645,752.6656335997395,752.9811228998005,752.6656335997395,None,None,752.6656335997395,None,753.4851713496261,None,,,,22012,0002,2022_Sep_06_1357,localizer,2021.1.3,59.30765415803344,
block,scrambled,scrambled081.bmp,,,,,0,222,222,222,,,,,,,,,,,,,,,,,,,,,,,,,,,,,,,,,,,,,,,,,,None,,753.4851713496261,None,753.4851713496261,None,2022-09-06-14:09:56.546669,753.4879115000367,753.8040819996968,753.4879115000367,None,None,753.4879115000367,None,754.2994573497214,None,,,,22012,0002,2022_Sep_06_1357,localizer,2021.1.3,59.30765415803344,
block,scrambled,scrambled057.bmp,,,,,0,223,223,223,,,,,,,,,,,,,,,,,,,,,,,,,,,,,,,,,,,,,,,,,,None,,754.2994573497214,None,754.2994573497214,None,2022-09-06-14:09:57.360106,754.3084859997034,754.614488299936,754.3084859997034,None,None,754.3084859997034,None,755.115209150035,None,,,,22012,0002,2022_Sep_06_1357,localizer,2021.1.3,59.30765415803344,
block,scrambled,scrambled068.bmp,,,,,0,224,224,224,,,,,,,,,,,,,,,,,,,,,,,,,,,,,,,,,,,,,,,,,,None,,755.115209150035,None,755.115209150035,None,2022-09-06-14:09:58.173779,755.1155337998644,755.4161421996541,755.1155337998644,None,None,755.1155337998644,None,755.9307687500492,None,,,,22012,0002,2022_Sep_06_1357,localizer,2021.1.3,59.30765415803344,
block,scrambled,scrambled022.bmp,,,,,0,225,225,225,,,,,,,,,,,,,,,,,,,,,,,,,,,,,,,,,,,,,,,,,,None,,755.9307687500492,None,755.9307687500492,None,2022-09-06-14:09:58.988063,755.9321299996227,756.254401799757,755.9321299996227,None,None,755.9321299996227,None,756.7334623498842,None,,,,22012,0002,2022_Sep_06_1357,localizer,2021.1.3,59.30765415803344,
block,scrambled,scrambled064.bmp,,,,,0,226,226,226,,,,,,,,,,,,,,,,,,,,,,,,,,,,,,,,,,,,,,,,,,None,,756.7334623498842,None,756.7334623498842,None,2022-09-06-14:09:59.797190,756.7409513997845,757.0480937999673,756.7409513997845,756.7409513997845,None,756.7409513997845,756.7409513997845,757.5481983496808,None,,,,22012,0002,2022_Sep_06_1357,localizer,2021.1.3,59.30765415803344,
block_end,scrambled,scrambled056.bmp,,,,,0,227,227,227,,,,,,,,,,,,,,,,,,,,,,,,,,,,,,,,,,,,,,,,,,None,,757.5481983496808,None,757.5481983496808,None,2022-09-06-14:10:00.606778,757.5490711997263,757.8640934997238,757.5490711997263,None,None,757.5490711997263,None,758.3491206498817,None,,,,22012,0002,2022_Sep_06_1357,localizer,2021.1.3,59.30765415803344,
null_block,null_block,null_block.bmp,,,,,0,228,228,228,,,,,,,,,,,,,,,,,,,,,,,,,,,,,,,,,,,,,,,,,,t,1.7967556999064982,758.3500683996826,None,758.3500683996826,None,2022-09-06-14:10:03.220689,760.1635652500205,None,760.1635652500205,None,None,760.1635652500205,None,760.1641071997583,None,,,,22012,0002,2022_Sep_06_1357,localizer,2021.1.3,59.30765415803344,
block_start,faces,faces003.bmp,,,,,0,229,229,229,,,,,,,,,,,,,,,,,,,,,,,,,,,,,,,,,,,,,,,,,,t,1.982617899775505,772.1647877995856,None,772.1647877995856,None,2022-09-06-14:10:17.222882,774.1658725999296,774.4665067000315,774.1658725999296,None,None,774.1658725999296,None,774.9811496496201,None,,,,22012,0002,2022_Sep_06_1357,localizer,2021.1.3,59.30765415803344,
block,faces,faces026.bmp,,,,,0,230,230,230,,,,,,,,,,,,,,,,,,,,,,,,,,,,,,,,,,,,,,,,,,None,,774.9811496496201,None,774.9811496496201,None,2022-09-06-14:10:18.038739,774.9824798000045,775.2815812998451,774.9824798000045,None,None,774.9824798000045,None,775.7979234497994,None,,,,22012,0002,2022_Sep_06_1357,localizer,2021.1.3,59.30765415803344,
block,faces,faces046.bmp,,,,,0,231,231,231,,,,,,,,,,,,,,,,,,,,,,,,,,,,,,,,,,,,,,,,,,None,,775.7979234497994,None,775.7979234497994,None,2022-09-06-14:10:18.855734,775.7987759998068,776.0979412999004,775.7987759998068,None,None,775.7987759998068,None,776.5984044497833,None,,,,22012,0002,2022_Sep_06_1357,localizer,2021.1.3,59.30765415803344,
block,faces,faces059.bmp,,,,,0,232,232,232,,,,,,,,,,,,,,,,,,,,,,,,,,,,,,,,,,,,,,,,,,None,,776.5984044497833,None,776.5984044497833,None,2022-09-06-14:10:19.659184,776.6007570000365,776.9006431996822,776.6007570000365,776.6007570000365,None,776.6007570000365,776.6007570000365,777.4211631500162,None,,,,22012,0002,2022_Sep_06_1357,localizer,2021.1.3,59.30765415803344,
block,faces,faces044.bmp,,,,,0,233,233,233,,,,,,,,,,,,,,,,,,,,,,,,,,,,,,,,,,,,,,,,,,None,,777.4211631500162,None,777.4211631500162,None,2022-09-06-14:10:20.487612,777.4318394996226,777.7315233997069,777.4318394996226,None,None,777.4318394996226,None,778.2311258496717,None,,,,22012,0002,2022_Sep_06_1357,localizer,2021.1.3,59.30765415803344,
block,faces,faces045.bmp,,,,,0,234,234,234,,,,,,,,,,,,,,,,,,,,,,,,,,,,,,,,,,,,,,,,,,None,,778.2311258496717,None,778.2311258496717,None,2022-09-06-14:10:21.287721,778.2327598999254,778.5477942996658,778.2327598999254,None,None,778.2327598999254,None,779.0505105498247,None,,,,22012,0002,2022_Sep_06_1357,localizer,2021.1.3,59.30765415803344,
block,faces,faces060.bmp,,,,,0,235,235,235,,,,,,,,,,,,,,,,,,,,,,,,,,,,,,,,,,,,,,,,,,None,,779.0505105498247,None,779.0505105498247,None,2022-09-06-14:10:22.108428,779.0501162996516,779.3651856998913,779.0501162996516,None,None,779.0501162996516,None,779.8542781499215,None,,,,22012,0002,2022_Sep_06_1357,localizer,2021.1.3,59.30765415803344,
block,faces,faces062.bmp,,,,,0,236,236,236,,,,,,,,,,,,,,,,,,,,,,,,,,,,,,,,,,,,,,,,,,None,,779.8542781499215,None,779.8542781499215,None,2022-09-06-14:10:22.921756,779.8632687996142,780.16537469998,779.8632687996142,779.8632687996142,None,779.8632687996142,779.8632687996142,780.6709363496863,None,,,,22012,0002,2022_Sep_06_1357,localizer,2021.1.3,59.30765415803344,
block,faces,faces011.bmp,,,,,0,237,237,237,,,,,,,,,,,,,,,,,,,,,,,,,,,,,,,,,,,,,,,,,,None,,780.6709363496863,None,780.6709363496863,None,2022-09-06-14:10:23.733441,780.6771978000179,780.9873577998951,780.6771978000179,None,None,780.6771978000179,None,781.4812531498261,None,,,,22012,0002,2022_Sep_06_1357,localizer,2021.1.3,59.30765415803344,
block,faces,faces001.bmp,,,,,0,238,238,238,,,,,,,,,,,,,,,,,,,,,,,,,,,,,,,,,,,,,,,,,,None,,781.4812531498261,None,781.4812531498261,None,2022-09-06-14:10:24.538843,781.4876659996808,781.7981992997229,781.4876659996808,None,None,781.4876659996808,None,782.29748624973,None,,,,22012,0002,2022_Sep_06_1357,localizer,2021.1.3,59.30765415803344,
block,faces,faces039.bmp,,,,,0,239,239,239,,,,,,,,,,,,,,,,,,,,,,,,,,,,,,,,,,,,,,,,,,None,,782.29748624973,None,782.29748624973,None,2022-09-06-14:10:25.355091,782.29933899967,782.5974502996542,782.29933899967,None,None,782.29933899967,None,783.0988828497008,None,,,,22012,0002,2022_Sep_06_1357,localizer,2021.1.3,59.30765415803344,
block,faces,faces014.bmp,,,,,0,240,240,240,,,,,,,,,,,,,,,,,,,,,,,,,,,,,,,,,,,,,,,,,,None,,783.0988828497008,None,783.0988828497008,None,2022-09-06-14:10:26.159450,783.1019517998211,783.4148132000118,783.1019517998211,783.1019517998211,None,783.1019517998211,783.1019517998211,783.901268549636,None,,,,22012,0002,2022_Sep_06_1357,localizer,2021.1.3,59.30765415803344,
block,faces,faces064.bmp,,,,,0,241,241,241,,,,,,,,,,,,,,,,,,,,,,,,,,,,,,,,,,,,,,,,,,None,,783.901268549636,None,783.901268549636,None,2022-09-06-14:10:26.964868,783.9221370997839,784.2312125000171,783.9221370997839,783.9221370997839,None,783.9221370997839,783.9221370997839,784.7146917496808,None,,,,22012,0002,2022_Sep_06_1357,localizer,2021.1.3,59.30765415803344,
block,faces,faces058.bmp,,,,,0,242,242,242,,,,,,,,,,,,,,,,,,,,,,,,,,,,,,,,,,,,,,,,,,None,,784.7146917496808,None,784.7146917496808,None,2022-09-06-14:10:27.772279,784.7213510000147,785.0344054996967,784.7213510000147,None,None,784.7213510000147,None,785.5314800496213,None,,,,22012,0002,2022_Sep_06_1357,localizer,2021.1.3,59.30765415803344,
block_end,faces,faces078.bmp,,,,,0,243,243,243,,,,,,,,,,,,,,,,,,,,,,,,,,,,,,,,,,,,,,,,,,None,,785.5314800496213,None,785.5314800496213,None,2022-09-06-14:10:28.589048,785.5323597998358,785.8317735996097,785.5323597998358,None,None,785.5323597998358,None,786.3480115499348,None,,,,22012,0002,2022_Sep_06_1357,localizer,2021.1.3,59.30765415803344,
,,,,,,,,,,,,,,,,,,,,,,,,,,,,,,,,,,,,,,,,,,,,,,,,,,,,,,,,,,,,,,,,,,,,,786.3477478995919,None,,,,,,,
