block_type,condition,img_name,Button.thisRepN,Button.thisTrialN,Button.thisN,Button.thisIndex,trials.thisRepN,trials.thisTrialN,trials.thisN,trials.thisIndex,Ready_experimenter_text.started,Ready_experimenter_text.stopped,Ready_experimenter_resp.keys,Ready_experimenter_resp.rt,Ready_experimenter_resp.started,Ready_experimenter_resp.stopped,Alignment_background.started,Alignment_background.stopped,Alignment_image.started,Alignment_image.stopped,Alignment_resp.keys,Alignment_resp.rt,Alignment_resp.started,Alignment_resp.stopped,Button_text.started,Button_text.stopped,Index_text.started,Index_text.stopped,Index_resp.keys,Index_resp.rt,Index_resp.started,Index_resp.stopped,Middle_text.started,Middle_text.stopped,Middle_resp.keys,Middle_resp.rt,Middle_resp.started,Middle_resp.stopped,Repeat_text.started,Repeat_text.stopped,Repeat_resp.keys,Repeat_resp.corr,Repeat_resp.rt,Repeat_resp.started,Repeat_resp.stopped,instruction_text.started,instruction_text.stopped,key_resp.keys,key_resp.rt,key_resp.started,key_resp.stopped,scanner_t.keys,scanner_t.rt,scanner_t.started,scanner_t.stopped,fixation_wait_for_t.started,fixation_wait_for_t.stopped,real_timestamp_trial_start,image.started,image.stopped,fixation.started,fixation.stopped,repeat_response.keys,repeat_response.started,repeat_response.stopped,fixation_null.started,fixation_null.stopped,repeat_response.rt,end_text.started,end_text.stopped,participant,run,date,expName,psychopyVersion,frameRate,
,,,,,,,,,,,9.444774699979462,None,return,2.856222299975343,9.444774699979462,None,,,,,,,,,,,,,,,,,,,,,,,,,,,,,,,,,,,,,,,,,,,,,,,,,,,,,,,22053,0001,2023_Apr_05_1248,localizer,2021.1.3,59.45624882077254,
,,,,,,,,,,,,,,,,,12.35105779999867,None,12.35105779999867,None,return,1.2480741000035778,12.35105779999867,None,,,,,,,,,,,,,,,,,,,,,,,,,,,,,,,,,,,,,,,,,,,,,,,22053,0001,2023_Apr_05_1248,localizer,2021.1.3,59.45624882077254,
,,,0,0,0,0,,,,,,,,,,,,,,,,,,,13.628211200004444,None,14.644208299927413,None,y,2.881331600015983,14.644208299927413,None,17.56174019991886,None,b,1.7007693001069129,17.56174019991886,None,19.291350199957378,None,n,0,2.1750056999735534,19.291350199957378,None,,,,,,,,,,,,,,,,,,,,,,,,,,22053,0001,2023_Apr_05_1248,localizer,2021.1.3,59.45624882077254,
,,,,,,,,,,,,,,,,,,,,,,,,,,,,,,,,,,,,,,,,,,,,,,21.491273499908857,None,y,71.45327180007007,21.491273499908857,None,,,,,,,,,,,,,,,,,,,,22053,0001,2023_Apr_05_1248,localizer,2021.1.3,59.45624882077254,
null_block,null_block,null_block.bmp,,,,,0,0,0,0,,,,,,,,,,,,,,,,,,,,,,,,,,,,,,,,,,,,,,,,,,t,18.020075700012967,93.05663499992806,None,93.05663499992806,None,2023-04-05-12:49:45.318108,111.1085740399547,None,111.1085740399547,None,None,111.1085740399547,None,111.10461419995409,None,,,,22053,0001,2023_Apr_05_1248,localizer,2021.1.3,59.45624882077254,
block_start,objects,objects001.bmp,,,,,0,1,1,1,,,,,,,,,,,,,,,,,,,,,,,,,,,,,,,,,,,,,,,,,,t,1.9683407000266016,123.10826339991763,None,123.10826339991763,None,2023-04-05-12:49:59.337061,125.12023089989088,125.42483669996727,125.12023089989088,None,None,125.12023089989088,None,125.92517381991493,None,,,,22053,0001,2023_Apr_05_1248,localizer,2021.1.3,59.45624882077254,
block,objects,objects077.bmp,,,,,0,2,2,2,,,,,,,,,,,,,,,,,,,,,,,,,,,,,,,,,,,,,,,,,,None,,125.92517381991493,None,125.92517381991493,None,2023-04-05-12:50:00.153520,125.93685219995677,126.24184909998439,125.93685219995677,None,None,125.93685219995677,None,126.74181681991323,None,,,,22053,0001,2023_Apr_05_1248,localizer,2021.1.3,59.45624882077254,
block,objects,objects046.bmp,,,,,0,3,3,3,,,,,,,,,,,,,,,,,,,,,,,,,,,,,,,,,,,,,,,,,,None,,126.74181681991323,None,126.74181681991323,None,2023-04-05-12:50:00.969219,126.75477959995624,127.05782139999792,126.75477959995624,None,None,126.75477959995624,None,127.55871642000275,None,,,,22053,0001,2023_Apr_05_1248,localizer,2021.1.3,59.45624882077254,
block,objects,objects032.bmp,,,,,0,4,4,4,,,,,,,,,,,,,,,,,,,,,,,,,,,,,,,,,,,,,,,,,,None,,127.55871642000275,None,127.55871642000275,None,2023-04-05-12:50:01.787112,127.57127499999478,127.87473639997188,127.57127499999478,None,None,127.57127499999478,None,128.37520901990356,None,,,,22053,0001,2023_Apr_05_1248,localizer,2021.1.3,59.45624882077254,
block,objects,objects026.bmp,,,,,0,5,5,5,,,,,,,,,,,,,,,,,,,,,,,,,,,,,,,,,,,,,,,,,,None,,128.37520901990356,None,128.37520901990356,None,2023-04-05-12:50:02.602613,128.38651929993648,128.69120399991516,128.38651929993648,None,None,128.38651929993648,None,129.19151591990376,None,,,,22053,0001,2023_Apr_05_1248,localizer,2021.1.3,59.45624882077254,
block,objects,objects009.bmp,,,,,0,6,6,6,,,,,,,,,,,,,,,,,,,,,,,,,,,,,,,,,,,,,,,,,,None,,129.19151591990376,None,129.19151591990376,None,2023-04-05-12:50:03.419163,129.2022566999076,129.50801009999122,129.2022566999076,None,None,129.2022566999076,None,130.0084222199279,None,,,,22053,0001,2023_Apr_05_1248,localizer,2021.1.3,59.45624882077254,
block,objects,objects035.bmp,,,,,0,7,7,7,,,,,,,,,,,,,,,,,,,,,,,,,,,,,,,,,,,,,,,,,,None,,130.0084222199279,None,130.0084222199279,None,2023-04-05-12:50:04.235827,130.01992229989264,130.3247930998914,130.01992229989264,None,None,130.01992229989264,None,130.82495711991797,None,,,,22053,0001,2023_Apr_05_1248,localizer,2021.1.3,59.45624882077254,
block,objects,objects008.bmp,,,,,0,8,8,8,,,,,,,,,,,,,,,,,,,,,,,,,,,,,,,,,,,,,,,,,,None,,130.82495711991797,None,130.82495711991797,None,2023-04-05-12:50:05.052306,130.83727989997715,131.14149389998056,130.83727989997715,None,None,130.83727989997715,None,131.64136051995447,None,,,,22053,0001,2023_Apr_05_1248,localizer,2021.1.3,59.45624882077254,
block,objects,objects039.bmp,,,,,0,9,9,9,,,,,,,,,,,,,,,,,,,,,,,,,,,,,,,,,,,,,,,,,,None,,131.64136051995447,None,131.64136051995447,None,2023-04-05-12:50:05.868773,131.6512653999962,131.95820809993893,131.6512653999962,None,None,131.6512653999962,None,132.4601638199878,None,,,,22053,0001,2023_Apr_05_1248,localizer,2021.1.3,59.45624882077254,
block,objects,objects014.bmp,,,,,0,10,10,10,,,,,,,,,,,,,,,,,,,,,,,,,,,,,,,,,,,,,,,,,,None,,132.4601638199878,None,132.4601638199878,None,2023-04-05-12:50:06.688722,132.47524079994764,132.7748125999933,132.47524079994764,None,None,132.47524079994764,None,133.27489881989314,None,,,,22053,0001,2023_Apr_05_1248,localizer,2021.1.3,59.45624882077254,
block,objects,objects079.bmp,,,,,0,11,11,11,,,,,,,,,,,,,,,,,,,,,,,,,,,,,,,,,,,,,,,,,,None,,133.27489881989314,None,133.27489881989314,None,2023-04-05-12:50:07.502307,133.28618819999974,133.59147210000083,133.28618819999974,None,None,133.28618819999974,None,134.09194771995536,None,,,,22053,0001,2023_Apr_05_1248,localizer,2021.1.3,59.45624882077254,
block,objects,objects025.bmp,,,,,0,12,12,12,,,,,,,,,,,,,,,,,,,,,,,,,,,,,,,,,,,,,,,,,,None,,134.09194771995536,None,134.09194771995536,None,2023-04-05-12:50:08.319388,134.1048518999014,134.41480519995093,134.1048518999014,None,None,134.1048518999014,None,134.90868851999986,None,,,,22053,0001,2023_Apr_05_1248,localizer,2021.1.3,59.45624882077254,
block,objects,objects022.bmp,,,,,0,13,13,13,,,,,,,,,,,,,,,,,,,,,,,,,,,,,,,,,,,,,,,,,,None,,134.90868851999986,None,134.90868851999986,None,2023-04-05-12:50:09.137493,134.9213134999154,135.22474559990223,134.9213134999154,None,None,134.9213134999154,None,135.72488241995453,None,,,,22053,0001,2023_Apr_05_1248,localizer,2021.1.3,59.45624882077254,
block,objects,objects085.bmp,,,,,0,14,14,14,,,,,,,,,,,,,,,,,,,,,,,,,,,,,,,,,,,,,,,,,,None,,135.72488241995453,None,135.72488241995453,None,2023-04-05-12:50:09.952281,135.73720639990643,136.04155209998135,135.73720639990643,None,None,135.73720639990643,None,136.54242211991223,None,,,,22053,0001,2023_Apr_05_1248,localizer,2021.1.3,59.45624882077254,
block_end,objects,objects053.bmp,,,,,0,15,15,15,,,,,,,,,,,,,,,,,,,,,,,,,,,,,,,,,,,,,,,,,,None,,136.54242211991223,None,136.54242211991223,None,2023-04-05-12:50:10.768478,136.54786379996222,136.85800989996642,136.54786379996222,None,None,136.54786379996222,None,137.35837891992415,None,,,,22053,0001,2023_Apr_05_1248,localizer,2021.1.3,59.45624882077254,
block_start,faces,faces002.bmp,,,,,0,16,16,16,,,,,,,,,,,,,,,,,,,,,,,,,,,,,,,,,,,,,,,,,,t,1.7185599999502301,137.35821159998886,None,137.35821159998886,None,2023-04-05-12:50:13.318187,139.10716139990836,139.40832409996074,139.10716139990836,None,None,139.10716139990836,None,139.90851821998368,None,,,,22053,0001,2023_Apr_05_1248,localizer,2021.1.3,59.45624882077254,
block,faces,faces061.bmp,,,,,0,17,17,17,,,,,,,,,,,,,,,,,,,,,,,,,,,,,,,,,,,,,,,,,,None,,139.90851821998368,None,139.90851821998368,None,2023-04-05-12:50:14.136031,139.91937729995698,140.22491009999067,139.91937729995698,None,None,139.91937729995698,None,140.72521461992292,None,,,,22053,0001,2023_Apr_05_1248,localizer,2021.1.3,59.45624882077254,
block,faces,faces011.bmp,,,,,0,18,18,18,,,,,,,,,,,,,,,,,,,,,,,,,,,,,,,,,,,,,,,,,,None,,140.72521461992292,None,140.72521461992292,None,2023-04-05-12:50:14.952667,140.73716939997394,141.04142839997075,140.73716939997394,None,None,140.73716939997394,None,141.5419813199318,None,,,,22053,0001,2023_Apr_05_1248,localizer,2021.1.3,59.45624882077254,
block,faces,faces084.bmp,,,,,0,19,19,19,,,,,,,,,,,,,,,,,,,,,,,,,,,,,,,,,,,,,,,,,,None,,141.5419813199318,None,141.5419813199318,None,2023-04-05-12:50:15.769385,141.55437899997924,141.8580427999841,141.55437899997924,None,None,141.55437899997924,None,142.35861801999854,None,,,,22053,0001,2023_Apr_05_1248,localizer,2021.1.3,59.45624882077254,
block,faces,faces088.bmp,,,,,0,20,20,20,,,,,,,,,,,,,,,,,,,,,,,,,,,,,,,,,,,,,,,,,,None,,142.35861801999854,None,142.35861801999854,None,2023-04-05-12:50:16.586323,142.37220539990813,142.67480389995035,142.37220539990813,None,None,142.37220539990813,None,143.17518591989065,None,,,,22053,0001,2023_Apr_05_1248,localizer,2021.1.3,59.45624882077254,
block,faces,faces086.bmp,,,,,0,21,21,21,,,,,,,,,,,,,,,,,,,,,,,,,,,,,,,,,,,,,,,,,,None,,143.17518591989065,None,143.17518591989065,None,2023-04-05-12:50:17.402592,143.18664789991453,143.49169369996525,143.18664789991453,None,None,143.18664789991453,None,143.99193671989488,None,,,,22053,0001,2023_Apr_05_1248,localizer,2021.1.3,59.45624882077254,
block,faces,faces059.bmp,,,,,0,22,22,22,,,,,,,,,,,,,,,,,,,,,,,,,,,,,,,,,,,,,,,,,,None,,143.99193671989488,None,143.99193671989488,None,2023-04-05-12:50:18.219399,144.00357079994865,144.3080912999576,144.00357079994865,None,None,144.00357079994865,None,144.8087817199179,None,,,,22053,0001,2023_Apr_05_1248,localizer,2021.1.3,59.45624882077254,
block,faces,faces031.bmp,,,,,0,23,23,23,,,,,,,,,,,,,,,,,,,,,,,,,,,,,,,,,,,,,,,,,,None,,144.8087817199179,None,144.8087817199179,None,2023-04-05-12:50:19.036184,144.82138399989344,145.13136419991497,144.82138399989344,None,None,144.82138399989344,None,145.6249965199153,None,,,,22053,0001,2023_Apr_05_1248,localizer,2021.1.3,59.45624882077254,
block,faces,faces062.bmp,,,,,0,24,24,24,,,,,,,,,,,,,,,,,,,,,,,,,,,,,,,,,,,,,,,,,,None,,145.6249965199153,None,145.6249965199153,None,2023-04-05-12:50:19.852560,145.63701589999255,145.94793459994253,145.63701589999255,None,None,145.63701589999255,None,146.44209211998387,None,,,,22053,0001,2023_Apr_05_1248,localizer,2021.1.3,59.45624882077254,
block,faces,faces010.bmp,,,,,0,25,25,25,,,,,,,,,,,,,,,,,,,,,,,,,,,,,,,,,,,,,,,,,,None,,146.44209211998387,None,146.44209211998387,None,2023-04-05-12:50:20.669493,146.45469279994722,146.75839109998196,146.45469279994722,None,None,146.45469279994722,None,147.25856261994923,None,,,,22053,0001,2023_Apr_05_1248,localizer,2021.1.3,59.45624882077254,
block,faces,faces042.bmp,,,,,0,26,26,26,,,,,,,,,,,,,,,,,,,,,,,,,,,,,,,,,,,,,,,,,,None,,147.25856261994923,None,147.25856261994923,None,2023-04-05-12:50:21.486030,147.27074549999088,147.57464679994155,147.27074549999088,None,None,147.27074549999088,None,148.07505471996265,None,,,,22053,0001,2023_Apr_05_1248,localizer,2021.1.3,59.45624882077254,
block,faces,faces089.bmp,,,,,0,27,27,27,,,,,,,,,,,,,,,,,,,,,,,,,,,,,,,,,,,,,,,,,,None,,148.07505471996265,None,148.07505471996265,None,2023-04-05-12:50:22.302463,148.0860657999292,148.39114209997933,148.0860657999292,None,None,148.0860657999292,None,148.89254581989954,None,,,,22053,0001,2023_Apr_05_1248,localizer,2021.1.3,59.45624882077254,
block,faces,faces008.bmp,,,,,0,28,28,28,,,,,,,,,,,,,,,,,,,,,,,,,,,,,,,,,,,,,,,,,,None,,148.89254581989954,None,148.89254581989954,None,2023-04-05-12:50:23.121125,148.905322699924,149.20823759993073,148.905322699924,None,None,148.905322699924,None,149.70920771992533,None,,,,22053,0001,2023_Apr_05_1248,localizer,2021.1.3,59.45624882077254,
block,faces,faces055.bmp,,,,,0,29,29,29,,,,,,,,,,,,,,,,,,,,,,,,,,,,,,,,,,,,,,,,,,None,,149.70920771992533,None,149.70920771992533,None,2023-04-05-12:50:23.937599,149.72231509990525,150.0249672998907,149.72231509990525,None,None,149.72231509990525,None,150.52630351999542,None,,,,22053,0001,2023_Apr_05_1248,localizer,2021.1.3,59.45624882077254,
block_end,faces,faces058.bmp,,,,,0,30,30,30,,,,,,,,,,,,,,,,,,,,,,,,,,,,,,,,,,,,,,,,,,None,,150.52630351999542,None,150.52630351999542,None,2023-04-05-12:50:24.754865,150.54117479990236,150.84149689995684,150.54117479990236,None,None,150.54117479990236,None,151.34207501999336,None,,,,22053,0001,2023_Apr_05_1248,localizer,2021.1.3,59.45624882077254,
block_start,scenes,scenes042.bmp,,,,,0,31,31,31,,,,,,,,,,,,,,,,,,,,,,,,,,,,,,,,,,,,,,,,,,t,1.7348323999904096,151.3417706999462,None,151.3417706999462,None,2023-04-05-12:50:27.322628,153.1074427999556,153.4144078999525,153.1074427999556,None,None,153.1074427999556,None,153.90930121989223,None,,,,22053,0001,2023_Apr_05_1248,localizer,2021.1.3,59.45624882077254,
block,scenes,scenes011.bmp,,,,,0,32,32,32,,,,,,,,,,,,,,,,,,,,,,,,,,,,,,,,,,,,,,,,,,None,,153.90930121989223,None,153.90930121989223,None,2023-04-05-12:50:28.137795,153.9224459999241,154.22501049994025,153.9224459999241,None,None,153.9224459999241,None,154.72540701999097,None,,,,22053,0001,2023_Apr_05_1248,localizer,2021.1.3,59.45624882077254,
block,scenes,scenes015.bmp,,,,,0,33,33,33,,,,,,,,,,,,,,,,,,,,,,,,,,,,,,,,,,,,,,,,,,None,,154.72540701999097,None,154.72540701999097,None,2023-04-05-12:50:28.952811,154.73415289993864,155.04157349991146,154.73415289993864,None,None,154.73415289993864,None,155.54225621992956,None,,,,22053,0001,2023_Apr_05_1248,localizer,2021.1.3,59.45624882077254,
block,scenes,scenes027.bmp,,,,,0,34,34,34,,,,,,,,,,,,,,,,,,,,,,,,,,,,,,,,,,,,,,,,,,None,,155.54225621992956,None,155.54225621992956,None,2023-04-05-12:50:29.769658,155.5514582999749,155.8587679999182,155.5514582999749,None,None,155.5514582999749,None,156.35943081990118,None,,,,22053,0001,2023_Apr_05_1248,localizer,2021.1.3,59.45624882077254,
block,scenes,scenes017.bmp,,,,,0,35,35,35,,,,,,,,,,,,,,,,,,,,,,,,,,,,,,,,,,,,,,,,,,None,,156.35943081990118,None,156.35943081990118,None,2023-04-05-12:50:30.587688,156.37232569989283,156.67510169988964,156.37232569989283,None,None,156.37232569989283,None,157.17506312000333,None,,,,22053,0001,2023_Apr_05_1248,localizer,2021.1.3,59.45624882077254,
block,scenes,scenes050.bmp,,,,,0,36,36,36,,,,,,,,,,,,,,,,,,,,,,,,,,,,,,,,,,,,,,,,,,None,,157.17506312000333,None,157.17506312000333,None,2023-04-05-12:50:31.402617,157.18612789991312,157.4940324999625,157.18612789991312,None,None,157.18612789991312,None,157.99226201992715,None,,,,22053,0001,2023_Apr_05_1248,localizer,2021.1.3,59.45624882077254,
block,scenes,scenes080.bmp,,,,,0,37,37,37,,,,,,,,,,,,,,,,,,,,,,,,,,,,,,,,,,,,,,,,,,None,,157.99226201992715,None,157.99226201992715,None,2023-04-05-12:50:32.220868,158.00507630000357,158.30835629999638,158.00507630000357,None,None,158.00507630000357,None,158.80886101993966,None,,,,22053,0001,2023_Apr_05_1248,localizer,2021.1.3,59.45624882077254,
block,scenes,scenes078.bmp,,,,,0,38,38,38,,,,,,,,,,,,,,,,,,,,,,,,,,,,,,,,,,,,,,,,,,None,,158.80886101993966,None,158.80886101993966,None,2023-04-05-12:50:33.036503,158.81760559999384,159.12524959992152,158.81760559999384,None,None,158.81760559999384,None,159.62539271990536,None,,,,22053,0001,2023_Apr_05_1248,localizer,2021.1.3,59.45624882077254,
block,scenes,scenes037.bmp,,,,,0,39,39,39,,,,,,,,,,,,,,,,,,,,,,,,,,,,,,,,,,,,,,,,,,None,,159.62539271990536,None,159.62539271990536,None,2023-04-05-12:50:33.852796,159.63705159991514,159.94157609995455,159.63705159991514,None,None,159.63705159991514,None,160.4421626199386,None,,,,22053,0001,2023_Apr_05_1248,localizer,2021.1.3,59.45624882077254,
block,scenes,scenes010.bmp,,,,,0,40,40,40,,,,,,,,,,,,,,,,,,,,,,,,,,,,,,,,,,,,,,,,,,None,,160.4421626199386,None,160.4421626199386,None,2023-04-05-12:50:34.670761,160.45516129990574,160.75844309991226,160.45516129990574,None,None,160.45516129990574,None,161.25897681995994,None,,,,22053,0001,2023_Apr_05_1248,localizer,2021.1.3,59.45624882077254,
block,scenes,scenes058.bmp,,,,,0,41,41,41,,,,,,,,,,,,,,,,,,,,,,,,,,,,,,,,,,,,,,,,,,None,,161.25897681995994,None,161.25897681995994,None,2023-04-05-12:50:35.487552,161.27155789989047,161.57505189999938,161.27155789989047,None,None,161.27155789989047,None,162.07527871992207,None,,,,22053,0001,2023_Apr_05_1248,localizer,2021.1.3,59.45624882077254,
block,scenes,scenes014.bmp,,,,,0,42,42,42,,,,,,,,,,,,,,,,,,,,,,,,,,,,,,,,,,,,,,,,,,None,,162.07527871992207,None,162.07527871992207,None,2023-04-05-12:50:36.302680,162.09087389998604,162.39125169999897,162.09087389998604,None,None,162.09087389998604,None,162.89163241992938,None,,,,22053,0001,2023_Apr_05_1248,localizer,2021.1.3,59.45624882077254,
block,scenes,scenes030.bmp,,,,,0,43,43,43,,,,,,,,,,,,,,,,,,,,,,,,,,,,,,,,,,,,,,,,,,None,,162.89163241992938,None,162.89163241992938,None,2023-04-05-12:50:37.119084,162.89850739995018,163.21482359990478,162.89850739995018,None,None,162.89850739995018,None,163.7076787199243,None,,,,22053,0001,2023_Apr_05_1248,localizer,2021.1.3,59.45624882077254,
block,scenes,scenes065.bmp,,,,,0,44,44,44,,,,,,,,,,,,,,,,,,,,,,,,,,,,,,,,,,,,,,,,,,None,,163.7076787199243,None,163.7076787199243,None,2023-04-05-12:50:37.934090,163.716829199926,164.0252050999552,163.716829199926,None,None,163.716829199926,None,164.52634141993477,None,,,,22053,0001,2023_Apr_05_1248,localizer,2021.1.3,59.45624882077254,
block_end,scenes,scenes064.bmp,,,,,0,45,45,45,,,,,,,,,,,,,,,,,,,,,,,,,,,,,,,,,,,,,,,,,,None,,164.52634141993477,None,164.52634141993477,None,2023-04-05-12:50:38.755787,164.5418419999769,164.84165189997293,164.5418419999769,None,None,164.5418419999769,None,165.34205351994606,None,,,,22053,0001,2023_Apr_05_1248,localizer,2021.1.3,59.45624882077254,
block_start,scrambled,scrambled023.bmp,,,,,0,46,46,46,,,,,,,,,,,,,,,,,,,,,,,,,,,,,,,,,,,,,,,,,,t,1.7350410000653937,165.34184409992304,None,165.34184409992304,None,2023-04-05-12:50:41.323063,167.11229629989248,167.42470479989424,167.11229629989248,None,None,167.11229629989248,None,167.90831151992316,None,,,,22053,0001,2023_Apr_05_1248,localizer,2021.1.3,59.45624882077254,
block,scrambled,scrambled012.bmp,,,,,0,47,47,47,,,,,,,,,,,,,,,,,,,,,,,,,,,,,,,,,,,,,,,,,,None,,167.90831151992316,None,167.90831151992316,None,2023-04-05-12:50:42.135616,167.9188160999911,168.22497139999177,167.9188160999911,None,None,167.9188160999911,None,168.72643451989862,None,,,,22053,0001,2023_Apr_05_1248,localizer,2021.1.3,59.45624882077254,
block,scrambled,scrambled034.bmp,,,,,0,48,48,48,,,,,,,,,,,,,,,,,,,,,,,,,,,,,,,,,,,,,,,,,,None,,168.72643451989862,None,168.72643451989862,None,2023-04-05-12:50:42.956453,168.7446349998936,169.05837139999494,168.7446349998936,None,None,168.7446349998936,None,169.54188911992824,None,,,,22053,0001,2023_Apr_05_1248,localizer,2021.1.3,59.45624882077254,
block,scrambled,scrambled014.bmp,,,,,0,49,49,49,,,,,,,,,,,,,,,,,,,,,,,,,,,,,,,,,,,,,,,,,,None,,169.54188911992824,None,169.54188911992824,None,2023-04-05-12:50:43.769322,169.55392539990135,169.8580952999182,169.55392539990135,None,None,169.55392539990135,None,170.35863761991496,None,,,,22053,0001,2023_Apr_05_1248,localizer,2021.1.3,59.45624882077254,
block,scrambled,scrambled065.bmp,,,,,0,50,50,50,,,,,,,,,,,,,,,,,,,,,,,,,,,,,,,,,,,,,,,,,,None,,170.35863761991496,None,170.35863761991496,None,2023-04-05-12:50:44.586040,170.37134009995498,170.6751206999179,170.37134009995498,None,None,170.37134009995498,None,171.1751252198941,None,,,,22053,0001,2023_Apr_05_1248,localizer,2021.1.3,59.45624882077254,
block,scrambled,scrambled039.bmp,,,,,0,51,51,51,,,,,,,,,,,,,,,,,,,,,,,,,,,,,,,,,,,,,,,,,,None,,171.1751252198941,None,171.1751252198941,None,2023-04-05-12:50:45.402531,171.18305110000074,171.49162019998766,171.18305110000074,None,None,171.18305110000074,None,171.99205731999828,None,,,,22053,0001,2023_Apr_05_1248,localizer,2021.1.3,59.45624882077254,
block,scrambled,scrambled058.bmp,,,,,0,52,52,52,,,,,,,,,,,,,,,,,,,,,,,,,,,,,,,,,,,,,,,,,,None,,171.99205731999828,None,171.99205731999828,None,2023-04-05-12:50:46.219460,172.0046483000042,172.30812009994406,172.0046483000042,None,None,172.0046483000042,None,172.80864311991027,None,,,,22053,0001,2023_Apr_05_1248,localizer,2021.1.3,59.45624882077254,
block,scrambled,scrambled048.bmp,,,,,0,53,53,53,,,,,,,,,,,,,,,,,,,,,,,,,,,,,,,,,,,,,,,,,,None,,172.80864311991027,None,172.80864311991027,None,2023-04-05-12:50:47.036046,172.82037549989764,173.1269582998939,172.82037549989764,None,None,172.82037549989764,None,173.62541221993743,None,,,,22053,0001,2023_Apr_05_1248,localizer,2021.1.3,59.45624882077254,
block,scrambled,scrambled079.bmp,,,,,0,54,54,54,,,,,,,,,,,,,,,,,,,,,,,,,,,,,,,,,,,,,,,,,,None,,173.62541221993743,None,173.62541221993743,None,2023-04-05-12:50:47.852815,173.63792299991474,173.9416677999543,173.63792299991474,None,None,173.63792299991474,None,174.44154641990318,None,,,,22053,0001,2023_Apr_05_1248,localizer,2021.1.3,59.45624882077254,
block,scrambled,scrambled085.bmp,,,,,0,55,55,55,,,,,,,,,,,,,,,,,,,,,,,,,,,,,,,,,,,,,,,,,,None,,174.44154641990318,None,174.44154641990318,None,2023-04-05-12:50:48.669069,174.45185459998902,174.7581112999469,174.45185459998902,None,None,174.45185459998902,None,175.25874851996778,None,,,,22053,0001,2023_Apr_05_1248,localizer,2021.1.3,59.45624882077254,
block,scrambled,scrambled049.bmp,,,,,0,56,56,56,,,,,,,,,,,,,,,,,,,,,,,,,,,,,,,,,,,,,,,,,,None,,175.25874851996778,None,175.25874851996778,None,2023-04-05-12:50:49.486150,175.2705433999654,175.575131499907,175.2705433999654,None,None,175.2705433999654,None,176.07655631998787,None,,,,22053,0001,2023_Apr_05_1248,localizer,2021.1.3,59.45624882077254,
block,scrambled,scrambled064.bmp,,,,,0,57,57,57,,,,,,,,,,,,,,,,,,,,,,,,,,,,,,,,,,,,,,,,,,None,,176.07655631998787,None,176.07655631998787,None,2023-04-05-12:50:50.305867,176.09504919999745,176.40836149989627,176.09504919999745,None,None,176.09504919999745,None,176.8918926199316,None,,,,22053,0001,2023_Apr_05_1248,localizer,2021.1.3,59.45624882077254,
block,scrambled,scrambled076.bmp,,,,,0,58,58,58,,,,,,,,,,,,,,,,,,,,,,,,,,,,,,,,,,,,,,,,,,None,,176.8918926199316,None,176.8918926199316,None,2023-04-05-12:50:51.119812,176.903846399975,177.2080596999731,176.903846399975,None,None,176.903846399975,None,177.7086867199163,None,,,,22053,0001,2023_Apr_05_1248,localizer,2021.1.3,59.45624882077254,
block,scrambled,scrambled076.bmp,,,,,0,59,59,59,,,,,,,,,,,,,,,,,,,,,,,,,,,,,,,,,,,,,,,,,,None,,177.7086867199163,None,177.7086867199163,None,2023-04-05-12:50:51.936091,177.70933220000006,178.0085102999583,177.70933220000006,None,y,177.70933220000006,None,178.5090799199301,None,0.47220800002105534,,,22053,0001,2023_Apr_05_1248,localizer,2021.1.3,59.45624882077254,
block_end,scrambled,scrambled053.bmp,,,,,0,60,60,60,,,,,,,,,,,,,,,,,,,,,,,,,,,,,,,,,,,,,,,,,,None,,178.5090799199301,None,178.5090799199301,None,2023-04-05-12:50:52.739620,178.52426209999248,178.82513449992985,178.52426209999248,178.52426209999248,None,178.52426209999248,178.52426209999248,179.32595421994338,None,,,,22053,0001,2023_Apr_05_1248,localizer,2021.1.3,59.45624882077254,
block_start,scrambled,scrambled053.bmp,,,,,0,61,61,61,,,,,,,,,,,,,,,,,,,,,,,,,,,,,,,,,,,,,,,,,,t,1.750952300033532,179.3257521999767,None,179.3257521999767,None,2023-04-05-12:50:55.321341,181.0951307999203,181.40931679995265,181.0951307999203,None,None,181.0951307999203,None,181.9088449199102,None,,,,22053,0001,2023_Apr_05_1248,localizer,2021.1.3,59.45624882077254,
block,scrambled,scrambled048.bmp,,,,,0,62,62,62,,,,,,,,,,,,,,,,,,,,,,,,,,,,,,,,,,,,,,,,,,None,,181.9088449199102,None,181.9088449199102,None,2023-04-05-12:50:56.136462,181.90924099995755,182.2086236999603,181.90924099995755,None,None,181.90924099995755,None,182.70852211994352,None,,,,22053,0001,2023_Apr_05_1248,localizer,2021.1.3,59.45624882077254,
block,scrambled,scrambled073.bmp,,,,,0,63,63,63,,,,,,,,,,,,,,,,,,,,,,,,,,,,,,,,,,,,,,,,,,None,,182.70852211994352,None,182.70852211994352,None,2023-04-05-12:50:56.937210,182.71936789993197,183.0252777999267,182.71936789993197,182.71936789993197,None,182.71936789993197,182.71936789993197,183.52553791998653,None,,,,22053,0001,2023_Apr_05_1248,localizer,2021.1.3,59.45624882077254,
block,scrambled,scrambled036.bmp,,,,,0,64,64,64,,,,,,,,,,,,,,,,,,,,,,,,,,,,,,,,,,,,,,,,,,None,,183.52553791998653,None,183.52553791998653,None,2023-04-05-12:50:57.753130,183.53707049996592,183.84196279989555,183.53707049996592,None,None,183.53707049996592,None,184.34250571989688,None,,,,22053,0001,2023_Apr_05_1248,localizer,2021.1.3,59.45624882077254,
block,scrambled,scrambled066.bmp,,,,,0,65,65,65,,,,,,,,,,,,,,,,,,,,,,,,,,,,,,,,,,,,,,,,,,None,,184.34250571989688,None,184.34250571989688,None,2023-04-05-12:50:58.571092,184.35511819995008,184.65916539996397,184.35511819995008,None,None,184.35511819995008,None,185.1594785199617,None,,,,22053,0001,2023_Apr_05_1248,localizer,2021.1.3,59.45624882077254,
block,scrambled,scrambled010.bmp,,,,,0,66,66,66,,,,,,,,,,,,,,,,,,,,,,,,,,,,,,,,,,,,,,,,,,None,,185.1594785199617,None,185.1594785199617,None,2023-04-05-12:50:59.387869,185.17258069990203,185.47559519996867,185.17258069990203,None,None,185.17258069990203,None,185.97567351992475,None,,,,22053,0001,2023_Apr_05_1248,localizer,2021.1.3,59.45624882077254,
block,scrambled,scrambled041.bmp,,,,,0,67,67,67,,,,,,,,,,,,,,,,,,,,,,,,,,,,,,,,,,,,,,,,,,None,,185.97567351992475,None,185.97567351992475,None,2023-04-05-12:51:00.203055,185.9892004999565,186.2981253999751,185.9892004999565,None,None,185.9892004999565,None,186.793010019965,None,,,,22053,0001,2023_Apr_05_1248,localizer,2021.1.3,59.45624882077254,
block,scrambled,scrambled019.bmp,,,,,0,68,68,68,,,,,,,,,,,,,,,,,,,,,,,,,,,,,,,,,,,,,,,,,,None,,186.793010019965,None,186.793010019965,None,2023-04-05-12:51:01.021485,186.80728399998043,187.10814769996796,186.80728399998043,None,None,186.80728399998043,None,187.6088662199094,None,,,,22053,0001,2023_Apr_05_1248,localizer,2021.1.3,59.45624882077254,
block,scrambled,scrambled051.bmp,,,,,0,69,69,69,,,,,,,,,,,,,,,,,,,,,,,,,,,,,,,,,,,,,,,,,,None,,187.6088662199094,None,187.6088662199094,None,2023-04-05-12:51:01.836270,187.62072929996066,187.92534119996708,187.62072929996066,None,None,187.62072929996066,None,188.4257356200018,None,,,,22053,0001,2023_Apr_05_1248,localizer,2021.1.3,59.45624882077254,
block,scrambled,scrambled014.bmp,,,,,0,70,70,70,,,,,,,,,,,,,,,,,,,,,,,,,,,,,,,,,,,,,,,,,,None,,188.4257356200018,None,188.4257356200018,None,2023-04-05-12:51:02.653243,188.42617160000373,188.72532229998615,188.42617160000373,None,None,188.42617160000373,None,189.22579881994753,None,,,,22053,0001,2023_Apr_05_1248,localizer,2021.1.3,59.45624882077254,
block,scrambled,scrambled034.bmp,,,,,0,71,71,71,,,,,,,,,,,,,,,,,,,,,,,,,,,,,,,,,,,,,,,,,,None,,189.22579881994753,None,189.22579881994753,None,2023-04-05-12:51:03.455404,189.2282731999876,189.54172439989634,189.2282731999876,189.2282731999876,None,189.2282731999876,189.2282731999876,190.04232991990867,None,,,,22053,0001,2023_Apr_05_1248,localizer,2021.1.3,59.45624882077254,
block,scrambled,scrambled083.bmp,,,,,0,72,72,72,,,,,,,,,,,,,,,,,,,,,,,,,,,,,,,,,,,,,,,,,,None,,190.04232991990867,None,190.04232991990867,None,2023-04-05-12:51:04.269951,190.0550449999282,190.35910549992695,190.0550449999282,None,None,190.0550449999282,None,190.85898971991847,None,,,,22053,0001,2023_Apr_05_1248,localizer,2021.1.3,59.45624882077254,
block,scrambled,scrambled037.bmp,,,,,0,73,73,73,,,,,,,,,,,,,,,,,,,,,,,,,,,,,,,,,,,,,,,,,,None,,190.85898971991847,None,190.85898971991847,None,2023-04-05-12:51:05.086388,190.87066929996945,191.17517149995547,190.87066929996945,None,None,190.87066929996945,None,191.67571031992557,None,,,,22053,0001,2023_Apr_05_1248,localizer,2021.1.3,59.45624882077254,
block,scrambled,scrambled044.bmp,,,,,0,74,74,74,,,,,,,,,,,,,,,,,,,,,,,,,,,,,,,,,,,,,,,,,,None,,191.67571031992557,None,191.67571031992557,None,2023-04-05-12:51:05.903112,191.68940049991943,191.99167839996517,191.68940049991943,None,None,191.68940049991943,None,192.4919333199854,None,,,,22053,0001,2023_Apr_05_1248,localizer,2021.1.3,59.45624882077254,
block_end,scrambled,scrambled022.bmp,,,,,0,75,75,75,,,,,,,,,,,,,,,,,,,,,,,,,,,,,,,,,,,,,,,,,,None,,192.4919333199854,None,192.4919333199854,None,2023-04-05-12:51:06.719536,192.50226429989561,192.80865229992196,192.50226429989561,None,None,192.50226429989561,None,193.3095530199702,None,,,,22053,0001,2023_Apr_05_1248,localizer,2021.1.3,59.45624882077254,
null_block,null_block,null_block.bmp,,,,,0,76,76,76,,,,,,,,,,,,,,,,,,,,,,,,,,,,,,,,,,,,,,,,,,t,1.767615900025703,193.30917279992718,None,193.30917279992718,None,2023-04-05-12:51:09.322766,195.09330301991432,None,195.09330301991432,None,None,195.09330301991432,None,195.1007707999088,None,,,,22053,0001,2023_Apr_05_1248,localizer,2021.1.3,59.45624882077254,
block_start,faces,faces026.bmp,,,,,0,77,77,77,,,,,,,,,,,,,,,,,,,,,,,,,,,,,,,,,,,,,,,,,,t,1.9683511999901384,207.1084618999157,None,207.1084618999157,None,2023-04-05-12:51:23.344965,209.1576586998999,209.4654408999486,209.1576586998999,None,None,209.1576586998999,None,209.91444881997305,None,,,,22053,0001,2023_Apr_05_1248,localizer,2021.1.3,59.45624882077254,
block,faces,faces042.bmp,,,,,0,78,78,78,,,,,,,,,,,,,,,,,,,,,,,,,,,,,,,,,,,,,,,,,,None,,209.91444881997305,None,209.91444881997305,None,2023-04-05-12:51:24.141859,209.919198699994,210.2253588999156,209.919198699994,None,None,209.919198699994,None,210.72572061993415,None,,,,22053,0001,2023_Apr_05_1248,localizer,2021.1.3,59.45624882077254,
block,faces,faces040.bmp,,,,,0,79,79,79,,,,,,,,,,,,,,,,,,,,,,,,,,,,,,,,,,,,,,,,,,None,,210.72572061993415,None,210.72572061993415,None,2023-04-05-12:51:24.953120,210.73644639994018,211.04203349992167,210.73644639994018,None,None,210.73644639994018,None,211.5422708199243,None,,,,22053,0001,2023_Apr_05_1248,localizer,2021.1.3,59.45624882077254,
block,faces,faces024.bmp,,,,,0,80,80,80,,,,,,,,,,,,,,,,,,,,,,,,,,,,,,,,,,,,,,,,,,None,,211.5422708199243,None,211.5422708199243,None,2023-04-05-12:51:25.769675,211.55568209988996,211.85867829993367,211.55568209988996,None,None,211.55568209988996,None,212.35885971997632,None,,,,22053,0001,2023_Apr_05_1248,localizer,2021.1.3,59.45624882077254,
block,faces,faces063.bmp,,,,,0,81,81,81,,,,,,,,,,,,,,,,,,,,,,,,,,,,,,,,,,,,,,,,,,None,,212.35885971997632,None,212.35885971997632,None,2023-04-05-12:51:26.586070,212.3713190999115,212.67617389990482,212.3713190999115,None,None,212.3713190999115,None,213.17577291993658,None,,,,22053,0001,2023_Apr_05_1248,localizer,2021.1.3,59.45624882077254,
block,faces,faces070.bmp,,,,,0,82,82,82,,,,,,,,,,,,,,,,,,,,,,,,,,,,,,,,,,,,,,,,,,None,,213.17577291993658,None,213.17577291993658,None,2023-04-05-12:51:27.403406,213.18931970000267,213.49149219994433,213.18931970000267,None,None,213.18931970000267,None,213.992229319911,None,,,,22053,0001,2023_Apr_05_1248,localizer,2021.1.3,59.45624882077254,
block,faces,faces012.bmp,,,,,0,83,83,83,,,,,,,,,,,,,,,,,,,,,,,,,,,,,,,,,,,,,,,,,,None,,213.992229319911,None,213.992229319911,None,2023-04-05-12:51:28.219635,214.00346619996708,214.3087641999591,214.00346619996708,None,None,214.00346619996708,None,214.80873601991917,None,,,,22053,0001,2023_Apr_05_1248,localizer,2021.1.3,59.45624882077254,
block,faces,faces049.bmp,,,,,0,84,84,84,,,,,,,,,,,,,,,,,,,,,,,,,,,,,,,,,,,,,,,,,,None,,214.80873601991917,None,214.80873601991917,None,2023-04-05-12:51:29.035815,214.81922439998016,215.12768779997714,214.81922439998016,None,None,214.81922439998016,None,215.62568541992223,None,,,,22053,0001,2023_Apr_05_1248,localizer,2021.1.3,59.45624882077254,
block,faces,faces055.bmp,,,,,0,85,85,85,,,,,,,,,,,,,,,,,,,,,,,,,,,,,,,,,,,,,,,,,,None,,215.62568541992223,None,215.62568541992223,None,2023-04-05-12:51:29.853311,215.62630169990007,215.9256339999847,215.62630169990007,None,None,215.62630169990007,None,216.4258608199074,None,,,,22053,0001,2023_Apr_05_1248,localizer,2021.1.3,59.45624882077254,
block,faces,faces086.bmp,,,,,0,86,86,86,,,,,,,,,,,,,,,,,,,,,,,,,,,,,,,,,,,,,,,,,,None,,216.4258608199074,None,216.4258608199074,None,2023-04-05-12:51:30.655489,216.42860369989648,216.74211859994102,216.42860369989648,216.42860369989648,None,216.42860369989648,216.42860369989648,217.24232561994577,None,,,,22053,0001,2023_Apr_05_1248,localizer,2021.1.3,59.45624882077254,
block,faces,faces013.bmp,,,,,0,87,87,87,,,,,,,,,,,,,,,,,,,,,,,,,,,,,,,,,,,,,,,,,,None,,217.24232561994577,None,217.24232561994577,None,2023-04-05-12:51:31.469731,217.25432959990576,217.55876049993094,217.25432959990576,None,None,217.25432959990576,None,218.05952411998297,None,,,,22053,0001,2023_Apr_05_1248,localizer,2021.1.3,59.45624882077254,
block,faces,faces079.bmp,,,,,0,88,88,88,,,,,,,,,,,,,,,,,,,,,,,,,,,,,,,,,,,,,,,,,,None,,218.05952411998297,None,218.05952411998297,None,2023-04-05-12:51:32.287917,218.07273099990562,218.37562159996014,218.07273099990562,None,None,218.07273099990562,None,218.87587201994612,None,,,,22053,0001,2023_Apr_05_1248,localizer,2021.1.3,59.45624882077254,
block,faces,faces041.bmp,,,,,0,89,89,89,,,,,,,,,,,,,,,,,,,,,,,,,,,,,,,,,,,,,,,,,,None,,218.87587201994612,None,218.87587201994612,None,2023-04-05-12:51:33.103257,218.88758509990294,219.19208799989428,218.88758509990294,None,None,218.88758509990294,None,219.69255351988832,None,,,,22053,0001,2023_Apr_05_1248,localizer,2021.1.3,59.45624882077254,
block,faces,faces045.bmp,,,,,0,90,90,90,,,,,,,,,,,,,,,,,,,,,,,,,,,,,,,,,,,,,,,,,,None,,219.69255351988832,None,219.69255351988832,None,2023-04-05-12:51:33.920161,219.70109829993453,220.00874989992008,219.70109829993453,None,None,219.70109829993453,None,220.50920601995895,None,,,,22053,0001,2023_Apr_05_1248,localizer,2021.1.3,59.45624882077254,
block_end,faces,faces022.bmp,,,,,0,91,91,91,,,,,,,,,,,,,,,,,,,,,,,,,,,,,,,,,,,,,,,,,,None,,220.50920601995895,None,220.50920601995895,None,2023-04-05-12:51:34.736825,220.52270669990685,220.8253689999692,220.52270669990685,None,None,220.52270669990685,None,221.32586661997485,None,,,,22053,0001,2023_Apr_05_1248,localizer,2021.1.3,59.45624882077254,
block_start,objects,objects013.bmp,,,,,0,92,92,92,,,,,,,,,,,,,,,,,,,,,,,,,,,,,,,,,,,,,,,,,,t,1.7502884999848902,221.32536119990982,None,221.32536119990982,None,2023-04-05-12:51:37.319694,223.1028736999724,223.4084832998924,223.1028736999724,None,None,223.1028736999724,None,223.90917541998206,None,,,,22053,0001,2023_Apr_05_1248,localizer,2021.1.3,59.45624882077254,
block,objects,objects086.bmp,,,,,0,93,93,93,,,,,,,,,,,,,,,,,,,,,,,,,,,,,,,,,,,,,,,,,,None,,223.90917541998206,None,223.90917541998206,None,2023-04-05-12:51:38.136886,223.9207639999222,224.2254993999377,223.9207639999222,None,None,223.9207639999222,None,224.7255288199871,None,,,,22053,0001,2023_Apr_05_1248,localizer,2021.1.3,59.45624882077254,
block,objects,objects008.bmp,,,,,0,94,94,94,,,,,,,,,,,,,,,,,,,,,,,,,,,,,,,,,,,,,,,,,,None,,224.7255288199871,None,224.7255288199871,None,2023-04-05-12:51:38.953223,224.7264985999791,225.02556659991387,224.7264985999791,None,None,224.7264985999791,None,225.52585111992667,None,,,,22053,0001,2023_Apr_05_1248,localizer,2021.1.3,59.45624882077254,
block,objects,objects073.bmp,,,,,0,95,95,95,,,,,,,,,,,,,,,,,,,,,,,,,,,,,,,,,,,,,,,,,,None,,225.52585111992667,None,225.52585111992667,None,2023-04-05-12:51:39.755230,225.53956619999371,225.84214589989278,225.53956619999371,225.53956619999371,None,225.53956619999371,225.53956619999371,226.34245101994603,None,,,,22053,0001,2023_Apr_05_1248,localizer,2021.1.3,59.45624882077254,
block,objects,objects042.bmp,,,,,0,96,96,96,,,,,,,,,,,,,,,,,,,,,,,,,,,,,,,,,,,,,,,,,,None,,226.34245101994603,None,226.34245101994603,None,2023-04-05-12:51:40.569849,226.35437089996412,226.66003299993463,226.35437089996412,None,None,226.35437089996412,None,227.16022971997737,None,,,,22053,0001,2023_Apr_05_1248,localizer,2021.1.3,59.45624882077254,
block,objects,objects047.bmp,,,,,0,97,97,97,,,,,,,,,,,,,,,,,,,,,,,,,,,,,,,,,,,,,,,,,,None,,227.16022971997737,None,227.16022971997737,None,2023-04-05-12:51:41.390610,227.17575549997855,227.47573489998467,227.17575549997855,None,None,227.17575549997855,None,227.97538741995814,None,,,,22053,0001,2023_Apr_05_1248,localizer,2021.1.3,59.45624882077254,
block,objects,objects052.bmp,,,,,0,98,98,98,,,,,,,,,,,,,,,,,,,,,,,,,,,,,,,,,,,,,,,,,,None,,227.97538741995814,None,227.97538741995814,None,2023-04-05-12:51:42.202834,227.9860646999441,228.2921917999629,227.9860646999441,None,None,227.9860646999441,None,228.79294831996086,None,,,,22053,0001,2023_Apr_05_1248,localizer,2021.1.3,59.45624882077254,
block,objects,objects026.bmp,,,,,0,99,99,99,,,,,,,,,,,,,,,,,,,,,,,,,,,,,,,,,,,,,,,,,,None,,228.79294831996086,None,228.79294831996086,None,2023-04-05-12:51:43.021340,228.7945859999163,229.1087521999143,228.7945859999163,None,None,228.7945859999163,None,229.60918381999946,None,,,,22053,0001,2023_Apr_05_1248,localizer,2021.1.3,59.45624882077254,
block,objects,objects044.bmp,,,,,0,100,100,100,,,,,,,,,,,,,,,,,,,,,,,,,,,,,,,,,,,,,,,,,,None,,229.60918381999946,None,229.60918381999946,None,2023-04-05-12:51:43.836605,229.6208015999291,229.92555809998885,229.6208015999291,None,None,229.6208015999291,None,230.42561111998512,None,,,,22053,0001,2023_Apr_05_1248,localizer,2021.1.3,59.45624882077254,
block,objects,objects044.bmp,,,,,0,101,101,101,,,,,,,,,,,,,,,,,,,,,,,,,,,,,,,,,,,,,,,,,,None,,230.42561111998512,None,230.42561111998512,None,2023-04-05-12:51:44.653319,230.42647690000013,230.7256504999241,230.42647690000013,None,y,230.42647690000013,None,231.22602321991,None,0.6289756000041962,,,22053,0001,2023_Apr_05_1248,localizer,2021.1.3,59.45624882077254,
block,objects,objects070.bmp,,,,,0,102,102,102,,,,,,,,,,,,,,,,,,,,,,,,,,,,,,,,,,,,,,,,,,None,,231.22602321991,None,231.22602321991,None,2023-04-05-12:51:45.455403,231.23960469989106,231.54209379991516,231.23960469989106,231.23960469989106,None,231.23960469989106,231.23960469989106,232.04280811994104,None,,,,22053,0001,2023_Apr_05_1248,localizer,2021.1.3,59.45624882077254,
block,objects,objects019.bmp,,,,,0,103,103,103,,,,,,,,,,,,,,,,,,,,,,,,,,,,,,,,,,,,,,,,,,None,,232.04280811994104,None,232.04280811994104,None,2023-04-05-12:51:46.271432,232.05535339994822,232.35907549993135,232.05535339994822,None,None,232.05535339994822,None,232.85911571994657,None,,,,22053,0001,2023_Apr_05_1248,localizer,2021.1.3,59.45624882077254,
block,objects,objects032.bmp,,,,,0,104,104,104,,,,,,,,,,,,,,,,,,,,,,,,,,,,,,,,,,,,,,,,,,None,,232.85911571994657,None,232.85911571994657,None,2023-04-05-12:51:47.086500,232.8597653999459,233.15894629992545,232.8597653999459,None,None,232.8597653999459,None,233.65903161993484,None,,,,22053,0001,2023_Apr_05_1248,localizer,2021.1.3,59.45624882077254,
block,objects,objects053.bmp,,,,,0,105,105,105,,,,,,,,,,,,,,,,,,,,,,,,,,,,,,,,,,,,,,,,,,None,,233.65903161993484,None,233.65903161993484,None,2023-04-05-12:51:47.887434,233.6598053999478,233.9587835998973,233.6598053999478,233.6598053999478,None,233.6598053999478,233.6598053999478,234.4602592198993,None,,,,22053,0001,2023_Apr_05_1248,localizer,2021.1.3,59.45624882077254,
block_end,objects,objects057.bmp,,,,,0,106,106,106,,,,,,,,,,,,,,,,,,,,,,,,,,,,,,,,,,,,,,,,,,None,,234.4602592198993,None,234.4602592198993,None,2023-04-05-12:51:48.688955,234.47253349993844,234.77544819994364,234.47253349993844,234.47253349993844,None,234.47253349993844,234.47253349993844,235.27579901999562,None,,,,22053,0001,2023_Apr_05_1248,localizer,2021.1.3,59.45624882077254,
block_start,scenes,scenes030.bmp,,,,,0,107,107,107,,,,,,,,,,,,,,,,,,,,,,,,,,,,,,,,,,,,,,,,,,t,1.8002728000283241,235.2753592999652,None,235.2753592999652,None,2023-04-05-12:51:51.317831,237.09322549996432,237.40892459999304,237.09322549996432,None,None,237.09322549996432,None,237.90895031989785,None,,,,22053,0001,2023_Apr_05_1248,localizer,2021.1.3,59.45624882077254,
block,scenes,scenes092.bmp,,,,,0,108,108,108,,,,,,,,,,,,,,,,,,,,,,,,,,,,,,,,,,,,,,,,,,None,,237.90895031989785,None,237.90895031989785,None,2023-04-05-12:51:52.136358,237.91620669991244,238.22548119991552,237.91620669991244,None,None,237.91620669991244,None,238.725938319962,None,,,,22053,0001,2023_Apr_05_1248,localizer,2021.1.3,59.45624882077254,
block,scenes,scenes005.bmp,,,,,0,109,109,109,,,,,,,,,,,,,,,,,,,,,,,,,,,,,,,,,,,,,,,,,,None,,238.725938319962,None,238.725938319962,None,2023-04-05-12:51:52.953339,238.73776839999482,239.04214529995807,238.73776839999482,None,None,238.73776839999482,None,239.5424074199167,None,,,,22053,0001,2023_Apr_05_1248,localizer,2021.1.3,59.45624882077254,
block,scenes,scenes046.bmp,,,,,0,110,110,110,,,,,,,,,,,,,,,,,,,,,,,,,,,,,,,,,,,,,,,,,,None,,239.5424074199167,None,239.5424074199167,None,2023-04-05-12:51:53.769902,239.55444269999862,239.85889849998057,239.55444269999862,None,None,239.55444269999862,None,240.35922151993728,None,,,,22053,0001,2023_Apr_05_1248,localizer,2021.1.3,59.45624882077254,
block,scenes,scenes060.bmp,,,,,0,111,111,111,,,,,,,,,,,,,,,,,,,,,,,,,,,,,,,,,,,,,,,,,,None,,240.35922151993728,None,240.35922151993728,None,2023-04-05-12:51:54.586611,240.3712538999971,240.67616299993824,240.3712538999971,None,None,240.3712538999971,None,241.1756740199984,None,,,,22053,0001,2023_Apr_05_1248,localizer,2021.1.3,59.45624882077254,
block,scenes,scenes043.bmp,,,,,0,112,112,112,,,,,,,,,,,,,,,,,,,,,,,,,,,,,,,,,,,,,,,,,,None,,241.1756740199984,None,241.1756740199984,None,2023-04-05-12:51:55.403327,241.18671439995524,241.49291179992724,241.18671439995524,None,None,241.18671439995524,None,241.9929892199929,None,,,,22053,0001,2023_Apr_05_1248,localizer,2021.1.3,59.45624882077254,
block,scenes,scenes068.bmp,,,,,0,113,113,113,,,,,,,,,,,,,,,,,,,,,,,,,,,,,,,,,,,,,,,,,,None,,241.9929892199929,None,241.9929892199929,None,2023-04-05-12:51:56.221568,242.0034711000044,242.3086702999426,242.0034711000044,None,None,242.0034711000044,None,242.80910531993723,None,,,,22053,0001,2023_Apr_05_1248,localizer,2021.1.3,59.45624882077254,
block,scenes,scenes028.bmp,,,,,0,114,114,114,,,,,,,,,,,,,,,,,,,,,,,,,,,,,,,,,,,,,,,,,,None,,242.80910531993723,None,242.80910531993723,None,2023-04-05-12:51:57.036510,242.82108389993664,243.12530719989445,242.82108389993664,None,None,242.82108389993664,None,243.6281569199986,None,,,,22053,0001,2023_Apr_05_1248,localizer,2021.1.3,59.45624882077254,
block,scenes,scenes044.bmp,,,,,0,115,115,115,,,,,,,,,,,,,,,,,,,,,,,,,,,,,,,,,,,,,,,,,,None,,243.6281569199986,None,243.6281569199986,None,2023-04-05-12:51:57.855568,243.6376925999066,243.9425779999001,243.6376925999066,None,None,243.6376925999066,None,244.44843841999537,None,,,,22053,0001,2023_Apr_05_1248,localizer,2021.1.3,59.45624882077254,
block,scenes,scenes023.bmp,,,,,0,116,116,116,,,,,,,,,,,,,,,,,,,,,,,,,,,,,,,,,,,,,,,,,,None,,244.44843841999537,None,244.44843841999537,None,2023-04-05-12:51:58.678898,244.4651140999049,244.77554899989627,244.4651140999049,None,None,244.4651140999049,None,245.25898252000334,None,,,,22053,0001,2023_Apr_05_1248,localizer,2021.1.3,59.45624882077254,
block,scenes,scenes083.bmp,,,,,0,117,117,117,,,,,,,,,,,,,,,,,,,,,,,,,,,,,,,,,,,,,,,,,,None,,245.25898252000334,None,245.25898252000334,None,2023-04-05-12:51:59.486388,245.2701125999447,245.57530529994983,245.2701125999447,None,None,245.2701125999447,None,246.07556671990315,None,,,,22053,0001,2023_Apr_05_1248,localizer,2021.1.3,59.45624882077254,
block,scenes,scenes039.bmp,,,,,0,118,118,118,,,,,,,,,,,,,,,,,,,,,,,,,,,,,,,,,,,,,,,,,,None,,246.07556671990315,None,246.07556671990315,None,2023-04-05-12:52:00.303253,246.08259269990958,246.3921581999166,246.08259269990958,None,None,246.08259269990958,None,246.89269311997342,None,,,,22053,0001,2023_Apr_05_1248,localizer,2021.1.3,59.45624882077254,
block,scenes,scenes051.bmp,,,,,0,119,119,119,,,,,,,,,,,,,,,,,,,,,,,,,,,,,,,,,,,,,,,,,,None,,246.89269311997342,None,246.89269311997342,None,2023-04-05-12:52:01.120321,246.90713759989012,247.20903899997938,246.90713759989012,None,None,246.90713759989012,None,247.70929501989158,None,,,,22053,0001,2023_Apr_05_1248,localizer,2021.1.3,59.45624882077254,
block,scenes,scenes054.bmp,,,,,0,120,120,120,,,,,,,,,,,,,,,,,,,,,,,,,,,,,,,,,,,,,,,,,,None,,247.70929501989158,None,247.70929501989158,None,2023-04-05-12:52:01.936698,247.7228988999268,248.02545499999542,247.7228988999268,None,None,247.7228988999268,None,248.52715281994315,None,,,,22053,0001,2023_Apr_05_1248,localizer,2021.1.3,59.45624882077254,
block_end,scenes,scenes084.bmp,,,,,0,121,121,121,,,,,,,,,,,,,,,,,,,,,,,,,,,,,,,,,,,,,,,,,,None,,248.52715281994315,None,248.52715281994315,None,2023-04-05-12:52:02.756531,248.54129179997835,248.84182189998683,248.54129179997835,None,None,248.54129179997835,None,249.34205771997804,None,,,,22053,0001,2023_Apr_05_1248,localizer,2021.1.3,59.45624882077254,
block_start,faces,faces085.bmp,,,,,0,122,122,122,,,,,,,,,,,,,,,,,,,,,,,,,,,,,,,,,,,,,,,,,,t,1.7336975999642164,249.3420909999404,None,249.3420909999404,None,2023-04-05-12:52:05.319389,251.10515089996625,251.40855949989054,251.10515089996625,None,None,251.10515089996625,None,251.90930861994858,None,,,,22053,0001,2023_Apr_05_1248,localizer,2021.1.3,59.45624882077254,
block,faces,faces002.bmp,,,,,0,123,123,123,,,,,,,,,,,,,,,,,,,,,,,,,,,,,,,,,,,,,,,,,,None,,251.90930861994858,None,251.90930861994858,None,2023-04-05-12:52:06.136710,251.91002109996043,252.20875439990778,251.91002109996043,None,None,251.91002109996043,None,252.70945221992443,None,,,,22053,0001,2023_Apr_05_1248,localizer,2021.1.3,59.45624882077254,
block,faces,faces004.bmp,,,,,0,124,124,124,,,,,,,,,,,,,,,,,,,,,,,,,,,,,,,,,,,,,,,,,,None,,252.70945221992443,None,252.70945221992443,None,2023-04-05-12:52:06.938849,252.72817959997337,253.0424750999082,252.72817959997337,252.72817959997337,None,252.72817959997337,252.72817959997337,253.5322786199744,None,,,,22053,0001,2023_Apr_05_1248,localizer,2021.1.3,59.45624882077254,
block,faces,faces007.bmp,,,,,0,125,125,125,,,,,,,,,,,,,,,,,,,,,,,,,,,,,,,,,,,,,,,,,,None,,253.5322786199744,None,253.5322786199744,None,2023-04-05-12:52:07.763714,253.54948539996985,253.858599799918,253.54948539996985,None,None,253.54948539996985,None,254.3425582199474,None,,,,22053,0001,2023_Apr_05_1248,localizer,2021.1.3,59.45624882077254,
block,faces,faces005.bmp,,,,,0,126,126,126,,,,,,,,,,,,,,,,,,,,,,,,,,,,,,,,,,,,,,,,,,None,,254.3425582199474,None,254.3425582199474,None,2023-04-05-12:52:08.569964,254.35378889995627,254.65909139998257,254.35378889995627,None,None,254.35378889995627,None,255.15910601991928,None,,,,22053,0001,2023_Apr_05_1248,localizer,2021.1.3,59.45624882077254,
block,faces,faces024.bmp,,,,,0,127,127,127,,,,,,,,,,,,,,,,,,,,,,,,,,,,,,,,,,,,,,,,,,None,,255.15910601991928,None,255.15910601991928,None,2023-04-05-12:52:09.386516,255.15997259994037,255.47547519998625,255.15997259994037,None,None,255.15997259994037,None,255.9594052199158,None,,,,22053,0001,2023_Apr_05_1248,localizer,2021.1.3,59.45624882077254,
block,faces,faces023.bmp,,,,,0,128,128,128,,,,,,,,,,,,,,,,,,,,,,,,,,,,,,,,,,,,,,,,,,None,,255.9594052199158,None,255.9594052199158,None,2023-04-05-12:52:10.188099,255.97074589994736,256.2758960999781,255.97074589994736,255.97074589994736,None,255.97074589994736,255.97074589994736,256.7766240199911,None,,,,22053,0001,2023_Apr_05_1248,localizer,2021.1.3,59.45624882077254,
block,faces,faces042.bmp,,,,,0,129,129,129,,,,,,,,,,,,,,,,,,,,,,,,,,,,,,,,,,,,,,,,,,None,,256.7766240199911,None,256.7766240199911,None,2023-04-05-12:52:11.005215,256.7787933999207,257.0922102999175,256.7787933999207,None,None,256.7787933999207,None,257.5923848199076,None,,,,22053,0001,2023_Apr_05_1248,localizer,2021.1.3,59.45624882077254,
block,faces,faces055.bmp,,,,,0,130,130,130,,,,,,,,,,,,,,,,,,,,,,,,,,,,,,,,,,,,,,,,,,None,,257.5923848199076,None,257.5923848199076,None,2023-04-05-12:52:11.819791,257.59328959998675,257.89244500000495,257.59328959998675,None,None,257.59328959998675,None,258.41555991993516,None,,,,22053,0001,2023_Apr_05_1248,localizer,2021.1.3,59.45624882077254,
block,faces,faces035.bmp,,,,,0,131,131,131,,,,,,,,,,,,,,,,,,,,,,,,,,,,,,,,,,,,,,,,,,None,,258.41555991993516,None,258.41555991993516,None,2023-04-05-12:52:12.650609,258.43854719994124,258.74233659997117,258.43854719994124,None,None,258.43854719994124,None,259.22562071998834,None,,,,22053,0001,2023_Apr_05_1248,localizer,2021.1.3,59.45624882077254,
block,faces,faces088.bmp,,,,,0,132,132,132,,,,,,,,,,,,,,,,,,,,,,,,,,,,,,,,,,,,,,,,,,None,,259.22562071998834,None,259.22562071998834,None,2023-04-05-12:52:13.453573,259.2266278999159,259.5258685000008,259.2266278999159,None,None,259.2266278999159,None,260.02567411997586,None,,,,22053,0001,2023_Apr_05_1248,localizer,2021.1.3,59.45624882077254,
block,faces,faces089.bmp,,,,,0,133,133,133,,,,,,,,,,,,,,,,,,,,,,,,,,,,,,,,,,,,,,,,,,None,,260.02567411997586,None,260.02567411997586,None,2023-04-05-12:52:14.255074,260.02666079998016,260.3255553999916,260.02666079998016,260.02666079998016,None,260.02666079998016,260.02666079998016,260.8259523199289,None,,,,22053,0001,2023_Apr_05_1248,localizer,2021.1.3,59.45624882077254,
block,faces,faces077.bmp,,,,,0,134,134,134,,,,,,,,,,,,,,,,,,,,,,,,,,,,,,,,,,,,,,,,,,None,,260.8259523199289,None,260.8259523199289,None,2023-04-05-12:52:15.054356,260.83662189997267,261.142282399931,260.83662189997267,260.83662189997267,None,260.83662189997267,260.83662189997267,261.6428045198903,None,,,,22053,0001,2023_Apr_05_1248,localizer,2021.1.3,59.45624882077254,
block,faces,faces043.bmp,,,,,0,135,135,135,,,,,,,,,,,,,,,,,,,,,,,,,,,,,,,,,,,,,,,,,,None,,261.6428045198903,None,261.6428045198903,None,2023-04-05-12:52:15.870188,261.6562132999534,261.9589237999171,261.6562132999534,None,None,261.6562132999534,None,262.4609212199342,None,,,,22053,0001,2023_Apr_05_1248,localizer,2021.1.3,59.45624882077254,
block_end,faces,faces033.bmp,,,,,0,136,136,136,,,,,,,,,,,,,,,,,,,,,,,,,,,,,,,,,,,,,,,,,,None,,262.4609212199342,None,262.4609212199342,None,2023-04-05-12:52:16.690470,262.4782134999987,262.7922256999882,262.4782134999987,None,None,262.4782134999987,None,263.27821691989664,None,,,,22053,0001,2023_Apr_05_1248,localizer,2021.1.3,59.45624882077254,
block_start,scrambled,scrambled025.bmp,,,,,0,137,137,137,,,,,,,,,,,,,,,,,,,,,,,,,,,,,,,,,,,,,,,,,,t,1.796239999937825,263.2795578999212,None,263.2795578999212,None,2023-04-05-12:52:19.319324,265.1056066999445,265.40970069996547,265.1056066999445,None,None,265.1056066999445,None,265.9091022198903,None,,,,22053,0001,2023_Apr_05_1248,localizer,2021.1.3,59.45624882077254,
block,scrambled,scrambled005.bmp,,,,,0,138,138,138,,,,,,,,,,,,,,,,,,,,,,,,,,,,,,,,,,,,,,,,,,None,,265.9091022198903,None,265.9091022198903,None,2023-04-05-12:52:20.136676,265.9216576999752,266.225672999979,265.9216576999752,None,None,265.9216576999752,None,266.72579431991323,None,,,,22053,0001,2023_Apr_05_1248,localizer,2021.1.3,59.45624882077254,
block,scrambled,scrambled032.bmp,,,,,0,139,139,139,,,,,,,,,,,,,,,,,,,,,,,,,,,,,,,,,,,,,,,,,,None,,266.72579431991323,None,266.72579431991323,None,2023-04-05-12:52:20.953202,266.73715129995253,267.0422540999716,266.73715129995253,None,None,266.73715129995253,None,267.54394231996264,None,,,,22053,0001,2023_Apr_05_1248,localizer,2021.1.3,59.45624882077254,
block,scrambled,scrambled060.bmp,,,,,0,140,140,140,,,,,,,,,,,,,,,,,,,,,,,,,,,,,,,,,,,,,,,,,,None,,267.54394231996264,None,267.54394231996264,None,2023-04-05-12:52:21.773503,267.5594668999547,267.858903599903,267.5594668999547,None,None,267.5594668999547,None,268.3598097199923,None,,,,22053,0001,2023_Apr_05_1248,localizer,2021.1.3,59.45624882077254,
block,scrambled,scrambled044.bmp,,,,,0,141,141,141,,,,,,,,,,,,,,,,,,,,,,,,,,,,,,,,,,,,,,,,,,None,,268.3598097199923,None,268.3598097199923,None,2023-04-05-12:52:22.589441,268.3616383000044,268.67485819989815,268.3616383000044,None,None,268.3616383000044,None,269.1611265199375,None,,,,22053,0001,2023_Apr_05_1248,localizer,2021.1.3,59.45624882077254,
block,scrambled,scrambled034.bmp,,,,,0,142,142,142,,,,,,,,,,,,,,,,,,,,,,,,,,,,,,,,,,,,,,,,,,None,,269.1611265199375,None,269.1611265199375,None,2023-04-05-12:52:23.393541,269.16489679994993,269.47652639995795,269.16489679994993,269.16489679994993,None,269.16489679994993,269.16489679994993,269.9757346199243,None,,,,22053,0001,2023_Apr_05_1248,localizer,2021.1.3,59.45624882077254,
block,scrambled,scrambled024.bmp,,,,,0,143,143,143,,,,,,,,,,,,,,,,,,,,,,,,,,,,,,,,,,,,,,,,,,None,,269.9757346199243,None,269.9757346199243,None,2023-04-05-12:52:24.203143,269.9866670999909,270.2920907998923,269.9866670999909,None,None,269.9866670999909,None,270.7918446199386,None,,,,22053,0001,2023_Apr_05_1248,localizer,2021.1.3,59.45624882077254,
block,scrambled,scrambled042.bmp,,,,,0,144,144,144,,,,,,,,,,,,,,,,,,,,,,,,,,,,,,,,,,,,,,,,,,None,,270.7918446199386,None,270.7918446199386,None,2023-04-05-12:52:25.019133,270.7974128999049,271.11285209993366,270.7974128999049,None,None,270.7974128999049,None,271.6090900199837,None,,,,22053,0001,2023_Apr_05_1248,localizer,2021.1.3,59.45624882077254,
block,scrambled,scrambled069.bmp,,,,,0,145,145,145,,,,,,,,,,,,,,,,,,,,,,,,,,,,,,,,,,,,,,,,,,None,,271.6090900199837,None,271.6090900199837,None,2023-04-05-12:52:25.836494,271.6206481999252,271.9261562000029,271.6206481999252,None,None,271.6206481999252,None,272.4257441199501,None,,,,22053,0001,2023_Apr_05_1248,localizer,2021.1.3,59.45624882077254,
block,scrambled,scrambled036.bmp,,,,,0,146,146,146,,,,,,,,,,,,,,,,,,,,,,,,,,,,,,,,,,,,,,,,,,None,,272.4257441199501,None,272.4257441199501,None,2023-04-05-12:52:26.653153,272.42651509994175,272.72580299992114,272.42651509994175,None,None,272.42651509994175,None,273.22718182000096,None,,,,22053,0001,2023_Apr_05_1248,localizer,2021.1.3,59.45624882077254,
block,scrambled,scrambled007.bmp,,,,,0,147,147,147,,,,,,,,,,,,,,,,,,,,,,,,,,,,,,,,,,,,,,,,,,None,,273.22718182000096,None,273.22718182000096,None,2023-04-05-12:52:27.458366,273.24390239990316,273.55927219998557,273.24390239990316,273.24390239990316,y,273.24390239990316,273.24390239990316,274.04297151990465,None,0.6138491999590769,,,22053,0001,2023_Apr_05_1248,localizer,2021.1.3,59.45624882077254,
block,scrambled,scrambled061.bmp,,,,,0,148,148,148,,,,,,,,,,,,,,,,,,,,,,,,,,,,,,,,,,,,,,,,,,None,,274.04297151990465,None,274.04297151990465,None,2023-04-05-12:52:28.270575,274.05557430000044,274.3588752999203,274.05557430000044,None,None,274.05557430000044,None,274.85914851996347,None,,,,22053,0001,2023_Apr_05_1248,localizer,2021.1.3,59.45624882077254,
block,scrambled,scrambled088.bmp,,,,,0,149,149,149,,,,,,,,,,,,,,,,,,,,,,,,,,,,,,,,,,,,,,,,,,None,,274.85914851996347,None,274.85914851996347,None,2023-04-05-12:52:29.086865,274.86630949995015,275.1757293998962,274.86630949995015,None,None,274.86630949995015,None,275.676239519997,None,,,,22053,0001,2023_Apr_05_1248,localizer,2021.1.3,59.45624882077254,
block,scrambled,scrambled056.bmp,,,,,0,150,150,150,,,,,,,,,,,,,,,,,,,,,,,,,,,,,,,,,,,,,,,,,,None,,275.676239519997,None,275.676239519997,None,2023-04-05-12:52:29.903642,275.68810599995777,275.99248329992406,275.68810599995777,None,None,275.68810599995777,None,276.4923948198906,None,,,,22053,0001,2023_Apr_05_1248,localizer,2021.1.3,59.45624882077254,
block_end,scrambled,scrambled076.bmp,,,,,0,151,151,151,,,,,,,,,,,,,,,,,,,,,,,,,,,,,,,,,,,,,,,,,,None,,276.4923948198906,None,276.4923948198906,None,2023-04-05-12:52:30.720004,276.49322039994877,276.79267159989104,276.49322039994877,None,None,276.49322039994877,None,277.29378551993284,None,,,,22053,0001,2023_Apr_05_1248,localizer,2021.1.3,59.45624882077254,
block_start,scenes,scenes015.bmp,,,,,0,152,152,152,,,,,,,,,,,,,,,,,,,,,,,,,,,,,,,,,,,,,,,,,,t,1.78057629999239,277.2952301999321,None,277.2952301999321,None,2023-04-05-12:52:33.319600,279.09392419992946,279.3928445999045,279.09392419992946,None,None,279.09392419992946,None,279.89387251998994,None,,,,22053,0001,2023_Apr_05_1248,localizer,2021.1.3,59.45624882077254,
block,scenes,scenes040.bmp,,,,,0,153,153,153,,,,,,,,,,,,,,,,,,,,,,,,,,,,,,,,,,,,,,,,,,None,,279.89387251998994,None,279.89387251998994,None,2023-04-05-12:52:34.127245,279.9120725999819,280.22578539990354,279.9120725999819,279.9120725999819,None,279.9120725999819,279.9120725999819,280.710029719898,None,,,,22053,0001,2023_Apr_05_1248,localizer,2021.1.3,59.45624882077254,
block,scenes,scenes065.bmp,,,,,0,154,154,154,,,,,,,,,,,,,,,,,,,,,,,,,,,,,,,,,,,,,,,,,,None,,280.710029719898,None,280.710029719898,None,2023-04-05-12:52:34.938618,280.71190699993167,281.02588849992026,280.71190699993167,None,None,280.71190699993167,None,281.5263288199552,None,,,,22053,0001,2023_Apr_05_1248,localizer,2021.1.3,59.45624882077254,
block,scenes,scenes051.bmp,,,,,0,155,155,155,,,,,,,,,,,,,,,,,,,,,,,,,,,,,,,,,,,,,,,,,,None,,281.5263288199552,None,281.5263288199552,None,2023-04-05-12:52:35.753733,281.52700000000186,281.82717919989955,281.52700000000186,None,None,281.52700000000186,None,282.3264223198988,None,,,,22053,0001,2023_Apr_05_1248,localizer,2021.1.3,59.45624882077254,
block,scenes,scenes044.bmp,,,,,0,156,156,156,,,,,,,,,,,,,,,,,,,,,,,,,,,,,,,,,,,,,,,,,,None,,282.3264223198988,None,282.3264223198988,None,2023-04-05-12:52:36.555819,282.3288664999418,282.6427024999866,282.3288664999418,282.3288664999418,None,282.3288664999418,282.3288664999418,283.1433205199777,None,,,,22053,0001,2023_Apr_05_1248,localizer,2021.1.3,59.45624882077254,
block,scenes,scenes013.bmp,,,,,0,157,157,157,,,,,,,,,,,,,,,,,,,,,,,,,,,,,,,,,,,,,,,,,,None,,283.1433205199777,None,283.1433205199777,None,2023-04-05-12:52:37.371907,283.1558439999353,283.459197799908,283.1558439999353,None,None,283.1558439999353,None,283.94943911993175,None,,,,22053,0001,2023_Apr_05_1248,localizer,2021.1.3,59.45624882077254,
block,scenes,scenes064.bmp,,,,,0,158,158,158,,,,,,,,,,,,,,,,,,,,,,,,,,,,,,,,,,,,,,,,,,None,,283.94943911993175,None,283.94943911993175,None,2023-04-05-12:52:38.182759,283.9567206999054,284.2588271999266,283.9567206999054,None,None,283.9567206999054,None,284.7591277199448,None,,,,22053,0001,2023_Apr_05_1248,localizer,2021.1.3,59.45624882077254,
block,scenes,scenes072.bmp,,,,,0,159,159,159,,,,,,,,,,,,,,,,,,,,,,,,,,,,,,,,,,,,,,,,,,None,,284.7591277199448,None,284.7591277199448,None,2023-04-05-12:52:38.985240,284.76948839996476,285.0754769999767,284.76948839996476,None,None,284.76948839996476,None,285.5763111199834,None,,,,22053,0001,2023_Apr_05_1248,localizer,2021.1.3,59.45624882077254,
block,scenes,scenes010.bmp,,,,,0,160,160,160,,,,,,,,,,,,,,,,,,,,,,,,,,,,,,,,,,,,,,,,,,None,,285.5763111199834,None,285.5763111199834,None,2023-04-05-12:52:39.803720,285.57679219997954,285.87594449997414,285.57679219997954,None,None,285.57679219997954,None,286.3763351199799,None,,,,22053,0001,2023_Apr_05_1248,localizer,2021.1.3,59.45624882077254,
block,scenes,scenes061.bmp,,,,,0,161,161,161,,,,,,,,,,,,,,,,,,,,,,,,,,,,,,,,,,,,,,,,,,None,,286.3763351199799,None,286.3763351199799,None,2023-04-05-12:52:40.605949,286.3914337999886,286.6927389999619,286.3914337999886,286.3914337999886,None,286.3914337999886,286.3914337999886,287.1931432199548,None,,,,22053,0001,2023_Apr_05_1248,localizer,2021.1.3,59.45624882077254,
block,scenes,scenes061.bmp,,,,,0,162,162,162,,,,,,,,,,,,,,,,,,,,,,,,,,,,,,,,,,,,,,,,,,None,,287.1931432199548,None,287.1931432199548,None,2023-04-05-12:52:41.420545,287.19352579989936,287.4927149999421,287.19352579989936,None,y,287.19352579989936,None,287.9930140199489,None,0.48316139995586127,,,22053,0001,2023_Apr_05_1248,localizer,2021.1.3,59.45624882077254,
block,scenes,scenes091.bmp,,,,,0,163,163,163,,,,,,,,,,,,,,,,,,,,,,,,,,,,,,,,,,,,,,,,,,None,,287.9930140199489,None,287.9930140199489,None,2023-04-05-12:52:42.222626,288.0078478999203,288.30975709995255,288.0078478999203,288.0078478999203,None,288.0078478999203,288.0078478999203,288.8098364199162,None,,,,22053,0001,2023_Apr_05_1248,localizer,2021.1.3,59.45624882077254,
block,scenes,scenes004.bmp,,,,,0,164,164,164,,,,,,,,,,,,,,,,,,,,,,,,,,,,,,,,,,,,,,,,,,None,,288.8098364199162,None,288.8098364199162,None,2023-04-05-12:52:43.038427,288.8283593999222,289.142638899968,288.8283593999222,None,None,288.8283593999222,None,289.626481319929,None,,,,22053,0001,2023_Apr_05_1248,localizer,2021.1.3,59.45624882077254,
block,scenes,scenes041.bmp,,,,,0,165,165,165,,,,,,,,,,,,,,,,,,,,,,,,,,,,,,,,,,,,,,,,,,None,,289.626481319929,None,289.626481319929,None,2023-04-05-12:52:43.854095,289.6379949999973,289.94269659998827,289.6379949999973,None,None,289.6379949999973,None,290.44927401995517,None,,,,22053,0001,2023_Apr_05_1248,localizer,2021.1.3,59.45624882077254,
block_end,scenes,scenes075.bmp,,,,,0,166,166,166,,,,,,,,,,,,,,,,,,,,,,,,,,,,,,,,,,,,,,,,,,None,,290.44927401995517,None,290.44927401995517,None,2023-04-05-12:52:44.684483,290.46708319999743,290.7760225998936,290.46708319999743,None,None,290.46708319999743,None,291.2597134199808,None,,,,22053,0001,2023_Apr_05_1248,localizer,2021.1.3,59.45624882077254,
block_start,objects,objects020.bmp,,,,,0,167,167,167,,,,,,,,,,,,,,,,,,,,,,,,,,,,,,,,,,,,,,,,,,t,1.8162645000265911,291.25944929989055,None,291.25944929989055,None,2023-04-05-12:52:47.322309,293.10699269990437,293.40950409998186,293.10699269990437,None,None,293.10699269990437,None,293.91019731996346,None,,,,22053,0001,2023_Apr_05_1248,localizer,2021.1.3,59.45624882077254,
block,objects,objects082.bmp,,,,,0,168,168,168,,,,,,,,,,,,,,,,,,,,,,,,,,,,,,,,,,,,,,,,,,None,,293.91019731996346,None,293.91019731996346,None,2023-04-05-12:52:48.138523,293.9226143999258,294.2259370998945,293.9226143999258,None,None,293.9226143999258,None,294.7268973199301,None,,,,22053,0001,2023_Apr_05_1248,localizer,2021.1.3,59.45624882077254,
block,objects,objects065.bmp,,,,,0,169,169,169,,,,,,,,,,,,,,,,,,,,,,,,,,,,,,,,,,,,,,,,,,None,,294.7268973199301,None,294.7268973199301,None,2023-04-05-12:52:48.955294,294.73991689994,295.04242939990945,294.73991689994,None,None,294.73991689994,None,295.54296221995025,None,,,,22053,0001,2023_Apr_05_1248,localizer,2021.1.3,59.45624882077254,
block,objects,objects087.bmp,,,,,0,170,170,170,,,,,,,,,,,,,,,,,,,,,,,,,,,,,,,,,,,,,,,,,,None,,295.54296221995025,None,295.54296221995025,None,2023-04-05-12:52:49.770367,295.5545823998982,295.85955489997286,295.5545823998982,None,None,295.5545823998982,None,296.3592069199425,None,,,,22053,0001,2023_Apr_05_1248,localizer,2021.1.3,59.45624882077254,
block,objects,objects068.bmp,,,,,0,171,171,171,,,,,,,,,,,,,,,,,,,,,,,,,,,,,,,,,,,,,,,,,,None,,296.3592069199425,None,296.3592069199425,None,2023-04-05-12:52:50.586616,296.36983290000353,296.67588349990547,296.36983290000353,None,None,296.36983290000353,None,297.176395219902,None,,,,22053,0001,2023_Apr_05_1248,localizer,2021.1.3,59.45624882077254,
block,objects,objects049.bmp,,,,,0,172,172,172,,,,,,,,,,,,,,,,,,,,,,,,,,,,,,,,,,,,,,,,,,None,,297.176395219902,None,297.176395219902,None,2023-04-05-12:52:51.403978,297.1880029999884,297.4928458998911,297.1880029999884,None,None,297.1880029999884,None,297.99363311989,None,,,,22053,0001,2023_Apr_05_1248,localizer,2021.1.3,59.45624882077254,
block,objects,objects027.bmp,,,,,0,173,173,173,,,,,,,,,,,,,,,,,,,,,,,,,,,,,,,,,,,,,,,,,,None,,297.99363311989,None,297.99363311989,None,2023-04-05-12:52:52.221045,298.0035372999264,298.3095824999036,298.0035372999264,None,None,298.0035372999264,None,298.8096328199957,None,,,,22053,0001,2023_Apr_05_1248,localizer,2021.1.3,59.45624882077254,
block,objects,objects050.bmp,,,,,0,174,174,174,,,,,,,,,,,,,,,,,,,,,,,,,,,,,,,,,,,,,,,,,,None,,298.8096328199957,None,298.8096328199957,None,2023-04-05-12:52:53.037037,298.8212140999967,299.1260840999894,298.8212140999967,None,None,298.8212140999967,None,299.6262984199333,None,,,,22053,0001,2023_Apr_05_1248,localizer,2021.1.3,59.45624882077254,
block,objects,objects030.bmp,,,,,0,175,175,175,,,,,,,,,,,,,,,,,,,,,,,,,,,,,,,,,,,,,,,,,,None,,299.6262984199333,None,299.6262984199333,None,2023-04-05-12:52:53.853701,299.6342955,299.9429694999708,299.6342955,None,None,299.6342955,None,300.4426373199443,None,,,,22053,0001,2023_Apr_05_1248,localizer,2021.1.3,59.45624882077254,
block,objects,objects056.bmp,,,,,0,176,176,176,,,,,,,,,,,,,,,,,,,,,,,,,,,,,,,,,,,,,,,,,,None,,300.4426373199443,None,300.4426373199443,None,2023-04-05-12:52:54.670048,300.45256879995577,300.7594000999816,300.45256879995577,None,None,300.45256879995577,None,301.25969471995484,None,,,,22053,0001,2023_Apr_05_1248,localizer,2021.1.3,59.45624882077254,
block,objects,objects035.bmp,,,,,0,177,177,177,,,,,,,,,,,,,,,,,,,,,,,,,,,,,,,,,,,,,,,,,,None,,301.25969471995484,None,301.25969471995484,None,2023-04-05-12:52:55.487407,301.26030419999734,301.55960939999204,301.26030419999734,None,None,301.26030419999734,None,302.0606295199017,None,,,,22053,0001,2023_Apr_05_1248,localizer,2021.1.3,59.45624882077254,
block,objects,objects003.bmp,,,,,0,178,178,178,,,,,,,,,,,,,,,,,,,,,,,,,,,,,,,,,,,,,,,,,,None,,302.0606295199017,None,302.0606295199017,None,2023-04-05-12:52:56.291207,302.0750468999613,302.37646289996337,302.0750468999613,302.0750468999613,None,302.0750468999613,302.0750468999613,302.8765762199531,None,,,,22053,0001,2023_Apr_05_1248,localizer,2021.1.3,59.45624882077254,
block,objects,objects070.bmp,,,,,0,179,179,179,,,,,,,,,,,,,,,,,,,,,,,,,,,,,,,,,,,,,,,,,,None,,302.8765762199531,None,302.8765762199531,None,2023-04-05-12:52:57.105082,302.87701119994745,303.176348399953,302.87701119994745,None,None,302.87701119994745,None,303.69206181998595,None,,,,22053,0001,2023_Apr_05_1248,localizer,2021.1.3,59.45624882077254,
block,objects,objects018.bmp,,,,,0,180,180,180,,,,,,,,,,,,,,,,,,,,,,,,,,,,,,,,,,,,,,,,,,None,,303.69206181998595,None,303.69206181998595,None,2023-04-05-12:52:57.919127,303.7021885999711,304.0092864999315,303.7021885999711,None,None,303.7021885999711,None,304.4971727199503,None,,,,22053,0001,2023_Apr_05_1248,localizer,2021.1.3,59.45624882077254,
block_end,objects,objects075.bmp,,,,,0,181,181,181,,,,,,,,,,,,,,,,,,,,,,,,,,,,,,,,,,,,,,,,,,None,,304.4971727199503,None,304.4971727199503,None,2023-04-05-12:52:58.728522,304.5171056999825,304.8261601999402,304.5171056999825,None,None,304.5171056999825,None,305.3097666199668,None,,,,22053,0001,2023_Apr_05_1248,localizer,2021.1.3,59.45624882077254,
null_block,null_block,null_block.bmp,,,,,0,182,182,182,,,,,,,,,,,,,,,,,,,,,,,,,,,,,,,,,,,,,,,,,,t,1.7664249000372365,305.3094019999262,None,305.3094019999262,None,2023-04-05-12:53:01.318602,307.0930142199271,None,307.0930142199271,None,None,307.0930142199271,None,307.1028800999047,None,,,,22053,0001,2023_Apr_05_1248,localizer,2021.1.3,59.45624882077254,
block_start,scenes,scenes009.bmp,,,,,0,183,183,183,,,,,,,,,,,,,,,,,,,,,,,,,,,,,,,,,,,,,,,,,,t,1.9661835000151768,319.1096595999552,None,319.1096595999552,None,2023-04-05-12:53:15.320887,321.1066225999966,321.409576099948,321.1066225999966,None,None,321.1066225999966,None,321.91019781996727,None,,,,22053,0001,2023_Apr_05_1248,localizer,2021.1.3,59.45624882077254,
block,scenes,scenes081.bmp,,,,,0,184,184,184,,,,,,,,,,,,,,,,,,,,,,,,,,,,,,,,,,,,,,,,,,None,,321.91019781996727,None,321.91019781996727,None,2023-04-05-12:53:16.138685,321.9233716999879,322.22617919999175,321.9233716999879,None,None,321.9233716999879,None,322.7263928199303,None,,,,22053,0001,2023_Apr_05_1248,localizer,2021.1.3,59.45624882077254,
block,scenes,scenes057.bmp,,,,,0,185,185,185,,,,,,,,,,,,,,,,,,,,,,,,,,,,,,,,,,,,,,,,,,None,,322.7263928199303,None,322.7263928199303,None,2023-04-05-12:53:16.953998,322.7383456999669,323.0429255999625,322.7383456999669,None,None,322.7383456999669,None,323.5433595199487,None,,,,22053,0001,2023_Apr_05_1248,localizer,2021.1.3,59.45624882077254,
block,scenes,scenes003.bmp,,,,,0,186,186,186,,,,,,,,,,,,,,,,,,,,,,,,,,,,,,,,,,,,,,,,,,None,,323.5433595199487,None,323.5433595199487,None,2023-04-05-12:53:17.770760,323.55684799992014,323.85949539998546,323.55684799992014,None,None,323.55684799992014,None,324.34892271998103,None,,,,22053,0001,2023_Apr_05_1248,localizer,2021.1.3,59.45624882077254,
block,scenes,scenes088.bmp,,,,,0,187,187,187,,,,,,,,,,,,,,,,,,,,,,,,,,,,,,,,,,,,,,,,,,None,,324.34892271998103,None,324.34892271998103,None,2023-04-05-12:53:18.580255,324.3658521999605,324.67604839999694,324.3658521999605,None,None,324.3658521999605,None,325.15956941995535,None,,,,22053,0001,2023_Apr_05_1248,localizer,2021.1.3,59.45624882077254,
block,scenes,scenes025.bmp,,,,,0,188,188,188,,,,,,,,,,,,,,,,,,,,,,,,,,,,,,,,,,,,,,,,,,None,,325.15956941995535,None,325.15956941995535,None,2023-04-05-12:53:19.386978,325.17230639990885,325.4760464999126,325.17230639990885,None,None,325.17230639990885,None,325.9767080200021,None,,,,22053,0001,2023_Apr_05_1248,localizer,2021.1.3,59.45624882077254,
block,scenes,scenes075.bmp,,,,,0,189,189,189,,,,,,,,,,,,,,,,,,,,,,,,,,,,,,,,,,,,,,,,,,None,,325.9767080200021,None,325.9767080200021,None,2023-04-05-12:53:20.203791,325.97704379993957,326.2768296999857,325.97704379993957,None,None,325.97704379993957,None,326.77668781989485,None,,,,22053,0001,2023_Apr_05_1248,localizer,2021.1.3,59.45624882077254,
block,scenes,scenes078.bmp,,,,,0,190,190,190,,,,,,,,,,,,,,,,,,,,,,,,,,,,,,,,,,,,,,,,,,None,,326.77668781989485,None,326.77668781989485,None,2023-04-05-12:53:21.007316,326.7794980999315,327.09340989997145,326.7794980999315,326.7794980999315,None,326.7794980999315,326.7794980999315,327.59318981998365,None,,,,22053,0001,2023_Apr_05_1248,localizer,2021.1.3,59.45624882077254,
block,scenes,scenes005.bmp,,,,,0,191,191,191,,,,,,,,,,,,,,,,,,,,,,,,,,,,,,,,,,,,,,,,,,None,,327.59318981998365,None,327.59318981998365,None,2023-04-05-12:53:21.820799,327.59382259997074,327.8929818999022,327.59382259997074,None,None,327.59382259997074,None,328.40966702000003,None,,,,22053,0001,2023_Apr_05_1248,localizer,2021.1.3,59.45624882077254,
block,scenes,scenes020.bmp,,,,,0,192,192,192,,,,,,,,,,,,,,,,,,,,,,,,,,,,,,,,,,,,,,,,,,None,,328.40966702000003,None,328.40966702000003,None,2023-04-05-12:53:22.637073,328.4208097999217,328.7264384999871,328.4208097999217,None,None,328.4208097999217,None,329.2262735199532,None,,,,22053,0001,2023_Apr_05_1248,localizer,2021.1.3,59.45624882077254,
block,scenes,scenes006.bmp,,,,,0,193,193,193,,,,,,,,,,,,,,,,,,,,,,,,,,,,,,,,,,,,,,,,,,None,,329.2262735199532,None,329.2262735199532,None,2023-04-05-12:53:23.453920,329.2379561999114,329.54281569994055,329.2379561999114,None,None,329.2379561999114,None,330.043478319922,None,,,,22053,0001,2023_Apr_05_1248,localizer,2021.1.3,59.45624882077254,
block,scenes,scenes047.bmp,,,,,0,194,194,194,,,,,,,,,,,,,,,,,,,,,,,,,,,,,,,,,,,,,,,,,,None,,330.043478319922,None,330.043478319922,None,2023-04-05-12:53:24.271856,330.0565246999031,330.35952079994604,330.0565246999031,None,None,330.0565246999031,None,330.8604909199406,None,,,,22053,0001,2023_Apr_05_1248,localizer,2021.1.3,59.45624882077254,
block,scenes,scenes028.bmp,,,,,0,195,195,195,,,,,,,,,,,,,,,,,,,,,,,,,,,,,,,,,,,,,,,,,,None,,330.8604909199406,None,330.8604909199406,None,2023-04-05-12:53:25.089079,330.8624173999997,331.1759472999256,330.8624173999997,None,None,330.8624173999997,None,331.6765236199484,None,,,,22053,0001,2023_Apr_05_1248,localizer,2021.1.3,59.45624882077254,
block,scenes,scenes022.bmp,,,,,0,196,196,196,,,,,,,,,,,,,,,,,,,,,,,,,,,,,,,,,,,,,,,,,,None,,331.6765236199484,None,331.6765236199484,None,2023-04-05-12:53:25.903921,331.6892408999847,331.9928037999198,331.6892408999847,None,None,331.6892408999847,None,332.4948429199052,None,,,,22053,0001,2023_Apr_05_1248,localizer,2021.1.3,59.45624882077254,
block_end,scenes,scenes015.bmp,,,,,0,197,197,197,,,,,,,,,,,,,,,,,,,,,,,,,,,,,,,,,,,,,,,,,,None,,332.4948429199052,None,332.4948429199052,None,2023-04-05-12:53:26.723406,332.4966548999073,332.8097276999615,332.4966548999073,None,None,332.4966548999073,None,333.31000371990956,None,,,,22053,0001,2023_Apr_05_1248,localizer,2021.1.3,59.45624882077254,
null_block,null_block,null_block.bmp,,,,,0,198,198,198,,,,,,,,,,,,,,,,,,,,,,,,,,,,,,,,,,,,,,,,,,t,1.766365599934943,333.3096700999886,None,333.3096700999886,None,2023-04-05-12:53:29.329444,335.1120330399833,None,335.1120330399833,None,None,335.1120330399833,None,335.11048119992483,None,,,,22053,0001,2023_Apr_05_1248,localizer,2021.1.3,59.45624882077254,
block_start,objects,objects060.bmp,,,,,0,199,199,199,,,,,,,,,,,,,,,,,,,,,,,,,,,,,,,,,,,,,,,,,,t,1.9621609000023454,347.1125267999014,None,347.1125267999014,None,2023-04-05-12:53:43.322830,349.1067072999431,349.40979339997284,349.1067072999431,None,None,349.1067072999431,None,349.9102637200034,None,,,,22053,0001,2023_Apr_05_1248,localizer,2021.1.3,59.45624882077254,
block,objects,objects084.bmp,,,,,0,200,200,200,,,,,,,,,,,,,,,,,,,,,,,,,,,,,,,,,,,,,,,,,,None,,349.9102637200034,None,349.9102637200034,None,2023-04-05-12:53:44.137663,349.9227106999606,350.2263989999192,349.9227106999606,None,None,349.9227106999606,None,350.7267789199599,None,,,,22053,0001,2023_Apr_05_1248,localizer,2021.1.3,59.45624882077254,
block,objects,objects041.bmp,,,,,0,201,201,201,,,,,,,,,,,,,,,,,,,,,,,,,,,,,,,,,,,,,,,,,,None,,350.7267789199599,None,350.7267789199599,None,2023-04-05-12:53:44.954181,350.73845009994693,351.0432155999588,350.73845009994693,None,None,350.73845009994693,None,351.5436074199737,None,,,,22053,0001,2023_Apr_05_1248,localizer,2021.1.3,59.45624882077254,
block,objects,objects051.bmp,,,,,0,202,202,202,,,,,,,,,,,,,,,,,,,,,,,,,,,,,,,,,,,,,,,,,,None,,351.5436074199737,None,351.5436074199737,None,2023-04-05-12:53:45.771005,351.55556209990755,351.8597536999732,351.55556209990755,None,None,351.55556209990755,None,352.36004141989395,None,,,,22053,0001,2023_Apr_05_1248,localizer,2021.1.3,59.45624882077254,
block,objects,objects009.bmp,,,,,0,203,203,203,,,,,,,,,,,,,,,,,,,,,,,,,,,,,,,,,,,,,,,,,,None,,352.36004141989395,None,352.36004141989395,None,2023-04-05-12:53:46.588006,352.36067809991073,352.6762962999055,352.36067809991073,None,None,352.36067809991073,None,353.1597051199409,None,,,,22053,0001,2023_Apr_05_1248,localizer,2021.1.3,59.45624882077254,
block,objects,objects044.bmp,,,,,0,204,204,204,,,,,,,,,,,,,,,,,,,,,,,,,,,,,,,,,,,,,,,,,,None,,353.1597051199409,None,353.1597051199409,None,2023-04-05-12:53:47.388113,353.160471299896,353.4763018999947,353.160471299896,353.160471299896,None,353.160471299896,353.160471299896,353.9600535199628,None,,,,22053,0001,2023_Apr_05_1248,localizer,2021.1.3,59.45624882077254,
block,objects,objects067.bmp,,,,,0,205,205,205,,,,,,,,,,,,,,,,,,,,,,,,,,,,,,,,,,,,,,,,,,None,,353.9600535199628,None,353.9600535199628,None,2023-04-05-12:53:48.188457,353.97167579992674,354.27629660000093,353.97167579992674,353.97167579992674,None,353.97167579992674,353.97167579992674,354.7764595199027,None,,,,22053,0001,2023_Apr_05_1248,localizer,2021.1.3,59.45624882077254,
block,objects,objects070.bmp,,,,,0,206,206,206,,,,,,,,,,,,,,,,,,,,,,,,,,,,,,,,,,,,,,,,,,None,,354.7764595199027,None,354.7764595199027,None,2023-04-05-12:53:49.003864,354.77707059995737,355.077039900003,354.77707059995737,None,None,354.77707059995737,None,355.5802505199448,None,,,,22053,0001,2023_Apr_05_1248,localizer,2021.1.3,59.45624882077254,
block,objects,objects049.bmp,,,,,0,207,207,207,,,,,,,,,,,,,,,,,,,,,,,,,,,,,,,,,,,,,,,,,,None,,355.5802505199448,None,355.5802505199448,None,2023-04-05-12:53:49.809583,355.5869281999767,355.8928494999418,355.5869281999767,355.5869281999767,None,355.5869281999767,355.5869281999767,356.3932506199111,None,,,,22053,0001,2023_Apr_05_1248,localizer,2021.1.3,59.45624882077254,
block,objects,objects077.bmp,,,,,0,208,208,208,,,,,,,,,,,,,,,,,,,,,,,,,,,,,,,,,,,,,,,,,,None,,356.3932506199111,None,356.3932506199111,None,2023-04-05-12:53:50.620873,356.39399739995133,356.6929981999565,356.39399739995133,None,None,356.39399739995133,None,357.19317611997246,None,,,,22053,0001,2023_Apr_05_1248,localizer,2021.1.3,59.45624882077254,
block,objects,objects079.bmp,,,,,0,209,209,209,,,,,,,,,,,,,,,,,,,,,,,,,,,,,,,,,,,,,,,,,,None,,357.19317611997246,None,357.19317611997246,None,2023-04-05-12:53:51.421579,357.19393209996633,357.4931615999667,357.19393209996633,357.19393209996633,None,357.19393209996633,357.19393209996633,357.99348101989597,None,,,,22053,0001,2023_Apr_05_1248,localizer,2021.1.3,59.45624882077254,
block,objects,objects015.bmp,,,,,0,210,210,210,,,,,,,,,,,,,,,,,,,,,,,,,,,,,,,,,,,,,,,,,,None,,357.99348101989597,None,357.99348101989597,None,2023-04-05-12:53:52.223097,358.00788329995703,358.30981059989426,358.00788329995703,358.00788329995703,None,358.00788329995703,358.00788329995703,358.80972301998406,None,,,,22053,0001,2023_Apr_05_1248,localizer,2021.1.3,59.45624882077254,
block,objects,objects055.bmp,,,,,0,211,211,211,,,,,,,,,,,,,,,,,,,,,,,,,,,,,,,,,,,,,,,,,,None,,358.80972301998406,None,358.80972301998406,None,2023-04-05-12:53:53.037380,358.82045669993386,359.12650049990043,358.82045669993386,None,None,358.82045669993386,None,359.62685011994324,None,,,,22053,0001,2023_Apr_05_1248,localizer,2021.1.3,59.45624882077254,
block,objects,objects048.bmp,,,,,0,212,212,212,,,,,,,,,,,,,,,,,,,,,,,,,,,,,,,,,,,,,,,,,,None,,359.62685011994324,None,359.62685011994324,None,2023-04-05-12:53:53.854233,359.6383659999119,359.94323549990077,359.6383659999119,None,None,359.6383659999119,None,360.4469231199822,None,,,,22053,0001,2023_Apr_05_1248,localizer,2021.1.3,59.45624882077254,
block_end,objects,objects047.bmp,,,,,0,213,213,213,,,,,,,,,,,,,,,,,,,,,,,,,,,,,,,,,,,,,,,,,,None,,360.4469231199822,None,360.4469231199822,None,2023-04-05-12:53:54.682380,360.4572267999174,360.75976649997756,360.4572267999174,None,None,360.4572267999174,None,361.2598337199655,None,,,,22053,0001,2023_Apr_05_1248,localizer,2021.1.3,59.45624882077254,
block_start,scrambled,scrambled051.bmp,,,,,0,214,214,214,,,,,,,,,,,,,,,,,,,,,,,,,,,,,,,,,,,,,,,,,,t,1.8145209999056533,361.2602881999919,None,361.2602881999919,None,2023-04-05-12:53:57.320953,363.09383779997006,363.3933606999926,363.09383779997006,None,None,363.09383779997006,None,363.8935908199404,None,,,,22053,0001,2023_Apr_05_1248,localizer,2021.1.3,59.45624882077254,
block,scrambled,scrambled025.bmp,,,,,0,215,215,215,,,,,,,,,,,,,,,,,,,,,,,,,,,,,,,,,,,,,,,,,,None,,363.8935908199404,None,363.8935908199404,None,2023-04-05-12:53:58.122986,363.8947590999305,364.2089869999327,363.8947590999305,363.8947590999305,None,363.8947590999305,363.8947590999305,364.69526721994623,None,,,,22053,0001,2023_Apr_05_1248,localizer,2021.1.3,59.45624882077254,
block,scrambled,scrambled042.bmp,,,,,0,216,216,216,,,,,,,,,,,,,,,,,,,,,,,,,,,,,,,,,,,,,,,,,,None,,364.69526721994623,None,364.69526721994623,None,2023-04-05-12:53:58.925737,364.6980290999636,365.00953599996865,364.6980290999636,364.6980290999636,None,364.6980290999636,364.6980290999636,365.5100782199646,None,,,,22053,0001,2023_Apr_05_1248,localizer,2021.1.3,59.45624882077254,
block,scrambled,scrambled088.bmp,,,,,0,217,217,217,,,,,,,,,,,,,,,,,,,,,,,,,,,,,,,,,,,,,,,,,,None,,365.5100782199646,None,365.5100782199646,None,2023-04-05-12:53:59.737484,365.51069509994704,365.8096244999906,365.51069509994704,None,None,365.51069509994704,None,366.3266107199364,None,,,,22053,0001,2023_Apr_05_1248,localizer,2021.1.3,59.45624882077254,
block,scrambled,scrambled033.bmp,,,,,0,218,218,218,,,,,,,,,,,,,,,,,,,,,,,,,,,,,,,,,,,,,,,,,,None,,366.3266107199364,None,366.3266107199364,None,2023-04-05-12:54:00.553309,366.33698669995647,366.6430135999108,366.33698669995647,None,None,366.33698669995647,None,367.1334381199325,None,,,,22053,0001,2023_Apr_05_1248,localizer,2021.1.3,59.45624882077254,
block,scrambled,scrambled047.bmp,,,,,0,219,219,219,,,,,,,,,,,,,,,,,,,,,,,,,,,,,,,,,,,,,,,,,,None,,367.1334381199325,None,367.1334381199325,None,2023-04-05-12:54:01.365768,367.1480726998998,367.45964089990593,367.1480726998998,None,None,367.1480726998998,None,367.94361621994756,None,,,,22053,0001,2023_Apr_05_1248,localizer,2021.1.3,59.45624882077254,
block,scrambled,scrambled013.bmp,,,,,0,220,220,220,,,,,,,,,,,,,,,,,,,,,,,,,,,,,,,,,,,,,,,,,,None,,367.94361621994756,None,367.94361621994756,None,2023-04-05-12:54:02.171018,367.95631699997466,368.2597903999267,367.95631699997466,None,None,367.95631699997466,None,368.7603843199671,None,,,,22053,0001,2023_Apr_05_1248,localizer,2021.1.3,59.45624882077254,
block,scrambled,scrambled028.bmp,,,,,0,221,221,221,,,,,,,,,,,,,,,,,,,,,,,,,,,,,,,,,,,,,,,,,,None,,368.7603843199671,None,368.7603843199671,None,2023-04-05-12:54:02.987992,368.768654699903,369.0766933999257,368.768654699903,None,None,368.768654699903,None,369.57694751993984,None,,,,22053,0001,2023_Apr_05_1248,localizer,2021.1.3,59.45624882077254,
block,scrambled,scrambled030.bmp,,,,,0,222,222,222,,,,,,,,,,,,,,,,,,,,,,,,,,,,,,,,,,,,,,,,,,None,,369.57694751993984,None,369.57694751993984,None,2023-04-05-12:54:03.804563,369.588708999916,369.8932885999093,369.588708999916,None,None,369.588708999916,None,370.3931127199088,None,,,,22053,0001,2023_Apr_05_1248,localizer,2021.1.3,59.45624882077254,
block,scrambled,scrambled010.bmp,,,,,0,223,223,223,,,,,,,,,,,,,,,,,,,,,,,,,,,,,,,,,,,,,,,,,,None,,370.3931127199088,None,370.3931127199088,None,2023-04-05-12:54:04.620846,370.3943942999467,370.6934449999826,370.3943942999467,None,None,370.3943942999467,None,371.19371711990095,None,,,,22053,0001,2023_Apr_05_1248,localizer,2021.1.3,59.45624882077254,
block,scrambled,scrambled011.bmp,,,,,0,224,224,224,,,,,,,,,,,,,,,,,,,,,,,,,,,,,,,,,,,,,,,,,,None,,371.19371711990095,None,371.19371711990095,None,2023-04-05-12:54:05.423342,371.2079338999465,371.50999419996515,371.2079338999465,371.2079338999465,None,371.2079338999465,371.2079338999465,372.0102534199017,None,,,,22053,0001,2023_Apr_05_1248,localizer,2021.1.3,59.45624882077254,
block,scrambled,scrambled029.bmp,,,,,0,225,225,225,,,,,,,,,,,,,,,,,,,,,,,,,,,,,,,,,,,,,,,,,,None,,372.0102534199017,None,372.0102534199017,None,2023-04-05-12:54:06.237654,372.02203219989315,372.3265909999609,372.02203219989315,None,None,372.02203219989315,None,372.8269042199594,None,,,,22053,0001,2023_Apr_05_1248,localizer,2021.1.3,59.45624882077254,
block,scrambled,scrambled075.bmp,,,,,0,226,226,226,,,,,,,,,,,,,,,,,,,,,,,,,,,,,,,,,,,,,,,,,,None,,372.8269042199594,None,372.8269042199594,None,2023-04-05-12:54:07.054256,372.8348326999694,373.14334979990963,372.8348326999694,None,None,372.8348326999694,None,373.6436019199085,None,,,,22053,0001,2023_Apr_05_1248,localizer,2021.1.3,59.45624882077254,
block,scrambled,scrambled037.bmp,,,,,0,227,227,227,,,,,,,,,,,,,,,,,,,,,,,,,,,,,,,,,,,,,,,,,,None,,373.6436019199085,None,373.6436019199085,None,2023-04-05-12:54:07.871004,373.64405559992883,373.9433727998985,373.64405559992883,None,None,373.64405559992883,None,374.44953461996045,None,,,,22053,0001,2023_Apr_05_1248,localizer,2021.1.3,59.45624882077254,
block_end,scrambled,scrambled004.bmp,,,,,0,228,228,228,,,,,,,,,,,,,,,,,,,,,,,,,,,,,,,,,,,,,,,,,,None,,374.44953461996045,None,374.44953461996045,None,2023-04-05-12:54:08.676948,374.45946519996505,374.7597800999647,374.45946519996505,None,None,374.45946519996505,None,375.26019111989297,None,,,,22053,0001,2023_Apr_05_1248,localizer,2021.1.3,59.45624882077254,
block_start,faces,faces056.bmp,,,,,0,229,229,229,,,,,,,,,,,,,,,,,,,,,,,,,,,,,,,,,,,,,,,,,,t,1.8148107000160962,375.26001639990136,None,375.26001639990136,None,2023-04-05-12:54:11.319982,377.1042219999945,377.4102042999584,377.1042219999945,None,None,377.1042219999945,None,377.91029481989096,None,,,,22053,0001,2023_Apr_05_1248,localizer,2021.1.3,59.45624882077254,
block,faces,faces059.bmp,,,,,0,230,230,230,,,,,,,,,,,,,,,,,,,,,,,,,,,,,,,,,,,,,,,,,,None,,377.91029481989096,None,377.91029481989096,None,2023-04-05-12:54:12.137697,377.9107486999128,378.2096971999854,377.9107486999128,None,None,377.9107486999128,None,378.7100181199261,None,,,,22053,0001,2023_Apr_05_1248,localizer,2021.1.3,59.45624882077254,
block,faces,faces006.bmp,,,,,0,231,231,231,,,,,,,,,,,,,,,,,,,,,,,,,,,,,,,,,,,,,,,,,,None,,378.7100181199261,None,378.7100181199261,None,2023-04-05-12:54:12.939355,378.72204339993186,379.026638399926,378.72204339993186,378.72204339993186,None,378.72204339993186,378.72204339993186,379.5267607199843,None,,,,22053,0001,2023_Apr_05_1248,localizer,2021.1.3,59.45624882077254,
block,faces,faces079.bmp,,,,,0,232,232,232,,,,,,,,,,,,,,,,,,,,,,,,,,,,,,,,,,,,,,,,,,None,,379.5267607199843,None,379.5267607199843,None,2023-04-05-12:54:13.754470,379.5278368999716,379.8270367999794,379.5278368999716,None,None,379.5278368999716,None,380.34344701996304,None,,,,22053,0001,2023_Apr_05_1248,localizer,2021.1.3,59.45624882077254,
block,faces,faces082.bmp,,,,,0,233,233,233,,,,,,,,,,,,,,,,,,,,,,,,,,,,,,,,,,,,,,,,,,None,,380.34344701996304,None,380.34344701996304,None,2023-04-05-12:54:14.571128,380.355265299906,380.66005549998954,380.355265299906,None,None,380.355265299906,None,381.1599775199196,None,,,,22053,0001,2023_Apr_05_1248,localizer,2021.1.3,59.45624882077254,
block,faces,faces063.bmp,,,,,0,234,234,234,,,,,,,,,,,,,,,,,,,,,,,,,,,,,,,,,,,,,,,,,,None,,381.1599775199196,None,381.1599775199196,None,2023-04-05-12:54:15.387385,381.16074129997287,381.4598989998922,381.16074129997287,None,None,381.16074129997287,None,381.96057311996117,None,,,,22053,0001,2023_Apr_05_1248,localizer,2021.1.3,59.45624882077254,
block,faces,faces076.bmp,,,,,0,235,235,235,,,,,,,,,,,,,,,,,,,,,,,,,,,,,,,,,,,,,,,,,,None,,381.96057311996117,None,381.96057311996117,None,2023-04-05-12:54:16.190205,381.97502399992663,382.27679589996114,381.97502399992663,381.97502399992663,None,381.97502399992663,381.97502399992663,382.7773205199395,None,,,,22053,0001,2023_Apr_05_1248,localizer,2021.1.3,59.45624882077254,
block,faces,faces051.bmp,,,,,0,236,236,236,,,,,,,,,,,,,,,,,,,,,,,,,,,,,,,,,,,,,,,,,,None,,382.7773205199395,None,382.7773205199395,None,2023-04-05-12:54:17.004944,382.7921001999639,383.09281609999016,382.7921001999639,None,None,382.7921001999639,None,383.5936950199888,None,,,,22053,0001,2023_Apr_05_1248,localizer,2021.1.3,59.45624882077254,
block,faces,faces023.bmp,,,,,0,237,237,237,,,,,,,,,,,,,,,,,,,,,,,,,,,,,,,,,,,,,,,,,,None,,383.5936950199888,None,383.5936950199888,None,2023-04-05-12:54:17.821845,383.5942187999608,383.8934047999792,383.5942187999608,None,None,383.5942187999608,None,384.3937026199768,None,,,,22053,0001,2023_Apr_05_1248,localizer,2021.1.3,59.45624882077254,
block,faces,faces020.bmp,,,,,0,238,238,238,,,,,,,,,,,,,,,,,,,,,,,,,,,,,,,,,,,,,,,,,,None,,384.3937026199768,None,384.3937026199768,None,2023-04-05-12:54:18.623100,384.4045254999073,384.7097366999369,384.4045254999073,384.4045254999073,None,384.4045254999073,384.4045254999073,385.2105044199037,None,,,,22053,0001,2023_Apr_05_1248,localizer,2021.1.3,59.45624882077254,
block,faces,faces020.bmp,,,,,0,239,239,239,,,,,,,,,,,,,,,,,,,,,,,,,,,,,,,,,,,,,,,,,,None,,385.2105044199037,None,385.2105044199037,None,2023-04-05-12:54:19.437905,385.2110179999145,385.5100349999266,385.2110179999145,None,None,385.2110179999145,None,386.0103869199869,None,,,,22053,0001,2023_Apr_05_1248,localizer,2021.1.3,59.45624882077254,
block,faces,faces052.bmp,,,,,0,240,240,240,,,,,,,,,,,,,,,,,,,,,,,,,,,,,,,,,,,,,,,,,,None,,386.0103869199869,None,386.0103869199869,None,2023-04-05-12:54:20.239783,386.02225369994994,386.32674950000364,386.02225369994994,386.02225369994994,None,386.02225369994994,386.02225369994994,386.8270915199886,None,,,,22053,0001,2023_Apr_05_1248,localizer,2021.1.3,59.45624882077254,
block,faces,faces087.bmp,,,,,0,241,241,241,,,,,,,,,,,,,,,,,,,,,,,,,,,,,,,,,,,,,,,,,,None,,386.8270915199886,None,386.8270915199886,None,2023-04-05-12:54:21.054739,386.84059909998905,387.1429206999019,386.84059909998905,None,None,386.84059909998905,None,387.64332031997617,None,,,,22053,0001,2023_Apr_05_1248,localizer,2021.1.3,59.45624882077254,
block,faces,faces060.bmp,,,,,0,242,242,242,,,,,,,,,,,,,,,,,,,,,,,,,,,,,,,,,,,,,,,,,,None,,387.64332031997617,None,387.64332031997617,None,2023-04-05-12:54:21.870730,387.65411020000465,387.96011149999686,387.65411020000465,None,None,387.65411020000465,None,388.46006581994004,None,,,,22053,0001,2023_Apr_05_1248,localizer,2021.1.3,59.45624882077254,
block_end,faces,faces068.bmp,,,,,0,243,243,243,,,,,,,,,,,,,,,,,,,,,,,,,,,,,,,,,,,,,,,,,,None,,388.46006581994004,None,388.46006581994004,None,2023-04-05-12:54:22.687757,388.4728404999478,388.776461499976,388.4728404999478,None,None,388.4728404999478,None,389.27680421996627,None,,,,22053,0001,2023_Apr_05_1248,localizer,2021.1.3,59.45624882077254,
,,,,,,,,,,,,,,,,,,,,,,,,,,,,,,,,,,,,,,,,,,,,,,,,,,,,,,,,,,,,,,,,,,,,,389.28315799997654,None,,,,,,,
