block_type,condition,img_name,Button.thisRepN,Button.thisTrialN,Button.thisN,Button.thisIndex,trials.thisRepN,trials.thisTrialN,trials.thisN,trials.thisIndex,Alignment_background.started,Alignment_background.stopped,Alignment_image.started,Alignment_image.stopped,Alignment_resp.keys,Alignment_resp.rt,Alignment_resp.started,Alignment_resp.stopped,Button_text.started,Button_text.stopped,Index_text.started,Index_text.stopped,Index_resp.keys,Index_resp.rt,Index_resp.started,Index_resp.stopped,Middle_text.started,Middle_text.stopped,Middle_resp.keys,Middle_resp.rt,Middle_resp.started,Middle_resp.stopped,Repeat_text.started,Repeat_text.stopped,Repeat_resp.keys,Repeat_resp.corr,Repeat_resp.rt,Repeat_resp.started,Repeat_resp.stopped,instruction_text.started,instruction_text.stopped,key_resp.keys,key_resp.rt,key_resp.started,key_resp.stopped,scanner_t.keys,scanner_t.rt,scanner_t.started,scanner_t.stopped,fixation_wait_for_t.started,fixation_wait_for_t.stopped,real_timestamp_trial_start,image.started,image.stopped,fixation.started,fixation.stopped,repeat_response.keys,repeat_response.started,repeat_response.stopped,fixation_null.started,fixation_null.stopped,repeat_response.rt,end_text.started,end_text.stopped,participant,run,date,expName,psychopyVersion,frameRate,
,,,,,,,,,,,14.324758499977179,None,14.324758499977179,None,return,2.2813191999448463,14.324758499977179,None,,,,,,,,,,,,,,,,,,,,,,,,,,,,,,,,,,,,,,,,,,,,,,,12003,0002,2021_Jul_29_1251,localizer,2021.1.3,60.13435217056142,
,,,0,0,0,0,,,,,,,,,,,,,16.63079820002895,None,17.645709699951112,None,y,5.552081900066696,17.645709699951112,None,23.22907270002179,None,b,0.7306196999270469,23.22907270002179,None,23.980980699998327,None,n,0,2.11393680004403,23.980980699998327,None,,,,,,,,,,,,,,,,,,,,,,,,,,12003,0002,2021_Jul_29_1251,localizer,2021.1.3,60.13435217056142,
,,,,,,,,,,,,,,,,,,,,,,,,,,,,,,,,,,,,,,,,26.11356229998637,None,y,85.91536600003019,26.11356229998637,None,,,,,,,,,,,,,,,,,,,,12003,0002,2021_Jul_29_1251,localizer,2021.1.3,60.13435217056142,
null_block,null_block,null_block.bmp,,,,,0,0,0,0,,,,,,,,,,,,,,,,,,,,,,,,,,,,,,,,,,,,t,24.86347380001098,112.07025089999661,None,112.07025089999661,None,2021-07-29-12:53:55.101514,136.96333679001546,None,136.96333679001546,None,None,136.96333679001546,None,136.9671398999635,None,,,,12003,0002,2021_Jul_29_1251,localizer,2021.1.3,60.13435217056142,
block_start,scenes,scenes022.bmp,,,,,0,1,1,1,,,,,,,,,,,,,,,,,,,,,,,,,,,,,,,,,,,,t,1.9533214000985026,148.9805576999206,None,148.9805576999206,None,2021-07-29-12:54:09.104126,150.97532949992456,151.2804517999757,150.97532949992456,None,None,150.97532949992456,None,151.78037028996042,None,,,,12003,0002,2021_Jul_29_1251,localizer,2021.1.3,60.13435217056142,
block,scenes,scenes007.bmp,,,,,0,2,2,2,,,,,,,,,,,,,,,,,,,,,,,,,,,,,,,,,,,,None,,151.78037028996042,None,151.78037028996042,None,2021-07-29-12:54:09.919574,151.7913411000045,152.0971128999954,151.7913411000045,None,None,151.7913411000045,None,152.59702738994966,None,,,,12003,0002,2021_Jul_29_1251,localizer,2021.1.3,60.13435217056142,
block,scenes,scenes008.bmp,,,,,0,3,3,3,,,,,,,,,,,,,,,,,,,,,,,,,,,,,,,,,,,,None,,152.59702738994966,None,152.59702738994966,None,2021-07-29-12:54:10.736449,152.59813219995704,152.91393429995514,152.59813219995704,None,None,152.59813219995704,None,153.4124511899776,None,,,,12003,0002,2021_Jul_29_1251,localizer,2021.1.3,60.13435217056142,
block,scenes,scenes038.bmp,,,,,0,4,4,4,,,,,,,,,,,,,,,,,,,,,,,,,,,,,,,,,,,,None,,153.4124511899776,None,153.4124511899776,None,2021-07-29-12:54:11.550762,153.41412049997598,153.71345949999522,153.41412049997598,None,None,153.41412049997598,None,154.213486989995,None,,,,12003,0002,2021_Jul_29_1251,localizer,2021.1.3,60.13435217056142,
block,scenes,scenes041.bmp,,,,,0,5,5,5,,,,,,,,,,,,,,,,,,,,,,,,,,,,,,,,,,,,None,,154.213486989995,None,154.213486989995,None,2021-07-29-12:54:12.353695,154.220455499948,154.53014409996103,154.220455499948,154.220455499948,None,154.220455499948,154.220455499948,155.0305552899721,None,,,,12003,0002,2021_Jul_29_1251,localizer,2021.1.3,60.13435217056142,
block,scenes,scenes089.bmp,,,,,0,6,6,6,,,,,,,,,,,,,,,,,,,,,,,,,,,,,,,,,,,,None,,155.0305552899721,None,155.0305552899721,None,2021-07-29-12:54:13.169648,155.03148859995417,155.34700419998262,155.03148859995417,None,None,155.03148859995417,None,155.83079759000103,None,,,,12003,0002,2021_Jul_29_1251,localizer,2021.1.3,60.13435217056142,
block,scenes,scenes020.bmp,,,,,0,7,7,7,,,,,,,,,,,,,,,,,,,,,,,,,,,,,,,,,,,,None,,155.83079759000103,None,155.83079759000103,None,2021-07-29-12:54:13.972984,155.83408479997888,156.14778020000085,155.83408479997888,155.83408479997888,None,155.83408479997888,155.83408479997888,156.64705158994767,None,,,,12003,0002,2021_Jul_29_1251,localizer,2021.1.3,60.13435217056142,
block,scenes,scenes091.bmp,,,,,0,8,8,8,,,,,,,,,,,,,,,,,,,,,,,,,,,,,,,,,,,,None,,156.64705158994767,None,156.64705158994767,None,2021-07-29-12:54:14.786458,156.6480925999349,156.96385499997996,156.6480925999349,None,None,156.6480925999349,None,157.44803139000433,None,,,,12003,0002,2021_Jul_29_1251,localizer,2021.1.3,60.13435217056142,
block,scenes,scenes058.bmp,,,,,0,9,9,9,,,,,,,,,,,,,,,,,,,,,,,,,,,,,,,,,,,,None,,157.44803139000433,None,157.44803139000433,None,2021-07-29-12:54:15.593390,157.46146829996724,157.76372649997938,157.46146829996724,157.46146829996724,None,157.46146829996724,157.46146829996724,158.26379828996724,None,,,,12003,0002,2021_Jul_29_1251,localizer,2021.1.3,60.13435217056142,
block,scenes,scenes045.bmp,,,,,0,10,10,10,,,,,,,,,,,,,,,,,,,,,,,,,,,,,,,,,,,,None,,158.26379828996724,None,158.26379828996724,None,2021-07-29-12:54:16.403313,158.27145809994545,158.5809903999325,158.27145809994545,None,None,158.27145809994545,None,159.08074938998325,None,,,,12003,0002,2021_Jul_29_1251,localizer,2021.1.3,60.13435217056142,
block,scenes,scenes019.bmp,,,,,0,11,11,11,,,,,,,,,,,,,,,,,,,,,,,,,,,,,,,,,,,,None,,159.08074938998325,None,159.08074938998325,None,2021-07-29-12:54:17.221097,159.08882840001024,159.397483299952,159.08882840001024,None,None,159.08882840001024,None,159.8973293899675,None,,,,12003,0002,2021_Jul_29_1251,localizer,2021.1.3,60.13435217056142,
block,scenes,scenes025.bmp,,,,,0,12,12,12,,,,,,,,,,,,,,,,,,,,,,,,,,,,,,,,,,,,None,,159.8973293899675,None,159.8973293899675,None,2021-07-29-12:54:18.037504,159.90783869998995,160.21338249999098,159.90783869998995,None,None,159.90783869998995,None,160.71372488994385,None,,,,12003,0002,2021_Jul_29_1251,localizer,2021.1.3,60.13435217056142,
block,scenes,scenes014.bmp,,,,,0,13,13,13,,,,,,,,,,,,,,,,,,,,,,,,,,,,,,,,,,,,None,,160.71372488994385,None,160.71372488994385,None,2021-07-29-12:54:18.851826,160.72035680001136,161.03072179993615,160.72035680001136,None,None,160.72035680001136,None,161.53089118996868,None,,,,12003,0002,2021_Jul_29_1251,localizer,2021.1.3,60.13435217056142,
block,scenes,scenes084.bmp,,,,,0,14,14,14,,,,,,,,,,,,,,,,,,,,,,,,,,,,,,,,,,,,None,,161.53089118996868,None,161.53089118996868,None,2021-07-29-12:54:19.671181,161.5387920999201,161.84710789995734,161.5387920999201,None,None,161.5387920999201,None,162.3465620900155,None,,,,12003,0002,2021_Jul_29_1251,localizer,2021.1.3,60.13435217056142,
block_end,scenes,scenes053.bmp,,,,,0,15,15,15,,,,,,,,,,,,,,,,,,,,,,,,,,,,,,,,,,,,None,,162.3465620900155,None,162.3465620900155,None,2021-07-29-12:54:20.484992,162.35166009992827,162.66372710000724,162.35166009992827,None,None,162.35166009992827,None,163.16404378999724,None,,,,12003,0002,2021_Jul_29_1251,localizer,2021.1.3,60.13435217056142,
block_start,objects,objects042.bmp,,,,,0,16,16,16,,,,,,,,,,,,,,,,,,,,,,,,,,,,,,,,,,,,t,1.7695024999557063,163.16426899994258,None,163.16426899994258,None,2021-07-29-12:54:23.101867,164.96549620002043,165.26335209992249,164.96549620002043,None,None,164.96549620002043,None,165.78034408999375,None,,,,12003,0002,2021_Jul_29_1251,localizer,2021.1.3,60.13435217056142,
block,objects,objects078.bmp,,,,,0,17,17,17,,,,,,,,,,,,,,,,,,,,,,,,,,,,,,,,,,,,None,,165.78034408999375,None,165.78034408999375,None,2021-07-29-12:54:23.919403,165.78599110001232,166.09715549997054,165.78599110001232,None,None,165.78599110001232,None,166.59784769002582,None,,,,12003,0002,2021_Jul_29_1251,localizer,2021.1.3,60.13435217056142,
block,objects,objects029.bmp,,,,,0,18,18,18,,,,,,,,,,,,,,,,,,,,,,,,,,,,,,,,,,,,None,,166.59784769002582,None,166.59784769002582,None,2021-07-29-12:54:24.738229,166.6002465999918,166.91377879993524,166.6002465999918,None,None,166.6002465999918,None,167.41388648996363,None,,,,12003,0002,2021_Jul_29_1251,localizer,2021.1.3,60.13435217056142,
block,objects,objects039.bmp,,,,,0,19,19,19,,,,,,,,,,,,,,,,,,,,,,,,,,,,,,,,,,,,None,,167.41388648996363,None,167.41388648996363,None,2021-07-29-12:54:25.554191,167.41482509998605,167.72169749997556,167.41482509998605,None,None,167.41482509998605,None,168.23021098998143,None,,,,12003,0002,2021_Jul_29_1251,localizer,2021.1.3,60.13435217056142,
block,objects,objects072.bmp,,,,,0,20,20,20,,,,,,,,,,,,,,,,,,,,,,,,,,,,,,,,,,,,None,,168.23021098998143,None,168.23021098998143,None,2021-07-29-12:54:26.369419,168.2369637999218,168.54705179994926,168.2369637999218,None,None,168.2369637999218,None,169.04676238998073,None,,,,12003,0002,2021_Jul_29_1251,localizer,2021.1.3,60.13435217056142,
block,objects,objects082.bmp,,,,,0,21,21,21,,,,,,,,,,,,,,,,,,,,,,,,,,,,,,,,,,,,None,,169.04676238998073,None,169.04676238998073,None,2021-07-29-12:54:27.185969,169.04808680003043,169.36377299996093,169.04808680003043,None,None,169.04808680003043,None,169.86372358995723,None,,,,12003,0002,2021_Jul_29_1251,localizer,2021.1.3,60.13435217056142,
block,objects,objects077.bmp,,,,,0,22,22,22,,,,,,,,,,,,,,,,,,,,,,,,,,,,,,,,,,,,None,,169.86372358995723,None,169.86372358995723,None,2021-07-29-12:54:28.003133,169.86993459996302,170.18009709997568,169.86993459996302,None,None,169.86993459996302,None,170.68030089003733,None,,,,12003,0002,2021_Jul_29_1251,localizer,2021.1.3,60.13435217056142,
block,objects,objects088.bmp,,,,,0,23,23,23,,,,,,,,,,,,,,,,,,,,,,,,,,,,,,,,,,,,None,,170.68030089003733,None,170.68030089003733,None,2021-07-29-12:54:28.819508,170.68140140001196,170.9968763999641,170.68140140001196,None,None,170.68140140001196,None,171.4809406899498,None,,,,12003,0002,2021_Jul_29_1251,localizer,2021.1.3,60.13435217056142,
block,objects,objects016.bmp,,,,,0,24,24,24,,,,,,,,,,,,,,,,,,,,,,,,,,,,,,,,,,,,None,,171.4809406899498,None,171.4809406899498,None,2021-07-29-12:54:29.623322,171.491385399946,171.79688059992623,171.491385399946,171.491385399946,None,171.491385399946,171.491385399946,172.29753359003226,None,,,,12003,0002,2021_Jul_29_1251,localizer,2021.1.3,60.13435217056142,
block,objects,objects016.bmp,,,,,0,25,25,25,,,,,,,,,,,,,,,,,,,,,,,,,,,,,,,,,,,,None,,172.29753359003226,None,172.29753359003226,None,2021-07-29-12:54:30.437764,172.2993244000245,172.59960489999503,172.2993244000245,None,y,172.2993244000245,None,173.11355039003539,None,0.5341022999491543,,,12003,0002,2021_Jul_29_1251,localizer,2021.1.3,60.13435217056142,
block,objects,objects044.bmp,,,,,0,26,26,26,,,,,,,,,,,,,,,,,,,,,,,,,,,,,,,,,,,,None,,173.11355039003539,None,173.11355039003539,None,2021-07-29-12:54:31.251766,173.11757190001663,173.43060670001432,173.11757190001663,None,None,173.11757190001663,None,173.9304905899684,None,,,,12003,0002,2021_Jul_29_1251,localizer,2021.1.3,60.13435217056142,
block,objects,objects030.bmp,,,,,0,27,27,27,,,,,,,,,,,,,,,,,,,,,,,,,,,,,,,,,,,,None,,173.9304905899684,None,173.9304905899684,None,2021-07-29-12:54:32.069698,173.93153369997162,174.2471584000159,173.93153369997162,None,None,173.93153369997162,None,174.74713738999563,None,,,,12003,0002,2021_Jul_29_1251,localizer,2021.1.3,60.13435217056142,
block,objects,objects024.bmp,,,,,0,28,28,28,,,,,,,,,,,,,,,,,,,,,,,,,,,,,,,,,,,,None,,174.74713738999563,None,174.74713738999563,None,2021-07-29-12:54:32.886474,174.74808639998082,175.0472257999936,174.74808639998082,None,None,174.74808639998082,None,175.54771838992602,None,,,,12003,0002,2021_Jul_29_1251,localizer,2021.1.3,60.13435217056142,
block,objects,objects031.bmp,,,,,0,29,29,29,,,,,,,,,,,,,,,,,,,,,,,,,,,,,,,,,,,,None,,175.54771838992602,None,175.54771838992602,None,2021-07-29-12:54:33.689909,175.55795559997205,175.86410479992628,175.55795559997205,175.55795559997205,None,175.55795559997205,175.55795559997205,176.36361948997947,None,,,,12003,0002,2021_Jul_29_1251,localizer,2021.1.3,60.13435217056142,
block_end,objects,objects046.bmp,,,,,0,30,30,30,,,,,,,,,,,,,,,,,,,,,,,,,,,,,,,,,,,,None,,176.36361948997947,None,176.36361948997947,None,2021-07-29-12:54:34.502828,176.36963590001687,176.68056969996542,176.36963590001687,None,None,176.36963590001687,None,177.18050288994564,None,,,,12003,0002,2021_Jul_29_1251,localizer,2021.1.3,60.13435217056142,
block_start,faces,faces053.bmp,,,,,0,31,31,31,,,,,,,,,,,,,,,,,,,,,,,,,,,,,,,,,,,,t,3.7531504000071436,177.18092519999482,None,177.18092519999482,None,2021-07-29-12:54:39.110641,180.97040340001695,181.28062859992497,180.97040340001695,None,None,180.97040340001695,None,181.7802908899379,None,,,,12003,0002,2021_Jul_29_1251,localizer,2021.1.3,60.13435217056142,
block,faces,faces040.bmp,,,,,0,32,32,32,,,,,,,,,,,,,,,,,,,,,,,,,,,,,,,,,,,,None,,181.7802908899379,None,181.7802908899379,None,2021-07-29-12:54:39.919504,181.78149670001585,182.081042899983,181.78149670001585,None,None,181.78149670001585,None,182.58108929001028,None,,,,12003,0002,2021_Jul_29_1251,localizer,2021.1.3,60.13435217056142,
block,faces,faces089.bmp,,,,,0,33,33,33,,,,,,,,,,,,,,,,,,,,,,,,,,,,,,,,,,,,None,,182.58108929001028,None,182.58108929001028,None,2021-07-29-12:54:40.723435,182.59185139997862,182.89724129997194,182.59185139997862,182.59185139997862,None,182.59185139997862,182.59185139997862,183.39758558993927,None,,,,12003,0002,2021_Jul_29_1251,localizer,2021.1.3,60.13435217056142,
block,faces,faces072.bmp,,,,,0,34,34,34,,,,,,,,,,,,,,,,,,,,,,,,,,,,,,,,,,,,None,,183.39758558993927,None,183.39758558993927,None,2021-07-29-12:54:41.537783,183.39875719998963,183.71450929995626,183.39875719998963,None,None,183.39875719998963,None,184.21425319000846,None,,,,12003,0002,2021_Jul_29_1251,localizer,2021.1.3,60.13435217056142,
block,faces,faces013.bmp,,,,,0,35,35,35,,,,,,,,,,,,,,,,,,,,,,,,,,,,,,,,,,,,None,,184.21425319000846,None,184.21425319000846,None,2021-07-29-12:54:42.352493,184.21482500003185,184.53078339993954,184.21482500003185,None,None,184.21482500003185,None,185.01399548995542,None,,,,12003,0002,2021_Jul_29_1251,localizer,2021.1.3,60.13435217056142,
block,faces,faces052.bmp,,,,,0,36,36,36,,,,,,,,,,,,,,,,,,,,,,,,,,,,,,,,,,,,None,,185.01399548995542,None,185.01399548995542,None,2021-07-29-12:54:43.155199,185.025166300009,185.33044649998192,185.025166300009,185.025166300009,None,185.025166300009,185.025166300009,185.83033128994285,None,,,,12003,0002,2021_Jul_29_1251,localizer,2021.1.3,60.13435217056142,
block,faces,faces085.bmp,,,,,0,37,37,37,,,,,,,,,,,,,,,,,,,,,,,,,,,,,,,,,,,,None,,185.83033128994285,None,185.83033128994285,None,2021-07-29-12:54:43.969048,185.8352463999763,186.1504439000273,185.8352463999763,None,None,185.8352463999763,None,186.64773008999182,None,,,,12003,0002,2021_Jul_29_1251,localizer,2021.1.3,60.13435217056142,
block,faces,faces003.bmp,,,,,0,38,38,38,,,,,,,,,,,,,,,,,,,,,,,,,,,,,,,,,,,,None,,186.64773008999182,None,186.64773008999182,None,2021-07-29-12:54:44.787910,186.65634769992903,186.96364760003053,186.65634769992903,None,None,186.65634769992903,None,187.4643609900144,None,,,,12003,0002,2021_Jul_29_1251,localizer,2021.1.3,60.13435217056142,
block,faces,faces034.bmp,,,,,0,39,39,39,,,,,,,,,,,,,,,,,,,,,,,,,,,,,,,,,,,,None,,187.4643609900144,None,187.4643609900144,None,2021-07-29-12:54:45.604733,187.46641019999515,187.78019149997272,187.46641019999515,None,None,187.46641019999515,None,188.28009928999236,None,,,,12003,0002,2021_Jul_29_1251,localizer,2021.1.3,60.13435217056142,
block,faces,faces058.bmp,,,,,0,40,40,40,,,,,,,,,,,,,,,,,,,,,,,,,,,,,,,,,,,,None,,188.28009928999236,None,188.28009928999236,None,2021-07-29-12:54:46.419228,188.28736279997975,188.59730469994247,188.28736279997975,None,None,188.28736279997975,None,189.09715709000594,None,,,,12003,0002,2021_Jul_29_1251,localizer,2021.1.3,60.13435217056142,
block,faces,faces081.bmp,,,,,0,41,41,41,,,,,,,,,,,,,,,,,,,,,,,,,,,,,,,,,,,,None,,189.09715709000594,None,189.09715709000594,None,2021-07-29-12:54:47.236349,189.1061636999948,189.41405349993147,189.1061636999948,None,None,189.1061636999948,None,189.91452259003418,None,,,,12003,0002,2021_Jul_29_1251,localizer,2021.1.3,60.13435217056142,
block,faces,faces001.bmp,,,,,0,42,42,42,,,,,,,,,,,,,,,,,,,,,,,,,,,,,,,,,,,,None,,189.91452259003418,None,189.91452259003418,None,2021-07-29-12:54:48.054871,189.9242320000194,190.23900319996756,189.9242320000194,None,None,189.9242320000194,None,190.7301279899315,None,,,,12003,0002,2021_Jul_29_1251,localizer,2021.1.3,60.13435217056142,
block,faces,faces031.bmp,,,,,0,43,43,43,,,,,,,,,,,,,,,,,,,,,,,,,,,,,,,,,,,,None,,190.7301279899315,None,190.7301279899315,None,2021-07-29-12:54:48.869346,190.73488090001047,191.0471381000243,190.73488090001047,None,None,190.73488090001047,None,191.54710459002527,None,,,,12003,0002,2021_Jul_29_1251,localizer,2021.1.3,60.13435217056142,
block,faces,faces080.bmp,,,,,0,44,44,44,,,,,,,,,,,,,,,,,,,,,,,,,,,,,,,,,,,,None,,191.54710459002527,None,191.54710459002527,None,2021-07-29-12:54:49.686791,191.54984639992472,191.86442849994637,191.54984639992472,None,None,191.54984639992472,None,192.3644198900205,None,,,,12003,0002,2021_Jul_29_1251,localizer,2021.1.3,60.13435217056142,
block_end,faces,faces038.bmp,,,,,0,45,45,45,,,,,,,,,,,,,,,,,,,,,,,,,,,,,,,,,,,,None,,192.3644198900205,None,192.3644198900205,None,2021-07-29-12:54:50.504620,192.3807387999259,192.68053489993326,192.3807387999259,None,None,192.3807387999259,None,193.1701394899632,None,,,,12003,0002,2021_Jul_29_1251,localizer,2021.1.3,60.13435217056142,
block_start,scrambled,scrambled038.bmp,,,,,0,46,46,46,,,,,,,,,,,,,,,,,,,,,,,,,,,,,,,,,,,,t,1.764580599963665,193.16921540000476,None,193.16921540000476,None,2021-07-29-12:54:53.105220,194.97586539993063,195.28110110003036,194.97586539993063,None,None,194.97586539993063,None,195.78089639000828,None,,,,12003,0002,2021_Jul_29_1251,localizer,2021.1.3,60.13435217056142,
block,scrambled,scrambled076.bmp,,,,,0,47,47,47,,,,,,,,,,,,,,,,,,,,,,,,,,,,,,,,,,,,None,,195.78089639000828,None,195.78089639000828,None,2021-07-29-12:54:53.921118,195.78178540000226,196.08113229996525,195.78178540000226,None,None,195.78178540000226,None,196.5809800899937,None,,,,12003,0002,2021_Jul_29_1251,localizer,2021.1.3,60.13435217056142,
block,scrambled,scrambled017.bmp,,,,,0,48,48,48,,,,,,,,,,,,,,,,,,,,,,,,,,,,,,,,,,,,None,,196.5809800899937,None,196.5809800899937,None,2021-07-29-12:54:54.723361,196.5911802999908,196.8971008999506,196.5911802999908,196.5911802999908,None,196.5911802999908,196.5911802999908,197.39740818998544,None,,,,12003,0002,2021_Jul_29_1251,localizer,2021.1.3,60.13435217056142,
block,scrambled,scrambled040.bmp,,,,,0,49,49,49,,,,,,,,,,,,,,,,,,,,,,,,,,,,,,,,,,,,None,,197.39740818998544,None,197.39740818998544,None,2021-07-29-12:54:55.536838,197.40448879997712,197.7210928000277,197.40448879997712,None,None,197.40448879997712,None,198.2150333900121,None,,,,12003,0002,2021_Jul_29_1251,localizer,2021.1.3,60.13435217056142,
block,scrambled,scrambled079.bmp,,,,,0,50,50,50,,,,,,,,,,,,,,,,,,,,,,,,,,,,,,,,,,,,None,,198.2150333900121,None,198.2150333900121,None,2021-07-29-12:54:56.361541,198.23263939993922,198.5470776000293,198.23263939993922,None,None,198.23263939993922,None,199.03053299003514,None,,,,12003,0002,2021_Jul_29_1251,localizer,2021.1.3,60.13435217056142,
block,scrambled,scrambled072.bmp,,,,,0,51,51,51,,,,,,,,,,,,,,,,,,,,,,,,,,,,,,,,,,,,None,,199.03053299003514,None,199.03053299003514,None,2021-07-29-12:54:57.169746,199.0380769999465,199.34758569998667,199.0380769999465,None,None,199.0380769999465,None,199.8477540900116,None,,,,12003,0002,2021_Jul_29_1251,localizer,2021.1.3,60.13435217056142,
block,scrambled,scrambled070.bmp,,,,,0,52,52,52,,,,,,,,,,,,,,,,,,,,,,,,,,,,,,,,,,,,None,,199.8477540900116,None,199.8477540900116,None,2021-07-29-12:54:57.988145,199.85596049996093,200.16411849996075,199.85596049996093,None,None,199.85596049996093,None,200.6636914899922,None,,,,12003,0002,2021_Jul_29_1251,localizer,2021.1.3,60.13435217056142,
block,scrambled,scrambled032.bmp,,,,,0,53,53,53,,,,,,,,,,,,,,,,,,,,,,,,,,,,,,,,,,,,None,,200.6636914899922,None,200.6636914899922,None,2021-07-29-12:54:58.803075,200.66490889992565,200.9806615000125,200.66490889992565,None,None,200.66490889992565,None,201.46458808999742,None,,,,12003,0002,2021_Jul_29_1251,localizer,2021.1.3,60.13435217056142,
block,scrambled,scrambled035.bmp,,,,,0,54,54,54,,,,,,,,,,,,,,,,,,,,,,,,,,,,,,,,,,,,None,,201.46458808999742,None,201.46458808999742,None,2021-07-29-12:54:59.606798,201.46781119995285,201.7853525999235,201.46781119995285,201.46781119995285,None,201.46781119995285,201.46781119995285,202.28010598992697,None,,,,12003,0002,2021_Jul_29_1251,localizer,2021.1.3,60.13435217056142,
block,scrambled,scrambled081.bmp,,,,,0,55,55,55,,,,,,,,,,,,,,,,,,,,,,,,,,,,,,,,,,,,None,,202.28010598992697,None,202.28010598992697,None,2021-07-29-12:55:00.417929,202.28638169995975,202.60464669996873,202.28638169995975,None,None,202.28638169995975,None,203.0978290900006,None,,,,12003,0002,2021_Jul_29_1251,localizer,2021.1.3,60.13435217056142,
block,scrambled,scrambled073.bmp,,,,,0,56,56,56,,,,,,,,,,,,,,,,,,,,,,,,,,,,,,,,,,,,None,,203.0978290900006,None,203.0978290900006,None,2021-07-29-12:55:01.238031,203.09963229997084,203.42061129992362,203.09963229997084,None,None,203.09963229997084,None,203.9151387899532,None,,,,12003,0002,2021_Jul_29_1251,localizer,2021.1.3,60.13435217056142,
block,scrambled,scrambled080.bmp,,,,,0,57,57,57,,,,,,,,,,,,,,,,,,,,,,,,,,,,,,,,,,,,None,,203.9151387899532,None,203.9151387899532,None,2021-07-29-12:55:02.057470,203.92629229999147,204.23052610002924,203.92629229999147,None,None,203.92629229999147,None,204.730855289998,None,,,,12003,0002,2021_Jul_29_1251,localizer,2021.1.3,60.13435217056142,
block,scrambled,scrambled029.bmp,,,,,0,58,58,58,,,,,,,,,,,,,,,,,,,,,,,,,,,,,,,,,,,,None,,204.730855289998,None,204.730855289998,None,2021-07-29-12:55:02.870368,204.73646739998367,205.0472913000267,204.73646739998367,None,None,204.73646739998367,None,205.5474990900024,None,,,,12003,0002,2021_Jul_29_1251,localizer,2021.1.3,60.13435217056142,
block,scrambled,scrambled042.bmp,,,,,0,59,59,59,,,,,,,,,,,,,,,,,,,,,,,,,,,,,,,,,,,,None,,205.5474990900024,None,205.5474990900024,None,2021-07-29-12:55:03.686916,205.5483970999485,205.8639643000206,205.5483970999485,None,None,205.5483970999485,None,206.34753448996926,None,,,,12003,0002,2021_Jul_29_1251,localizer,2021.1.3,60.13435217056142,
block_end,scrambled,scrambled018.bmp,,,,,0,60,60,60,,,,,,,,,,,,,,,,,,,,,,,,,,,,,,,,,,,,None,,206.34753448996926,None,206.34753448996926,None,2021-07-29-12:55:04.488953,206.35715649998747,206.67080269998405,206.35715649998747,206.35715649998747,None,206.35715649998747,206.35715649998747,207.16422568998533,None,,,,12003,0002,2021_Jul_29_1251,localizer,2021.1.3,60.13435217056142,
block_start,scrambled,scrambled012.bmp,,,,,0,61,61,61,,,,,,,,,,,,,,,,,,,,,,,,,,,,,,,,,,,,t,1.7698266999796033,207.1641457999358,None,207.1641457999358,None,2021-07-29-12:55:07.104705,208.97272329998668,209.28068900003564,208.97272329998668,None,None,208.97272329998668,None,209.7810802900116,None,,,,12003,0002,2021_Jul_29_1251,localizer,2021.1.3,60.13435217056142,
block,scrambled,scrambled016.bmp,,,,,0,62,62,62,,,,,,,,,,,,,,,,,,,,,,,,,,,,,,,,,,,,None,,209.7810802900116,None,209.7810802900116,None,2021-07-29-12:55:07.921303,209.7821816999931,210.0812905000057,209.7821816999931,None,None,209.7821816999931,None,210.59777998997598,None,,,,12003,0002,2021_Jul_29_1251,localizer,2021.1.3,60.13435217056142,
block,scrambled,scrambled055.bmp,,,,,0,63,63,63,,,,,,,,,,,,,,,,,,,,,,,,,,,,,,,,,,,,None,,210.59777998997598,None,210.59777998997598,None,2021-07-29-12:55:08.738082,210.598577799974,210.9141752999276,210.598577799974,None,None,210.598577799974,None,211.41393308996922,None,,,,12003,0002,2021_Jul_29_1251,localizer,2021.1.3,60.13435217056142,
block,scrambled,scrambled055.bmp,,,,,0,64,64,64,,,,,,,,,,,,,,,,,,,,,,,,,,,,,,,,,,,,None,,211.41393308996922,None,211.41393308996922,None,2021-07-29-12:55:09.553148,211.4150859999936,211.7371929999208,211.4150859999936,None,y,211.4150859999936,None,212.21485219002935,None,0.5064934000838548,,,12003,0002,2021_Jul_29_1251,localizer,2021.1.3,60.13435217056142,
block,scrambled,scrambled029.bmp,,,,,0,65,65,65,,,,,,,,,,,,,,,,,,,,,,,,,,,,,,,,,,,,None,,212.21485219002935,None,212.21485219002935,None,2021-07-29-12:55:10.358328,212.21923289995175,212.53107259992976,212.21923289995175,212.21923289995175,None,212.21923289995175,212.21923289995175,213.03126539002406,None,,,,12003,0002,2021_Jul_29_1251,localizer,2021.1.3,60.13435217056142,
block,scrambled,scrambled081.bmp,,,,,0,66,66,66,,,,,,,,,,,,,,,,,,,,,,,,,,,,,,,,,,,,None,,213.03126539002406,None,213.03126539002406,None,2021-07-29-12:55:11.171451,213.0331567999674,213.34726589999627,213.0331567999674,None,None,213.0331567999674,None,213.84678308995208,None,,,,12003,0002,2021_Jul_29_1251,localizer,2021.1.3,60.13435217056142,
block,scrambled,scrambled086.bmp,,,,,0,67,67,67,,,,,,,,,,,,,,,,,,,,,,,,,,,,,,,,,,,,None,,213.84678308995208,None,213.84678308995208,None,2021-07-29-12:55:11.986006,213.8515903999796,214.16479359997902,213.8515903999796,None,None,213.8515903999796,None,214.66533638994443,None,,,,12003,0002,2021_Jul_29_1251,localizer,2021.1.3,60.13435217056142,
block,scrambled,scrambled032.bmp,,,,,0,68,68,68,,,,,,,,,,,,,,,,,,,,,,,,,,,,,,,,,,,,None,,214.66533638994443,None,214.66533638994443,None,2021-07-29-12:55:12.805666,214.66788029996678,214.98063709994312,214.66788029996678,None,None,214.66788029996678,None,215.48080678997795,None,,,,12003,0002,2021_Jul_29_1251,localizer,2021.1.3,60.13435217056142,
block,scrambled,scrambled020.bmp,,,,,0,69,69,69,,,,,,,,,,,,,,,,,,,,,,,,,,,,,,,,,,,,None,,215.48080678997795,None,215.48080678997795,None,2021-07-29-12:55:13.620136,215.48698379995767,215.79751049994957,215.48698379995767,None,None,215.48698379995767,None,216.29744348992827,None,,,,12003,0002,2021_Jul_29_1251,localizer,2021.1.3,60.13435217056142,
block,scrambled,scrambled088.bmp,,,,,0,70,70,70,,,,,,,,,,,,,,,,,,,,,,,,,,,,,,,,,,,,None,,216.29744348992827,None,216.29744348992827,None,2021-07-29-12:55:14.436883,216.30361009994522,216.61456160002854,216.30361009994522,None,None,216.30361009994522,None,217.11429889003048,None,,,,12003,0002,2021_Jul_29_1251,localizer,2021.1.3,60.13435217056142,
block,scrambled,scrambled007.bmp,,,,,0,71,71,71,,,,,,,,,,,,,,,,,,,,,,,,,,,,,,,,,,,,None,,217.11429889003048,None,217.11429889003048,None,2021-07-29-12:55:15.254508,217.12200199998915,217.43062470003497,217.12200199998915,None,None,217.12200199998915,None,217.93129309002543,None,,,,12003,0002,2021_Jul_29_1251,localizer,2021.1.3,60.13435217056142,
block,scrambled,scrambled024.bmp,,,,,0,72,72,72,,,,,,,,,,,,,,,,,,,,,,,,,,,,,,,,,,,,None,,217.93129309002543,None,217.93129309002543,None,2021-07-29-12:55:16.071445,217.9389714000281,218.24748679995537,217.9389714000281,None,None,217.9389714000281,None,218.74707108995645,None,,,,12003,0002,2021_Jul_29_1251,localizer,2021.1.3,60.13435217056142,
block,scrambled,scrambled068.bmp,,,,,0,73,73,73,,,,,,,,,,,,,,,,,,,,,,,,,,,,,,,,,,,,None,,218.74707108995645,None,218.74707108995645,None,2021-07-29-12:55:16.886295,218.74845499999356,219.04780469997786,218.74845499999356,None,None,218.74845499999356,None,219.5639198900084,None,,,,12003,0002,2021_Jul_29_1251,localizer,2021.1.3,60.13435217056142,
block,scrambled,scrambled031.bmp,,,,,0,74,74,74,,,,,,,,,,,,,,,,,,,,,,,,,,,,,,,,,,,,None,,219.5639198900084,None,219.5639198900084,None,2021-07-29-12:55:17.703372,219.56502939993516,219.88079249998555,219.56502939993516,None,None,219.56502939993516,None,220.36537258994068,None,,,,12003,0002,2021_Jul_29_1251,localizer,2021.1.3,60.13435217056142,
block_end,scrambled,scrambled033.bmp,,,,,0,75,75,75,,,,,,,,,,,,,,,,,,,,,,,,,,,,,,,,,,,,None,,220.36537258994068,None,220.36537258994068,None,2021-07-29-12:55:18.508745,220.3740088000195,220.68134869995993,220.3740088000195,220.3740088000195,None,220.3740088000195,220.3740088000195,221.1808372899308,None,,,,12003,0002,2021_Jul_29_1251,localizer,2021.1.3,60.13435217056142,
block_start,faces,faces044.bmp,,,,,0,76,76,76,,,,,,,,,,,,,,,,,,,,,,,,,,,,,,,,,,,,t,1.7530548000941053,221.18073209992144,None,221.18073209992144,None,2021-07-29-12:55:21.101530,222.96529890003148,223.28045279998332,222.96529890003148,None,None,222.96529890003148,None,223.77115649000044,None,,,,12003,0002,2021_Jul_29_1251,localizer,2021.1.3,60.13435217056142,
block,faces,faces045.bmp,,,,,0,77,77,77,,,,,,,,,,,,,,,,,,,,,,,,,,,,,,,,,,,,None,,223.77115649000044,None,223.77115649000044,None,2021-07-29-12:55:21.916919,223.7863970999606,224.09757330000866,223.7863970999606,None,None,223.7863970999606,None,224.5815181900165,None,,,,12003,0002,2021_Jul_29_1251,localizer,2021.1.3,60.13435217056142,
block,faces,faces084.bmp,,,,,0,78,78,78,,,,,,,,,,,,,,,,,,,,,,,,,,,,,,,,,,,,None,,224.5815181900165,None,224.5815181900165,None,2021-07-29-12:55:22.722718,224.5923802999314,224.89751989999786,224.5923802999314,None,None,224.5923802999314,None,225.3979989899439,None,,,,12003,0002,2021_Jul_29_1251,localizer,2021.1.3,60.13435217056142,
block,faces,faces004.bmp,,,,,0,79,79,79,,,,,,,,,,,,,,,,,,,,,,,,,,,,,,,,,,,,None,,225.3979989899439,None,225.3979989899439,None,2021-07-29-12:55:23.538200,225.41161640000064,225.71413219999522,225.41161640000064,None,None,225.41161640000064,None,226.21430259003537,None,,,,12003,0002,2021_Jul_29_1251,localizer,2021.1.3,60.13435217056142,
block,faces,faces027.bmp,,,,,0,80,80,80,,,,,,,,,,,,,,,,,,,,,,,,,,,,,,,,,,,,None,,226.21430259003537,None,226.21430259003537,None,2021-07-29-12:55:24.353537,226.21518359996844,226.5309460000135,226.21518359996844,None,None,226.21518359996844,None,227.02058058992262,None,,,,12003,0002,2021_Jul_29_1251,localizer,2021.1.3,60.13435217056142,
block,faces,faces024.bmp,,,,,0,81,81,81,,,,,,,,,,,,,,,,,,,,,,,,,,,,,,,,,,,,None,,227.02058058992262,None,227.02058058992262,None,2021-07-29-12:55:25.167785,227.03131869994104,227.33086320001166,227.03131869994104,None,None,227.03131869994104,None,227.8304232899449,None,,,,12003,0002,2021_Jul_29_1251,localizer,2021.1.3,60.13435217056142,
block,faces,faces050.bmp,,,,,0,82,82,82,,,,,,,,,,,,,,,,,,,,,,,,,,,,,,,,,,,,None,,227.8304232899449,None,227.8304232899449,None,2021-07-29-12:55:25.969645,227.83175280003343,228.1476027999306,227.83175280003343,None,None,227.83175280003343,None,228.63706449003658,None,,,,12003,0002,2021_Jul_29_1251,localizer,2021.1.3,60.13435217056142,
block,faces,faces082.bmp,,,,,0,83,83,83,,,,,,,,,,,,,,,,,,,,,,,,,,,,,,,,,,,,None,,228.63706449003658,None,228.63706449003658,None,2021-07-29-12:55:26.784249,228.64665359992068,228.9477887999965,228.64665359992068,None,None,228.64665359992068,None,229.44752769001062,None,,,,12003,0002,2021_Jul_29_1251,localizer,2021.1.3,60.13435217056142,
block,faces,faces006.bmp,,,,,0,84,84,84,,,,,,,,,,,,,,,,,,,,,,,,,,,,,,,,,,,,None,,229.44752769001062,None,229.44752769001062,None,2021-07-29-12:55:27.586784,229.44854349992238,229.7711857999675,229.44854349992238,None,None,229.44854349992238,None,230.24806088992628,None,,,,12003,0002,2021_Jul_29_1251,localizer,2021.1.3,60.13435217056142,
block,faces,faces060.bmp,,,,,0,85,85,85,,,,,,,,,,,,,,,,,,,,,,,,,,,,,,,,,,,,None,,230.24806088992628,None,230.24806088992628,None,2021-07-29-12:55:28.390247,230.25955379998777,230.56488770002034,230.25955379998777,230.25955379998777,None,230.25955379998777,230.25955379998777,231.0641115899547,None,,,,12003,0002,2021_Jul_29_1251,localizer,2021.1.3,60.13435217056142,
block,faces,faces081.bmp,,,,,0,86,86,86,,,,,,,,,,,,,,,,,,,,,,,,,,,,,,,,,,,,None,,231.0641115899547,None,231.0641115899547,None,2021-07-29-12:55:29.203370,231.06523790000938,231.38084009999875,231.06523790000938,None,None,231.06523790000938,None,231.86475978993113,None,,,,12003,0002,2021_Jul_29_1251,localizer,2021.1.3,60.13435217056142,
block,faces,faces047.bmp,,,,,0,87,87,87,,,,,,,,,,,,,,,,,,,,,,,,,,,,,,,,,,,,None,,231.86475978993113,None,231.86475978993113,None,2021-07-29-12:55:30.035918,231.89495370001532,232.19756150001194,231.89495370001532,231.89495370001532,None,231.89495370001532,231.89495370001532,232.69759129002924,None,,,,12003,0002,2021_Jul_29_1251,localizer,2021.1.3,60.13435217056142,
block,faces,faces003.bmp,,,,,0,88,88,88,,,,,,,,,,,,,,,,,,,,,,,,,,,,,,,,,,,,None,,232.69759129002924,None,232.69759129002924,None,2021-07-29-12:55:30.838816,232.70084369997494,233.01453009992838,232.70084369997494,232.70084369997494,None,232.70084369997494,232.70084369997494,233.51428418994183,None,,,,12003,0002,2021_Jul_29_1251,localizer,2021.1.3,60.13435217056142,
block,faces,faces070.bmp,,,,,0,89,89,89,,,,,,,,,,,,,,,,,,,,,,,,,,,,,,,,,,,,None,,233.51428418994183,None,233.51428418994183,None,2021-07-29-12:55:31.653512,233.51523679995444,233.81471269996837,233.51523679995444,None,None,233.51523679995444,None,234.31430169000524,None,,,,12003,0002,2021_Jul_29_1251,localizer,2021.1.3,60.13435217056142,
block_end,faces,faces068.bmp,,,,,0,90,90,90,,,,,,,,,,,,,,,,,,,,,,,,,,,,,,,,,,,,None,,234.31430169000524,None,234.31430169000524,None,2021-07-29-12:55:32.456215,234.33117519994266,234.63099869992584,234.33117519994266,234.33117519994266,None,234.33117519994266,234.33117519994266,235.1334458899568,None,,,,12003,0002,2021_Jul_29_1251,localizer,2021.1.3,60.13435217056142,
null_block,null_block,null_block.bmp,,,,,0,91,91,91,,,,,,,,,,,,,,,,,,,,,,,,,,,,,,,,,,,,t,1.8001662000315264,235.13366719998885,None,235.13366719998885,None,2021-07-29-12:55:35.101417,236.96399078998948,None,236.96399078998948,None,None,236.96399078998948,None,236.9737751999637,None,,,,12003,0002,2021_Jul_29_1251,localizer,2021.1.3,60.13435217056142,
block_start,objects,objects002.bmp,,,,,0,92,92,92,,,,,,,,,,,,,,,,,,,,,,,,,,,,,,,,,,,,t,1.9488607000093907,248.98485320003238,None,248.98485320003238,None,2021-07-29-12:55:49.103948,250.96520189999137,251.2679533000337,250.96520189999137,None,None,250.96520189999137,None,251.7648024899303,None,,,,12003,0002,2021_Jul_29_1251,localizer,2021.1.3,60.13435217056142,
block,objects,objects057.bmp,,,,,0,93,93,93,,,,,,,,,,,,,,,,,,,,,,,,,,,,,,,,,,,,None,,251.7648024899303,None,251.7648024899303,None,2021-07-29-12:55:49.907045,251.7764337999979,252.0812839999562,251.7764337999979,251.7764337999979,None,251.7764337999979,251.7764337999979,252.58375698995079,None,,,,12003,0002,2021_Jul_29_1251,localizer,2021.1.3,60.13435217056142,
block,objects,objects078.bmp,,,,,0,94,94,94,,,,,,,,,,,,,,,,,,,,,,,,,,,,,,,,,,,,None,,252.58375698995079,None,252.58375698995079,None,2021-07-29-12:55:50.726909,252.58901719993446,252.89811579999514,252.58901719993446,None,None,252.58901719993446,None,253.3987458899268,None,,,,12003,0002,2021_Jul_29_1251,localizer,2021.1.3,60.13435217056142,
block,objects,objects007.bmp,,,,,0,95,95,95,,,,,,,,,,,,,,,,,,,,,,,,,,,,,,,,,,,,None,,253.3987458899268,None,253.3987458899268,None,2021-07-29-12:55:51.539091,253.40857959992718,253.71440019994043,253.40857959992718,None,None,253.40857959992718,None,254.2143456900143,None,,,,12003,0002,2021_Jul_29_1251,localizer,2021.1.3,60.13435217056142,
block,objects,objects049.bmp,,,,,0,96,96,96,,,,,,,,,,,,,,,,,,,,,,,,,,,,,,,,,,,,None,,254.2143456900143,None,254.2143456900143,None,2021-07-29-12:55:52.353585,254.21536409994587,254.53113889996894,254.21536409994587,None,None,254.21536409994587,None,255.01449199001073,None,,,,12003,0002,2021_Jul_29_1251,localizer,2021.1.3,60.13435217056142,
block,objects,objects015.bmp,,,,,0,97,97,97,,,,,,,,,,,,,,,,,,,,,,,,,,,,,,,,,,,,None,,255.01449199001073,None,255.01449199001073,None,2021-07-29-12:55:53.154986,255.02290280000307,255.33109029999468,255.02290280000307,255.02290280000307,None,255.02290280000307,255.02290280000307,255.83048908998026,None,,,,12003,0002,2021_Jul_29_1251,localizer,2021.1.3,60.13435217056142,
block,objects,objects077.bmp,,,,,0,98,98,98,,,,,,,,,,,,,,,,,,,,,,,,,,,,,,,,,,,,None,,255.83048908998026,None,255.83048908998026,None,2021-07-29-12:55:53.969718,255.8318606999237,256.131139599951,255.8318606999237,None,None,255.8318606999237,None,256.64730098998405,None,,,,12003,0002,2021_Jul_29_1251,localizer,2021.1.3,60.13435217056142,
block,objects,objects047.bmp,,,,,0,99,99,99,,,,,,,,,,,,,,,,,,,,,,,,,,,,,,,,,,,,None,,256.64730098998405,None,256.64730098998405,None,2021-07-29-12:55:54.786533,256.6486020999728,256.96426509995945,256.6486020999728,None,None,256.6486020999728,None,257.44785868996985,None,,,,12003,0002,2021_Jul_29_1251,localizer,2021.1.3,60.13435217056142,
block,objects,objects062.bmp,,,,,0,100,100,100,,,,,,,,,,,,,,,,,,,,,,,,,,,,,,,,,,,,None,,257.44785868996985,None,257.44785868996985,None,2021-07-29-12:55:55.589059,257.45699999993667,257.76417320000473,257.45699999993667,257.45699999993667,None,257.45699999993667,257.45699999993667,258.2655219899374,None,,,,12003,0002,2021_Jul_29_1251,localizer,2021.1.3,60.13435217056142,
block,objects,objects048.bmp,,,,,0,101,101,101,,,,,,,,,,,,,,,,,,,,,,,,,,,,,,,,,,,,None,,258.2655219899374,None,258.2655219899374,None,2021-07-29-12:55:56.407872,258.26909439999145,258.58234700001776,258.26909439999145,None,None,258.26909439999145,None,259.08151338997993,None,,,,12003,0002,2021_Jul_29_1251,localizer,2021.1.3,60.13435217056142,
block,objects,objects019.bmp,,,,,0,102,102,102,,,,,,,,,,,,,,,,,,,,,,,,,,,,,,,,,,,,None,,259.08151338997993,None,259.08151338997993,None,2021-07-29-12:55:57.221727,259.0835354999872,259.3981429999694,259.0835354999872,None,None,259.0835354999872,None,259.89880159000165,None,,,,12003,0002,2021_Jul_29_1251,localizer,2021.1.3,60.13435217056142,
block,objects,objects036.bmp,,,,,0,103,103,103,,,,,,,,,,,,,,,,,,,,,,,,,,,,,,,,,,,,None,,259.89880159000165,None,259.89880159000165,None,2021-07-29-12:55:58.041005,259.90211030002683,260.21510279993527,259.90211030002683,None,None,259.90211030002683,None,260.71423218996495,None,,,,12003,0002,2021_Jul_29_1251,localizer,2021.1.3,60.13435217056142,
block,objects,objects020.bmp,,,,,0,104,104,104,,,,,,,,,,,,,,,,,,,,,,,,,,,,,,,,,,,,None,,260.71423218996495,None,260.71423218996495,None,2021-07-29-12:55:58.852952,260.7151939999312,261.0149018999655,260.7151939999312,None,None,260.7151939999312,None,261.51426469002615,None,,,,12003,0002,2021_Jul_29_1251,localizer,2021.1.3,60.13435217056142,
block,objects,objects038.bmp,,,,,0,105,105,105,,,,,,,,,,,,,,,,,,,,,,,,,,,,,,,,,,,,None,,261.51426469002615,None,261.51426469002615,None,2021-07-29-12:55:59.655484,261.5224147000117,261.8313654999947,261.5224147000117,261.5224147000117,None,261.5224147000117,261.5224147000117,262.33067659001097,None,,,,12003,0002,2021_Jul_29_1251,localizer,2021.1.3,60.13435217056142,
block_end,objects,objects068.bmp,,,,,0,106,106,106,,,,,,,,,,,,,,,,,,,,,,,,,,,,,,,,,,,,None,,262.33067659001097,None,262.33067659001097,None,2021-07-29-12:56:00.469909,262.33190430002287,262.6313029000303,262.33190430002287,None,None,262.33190430002287,None,263.1319092900143,None,,,,12003,0002,2021_Jul_29_1251,localizer,2021.1.3,60.13435217056142,
block_start,scenes,scenes010.bmp,,,,,0,107,107,107,,,,,,,,,,,,,,,,,,,,,,,,,,,,,,,,,,,,t,1.801201599999331,263.1325567000313,None,263.1325567000313,None,2021-07-29-12:56:03.088439,264.95079349994194,265.2639677999541,264.95079349994194,None,None,264.95079349994194,None,265.7642450899933,None,,,,12003,0002,2021_Jul_29_1251,localizer,2021.1.3,60.13435217056142,
block,scenes,scenes012.bmp,,,,,0,108,108,108,,,,,,,,,,,,,,,,,,,,,,,,,,,,,,,,,,,,None,,265.7642450899933,None,265.7642450899933,None,2021-07-29-12:56:03.903646,265.77066979999654,266.08141739992425,265.77066979999654,None,None,265.77066979999654,None,266.5821732899989,None,,,,12003,0002,2021_Jul_29_1251,localizer,2021.1.3,60.13435217056142,
block,scenes,scenes033.bmp,,,,,0,109,109,109,,,,,,,,,,,,,,,,,,,,,,,,,,,,,,,,,,,,None,,266.5821732899989,None,266.5821732899989,None,2021-07-29-12:56:04.723541,266.5856091999449,266.8975761999609,266.5856091999449,None,None,266.5856091999449,None,267.3977271899697,None,,,,12003,0002,2021_Jul_29_1251,localizer,2021.1.3,60.13435217056142,
block,scenes,scenes080.bmp,,,,,0,110,110,110,,,,,,,,,,,,,,,,,,,,,,,,,,,,,,,,,,,,None,,267.3977271899697,None,267.3977271899697,None,2021-07-29-12:56:05.537153,267.39884799998254,267.71456679992843,267.39884799998254,None,None,267.39884799998254,None,268.1978874899563,None,,,,12003,0002,2021_Jul_29_1251,localizer,2021.1.3,60.13435217056142,
block,scenes,scenes014.bmp,,,,,0,111,111,111,,,,,,,,,,,,,,,,,,,,,,,,,,,,,,,,,,,,None,,268.1978874899563,None,268.1978874899563,None,2021-07-29-12:56:06.340291,268.20118340000045,268.51435169996694,268.20118340000045,268.20118340000045,None,268.20118340000045,268.20118340000045,269.01448068992465,None,,,,12003,0002,2021_Jul_29_1251,localizer,2021.1.3,60.13435217056142,
block,scenes,scenes052.bmp,,,,,0,112,112,112,,,,,,,,,,,,,,,,,,,,,,,,,,,,,,,,,,,,None,,269.01448068992465,None,269.01448068992465,None,2021-07-29-12:56:07.153708,269.0154718999984,269.33113249996677,269.0154718999984,None,None,269.0154718999984,None,269.83093148997284,None,,,,12003,0002,2021_Jul_29_1251,localizer,2021.1.3,60.13435217056142,
block,scenes,scenes059.bmp,,,,,0,113,113,113,,,,,,,,,,,,,,,,,,,,,,,,,,,,,,,,,,,,None,,269.83093148997284,None,269.83093148997284,None,2021-07-29-12:56:07.970310,269.8320803999668,270.1316847000271,269.8320803999668,None,None,269.8320803999668,None,270.64788388999875,None,,,,12003,0002,2021_Jul_29_1251,localizer,2021.1.3,60.13435217056142,
block,scenes,scenes039.bmp,,,,,0,114,114,114,,,,,,,,,,,,,,,,,,,,,,,,,,,,,,,,,,,,None,,270.64788388999875,None,270.64788388999875,None,2021-07-29-12:56:08.787112,270.64896160003264,270.9647104999749,270.64896160003264,None,None,270.64896160003264,None,271.4644552900339,None,,,,12003,0002,2021_Jul_29_1251,localizer,2021.1.3,60.13435217056142,
block,scenes,scenes056.bmp,,,,,0,115,115,115,,,,,,,,,,,,,,,,,,,,,,,,,,,,,,,,,,,,None,,271.4644552900339,None,271.4644552900339,None,2021-07-29-12:56:09.603877,271.4655494999606,271.781060099951,271.4655494999606,None,None,271.4655494999606,None,272.2809513899614,None,,,,12003,0002,2021_Jul_29_1251,localizer,2021.1.3,60.13435217056142,
block,scenes,scenes021.bmp,,,,,0,116,116,116,,,,,,,,,,,,,,,,,,,,,,,,,,,,,,,,,,,,None,,272.2809513899614,None,272.2809513899614,None,2021-07-29-12:56:10.420186,272.28787150001153,272.59801519999746,272.28787150001153,None,None,272.28787150001153,None,273.09723978993713,None,,,,12003,0002,2021_Jul_29_1251,localizer,2021.1.3,60.13435217056142,
block,scenes,scenes062.bmp,,,,,0,117,117,117,,,,,,,,,,,,,,,,,,,,,,,,,,,,,,,,,,,,None,,273.09723978993713,None,273.09723978993713,None,2021-07-29-12:56:11.236507,273.1046127999434,273.4150844999822,273.1046127999434,None,None,273.1046127999434,None,273.91494198996804,None,,,,12003,0002,2021_Jul_29_1251,localizer,2021.1.3,60.13435217056142,
block,scenes,scenes041.bmp,,,,,0,118,118,118,,,,,,,,,,,,,,,,,,,,,,,,,,,,,,,,,,,,None,,273.91494198996804,None,273.91494198996804,None,2021-07-29-12:56:12.055158,273.91666149999946,274.23160990001634,273.91666149999946,None,None,273.91666149999946,None,274.7319526899722,None,,,,12003,0002,2021_Jul_29_1251,localizer,2021.1.3,60.13435217056142,
block,scenes,scenes083.bmp,,,,,0,119,119,119,,,,,,,,,,,,,,,,,,,,,,,,,,,,,,,,,,,,None,,274.7319526899722,None,274.7319526899722,None,2021-07-29-12:56:12.873357,274.7427620999515,275.0480245000217,274.7427620999515,None,None,274.7427620999515,None,275.5480396899278,None,,,,12003,0002,2021_Jul_29_1251,localizer,2021.1.3,60.13435217056142,
block,scenes,scenes055.bmp,,,,,0,120,120,120,,,,,,,,,,,,,,,,,,,,,,,,,,,,,,,,,,,,None,,275.5480396899278,None,275.5480396899278,None,2021-07-29-12:56:13.688152,275.54898920003325,275.8642340999795,275.54898920003325,None,None,275.54898920003325,None,276.34833958992965,None,,,,12003,0002,2021_Jul_29_1251,localizer,2021.1.3,60.13435217056142,
block_end,scenes,scenes089.bmp,,,,,0,121,121,121,,,,,,,,,,,,,,,,,,,,,,,,,,,,,,,,,,,,None,,276.34833958992965,None,276.34833958992965,None,2021-07-29-12:56:14.490550,276.3515981999226,276.6644188000355,276.3515981999226,276.3515981999226,None,276.3515981999226,276.3515981999226,277.1642853899742,None,,,,12003,0002,2021_Jul_29_1251,localizer,2021.1.3,60.13435217056142,
block_start,scrambled,scrambled031.bmp,,,,,0,122,122,122,,,,,,,,,,,,,,,,,,,,,,,,,,,,,,,,,,,,t,1.7696129999822006,277.164195499965,None,277.164195499965,None,2021-07-29-12:56:17.104928,278.96575750003103,279.2811618000269,278.96575750003103,None,None,278.96575750003103,None,279.76527008999835,None,,,,12003,0002,2021_Jul_29_1251,localizer,2021.1.3,60.13435217056142,
block,scrambled,scrambled069.bmp,,,,,0,123,123,123,,,,,,,,,,,,,,,,,,,,,,,,,,,,,,,,,,,,None,,279.76527008999835,None,279.76527008999835,None,2021-07-29-12:56:17.909293,279.777794499998,280.08202029997483,279.777794499998,279.777794499998,None,279.777794499998,279.777794499998,280.5818529900047,None,,,,12003,0002,2021_Jul_29_1251,localizer,2021.1.3,60.13435217056142,
block,scrambled,scrambled011.bmp,,,,,0,124,124,124,,,,,,,,,,,,,,,,,,,,,,,,,,,,,,,,,,,,None,,280.5818529900047,None,280.5818529900047,None,2021-07-29-12:56:18.722071,280.58394309994765,280.8976677999599,280.58394309994765,None,None,280.58394309994765,None,281.398170989973,None,,,,12003,0002,2021_Jul_29_1251,localizer,2021.1.3,60.13435217056142,
block,scrambled,scrambled080.bmp,,,,,0,125,125,125,,,,,,,,,,,,,,,,,,,,,,,,,,,,,,,,,,,,None,,281.398170989973,None,281.398170989973,None,2021-07-29-12:56:19.538597,281.39893929997925,281.69823470001575,281.39893929997925,None,None,281.39893929997925,None,282.19894088994477,None,,,,12003,0002,2021_Jul_29_1251,localizer,2021.1.3,60.13435217056142,
block,scrambled,scrambled083.bmp,,,,,0,126,126,126,,,,,,,,,,,,,,,,,,,,,,,,,,,,,,,,,,,,None,,282.19894088994477,None,282.19894088994477,None,2021-07-29-12:56:20.342244,282.21062399994116,282.5148515999317,282.21062399994116,282.21062399994116,None,282.21062399994116,282.21062399994116,283.01441158998057,None,,,,12003,0002,2021_Jul_29_1251,localizer,2021.1.3,60.13435217056142,
block,scrambled,scrambled004.bmp,,,,,0,127,127,127,,,,,,,,,,,,,,,,,,,,,,,,,,,,,,,,,,,,None,,283.01441158998057,None,283.01441158998057,None,2021-07-29-12:56:21.153642,283.0209218999371,283.3318660999648,283.0209218999371,None,None,283.0209218999371,None,283.8311778899864,None,,,,12003,0002,2021_Jul_29_1251,localizer,2021.1.3,60.13435217056142,
block,scrambled,scrambled029.bmp,,,,,0,128,128,128,,,,,,,,,,,,,,,,,,,,,,,,,,,,,,,,,,,,None,,283.8311778899864,None,283.8311778899864,None,2021-07-29-12:56:21.970644,283.83205029997043,284.1479921999853,283.83205029997043,None,None,283.83205029997043,None,284.63110468994125,None,,,,12003,0002,2021_Jul_29_1251,localizer,2021.1.3,60.13435217056142,
block,scrambled,scrambled052.bmp,,,,,0,129,129,129,,,,,,,,,,,,,,,,,,,,,,,,,,,,,,,,,,,,None,,284.63110468994125,None,284.63110468994125,None,2021-07-29-12:56:22.772328,284.63435649999883,284.9480035000015,284.63435649999883,284.63435649999883,None,284.63435649999883,284.63435649999883,285.4484015900292,None,,,,12003,0002,2021_Jul_29_1251,localizer,2021.1.3,60.13435217056142,
block,scrambled,scrambled032.bmp,,,,,0,130,130,130,,,,,,,,,,,,,,,,,,,,,,,,,,,,,,,,,,,,None,,285.4484015900292,None,285.4484015900292,None,2021-07-29-12:56:23.588812,285.45062070002314,285.7652355999453,285.45062070002314,None,None,285.45062070002314,None,286.26465328995835,None,,,,12003,0002,2021_Jul_29_1251,localizer,2021.1.3,60.13435217056142,
block,scrambled,scrambled061.bmp,,,,,0,131,131,131,,,,,,,,,,,,,,,,,,,,,,,,,,,,,,,,,,,,None,,286.26465328995835,None,286.26465328995835,None,2021-07-29-12:56:24.404972,286.26587559992913,286.5815297999652,286.26587559992913,None,None,286.26587559992913,None,287.08147119000785,None,,,,12003,0002,2021_Jul_29_1251,localizer,2021.1.3,60.13435217056142,
block,scrambled,scrambled075.bmp,,,,,0,132,132,132,,,,,,,,,,,,,,,,,,,,,,,,,,,,,,,,,,,,None,,287.08147119000785,None,287.08147119000785,None,2021-07-29-12:56:25.220928,287.08932639996056,287.4009524999419,287.08932639996056,None,None,287.08932639996056,None,287.89836618994593,None,,,,12003,0002,2021_Jul_29_1251,localizer,2021.1.3,60.13435217056142,
block,scrambled,scrambled040.bmp,,,,,0,133,133,133,,,,,,,,,,,,,,,,,,,,,,,,,,,,,,,,,,,,None,,287.89836618994593,None,287.89836618994593,None,2021-07-29-12:56:26.038498,287.89934439992066,288.2149979999522,287.89934439992066,None,None,287.89934439992066,None,288.7148586899624,None,,,,12003,0002,2021_Jul_29_1251,localizer,2021.1.3,60.13435217056142,
block,scrambled,scrambled077.bmp,,,,,0,134,134,134,,,,,,,,,,,,,,,,,,,,,,,,,,,,,,,,,,,,None,,288.7148586899624,None,288.7148586899624,None,2021-07-29-12:56:26.854320,288.7155199999688,289.0312524000183,288.7155199999688,None,None,288.7155199999688,None,289.5151095899404,None,,,,12003,0002,2021_Jul_29_1251,localizer,2021.1.3,60.13435217056142,
block,scrambled,scrambled060.bmp,,,,,0,135,135,135,,,,,,,,,,,,,,,,,,,,,,,,,,,,,,,,,,,,None,,289.5151095899404,None,289.5151095899404,None,2021-07-29-12:56:27.657363,289.5183749999851,289.8310426999815,289.5183749999851,289.5183749999851,None,289.5183749999851,289.5183749999851,290.3313292899751,None,,,,12003,0002,2021_Jul_29_1251,localizer,2021.1.3,60.13435217056142,
block_end,scrambled,scrambled072.bmp,,,,,0,136,136,136,,,,,,,,,,,,,,,,,,,,,,,,,,,,,,,,,,,,None,,290.3313292899751,None,290.3313292899751,None,2021-07-29-12:56:28.470557,290.3324548000237,290.6480157999322,290.3324548000237,None,None,290.3324548000237,None,291.1478938899585,None,,,,12003,0002,2021_Jul_29_1251,localizer,2021.1.3,60.13435217056142,
block_start,faces,faces031.bmp,,,,,0,137,137,137,,,,,,,,,,,,,,,,,,,,,,,,,,,,,,,,,,,,t,1.7846344000427052,291.1481707999483,None,291.1481707999483,None,2021-07-29-12:56:31.085662,292.94899579999037,293.2645702000009,292.94899579999037,None,None,292.94899579999037,None,293.7643067899975,None,,,,12003,0002,2021_Jul_29_1251,localizer,2021.1.3,60.13435217056142,
block,faces,faces059.bmp,,,,,0,138,138,138,,,,,,,,,,,,,,,,,,,,,,,,,,,,,,,,,,,,None,,293.7643067899975,None,293.7643067899975,None,2021-07-29-12:56:31.903541,293.7655786999967,294.081226099981,293.7655786999967,None,None,293.7655786999967,None,294.56478278994325,None,,,,12003,0002,2021_Jul_29_1251,localizer,2021.1.3,60.13435217056142,
block,faces,faces005.bmp,,,,,0,139,139,139,,,,,,,,,,,,,,,,,,,,,,,,,,,,,,,,,,,,None,,294.56478278994325,None,294.56478278994325,None,2021-07-29-12:56:32.707540,294.57485670002643,294.8879679000238,294.57485670002643,294.57485670002643,None,294.57485670002643,294.57485670002643,295.3818366899271,None,,,,12003,0002,2021_Jul_29_1251,localizer,2021.1.3,60.13435217056142,
block,faces,faces005.bmp,,,,,0,140,140,140,,,,,,,,,,,,,,,,,,,,,,,,,,,,,,,,,,,,None,,295.3818366899271,None,295.3818366899271,None,2021-07-29-12:56:33.522248,295.38421389996074,295.69860799994785,295.38421389996074,None,y,295.38421389996074,None,296.1984789900365,None,0.4033926000120118,,,12003,0002,2021_Jul_29_1251,localizer,2021.1.3,60.13435217056142,
block,faces,faces048.bmp,,,,,0,141,141,141,,,,,,,,,,,,,,,,,,,,,,,,,,,,,,,,,,,,None,,296.1984789900365,None,296.1984789900365,None,2021-07-29-12:56:34.338873,296.2083680999931,296.51495350000914,296.2083680999931,None,None,296.2083680999931,None,297.0148800899391,None,,,,12003,0002,2021_Jul_29_1251,localizer,2021.1.3,60.13435217056142,
block,faces,faces071.bmp,,,,,0,142,142,142,,,,,,,,,,,,,,,,,,,,,,,,,,,,,,,,,,,,None,,297.0148800899391,None,297.0148800899391,None,2021-07-29-12:56:35.154145,297.0293488999596,297.3308194000274,297.0293488999596,None,None,297.0293488999596,None,297.8384672899614,None,,,,12003,0002,2021_Jul_29_1251,localizer,2021.1.3,60.13435217056142,
block,faces,faces053.bmp,,,,,0,143,143,143,,,,,,,,,,,,,,,,,,,,,,,,,,,,,,,,,,,,None,,297.8384672899614,None,297.8384672899614,None,2021-07-29-12:56:35.984177,297.84674359997734,298.148368199938,297.84674359997734,None,None,297.84674359997734,None,298.64794028996255,None,,,,12003,0002,2021_Jul_29_1251,localizer,2021.1.3,60.13435217056142,
block,faces,faces037.bmp,,,,,0,144,144,144,,,,,,,,,,,,,,,,,,,,,,,,,,,,,,,,,,,,None,,298.64794028996255,None,298.64794028996255,None,2021-07-29-12:56:36.787153,298.65493429999333,298.9646259000292,298.65493429999333,None,None,298.65493429999333,None,299.4646646899986,None,,,,12003,0002,2021_Jul_29_1251,localizer,2021.1.3,60.13435217056142,
block,faces,faces056.bmp,,,,,0,145,145,145,,,,,,,,,,,,,,,,,,,,,,,,,,,,,,,,,,,,None,,299.4646646899986,None,299.4646646899986,None,2021-07-29-12:56:37.603899,299.4657371999929,299.78111849993,299.4657371999929,None,None,299.4657371999929,None,300.28099009002324,None,,,,12003,0002,2021_Jul_29_1251,localizer,2021.1.3,60.13435217056142,
block,faces,faces002.bmp,,,,,0,146,146,146,,,,,,,,,,,,,,,,,,,,,,,,,,,,,,,,,,,,None,,300.28099009002324,None,300.28099009002324,None,2021-07-29-12:56:38.420230,300.28240899997763,300.59809550002683,300.28240899997763,None,None,300.28240899997763,None,301.09781699002485,None,,,,12003,0002,2021_Jul_29_1251,localizer,2021.1.3,60.13435217056142,
block,faces,faces016.bmp,,,,,0,147,147,147,,,,,,,,,,,,,,,,,,,,,,,,,,,,,,,,,,,,None,,301.09781699002485,None,301.09781699002485,None,2021-07-29-12:56:39.237051,301.0990896000294,301.4146872999845,301.0990896000294,None,None,301.0990896000294,None,301.91454929000463,None,,,,12003,0002,2021_Jul_29_1251,localizer,2021.1.3,60.13435217056142,
block,faces,faces003.bmp,,,,,0,148,148,148,,,,,,,,,,,,,,,,,,,,,,,,,,,,,,,,,,,,None,,301.91454929000463,None,301.91454929000463,None,2021-07-29-12:56:40.054400,301.915721999947,302.21727150003426,301.915721999947,None,None,301.915721999947,None,302.73104498992905,None,,,,12003,0002,2021_Jul_29_1251,localizer,2021.1.3,60.13435217056142,
block,faces,faces050.bmp,,,,,0,149,149,149,,,,,,,,,,,,,,,,,,,,,,,,,,,,,,,,,,,,None,,302.73104498992905,None,302.73104498992905,None,2021-07-29-12:56:40.870534,302.7323953999439,303.0480906999437,302.7323953999439,None,None,302.7323953999439,None,303.5477714899811,None,,,,12003,0002,2021_Jul_29_1251,localizer,2021.1.3,60.13435217056142,
block,faces,faces047.bmp,,,,,0,150,150,150,,,,,,,,,,,,,,,,,,,,,,,,,,,,,,,,,,,,None,,303.5477714899811,None,303.5477714899811,None,2021-07-29-12:56:41.687010,303.54905799997505,303.86461689998396,303.54905799997505,None,None,303.54905799997505,None,304.34815129000924,None,,,,12003,0002,2021_Jul_29_1251,localizer,2021.1.3,60.13435217056142,
block_end,faces,faces075.bmp,,,,,0,151,151,151,,,,,,,,,,,,,,,,,,,,,,,,,,,,,,,,,,,,None,,304.34815129000924,None,304.34815129000924,None,2021-07-29-12:56:42.489597,304.3512635999359,304.66476900002453,304.3512635999359,304.3512635999359,None,304.3512635999359,304.3512635999359,305.16588428992543,None,,,,12003,0002,2021_Jul_29_1251,localizer,2021.1.3,60.13435217056142,
block_start,scenes,scenes027.bmp,,,,,0,152,152,152,,,,,,,,,,,,,,,,,,,,,,,,,,,,,,,,,,,,t,1.7657698000548407,305.16693549999036,None,305.16693549999036,None,2021-07-29-12:56:45.086078,306.9546501999721,307.2646678999299,306.9546501999721,None,None,306.9546501999721,None,307.76503128992624,None,,,,12003,0002,2021_Jul_29_1251,localizer,2021.1.3,60.13435217056142,
block,scenes,scenes088.bmp,,,,,0,153,153,153,,,,,,,,,,,,,,,,,,,,,,,,,,,,,,,,,,,,None,,307.76503128992624,None,307.76503128992624,None,2021-07-29-12:56:45.904262,307.76608359999955,308.08165960002225,307.76608359999955,None,None,307.76608359999955,None,308.56554788994833,None,,,,12003,0002,2021_Jul_29_1251,localizer,2021.1.3,60.13435217056142,
block,scenes,scenes056.bmp,,,,,0,154,154,154,,,,,,,,,,,,,,,,,,,,,,,,,,,,,,,,,,,,None,,308.56554788994833,None,308.56554788994833,None,2021-07-29-12:56:46.707767,308.5687458999455,308.88177410000935,308.5687458999455,308.5687458999455,None,308.5687458999455,308.5687458999455,309.38201388999585,None,,,,12003,0002,2021_Jul_29_1251,localizer,2021.1.3,60.13435217056142,
block,scenes,scenes064.bmp,,,,,0,155,155,155,,,,,,,,,,,,,,,,,,,,,,,,,,,,,,,,,,,,None,,309.38201388999585,None,309.38201388999585,None,2021-07-29-12:56:47.522429,309.38956019992474,309.6982994999271,309.38956019992474,None,None,309.38956019992474,None,310.19830548999596,None,,,,12003,0002,2021_Jul_29_1251,localizer,2021.1.3,60.13435217056142,
block,scenes,scenes014.bmp,,,,,0,156,156,156,,,,,,,,,,,,,,,,,,,,,,,,,,,,,,,,,,,,None,,310.19830548999596,None,310.19830548999596,None,2021-07-29-12:56:48.337679,310.1991798999952,310.4977601999417,310.1991798999952,None,None,310.1991798999952,None,310.9993448899244,None,,,,12003,0002,2021_Jul_29_1251,localizer,2021.1.3,60.13435217056142,
block,scenes,scenes063.bmp,,,,,0,157,157,157,,,,,,,,,,,,,,,,,,,,,,,,,,,,,,,,,,,,None,,310.9993448899244,None,310.9993448899244,None,2021-07-29-12:56:49.144697,311.00568559998646,311.3145762999775,311.00568559998646,311.00568559998646,None,311.00568559998646,311.00568559998646,311.816932490014,None,,,,12003,0002,2021_Jul_29_1251,localizer,2021.1.3,60.13435217056142,
block,scenes,scenes017.bmp,,,,,0,158,158,158,,,,,,,,,,,,,,,,,,,,,,,,,,,,,,,,,,,,None,,311.816932490014,None,311.816932490014,None,2021-07-29-12:56:49.959246,311.8276996000204,312.13149699999485,311.8276996000204,None,None,311.8276996000204,None,312.6312561899307,None,,,,12003,0002,2021_Jul_29_1251,localizer,2021.1.3,60.13435217056142,
block,scenes,scenes058.bmp,,,,,0,159,159,159,,,,,,,,,,,,,,,,,,,,,,,,,,,,,,,,,,,,None,,312.6312561899307,None,312.6312561899307,None,2021-07-29-12:56:50.770494,312.6325280999299,312.9318608000176,312.6325280999299,None,None,312.6325280999299,None,313.4356381899328,None,,,,12003,0002,2021_Jul_29_1251,localizer,2021.1.3,60.13435217056142,
block,scenes,scenes077.bmp,,,,,0,160,160,160,,,,,,,,,,,,,,,,,,,,,,,,,,,,,,,,,,,,None,,313.4356381899328,None,313.4356381899328,None,2021-07-29-12:56:51.584655,313.4538584999973,313.7548340000212,313.4538584999973,313.4538584999973,None,313.4538584999973,313.4538584999973,314.2495199899771,None,,,,12003,0002,2021_Jul_29_1251,localizer,2021.1.3,60.13435217056142,
block,scenes,scenes074.bmp,,,,,0,161,161,161,,,,,,,,,,,,,,,,,,,,,,,,,,,,,,,,,,,,None,,314.2495199899771,None,314.2495199899771,None,2021-07-29-12:56:52.387730,314.24946299998555,314.5650356999831,314.24946299998555,None,None,314.24946299998555,None,315.0486593899899,None,,,,12003,0002,2021_Jul_29_1251,localizer,2021.1.3,60.13435217056142,
block,scenes,scenes020.bmp,,,,,0,162,162,162,,,,,,,,,,,,,,,,,,,,,,,,,,,,,,,,,,,,None,,315.0486593899899,None,315.0486593899899,None,2021-07-29-12:56:53.190730,315.0516996999504,315.36447459994815,315.0516996999504,315.0516996999504,None,315.0516996999504,315.0516996999504,315.86591829002134,None,,,,12003,0002,2021_Jul_29_1251,localizer,2021.1.3,60.13435217056142,
block,scenes,scenes078.bmp,,,,,0,163,163,163,,,,,,,,,,,,,,,,,,,,,,,,,,,,,,,,,,,,None,,315.86591829002134,None,315.86591829002134,None,2021-07-29-12:56:54.009117,315.87934959994163,316.1815792999696,315.87934959994163,None,None,315.87934959994163,None,316.6813531900174,None,,,,12003,0002,2021_Jul_29_1251,localizer,2021.1.3,60.13435217056142,
block,scenes,scenes019.bmp,,,,,0,164,164,164,,,,,,,,,,,,,,,,,,,,,,,,,,,,,,,,,,,,None,,316.6813531900174,None,316.6813531900174,None,2021-07-29-12:56:54.820596,316.6825280999765,316.98789689992554,316.6825280999765,None,None,316.6825280999765,None,317.48197639003627,None,,,,12003,0002,2021_Jul_29_1251,localizer,2021.1.3,60.13435217056142,
block,scenes,scenes008.bmp,,,,,0,165,165,165,,,,,,,,,,,,,,,,,,,,,,,,,,,,,,,,,,,,None,,317.48197639003627,None,317.48197639003627,None,2021-07-29-12:56:55.624125,317.48510890000034,317.78372539998963,317.48510890000034,317.48510890000034,None,317.48510890000034,317.48510890000034,318.29791698992483,None,,,,12003,0002,2021_Jul_29_1251,localizer,2021.1.3,60.13435217056142,
block_end,scenes,scenes051.bmp,,,,,0,166,166,166,,,,,,,,,,,,,,,,,,,,,,,,,,,,,,,,,,,,None,,318.29791698992483,None,318.29791698992483,None,2021-07-29-12:56:56.437189,318.3064754999941,318.6150634000078,318.3064754999941,None,None,318.3064754999941,None,319.11459068992406,None,,,,12003,0002,2021_Jul_29_1251,localizer,2021.1.3,60.13435217056142,
null_block,null_block,null_block.bmp,,,,,0,167,167,167,,,,,,,,,,,,,,,,,,,,,,,,,,,,,,,,,,,,t,1.818182999966666,319.1146230000304,None,319.1146230000304,None,2021-07-29-12:56:59.086697,320.9484220899525,None,320.9484220899525,None,None,320.9484220899525,None,320.9522325999569,None,,,,12003,0002,2021_Jul_29_1251,localizer,2021.1.3,60.13435217056142,
block_start,objects,objects060.bmp,,,,,0,168,168,168,,,,,,,,,,,,,,,,,,,,,,,,,,,,,,,,,,,,t,1.9642351999646053,332.9689040000085,None,332.9689040000085,None,2021-07-29-12:57:13.097042,334.96346050000284,335.26453329995275,334.96346050000284,None,None,334.96346050000284,None,335.77237188994184,None,,,,12003,0002,2021_Jul_29_1251,localizer,2021.1.3,60.13435217056142,
block,objects,objects012.bmp,,,,,0,169,169,169,,,,,,,,,,,,,,,,,,,,,,,,,,,,,,,,,,,,None,,335.77237188994184,None,335.77237188994184,None,2021-07-29-12:57:13.918962,335.78936199995223,336.0983169999672,335.78936199995223,None,None,335.78936199995223,None,336.5810151900281,None,,,,12003,0002,2021_Jul_29_1251,localizer,2021.1.3,60.13435217056142,
block,objects,objects018.bmp,,,,,0,170,170,170,,,,,,,,,,,,,,,,,,,,,,,,,,,,,,,,,,,,None,,336.5810151900281,None,336.5810151900281,None,2021-07-29-12:57:14.720318,336.58604089997243,336.8981745999772,336.58604089997243,None,None,336.58604089997243,None,337.3980258900323,None,,,,12003,0002,2021_Jul_29_1251,localizer,2021.1.3,60.13435217056142,
block,objects,objects006.bmp,,,,,0,171,171,171,,,,,,,,,,,,,,,,,,,,,,,,,,,,,,,,,,,,None,,337.3980258900323,None,337.3980258900323,None,2021-07-29-12:57:15.537268,337.404148099944,337.71522749995347,337.404148099944,None,None,337.404148099944,None,338.21541038997236,None,,,,12003,0002,2021_Jul_29_1251,localizer,2021.1.3,60.13435217056142,
block,objects,objects074.bmp,,,,,0,172,172,172,,,,,,,,,,,,,,,,,,,,,,,,,,,,,,,,,,,,None,,338.21541038997236,None,338.21541038997236,None,2021-07-29-12:57:16.355640,338.2172817999963,338.52164049993735,338.2172817999963,None,None,338.2172817999963,None,339.03121588999636,None,,,,12003,0002,2021_Jul_29_1251,localizer,2021.1.3,60.13435217056142,
block,objects,objects056.bmp,,,,,0,173,173,173,,,,,,,,,,,,,,,,,,,,,,,,,,,,,,,,,,,,None,,339.03121588999636,None,339.03121588999636,None,2021-07-29-12:57:17.170460,339.03732370003127,339.34919580002315,339.03732370003127,None,None,339.03732370003127,None,339.84891939003717,None,,,,12003,0002,2021_Jul_29_1251,localizer,2021.1.3,60.13435217056142,
block,objects,objects035.bmp,,,,,0,174,174,174,,,,,,,,,,,,,,,,,,,,,,,,,,,,,,,,,,,,None,,339.84891939003717,None,339.84891939003717,None,2021-07-29-12:57:17.989303,339.85705979994964,340.1651780999964,339.85705979994964,None,None,339.85705979994964,None,340.6654096900369,None,,,,12003,0002,2021_Jul_29_1251,localizer,2021.1.3,60.13435217056142,
block,objects,objects064.bmp,,,,,0,175,175,175,,,,,,,,,,,,,,,,,,,,,,,,,,,,,,,,,,,,None,,340.6654096900369,None,340.6654096900369,None,2021-07-29-12:57:18.805843,340.6663312999299,340.9821245999774,340.6663312999299,None,None,340.6663312999299,None,341.4815897900029,None,,,,12003,0002,2021_Jul_29_1251,localizer,2021.1.3,60.13435217056142,
block,objects,objects066.bmp,,,,,0,176,176,176,,,,,,,,,,,,,,,,,,,,,,,,,,,,,,,,,,,,None,,341.4815897900029,None,341.4815897900029,None,2021-07-29-12:57:19.620890,341.4875026999507,341.79854190000333,341.4875026999507,None,None,341.4875026999507,None,342.298258089961,None,,,,12003,0002,2021_Jul_29_1251,localizer,2021.1.3,60.13435217056142,
block,objects,objects019.bmp,,,,,0,177,177,177,,,,,,,,,,,,,,,,,,,,,,,,,,,,,,,,,,,,None,,342.298258089961,None,342.298258089961,None,2021-07-29-12:57:20.437501,342.29939820000436,342.6151807999704,342.29939820000436,None,None,342.29939820000436,None,343.09888138998065,None,,,,12003,0002,2021_Jul_29_1251,localizer,2021.1.3,60.13435217056142,
block,objects,objects063.bmp,,,,,0,178,178,178,,,,,,,,,,,,,,,,,,,,,,,,,,,,,,,,,,,,None,,343.09888138998065,None,343.09888138998065,None,2021-07-29-12:57:21.241297,343.1024172999896,343.41573679994326,343.1024172999896,343.1024172999896,None,343.1024172999896,343.1024172999896,343.91602468994677,None,,,,12003,0002,2021_Jul_29_1251,localizer,2021.1.3,60.13435217056142,
block,objects,objects005.bmp,,,,,0,179,179,179,,,,,,,,,,,,,,,,,,,,,,,,,,,,,,,,,,,,None,,343.91602468994677,None,343.91602468994677,None,2021-07-29-12:57:22.058298,343.9266559999669,344.2315271999687,343.9266559999669,None,None,343.9266559999669,None,344.7354434900102,None,,,,12003,0002,2021_Jul_29_1251,localizer,2021.1.3,60.13435217056142,
block,objects,objects059.bmp,,,,,0,180,180,180,,,,,,,,,,,,,,,,,,,,,,,,,,,,,,,,,,,,None,,344.7354434900102,None,344.7354434900102,None,2021-07-29-12:57:22.875623,344.74158070003614,345.0498497999506,344.74158070003614,None,None,344.74158070003614,None,345.5483380899881,None,,,,12003,0002,2021_Jul_29_1251,localizer,2021.1.3,60.13435217056142,
block,objects,objects051.bmp,,,,,0,181,181,181,,,,,,,,,,,,,,,,,,,,,,,,,,,,,,,,,,,,None,,345.5483380899881,None,345.5483380899881,None,2021-07-29-12:57:23.687579,345.55565400002524,345.86493199993856,345.55565400002524,None,None,345.55565400002524,None,346.3655617899843,None,,,,12003,0002,2021_Jul_29_1251,localizer,2021.1.3,60.13435217056142,
block_end,objects,objects058.bmp,,,,,0,182,182,182,,,,,,,,,,,,,,,,,,,,,,,,,,,,,,,,,,,,None,,346.3655617899843,None,346.3655617899843,None,2021-07-29-12:57:24.505793,346.373575399979,346.6817700000247,346.373575399979,None,None,346.373575399979,None,347.1814511899487,None,,,,12003,0002,2021_Jul_29_1251,localizer,2021.1.3,60.13435217056142,
block_start,faces,faces005.bmp,,,,,0,183,183,183,,,,,,,,,,,,,,,,,,,,,,,,,,,,,,,,,,,,t,1.7513331000227481,347.1814429999795,None,347.1814429999795,None,2021-07-29-12:57:27.090406,348.9522575000301,349.25638179993257,348.9522575000301,None,None,348.9522575000301,None,349.7660660900059,None,,,,12003,0002,2021_Jul_29_1251,localizer,2021.1.3,60.13435217056142,
block,faces,faces055.bmp,,,,,0,184,184,184,,,,,,,,,,,,,,,,,,,,,,,,,,,,,,,,,,,,None,,349.7660660900059,None,349.7660660900059,None,2021-07-29-12:57:27.907478,349.7689198999433,350.08235089993104,349.7689198999433,None,None,349.7689198999433,None,350.58167998996794,None,,,,12003,0002,2021_Jul_29_1251,localizer,2021.1.3,60.13435217056142,
block,faces,faces042.bmp,,,,,0,185,185,185,,,,,,,,,,,,,,,,,,,,,,,,,,,,,,,,,,,,None,,350.58167998996794,None,350.58167998996794,None,2021-07-29-12:57:28.720923,350.58283650001977,350.88332000002265,350.58283650001977,None,None,350.58283650001977,None,351.3822543899645,None,,,,12003,0002,2021_Jul_29_1251,localizer,2021.1.3,60.13435217056142,
block,faces,faces077.bmp,,,,,0,186,186,186,,,,,,,,,,,,,,,,,,,,,,,,,,,,,,,,,,,,None,,351.3822543899645,None,351.3822543899645,None,2021-07-29-12:57:29.525634,351.395582200028,351.6983588000294,351.395582200028,351.395582200028,None,351.395582200028,351.395582200028,352.1983252900303,None,,,,12003,0002,2021_Jul_29_1251,localizer,2021.1.3,60.13435217056142,
block,faces,faces012.bmp,,,,,0,187,187,187,,,,,,,,,,,,,,,,,,,,,,,,,,,,,,,,,,,,None,,352.1983252900303,None,352.1983252900303,None,2021-07-29-12:57:30.337569,352.2058100999566,352.51484299998265,352.2058100999566,None,None,352.2058100999566,None,353.01501598992616,None,,,,12003,0002,2021_Jul_29_1251,localizer,2021.1.3,60.13435217056142,
block,faces,faces064.bmp,,,,,0,188,188,188,,,,,,,,,,,,,,,,,,,,,,,,,,,,,,,,,,,,None,,353.01501598992616,None,353.01501598992616,None,2021-07-29-12:57:31.154957,353.0160868000239,353.33170590002555,353.0160868000239,None,None,353.0160868000239,None,353.83147658993255,None,,,,12003,0002,2021_Jul_29_1251,localizer,2021.1.3,60.13435217056142,
block,faces,faces050.bmp,,,,,0,189,189,189,,,,,,,,,,,,,,,,,,,,,,,,,,,,,,,,,,,,None,,353.83147658993255,None,353.83147658993255,None,2021-07-29-12:57:31.970724,353.83283450000454,354.1484683000017,353.83283450000454,None,None,353.83283450000454,None,354.6484226900269,None,,,,12003,0002,2021_Jul_29_1251,localizer,2021.1.3,60.13435217056142,
block,faces,faces047.bmp,,,,,0,190,190,190,,,,,,,,,,,,,,,,,,,,,,,,,,,,,,,,,,,,None,,354.6484226900269,None,354.6484226900269,None,2021-07-29-12:57:32.787758,354.64942279993556,354.94866569992155,354.64942279993556,None,None,354.64942279993556,None,355.44848088993456,None,,,,12003,0002,2021_Jul_29_1251,localizer,2021.1.3,60.13435217056142,
block,faces,faces035.bmp,,,,,0,191,191,191,,,,,,,,,,,,,,,,,,,,,,,,,,,,,,,,,,,,None,,355.44848088993456,None,355.44848088993456,None,2021-07-29-12:57:33.590747,355.4595669999253,355.77165220002644,355.4595669999253,355.4595669999253,None,355.4595669999253,355.4595669999253,356.26490118998333,None,,,,12003,0002,2021_Jul_29_1251,localizer,2021.1.3,60.13435217056142,
block,faces,faces051.bmp,,,,,0,192,192,192,,,,,,,,,,,,,,,,,,,,,,,,,,,,,,,,,,,,None,,356.26490118998333,None,356.26490118998333,None,2021-07-29-12:57:34.404144,356.2736570999259,356.5816658999538,356.2736570999259,None,None,356.2736570999259,None,357.081393189996,None,,,,12003,0002,2021_Jul_29_1251,localizer,2021.1.3,60.13435217056142,
block,faces,faces086.bmp,,,,,0,193,193,193,,,,,,,,,,,,,,,,,,,,,,,,,,,,,,,,,,,,None,,357.081393189996,None,357.081393189996,None,2021-07-29-12:57:35.220737,357.0827726999996,357.3985396999633,357.0827726999996,None,None,357.0827726999996,None,357.8821850900189,None,,,,12003,0002,2021_Jul_29_1251,localizer,2021.1.3,60.13435217056142,
block,faces,faces078.bmp,,,,,0,194,194,194,,,,,,,,,,,,,,,,,,,,,,,,,,,,,,,,,,,,None,,357.8821850900189,None,357.8821850900189,None,2021-07-29-12:57:36.025432,357.8860090000089,358.1984473000048,357.8860090000089,357.8860090000089,None,357.8860090000089,357.8860090000089,358.69884519003097,None,,,,12003,0002,2021_Jul_29_1251,localizer,2021.1.3,60.13435217056142,
block,faces,faces007.bmp,,,,,0,195,195,195,,,,,,,,,,,,,,,,,,,,,,,,,,,,,,,,,,,,None,,358.69884519003097,None,358.69884519003097,None,2021-07-29-12:57:36.839063,358.70676979993004,359.0151147999568,358.70676979993004,None,None,358.70676979993004,None,359.51498828994806,None,,,,12003,0002,2021_Jul_29_1251,localizer,2021.1.3,60.13435217056142,
block,faces,faces014.bmp,,,,,0,196,196,196,,,,,,,,,,,,,,,,,,,,,,,,,,,,,,,,,,,,None,,359.51498828994806,None,359.51498828994806,None,2021-07-29-12:57:37.654459,359.52227620000485,359.8318087999942,359.52227620000485,None,None,359.52227620000485,None,360.33134158995233,None,,,,12003,0002,2021_Jul_29_1251,localizer,2021.1.3,60.13435217056142,
block_end,faces,faces018.bmp,,,,,0,197,197,197,,,,,,,,,,,,,,,,,,,,,,,,,,,,,,,,,,,,None,,360.33134158995233,None,360.33134158995233,None,2021-07-29-12:57:38.470276,360.3325882999925,360.64861739997286,360.3325882999925,None,None,360.3325882999925,None,361.1318026900175,None,,,,12003,0002,2021_Jul_29_1251,localizer,2021.1.3,60.13435217056142,
block_start,scrambled,scrambled033.bmp,,,,,0,198,198,198,,,,,,,,,,,,,,,,,,,,,,,,,,,,,,,,,,,,t,1.800424600020051,361.1323449999327,None,361.1323449999327,None,2021-07-29-12:57:41.089700,362.95224799995776,363.2648225999437,362.95224799995776,None,None,362.95224799995776,None,363.76474148993145,None,,,,12003,0002,2021_Jul_29_1251,localizer,2021.1.3,60.13435217056142,
block,scrambled,scrambled061.bmp,,,,,0,199,199,199,,,,,,,,,,,,,,,,,,,,,,,,,,,,,,,,,,,,None,,363.76474148993145,None,363.76474148993145,None,2021-07-29-12:57:41.903985,363.7661292999983,364.08179069997277,363.7661292999983,None,None,363.7661292999983,None,364.5816014899523,None,,,,12003,0002,2021_Jul_29_1251,localizer,2021.1.3,60.13435217056142,
block,scrambled,scrambled057.bmp,,,,,0,200,200,200,,,,,,,,,,,,,,,,,,,,,,,,,,,,,,,,,,,,None,,364.5816014899523,None,364.5816014899523,None,2021-07-29-12:57:42.720853,364.58832209999673,364.89932770002633,364.58832209999673,None,None,364.58832209999673,None,365.39823629000455,None,,,,12003,0002,2021_Jul_29_1251,localizer,2021.1.3,60.13435217056142,
block,scrambled,scrambled012.bmp,,,,,0,201,201,201,,,,,,,,,,,,,,,,,,,,,,,,,,,,,,,,,,,,None,,365.39823629000455,None,365.39823629000455,None,2021-07-29-12:57:43.537484,365.39938089996576,365.7153279000195,365.39938089996576,None,None,365.39938089996576,None,366.19858958994735,None,,,,12003,0002,2021_Jul_29_1251,localizer,2021.1.3,60.13435217056142,
block,scrambled,scrambled013.bmp,,,,,0,202,202,202,,,,,,,,,,,,,,,,,,,,,,,,,,,,,,,,,,,,None,,366.19858958994735,None,366.19858958994735,None,2021-07-29-12:57:44.339831,366.2016733000055,366.51531659998,366.2016733000055,366.2016733000055,None,366.2016733000055,366.2016733000055,367.015566489927,None,,,,12003,0002,2021_Jul_29_1251,localizer,2021.1.3,60.13435217056142,
block,scrambled,scrambled062.bmp,,,,,0,203,203,203,,,,,,,,,,,,,,,,,,,,,,,,,,,,,,,,,,,,None,,367.015566489927,None,367.015566489927,None,2021-07-29-12:57:45.155957,367.02376230002847,367.33208670001477,367.02376230002847,None,None,367.02376230002847,None,367.8314360899734,None,,,,12003,0002,2021_Jul_29_1251,localizer,2021.1.3,60.13435217056142,
block,scrambled,scrambled068.bmp,,,,,0,204,204,204,,,,,,,,,,,,,,,,,,,,,,,,,,,,,,,,,,,,None,,367.8314360899734,None,367.8314360899734,None,2021-07-29-12:57:45.970686,367.8326337999897,368.1484361999901,367.8326337999897,None,None,367.8326337999897,None,368.6322739899973,None,,,,12003,0002,2021_Jul_29_1251,localizer,2021.1.3,60.13435217056142,
block,scrambled,scrambled050.bmp,,,,,0,205,205,205,,,,,,,,,,,,,,,,,,,,,,,,,,,,,,,,,,,,None,,368.6322739899973,None,368.6322739899973,None,2021-07-29-12:57:46.775526,368.64345299999695,368.9484399999492,368.64345299999695,368.64345299999695,None,368.64345299999695,368.64345299999695,369.44834688996195,None,,,,12003,0002,2021_Jul_29_1251,localizer,2021.1.3,60.13435217056142,
block,scrambled,scrambled085.bmp,,,,,0,206,206,206,,,,,,,,,,,,,,,,,,,,,,,,,,,,,,,,,,,,None,,369.44834688996195,None,369.44834688996195,None,2021-07-29-12:57:47.587595,369.4494347999571,369.7650210999418,369.4494347999571,None,None,369.4494347999571,None,370.2649837900302,None,,,,12003,0002,2021_Jul_29_1251,localizer,2021.1.3,60.13435217056142,
block,scrambled,scrambled048.bmp,,,,,0,207,207,207,,,,,,,,,,,,,,,,,,,,,,,,,,,,,,,,,,,,None,,370.2649837900302,None,370.2649837900302,None,2021-07-29-12:57:48.404234,370.2711282999953,370.5818358999677,370.2711282999953,None,None,370.2711282999953,None,371.08169058993224,None,,,,12003,0002,2021_Jul_29_1251,localizer,2021.1.3,60.13435217056142,
block,scrambled,scrambled064.bmp,,,,,0,208,208,208,,,,,,,,,,,,,,,,,,,,,,,,,,,,,,,,,,,,None,,371.08169058993224,None,371.08169058993224,None,2021-07-29-12:57:49.220936,371.082794399932,371.3820905999746,371.082794399932,None,None,371.082794399932,None,371.8819759899401,None,,,,12003,0002,2021_Jul_29_1251,localizer,2021.1.3,60.13435217056142,
block,scrambled,scrambled027.bmp,,,,,0,209,209,209,,,,,,,,,,,,,,,,,,,,,,,,,,,,,,,,,,,,None,,371.8819759899401,None,371.8819759899401,None,2021-07-29-12:57:50.024425,371.8851227000123,372.203893900034,371.8851227000123,371.8851227000123,None,371.8851227000123,371.8851227000123,372.6995744899963,None,,,,12003,0002,2021_Jul_29_1251,localizer,2021.1.3,60.13435217056142,
block,scrambled,scrambled036.bmp,,,,,0,210,210,210,,,,,,,,,,,,,,,,,,,,,,,,,,,,,,,,,,,,None,,372.6995744899963,None,372.6995744899963,None,2021-07-29-12:57:50.839978,372.7090394999832,373.02191320003476,372.7090394999832,None,None,372.7090394999832,None,373.51521319003075,None,,,,12003,0002,2021_Jul_29_1251,localizer,2021.1.3,60.13435217056142,
block,scrambled,scrambled088.bmp,,,,,0,211,211,211,,,,,,,,,,,,,,,,,,,,,,,,,,,,,,,,,,,,None,,373.51521319003075,None,373.51521319003075,None,2021-07-29-12:57:51.654459,373.51620519999415,373.8158347000135,373.51620519999415,None,None,373.51620519999415,None,374.3152781899902,None,,,,12003,0002,2021_Jul_29_1251,localizer,2021.1.3,60.13435217056142,
block_end,scrambled,scrambled053.bmp,,,,,0,212,212,212,,,,,,,,,,,,,,,,,,,,,,,,,,,,,,,,,,,,None,,374.3152781899902,None,374.3152781899902,None,2021-07-29-12:57:52.457732,374.3183538999874,374.63220819993876,374.3183538999874,374.3183538999874,None,374.3183538999874,374.3183538999874,375.13195339000083,None,,,,12003,0002,2021_Jul_29_1251,localizer,2021.1.3,60.13435217056142,
null_block,null_block,null_block.bmp,,,,,0,213,213,213,,,,,,,,,,,,,,,,,,,,,,,,,,,,,,,,,,,,t,1.8008709999267012,375.1320340000093,None,375.1320340000093,None,2021-07-29-12:57:55.088361,376.94914508998625,None,376.94914508998625,None,None,376.94914508998625,None,376.95351339993067,None,,,,12003,0002,2021_Jul_29_1251,localizer,2021.1.3,60.13435217056142,
block_start,scenes,scenes081.bmp,,,,,0,214,214,214,,,,,,,,,,,,,,,,,,,,,,,,,,,,,,,,,,,,t,1.967528500012122,388.96523229999,None,388.96523229999,None,2021-07-29-12:58:09.089687,390.95770769997034,391.2730530999834,390.95770769997034,None,None,390.95770769997034,None,391.7648588900105,None,,,,12003,0002,2021_Jul_29_1251,localizer,2021.1.3,60.13435217056142,
block,scenes,scenes081.bmp,,,,,0,215,215,215,,,,,,,,,,,,,,,,,,,,,,,,,,,,,,,,,,,,None,,391.7648588900105,None,391.7648588900105,None,2021-07-29-12:58:09.904116,391.7664458999643,392.0660476000048,391.7664458999643,None,y,391.7664458999643,None,392.5818127899314,None,0.48994750005658716,,,12003,0002,2021_Jul_29_1251,localizer,2021.1.3,60.13435217056142,
block,scenes,scenes054.bmp,,,,,0,216,216,216,,,,,,,,,,,,,,,,,,,,,,,,,,,,,,,,,,,,None,,392.5818127899314,None,392.5818127899314,None,2021-07-29-12:58:10.721064,392.5830151999835,392.8830672999611,392.5830151999835,None,None,392.5830151999835,None,393.39846789002183,None,,,,12003,0002,2021_Jul_29_1251,localizer,2021.1.3,60.13435217056142,
block,scenes,scenes065.bmp,,,,,0,217,217,217,,,,,,,,,,,,,,,,,,,,,,,,,,,,,,,,,,,,None,,393.39846789002183,None,393.39846789002183,None,2021-07-29-12:58:11.537933,393.40580750000663,393.7153854999924,393.40580750000663,None,None,393.40580750000663,None,394.2164404900162,None,,,,12003,0002,2021_Jul_29_1251,localizer,2021.1.3,60.13435217056142,
block,scenes,scenes008.bmp,,,,,0,218,218,218,,,,,,,,,,,,,,,,,,,,,,,,,,,,,,,,,,,,None,,394.2164404900162,None,394.2164404900162,None,2021-07-29-12:58:12.356815,394.2191950000124,394.53189149999525,394.2191950000124,None,None,394.2191950000124,None,395.03297889003295,None,,,,12003,0002,2021_Jul_29_1251,localizer,2021.1.3,60.13435217056142,
block,scenes,scenes058.bmp,,,,,0,219,219,219,,,,,,,,,,,,,,,,,,,,,,,,,,,,,,,,,,,,None,,395.03297889003295,None,395.03297889003295,None,2021-07-29-12:58:13.175299,395.03628210001625,395.34847550000995,395.03628210001625,None,None,395.03628210001625,None,395.84911238999337,None,,,,12003,0002,2021_Jul_29_1251,localizer,2021.1.3,60.13435217056142,
block,scenes,scenes031.bmp,,,,,0,220,220,220,,,,,,,,,,,,,,,,,,,,,,,,,,,,,,,,,,,,None,,395.84911238999337,None,395.84911238999337,None,2021-07-29-12:58:13.989356,395.85802249994595,396.1656079000095,395.85802249994595,None,None,395.85802249994595,None,396.66490369002565,None,,,,12003,0002,2021_Jul_29_1251,localizer,2021.1.3,60.13435217056142,
block,scenes,scenes060.bmp,,,,,0,221,221,221,,,,,,,,,,,,,,,,,,,,,,,,,,,,,,,,,,,,None,,396.66490369002565,None,396.66490369002565,None,2021-07-29-12:58:14.804157,396.6663317999337,396.9820980000077,396.6663317999337,None,None,396.6663317999337,None,397.481682190008,None,,,,12003,0002,2021_Jul_29_1251,localizer,2021.1.3,60.13435217056142,
block,scenes,scenes013.bmp,,,,,0,222,222,222,,,,,,,,,,,,,,,,,,,,,,,,,,,,,,,,,,,,None,,397.481682190008,None,397.481682190008,None,2021-07-29-12:58:15.620951,397.48311879998073,397.79854390001856,397.48311879998073,None,None,397.48311879998073,None,398.29929149003,None,,,,12003,0002,2021_Jul_29_1251,localizer,2021.1.3,60.13435217056142,
block,scenes,scenes043.bmp,,,,,0,223,223,223,,,,,,,,,,,,,,,,,,,,,,,,,,,,,,,,,,,,None,,398.29929149003,None,398.29929149003,None,2021-07-29-12:58:16.437594,398.3043000999605,398.61504820000846,398.3043000999605,None,None,398.3043000999605,None,399.11574929001506,None,,,,12003,0002,2021_Jul_29_1251,localizer,2021.1.3,60.13435217056142,
block,scenes,scenes078.bmp,,,,,0,224,224,224,,,,,,,,,,,,,,,,,,,,,,,,,,,,,,,,,,,,None,,399.11574929001506,None,399.11574929001506,None,2021-07-29-12:58:17.256279,399.11819169996306,399.4318687999621,399.11819169996306,None,None,399.11819169996306,None,399.9330407899455,None,,,,12003,0002,2021_Jul_29_1251,localizer,2021.1.3,60.13435217056142,
block,scenes,scenes009.bmp,,,,,0,225,225,225,,,,,,,,,,,,,,,,,,,,,,,,,,,,,,,,,,,,None,,399.9330407899455,None,399.9330407899455,None,2021-07-29-12:58:18.074820,399.9417952999938,400.2484633999411,399.9417952999938,None,None,399.9417952999938,None,400.7519101900165,None,,,,12003,0002,2021_Jul_29_1251,localizer,2021.1.3,60.13435217056142,
block,scenes,scenes077.bmp,,,,,0,226,226,226,,,,,,,,,,,,,,,,,,,,,,,,,,,,,,,,,,,,None,,400.7519101900165,None,400.7519101900165,None,2021-07-29-12:58:18.901031,400.76109869999345,401.0653829999501,400.76109869999345,None,None,400.76109869999345,None,401.56533418995093,None,,,,12003,0002,2021_Jul_29_1251,localizer,2021.1.3,60.13435217056142,
block,scenes,scenes086.bmp,,,,,0,227,227,227,,,,,,,,,,,,,,,,,,,,,,,,,,,,,,,,,,,,None,,401.56533418995093,None,401.56533418995093,None,2021-07-29-12:58:19.704558,401.57269960001577,401.88306199992076,401.57269960001577,None,None,401.57269960001577,None,402.3821340899798,None,,,,12003,0002,2021_Jul_29_1251,localizer,2021.1.3,60.13435217056142,
block_end,scenes,scenes027.bmp,,,,,0,228,228,228,,,,,,,,,,,,,,,,,,,,,,,,,,,,,,,,,,,,None,,402.3821340899798,None,402.3821340899798,None,2021-07-29-12:58:20.521365,402.383493399946,402.69864299998153,402.383493399946,None,None,402.383493399946,None,403.1827610900276,None,,,,12003,0002,2021_Jul_29_1251,localizer,2021.1.3,60.13435217056142,
block_start,objects,objects065.bmp,,,,,0,229,229,229,,,,,,,,,,,,,,,,,,,,,,,,,,,,,,,,,,,,t,1.7493308000266552,403.18341639998835,None,403.18341639998835,None,2021-07-29-12:58:23.094875,404.9605514999712,405.2649059999967,404.9605514999712,None,None,404.9605514999712,None,405.76503078992243,None,,,,12003,0002,2021_Jul_29_1251,localizer,2021.1.3,60.13435217056142,
block,objects,objects023.bmp,,,,,0,230,230,230,,,,,,,,,,,,,,,,,,,,,,,,,,,,,,,,,,,,None,,405.76503078992243,None,405.76503078992243,None,2021-07-29-12:58:23.904601,405.7662811999908,406.065581999952,405.7662811999908,None,None,405.7662811999908,None,406.56559078992575,None,,,,12003,0002,2021_Jul_29_1251,localizer,2021.1.3,60.13435217056142,
block,objects,objects025.bmp,,,,,0,231,231,231,,,,,,,,,,,,,,,,,,,,,,,,,,,,,,,,,,,,None,,406.56559078992575,None,406.56559078992575,None,2021-07-29-12:58:24.707728,406.5753750000149,406.88204239995684,406.5753750000149,406.5753750000149,None,406.5753750000149,406.5753750000149,407.38181619000386,None,,,,12003,0002,2021_Jul_29_1251,localizer,2021.1.3,60.13435217056142,
block,objects,objects087.bmp,,,,,0,232,232,232,,,,,,,,,,,,,,,,,,,,,,,,,,,,,,,,,,,,None,,407.38181619000386,None,407.38181619000386,None,2021-07-29-12:58:25.521154,407.3830601000227,407.69867559999693,407.3830601000227,None,None,407.3830601000227,None,408.18214909002415,None,,,,12003,0002,2021_Jul_29_1251,localizer,2021.1.3,60.13435217056142,
block,objects,objects078.bmp,,,,,0,233,233,233,,,,,,,,,,,,,,,,,,,,,,,,,,,,,,,,,,,,None,,408.18214909002415,None,408.18214909002415,None,2021-07-29-12:58:26.323589,408.18495549994987,408.4985317999963,408.18495549994987,408.18495549994987,None,408.18495549994987,408.18495549994987,408.99844998997867,None,,,,12003,0002,2021_Jul_29_1251,localizer,2021.1.3,60.13435217056142,
block,objects,objects041.bmp,,,,,0,234,234,234,,,,,,,,,,,,,,,,,,,,,,,,,,,,,,,,,,,,None,,408.99844998997867,None,408.99844998997867,None,2021-07-29-12:58:27.137921,409.00485639995895,409.3152923999587,409.00485639995895,None,None,409.00485639995895,None,409.8148638899787,None,,,,12003,0002,2021_Jul_29_1251,localizer,2021.1.3,60.13435217056142,
block,objects,objects024.bmp,,,,,0,235,235,235,,,,,,,,,,,,,,,,,,,,,,,,,,,,,,,,,,,,None,,409.8148638899787,None,409.8148638899787,None,2021-07-29-12:58:27.952706,409.81631299993023,410.1321218999801,409.81631299993023,None,None,409.81631299993023,None,410.6309668899397,None,,,,12003,0002,2021_Jul_29_1251,localizer,2021.1.3,60.13435217056142,
block,objects,objects016.bmp,,,,,0,236,236,236,,,,,,,,,,,,,,,,,,,,,,,,,,,,,,,,,,,,None,,410.6309668899397,None,410.6309668899397,None,2021-07-29-12:58:28.769357,410.6328543999698,410.9345734999515,410.6328543999698,None,None,410.6328543999698,None,411.4482696899562,None,,,,12003,0002,2021_Jul_29_1251,localizer,2021.1.3,60.13435217056142,
block,objects,objects035.bmp,,,,,0,237,237,237,,,,,,,,,,,,,,,,,,,,,,,,,,,,,,,,,,,,None,,411.4482696899562,None,411.4482696899562,None,2021-07-29-12:58:29.586256,411.44975729996804,411.7490041999845,411.44975729996804,None,None,411.44975729996804,None,412.25242458997525,None,,,,12003,0002,2021_Jul_29_1251,localizer,2021.1.3,60.13435217056142,
block,objects,objects059.bmp,,,,,0,238,238,238,,,,,,,,,,,,,,,,,,,,,,,,,,,,,,,,,,,,None,,412.25242458997525,None,412.25242458997525,None,2021-07-29-12:58:30.401633,412.2653368000174,412.5657273000106,412.2653368000174,None,None,412.2653368000174,None,413.0654090899392,None,,,,12003,0002,2021_Jul_29_1251,localizer,2021.1.3,60.13435217056142,
block,objects,objects011.bmp,,,,,0,239,239,239,,,,,,,,,,,,,,,,,,,,,,,,,,,,,,,,,,,,None,,413.0654090899392,None,413.0654090899392,None,2021-07-29-12:58:31.204710,413.0663583999267,413.3848819999257,413.0663583999267,None,None,413.0663583999267,None,413.8815764899249,None,,,,12003,0002,2021_Jul_29_1251,localizer,2021.1.3,60.13435217056142,
block,objects,objects052.bmp,,,,,0,240,240,240,,,,,,,,,,,,,,,,,,,,,,,,,,,,,,,,,,,,None,,413.8815764899249,None,413.8815764899249,None,2021-07-29-12:58:32.020839,413.8829044000013,414.18236799992155,413.8829044000013,None,None,413.8829044000013,None,414.6821150899981,None,,,,12003,0002,2021_Jul_29_1251,localizer,2021.1.3,60.13435217056142,
block,objects,objects079.bmp,,,,,0,241,241,241,,,,,,,,,,,,,,,,,,,,,,,,,,,,,,,,,,,,None,,414.6821150899981,None,414.6821150899981,None,2021-07-29-12:58:32.823591,414.685152299935,414.998610700015,414.685152299935,414.685152299935,None,414.685152299935,414.685152299935,415.4987737899995,None,,,,12003,0002,2021_Jul_29_1251,localizer,2021.1.3,60.13435217056142,
block,objects,objects068.bmp,,,,,0,242,242,242,,,,,,,,,,,,,,,,,,,,,,,,,,,,,,,,,,,,None,,415.4987737899995,None,415.4987737899995,None,2021-07-29-12:58:33.638030,415.49984359997325,415.8156776999822,415.49984359997325,None,None,415.49984359997325,None,416.2995526899234,None,,,,12003,0002,2021_Jul_29_1251,localizer,2021.1.3,60.13435217056142,
block_end,objects,objects051.bmp,,,,,0,243,243,243,,,,,,,,,,,,,,,,,,,,,,,,,,,,,,,,,,,,None,,416.2995526899234,None,416.2995526899234,None,2021-07-29-12:58:34.449719,416.3106501000002,416.6152604999952,416.3106501000002,416.3106501000002,None,416.3106501000002,416.3106501000002,417.11496999001827,None,,,,12003,0002,2021_Jul_29_1251,localizer,2021.1.3,60.13435217056142,
,,,,,,,,,,,,,,,,,,,,,,,,,,,,,,,,,,,,,,,,,,,,,,,,,,,,,,,,,,,,,,,417.11512560001574,None,,,,,,,
