block_type,condition,img_name,Button.thisRepN,Button.thisTrialN,Button.thisN,Button.thisIndex,trials.thisRepN,trials.thisTrialN,trials.thisN,trials.thisIndex,Ready_experimenter_text.started,Ready_experimenter_text.stopped,Ready_experimenter_resp.keys,Ready_experimenter_resp.rt,Ready_experimenter_resp.started,Ready_experimenter_resp.stopped,Alignment_background.started,Alignment_background.stopped,Alignment_image.started,Alignment_image.stopped,Alignment_resp.keys,Alignment_resp.rt,Alignment_resp.started,Alignment_resp.stopped,Button_text.started,Button_text.stopped,Index_text.started,Index_text.stopped,Index_resp.keys,Index_resp.rt,Index_resp.started,Index_resp.stopped,Middle_text.started,Middle_text.stopped,Middle_resp.keys,Middle_resp.rt,Middle_resp.started,Middle_resp.stopped,Repeat_text.started,Repeat_text.stopped,Repeat_resp.keys,Repeat_resp.corr,Repeat_resp.rt,Repeat_resp.started,Repeat_resp.stopped,instruction_text.started,instruction_text.stopped,key_resp.keys,key_resp.rt,key_resp.started,key_resp.stopped,scanner_t.keys,scanner_t.rt,scanner_t.started,scanner_t.stopped,fixation_wait_for_t.started,fixation_wait_for_t.stopped,real_timestamp_trial_start,image.started,image.stopped,fixation.started,fixation.stopped,repeat_response.keys,repeat_response.started,repeat_response.stopped,fixation_null.started,fixation_null.stopped,repeat_response.rt,end_text.started,end_text.stopped,participant,run,date,expName,psychopyVersion,frameRate,
,,,,,,,,,,,11.394332500000019,None,return,379.6509931000037,11.394332500000019,None,,,,,,,,,,,,,,,,,,,,,,,,,,,,,,,,,,,,,,,,,,,,,,,,,,,,,,,21015,0002,2022_Nov_23_1234,localizer,2021.1.3,61.441742781367196,
,,,,,,,,,,,,,,,,,391.09630319999997,None,391.09630319999997,None,return,0.4970805000048131,391.09630319999997,None,,,,,,,,,,,,,,,,,,,,,,,,,,,,,,,,,,,,,,,,,,,,,,,21015,0002,2022_Nov_23_1234,localizer,2021.1.3,61.441742781367196,
,,,0,0,0,0,,,,,,,,,,,,,,,,,,,391.61375709999993,None,392.61275999998907,None,y,4.648890900003607,392.61275999998907,None,397.28077009999834,None,b,1.112110300004133,397.28077009999834,None,398.4141760999919,None,n,0,1.6206030000030296,398.4141760999919,None,,,,,,,,,,,,,,,,,,,,,,,,,,21015,0002,2022_Nov_23_1234,localizer,2021.1.3,61.441742781367196,
,,,,,,,,,,,,,,,,,,,,,,,,,,,,,,,,,,,,,,,,,,,,,,400.06392739999865,None,y,80.84278809999523,400.06392739999865,None,,,,,,,,,,,,,,,,,,,,21015,0002,2022_Nov_23_1234,localizer,2021.1.3,61.441742781367196,
null_block,null_block,null_block.bmp,,,,,0,0,0,0,,,,,,,,,,,,,,,,,,,,,,,,,,,,,,,,,,,,,,,,,,t,17.322035699995467,480.9617126999947,None,480.9617126999947,None,2022-11-23-12:42:10.105412,498.3146791299907,None,498.3146791299907,None,None,498.3146791299907,None,498.32124019999173,None,,,,21015,0002,2022_Nov_23_1234,localizer,2021.1.3,61.441742781367196,
block_start,objects,objects071.bmp,,,,,0,1,1,1,,,,,,,,,,,,,,,,,,,,,,,,,,,,,,,,,,,,,,,,,,t,1.9532810000091558,510.33064889999514,None,510.33064889999514,None,2022-11-23-12:42:24.104733,512.3147622999968,512.6140978999902,512.3147622999968,None,None,512.3147622999968,None,513.1141974299928,None,,,,21015,0002,2022_Nov_23_1234,localizer,2021.1.3,61.441742781367196,
block,objects,objects061.bmp,,,,,0,2,2,2,,,,,,,,,,,,,,,,,,,,,,,,,,,,,,,,,,,,,,,,,,None,,513.1141974299928,None,513.1141974299928,None,2022-11-23-12:42:24.907117,513.1170693000022,513.4307649999973,513.1170693000022,513.1170693000022,None,513.1170693000022,513.1170693000022,513.9320266300012,None,,,,21015,0002,2022_Nov_23_1234,localizer,2021.1.3,61.441742781367196,
block,objects,objects076.bmp,,,,,0,3,3,3,,,,,,,,,,,,,,,,,,,,,,,,,,,,,,,,,,,,,,,,,,None,,513.9320266300012,None,513.9320266300012,None,2022-11-23-12:42:25.724576,513.9337800999929,514.247068800003,513.9337800999929,None,None,513.9337800999929,None,514.7486842299943,None,,,,21015,0002,2022_Nov_23_1234,localizer,2021.1.3,61.441742781367196,
block,objects,objects039.bmp,,,,,0,4,4,4,,,,,,,,,,,,,,,,,,,,,,,,,,,,,,,,,,,,,,,,,,None,,514.7486842299943,None,514.7486842299943,None,2022-11-23-12:42:26.540416,514.7618921999965,515.0646968999936,514.7618921999965,None,None,514.7618921999965,None,515.5643142299916,None,,,,21015,0002,2022_Nov_23_1234,localizer,2021.1.3,61.441742781367196,
block,objects,objects008.bmp,,,,,0,5,5,5,,,,,,,,,,,,,,,,,,,,,,,,,,,,,,,,,,,,,,,,,,None,,515.5643142299916,None,515.5643142299916,None,2022-11-23-12:42:27.355085,515.5750742999953,515.8806285000028,515.5750742999953,None,None,515.5750742999953,None,516.3808275299918,None,,,,21015,0002,2022_Nov_23_1234,localizer,2021.1.3,61.441742781367196,
block,objects,objects030.bmp,,,,,0,6,6,6,,,,,,,,,,,,,,,,,,,,,,,,,,,,,,,,,,,,,,,,,,None,,516.3808275299918,None,516.3808275299918,None,2022-11-23-12:42:28.171695,516.381403899999,516.6807445000013,516.381403899999,None,None,516.381403899999,None,517.1809004299969,None,,,,21015,0002,2022_Nov_23_1234,localizer,2021.1.3,61.441742781367196,
block,objects,objects054.bmp,,,,,0,7,7,7,,,,,,,,,,,,,,,,,,,,,,,,,,,,,,,,,,,,,,,,,,None,,517.1809004299969,None,517.1809004299969,None,2022-11-23-12:42:28.973608,517.1935134999949,517.4972962000029,517.1935134999949,517.1935134999949,None,517.1935134999949,517.1935134999949,517.9986894300048,None,,,,21015,0002,2022_Nov_23_1234,localizer,2021.1.3,61.441742781367196,
block,objects,objects011.bmp,,,,,0,8,8,8,,,,,,,,,,,,,,,,,,,,,,,,,,,,,,,,,,,,,,,,,,None,,517.9986894300048,None,517.9986894300048,None,2022-11-23-12:42:29.791411,518.0007301000005,518.3140228999982,518.0007301000005,None,None,518.0007301000005,None,518.8148619300002,None,,,,21015,0002,2022_Nov_23_1234,localizer,2021.1.3,61.441742781367196,
block,objects,objects075.bmp,,,,,0,9,9,9,,,,,,,,,,,,,,,,,,,,,,,,,,,,,,,,,,,,,,,,,,None,,518.8148619300002,None,518.8148619300002,None,2022-11-23-12:42:30.604448,518.818624099993,519.130673599997,518.818624099993,None,None,518.818624099993,None,519.6310642300043,None,,,,21015,0002,2022_Nov_23_1234,localizer,2021.1.3,61.441742781367196,
block,objects,objects050.bmp,,,,,0,10,10,10,,,,,,,,,,,,,,,,,,,,,,,,,,,,,,,,,,,,,,,,,,None,,519.6310642300043,None,519.6310642300043,None,2022-11-23-12:42:31.422841,519.6417963999993,519.9474178999953,519.6417963999993,None,None,519.6417963999993,None,520.448136229995,None,,,,21015,0002,2022_Nov_23_1234,localizer,2021.1.3,61.441742781367196,
block,objects,objects025.bmp,,,,,0,11,11,11,,,,,,,,,,,,,,,,,,,,,,,,,,,,,,,,,,,,,,,,,,None,,520.448136229995,None,520.448136229995,None,2022-11-23-12:42:32.239901,520.4501702999987,520.7647558000026,520.4501702999987,None,None,520.4501702999987,None,521.2654852299995,None,,,,21015,0002,2022_Nov_23_1234,localizer,2021.1.3,61.441742781367196,
block,objects,objects047.bmp,,,,,0,12,12,12,,,,,,,,,,,,,,,,,,,,,,,,,,,,,,,,,,,,,,,,,,None,,521.2654852299995,None,521.2654852299995,None,2022-11-23-12:42:33.058895,521.2683047000028,521.5819457000034,521.2683047000028,None,None,521.2683047000028,None,522.0820370300019,None,,,,21015,0002,2022_Nov_23_1234,localizer,2021.1.3,61.441742781367196,
block,objects,objects079.bmp,,,,,0,13,13,13,,,,,,,,,,,,,,,,,,,,,,,,,,,,,,,,,,,,,,,,,,None,,522.0820370300019,None,522.0820370300019,None,2022-11-23-12:42:33.874774,522.095304100003,522.3973828000017,522.095304100003,None,None,522.095304100003,None,522.8975566300026,None,,,,21015,0002,2022_Nov_23_1234,localizer,2021.1.3,61.441742781367196,
block,objects,objects023.bmp,,,,,0,14,14,14,,,,,,,,,,,,,,,,,,,,,,,,,,,,,,,,,,,,,,,,,,None,,522.8975566300026,None,522.8975566300026,None,2022-11-23-12:42:34.688138,522.8984067999991,523.2139210000023,522.8984067999991,None,None,522.8984067999991,None,523.6978609299942,None,,,,21015,0002,2022_Nov_23_1234,localizer,2021.1.3,61.441742781367196,
block_end,objects,objects005.bmp,,,,,0,15,15,15,,,,,,,,,,,,,,,,,,,,,,,,,,,,,,,,,,,,,,,,,,None,,523.6978609299942,None,523.6978609299942,None,2022-11-23-12:42:35.490622,523.6998916000011,524.0142695999966,523.6998916000011,523.6998916000011,None,523.6998916000011,523.6998916000011,524.5147363300014,None,,,,21015,0002,2022_Nov_23_1234,localizer,2021.1.3,61.441742781367196,
block_start,faces,faces032.bmp,,,,,0,16,16,16,,,,,,,,,,,,,,,,,,,,,,,,,,,,,,,,,,,,,,,,,,t,1.7686392000032356,524.5142455000023,None,524.5142455000023,None,2022-11-23-12:42:38.104544,526.3252872000012,526.6307602000015,526.3252872000012,None,None,526.3252872000012,None,527.1315202299986,None,,,,21015,0002,2022_Nov_23_1234,localizer,2021.1.3,61.441742781367196,
block,faces,faces054.bmp,,,,,0,17,17,17,,,,,,,,,,,,,,,,,,,,,,,,,,,,,,,,,,,,,,,,,,None,,527.1315202299986,None,527.1315202299986,None,2022-11-23-12:42:38.923301,527.1430213999993,527.4474599999958,527.1430213999993,None,None,527.1430213999993,None,527.9496577299972,None,,,,21015,0002,2022_Nov_23_1234,localizer,2021.1.3,61.441742781367196,
block,faces,faces037.bmp,,,,,0,18,18,18,,,,,,,,,,,,,,,,,,,,,,,,,,,,,,,,,,,,,,,,,,None,,527.9496577299972,None,527.9496577299972,None,2022-11-23-12:42:39.744419,527.9631989999907,528.2639202999999,527.9631989999907,None,None,527.9631989999907,None,528.764665830003,None,,,,21015,0002,2022_Nov_23_1234,localizer,2021.1.3,61.441742781367196,
block,faces,faces044.bmp,,,,,0,19,19,19,,,,,,,,,,,,,,,,,,,,,,,,,,,,,,,,,,,,,,,,,,None,,528.764665830003,None,528.764665830003,None,2022-11-23-12:42:40.555421,528.7653655000031,529.0640712000022,528.7653655000031,None,None,528.7653655000031,None,529.5646087299931,None,,,,21015,0002,2022_Nov_23_1234,localizer,2021.1.3,61.441742781367196,
block,faces,faces023.bmp,,,,,0,20,20,20,,,,,,,,,,,,,,,,,,,,,,,,,,,,,,,,,,,,,,,,,,None,,529.5646087299931,None,529.5646087299931,None,2022-11-23-12:42:41.358341,529.5780288999958,529.8810707999946,529.5780288999958,529.5780288999958,None,529.5780288999958,529.5780288999958,530.381412729995,None,,,,21015,0002,2022_Nov_23_1234,localizer,2021.1.3,61.441742781367196,
block,faces,faces059.bmp,,,,,0,21,21,21,,,,,,,,,,,,,,,,,,,,,,,,,,,,,,,,,,,,,,,,,,None,,530.381412729995,None,530.381412729995,None,2022-11-23-12:42:42.172201,530.3818885999935,530.6810574999981,530.3818885999935,None,None,530.3818885999935,None,531.1813155299999,None,,,,21015,0002,2022_Nov_23_1234,localizer,2021.1.3,61.441742781367196,
block,faces,faces042.bmp,,,,,0,22,22,22,,,,,,,,,,,,,,,,,,,,,,,,,,,,,,,,,,,,,,,,,,None,,531.1813155299999,None,531.1813155299999,None,2022-11-23-12:42:42.972372,531.1820771999919,531.4809644999914,531.1820771999919,531.1820771999919,None,531.1820771999919,531.1820771999919,531.9814658299977,None,,,,21015,0002,2022_Nov_23_1234,localizer,2021.1.3,61.441742781367196,
block,faces,faces075.bmp,,,,,0,23,23,23,,,,,,,,,,,,,,,,,,,,,,,,,,,,,,,,,,,,,,,,,,None,,531.9814658299977,None,531.9814658299977,None,2022-11-23-12:42:43.775045,531.9839374000003,532.2976265999896,531.9839374000003,531.9839374000003,None,531.9839374000003,531.9839374000003,532.7980499299986,None,,,,21015,0002,2022_Nov_23_1234,localizer,2021.1.3,61.441742781367196,
block,faces,faces065.bmp,,,,,0,24,24,24,,,,,,,,,,,,,,,,,,,,,,,,,,,,,,,,,,,,,,,,,,None,,532.7980499299986,None,532.7980499299986,None,2022-11-23-12:42:44.587490,532.7983538999979,533.0978052999999,532.7983538999979,None,None,532.7983538999979,None,533.5979611299947,None,,,,21015,0002,2022_Nov_23_1234,localizer,2021.1.3,61.441742781367196,
block,faces,faces012.bmp,,,,,0,25,25,25,,,,,,,,,,,,,,,,,,,,,,,,,,,,,,,,,,,,,,,,,,None,,533.5979611299947,None,533.5979611299947,None,2022-11-23-12:42:45.391545,533.600540200001,533.9145614000008,533.600540200001,533.600540200001,None,533.600540200001,533.600540200001,534.4142504299919,None,,,,21015,0002,2022_Nov_23_1234,localizer,2021.1.3,61.441742781367196,
block,faces,faces050.bmp,,,,,0,26,26,26,,,,,,,,,,,,,,,,,,,,,,,,,,,,,,,,,,,,,,,,,,None,,534.4142504299919,None,534.4142504299919,None,2022-11-23-12:42:46.205289,534.4252283999958,534.7309271999984,534.4252283999958,None,None,534.4252283999958,None,535.2316094299997,None,,,,21015,0002,2022_Nov_23_1234,localizer,2021.1.3,61.441742781367196,
block,faces,faces024.bmp,,,,,0,27,27,27,,,,,,,,,,,,,,,,,,,,,,,,,,,,,,,,,,,,,,,,,,None,,535.2316094299997,None,535.2316094299997,None,2022-11-23-12:42:47.023152,535.2323117999913,535.5478061999893,535.2323117999913,None,None,535.2323117999913,None,536.0314771299993,None,,,,21015,0002,2022_Nov_23_1234,localizer,2021.1.3,61.441742781367196,
block,faces,faces052.bmp,,,,,0,28,28,28,,,,,,,,,,,,,,,,,,,,,,,,,,,,,,,,,,,,,,,,,,None,,536.0314771299993,None,536.0314771299993,None,2022-11-23-12:42:47.826058,536.035235599993,536.3473416999914,536.035235599993,536.035235599993,None,536.035235599993,536.035235599993,536.8475136299924,None,,,,21015,0002,2022_Nov_23_1234,localizer,2021.1.3,61.441742781367196,
block,faces,faces014.bmp,,,,,0,29,29,29,,,,,,,,,,,,,,,,,,,,,,,,,,,,,,,,,,,,,,,,,,None,,536.8475136299924,None,536.8475136299924,None,2022-11-23-12:42:48.638120,536.8569087999931,537.1642760999966,536.8569087999931,None,None,536.8569087999931,None,537.666396130003,None,,,,21015,0002,2022_Nov_23_1234,localizer,2021.1.3,61.441742781367196,
block_end,faces,faces088.bmp,,,,,0,30,30,30,,,,,,,,,,,,,,,,,,,,,,,,,,,,,,,,,,,,,,,,,,None,,537.666396130003,None,537.666396130003,None,2022-11-23-12:42:49.460135,537.6707892999984,537.9813522999902,537.6707892999984,None,None,537.6707892999984,None,538.4813481300037,None,,,,21015,0002,2022_Nov_23_1234,localizer,2021.1.3,61.441742781367196,
block_start,scrambled,scrambled052.bmp,,,,,0,31,31,31,,,,,,,,,,,,,,,,,,,,,,,,,,,,,,,,,,,,,,,,,,t,1.8015995000023395,538.4812352000008,None,538.4812352000008,None,2022-11-23-12:42:52.103944,540.315226199993,540.614227099999,540.315226199993,None,None,540.315226199993,None,541.1149592300019,None,,,,21015,0002,2022_Nov_23_1234,localizer,2021.1.3,61.441742781367196,
block,scrambled,scrambled026.bmp,,,,,0,32,32,32,,,,,,,,,,,,,,,,,,,,,,,,,,,,,,,,,,,,,,,,,,None,,541.1149592300019,None,541.1149592300019,None,2022-11-23-12:42:52.908547,541.1293679999944,541.4310274000018,541.1293679999944,541.1293679999944,None,541.1293679999944,541.1293679999944,541.9310336299925,None,,,,21015,0002,2022_Nov_23_1234,localizer,2021.1.3,61.441742781367196,
block,scrambled,scrambled036.bmp,,,,,0,33,33,33,,,,,,,,,,,,,,,,,,,,,,,,,,,,,,,,,,,,,,,,,,None,,541.9310336299925,None,541.9310336299925,None,2022-11-23-12:42:53.722180,541.9359347999998,542.2479270999902,541.9359347999998,None,None,541.9359347999998,None,542.7482531300004,None,,,,21015,0002,2022_Nov_23_1234,localizer,2021.1.3,61.441742781367196,
block,scrambled,scrambled017.bmp,,,,,0,34,34,34,,,,,,,,,,,,,,,,,,,,,,,,,,,,,,,,,,,,,,,,,,None,,542.7482531300004,None,542.7482531300004,None,2022-11-23-12:42:54.540056,542.7598120999901,543.0642856999912,542.7598120999901,None,None,542.7598120999901,None,543.5648257300011,None,,,,21015,0002,2022_Nov_23_1234,localizer,2021.1.3,61.441742781367196,
block,scrambled,scrambled062.bmp,,,,,0,35,35,35,,,,,,,,,,,,,,,,,,,,,,,,,,,,,,,,,,,,,,,,,,None,,543.5648257300011,None,543.5648257300011,None,2022-11-23-12:42:55.355426,543.5652522000019,543.8645939999988,543.5652522000019,None,None,543.5652522000019,None,544.3646256299937,None,,,,21015,0002,2022_Nov_23_1234,localizer,2021.1.3,61.441742781367196,
block,scrambled,scrambled030.bmp,,,,,0,36,36,36,,,,,,,,,,,,,,,,,,,,,,,,,,,,,,,,,,,,,,,,,,None,,544.3646256299937,None,544.3646256299937,None,2022-11-23-12:42:56.158223,544.3673964999907,544.6812840999919,544.3673964999907,544.3673964999907,None,544.3673964999907,544.3673964999907,545.1813935299972,None,,,,21015,0002,2022_Nov_23_1234,localizer,2021.1.3,61.441742781367196,
block,scrambled,scrambled059.bmp,,,,,0,37,37,37,,,,,,,,,,,,,,,,,,,,,,,,,,,,,,,,,,,,,,,,,,None,,545.1813935299972,None,545.1813935299972,None,2022-11-23-12:42:56.973186,545.1818649999914,545.4812256000005,545.1818649999914,None,None,545.1818649999914,None,545.9822422300015,None,,,,21015,0002,2022_Nov_23_1234,localizer,2021.1.3,61.441742781367196,
block,scrambled,scrambled044.bmp,,,,,0,38,38,38,,,,,,,,,,,,,,,,,,,,,,,,,,,,,,,,,,,,,,,,,,None,,545.9822422300015,None,545.9822422300015,None,2022-11-23-12:42:57.778047,545.9962012000033,546.297578999991,545.9962012000033,545.9962012000033,None,545.9962012000033,545.9962012000033,546.7980892299922,None,,,,21015,0002,2022_Nov_23_1234,localizer,2021.1.3,61.441742781367196,
block,scrambled,scrambled071.bmp,,,,,0,39,39,39,,,,,,,,,,,,,,,,,,,,,,,,,,,,,,,,,,,,,,,,,,None,,546.7980892299922,None,546.7980892299922,None,2022-11-23-12:42:58.588525,546.7988173999911,547.1141409999982,546.7988173999911,None,None,546.7988173999911,None,547.6145239299906,None,,,,21015,0002,2022_Nov_23_1234,localizer,2021.1.3,61.441742781367196,
block,scrambled,scrambled068.bmp,,,,,0,40,40,40,,,,,,,,,,,,,,,,,,,,,,,,,,,,,,,,,,,,,,,,,,None,,547.6145239299906,None,547.6145239299906,None,2022-11-23-12:42:59.405136,547.6151922999998,547.9144478999951,547.6151922999998,None,None,547.6151922999998,None,548.4150883299983,None,,,,21015,0002,2022_Nov_23_1234,localizer,2021.1.3,61.441742781367196,
block,scrambled,scrambled070.bmp,,,,,0,41,41,41,,,,,,,,,,,,,,,,,,,,,,,,,,,,,,,,,,,,,,,,,,None,,548.4150883299983,None,548.4150883299983,None,2022-11-23-12:43:00.208685,548.4179173000011,548.7315634999977,548.4179173000011,548.4179173000011,None,548.4179173000011,548.4179173000011,549.2311525299986,None,,,,21015,0002,2022_Nov_23_1234,localizer,2021.1.3,61.441742781367196,
block,scrambled,scrambled055.bmp,,,,,0,42,42,42,,,,,,,,,,,,,,,,,,,,,,,,,,,,,,,,,,,,,,,,,,None,,549.2311525299986,None,549.2311525299986,None,2022-11-23-12:43:01.021933,549.2419102999993,549.547576099998,549.2419102999993,None,None,549.2419102999993,None,550.0476611299921,None,,,,21015,0002,2022_Nov_23_1234,localizer,2021.1.3,61.441742781367196,
block,scrambled,scrambled013.bmp,,,,,0,43,43,43,,,,,,,,,,,,,,,,,,,,,,,,,,,,,,,,,,,,,,,,,,None,,550.0476611299921,None,550.0476611299921,None,2022-11-23-12:43:01.838283,550.0488805999921,550.348213099991,550.0488805999921,None,None,550.0488805999921,None,550.8642941300016,None,,,,21015,0002,2022_Nov_23_1234,localizer,2021.1.3,61.441742781367196,
block,scrambled,scrambled049.bmp,,,,,0,44,44,44,,,,,,,,,,,,,,,,,,,,,,,,,,,,,,,,,,,,,,,,,,None,,550.8642941300016,None,550.8642941300016,None,2022-11-23-12:43:02.655189,550.8736436999898,551.1814496000006,550.8736436999898,None,None,550.8736436999898,None,551.681703229998,None,,,,21015,0002,2022_Nov_23_1234,localizer,2021.1.3,61.441742781367196,
block_end,scrambled,scrambled054.bmp,,,,,0,45,45,45,,,,,,,,,,,,,,,,,,,,,,,,,,,,,,,,,,,,,,,,,,None,,551.681703229998,None,551.681703229998,None,2022-11-23-12:43:03.473308,551.6895791999996,551.9975740999944,551.6895791999996,None,None,551.6895791999996,None,552.4980598299983,None,,,,21015,0002,2022_Nov_23_1234,localizer,2021.1.3,61.441742781367196,
block_start,scenes,scenes054.bmp,,,,,0,46,46,46,,,,,,,,,,,,,,,,,,,,,,,,,,,,,,,,,,,,,,,,,,t,1.7848443999973824,552.4977536999941,None,552.4977536999941,None,2022-11-23-12:43:06.103954,554.3153497000021,554.6309134999901,554.3153497000021,None,None,554.3153497000021,None,555.1311967299946,None,,,,21015,0002,2022_Nov_23_1234,localizer,2021.1.3,61.441742781367196,
block,scenes,scenes083.bmp,,,,,0,47,47,47,,,,,,,,,,,,,,,,,,,,,,,,,,,,,,,,,,,,,,,,,,None,,555.1311967299946,None,555.1311967299946,None,2022-11-23-12:43:06.921816,555.1320145999925,555.431124499999,555.1320145999925,None,None,555.1320145999925,None,555.9312615299962,None,,,,21015,0002,2022_Nov_23_1234,localizer,2021.1.3,61.441742781367196,
block,scenes,scenes047.bmp,,,,,0,48,48,48,,,,,,,,,,,,,,,,,,,,,,,,,,,,,,,,,,,,,,,,,,None,,555.9312615299962,None,555.9312615299962,None,2022-11-23-12:43:07.723864,555.9420392000029,556.2476031999977,555.9420392000029,555.9420392000029,None,555.9420392000029,555.9420392000029,556.749385429993,None,,,,21015,0002,2022_Nov_23_1234,localizer,2021.1.3,61.441742781367196,
block,scenes,scenes047.bmp,,,,,0,49,49,49,,,,,,,,,,,,,,,,,,,,,,,,,,,,,,,,,,,,,,,,,,None,,556.749385429993,None,556.749385429993,None,2022-11-23-12:43:08.544083,556.754723799997,557.065308899997,556.754723799997,None,y,556.754723799997,None,557.5649007300046,None,0.6690229000087129,,,21015,0002,2022_Nov_23_1234,localizer,2021.1.3,61.441742781367196,
block,scenes,scenes043.bmp,,,,,0,50,50,50,,,,,,,,,,,,,,,,,,,,,,,,,,,,,,,,,,,,,,,,,,None,,557.5649007300046,None,557.5649007300046,None,2022-11-23-12:43:09.356724,557.5654905999982,557.8645692999999,557.5654905999982,None,None,557.5654905999982,None,558.3650390299983,None,,,,21015,0002,2022_Nov_23_1234,localizer,2021.1.3,61.441742781367196,
block,scenes,scenes005.bmp,,,,,0,51,51,51,,,,,,,,,,,,,,,,,,,,,,,,,,,,,,,,,,,,,,,,,,None,,558.3650390299983,None,558.3650390299983,None,2022-11-23-12:43:10.158719,558.3676212999999,558.6812295999989,558.3676212999999,558.3676212999999,None,558.3676212999999,558.3676212999999,559.181370829999,None,,,,21015,0002,2022_Nov_23_1234,localizer,2021.1.3,61.441742781367196,
block,scenes,scenes002.bmp,,,,,0,52,52,52,,,,,,,,,,,,,,,,,,,,,,,,,,,,,,,,,,,,,,,,,,None,,559.181370829999,None,559.181370829999,None,2022-11-23-12:43:10.972210,559.1819680999906,559.4811224000005,559.1819680999906,None,None,559.1819680999906,None,559.9817680299996,None,,,,21015,0002,2022_Nov_23_1234,localizer,2021.1.3,61.441742781367196,
block,scenes,scenes003.bmp,,,,,0,53,53,53,,,,,,,,,,,,,,,,,,,,,,,,,,,,,,,,,,,,,,,,,,None,,559.9817680299996,None,559.9817680299996,None,2022-11-23-12:43:11.776573,559.9858520999987,560.297608199995,559.9858520999987,559.9858520999987,None,559.9858520999987,559.9858520999987,560.797877329994,None,,,,21015,0002,2022_Nov_23_1234,localizer,2021.1.3,61.441742781367196,
block,scenes,scenes042.bmp,,,,,0,54,54,54,,,,,,,,,,,,,,,,,,,,,,,,,,,,,,,,,,,,,,,,,,None,,560.797877329994,None,560.797877329994,None,2022-11-23-12:43:12.588501,560.798744899992,561.1142488999903,560.798744899992,None,None,560.798744899992,None,561.5981967299988,None,,,,21015,0002,2022_Nov_23_1234,localizer,2021.1.3,61.441742781367196,
block,scenes,scenes067.bmp,,,,,0,55,55,55,,,,,,,,,,,,,,,,,,,,,,,,,,,,,,,,,,,,,,,,,,None,,561.5981967299988,None,561.5981967299988,None,2022-11-23-12:43:13.392015,561.6123799999914,561.9147858999931,561.6123799999914,561.6123799999914,None,561.6123799999914,561.6123799999914,562.415417129999,None,,,,21015,0002,2022_Nov_23_1234,localizer,2021.1.3,61.441742781367196,
block,scenes,scenes009.bmp,,,,,0,56,56,56,,,,,,,,,,,,,,,,,,,,,,,,,,,,,,,,,,,,,,,,,,None,,562.415417129999,None,562.415417129999,None,2022-11-23-12:43:14.208230,562.4178002999979,562.7318802999944,562.4178002999979,None,None,562.4178002999979,None,563.2318147299914,None,,,,21015,0002,2022_Nov_23_1234,localizer,2021.1.3,61.441742781367196,
block,scenes,scenes080.bmp,,,,,0,57,57,57,,,,,,,,,,,,,,,,,,,,,,,,,,,,,,,,,,,,,,,,,,None,,563.2318147299914,None,563.2318147299914,None,2022-11-23-12:43:15.023612,563.2340113999962,563.5479082999955,563.2340113999962,None,None,563.2340113999962,None,564.0479547300013,None,,,,21015,0002,2022_Nov_23_1234,localizer,2021.1.3,61.441742781367196,
block,scenes,scenes034.bmp,,,,,0,58,58,58,,,,,,,,,,,,,,,,,,,,,,,,,,,,,,,,,,,,,,,,,,None,,564.0479547300013,None,564.0479547300013,None,2022-11-23-12:43:15.838975,564.0586646000011,564.3644161999982,564.0586646000011,None,None,564.0586646000011,None,564.8532741299962,None,,,,21015,0002,2022_Nov_23_1234,localizer,2021.1.3,61.441742781367196,
block,scenes,scenes088.bmp,,,,,0,59,59,59,,,,,,,,,,,,,,,,,,,,,,,,,,,,,,,,,,,,,,,,,,None,,564.8532741299962,None,564.8532741299962,None,2022-11-23-12:43:16.647852,564.856832599995,565.1644528000033,564.856832599995,None,None,564.856832599995,None,565.6648963299915,None,,,,21015,0002,2022_Nov_23_1234,localizer,2021.1.3,61.441742781367196,
block_end,scenes,scenes060.bmp,,,,,0,60,60,60,,,,,,,,,,,,,,,,,,,,,,,,,,,,,,,,,,,,,,,,,,None,,565.6648963299915,None,565.6648963299915,None,2022-11-23-12:43:17.456713,565.6657732000021,565.9812355000031,565.6657732000021,None,None,565.6657732000021,None,566.4648531300002,None,,,,21015,0002,2022_Nov_23_1234,localizer,2021.1.3,61.441742781367196,
null_block,null_block,null_block.bmp,,,,,0,61,61,61,,,,,,,,,,,,,,,,,,,,,,,,,,,,,,,,,,,,,,,,,,t,1.818171999999322,566.4646951999894,None,566.4646951999894,None,2022-11-23-12:43:20.106450,568.3148178299991,None,568.3148178299991,None,None,568.3148178299991,None,568.3191725999932,None,,,,21015,0002,2022_Nov_23_1234,localizer,2021.1.3,61.441742781367196,
block_start,scrambled,scrambled081.bmp,,,,,0,62,62,62,,,,,,,,,,,,,,,,,,,,,,,,,,,,,,,,,,,,,,,,,,t,1.9514391999982763,580.3313875000022,None,580.3313875000022,None,2022-11-23-12:43:34.118575,582.3389518999902,582.6480486999935,582.3389518999902,None,None,582.3389518999902,None,583.1314329300033,None,,,,21015,0002,2022_Nov_23_1234,localizer,2021.1.3,61.441742781367196,
block,scrambled,scrambled029.bmp,,,,,0,63,63,63,,,,,,,,,,,,,,,,,,,,,,,,,,,,,,,,,,,,,,,,,,None,,583.1314329300033,None,583.1314329300033,None,2022-11-23-12:43:34.922089,583.1423039999936,583.4481917999947,583.1423039999936,None,None,583.1423039999936,None,583.9480841299912,None,,,,21015,0002,2022_Nov_23_1234,localizer,2021.1.3,61.441742781367196,
block,scrambled,scrambled082.bmp,,,,,0,64,64,64,,,,,,,,,,,,,,,,,,,,,,,,,,,,,,,,,,,,,,,,,,None,,583.9480841299912,None,583.9480841299912,None,2022-11-23-12:43:35.739733,583.959858599992,584.2647662999952,583.959858599992,None,None,583.959858599992,None,584.7649357299917,None,,,,21015,0002,2022_Nov_23_1234,localizer,2021.1.3,61.441742781367196,
block,scrambled,scrambled085.bmp,,,,,0,65,65,65,,,,,,,,,,,,,,,,,,,,,,,,,,,,,,,,,,,,,,,,,,None,,584.7649357299917,None,584.7649357299917,None,2022-11-23-12:43:36.556586,584.7653118000017,585.064320599995,584.7653118000017,None,None,584.7653118000017,None,585.565030929992,None,,,,21015,0002,2022_Nov_23_1234,localizer,2021.1.3,61.441742781367196,
block,scrambled,scrambled041.bmp,,,,,0,66,66,66,,,,,,,,,,,,,,,,,,,,,,,,,,,,,,,,,,,,,,,,,,None,,585.565030929992,None,585.565030929992,None,2022-11-23-12:43:37.358890,585.5676643999905,585.8813749999972,585.5676643999905,585.5676643999905,None,585.5676643999905,585.5676643999905,586.3816405299979,None,,,,21015,0002,2022_Nov_23_1234,localizer,2021.1.3,61.441742781367196,
block,scrambled,scrambled034.bmp,,,,,0,67,67,67,,,,,,,,,,,,,,,,,,,,,,,,,,,,,,,,,,,,,,,,,,None,,586.3816405299979,None,586.3816405299979,None,2022-11-23-12:43:38.173463,586.3821934000007,586.6813795999915,586.3821934000007,None,None,586.3821934000007,None,587.1820105299951,None,,,,21015,0002,2022_Nov_23_1234,localizer,2021.1.3,61.441742781367196,
block,scrambled,scrambled037.bmp,,,,,0,68,68,68,,,,,,,,,,,,,,,,,,,,,,,,,,,,,,,,,,,,,,,,,,None,,587.1820105299951,None,587.1820105299951,None,2022-11-23-12:43:38.975844,587.1851005999924,587.498599899991,587.1851005999924,587.1851005999924,None,587.1851005999924,587.1851005999924,587.9987133299976,None,,,,21015,0002,2022_Nov_23_1234,localizer,2021.1.3,61.441742781367196,
block,scrambled,scrambled052.bmp,,,,,0,69,69,69,,,,,,,,,,,,,,,,,,,,,,,,,,,,,,,,,,,,,,,,,,None,,587.9987133299976,None,587.9987133299976,None,2022-11-23-12:43:39.790362,588.0004698999983,588.3150107999973,588.0004698999983,None,None,588.0004698999983,None,588.8183151299993,None,,,,21015,0002,2022_Nov_23_1234,localizer,2021.1.3,61.441742781367196,
block,scrambled,scrambled053.bmp,,,,,0,70,70,70,,,,,,,,,,,,,,,,,,,,,,,,,,,,,,,,,,,,,,,,,,None,,588.8183151299993,None,588.8183151299993,None,2022-11-23-12:43:40.619033,588.8418732999999,589.1483519999892,588.8418732999999,None,None,588.8418732999999,None,589.6317913299965,None,,,,21015,0002,2022_Nov_23_1234,localizer,2021.1.3,61.441742781367196,
block,scrambled,scrambled076.bmp,,,,,0,71,71,71,,,,,,,,,,,,,,,,,,,,,,,,,,,,,,,,,,,,,,,,,,None,,589.6317913299965,None,589.6317913299965,None,2022-11-23-12:43:41.423444,589.6324240999966,589.9316277999897,589.6324240999966,None,None,589.6324240999966,None,590.4327256299978,None,,,,21015,0002,2022_Nov_23_1234,localizer,2021.1.3,61.441742781367196,
block,scrambled,scrambled028.bmp,,,,,0,72,72,72,,,,,,,,,,,,,,,,,,,,,,,,,,,,,,,,,,,,,,,,,,None,,590.4327256299978,None,590.4327256299978,None,2022-11-23-12:43:42.227431,590.4380560999998,590.749462199994,590.4380560999998,590.4380560999998,None,590.4380560999998,590.4380560999998,591.2494289300041,None,,,,21015,0002,2022_Nov_23_1234,localizer,2021.1.3,61.441742781367196,
block,scrambled,scrambled030.bmp,,,,,0,73,73,73,,,,,,,,,,,,,,,,,,,,,,,,,,,,,,,,,,,,,,,,,,None,,591.2494289300041,None,591.2494289300041,None,2022-11-23-12:43:43.043066,591.2522429999954,591.5652277999907,591.2522429999954,None,None,591.2522429999954,None,592.0651971299915,None,,,,21015,0002,2022_Nov_23_1234,localizer,2021.1.3,61.441742781367196,
block,scrambled,scrambled056.bmp,,,,,0,74,74,74,,,,,,,,,,,,,,,,,,,,,,,,,,,,,,,,,,,,,,,,,,None,,592.0651971299915,None,592.0651971299915,None,2022-11-23-12:43:43.856853,592.0654476999916,592.3649099999893,592.0654476999916,None,None,592.0654476999916,None,592.8669781299934,None,,,,21015,0002,2022_Nov_23_1234,localizer,2021.1.3,61.441742781367196,
block,scrambled,scrambled065.bmp,,,,,0,75,75,75,,,,,,,,,,,,,,,,,,,,,,,,,,,,,,,,,,,,,,,,,,None,,592.8669781299934,None,592.8669781299934,None,2022-11-23-12:43:44.661815,592.871153,593.1811025999923,592.871153,592.871153,None,592.871153,592.871153,593.6816523300033,None,,,,21015,0002,2022_Nov_23_1234,localizer,2021.1.3,61.441742781367196,
block_end,scrambled,scrambled014.bmp,,,,,0,76,76,76,,,,,,,,,,,,,,,,,,,,,,,,,,,,,,,,,,,,,,,,,,None,,593.6816523300033,None,593.6816523300033,None,2022-11-23-12:43:45.472314,593.682209599996,593.9812508999894,593.682209599996,None,None,593.682209599996,None,594.4978341299968,None,,,,21015,0002,2022_Nov_23_1234,localizer,2021.1.3,61.441742781367196,
block_start,faces,faces078.bmp,,,,,0,77,77,77,,,,,,,,,,,,,,,,,,,,,,,,,,,,,,,,,,,,,,,,,,t,1.7848709000099916,594.497816099989,None,594.497816099989,None,2022-11-23-12:43:48.089383,596.3081473999919,596.6154078999971,596.3081473999919,None,None,596.3081473999919,None,597.1150170299909,None,,,,21015,0002,2022_Nov_23_1234,localizer,2021.1.3,61.441742781367196,
block,faces,faces070.bmp,,,,,0,78,78,78,,,,,,,,,,,,,,,,,,,,,,,,,,,,,,,,,,,,,,,,,,None,,597.1150170299909,None,597.1150170299909,None,2022-11-23-12:43:48.905682,597.1267376000033,597.4317270999891,597.1267376000033,None,None,597.1267376000033,None,597.9320512299994,None,,,,21015,0002,2022_Nov_23_1234,localizer,2021.1.3,61.441742781367196,
block,faces,faces057.bmp,,,,,0,79,79,79,,,,,,,,,,,,,,,,,,,,,,,,,,,,,,,,,,,,,,,,,,None,,597.9320512299994,None,597.9320512299994,None,2022-11-23-12:43:49.723912,597.9342524999956,598.2479562999943,597.9342524999956,None,None,597.9342524999956,None,598.7487431299917,None,,,,21015,0002,2022_Nov_23_1234,localizer,2021.1.3,61.441742781367196,
block,faces,faces002.bmp,,,,,0,80,80,80,,,,,,,,,,,,,,,,,,,,,,,,,,,,,,,,,,,,,,,,,,None,,598.7487431299917,None,598.7487431299917,None,2022-11-23-12:43:50.540403,598.7612866999989,599.0709270999942,598.7612866999989,None,None,598.7612866999989,None,599.5654135299949,None,,,,21015,0002,2022_Nov_23_1234,localizer,2021.1.3,61.441742781367196,
block,faces,faces067.bmp,,,,,0,81,81,81,,,,,,,,,,,,,,,,,,,,,,,,,,,,,,,,,,,,,,,,,,None,,599.5654135299949,None,599.5654135299949,None,2022-11-23-12:43:51.357259,599.5787380999973,599.8811541999894,599.5787380999973,None,None,599.5787380999973,None,600.3813287299956,None,,,,21015,0002,2022_Nov_23_1234,localizer,2021.1.3,61.441742781367196,
block,faces,faces021.bmp,,,,,0,82,82,82,,,,,,,,,,,,,,,,,,,,,,,,,,,,,,,,,,,,,,,,,,None,,600.3813287299956,None,600.3813287299956,None,2022-11-23-12:43:52.172009,600.3926155999943,600.6978583000018,600.3926155999943,None,None,600.3926155999943,None,601.2045674299982,None,,,,21015,0002,2022_Nov_23_1234,localizer,2021.1.3,61.441742781367196,
block,faces,faces008.bmp,,,,,0,83,83,83,,,,,,,,,,,,,,,,,,,,,,,,,,,,,,,,,,,,,,,,,,None,,601.2045674299982,None,601.2045674299982,None,2022-11-23-12:43:53.002967,601.2299594999931,601.5311166000029,601.2299594999931,None,None,601.2299594999931,None,602.0152917299959,None,,,,21015,0002,2022_Nov_23_1234,localizer,2021.1.3,61.441742781367196,
block,faces,faces025.bmp,,,,,0,84,84,84,,,,,,,,,,,,,,,,,,,,,,,,,,,,,,,,,,,,,,,,,,None,,602.0152917299959,None,602.0152917299959,None,2022-11-23-12:43:53.806809,602.0254994999996,602.3311790000007,602.0254994999996,None,None,602.0254994999996,None,602.8377348299939,None,,,,21015,0002,2022_Nov_23_1234,localizer,2021.1.3,61.441742781367196,
block,faces,faces062.bmp,,,,,0,85,85,85,,,,,,,,,,,,,,,,,,,,,,,,,,,,,,,,,,,,,,,,,,None,,602.8377348299939,None,602.8377348299939,None,2022-11-23-12:43:54.636359,602.8548348999902,603.1651297999924,602.8548348999902,None,None,602.8548348999902,None,603.6489808299914,None,,,,21015,0002,2022_Nov_23_1234,localizer,2021.1.3,61.441742781367196,
block,faces,faces019.bmp,,,,,0,86,86,86,,,,,,,,,,,,,,,,,,,,,,,,,,,,,,,,,,,,,,,,,,None,,603.6489808299914,None,603.6489808299914,None,2022-11-23-12:43:55.440644,603.6508490999986,603.9645626999991,603.6508490999986,None,None,603.6508490999986,None,604.4644897299979,None,,,,21015,0002,2022_Nov_23_1234,localizer,2021.1.3,61.441742781367196,
block,faces,faces033.bmp,,,,,0,87,87,87,,,,,,,,,,,,,,,,,,,,,,,,,,,,,,,,,,,,,,,,,,None,,604.4644897299979,None,604.4644897299979,None,2022-11-23-12:43:56.255177,604.481011099997,604.7820527000003,604.481011099997,None,None,604.481011099997,None,605.2823631299937,None,,,,21015,0002,2022_Nov_23_1234,localizer,2021.1.3,61.441742781367196,
block,faces,faces061.bmp,,,,,0,88,88,88,,,,,,,,,,,,,,,,,,,,,,,,,,,,,,,,,,,,,,,,,,None,,605.2823631299937,None,605.2823631299937,None,2022-11-23-12:43:57.074030,605.3000164999976,605.6144248999917,605.3000164999976,None,None,605.3000164999976,None,606.0979492299914,None,,,,21015,0002,2022_Nov_23_1234,localizer,2021.1.3,61.441742781367196,
block,faces,faces018.bmp,,,,,0,89,89,89,,,,,,,,,,,,,,,,,,,,,,,,,,,,,,,,,,,,,,,,,,None,,606.0979492299914,None,606.0979492299914,None,2022-11-23-12:43:57.888729,606.0985434999893,606.398111100003,606.0985434999893,None,None,606.0985434999893,None,606.8983735299946,None,,,,21015,0002,2022_Nov_23_1234,localizer,2021.1.3,61.441742781367196,
block,faces,faces072.bmp,,,,,0,90,90,90,,,,,,,,,,,,,,,,,,,,,,,,,,,,,,,,,,,,,,,,,,None,,606.8983735299946,None,606.8983735299946,None,2022-11-23-12:43:58.691269,606.9122570999898,607.21454239999,606.9122570999898,606.9122570999898,None,606.9122570999898,606.9122570999898,607.7149512299904,None,,,,21015,0002,2022_Nov_23_1234,localizer,2021.1.3,61.441742781367196,
block_end,faces,faces072.bmp,,,,,0,91,91,91,,,,,,,,,,,,,,,,,,,,,,,,,,,,,,,,,,,,,,,,,,None,,607.7149512299904,None,607.7149512299904,None,2022-11-23-12:43:59.505673,607.7155912000017,608.0147718999942,607.7155912000017,None,y,607.7155912000017,None,608.5151081299948,None,0.6685965999931796,,,21015,0002,2022_Nov_23_1234,localizer,2021.1.3,61.441742781367196,
block_start,scenes,scenes011.bmp,,,,,0,92,92,92,,,,,,,,,,,,,,,,,,,,,,,,,,,,,,,,,,,,,,,,,,t,1.767957899995963,608.514826899991,None,608.514826899991,None,2022-11-23-12:44:02.090435,610.3008269999991,610.6151104000019,610.3008269999991,None,None,610.3008269999991,None,611.1002370299932,None,,,,21015,0002,2022_Nov_23_1234,localizer,2021.1.3,61.441742781367196,
block,scenes,scenes074.bmp,,,,,0,93,93,93,,,,,,,,,,,,,,,,,,,,,,,,,,,,,,,,,,,,,,,,,,None,,611.1002370299932,None,611.1002370299932,None,2022-11-23-12:44:02.897074,611.1258761999925,611.434554099993,611.1258761999925,611.1258761999925,None,611.1258761999925,611.1258761999925,611.9169564299912,None,,,,21015,0002,2022_Nov_23_1234,localizer,2021.1.3,61.441742781367196,
block,scenes,scenes021.bmp,,,,,0,94,94,94,,,,,,,,,,,,,,,,,,,,,,,,,,,,,,,,,,,,,,,,,,None,,611.9169564299912,None,611.9169564299912,None,2022-11-23-12:44:03.711653,611.9210681999975,612.2317143999971,611.9210681999975,None,None,611.9210681999975,None,612.7328703299966,None,,,,21015,0002,2022_Nov_23_1234,localizer,2021.1.3,61.441742781367196,
block,scenes,scenes014.bmp,,,,,0,95,95,95,,,,,,,,,,,,,,,,,,,,,,,,,,,,,,,,,,,,,,,,,,None,,612.7328703299966,None,612.7328703299966,None,2022-11-23-12:44:04.526001,612.7418774999969,613.0480687999952,612.7418774999969,None,None,612.7418774999969,None,613.5483406300002,None,,,,21015,0002,2022_Nov_23_1234,localizer,2021.1.3,61.441742781367196,
block,scenes,scenes046.bmp,,,,,0,96,96,96,,,,,,,,,,,,,,,,,,,,,,,,,,,,,,,,,,,,,,,,,,None,,613.5483406300002,None,613.5483406300002,None,2022-11-23-12:44:05.339030,613.5490449999925,613.8485913999903,613.5490449999925,None,None,613.5490449999925,None,614.3551154300033,None,,,,21015,0002,2022_Nov_23_1234,localizer,2021.1.3,61.441742781367196,
block,scenes,scenes079.bmp,,,,,0,97,97,97,,,,,,,,,,,,,,,,,,,,,,,,,,,,,,,,,,,,,,,,,,None,,614.3551154300033,None,614.3551154300033,None,2022-11-23-12:44:06.149794,614.3732410999946,614.6820274999918,614.3732410999946,None,None,614.3732410999946,None,615.165008029998,None,,,,21015,0002,2022_Nov_23_1234,localizer,2021.1.3,61.441742781367196,
block,scenes,scenes035.bmp,,,,,0,98,98,98,,,,,,,,,,,,,,,,,,,,,,,,,,,,,,,,,,,,,,,,,,None,,615.165008029998,None,615.165008029998,None,2022-11-23-12:44:06.955937,615.1778794999991,615.4816973999987,615.1778794999991,None,None,615.1778794999991,None,615.981833330002,None,,,,21015,0002,2022_Nov_23_1234,localizer,2021.1.3,61.441742781367196,
block,scenes,scenes053.bmp,,,,,0,99,99,99,,,,,,,,,,,,,,,,,,,,,,,,,,,,,,,,,,,,,,,,,,None,,615.981833330002,None,615.981833330002,None,2022-11-23-12:44:07.773643,615.98227149999,616.2816510999983,615.98227149999,None,None,615.98227149999,None,616.7823588300046,None,,,,21015,0002,2022_Nov_23_1234,localizer,2021.1.3,61.441742781367196,
block,scenes,scenes029.bmp,,,,,0,100,100,100,,,,,,,,,,,,,,,,,,,,,,,,,,,,,,,,,,,,,,,,,,None,,616.7823588300046,None,616.7823588300046,None,2022-11-23-12:44:08.576018,616.7919128999929,617.0987233999913,616.7919128999929,616.7919128999929,None,616.7919128999929,616.7919128999929,617.5987395299992,None,,,,21015,0002,2022_Nov_23_1234,localizer,2021.1.3,61.441742781367196,
block,scenes,scenes017.bmp,,,,,0,101,101,101,,,,,,,,,,,,,,,,,,,,,,,,,,,,,,,,,,,,,,,,,,None,,617.5987395299992,None,617.5987395299992,None,2022-11-23-12:44:09.390425,617.6103864999895,617.9148558000015,617.6103864999895,None,None,617.6103864999895,None,618.4156209299938,None,,,,21015,0002,2022_Nov_23_1234,localizer,2021.1.3,61.441742781367196,
block,scenes,scenes086.bmp,,,,,0,102,102,102,,,,,,,,,,,,,,,,,,,,,,,,,,,,,,,,,,,,,,,,,,None,,618.4156209299938,None,618.4156209299938,None,2022-11-23-12:44:10.207516,618.4235823999916,618.7315492999915,618.4235823999916,None,None,618.4235823999916,None,619.2326812299973,None,,,,21015,0002,2022_Nov_23_1234,localizer,2021.1.3,61.441742781367196,
block,scenes,scenes073.bmp,,,,,0,103,103,103,,,,,,,,,,,,,,,,,,,,,,,,,,,,,,,,,,,,,,,,,,None,,619.2326812299973,None,619.2326812299973,None,2022-11-23-12:44:11.025356,619.2442313999927,619.5483437999937,619.2442313999927,None,None,619.2442313999927,None,620.0483986299907,None,,,,21015,0002,2022_Nov_23_1234,localizer,2021.1.3,61.441742781367196,
block,scenes,scenes016.bmp,,,,,0,104,104,104,,,,,,,,,,,,,,,,,,,,,,,,,,,,,,,,,,,,,,,,,,None,,620.0483986299907,None,620.0483986299907,None,2022-11-23-12:44:11.839395,620.0655296999903,620.3654249999963,620.0655296999903,None,None,620.0655296999903,None,620.8677787299923,None,,,,21015,0002,2022_Nov_23_1234,localizer,2021.1.3,61.441742781367196,
block,scenes,scenes026.bmp,,,,,0,105,105,105,,,,,,,,,,,,,,,,,,,,,,,,,,,,,,,,,,,,,,,,,,None,,620.8677787299923,None,620.8677787299923,None,2022-11-23-12:44:12.662470,620.882683799995,621.1979387000029,620.882683799995,None,None,620.882683799995,None,621.681677729993,None,,,,21015,0002,2022_Nov_23_1234,localizer,2021.1.3,61.441742781367196,
block_end,scenes,scenes092.bmp,,,,,0,106,106,106,,,,,,,,,,,,,,,,,,,,,,,,,,,,,,,,,,,,,,,,,,None,,621.681677729993,None,621.681677729993,None,2022-11-23-12:44:13.472378,621.6923695000005,621.998628100002,621.6923695000005,None,None,621.6923695000005,None,622.4988334299953,None,,,,21015,0002,2022_Nov_23_1234,localizer,2021.1.3,61.441742781367196,
block_start,objects,objects059.bmp,,,,,0,107,107,107,,,,,,,,,,,,,,,,,,,,,,,,,,,,,,,,,,,,,,,,,,t,1.7840649999998277,622.4987582000031,None,622.4987582000031,None,2022-11-23-12:44:16.088186,624.3084499999968,624.6150650999916,624.3084499999968,None,None,624.3084499999968,None,625.1213669300007,None,,,,21015,0002,2022_Nov_23_1234,localizer,2021.1.3,61.441742781367196,
block,objects,objects060.bmp,,,,,0,108,108,108,,,,,,,,,,,,,,,,,,,,,,,,,,,,,,,,,,,,,,,,,,None,,625.1213669300007,None,625.1213669300007,None,2022-11-23-12:44:16.920354,625.1283361999958,625.4315000999923,625.1283361999958,None,None,625.1283361999958,None,625.9317444299916,None,,,,21015,0002,2022_Nov_23_1234,localizer,2021.1.3,61.441742781367196,
block,objects,objects013.bmp,,,,,0,109,109,109,,,,,,,,,,,,,,,,,,,,,,,,,,,,,,,,,,,,,,,,,,None,,625.9317444299916,None,625.9317444299916,None,2022-11-23-12:44:17.722574,625.9324022999936,626.2315024999989,625.9324022999936,None,None,625.9324022999936,None,626.732033329997,None,,,,21015,0002,2022_Nov_23_1234,localizer,2021.1.3,61.441742781367196,
block,objects,objects010.bmp,,,,,0,110,110,110,,,,,,,,,,,,,,,,,,,,,,,,,,,,,,,,,,,,,,,,,,None,,626.732033329997,None,626.732033329997,None,2022-11-23-12:44:18.525728,626.7346250999981,627.0484222999949,626.7346250999981,626.7346250999981,None,626.7346250999981,626.7346250999981,627.5485232299936,None,,,,21015,0002,2022_Nov_23_1234,localizer,2021.1.3,61.441742781367196,
block,objects,objects051.bmp,,,,,0,111,111,111,,,,,,,,,,,,,,,,,,,,,,,,,,,,,,,,,,,,,,,,,,None,,627.5485232299936,None,627.5485232299936,None,2022-11-23-12:44:19.339421,627.5592890999978,627.864877,627.5592890999978,None,None,627.5592890999978,None,628.365341730004,None,,,,21015,0002,2022_Nov_23_1234,localizer,2021.1.3,61.441742781367196,
block,objects,objects034.bmp,,,,,0,112,112,112,,,,,,,,,,,,,,,,,,,,,,,,,,,,,,,,,,,,,,,,,,None,,628.365341730004,None,628.365341730004,None,2022-11-23-12:44:20.157044,628.3658605999954,628.6652462999918,628.3658605999954,None,None,628.3658605999954,None,629.1654054299972,None,,,,21015,0002,2022_Nov_23_1234,localizer,2021.1.3,61.441742781367196,
block,objects,objects019.bmp,,,,,0,113,113,113,,,,,,,,,,,,,,,,,,,,,,,,,,,,,,,,,,,,,,,,,,None,,629.1654054299972,None,629.1654054299972,None,2022-11-23-12:44:20.959103,629.167992799994,629.4818855999911,629.167992799994,629.167992799994,None,629.167992799994,629.167992799994,629.9819865300044,None,,,,21015,0002,2022_Nov_23_1234,localizer,2021.1.3,61.441742781367196,
block,objects,objects031.bmp,,,,,0,114,114,114,,,,,,,,,,,,,,,,,,,,,,,,,,,,,,,,,,,,,,,,,,None,,629.9819865300044,None,629.9819865300044,None,2022-11-23-12:44:21.773856,629.9935742999951,630.298292099993,629.9935742999951,None,None,629.9935742999951,None,630.7981244299983,None,,,,21015,0002,2022_Nov_23_1234,localizer,2021.1.3,61.441742781367196,
block,objects,objects057.bmp,,,,,0,115,115,115,,,,,,,,,,,,,,,,,,,,,,,,,,,,,,,,,,,,,,,,,,None,,630.7981244299983,None,630.7981244299983,None,2022-11-23-12:44:22.587696,630.8025185000006,631.1148637000006,630.8025185000006,None,None,630.8025185000006,None,631.6153688299921,None,,,,21015,0002,2022_Nov_23_1234,localizer,2021.1.3,61.441742781367196,
block,objects,objects072.bmp,,,,,0,116,116,116,,,,,,,,,,,,,,,,,,,,,,,,,,,,,,,,,,,,,,,,,,None,,631.6153688299921,None,631.6153688299921,None,2022-11-23-12:44:23.407075,631.6269795999979,631.9313925000024,631.6269795999979,None,None,631.6269795999979,None,632.4320024299916,None,,,,21015,0002,2022_Nov_23_1234,localizer,2021.1.3,61.441742781367196,
block,objects,objects018.bmp,,,,,0,117,117,117,,,,,,,,,,,,,,,,,,,,,,,,,,,,,,,,,,,,,,,,,,None,,632.4320024299916,None,632.4320024299916,None,2022-11-23-12:44:24.222901,632.4436876999971,632.7483039999934,632.4436876999971,None,None,632.4436876999971,None,633.2484343299977,None,,,,21015,0002,2022_Nov_23_1234,localizer,2021.1.3,61.441742781367196,
block,objects,objects004.bmp,,,,,0,118,118,118,,,,,,,,,,,,,,,,,,,,,,,,,,,,,,,,,,,,,,,,,,None,,633.2484343299977,None,633.2484343299977,None,2022-11-23-12:44:25.039273,633.2597072999924,633.5650495000009,633.2597072999924,None,None,633.2597072999924,None,634.0658643299932,None,,,,21015,0002,2022_Nov_23_1234,localizer,2021.1.3,61.441742781367196,
block,objects,objects064.bmp,,,,,0,119,119,119,,,,,,,,,,,,,,,,,,,,,,,,,,,,,,,,,,,,,,,,,,None,,634.0658643299932,None,634.0658643299932,None,2022-11-23-12:44:25.857748,634.0679706999945,634.3710447999911,634.0679706999945,None,None,634.0679706999945,None,634.8815227300031,None,,,,21015,0002,2022_Nov_23_1234,localizer,2021.1.3,61.441742781367196,
block,objects,objects048.bmp,,,,,0,120,120,120,,,,,,,,,,,,,,,,,,,,,,,,,,,,,,,,,,,,,,,,,,None,,634.8815227300031,None,634.8815227300031,None,2022-11-23-12:44:26.672244,634.8871642000013,635.1982216000033,634.8871642000013,None,None,634.8871642000013,None,635.6987874299914,None,,,,21015,0002,2022_Nov_23_1234,localizer,2021.1.3,61.441742781367196,
block_end,objects,objects049.bmp,,,,,0,121,121,121,,,,,,,,,,,,,,,,,,,,,,,,,,,,,,,,,,,,,,,,,,None,,635.6987874299914,None,635.6987874299914,None,2022-11-23-12:44:27.489501,635.7094933999906,636.0161074999924,635.7094933999906,None,None,635.7094933999906,None,636.5151343299906,None,,,,21015,0002,2022_Nov_23_1234,localizer,2021.1.3,61.441742781367196,
block_start,faces,faces045.bmp,,,,,0,122,122,122,,,,,,,,,,,,,,,,,,,,,,,,,,,,,,,,,,,,,,,,,,t,1.7676740000024438,636.5150066999922,None,636.5150066999922,None,2022-11-23-12:44:30.091096,638.301612700001,638.6154643999907,638.301612700001,None,None,638.301612700001,None,639.1157496299959,None,,,,21015,0002,2022_Nov_23_1234,localizer,2021.1.3,61.441742781367196,
block,faces,faces026.bmp,,,,,0,123,123,123,,,,,,,,,,,,,,,,,,,,,,,,,,,,,,,,,,,,,,,,,,None,,639.1157496299959,None,639.1157496299959,None,2022-11-23-12:44:30.907641,639.1178255999985,639.4321366999939,639.1178255999985,None,None,639.1178255999985,None,639.9317395299979,None,,,,21015,0002,2022_Nov_23_1234,localizer,2021.1.3,61.441742781367196,
block,faces,faces074.bmp,,,,,0,124,124,124,,,,,,,,,,,,,,,,,,,,,,,,,,,,,,,,,,,,,,,,,,None,,639.9317395299979,None,639.9317395299979,None,2022-11-23-12:44:31.722521,639.9431549000001,640.2482000000018,639.9431549000001,None,None,639.9431549000001,None,640.748560629999,None,,,,21015,0002,2022_Nov_23_1234,localizer,2021.1.3,61.441742781367196,
block,faces,faces085.bmp,,,,,0,125,125,125,,,,,,,,,,,,,,,,,,,,,,,,,,,,,,,,,,,,,,,,,,None,,640.748560629999,None,640.748560629999,None,2022-11-23-12:44:32.539429,640.7492188999895,641.0648530999897,640.7492188999895,None,None,640.7492188999895,None,641.5492135299967,None,,,,21015,0002,2022_Nov_23_1234,localizer,2021.1.3,61.441742781367196,
block,faces,faces022.bmp,,,,,0,126,126,126,,,,,,,,,,,,,,,,,,,,,,,,,,,,,,,,,,,,,,,,,,None,,641.5492135299967,None,641.5492135299967,None,2022-11-23-12:44:33.343976,641.5543248000031,641.8658407999901,641.5543248000031,641.5543248000031,None,641.5543248000031,641.5543248000031,642.3658617299909,None,,,,21015,0002,2022_Nov_23_1234,localizer,2021.1.3,61.441742781367196,
block,faces,faces012.bmp,,,,,0,127,127,127,,,,,,,,,,,,,,,,,,,,,,,,,,,,,,,,,,,,,,,,,,None,,642.3658617299909,None,642.3658617299909,None,2022-11-23-12:44:34.157806,642.367992200001,642.6813148999936,642.367992200001,None,None,642.367992200001,None,643.1824005299961,None,,,,21015,0002,2022_Nov_23_1234,localizer,2021.1.3,61.441742781367196,
block,faces,faces024.bmp,,,,,0,128,128,128,,,,,,,,,,,,,,,,,,,,,,,,,,,,,,,,,,,,,,,,,,None,,643.1824005299961,None,643.1824005299961,None,2022-11-23-12:44:34.974400,643.1845170000015,643.4981284999958,643.1845170000015,None,None,643.1845170000015,None,643.9989304299918,None,,,,21015,0002,2022_Nov_23_1234,localizer,2021.1.3,61.441742781367196,
block,faces,faces047.bmp,,,,,0,129,129,129,,,,,,,,,,,,,,,,,,,,,,,,,,,,,,,,,,,,,,,,,,None,,643.9989304299918,None,643.9989304299918,None,2022-11-23-12:44:35.791036,644.0154326999909,644.3151182000001,644.0154326999909,None,None,644.0154326999909,None,644.8156635299922,None,,,,21015,0002,2022_Nov_23_1234,localizer,2021.1.3,61.441742781367196,
block,faces,faces004.bmp,,,,,0,130,130,130,,,,,,,,,,,,,,,,,,,,,,,,,,,,,,,,,,,,,,,,,,None,,644.8156635299922,None,644.8156635299922,None,2022-11-23-12:44:36.607509,644.8163569000026,645.1312650999898,644.8163569000026,None,None,644.8163569000026,None,645.6158016299989,None,,,,21015,0002,2022_Nov_23_1234,localizer,2021.1.3,61.441742781367196,
block,faces,faces017.bmp,,,,,0,131,131,131,,,,,,,,,,,,,,,,,,,,,,,,,,,,,,,,,,,,,,,,,,None,,645.6158016299989,None,645.6158016299989,None,2022-11-23-12:44:37.409848,645.6188123999891,645.9320545999944,645.6188123999891,645.6188123999891,None,645.6188123999891,645.6188123999891,646.4323083299926,None,,,,21015,0002,2022_Nov_23_1234,localizer,2021.1.3,61.441742781367196,
block,faces,faces039.bmp,,,,,0,132,132,132,,,,,,,,,,,,,,,,,,,,,,,,,,,,,,,,,,,,,,,,,,None,,646.4323083299926,None,646.4323083299926,None,2022-11-23-12:44:38.224363,646.4457432999916,646.7490462999995,646.4457432999916,None,None,646.4457432999916,None,647.248966430004,None,,,,21015,0002,2022_Nov_23_1234,localizer,2021.1.3,61.441742781367196,
block,faces,faces013.bmp,,,,,0,133,133,133,,,,,,,,,,,,,,,,,,,,,,,,,,,,,,,,,,,,,,,,,,None,,647.248966430004,None,647.248966430004,None,2022-11-23-12:44:39.040849,647.250401799989,647.5656256999937,647.250401799989,None,None,647.250401799989,None,648.0496369300047,None,,,,21015,0002,2022_Nov_23_1234,localizer,2021.1.3,61.441742781367196,
block,faces,faces060.bmp,,,,,0,134,134,134,,,,,,,,,,,,,,,,,,,,,,,,,,,,,,,,,,,,,,,,,,None,,648.0496369300047,None,648.0496369300047,None,2022-11-23-12:44:39.844612,648.0692298999929,648.382728800003,648.0692298999929,648.0692298999929,None,648.0692298999929,648.0692298999929,648.8650337300016,None,,,,21015,0002,2022_Nov_23_1234,localizer,2021.1.3,61.441742781367196,
block,faces,faces027.bmp,,,,,0,135,135,135,,,,,,,,,,,,,,,,,,,,,,,,,,,,,,,,,,,,,,,,,,None,,648.8650337300016,None,648.8650337300016,None,2022-11-23-12:44:40.654964,648.8659047999972,649.1647841999948,648.8659047999972,None,None,648.8659047999972,None,649.6649456300031,None,,,,21015,0002,2022_Nov_23_1234,localizer,2021.1.3,61.441742781367196,
block_end,faces,faces031.bmp,,,,,0,136,136,136,,,,,,,,,,,,,,,,,,,,,,,,,,,,,,,,,,,,,,,,,,None,,649.6649456300031,None,649.6649456300031,None,2022-11-23-12:44:41.456878,649.6748829999997,649.9827931999898,649.6748829999997,649.6748829999997,None,649.6748829999997,649.6748829999997,650.4818694300004,None,,,,21015,0002,2022_Nov_23_1234,localizer,2021.1.3,61.441742781367196,
block_start,objects,objects071.bmp,,,,,0,137,137,137,,,,,,,,,,,,,,,,,,,,,,,,,,,,,,,,,,,,,,,,,,t,1.800110099997255,650.4817885999946,None,650.4817885999946,None,2022-11-23-12:44:44.089163,652.2990390999912,652.5984496000019,652.2990390999912,None,None,652.2990390999912,None,653.1007832299904,None,,,,21015,0002,2022_Nov_23_1234,localizer,2021.1.3,61.441742781367196,
block,objects,objects019.bmp,,,,,0,138,138,138,,,,,,,,,,,,,,,,,,,,,,,,,,,,,,,,,,,,,,,,,,None,,653.1007832299904,None,653.1007832299904,None,2022-11-23-12:44:44.897902,653.1082999999926,653.4149273999938,653.1082999999926,653.1082999999926,None,653.1082999999926,653.1082999999926,653.9151946299928,None,,,,21015,0002,2022_Nov_23_1234,localizer,2021.1.3,61.441742781367196,
block,objects,objects005.bmp,,,,,0,139,139,139,,,,,,,,,,,,,,,,,,,,,,,,,,,,,,,,,,,,,,,,,,None,,653.9151946299928,None,653.9151946299928,None,2022-11-23-12:44:45.707012,653.915678099991,654.214814299994,653.915678099991,None,None,653.915678099991,None,654.715504529998,None,,,,21015,0002,2022_Nov_23_1234,localizer,2021.1.3,61.441742781367196,
block,objects,objects049.bmp,,,,,0,140,140,140,,,,,,,,,,,,,,,,,,,,,,,,,,,,,,,,,,,,,,,,,,None,,654.715504529998,None,654.715504529998,None,2022-11-23-12:44:46.509696,654.7182561999944,655.0324456999952,654.7182561999944,654.7182561999944,None,654.7182561999944,654.7182561999944,655.5327491299934,None,,,,21015,0002,2022_Nov_23_1234,localizer,2021.1.3,61.441742781367196,
block,objects,objects034.bmp,,,,,0,141,141,141,,,,,,,,,,,,,,,,,,,,,,,,,,,,,,,,,,,,,,,,,,None,,655.5327491299934,None,655.5327491299934,None,2022-11-23-12:44:47.325552,655.5355309000006,655.848318999997,655.5355309000006,None,None,655.5355309000006,None,656.3483782299984,None,,,,21015,0002,2022_Nov_23_1234,localizer,2021.1.3,61.441742781367196,
block,objects,objects058.bmp,,,,,0,142,142,142,,,,,,,,,,,,,,,,,,,,,,,,,,,,,,,,,,,,,,,,,,None,,656.3483782299984,None,656.3483782299984,None,2022-11-23-12:44:48.138425,656.3492265999957,656.648320399996,656.3492265999957,None,None,656.3492265999957,None,657.1485476299961,None,,,,21015,0002,2022_Nov_23_1234,localizer,2021.1.3,61.441742781367196,
block,objects,objects058.bmp,,,,,0,143,143,143,,,,,,,,,,,,,,,,,,,,,,,,,,,,,,,,,,,,,,,,,,None,,657.1485476299961,None,657.1485476299961,None,2022-11-23-12:44:48.940593,657.1491725999949,657.4648251999897,657.1491725999949,657.1491725999949,y,657.1491725999949,657.1491725999949,657.949477929996,None,0.5885711000009906,,,21015,0002,2022_Nov_23_1234,localizer,2021.1.3,61.441742781367196,
block,objects,objects043.bmp,,,,,0,144,144,144,,,,,,,,,,,,,,,,,,,,,,,,,,,,,,,,,,,,,,,,,,None,,657.949477929996,None,657.949477929996,None,2022-11-23-12:44:49.743709,657.953534699991,658.2658031000028,657.953534699991,657.953534699991,None,657.953534699991,657.953534699991,658.7653715299923,None,,,,21015,0002,2022_Nov_23_1234,localizer,2021.1.3,61.441742781367196,
block,objects,objects074.bmp,,,,,0,145,145,145,,,,,,,,,,,,,,,,,,,,,,,,,,,,,,,,,,,,,,,,,,None,,658.7653715299923,None,658.7653715299923,None,2022-11-23-12:44:50.556440,658.7659031999938,659.065208999993,658.7659031999938,None,None,658.7659031999938,None,659.565601229998,None,,,,21015,0002,2022_Nov_23_1234,localizer,2021.1.3,61.441742781367196,
block,objects,objects087.bmp,,,,,0,146,146,146,,,,,,,,,,,,,,,,,,,,,,,,,,,,,,,,,,,,,,,,,,None,,659.565601229998,None,659.565601229998,None,2022-11-23-12:44:51.359874,659.579007399996,659.8815424999921,659.579007399996,659.579007399996,None,659.579007399996,659.579007399996,660.3821443299923,None,,,,21015,0002,2022_Nov_23_1234,localizer,2021.1.3,61.441742781367196,
block,objects,objects006.bmp,,,,,0,147,147,147,,,,,,,,,,,,,,,,,,,,,,,,,,,,,,,,,,,,,,,,,,None,,660.3821443299923,None,660.3821443299923,None,2022-11-23-12:44:52.174232,660.3827778999985,660.6820515,660.3827778999985,None,None,660.3827778999985,None,661.1828340299937,None,,,,21015,0002,2022_Nov_23_1234,localizer,2021.1.3,61.441742781367196,
block,objects,objects023.bmp,,,,,0,148,148,148,,,,,,,,,,,,,,,,,,,,,,,,,,,,,,,,,,,,,,,,,,None,,661.1828340299937,None,661.1828340299937,None,2022-11-23-12:44:52.977252,661.187036999996,661.4993082000001,661.187036999996,661.187036999996,None,661.187036999996,661.187036999996,661.9995051300023,None,,,,21015,0002,2022_Nov_23_1234,localizer,2021.1.3,61.441742781367196,
block,objects,objects027.bmp,,,,,0,149,149,149,,,,,,,,,,,,,,,,,,,,,,,,,,,,,,,,,,,,,,,,,,None,,661.9995051300023,None,661.9995051300023,None,2022-11-23-12:44:53.791781,662.0016370999947,662.3158229999972,662.0016370999947,None,None,662.0016370999947,None,662.8151094299931,None,,,,21015,0002,2022_Nov_23_1234,localizer,2021.1.3,61.441742781367196,
block,objects,objects035.bmp,,,,,0,150,150,150,,,,,,,,,,,,,,,,,,,,,,,,,,,,,,,,,,,,,,,,,,None,,662.8151094299931,None,662.8151094299931,None,2022-11-23-12:44:54.605172,662.8243284999917,663.1322791999992,662.8243284999917,None,None,662.8243284999917,None,663.6323692300023,None,,,,21015,0002,2022_Nov_23_1234,localizer,2021.1.3,61.441742781367196,
block_end,objects,objects084.bmp,,,,,0,151,151,151,,,,,,,,,,,,,,,,,,,,,,,,,,,,,,,,,,,,,,,,,,None,,663.6323692300023,None,663.6323692300023,None,2022-11-23-12:44:55.424507,663.6326676000026,663.9484399999928,663.6326676000026,None,None,663.6326676000026,None,664.4324980299964,None,,,,21015,0002,2022_Nov_23_1234,localizer,2021.1.3,61.441742781367196,
null_block,null_block,null_block.bmp,,,,,0,152,152,152,,,,,,,,,,,,,,,,,,,,,,,,,,,,,,,,,,,,,,,,,,t,1.8492397999943933,664.4324952000024,None,664.4324952000024,None,2022-11-23-12:44:58.088383,666.2989182300037,None,666.2989182300037,None,None,666.2989182300037,None,666.3001294999995,None,,,,21015,0002,2022_Nov_23_1234,localizer,2021.1.3,61.441742781367196,
block_start,scenes,scenes069.bmp,,,,,0,153,153,153,,,,,,,,,,,,,,,,,,,,,,,,,,,,,,,,,,,,,,,,,,t,1.9831032999936724,678.2986028000014,None,678.2986028000014,None,2022-11-23-12:45:12.093841,680.301870700001,680.6154374999896,680.301870700001,None,None,680.301870700001,None,681.116595729992,None,,,,21015,0002,2022_Nov_23_1234,localizer,2021.1.3,61.441742781367196,
block,scenes,scenes035.bmp,,,,,0,154,154,154,,,,,,,,,,,,,,,,,,,,,,,,,,,,,,,,,,,,,,,,,,None,,681.116595729992,None,681.116595729992,None,2022-11-23-12:45:12.911101,681.1207200999925,681.4330994999909,681.1207200999925,None,None,681.1207200999925,None,681.9331758299916,None,,,,21015,0002,2022_Nov_23_1234,localizer,2021.1.3,61.441742781367196,
block,scenes,scenes077.bmp,,,,,0,155,155,155,,,,,,,,,,,,,,,,,,,,,,,,,,,,,,,,,,,,,,,,,,None,,681.9331758299916,None,681.9331758299916,None,2022-11-23-12:45:13.727447,681.9350332000031,682.2486951000028,681.9350332000031,None,None,681.9350332000031,None,682.7500267300013,None,,,,21015,0002,2022_Nov_23_1234,localizer,2021.1.3,61.441742781367196,
block,scenes,scenes064.bmp,,,,,0,156,156,156,,,,,,,,,,,,,,,,,,,,,,,,,,,,,,,,,,,,,,,,,,None,,682.7500267300013,None,682.7500267300013,None,2022-11-23-12:45:14.543455,682.7666190000018,683.0665731999907,682.7666190000018,None,None,682.7666190000018,None,683.5652660299922,None,,,,21015,0002,2022_Nov_23_1234,localizer,2021.1.3,61.441742781367196,
block,scenes,scenes012.bmp,,,,,0,157,157,157,,,,,,,,,,,,,,,,,,,,,,,,,,,,,,,,,,,,,,,,,,None,,683.5652660299922,None,683.5652660299922,None,2022-11-23-12:45:15.355736,683.5694232999958,683.8816483999981,683.5694232999958,None,None,683.5694232999958,None,684.3821998299929,None,,,,21015,0002,2022_Nov_23_1234,localizer,2021.1.3,61.441742781367196,
block,scenes,scenes088.bmp,,,,,0,158,158,158,,,,,,,,,,,,,,,,,,,,,,,,,,,,,,,,,,,,,,,,,,None,,684.3821998299929,None,684.3821998299929,None,2022-11-23-12:45:16.173667,684.382721499991,684.6820672999893,684.382721499991,None,None,684.382721499991,None,685.182074630003,None,,,,21015,0002,2022_Nov_23_1234,localizer,2021.1.3,61.441742781367196,
block,scenes,scenes076.bmp,,,,,0,159,159,159,,,,,,,,,,,,,,,,,,,,,,,,,,,,,,,,,,,,,,,,,,None,,685.182074630003,None,685.182074630003,None,2022-11-23-12:45:16.975555,685.1831781999936,685.4985908999952,685.1831781999936,685.1831781999936,None,685.1831781999936,685.1831781999936,685.9989559299968,None,,,,21015,0002,2022_Nov_23_1234,localizer,2021.1.3,61.441742781367196,
block,scenes,scenes085.bmp,,,,,0,160,160,160,,,,,,,,,,,,,,,,,,,,,,,,,,,,,,,,,,,,,,,,,,None,,685.9989559299968,None,685.9989559299968,None,2022-11-23-12:45:17.790196,686.0098525999929,686.321792399991,686.0098525999929,None,None,686.0098525999929,None,686.8217521299914,None,,,,21015,0002,2022_Nov_23_1234,localizer,2021.1.3,61.441742781367196,
block,scenes,scenes054.bmp,,,,,0,161,161,161,,,,,,,,,,,,,,,,,,,,,,,,,,,,,,,,,,,,,,,,,,None,,686.8217521299914,None,686.8217521299914,None,2022-11-23-12:45:18.619589,686.8294903999922,687.1323523000028,686.8294903999922,None,None,686.8294903999922,None,687.6321454300007,None,,,,21015,0002,2022_Nov_23_1234,localizer,2021.1.3,61.441742781367196,
block,scenes,scenes011.bmp,,,,,0,162,162,162,,,,,,,,,,,,,,,,,,,,,,,,,,,,,,,,,,,,,,,,,,None,,687.6321454300007,None,687.6321454300007,None,2022-11-23-12:45:19.423913,687.6328875999898,687.9485810999904,687.6328875999898,None,None,687.6328875999898,None,688.4322163299905,None,,,,21015,0002,2022_Nov_23_1234,localizer,2021.1.3,61.441742781367196,
block,scenes,scenes089.bmp,,,,,0,163,163,163,,,,,,,,,,,,,,,,,,,,,,,,,,,,,,,,,,,,,,,,,,None,,688.4322163299905,None,688.4322163299905,None,2022-11-23-12:45:20.225746,688.4452369999926,688.7486193999939,688.4452369999926,688.4452369999926,None,688.4452369999926,688.4452369999926,689.2489106300011,None,,,,21015,0002,2022_Nov_23_1234,localizer,2021.1.3,61.441742781367196,
block,scenes,scenes074.bmp,,,,,0,164,164,164,,,,,,,,,,,,,,,,,,,,,,,,,,,,,,,,,,,,,,,,,,None,,689.2489106300011,None,689.2489106300011,None,2022-11-23-12:45:21.040597,689.2493824999983,689.5486384999967,689.2493824999983,None,None,689.2493824999983,None,690.0495766299966,None,,,,21015,0002,2022_Nov_23_1234,localizer,2021.1.3,61.441742781367196,
block,scenes,scenes043.bmp,,,,,0,165,165,165,,,,,,,,,,,,,,,,,,,,,,,,,,,,,,,,,,,,,,,,,,None,,690.0495766299966,None,690.0495766299966,None,2022-11-23-12:45:21.844332,690.0590459999949,690.3657233999984,690.0590459999949,690.0590459999949,None,690.0590459999949,690.0590459999949,690.8653523299974,None,,,,21015,0002,2022_Nov_23_1234,localizer,2021.1.3,61.441742781367196,
block,scenes,scenes033.bmp,,,,,0,166,166,166,,,,,,,,,,,,,,,,,,,,,,,,,,,,,,,,,,,,,,,,,,None,,690.8653523299974,None,690.8653523299974,None,2022-11-23-12:45:22.657190,690.8659008999966,691.1652399000013,690.8659008999966,None,None,690.8659008999966,None,691.6656378299915,None,,,,21015,0002,2022_Nov_23_1234,localizer,2021.1.3,61.441742781367196,
block_end,scenes,scenes068.bmp,,,,,0,167,167,167,,,,,,,,,,,,,,,,,,,,,,,,,,,,,,,,,,,,,,,,,,None,,691.6656378299915,None,691.6656378299915,None,2022-11-23-12:45:23.459218,691.6787574999908,691.9820259999979,691.6787574999908,691.6787574999908,None,691.6787574999908,691.6787574999908,692.4824251299972,None,,,,21015,0002,2022_Nov_23_1234,localizer,2021.1.3,61.441742781367196,
block_start,scrambled,scrambled081.bmp,,,,,0,168,168,168,,,,,,,,,,,,,,,,,,,,,,,,,,,,,,,,,,,,,,,,,,t,1.7999911999941105,692.4821707999945,None,692.4821707999945,None,2022-11-23-12:45:26.096909,694.3107957000029,694.6156169000024,694.3107957000029,None,None,694.3107957000029,None,695.1163921299988,None,,,,21015,0002,2022_Nov_23_1234,localizer,2021.1.3,61.441742781367196,
block,scrambled,scrambled049.bmp,,,,,0,169,169,169,,,,,,,,,,,,,,,,,,,,,,,,,,,,,,,,,,,,,,,,,,None,,695.1163921299988,None,695.1163921299988,None,2022-11-23-12:45:26.910049,695.119163299998,695.4166880999983,695.119163299998,None,None,695.119163299998,None,695.9321731299963,None,,,,21015,0002,2022_Nov_23_1234,localizer,2021.1.3,61.441742781367196,
block,scrambled,scrambled046.bmp,,,,,0,170,170,170,,,,,,,,,,,,,,,,,,,,,,,,,,,,,,,,,,,,,,,,,,None,,695.9321731299963,None,695.9321731299963,None,2022-11-23-12:45:27.723826,695.942618599991,696.2484647999954,695.942618599991,None,None,695.942618599991,None,696.7491155300042,None,,,,21015,0002,2022_Nov_23_1234,localizer,2021.1.3,61.441742781367196,
block,scrambled,scrambled082.bmp,,,,,0,171,171,171,,,,,,,,,,,,,,,,,,,,,,,,,,,,,,,,,,,,,,,,,,None,,696.7491155300042,None,696.7491155300042,None,2022-11-23-12:45:28.540855,696.7495729999937,697.0488066999969,696.7495729999937,None,None,696.7495729999937,None,697.5493303299984,None,,,,21015,0002,2022_Nov_23_1234,localizer,2021.1.3,61.441742781367196,
block,scrambled,scrambled004.bmp,,,,,0,172,172,172,,,,,,,,,,,,,,,,,,,,,,,,,,,,,,,,,,,,,,,,,,None,,697.5493303299984,None,697.5493303299984,None,2022-11-23-12:45:29.344269,697.5516168000031,697.8651526999893,697.5516168000031,697.5516168000031,None,697.5516168000031,697.5516168000031,698.3654465300017,None,,,,21015,0002,2022_Nov_23_1234,localizer,2021.1.3,61.441742781367196,
block,scrambled,scrambled014.bmp,,,,,0,173,173,173,,,,,,,,,,,,,,,,,,,,,,,,,,,,,,,,,,,,,,,,,,None,,698.3654465300017,None,698.3654465300017,None,2022-11-23-12:45:30.157140,698.3662266000028,698.681886099992,698.3662266000028,None,None,698.3662266000028,None,699.1657278299929,None,,,,21015,0002,2022_Nov_23_1234,localizer,2021.1.3,61.441742781367196,
block,scrambled,scrambled056.bmp,,,,,0,174,174,174,,,,,,,,,,,,,,,,,,,,,,,,,,,,,,,,,,,,,,,,,,None,,699.1657278299929,None,699.1657278299929,None,2022-11-23-12:45:30.959424,699.1684040999971,699.4823466999951,699.1684040999971,699.1684040999971,None,699.1684040999971,699.1684040999971,699.9824036299935,None,,,,21015,0002,2022_Nov_23_1234,localizer,2021.1.3,61.441742781367196,
block,scrambled,scrambled037.bmp,,,,,0,175,175,175,,,,,,,,,,,,,,,,,,,,,,,,,,,,,,,,,,,,,,,,,,None,,699.9824036299935,None,699.9824036299935,None,2022-11-23-12:45:31.774331,699.9829936000024,700.2821550999943,699.9829936000024,None,None,699.9829936000024,None,700.7823718300017,None,,,,21015,0002,2022_Nov_23_1234,localizer,2021.1.3,61.441742781367196,
block,scrambled,scrambled039.bmp,,,,,0,176,176,176,,,,,,,,,,,,,,,,,,,,,,,,,,,,,,,,,,,,,,,,,,None,,700.7823718300017,None,700.7823718300017,None,2022-11-23-12:45:32.576094,700.7833656000003,701.0986802999978,700.7833656000003,700.7833656000003,None,700.7833656000003,700.7833656000003,701.5825361300042,None,,,,21015,0002,2022_Nov_23_1234,localizer,2021.1.3,61.441742781367196,
block,scrambled,scrambled072.bmp,,,,,0,177,177,177,,,,,,,,,,,,,,,,,,,,,,,,,,,,,,,,,,,,,,,,,,None,,701.5825361300042,None,701.5825361300042,None,2022-11-23-12:45:33.377469,701.5960939999932,701.8988680999901,701.5960939999932,701.5960939999932,None,701.5960939999932,701.5960939999932,702.3997684299932,None,,,,21015,0002,2022_Nov_23_1234,localizer,2021.1.3,61.441742781367196,
block,scrambled,scrambled026.bmp,,,,,0,178,178,178,,,,,,,,,,,,,,,,,,,,,,,,,,,,,,,,,,,,,,,,,,None,,702.3997684299932,None,702.3997684299932,None,2022-11-23-12:45:34.192509,702.4015310999966,702.7157538999891,702.4015310999966,None,None,702.4015310999966,None,703.2168004299995,None,,,,21015,0002,2022_Nov_23_1234,localizer,2021.1.3,61.441742781367196,
block,scrambled,scrambled027.bmp,,,,,0,179,179,179,,,,,,,,,,,,,,,,,,,,,,,,,,,,,,,,,,,,,,,,,,None,,703.2168004299995,None,703.2168004299995,None,2022-11-23-12:45:35.010716,703.2190781999961,703.5327768999996,703.2190781999961,None,None,703.2190781999961,None,704.0330300299931,None,,,,21015,0002,2022_Nov_23_1234,localizer,2021.1.3,61.441742781367196,
block,scrambled,scrambled044.bmp,,,,,0,180,180,180,,,,,,,,,,,,,,,,,,,,,,,,,,,,,,,,,,,,,,,,,,None,,704.0330300299931,None,704.0330300299931,None,2022-11-23-12:45:35.825796,704.0349426999892,704.3486208999966,704.0349426999892,None,None,704.0349426999892,None,704.8496896300014,None,,,,21015,0002,2022_Nov_23_1234,localizer,2021.1.3,61.441742781367196,
block,scrambled,scrambled073.bmp,,,,,0,181,181,181,,,,,,,,,,,,,,,,,,,,,,,,,,,,,,,,,,,,,,,,,,None,,704.8496896300014,None,704.8496896300014,None,2022-11-23-12:45:36.643215,704.8620400999935,705.165419500001,704.8620400999935,None,None,704.8620400999935,None,705.6659625300047,None,,,,21015,0002,2022_Nov_23_1234,localizer,2021.1.3,61.441742781367196,
block_end,scrambled,scrambled070.bmp,,,,,0,182,182,182,,,,,,,,,,,,,,,,,,,,,,,,,,,,,,,,,,,,,,,,,,None,,705.6659625300047,None,705.6659625300047,None,2022-11-23-12:45:37.458887,705.6664656999928,705.965338199996,705.6664656999928,None,None,705.6664656999928,None,706.4657255299928,None,,,,21015,0002,2022_Nov_23_1234,localizer,2021.1.3,61.441742781367196,
block_start,scenes,scenes012.bmp,,,,,0,183,183,183,,,,,,,,,,,,,,,,,,,,,,,,,,,,,,,,,,,,,,,,,,t,1.8166296999988845,706.4653803999972,None,706.4653803999972,None,2022-11-23-12:45:40.092290,708.3015141999931,708.6153817000013,708.3015141999931,None,None,708.3015141999931,None,709.1154760299935,None,,,,21015,0002,2022_Nov_23_1234,localizer,2021.1.3,61.441742781367196,
block,scenes,scenes018.bmp,,,,,0,184,184,184,,,,,,,,,,,,,,,,,,,,,,,,,,,,,,,,,,,,,,,,,,None,,709.1154760299935,None,709.1154760299935,None,2022-11-23-12:45:40.907550,709.1276529000024,709.4320507999946,709.1276529000024,None,None,709.1276529000024,None,709.9327458299915,None,,,,21015,0002,2022_Nov_23_1234,localizer,2021.1.3,61.441742781367196,
block,scenes,scenes009.bmp,,,,,0,185,185,185,,,,,,,,,,,,,,,,,,,,,,,,,,,,,,,,,,,,,,,,,,None,,709.9327458299915,None,709.9327458299915,None,2022-11-23-12:45:41.725514,709.9332354999933,710.2321907000005,709.9332354999933,None,None,709.9332354999933,None,710.7326271299928,None,,,,21015,0002,2022_Nov_23_1234,localizer,2021.1.3,61.441742781367196,
block,scenes,scenes003.bmp,,,,,0,186,186,186,,,,,,,,,,,,,,,,,,,,,,,,,,,,,,,,,,,,,,,,,,None,,710.7326271299928,None,710.7326271299928,None,2022-11-23-12:45:42.527499,710.7353967999952,711.0487853999948,710.7353967999952,710.7353967999952,None,710.7353967999952,710.7353967999952,711.5495711299984,None,,,,21015,0002,2022_Nov_23_1234,localizer,2021.1.3,61.441742781367196,
block,scenes,scenes017.bmp,,,,,0,187,187,187,,,,,,,,,,,,,,,,,,,,,,,,,,,,,,,,,,,,,,,,,,None,,711.5495711299984,None,711.5495711299984,None,2022-11-23-12:45:43.342481,711.5502139000018,711.8493846999918,711.5502139000018,None,None,711.5502139000018,None,712.355954230002,None,,,,21015,0002,2022_Nov_23_1234,localizer,2021.1.3,61.441742781367196,
block,scenes,scenes075.bmp,,,,,0,188,188,188,,,,,,,,,,,,,,,,,,,,,,,,,,,,,,,,,,,,,,,,,,None,,712.355954230002,None,712.355954230002,None,2022-11-23-12:45:44.153781,712.3630612999987,712.6659512999904,712.3630612999987,None,None,712.3630612999987,None,713.1662725299932,None,,,,21015,0002,2022_Nov_23_1234,localizer,2021.1.3,61.441742781367196,
block,scenes,scenes061.bmp,,,,,0,189,189,189,,,,,,,,,,,,,,,,,,,,,,,,,,,,,,,,,,,,,,,,,,None,,713.1662725299932,None,713.1662725299932,None,2022-11-23-12:45:44.959183,713.179432399993,713.4821939999965,713.179432399993,None,None,713.179432399993,None,713.982457329995,None,,,,21015,0002,2022_Nov_23_1234,localizer,2021.1.3,61.441742781367196,
block,scenes,scenes065.bmp,,,,,0,190,190,190,,,,,,,,,,,,,,,,,,,,,,,,,,,,,,,,,,,,,,,,,,None,,713.982457329995,None,713.982457329995,None,2022-11-23-12:45:45.774392,713.9831050999928,714.2822798999987,713.9831050999928,None,None,713.9831050999928,None,714.7984879300013,None,,,,21015,0002,2022_Nov_23_1234,localizer,2021.1.3,61.441742781367196,
block,scenes,scenes006.bmp,,,,,0,191,191,191,,,,,,,,,,,,,,,,,,,,,,,,,,,,,,,,,,,,,,,,,,None,,714.7984879300013,None,714.7984879300013,None,2022-11-23-12:45:46.589445,714.8085818999971,715.1156167000008,714.8085818999971,None,None,714.8085818999971,None,715.6159184300006,None,,,,21015,0002,2022_Nov_23_1234,localizer,2021.1.3,61.441742781367196,
block,scenes,scenes091.bmp,,,,,0,192,192,192,,,,,,,,,,,,,,,,,,,,,,,,,,,,,,,,,,,,,,,,,,None,,715.6159184300006,None,715.6159184300006,None,2022-11-23-12:45:47.408063,715.6165610000025,715.9160742999957,715.6165610000025,None,None,715.6165610000025,None,716.4163181299912,None,,,,21015,0002,2022_Nov_23_1234,localizer,2021.1.3,61.441742781367196,
block,scenes,scenes008.bmp,,,,,0,193,193,193,,,,,,,,,,,,,,,,,,,,,,,,,,,,,,,,,,,,,,,,,,None,,716.4163181299912,None,716.4163181299912,None,2022-11-23-12:45:48.210275,716.418041500001,716.7326636999933,716.418041500001,716.418041500001,None,716.418041500001,716.418041500001,717.2328373299927,None,,,,21015,0002,2022_Nov_23_1234,localizer,2021.1.3,61.441742781367196,
block,scenes,scenes057.bmp,,,,,0,194,194,194,,,,,,,,,,,,,,,,,,,,,,,,,,,,,,,,,,,,,,,,,,None,,717.2328373299927,None,717.2328373299927,None,2022-11-23-12:45:49.024815,717.2435395999928,717.5488179999957,717.2435395999928,None,None,717.2435395999928,None,718.0497788299938,None,,,,21015,0002,2022_Nov_23_1234,localizer,2021.1.3,61.441742781367196,
block,scenes,scenes088.bmp,,,,,0,195,195,195,,,,,,,,,,,,,,,,,,,,,,,,,,,,,,,,,,,,,,,,,,None,,718.0497788299938,None,718.0497788299938,None,2022-11-23-12:45:49.841958,718.0505234000011,718.3651761999936,718.0505234000011,None,None,718.0505234000011,None,718.852384929992,None,,,,21015,0002,2022_Nov_23_1234,localizer,2021.1.3,61.441742781367196,
block,scenes,scenes036.bmp,,,,,0,196,196,196,,,,,,,,,,,,,,,,,,,,,,,,,,,,,,,,,,,,,,,,,,None,,718.852384929992,None,718.852384929992,None,2022-11-23-12:45:50.647563,718.8593928999908,719.1655284000008,718.8593928999908,718.8593928999908,None,718.8593928999908,718.8593928999908,719.6657654300027,None,,,,21015,0002,2022_Nov_23_1234,localizer,2021.1.3,61.441742781367196,
block_end,scenes,scenes039.bmp,,,,,0,197,197,197,,,,,,,,,,,,,,,,,,,,,,,,,,,,,,,,,,,,,,,,,,None,,719.6657654300027,None,719.6657654300027,None,2022-11-23-12:45:51.457788,719.6763711999956,719.982254100003,719.6763711999956,None,None,719.6763711999956,None,720.4824539299982,None,,,,21015,0002,2022_Nov_23_1234,localizer,2021.1.3,61.441742781367196,
null_block,null_block,null_block.bmp,,,,,0,198,198,198,,,,,,,,,,,,,,,,,,,,,,,,,,,,,,,,,,,,,,,,,,t,1.7996182999922894,720.4822087999928,None,720.4822087999928,None,2022-11-23-12:45:54.090433,722.2993070299956,None,722.2993070299956,None,None,722.2993070299956,None,722.3089588000003,None,,,,21015,0002,2022_Nov_23_1234,localizer,2021.1.3,61.441742781367196,
block_start,scrambled,scrambled075.bmp,,,,,0,199,199,199,,,,,,,,,,,,,,,,,,,,,,,,,,,,,,,,,,,,,,,,,,t,1.9649011000001337,734.3168910999957,None,734.3168910999957,None,2022-11-23-12:46:08.092360,736.3106529999932,736.6155437999987,736.3106529999932,None,None,736.3106529999932,None,737.1159001299923,None,,,,21015,0002,2022_Nov_23_1234,localizer,2021.1.3,61.441742781367196,
block,scrambled,scrambled075.bmp,,,,,0,200,200,200,,,,,,,,,,,,,,,,,,,,,,,,,,,,,,,,,,,,,,,,,,None,,737.1159001299923,None,737.1159001299923,None,2022-11-23-12:46:08.908229,737.1163786999969,737.4156157999969,737.1163786999969,None,y,737.1163786999969,None,737.915889430001,None,0.6330652000033297,,,21015,0002,2022_Nov_23_1234,localizer,2021.1.3,61.441742781367196,
block,scrambled,scrambled032.bmp,,,,,0,201,201,201,,,,,,,,,,,,,,,,,,,,,,,,,,,,,,,,,,,,,,,,,,None,,737.915889430001,None,737.915889430001,None,2022-11-23-12:46:09.710193,737.9163952999952,738.2159739999915,737.9163952999952,737.9163952999952,None,737.9163952999952,737.9163952999952,738.7160650300023,None,,,,21015,0002,2022_Nov_23_1234,localizer,2021.1.3,61.441742781367196,
block,scrambled,scrambled052.bmp,,,,,0,202,202,202,,,,,,,,,,,,,,,,,,,,,,,,,,,,,,,,,,,,,,,,,,None,,738.7160650300023,None,738.7160650300023,None,2022-11-23-12:46:10.510820,738.7183331999986,739.0322966999956,738.7183331999986,738.7183331999986,None,738.7183331999986,738.7183331999986,739.5328797299983,None,,,,21015,0002,2022_Nov_23_1234,localizer,2021.1.3,61.441742781367196,
block,scrambled,scrambled048.bmp,,,,,0,203,203,203,,,,,,,,,,,,,,,,,,,,,,,,,,,,,,,,,,,,,,,,,,None,,739.5328797299983,None,739.5328797299983,None,2022-11-23-12:46:11.325204,739.5335180999973,739.8489964999899,739.5335180999973,None,None,739.5335180999973,None,740.333453030001,None,,,,21015,0002,2022_Nov_23_1234,localizer,2021.1.3,61.441742781367196,
block,scrambled,scrambled077.bmp,,,,,0,204,204,204,,,,,,,,,,,,,,,,,,,,,,,,,,,,,,,,,,,,,,,,,,None,,740.333453030001,None,740.333453030001,None,2022-11-23-12:46:12.128760,740.3497222000005,740.6497264999925,740.3497222000005,740.3497222000005,None,740.3497222000005,740.3497222000005,741.149157129995,None,,,,21015,0002,2022_Nov_23_1234,localizer,2021.1.3,61.441742781367196,
block,scrambled,scrambled024.bmp,,,,,0,205,205,205,,,,,,,,,,,,,,,,,,,,,,,,,,,,,,,,,,,,,,,,,,None,,741.149157129995,None,741.149157129995,None,2022-11-23-12:46:12.941567,741.149960900002,741.4491812999913,741.149960900002,None,None,741.149960900002,None,741.9495333299958,None,,,,21015,0002,2022_Nov_23_1234,localizer,2021.1.3,61.441742781367196,
block,scrambled,scrambled062.bmp,,,,,0,206,206,206,,,,,,,,,,,,,,,,,,,,,,,,,,,,,,,,,,,,,,,,,,None,,741.9495333299958,None,741.9495333299958,None,2022-11-23-12:46:13.744099,741.9515175999986,742.2659954999981,741.9515175999986,741.9515175999986,None,741.9515175999986,741.9515175999986,742.7662594300011,None,,,,21015,0002,2022_Nov_23_1234,localizer,2021.1.3,61.441742781367196,
block,scrambled,scrambled049.bmp,,,,,0,207,207,207,,,,,,,,,,,,,,,,,,,,,,,,,,,,,,,,,,,,,,,,,,None,,742.7662594300011,None,742.7662594300011,None,2022-11-23-12:46:14.558819,742.7665510999941,743.0655974999972,742.7665510999941,None,None,742.7665510999941,None,743.5657869300005,None,,,,21015,0002,2022_Nov_23_1234,localizer,2021.1.3,61.441742781367196,
block,scrambled,scrambled005.bmp,,,,,0,208,208,208,,,,,,,,,,,,,,,,,,,,,,,,,,,,,,,,,,,,,,,,,,None,,743.5657869300005,None,743.5657869300005,None,2022-11-23-12:46:15.359183,743.576839100002,743.8823111999955,743.576839100002,743.576839100002,None,743.576839100002,743.576839100002,744.3824681299986,None,,,,21015,0002,2022_Nov_23_1234,localizer,2021.1.3,61.441742781367196,
block,scrambled,scrambled053.bmp,,,,,0,209,209,209,,,,,,,,,,,,,,,,,,,,,,,,,,,,,,,,,,,,,,,,,,None,,744.3824681299986,None,744.3824681299986,None,2022-11-23-12:46:16.174908,744.3832561000017,744.6822371000017,744.3832561000017,None,None,744.3832561000017,None,745.182376330001,None,,,,21015,0002,2022_Nov_23_1234,localizer,2021.1.3,61.441742781367196,
block,scrambled,scrambled040.bmp,,,,,0,210,210,210,,,,,,,,,,,,,,,,,,,,,,,,,,,,,,,,,,,,,,,,,,None,,745.182376330001,None,745.182376330001,None,2022-11-23-12:46:16.976047,745.1829959000024,745.4820724000019,745.1829959000024,745.1829959000024,None,745.1829959000024,745.1829959000024,745.9826834299995,None,,,,21015,0002,2022_Nov_23_1234,localizer,2021.1.3,61.441742781367196,
block,scrambled,scrambled041.bmp,,,,,0,211,211,211,,,,,,,,,,,,,,,,,,,,,,,,,,,,,,,,,,,,,,,,,,None,,745.9826834299995,None,745.9826834299995,None,2022-11-23-12:46:17.777111,745.983299200001,746.2823973999912,745.983299200001,745.983299200001,None,745.983299200001,745.983299200001,746.783623630002,None,,,,21015,0002,2022_Nov_23_1234,localizer,2021.1.3,61.441742781367196,
block,scrambled,scrambled068.bmp,,,,,0,212,212,212,,,,,,,,,,,,,,,,,,,,,,,,,,,,,,,,,,,,,,,,,,None,,746.783623630002,None,746.783623630002,None,2022-11-23-12:46:18.579226,746.785847799998,747.1001379999943,746.785847799998,746.785847799998,None,746.785847799998,746.785847799998,747.6001913299945,None,,,,21015,0002,2022_Nov_23_1234,localizer,2021.1.3,61.441742781367196,
block_end,scrambled,scrambled007.bmp,,,,,0,213,213,213,,,,,,,,,,,,,,,,,,,,,,,,,,,,,,,,,,,,,,,,,,None,,747.6001913299945,None,747.6001913299945,None,2022-11-23-12:46:19.393610,747.6007899999968,747.9000900999963,747.6007899999968,None,None,747.6007899999968,None,748.4162435299907,None,,,,21015,0002,2022_Nov_23_1234,localizer,2021.1.3,61.441742781367196,
block_start,faces,faces069.bmp,,,,,0,214,214,214,,,,,,,,,,,,,,,,,,,,,,,,,,,,,,,,,,,,,,,,,,t,1.8658480000012787,748.4158244999999,None,748.4158244999999,None,2022-11-23-12:46:22.091064,750.3086817000003,750.6156188000023,750.3086817000003,None,None,750.3086817000003,None,751.1163309299984,None,,,,21015,0002,2022_Nov_23_1234,localizer,2021.1.3,61.441742781367196,
block,faces,faces027.bmp,,,,,0,215,215,215,,,,,,,,,,,,,,,,,,,,,,,,,,,,,,,,,,,,,,,,,,None,,751.1163309299984,None,751.1163309299984,None,2022-11-23-12:46:22.908836,751.1170572999981,751.4163251999998,751.1170572999981,None,None,751.1170572999981,None,751.916367929992,None,,,,21015,0002,2022_Nov_23_1234,localizer,2021.1.3,61.441742781367196,
block,faces,faces065.bmp,,,,,0,216,216,216,,,,,,,,,,,,,,,,,,,,,,,,,,,,,,,,,,,,,,,,,,None,,751.916367929992,None,751.916367929992,None,2022-11-23-12:46:23.711075,751.9186335999984,752.2322518000001,751.9186335999984,751.9186335999984,None,751.9186335999984,751.9186335999984,752.732074130002,None,,,,21015,0002,2022_Nov_23_1234,localizer,2021.1.3,61.441742781367196,
block,faces,faces053.bmp,,,,,0,217,217,217,,,,,,,,,,,,,,,,,,,,,,,,,,,,,,,,,,,,,,,,,,None,,752.732074130002,None,752.732074130002,None,2022-11-23-12:46:24.523338,752.7333374000009,753.0314833000011,752.7333374000009,None,None,752.7333374000009,None,753.5489304299947,None,,,,21015,0002,2022_Nov_23_1234,localizer,2021.1.3,61.441742781367196,
block,faces,faces060.bmp,,,,,0,218,218,218,,,,,,,,,,,,,,,,,,,,,,,,,,,,,,,,,,,,,,,,,,None,,753.5489304299947,None,753.5489304299947,None,2022-11-23-12:46:25.340442,753.5540858000022,753.8655994000001,753.5540858000022,None,None,753.5540858000022,None,754.3650817300033,None,,,,21015,0002,2022_Nov_23_1234,localizer,2021.1.3,61.441742781367196,
block,faces,faces016.bmp,,,,,0,219,219,219,,,,,,,,,,,,,,,,,,,,,,,,,,,,,,,,,,,,,,,,,,None,,754.3650817300033,None,754.3650817300033,None,2022-11-23-12:46:26.157211,754.3666983000003,754.6819445000001,754.3666983000003,None,None,754.3666983000003,None,755.1821601299991,None,,,,21015,0002,2022_Nov_23_1234,localizer,2021.1.3,61.441742781367196,
block,faces,faces048.bmp,,,,,0,220,220,220,,,,,,,,,,,,,,,,,,,,,,,,,,,,,,,,,,,,,,,,,,None,,755.1821601299991,None,755.1821601299991,None,2022-11-23-12:46:26.973460,755.1842763000022,755.4983688999928,755.1842763000022,None,None,755.1842763000022,None,755.9994481300048,None,,,,21015,0002,2022_Nov_23_1234,localizer,2021.1.3,61.441742781367196,
block,faces,faces071.bmp,,,,,0,221,221,221,,,,,,,,,,,,,,,,,,,,,,,,,,,,,,,,,,,,,,,,,,None,,755.9994481300048,None,755.9994481300048,None,2022-11-23-12:46:27.792242,756.0104086999927,756.3153406999918,756.0104086999927,None,None,756.0104086999927,None,756.815469229997,None,,,,21015,0002,2022_Nov_23_1234,localizer,2021.1.3,61.441742781367196,
block,faces,faces007.bmp,,,,,0,222,222,222,,,,,,,,,,,,,,,,,,,,,,,,,,,,,,,,,,,,,,,,,,None,,756.815469229997,None,756.815469229997,None,2022-11-23-12:46:28.607040,756.8243192999944,757.1321938999899,756.8243192999944,None,None,756.8243192999944,None,757.6335765299984,None,,,,21015,0002,2022_Nov_23_1234,localizer,2021.1.3,61.441742781367196,
block,faces,faces062.bmp,,,,,0,223,223,223,,,,,,,,,,,,,,,,,,,,,,,,,,,,,,,,,,,,,,,,,,None,,757.6335765299984,None,757.6335765299984,None,2022-11-23-12:46:29.427416,757.6344263999927,757.9387120000029,757.6344263999927,None,None,757.6344263999927,None,758.4488828300048,None,,,,21015,0002,2022_Nov_23_1234,localizer,2021.1.3,61.441742781367196,
block,faces,faces088.bmp,,,,,0,224,224,224,,,,,,,,,,,,,,,,,,,,,,,,,,,,,,,,,,,,,,,,,,None,,758.4488828300048,None,758.4488828300048,None,2022-11-23-12:46:30.241643,758.4499945999996,758.7656403000001,758.4499945999996,None,None,758.4499945999996,None,759.2511867300011,None,,,,21015,0002,2022_Nov_23_1234,localizer,2021.1.3,61.441742781367196,
block,faces,faces008.bmp,,,,,0,225,225,225,,,,,,,,,,,,,,,,,,,,,,,,,,,,,,,,,,,,,,,,,,None,,759.2511867300011,None,759.2511867300011,None,2022-11-23-12:46:31.048981,759.2565033999999,759.5654030000005,759.2565033999999,759.2565033999999,None,759.2565033999999,759.2565033999999,760.0659940299913,None,,,,21015,0002,2022_Nov_23_1234,localizer,2021.1.3,61.441742781367196,
block,faces,faces001.bmp,,,,,0,226,226,226,,,,,,,,,,,,,,,,,,,,,,,,,,,,,,,,,,,,,,,,,,None,,760.0659940299913,None,760.0659940299913,None,2022-11-23-12:46:31.858833,760.0770890999993,760.3819692999969,760.0770890999993,None,None,760.0770890999993,None,760.8822057299942,None,,,,21015,0002,2022_Nov_23_1234,localizer,2021.1.3,61.441742781367196,
block,faces,faces020.bmp,,,,,0,227,227,227,,,,,,,,,,,,,,,,,,,,,,,,,,,,,,,,,,,,,,,,,,None,,760.8822057299942,None,760.8822057299942,None,2022-11-23-12:46:32.673999,760.8839253999904,761.1988752999896,760.8839253999904,None,None,760.8839253999904,None,761.6829761299989,None,,,,21015,0002,2022_Nov_23_1234,localizer,2021.1.3,61.441742781367196,
block_end,faces,faces012.bmp,,,,,0,228,228,228,,,,,,,,,,,,,,,,,,,,,,,,,,,,,,,,,,,,,,,,,,None,,761.6829761299989,None,761.6829761299989,None,2022-11-23-12:46:33.477849,761.6851685000001,761.9994349999906,761.6851685000001,761.6851685000001,None,761.6851685000001,761.6851685000001,762.4985273299928,None,,,,21015,0002,2022_Nov_23_1234,localizer,2021.1.3,61.441742781367196,
block_start,objects,objects070.bmp,,,,,0,229,229,229,,,,,,,,,,,,,,,,,,,,,,,,,,,,,,,,,,,,,,,,,,t,1.7835163999989163,762.498373800001,None,762.498373800001,None,2022-11-23-12:46:36.090998,764.3001526000007,764.6154783999955,764.3001526000007,None,None,764.3001526000007,None,765.0998386300009,None,,,,21015,0002,2022_Nov_23_1234,localizer,2021.1.3,61.441742781367196,
block,objects,objects026.bmp,,,,,0,230,230,230,,,,,,,,,,,,,,,,,,,,,,,,,,,,,,,,,,,,,,,,,,None,,765.0998386300009,None,765.0998386300009,None,2022-11-23-12:46:36.894756,765.1015411999979,765.4155900999904,765.1015411999979,765.1015411999979,None,765.1015411999979,765.1015411999979,765.9159473299908,None,,,,21015,0002,2022_Nov_23_1234,localizer,2021.1.3,61.441742781367196,
block,objects,objects003.bmp,,,,,0,231,231,231,,,,,,,,,,,,,,,,,,,,,,,,,,,,,,,,,,,,,,,,,,None,,765.9159473299908,None,765.9159473299908,None,2022-11-23-12:46:37.708932,765.9165930000017,766.2162825999985,765.9165930000017,None,None,765.9165930000017,None,766.7161328299946,None,,,,21015,0002,2022_Nov_23_1234,localizer,2021.1.3,61.441742781367196,
block,objects,objects069.bmp,,,,,0,232,232,232,,,,,,,,,,,,,,,,,,,,,,,,,,,,,,,,,,,,,,,,,,None,,766.7161328299946,None,766.7161328299946,None,2022-11-23-12:46:38.511091,766.7302135999926,767.0323243000021,766.7302135999926,766.7302135999926,None,766.7302135999926,766.7302135999926,767.5337070299968,None,,,,21015,0002,2022_Nov_23_1234,localizer,2021.1.3,61.441742781367196,
block,objects,objects059.bmp,,,,,0,233,233,233,,,,,,,,,,,,,,,,,,,,,,,,,,,,,,,,,,,,,,,,,,None,,767.5337070299968,None,767.5337070299968,None,2022-11-23-12:46:39.327459,767.5343228999991,767.8345371000032,767.5343228999991,None,None,767.5343228999991,None,768.3387254299989,None,,,,21015,0002,2022_Nov_23_1234,localizer,2021.1.3,61.441742781367196,
block,objects,objects034.bmp,,,,,0,234,234,234,,,,,,,,,,,,,,,,,,,,,,,,,,,,,,,,,,,,,,,,,,None,,768.3387254299989,None,768.3387254299989,None,2022-11-23-12:46:40.136808,768.3446740999934,768.6485814999905,768.3446740999934,None,None,768.3446740999934,None,769.1492298299956,None,,,,21015,0002,2022_Nov_23_1234,localizer,2021.1.3,61.441742781367196,
block,objects,objects074.bmp,,,,,0,235,235,235,,,,,,,,,,,,,,,,,,,,,,,,,,,,,,,,,,,,,,,,,,None,,769.1492298299956,None,769.1492298299956,None,2022-11-23-12:46:40.942147,769.1499703000009,769.4491605999938,769.1499703000009,None,None,769.1499703000009,None,769.9493272299981,None,,,,21015,0002,2022_Nov_23_1234,localizer,2021.1.3,61.441742781367196,
block,objects,objects005.bmp,,,,,0,236,236,236,,,,,,,,,,,,,,,,,,,,,,,,,,,,,,,,,,,,,,,,,,None,,769.9493272299981,None,769.9493272299981,None,2022-11-23-12:46:41.744128,769.95015959999,770.249161499989,769.95015959999,769.95015959999,None,769.95015959999,769.95015959999,770.7493378299944,None,,,,21015,0002,2022_Nov_23_1234,localizer,2021.1.3,61.441742781367196,
block,objects,objects033.bmp,,,,,0,237,237,237,,,,,,,,,,,,,,,,,,,,,,,,,,,,,,,,,,,,,,,,,,None,,770.7493378299944,None,770.7493378299944,None,2022-11-23-12:46:42.544151,770.7610990999965,771.06627689999,770.7610990999965,770.7610990999965,None,770.7610990999965,770.7610990999965,771.5653775299972,None,,,,21015,0002,2022_Nov_23_1234,localizer,2021.1.3,61.441742781367196,
block,objects,objects028.bmp,,,,,0,238,238,238,,,,,,,,,,,,,,,,,,,,,,,,,,,,,,,,,,,,,,,,,,None,,771.5653775299972,None,771.5653775299972,None,2022-11-23-12:46:43.357453,771.5699498000031,771.882128600002,771.5699498000031,None,None,771.5699498000031,None,772.3824790299943,None,,,,21015,0002,2022_Nov_23_1234,localizer,2021.1.3,61.441742781367196,
block,objects,objects014.bmp,,,,,0,239,239,239,,,,,,,,,,,,,,,,,,,,,,,,,,,,,,,,,,,,,,,,,,None,,772.3824790299943,None,772.3824790299943,None,2022-11-23-12:46:44.175328,772.3913984999963,772.6989842999901,772.3913984999963,None,None,772.3913984999963,None,773.1876852300004,None,,,,21015,0002,2022_Nov_23_1234,localizer,2021.1.3,61.441742781367196,
block,objects,objects016.bmp,,,,,0,240,240,240,,,,,,,,,,,,,,,,,,,,,,,,,,,,,,,,,,,,,,,,,,None,,773.1876852300004,None,773.1876852300004,None,2022-11-23-12:46:44.985485,773.1931296999974,773.4989372999989,773.1931296999974,None,None,773.1931296999974,None,773.9993623299918,None,,,,21015,0002,2022_Nov_23_1234,localizer,2021.1.3,61.441742781367196,
block,objects,objects008.bmp,,,,,0,241,241,241,,,,,,,,,,,,,,,,,,,,,,,,,,,,,,,,,,,,,,,,,,None,,773.9993623299918,None,773.9993623299918,None,2022-11-23-12:46:45.792448,774.0000808999903,774.2990148999961,774.0000808999903,None,None,774.0000808999903,None,774.8157808299977,None,,,,21015,0002,2022_Nov_23_1234,localizer,2021.1.3,61.441742781367196,
block,objects,objects084.bmp,,,,,0,242,242,242,,,,,,,,,,,,,,,,,,,,,,,,,,,,,,,,,,,,,,,,,,None,,774.8157808299977,None,774.8157808299977,None,2022-11-23-12:46:46.607675,774.8172843999928,775.1323277999909,774.8172843999928,None,None,774.8172843999928,None,775.6327082299933,None,,,,21015,0002,2022_Nov_23_1234,localizer,2021.1.3,61.441742781367196,
block_end,objects,objects024.bmp,,,,,0,243,243,243,,,,,,,,,,,,,,,,,,,,,,,,,,,,,,,,,,,,,,,,,,None,,775.6327082299933,None,775.6327082299933,None,2022-11-23-12:46:47.425739,775.6331462999951,775.9323095,775.6331462999951,None,None,775.6331462999951,None,776.4327909300002,None,,,,21015,0002,2022_Nov_23_1234,localizer,2021.1.3,61.441742781367196,
,,,,,,,,,,,,,,,,,,,,,,,,,,,,,,,,,,,,,,,,,,,,,,,,,,,,,,,,,,,,,,,,,,,,,776.4379494000023,None,,,,,,,
