block_type,condition,img_name,Button.thisRepN,Button.thisTrialN,Button.thisN,Button.thisIndex,trials.thisRepN,trials.thisTrialN,trials.thisN,trials.thisIndex,Ready_experimenter_text.started,Ready_experimenter_text.stopped,Ready_experimenter_resp.keys,Ready_experimenter_resp.rt,Ready_experimenter_resp.started,Ready_experimenter_resp.stopped,Alignment_background.started,Alignment_background.stopped,Alignment_image.started,Alignment_image.stopped,Alignment_resp.keys,Alignment_resp.rt,Alignment_resp.started,Alignment_resp.stopped,Button_text.started,Button_text.stopped,Index_text.started,Index_text.stopped,Index_resp.keys,Index_resp.rt,Index_resp.started,Index_resp.stopped,Middle_text.started,Middle_text.stopped,Middle_resp.keys,Middle_resp.rt,Middle_resp.started,Middle_resp.stopped,Repeat_text.started,Repeat_text.stopped,Repeat_resp.keys,Repeat_resp.corr,Repeat_resp.rt,Repeat_resp.started,Repeat_resp.stopped,instruction_text.started,instruction_text.stopped,key_resp.keys,key_resp.rt,key_resp.started,key_resp.stopped,scanner_t.keys,scanner_t.rt,scanner_t.started,scanner_t.stopped,fixation_wait_for_t.started,fixation_wait_for_t.stopped,real_timestamp_trial_start,image.started,image.stopped,fixation.started,fixation.stopped,repeat_response.keys,repeat_response.started,repeat_response.stopped,fixation_null.started,fixation_null.stopped,repeat_response.rt,end_text.started,end_text.stopped,participant,run,date,expName,psychopyVersion,frameRate,
,,,,,,,,,,,8.37732209963724,None,return,66.61594960000366,8.37732209963724,None,,,,,,,,,,,,,,,,,,,,,,,,,,,,,,,,,,,,,,,,,,,,,,,,,,,,,,,21011,0001,2022_Sep_01_1021,localizer,2021.1.3,59.75171971141049,
,,,,,,,,,,,,,,,,,75.03831689991057,None,75.03831689991057,None,return,6.279468599706888,75.03831689991057,None,,,,,,,,,,,,,,,,,,,,,,,,,,,,,,,,,,,,,,,,,,,,,,,21011,0001,2022_Sep_01_1021,localizer,2021.1.3,59.75171971141049,
,,,0,0,0,0,,,,,,,,,,,,,,,,,,,81.34922699956223,None,82.35926189972088,None,y,3.283749300055206,82.35926189972088,None,85.65897799981758,None,b,1.4122105999849737,85.65897799981758,None,87.0974529995583,None,n,0,1.5059965997934341,87.0974529995583,None,,,,,,,,,,,,,,,,,,,,,,,,,,21011,0001,2022_Sep_01_1021,localizer,2021.1.3,59.75171971141049,
,,,,,,,,,,,,,,,,,,,,,,,,,,,,,,,,,,,,,,,,,,,,,,88.62734539993107,None,y,39.616202800069004,88.62734539993107,None,,,,,,,,,,,,,,,,,,,,21011,0001,2022_Sep_01_1021,localizer,2021.1.3,59.75171971141049,
block_start,objects,objects022.bmp,,,,,0,0,0,0,,,,,,,,,,,,,,,,,,,,,,,,,,,,,,,,,,,,,,,,,,t,16.31983910035342,128.34886629972607,None,128.34886629972607,None,2022-09-01-10:24:07.947666,144.70099109970033,145.01011369982734,144.70099109970033,None,None,144.70099109970033,None,145.49426408978178,None,,,,21011,0001,2022_Sep_01_1021,localizer,2021.1.3,59.75171971141049,
block,objects,objects082.bmp,,,,,0,1,1,1,,,,,,,,,,,,,,,,,,,,,,,,,,,,,,,,,,,,,,,,,,None,,145.49426408978178,None,145.49426408978178,None,2022-09-01-10:24:08.755780,145.509822699707,145.81261319993064,145.509822699707,None,None,145.509822699707,None,146.31670978972687,None,,,,21011,0001,2022_Sep_01_1021,localizer,2021.1.3,59.75171971141049,
block,objects,objects027.bmp,,,,,0,2,2,2,,,,,,,,,,,,,,,,,,,,,,,,,,,,,,,,,,,,,,,,,,None,,146.31670978972687,None,146.31670978972687,None,2022-09-01-10:24:09.581164,146.33515449985862,146.64368059998378,146.33515449985862,None,None,146.33515449985862,None,147.12980548972263,None,,,,21011,0001,2022_Sep_01_1021,localizer,2021.1.3,59.75171971141049,
block,objects,objects088.bmp,,,,,0,3,3,3,,,,,,,,,,,,,,,,,,,,,,,,,,,,,,,,,,,,,,,,,,None,,147.12980548972263,None,147.12980548972263,None,2022-09-01-10:24:10.389886,147.1408817996271,147.45092789968476,147.1408817996271,None,None,147.1408817996271,None,147.9440511896275,None,,,,21011,0001,2022_Sep_01_1021,localizer,2021.1.3,59.75171971141049,
block,objects,objects014.bmp,,,,,0,4,4,4,,,,,,,,,,,,,,,,,,,,,,,,,,,,,,,,,,,,,,,,,,None,,147.9440511896275,None,147.9440511896275,None,2022-09-01-10:24:11.202093,147.95261049969122,148.26158619998023,147.95261049969122,None,None,147.95261049969122,None,148.76011138996108,None,,,,21011,0001,2022_Sep_01_1021,localizer,2021.1.3,59.75171971141049,
block,objects,objects085.bmp,,,,,0,5,5,5,,,,,,,,,,,,,,,,,,,,,,,,,,,,,,,,,,,,,,,,,,None,,148.76011138996108,None,148.76011138996108,None,2022-09-01-10:24:12.018735,148.7653359998949,149.0768557996489,148.7653359998949,None,None,148.7653359998949,None,149.5768404899165,None,,,,21011,0001,2022_Sep_01_1021,localizer,2021.1.3,59.75171971141049,
block,objects,objects021.bmp,,,,,0,6,6,6,,,,,,,,,,,,,,,,,,,,,,,,,,,,,,,,,,,,,,,,,,None,,149.5768404899165,None,149.5768404899165,None,2022-09-01-10:24:12.835062,149.58526619989425,149.8934610998258,149.58526619989425,None,None,149.58526619989425,None,150.39324058992787,None,,,,21011,0001,2022_Sep_01_1021,localizer,2021.1.3,59.75171971141049,
block,objects,objects025.bmp,,,,,0,7,7,7,,,,,,,,,,,,,,,,,,,,,,,,,,,,,,,,,,,,,,,,,,None,,150.39324058992787,None,150.39324058992787,None,2022-09-01-10:24:13.651865,150.40138589963317,150.7108627995476,150.40138589963317,None,None,150.40138589963317,None,151.2102014900185,None,,,,21011,0001,2022_Sep_01_1021,localizer,2021.1.3,59.75171971141049,
block,objects,objects080.bmp,,,,,0,8,8,8,,,,,,,,,,,,,,,,,,,,,,,,,,,,,,,,,,,,,,,,,,None,,151.2102014900185,None,151.2102014900185,None,2022-09-01-10:24:14.468340,151.2185172997415,151.52640989981592,151.2185172997415,None,None,151.2185172997415,None,152.0265638896264,None,,,,21011,0001,2022_Sep_01_1021,localizer,2021.1.3,59.75171971141049,
block,objects,objects026.bmp,,,,,0,9,9,9,,,,,,,,,,,,,,,,,,,,,,,,,,,,,,,,,,,,,,,,,,None,,152.0265638896264,None,152.0265638896264,None,2022-09-01-10:24:15.284953,152.0354992998764,152.34449419984594,152.0354992998764,None,None,152.0354992998764,None,152.84758398989214,None,,,,21011,0001,2022_Sep_01_1021,localizer,2021.1.3,59.75171971141049,
block,objects,objects030.bmp,,,,,0,10,10,10,,,,,,,,,,,,,,,,,,,,,,,,,,,,,,,,,,,,,,,,,,None,,152.84758398989214,None,152.84758398989214,None,2022-09-01-10:24:16.110359,152.86786689981818,153.1773846996948,152.86786689981818,None,None,152.86786689981818,None,153.6616152900271,None,,,,21011,0001,2022_Sep_01_1021,localizer,2021.1.3,59.75171971141049,
block,objects,objects054.bmp,,,,,0,11,11,11,,,,,,,,,,,,,,,,,,,,,,,,,,,,,,,,,,,,,,,,,,None,,153.6616152900271,None,153.6616152900271,None,2022-09-01-10:24:16.923115,153.67146099964157,153.97670619981363,153.67146099964157,None,None,153.67146099964157,None,154.47834618976339,None,,,,21011,0001,2022_Sep_01_1021,localizer,2021.1.3,59.75171971141049,
block,objects,objects078.bmp,,,,,0,12,12,12,,,,,,,,,,,,,,,,,,,,,,,,,,,,,,,,,,,,,,,,,,None,,154.47834618976339,None,154.47834618976339,None,2022-09-01-10:24:17.737054,154.48683419963345,154.79341899976134,154.48683419963345,None,None,154.48683419963345,None,155.28327918965368,None,,,,21011,0001,2022_Sep_01_1021,localizer,2021.1.3,59.75171971141049,
block,objects,objects033.bmp,,,,,0,13,13,13,,,,,,,,,,,,,,,,,,,,,,,,,,,,,,,,,,,,,,,,,,None,,155.28327918965368,None,155.28327918965368,None,2022-09-01-10:24:18.549872,155.3006312996149,155.6166450995952,155.3006312996149,None,None,155.3006312996149,None,156.09341998985036,None,,,,21011,0001,2022_Sep_01_1021,localizer,2021.1.3,59.75171971141049,
block_end,objects,objects073.bmp,,,,,0,14,14,14,,,,,,,,,,,,,,,,,,,,,,,,,,,,,,,,,,,,,,,,,,None,,156.09341998985036,None,156.09341998985036,None,2022-09-01-10:24:19.352046,156.1018865997903,156.41114749992266,156.1018865997903,None,None,156.1018865997903,None,156.91667018998413,None,,,,21011,0001,2022_Sep_01_1021,localizer,2021.1.3,59.75171971141049,
null_block,null_block,null_block.bmp,,,,,0,15,15,15,,,,,,,,,,,,,,,,,,,,,,,,,,,,,,,,,,,,,,,,,,t,1.7518508001230657,156.9162423997186,None,156.9162423997186,None,2022-09-01-10:24:21.953782,158.71100377999244,None,158.71100377999244,None,None,158.71100377999244,None,158.70880409982055,None,,,,21011,0001,2022_Sep_01_1021,localizer,2021.1.3,59.75171971141049,
block_start,scrambled,scrambled005.bmp,,,,,0,16,16,16,,,,,,,,,,,,,,,,,,,,,,,,,,,,,,,,,,,,,,,,,,t,1.9563601999543607,170.7118525998667,None,170.7118525998667,None,2022-09-01-10:24:35.953417,172.7047623996623,173.01432469999418,172.7047623996623,None,None,172.7047623996623,None,173.4978657898493,None,,,,21011,0001,2022_Sep_01_1021,localizer,2021.1.3,59.75171971141049,
block,scrambled,scrambled013.bmp,,,,,0,17,17,17,,,,,,,,,,,,,,,,,,,,,,,,,,,,,,,,,,,,,,,,,,None,,173.4978657898493,None,173.4978657898493,None,2022-09-01-10:24:36.765357,173.52314729988575,173.82686219969764,173.52314729988575,None,None,173.52314729988575,None,174.3142122899182,None,,,,21011,0001,2022_Sep_01_1021,localizer,2021.1.3,59.75171971141049,
block,scrambled,scrambled036.bmp,,,,,0,18,18,18,,,,,,,,,,,,,,,,,,,,,,,,,,,,,,,,,,,,,,,,,,None,,174.3142122899182,None,174.3142122899182,None,2022-09-01-10:24:37.580731,174.33215109957382,174.64353279955685,174.33215109957382,None,None,174.33215109957382,None,175.127831989713,None,,,,21011,0001,2022_Sep_01_1021,localizer,2021.1.3,59.75171971141049,
block,scrambled,scrambled021.bmp,,,,,0,19,19,19,,,,,,,,,,,,,,,,,,,,,,,,,,,,,,,,,,,,,,,,,,None,,175.127831989713,None,175.127831989713,None,2022-09-01-10:24:38.387320,175.13950059982017,175.44450719980523,175.13950059982017,None,None,175.13950059982017,None,175.9441813899204,None,,,,21011,0001,2022_Sep_01_1021,localizer,2021.1.3,59.75171971141049,
block,scrambled,scrambled047.bmp,,,,,0,20,20,20,,,,,,,,,,,,,,,,,,,,,,,,,,,,,,,,,,,,,,,,,,None,,175.9441813899204,None,175.9441813899204,None,2022-09-01-10:24:39.202631,175.9523600996472,176.26097369985655,175.9523600996472,None,None,175.9523600996472,None,176.76113178981467,None,,,,21011,0001,2022_Sep_01_1021,localizer,2021.1.3,59.75171971141049,
block,scrambled,scrambled052.bmp,,,,,0,21,21,21,,,,,,,,,,,,,,,,,,,,,,,,,,,,,,,,,,,,,,,,,,None,,176.76113178981467,None,176.76113178981467,None,2022-09-01-10:24:40.021027,176.77285599987954,177.0771143999882,176.77285599987954,None,None,176.77285599987954,None,177.57706778990104,None,,,,21011,0001,2022_Sep_01_1021,localizer,2021.1.3,59.75171971141049,
block,scrambled,scrambled083.bmp,,,,,0,22,22,22,,,,,,,,,,,,,,,,,,,,,,,,,,,,,,,,,,,,,,,,,,None,,177.57706778990104,None,177.57706778990104,None,2022-09-01-10:24:40.834820,177.58592629991472,177.89456339972094,177.58592629991472,None,None,177.58592629991472,None,178.39378488976507,None,,,,21011,0001,2022_Sep_01_1021,localizer,2021.1.3,59.75171971141049,
block,scrambled,scrambled035.bmp,,,,,0,23,23,23,,,,,,,,,,,,,,,,,,,,,,,,,,,,,,,,,,,,,,,,,,None,,178.39378488976507,None,178.39378488976507,None,2022-09-01-10:24:41.651309,178.40169829968363,178.71103349979967,178.40169829968363,None,None,178.40169829968363,None,179.21179309003054,None,,,,21011,0001,2022_Sep_01_1021,localizer,2021.1.3,59.75171971141049,
block,scrambled,scrambled035.bmp,,,,,0,24,24,24,,,,,,,,,,,,,,,,,,,,,,,,,,,,,,,,,,,,,,,,,,None,,179.21179309003054,None,179.21179309003054,None,2022-09-01-10:24:42.472891,179.22106279991567,179.52756509976462,179.22106279991567,None,None,179.22106279991567,None,180.03344248961656,None,,,,21011,0001,2022_Sep_01_1021,localizer,2021.1.3,59.75171971141049,
block,scrambled,scrambled068.bmp,,,,,0,25,25,25,,,,,,,,,,,,,,,,,,,,,,,,,,,,,,,,,,,,,,,,,,None,,180.03344248961656,None,180.03344248961656,None,2022-09-01-10:24:43.299949,180.0502820997499,180.36165229976177,180.0502820997499,None,y,180.0502820997499,None,180.84363348996266,None,0.030931499786674976,,,21011,0001,2022_Sep_01_1021,localizer,2021.1.3,59.75171971141049,
block,scrambled,scrambled043.bmp,,,,,0,26,26,26,,,,,,,,,,,,,,,,,,,,,,,,,,,,,,,,,,,,,,,,,,None,,180.84363348996266,None,180.84363348996266,None,2022-09-01-10:24:44.101776,180.85163279995322,181.1663068998605,180.85163279995322,None,None,180.85163279995322,None,181.66029838966205,None,,,,21011,0001,2022_Sep_01_1021,localizer,2021.1.3,59.75171971141049,
block,scrambled,scrambled042.bmp,,,,,0,27,27,27,,,,,,,,,,,,,,,,,,,,,,,,,,,,,,,,,,,,,,,,,,None,,181.66029838966205,None,181.66029838966205,None,2022-09-01-10:24:44.918798,181.66843239963055,181.97839659964666,181.66843239963055,None,None,181.66843239963055,None,182.46478728977962,None,,,,21011,0001,2022_Sep_01_1021,localizer,2021.1.3,59.75171971141049,
block,scrambled,scrambled055.bmp,,,,,0,28,28,28,,,,,,,,,,,,,,,,,,,,,,,,,,,,,,,,,,,,,,,,,,None,,182.46478728977962,None,182.46478728977962,None,2022-09-01-10:24:45.732237,182.48327439976856,182.7940316000022,182.48327439976856,None,None,182.48327439976856,None,183.2783514897339,None,,,,21011,0001,2022_Sep_01_1021,localizer,2021.1.3,59.75171971141049,
block,scrambled,scrambled082.bmp,,,,,0,29,29,29,,,,,,,,,,,,,,,,,,,,,,,,,,,,,,,,,,,,,,,,,,None,,183.2783514897339,None,183.2783514897339,None,2022-09-01-10:24:46.539099,183.29175370000303,183.59687339980155,183.29175370000303,None,None,183.29175370000303,None,184.09464218961074,None,,,,21011,0001,2022_Sep_01_1021,localizer,2021.1.3,59.75171971141049,
block_end,scrambled,scrambled032.bmp,,,,,0,30,30,30,,,,,,,,,,,,,,,,,,,,,,,,,,,,,,,,,,,,,,,,,,None,,184.09464218961074,None,184.09464218961074,None,2022-09-01-10:24:47.352567,184.10239899996668,184.41381259961054,184.10239899996668,None,None,184.10239899996668,None,184.9102933898568,None,,,,21011,0001,2022_Sep_01_1021,localizer,2021.1.3,59.75171971141049,
block_start,scenes,scenes063.bmp,,,,,0,31,31,31,,,,,,,,,,,,,,,,,,,,,,,,,,,,,,,,,,,,,,,,,,t,1.757753999903798,184.9103465997614,None,184.9103465997614,None,2022-09-01-10:24:49.951322,186.70374229969457,187.01030069962144,186.70374229969457,None,None,186.70374229969457,None,187.51053368980064,None,,,,21011,0001,2022_Sep_01_1021,localizer,2021.1.3,59.75171971141049,
block,scenes,scenes016.bmp,,,,,0,32,32,32,,,,,,,,,,,,,,,,,,,,,,,,,,,,,,,,,,,,,,,,,,None,,187.51053368980064,None,187.51053368980064,None,2022-09-01-10:24:50.769150,187.5262261996977,187.83426079992205,187.5262261996977,None,None,187.5262261996977,None,188.3271118898876,None,,,,21011,0001,2022_Sep_01_1021,localizer,2021.1.3,59.75171971141049,
block,scenes,scenes011.bmp,,,,,0,33,33,33,,,,,,,,,,,,,,,,,,,,,,,,,,,,,,,,,,,,,,,,,,None,,188.3271118898876,None,188.3271118898876,None,2022-09-01-10:24:51.585685,188.33187199989334,188.64384799962863,188.33187199989334,None,None,188.33187199989334,None,189.14380408991127,None,,,,21011,0001,2022_Sep_01_1021,localizer,2021.1.3,59.75171971141049,
block,scenes,scenes052.bmp,,,,,0,34,34,34,,,,,,,,,,,,,,,,,,,,,,,,,,,,,,,,,,,,,,,,,,None,,189.14380408991127,None,189.14380408991127,None,2022-09-01-10:24:52.402151,189.15325360000134,189.46008549956605,189.15325360000134,None,None,189.15325360000134,None,189.96183398999273,None,,,,21011,0001,2022_Sep_01_1021,localizer,2021.1.3,59.75171971141049,
block,scenes,scenes028.bmp,,,,,0,35,35,35,,,,,,,,,,,,,,,,,,,,,,,,,,,,,,,,,,,,,,,,,,None,,189.96183398999273,None,189.96183398999273,None,2022-09-01-10:24:53.223254,189.97796139959246,190.27734429994598,189.97796139959246,None,None,189.97796139959246,None,190.77935199001803,None,,,,21011,0001,2022_Sep_01_1021,localizer,2021.1.3,59.75171971141049,
block,scenes,scenes015.bmp,,,,,0,36,36,36,,,,,,,,,,,,,,,,,,,,,,,,,,,,,,,,,,,,,,,,,,None,,190.77935199001803,None,190.77935199001803,None,2022-09-01-10:24:54.040917,190.79602199979126,191.11044779978693,190.79602199979126,None,None,190.79602199979126,None,191.5937800899148,None,,,,21011,0001,2022_Sep_01_1021,localizer,2021.1.3,59.75171971141049,
block,scenes,scenes059.bmp,,,,,0,37,37,37,,,,,,,,,,,,,,,,,,,,,,,,,,,,,,,,,,,,,,,,,,None,,191.5937800899148,None,191.5937800899148,None,2022-09-01-10:24:54.852182,191.6021683998406,191.91089749988168,191.6021683998406,None,None,191.6021683998406,None,192.41118498966097,None,,,,21011,0001,2022_Sep_01_1021,localizer,2021.1.3,59.75171971141049,
block,scenes,scenes005.bmp,,,,,0,38,38,38,,,,,,,,,,,,,,,,,,,,,,,,,,,,,,,,,,,,,,,,,,None,,192.41118498966097,None,192.41118498966097,None,2022-09-01-10:24:55.670990,192.42079969961196,192.72800929984078,192.42079969961196,None,None,192.42079969961196,None,193.23384048957377,None,,,,21011,0001,2022_Sep_01_1021,localizer,2021.1.3,59.75171971141049,
block,scenes,scenes023.bmp,,,,,0,39,39,39,,,,,,,,,,,,,,,,,,,,,,,,,,,,,,,,,,,,,,,,,,None,,193.23384048957377,None,193.23384048957377,None,2022-09-01-10:24:56.499434,193.25315839983523,193.5625053998083,193.25315839983523,None,None,193.25315839983523,None,194.04370858967303,None,,,,21011,0001,2022_Sep_01_1021,localizer,2021.1.3,59.75171971141049,
block,scenes,scenes081.bmp,,,,,0,40,40,40,,,,,,,,,,,,,,,,,,,,,,,,,,,,,,,,,,,,,,,,,,None,,194.04370858967303,None,194.04370858967303,None,2022-09-01-10:24:57.302279,194.05303679965436,194.36069759959355,194.05303679965436,None,None,194.05303679965436,None,194.86055418970062,None,,,,21011,0001,2022_Sep_01_1021,localizer,2021.1.3,59.75171971141049,
block,scenes,scenes022.bmp,,,,,0,41,41,41,,,,,,,,,,,,,,,,,,,,,,,,,,,,,,,,,,,,,,,,,,None,,194.86055418970062,None,194.86055418970062,None,2022-09-01-10:24:58.118031,194.86986719956622,195.1771252998151,194.86986719956622,None,None,194.86986719956622,None,195.67762688994407,None,,,,21011,0001,2022_Sep_01_1021,localizer,2021.1.3,59.75171971141049,
block,scenes,scenes027.bmp,,,,,0,42,42,42,,,,,,,,,,,,,,,,,,,,,,,,,,,,,,,,,,,,,,,,,,None,,195.67762688994407,None,195.67762688994407,None,2022-09-01-10:24:58.937665,195.68954089982435,195.99394219974056,195.68954089982435,None,None,195.68954089982435,None,196.4934624897316,None,,,,21011,0001,2022_Sep_01_1021,localizer,2021.1.3,59.75171971141049,
block,scenes,scenes010.bmp,,,,,0,43,43,43,,,,,,,,,,,,,,,,,,,,,,,,,,,,,,,,,,,,,,,,,,None,,196.4934624897316,None,196.4934624897316,None,2022-09-01-10:24:59.751973,196.50253709964454,196.81469189981,196.50253709964454,None,None,196.50253709964454,None,197.31048798961564,None,,,,21011,0001,2022_Sep_01_1021,localizer,2021.1.3,59.75171971141049,
block,scenes,scenes001.bmp,,,,,0,44,44,44,,,,,,,,,,,,,,,,,,,,,,,,,,,,,,,,,,,,,,,,,,None,,197.31048798961564,None,197.31048798961564,None,2022-09-01-10:25:00.569175,197.3194481995888,197.62715489976108,197.3194481995888,None,None,197.3194481995888,None,198.1268844895996,None,,,,21011,0001,2022_Sep_01_1021,localizer,2021.1.3,59.75171971141049,
block_end,scenes,scenes043.bmp,,,,,0,45,45,45,,,,,,,,,,,,,,,,,,,,,,,,,,,,,,,,,,,,,,,,,,None,,198.1268844895996,None,198.1268844895996,None,2022-09-01-10:25:01.385383,198.13589189993218,198.44387919967994,198.13589189993218,None,None,198.13589189993218,None,198.94411438964306,None,,,,21011,0001,2022_Sep_01_1021,localizer,2021.1.3,59.75171971141049,
block_start,faces,faces011.bmp,,,,,0,46,46,46,,,,,,,,,,,,,,,,,,,,,,,,,,,,,,,,,,,,,,,,,,t,1.7241041003726423,198.94407969992608,None,198.94407969992608,None,2022-09-01-10:25:03.951895,200.70273249968886,201.01060149958357,200.70273249968886,None,None,200.70273249968886,None,201.51060899002476,None,,,,21011,0001,2022_Sep_01_1021,localizer,2021.1.3,59.75171971141049,
block,faces,faces027.bmp,,,,,0,47,47,47,,,,,,,,,,,,,,,,,,,,,,,,,,,,,,,,,,,,,,,,,,None,,201.51060899002476,None,201.51060899002476,None,2022-09-01-10:25:04.769798,201.52172319963574,201.82722399989143,201.52172319963574,None,None,201.52172319963574,None,202.32699908996,None,,,,21011,0001,2022_Sep_01_1021,localizer,2021.1.3,59.75171971141049,
block,faces,faces067.bmp,,,,,0,48,48,48,,,,,,,,,,,,,,,,,,,,,,,,,,,,,,,,,,,,,,,,,,None,,202.32699908996,None,202.32699908996,None,2022-09-01-10:25:05.586082,202.33853299962357,202.64383439999074,202.33853299962357,None,None,202.33853299962357,None,203.14392258999868,None,,,,21011,0001,2022_Sep_01_1021,localizer,2021.1.3,59.75171971141049,
block,faces,faces023.bmp,,,,,0,49,49,49,,,,,,,,,,,,,,,,,,,,,,,,,,,,,,,,,,,,,,,,,,None,,203.14392258999868,None,203.14392258999868,None,2022-09-01-10:25:06.403116,203.1489758999087,203.46036699973047,203.1489758999087,None,None,203.1489758999087,None,203.9609297898598,None,,,,21011,0001,2022_Sep_01_1021,localizer,2021.1.3,59.75171971141049,
block,faces,faces010.bmp,,,,,0,50,50,50,,,,,,,,,,,,,,,,,,,,,,,,,,,,,,,,,,,,,,,,,,None,,203.9609297898598,None,203.9609297898598,None,2022-09-01-10:25:07.219560,203.97290909988806,204.2788656996563,203.97290909988806,None,None,203.97290909988806,None,204.76717628985642,None,,,,21011,0001,2022_Sep_01_1021,localizer,2021.1.3,59.75171971141049,
block,faces,faces083.bmp,,,,,0,51,51,51,,,,,,,,,,,,,,,,,,,,,,,,,,,,,,,,,,,,,,,,,,None,,204.76717628985642,None,204.76717628985642,None,2022-09-01-10:25:08.031651,204.7842653999105,205.093905699905,204.7842653999105,None,None,204.7842653999105,None,205.5775114896707,None,,,,21011,0001,2022_Sep_01_1021,localizer,2021.1.3,59.75171971141049,
block,faces,faces049.bmp,,,,,0,52,52,52,,,,,,,,,,,,,,,,,,,,,,,,,,,,,,,,,,,,,,,,,,None,,205.5775114896707,None,205.5775114896707,None,2022-09-01-10:25:08.837141,205.58852579956874,205.8941143997945,205.58852579956874,None,None,205.58852579956874,None,206.3947239898145,None,,,,21011,0001,2022_Sep_01_1021,localizer,2021.1.3,59.75171971141049,
block,faces,faces018.bmp,,,,,0,53,53,53,,,,,,,,,,,,,,,,,,,,,,,,,,,,,,,,,,,,,,,,,,None,,206.3947239898145,None,206.3947239898145,None,2022-09-01-10:25:09.654526,206.40643360000104,206.71054709982127,206.40643360000104,None,None,206.40643360000104,None,207.2112461899407,None,,,,21011,0001,2022_Sep_01_1021,localizer,2021.1.3,59.75171971141049,
block,faces,faces037.bmp,,,,,0,54,54,54,,,,,,,,,,,,,,,,,,,,,,,,,,,,,,,,,,,,,,,,,,None,,207.2112461899407,None,207.2112461899407,None,2022-09-01-10:25:10.471071,207.2228776998818,207.5274872998707,207.2228776998818,None,None,207.2228776998818,None,208.02974278973414,None,,,,21011,0001,2022_Sep_01_1021,localizer,2021.1.3,59.75171971141049,
block,faces,faces073.bmp,,,,,0,55,55,55,,,,,,,,,,,,,,,,,,,,,,,,,,,,,,,,,,,,,,,,,,None,,208.02974278973414,None,208.02974278973414,None,2022-09-01-10:25:11.292326,208.0428030998446,208.34382750000805,208.0428030998446,None,None,208.0428030998446,None,208.84383448986335,None,,,,21011,0001,2022_Sep_01_1021,localizer,2021.1.3,59.75171971141049,
block,faces,faces014.bmp,,,,,0,56,56,56,,,,,,,,,,,,,,,,,,,,,,,,,,,,,,,,,,,,,,,,,,None,,208.84383448986335,None,208.84383448986335,None,2022-09-01-10:25:12.102476,208.84857209958136,209.16047769971192,208.84857209958136,None,None,208.84857209958136,None,209.66095148986204,None,,,,21011,0001,2022_Sep_01_1021,localizer,2021.1.3,59.75171971141049,
block,faces,faces065.bmp,,,,,0,57,57,57,,,,,,,,,,,,,,,,,,,,,,,,,,,,,,,,,,,,,,,,,,None,,209.66095148986204,None,209.66095148986204,None,2022-09-01-10:25:12.920774,209.67883230000734,209.9939189995639,209.67883230000734,None,None,209.67883230000734,None,210.4773997900076,None,,,,21011,0001,2022_Sep_01_1021,localizer,2021.1.3,59.75171971141049,
block,faces,faces006.bmp,,,,,0,58,58,58,,,,,,,,,,,,,,,,,,,,,,,,,,,,,,,,,,,,,,,,,,None,,210.4773997900076,None,210.4773997900076,None,2022-09-01-10:25:13.736331,210.486347399652,210.79462759988382,210.486347399652,None,None,210.486347399652,None,211.29584738966076,None,,,,21011,0001,2022_Sep_01_1021,localizer,2021.1.3,59.75171971141049,
block,faces,faces044.bmp,,,,,0,59,59,59,,,,,,,,,,,,,,,,,,,,,,,,,,,,,,,,,,,,,,,,,,None,,211.29584738966076,None,211.29584738966076,None,2022-09-01-10:25:14.555670,211.30781529983506,211.61143999965861,211.30781529983506,None,None,211.30781529983506,None,212.11133108967914,None,,,,21011,0001,2022_Sep_01_1021,localizer,2021.1.3,59.75171971141049,
block_end,faces,faces012.bmp,,,,,0,60,60,60,,,,,,,,,,,,,,,,,,,,,,,,,,,,,,,,,,,,,,,,,,None,,212.11133108967914,None,212.11133108967914,None,2022-09-01-10:25:15.370817,212.1230566999875,212.42726649995893,212.1230566999875,None,None,212.1230566999875,None,212.92807208960875,None,,,,21011,0001,2022_Sep_01_1021,localizer,2021.1.3,59.75171971141049,
block_start,faces,faces025.bmp,,,,,0,61,61,61,,,,,,,,,,,,,,,,,,,,,,,,,,,,,,,,,,,,,,,,,,t,1.7401172001846135,212.9280845997855,None,212.9280845997855,None,2022-09-01-10:25:17.952589,214.70349139999598,215.01115079969168,214.70349139999598,None,None,214.70349139999598,None,215.51112828990443,None,,,,21011,0001,2022_Sep_01_1021,localizer,2021.1.3,59.75171971141049,
block,faces,faces078.bmp,,,,,0,62,62,62,,,,,,,,,,,,,,,,,,,,,,,,,,,,,,,,,,,,,,,,,,None,,215.51112828990443,None,215.51112828990443,None,2022-09-01-10:25:18.770957,215.5230364999734,215.82717409962788,215.5230364999734,None,None,215.5230364999734,None,216.3274804896675,None,,,,21011,0001,2022_Sep_01_1021,localizer,2021.1.3,59.75171971141049,
block,faces,faces048.bmp,,,,,0,63,63,63,,,,,,,,,,,,,,,,,,,,,,,,,,,,,,,,,,,,,,,,,,None,,216.3274804896675,None,216.3274804896675,None,2022-09-01-10:25:19.586118,216.33859199984,216.64405679982156,216.33859199984,None,None,216.33859199984,None,217.14394748983904,None,,,,21011,0001,2022_Sep_01_1021,localizer,2021.1.3,59.75171971141049,
block,faces,faces039.bmp,,,,,0,64,64,64,,,,,,,,,,,,,,,,,,,,,,,,,,,,,,,,,,,,,,,,,,None,,217.14394748983904,None,217.14394748983904,None,2022-09-01-10:25:20.402611,217.15488999988884,217.46072429977357,217.15488999988884,None,None,217.15488999988884,None,217.96200238987802,None,,,,21011,0001,2022_Sep_01_1021,localizer,2021.1.3,59.75171971141049,
block,faces,faces002.bmp,,,,,0,65,65,65,,,,,,,,,,,,,,,,,,,,,,,,,,,,,,,,,,,,,,,,,,None,,217.96200238987802,None,217.96200238987802,None,2022-09-01-10:25:21.222523,217.97502259956673,218.27733359998092,217.97502259956673,None,None,217.97502259956673,None,218.78043588977306,None,,,,21011,0001,2022_Sep_01_1021,localizer,2021.1.3,59.75171971141049,
block,faces,faces019.bmp,,,,,0,66,66,66,,,,,,,,,,,,,,,,,,,,,,,,,,,,,,,,,,,,,,,,,,None,,218.78043588977306,None,218.78043588977306,None,2022-09-01-10:25:22.041053,218.79860829981044,219.110574899707,218.79860829981044,None,None,218.79860829981044,None,219.5953770897351,None,,,,21011,0001,2022_Sep_01_1021,localizer,2021.1.3,59.75171971141049,
block,faces,faces069.bmp,,,,,0,67,67,67,,,,,,,,,,,,,,,,,,,,,,,,,,,,,,,,,,,,,,,,,,None,,219.5953770897351,None,219.5953770897351,None,2022-09-01-10:25:22.856069,219.61070099985227,219.91085230000317,219.61070099985227,None,None,219.61070099985227,None,220.41092028962447,None,,,,21011,0001,2022_Sep_01_1021,localizer,2021.1.3,59.75171971141049,
block,faces,faces023.bmp,,,,,0,68,68,68,,,,,,,,,,,,,,,,,,,,,,,,,,,,,,,,,,,,,,,,,,None,,220.41092028962447,None,220.41092028962447,None,2022-09-01-10:25:23.669827,220.4119071997702,220.72729189973325,220.4119071997702,None,None,220.4119071997702,None,221.22741348976268,None,,,,21011,0001,2022_Sep_01_1021,localizer,2021.1.3,59.75171971141049,
block,faces,faces011.bmp,,,,,0,69,69,69,,,,,,,,,,,,,,,,,,,,,,,,,,,,,,,,,,,,,,,,,,None,,221.22741348976268,None,221.22741348976268,None,2022-09-01-10:25:24.486052,221.22860709996894,221.54411579994485,221.22860709996894,None,None,221.22860709996894,None,222.03380218967794,None,,,,21011,0001,2022_Sep_01_1021,localizer,2021.1.3,59.75171971141049,
block,faces,faces070.bmp,,,,,0,70,70,70,,,,,,,,,,,,,,,,,,,,,,,,,,,,,,,,,,,,,,,,,,None,,222.03380218967794,None,222.03380218967794,None,2022-09-01-10:25:25.300365,222.05177199980244,222.3606837997213,222.05177199980244,None,None,222.05177199980244,None,222.84388878969474,None,,,,21011,0001,2022_Sep_01_1021,localizer,2021.1.3,59.75171971141049,
block,faces,faces089.bmp,,,,,0,71,71,71,,,,,,,,,,,,,,,,,,,,,,,,,,,,,,,,,,,,,,,,,,None,,222.84388878969474,None,222.84388878969474,None,2022-09-01-10:25:26.102293,222.852442599833,223.16067639971152,222.852442599833,None,None,222.852442599833,None,223.66054088976233,None,,,,21011,0001,2022_Sep_01_1021,localizer,2021.1.3,59.75171971141049,
block,faces,faces088.bmp,,,,,0,72,72,72,,,,,,,,,,,,,,,,,,,,,,,,,,,,,,,,,,,,,,,,,,None,,223.66054088976233,None,223.66054088976233,None,2022-09-01-10:25:26.919488,223.67064469959587,223.97724689962342,223.67064469959587,None,None,223.67064469959587,None,224.47829528972505,None,,,,21011,0001,2022_Sep_01_1021,localizer,2021.1.3,59.75171971141049,
block,faces,faces005.bmp,,,,,0,73,73,73,,,,,,,,,,,,,,,,,,,,,,,,,,,,,,,,,,,,,,,,,,None,,224.47829528972505,None,224.47829528972505,None,2022-09-01-10:25:27.738110,224.48981539998204,224.79391369968653,224.48981539998204,None,None,224.48981539998204,None,225.29398309001698,None,,,,21011,0001,2022_Sep_01_1021,localizer,2021.1.3,59.75171971141049,
block,faces,faces065.bmp,,,,,0,74,74,74,,,,,,,,,,,,,,,,,,,,,,,,,,,,,,,,,,,,,,,,,,None,,225.29398309001698,None,225.29398309001698,None,2022-09-01-10:25:28.552629,225.29544669995084,225.61125789955258,225.29544669995084,None,None,225.29544669995084,None,226.11109668975695,None,,,,21011,0001,2022_Sep_01_1021,localizer,2021.1.3,59.75171971141049,
block_end,faces,faces062.bmp,,,,,0,75,75,75,,,,,,,,,,,,,,,,,,,,,,,,,,,,,,,,,,,,,,,,,,None,,226.11109668975695,None,226.11109668975695,None,2022-09-01-10:25:29.370924,226.12246159976348,226.4275529999286,226.12246159976348,None,None,226.12246159976348,None,226.9336907899007,None,,,,21011,0001,2022_Sep_01_1021,localizer,2021.1.3,59.75171971141049,
block_start,objects,objects029.bmp,,,,,0,76,76,76,,,,,,,,,,,,,,,,,,,,,,,,,,,,,,,,,,,,,,,,,,t,1.7373623996973038,226.9307856997475,None,226.9307856997475,None,2022-09-01-10:25:31.952937,228.70492369960994,229.0169463995844,228.70492369960994,None,None,228.70492369960994,None,229.51063138972967,None,,,,21011,0001,2022_Sep_01_1021,localizer,2021.1.3,59.75171971141049,
block,objects,objects060.bmp,,,,,0,77,77,77,,,,,,,,,,,,,,,,,,,,,,,,,,,,,,,,,,,,,,,,,,None,,229.51063138972967,None,229.51063138972967,None,2022-09-01-10:25:32.769277,229.51948749972507,229.82752109970897,229.51948749972507,None,None,229.51948749972507,None,230.328209289629,None,,,,21011,0001,2022_Sep_01_1021,localizer,2021.1.3,59.75171971141049,
block,objects,objects053.bmp,,,,,0,78,78,78,,,,,,,,,,,,,,,,,,,,,,,,,,,,,,,,,,,,,,,,,,None,,230.328209289629,None,230.328209289629,None,2022-09-01-10:25:33.587839,230.339662599843,230.64401309983805,230.339662599843,None,None,230.339662599843,None,231.14483228959142,None,,,,21011,0001,2022_Sep_01_1021,localizer,2021.1.3,59.75171971141049,
block,objects,objects021.bmp,,,,,0,79,79,79,,,,,,,,,,,,,,,,,,,,,,,,,,,,,,,,,,,,,,,,,,None,,231.14483228959142,None,231.14483228959142,None,2022-09-01-10:25:34.403780,231.14522009994835,231.4608814995736,231.14522009994835,None,None,231.14522009994835,None,231.96056688977404,None,,,,21011,0001,2022_Sep_01_1021,localizer,2021.1.3,59.75171971141049,
block,objects,objects027.bmp,,,,,0,80,80,80,,,,,,,,,,,,,,,,,,,,,,,,,,,,,,,,,,,,,,,,,,None,,231.96056688977404,None,231.96056688977404,None,2022-09-01-10:25:35.219643,231.96160839963704,232.27728329971433,231.96160839963704,None,None,231.96160839963704,None,232.777453489881,None,,,,21011,0001,2022_Sep_01_1021,localizer,2021.1.3,59.75171971141049,
block,objects,objects081.bmp,,,,,0,81,81,81,,,,,,,,,,,,,,,,,,,,,,,,,,,,,,,,,,,,,,,,,,None,,232.777453489881,None,232.777453489881,None,2022-09-01-10:25:36.036107,232.7864334997721,233.09400199959055,232.7864334997721,None,None,232.7864334997721,None,233.59427938964217,None,,,,21011,0001,2022_Sep_01_1021,localizer,2021.1.3,59.75171971141049,
block,objects,objects015.bmp,,,,,0,82,82,82,,,,,,,,,,,,,,,,,,,,,,,,,,,,,,,,,,,,,,,,,,None,,233.59427938964217,None,233.59427938964217,None,2022-09-01-10:25:36.852923,233.60486509976909,233.91080519976094,233.60486509976909,None,None,233.60486509976909,None,234.400561190024,None,,,,21011,0001,2022_Sep_01_1021,localizer,2021.1.3,59.75171971141049,
block,objects,objects070.bmp,,,,,0,83,83,83,,,,,,,,,,,,,,,,,,,,,,,,,,,,,,,,,,,,,,,,,,None,,234.400561190024,None,234.400561190024,None,2022-09-01-10:25:37.666938,234.41657839994878,234.72731939982623,234.41657839994878,None,None,234.41657839994878,None,235.2114792897366,None,,,,21011,0001,2022_Sep_01_1021,localizer,2021.1.3,59.75171971141049,
block,objects,objects017.bmp,,,,,0,84,84,84,,,,,,,,,,,,,,,,,,,,,,,,,,,,,,,,,,,,,,,,,,None,,235.2114792897366,None,235.2114792897366,None,2022-09-01-10:25:38.471305,235.22164619993418,235.52736909966916,235.22164619993418,None,None,235.22164619993418,None,236.02723498996346,None,,,,21011,0001,2022_Sep_01_1021,localizer,2021.1.3,59.75171971141049,
block,objects,objects052.bmp,,,,,0,85,85,85,,,,,,,,,,,,,,,,,,,,,,,,,,,,,,,,,,,,,,,,,,None,,236.02723498996346,None,236.02723498996346,None,2022-09-01-10:25:39.285783,236.033984599635,236.344110599719,236.033984599635,None,None,236.033984599635,None,236.84637248963116,None,,,,21011,0001,2022_Sep_01_1021,localizer,2021.1.3,59.75171971141049,
block,objects,objects076.bmp,,,,,0,86,86,86,,,,,,,,,,,,,,,,,,,,,,,,,,,,,,,,,,,,,,,,,,None,,236.84637248963116,None,236.84637248963116,None,2022-09-01-10:25:40.108016,236.86130909994245,237.1612495998852,236.86130909994245,None,None,236.86130909994245,None,237.66074608992784,None,,,,21011,0001,2022_Sep_01_1021,localizer,2021.1.3,59.75171971141049,
block,objects,objects054.bmp,,,,,0,87,87,87,,,,,,,,,,,,,,,,,,,,,,,,,,,,,,,,,,,,,,,,,,None,,237.66074608992784,None,237.66074608992784,None,2022-09-01-10:25:40.919390,237.6619263999164,237.9773388998583,237.6619263999164,None,None,237.6619263999164,None,238.46221358962356,None,,,,21011,0001,2022_Sep_01_1021,localizer,2021.1.3,59.75171971141049,
block,objects,objects006.bmp,,,,,0,88,88,88,,,,,,,,,,,,,,,,,,,,,,,,,,,,,,,,,,,,,,,,,,None,,238.46221358962356,None,238.46221358962356,None,2022-09-01-10:25:41.724983,238.47974429978058,238.79423599969596,238.47974429978058,238.47974429978058,None,238.47974429978058,238.47974429978058,239.2772428899072,None,,,,21011,0001,2022_Sep_01_1021,localizer,2021.1.3,59.75171971141049,
block,objects,objects058.bmp,,,,,0,89,89,89,,,,,,,,,,,,,,,,,,,,,,,,,,,,,,,,,,,,,,,,,,None,,239.2772428899072,None,239.2772428899072,None,2022-09-01-10:25:42.535888,239.28587169991806,239.59435849962756,239.28587169991806,None,None,239.28587169991806,None,240.0953771898523,None,,,,21011,0001,2022_Sep_01_1021,localizer,2021.1.3,59.75171971141049,
block_end,objects,objects003.bmp,,,,,0,90,90,90,,,,,,,,,,,,,,,,,,,,,,,,,,,,,,,,,,,,,,,,,,None,,240.0953771898523,None,240.0953771898523,None,2022-09-01-10:25:43.355003,240.1079924996011,240.410808599554,240.1079924996011,None,None,240.1079924996011,None,240.91299168979748,None,,,,21011,0001,2022_Sep_01_1021,localizer,2021.1.3,59.75171971141049,
null_block,null_block,null_block.bmp,,,,,0,91,91,91,,,,,,,,,,,,,,,,,,,,,,,,,,,,,,,,,,,,,,,,,,t,1.7563879997469485,240.9117027996108,None,240.9117027996108,None,2022-09-01-10:25:45.953468,242.6948325897567,None,242.6948325897567,None,None,242.6948325897567,None,242.69935959996656,None,,,,21011,0001,2022_Sep_01_1021,localizer,2021.1.3,59.75171971141049,
block_start,scenes,scenes038.bmp,,,,,0,92,92,92,,,,,,,,,,,,,,,,,,,,,,,,,,,,,,,,,,,,,,,,,,t,1.9566080998629332,254.71152749983594,None,254.71152749983594,None,2022-09-01-10:25:59.956567,256.7083477997221,257.0172608997673,256.7083477997221,None,None,256.7083477997221,None,257.5117483896203,None,,,,21011,0001,2022_Sep_01_1021,localizer,2021.1.3,59.75171971141049,
block,scenes,scenes053.bmp,,,,,0,93,93,93,,,,,,,,,,,,,,,,,,,,,,,,,,,,,,,,,,,,,,,,,,None,,257.5117483896203,None,257.5117483896203,None,2022-09-01-10:26:00.771386,257.52368359966204,257.82772529963404,257.52368359966204,None,None,257.52368359966204,None,258.3287208897993,None,,,,21011,0001,2022_Sep_01_1021,localizer,2021.1.3,59.75171971141049,
block,scenes,scenes087.bmp,,,,,0,94,94,94,,,,,,,,,,,,,,,,,,,,,,,,,,,,,,,,,,,,,,,,,,None,,258.3287208897993,None,258.3287208897993,None,2022-09-01-10:26:01.588501,258.34350789990276,258.6443204996176,258.34350789990276,None,None,258.34350789990276,None,259.14413128960877,None,,,,21011,0001,2022_Sep_01_1021,localizer,2021.1.3,59.75171971141049,
block,scenes,scenes024.bmp,,,,,0,95,95,95,,,,,,,,,,,,,,,,,,,,,,,,,,,,,,,,,,,,,,,,,,None,,259.14413128960877,None,259.14413128960877,None,2022-09-01-10:26:02.411552,259.1716221999377,259.4776457999833,259.1716221999377,None,None,259.1716221999377,None,259.9616991898976,None,,,,21011,0001,2022_Sep_01_1021,localizer,2021.1.3,59.75171971141049,
block,scenes,scenes019.bmp,,,,,0,96,96,96,,,,,,,,,,,,,,,,,,,,,,,,,,,,,,,,,,,,,,,,,,None,,259.9616991898976,None,259.9616991898976,None,2022-09-01-10:26:03.222404,259.97623839974403,260.27899359958246,259.97623839974403,None,None,259.97623839974403,None,260.77781648961826,None,,,,21011,0001,2022_Sep_01_1021,localizer,2021.1.3,59.75171971141049,
block,scenes,scenes032.bmp,,,,,0,97,97,97,,,,,,,,,,,,,,,,,,,,,,,,,,,,,,,,,,,,,,,,,,None,,260.77781648961826,None,260.77781648961826,None,2022-09-01-10:26:04.036676,260.7897014999762,261.09470399981365,260.7897014999762,None,None,260.7897014999762,None,261.5945264900103,None,,,,21011,0001,2022_Sep_01_1021,localizer,2021.1.3,59.75171971141049,
block,scenes,scenes069.bmp,,,,,0,98,98,98,,,,,,,,,,,,,,,,,,,,,,,,,,,,,,,,,,,,,,,,,,None,,261.5945264900103,None,261.5945264900103,None,2022-09-01-10:26:04.853175,261.60458789998665,261.91048719966784,261.60458789998665,None,None,261.60458789998665,None,262.41153178997337,None,,,,21011,0001,2022_Sep_01_1021,localizer,2021.1.3,59.75171971141049,
block,scenes,scenes016.bmp,,,,,0,99,99,99,,,,,,,,,,,,,,,,,,,,,,,,,,,,,,,,,,,,,,,,,,None,,262.41153178997337,None,262.41153178997337,None,2022-09-01-10:26:05.671381,262.4140005996451,262.727074299939,262.4140005996451,None,None,262.4140005996451,None,263.22789638983085,None,,,,21011,0001,2022_Sep_01_1021,localizer,2021.1.3,59.75171971141049,
block,scenes,scenes055.bmp,,,,,0,100,100,100,,,,,,,,,,,,,,,,,,,,,,,,,,,,,,,,,,,,,,,,,,None,,263.22789638983085,None,263.22789638983085,None,2022-09-01-10:26:06.486490,263.23999189957976,263.5448360997252,263.23999189957976,None,None,263.23999189957976,None,264.0445585896261,None,,,,21011,0001,2022_Sep_01_1021,localizer,2021.1.3,59.75171971141049,
block,scenes,scenes046.bmp,,,,,0,101,101,101,,,,,,,,,,,,,,,,,,,,,,,,,,,,,,,,,,,,,,,,,,None,,264.0445585896261,None,264.0445585896261,None,2022-09-01-10:26:07.303404,264.05242959968746,264.361961199902,264.05242959968746,None,None,264.05242959968746,None,264.86042348975315,None,,,,21011,0001,2022_Sep_01_1021,localizer,2021.1.3,59.75171971141049,
block,scenes,scenes089.bmp,,,,,0,102,102,102,,,,,,,,,,,,,,,,,,,,,,,,,,,,,,,,,,,,,,,,,,None,,264.86042348975315,None,264.86042348975315,None,2022-09-01-10:26:08.119704,264.8694336996414,265.1784397996962,264.8694336996414,None,None,264.8694336996414,None,265.6774856898002,None,,,,21011,0001,2022_Sep_01_1021,localizer,2021.1.3,59.75171971141049,
block,scenes,scenes089.bmp,,,,,0,103,103,103,,,,,,,,,,,,,,,,,,,,,,,,,,,,,,,,,,,,,,,,,,None,,265.6774856898002,None,265.6774856898002,None,2022-09-01-10:26:08.935148,265.6789178997278,265.99435459962115,265.6789178997278,None,y,265.6789178997278,None,266.4786020897329,None,0.43402469996362925,,,21011,0001,2022_Sep_01_1021,localizer,2021.1.3,59.75171971141049,
block,scenes,scenes079.bmp,,,,,0,104,104,104,,,,,,,,,,,,,,,,,,,,,,,,,,,,,,,,,,,,,,,,,,None,,266.4786020897329,None,266.4786020897329,None,2022-09-01-10:26:09.740423,266.49452819954604,266.794754399918,266.49452819954604,266.49452819954604,None,266.49452819954604,266.49452819954604,267.29535428974776,None,,,,21011,0001,2022_Sep_01_1021,localizer,2021.1.3,59.75171971141049,
block,scenes,scenes050.bmp,,,,,0,105,105,105,,,,,,,,,,,,,,,,,,,,,,,,,,,,,,,,,,,,,,,,,,None,,267.29535428974776,None,267.29535428974776,None,2022-09-01-10:26:10.555135,267.30832089995965,267.61114659998566,267.30832089995965,None,None,267.30832089995965,None,268.1106931895949,None,,,,21011,0001,2022_Sep_01_1021,localizer,2021.1.3,59.75171971141049,
block_end,scenes,scenes011.bmp,,,,,0,106,106,106,,,,,,,,,,,,,,,,,,,,,,,,,,,,,,,,,,,,,,,,,,None,,268.1106931895949,None,268.1106931895949,None,2022-09-01-10:26:11.369358,268.1124283997342,268.41168719995767,268.1124283997342,None,None,268.1124283997342,None,268.9117331898771,None,,,,21011,0001,2022_Sep_01_1021,localizer,2021.1.3,59.75171971141049,
block_start,scrambled,scrambled026.bmp,,,,,0,107,107,107,,,,,,,,,,,,,,,,,,,,,,,,,,,,,,,,,,,,,,,,,,t,1.7554409001022577,268.91263649985194,None,268.91263649985194,None,2022-09-01-10:26:13.954877,270.7049068999477,271.0144174997695,270.7049068999477,None,None,270.7049068999477,None,271.51145298993214,None,,,,21011,0001,2022_Sep_01_1021,localizer,2021.1.3,59.75171971141049,
block,scrambled,scrambled030.bmp,,,,,0,108,108,108,,,,,,,,,,,,,,,,,,,,,,,,,,,,,,,,,,,,,,,,,,None,,271.51145298993214,None,271.51145298993214,None,2022-09-01-10:26:14.771054,271.5191670996137,271.82799499994144,271.5191670996137,None,None,271.5191670996137,None,272.32826148979365,None,,,,21011,0001,2022_Sep_01_1021,localizer,2021.1.3,59.75171971141049,
block,scrambled,scrambled072.bmp,,,,,0,109,109,109,,,,,,,,,,,,,,,,,,,,,,,,,,,,,,,,,,,,,,,,,,None,,272.32826148979365,None,272.32826148979365,None,2022-09-01-10:26:15.588059,272.33998189959675,272.6444672998041,272.33998189959675,None,None,272.33998189959675,None,273.1447480896488,None,,,,21011,0001,2022_Sep_01_1021,localizer,2021.1.3,59.75171971141049,
block,scrambled,scrambled047.bmp,,,,,0,110,110,110,,,,,,,,,,,,,,,,,,,,,,,,,,,,,,,,,,,,,,,,,,None,,273.1447480896488,None,273.1447480896488,None,2022-09-01-10:26:16.403384,273.1454464998096,273.4448045999743,273.1454464998096,None,None,273.1454464998096,None,273.9447805898264,None,,,,21011,0001,2022_Sep_01_1021,localizer,2021.1.3,59.75171971141049,
block,scrambled,scrambled017.bmp,,,,,0,111,111,111,,,,,,,,,,,,,,,,,,,,,,,,,,,,,,,,,,,,,,,,,,None,,273.9447805898264,None,273.9447805898264,None,2022-09-01-10:26:17.205346,273.95659989956766,274.2611209996976,273.95659989956766,273.95659989956766,None,273.95659989956766,273.95659989956766,274.76153538962825,None,,,,21011,0001,2022_Sep_01_1021,localizer,2021.1.3,59.75171971141049,
block,scrambled,scrambled077.bmp,,,,,0,112,112,112,,,,,,,,,,,,,,,,,,,,,,,,,,,,,,,,,,,,,,,,,,None,,274.76153538962825,None,274.76153538962825,None,2022-09-01-10:26:18.020185,274.7723987996578,275.07801639987156,274.7723987996578,None,None,274.7723987996578,None,275.57833648966624,None,,,,21011,0001,2022_Sep_01_1021,localizer,2021.1.3,59.75171971141049,
block,scrambled,scrambled041.bmp,,,,,0,113,113,113,,,,,,,,,,,,,,,,,,,,,,,,,,,,,,,,,,,,,,,,,,None,,275.57833648966624,None,275.57833648966624,None,2022-09-01-10:26:18.837163,275.5860221995972,275.8951776996255,275.5860221995972,None,None,275.5860221995972,None,276.39491938967257,None,,,,21011,0001,2022_Sep_01_1021,localizer,2021.1.3,59.75171971141049,
block,scrambled,scrambled039.bmp,,,,,0,114,114,114,,,,,,,,,,,,,,,,,,,,,,,,,,,,,,,,,,,,,,,,,,None,,276.39491938967257,None,276.39491938967257,None,2022-09-01-10:26:19.654309,276.4066289998591,276.71150139998645,276.4066289998591,None,None,276.4066289998591,None,277.2111560896039,None,,,,21011,0001,2022_Sep_01_1021,localizer,2021.1.3,59.75171971141049,
block,scrambled,scrambled004.bmp,,,,,0,115,115,115,,,,,,,,,,,,,,,,,,,,,,,,,,,,,,,,,,,,,,,,,,None,,277.2111560896039,None,277.2111560896039,None,2022-09-01-10:26:20.469814,277.22019169991836,277.5278592999093,277.22019169991836,None,None,277.22019169991836,None,278.0284516897984,None,,,,21011,0001,2022_Sep_01_1021,localizer,2021.1.3,59.75171971141049,
block,scrambled,scrambled027.bmp,,,,,0,116,116,116,,,,,,,,,,,,,,,,,,,,,,,,,,,,,,,,,,,,,,,,,,None,,278.0284516897984,None,278.0284516897984,None,2022-09-01-10:26:21.287609,278.0397330997512,278.34456389956176,278.0397330997512,None,None,278.0397330997512,None,278.8443000896834,None,,,,21011,0001,2022_Sep_01_1021,localizer,2021.1.3,59.75171971141049,
block,scrambled,scrambled045.bmp,,,,,0,117,117,117,,,,,,,,,,,,,,,,,,,,,,,,,,,,,,,,,,,,,,,,,,None,,278.8443000896834,None,278.8443000896834,None,2022-09-01-10:26:22.101914,278.85177710000426,279.1609981996007,278.85177710000426,None,None,278.85177710000426,None,279.6607775895856,None,,,,21011,0001,2022_Sep_01_1021,localizer,2021.1.3,59.75171971141049,
block,scrambled,scrambled076.bmp,,,,,0,118,118,118,,,,,,,,,,,,,,,,,,,,,,,,,,,,,,,,,,,,,,,,,,None,,279.6607775895856,None,279.6607775895856,None,2022-09-01-10:26:22.918350,279.66369849955663,279.9777740999125,279.66369849955663,None,None,279.66369849955663,None,280.4781334896572,None,,,,21011,0001,2022_Sep_01_1021,localizer,2021.1.3,59.75171971141049,
block,scrambled,scrambled019.bmp,,,,,0,119,119,119,,,,,,,,,,,,,,,,,,,,,,,,,,,,,,,,,,,,,,,,,,None,,280.4781334896572,None,280.4781334896572,None,2022-09-01-10:26:23.737052,280.4864591998048,280.7946419999935,280.4864591998048,None,None,280.4864591998048,None,281.29450308978556,None,,,,21011,0001,2022_Sep_01_1021,localizer,2021.1.3,59.75171971141049,
block,scrambled,scrambled080.bmp,,,,,0,120,120,120,,,,,,,,,,,,,,,,,,,,,,,,,,,,,,,,,,,,,,,,,,None,,281.29450308978556,None,281.29450308978556,None,2022-09-01-10:26:24.553266,281.30336159979925,281.61117719998583,281.30336159979925,None,None,281.30336159979925,None,282.1123544897884,None,,,,21011,0001,2022_Sep_01_1021,localizer,2021.1.3,59.75171971141049,
block_end,scrambled,scrambled034.bmp,,,,,0,121,121,121,,,,,,,,,,,,,,,,,,,,,,,,,,,,,,,,,,,,,,,,,,None,,282.1123544897884,None,282.1123544897884,None,2022-09-01-10:26:25.371992,282.1236364999786,282.42777889966965,282.1236364999786,None,None,282.1236364999786,None,282.9275353898294,None,,,,21011,0001,2022_Sep_01_1021,localizer,2021.1.3,59.75171971141049,
block_start,faces,faces004.bmp,,,,,0,122,122,122,,,,,,,,,,,,,,,,,,,,,,,,,,,,,,,,,,,,,,,,,,t,1.739240599796176,282.92778169969097,None,282.92778169969097,None,2022-09-01-10:26:27.954052,284.71097939973697,285.0109491995536,284.71097939973697,None,None,284.71097939973697,None,285.5111560898833,None,,,,21011,0001,2022_Sep_01_1021,localizer,2021.1.3,59.75171971141049,
block,faces,faces043.bmp,,,,,0,123,123,123,,,,,,,,,,,,,,,,,,,,,,,,,,,,,,,,,,,,,,,,,,None,,285.5111560898833,None,285.5111560898833,None,2022-09-01-10:26:28.768686,285.5200663995929,285.8281579995528,285.5200663995929,None,None,285.5200663995929,None,286.32790398998185,None,,,,21011,0001,2022_Sep_01_1021,localizer,2021.1.3,59.75171971141049,
block,faces,faces076.bmp,,,,,0,124,124,124,,,,,,,,,,,,,,,,,,,,,,,,,,,,,,,,,,,,,,,,,,None,,286.32790398998185,None,286.32790398998185,None,2022-09-01-10:26:29.586566,286.33695449959487,286.6447274996899,286.33695449959487,None,None,286.33695449959487,None,287.1456538897939,None,,,,21011,0001,2022_Sep_01_1021,localizer,2021.1.3,59.75171971141049,
block,faces,faces032.bmp,,,,,0,125,125,125,,,,,,,,,,,,,,,,,,,,,,,,,,,,,,,,,,,,,,,,,,None,,287.1456538897939,None,287.1456538897939,None,2022-09-01-10:26:30.407365,287.160557099618,287.4613082995638,287.160557099618,None,None,287.160557099618,None,287.9617591898888,None,,,,21011,0001,2022_Sep_01_1021,localizer,2021.1.3,59.75171971141049,
block,faces,faces030.bmp,,,,,0,126,126,126,,,,,,,,,,,,,,,,,,,,,,,,,,,,,,,,,,,,,,,,,,None,,287.9617591898888,None,287.9617591898888,None,2022-09-01-10:26:31.221406,287.9747096998617,288.2775028999895,287.9747096998617,None,None,287.9747096998617,None,288.7778137897141,None,,,,21011,0001,2022_Sep_01_1021,localizer,2021.1.3,59.75171971141049,
block,faces,faces040.bmp,,,,,0,127,127,127,,,,,,,,,,,,,,,,,,,,,,,,,,,,,,,,,,,,,,,,,,None,,288.7778137897141,None,288.7778137897141,None,2022-09-01-10:26:32.036550,288.787079999689,289.0974498996511,288.787079999689,None,None,288.787079999689,None,289.5953200899996,None,,,,21011,0001,2022_Sep_01_1021,localizer,2021.1.3,59.75171971141049,
block,faces,faces069.bmp,,,,,0,128,128,128,,,,,,,,,,,,,,,,,,,,,,,,,,,,,,,,,,,,,,,,,,None,,289.5953200899996,None,289.5953200899996,None,2022-09-01-10:26:32.855148,289.59782779961824,289.9116676999256,289.59782779961824,None,None,289.59782779961824,None,290.4114537898451,None,,,,21011,0001,2022_Sep_01_1021,localizer,2021.1.3,59.75171971141049,
block,faces,faces067.bmp,,,,,0,129,129,129,,,,,,,,,,,,,,,,,,,,,,,,,,,,,,,,,,,,,,,,,,None,,290.4114537898451,None,290.4114537898451,None,2022-09-01-10:26:33.670320,290.41238439967856,290.7279016999528,290.41238439967856,None,None,290.41238439967856,None,291.22769168978556,None,,,,21011,0001,2022_Sep_01_1021,localizer,2021.1.3,59.75171971141049,
block,faces,faces063.bmp,,,,,0,130,130,130,,,,,,,,,,,,,,,,,,,,,,,,,,,,,,,,,,,,,,,,,,None,,291.22769168978556,None,291.22769168978556,None,2022-09-01-10:26:34.485273,291.23650619992986,291.5444679995999,291.23650619992986,None,None,291.23650619992986,None,292.0448069896549,None,,,,21011,0001,2022_Sep_01_1021,localizer,2021.1.3,59.75171971141049,
block,faces,faces047.bmp,,,,,0,131,131,131,,,,,,,,,,,,,,,,,,,,,,,,,,,,,,,,,,,,,,,,,,None,,292.0448069896549,None,292.0448069896549,None,2022-09-01-10:26:35.303684,292.0597618999891,292.361121899914,292.0597618999891,None,None,292.0597618999891,None,292.86116548981516,None,,,,21011,0001,2022_Sep_01_1021,localizer,2021.1.3,59.75171971141049,
block,faces,faces068.bmp,,,,,0,132,132,132,,,,,,,,,,,,,,,,,,,,,,,,,,,,,,,,,,,,,,,,,,None,,292.86116548981516,None,292.86116548981516,None,2022-09-01-10:26:36.120711,292.8722035996616,293.17774189962074,292.8722035996616,None,None,292.8722035996616,None,293.6783749897033,None,,,,21011,0001,2022_Sep_01_1021,localizer,2021.1.3,59.75171971141049,
block,faces,faces048.bmp,,,,,0,133,133,133,,,,,,,,,,,,,,,,,,,,,,,,,,,,,,,,,,,,,,,,,,None,,293.6783749897033,None,293.6783749897033,None,2022-09-01-10:26:36.937029,293.6792584997602,293.99484319984913,293.6792584997602,None,None,293.6792584997602,None,294.494393889606,None,,,,21011,0001,2022_Sep_01_1021,localizer,2021.1.3,59.75171971141049,
block,faces,faces007.bmp,,,,,0,134,134,134,,,,,,,,,,,,,,,,,,,,,,,,,,,,,,,,,,,,,,,,,,None,,294.494393889606,None,294.494393889606,None,2022-09-01-10:26:37.753047,294.50416009966284,294.81119989976287,294.50416009966284,None,None,294.50416009966284,None,295.3111168898642,None,,,,21011,0001,2022_Sep_01_1021,localizer,2021.1.3,59.75171971141049,
block,faces,faces007.bmp,,,,,0,135,135,135,,,,,,,,,,,,,,,,,,,,,,,,,,,,,,,,,,,,,,,,,,None,,295.3111168898642,None,295.3111168898642,None,2022-09-01-10:26:38.569781,295.3122463999316,295.6279369997792,295.3122463999316,None,None,295.3122463999316,None,296.1275895897299,None,,,,21011,0001,2022_Sep_01_1021,localizer,2021.1.3,59.75171971141049,
block_end,faces,faces082.bmp,,,,,0,136,136,136,,,,,,,,,,,,,,,,,,,,,,,,,,,,,,,,,,,,,,,,,,None,,296.1275895897299,None,296.1275895897299,None,2022-09-01-10:26:39.386361,296.1389072998427,296.4443840999156,296.1389072998427,None,None,296.1389072998427,None,296.94479078967123,None,,,,21011,0001,2022_Sep_01_1021,localizer,2021.1.3,59.75171971141049,
block_start,objects,objects031.bmp,,,,,0,137,137,137,,,,,,,,,,,,,,,,,,,,,,,,,,,,,,,,,,,,,,,,,,t,1.722507799975574,296.9445593999699,None,296.9445593999699,None,2022-09-01-10:26:41.951952,298.7032495997846,299.01735879993066,298.7032495997846,None,None,298.7032495997846,None,299.5114071898162,None,,,,21011,0001,2022_Sep_01_1021,localizer,2021.1.3,59.75171971141049,
block,objects,objects058.bmp,,,,,0,138,138,138,,,,,,,,,,,,,,,,,,,,,,,,,,,,,,,,,,,,,,,,,,None,,299.5114071898162,None,299.5114071898162,None,2022-09-01-10:26:42.770066,299.51236379984766,299.8116138000041,299.51236379984766,None,None,299.51236379984766,None,300.31149528995155,None,,,,21011,0001,2022_Sep_01_1021,localizer,2021.1.3,59.75171971141049,
block,objects,objects025.bmp,,,,,0,139,139,139,,,,,,,,,,,,,,,,,,,,,,,,,,,,,,,,,,,,,,,,,,None,,300.31149528995155,None,300.31149528995155,None,2022-09-01-10:26:43.572351,300.3145715999417,300.62831149995327,300.3145715999417,300.3145715999417,None,300.3145715999417,300.3145715999417,301.127600689698,None,,,,21011,0001,2022_Sep_01_1021,localizer,2021.1.3,59.75171971141049,
block,objects,objects012.bmp,,,,,0,140,140,140,,,,,,,,,,,,,,,,,,,,,,,,,,,,,,,,,,,,,,,,,,None,,301.127600689698,None,301.127600689698,None,2022-09-01-10:26:44.385793,301.1355832996778,301.44855669979006,301.1355832996778,None,None,301.1355832996778,None,301.9457266896963,None,,,,21011,0001,2022_Sep_01_1021,localizer,2021.1.3,59.75171971141049,
block,objects,objects077.bmp,,,,,0,141,141,141,,,,,,,,,,,,,,,,,,,,,,,,,,,,,,,,,,,,,,,,,,None,,301.9457266896963,None,301.9457266896963,None,2022-09-01-10:26:45.205554,301.95822439994663,302.26099389977753,301.95822439994663,None,None,301.95822439994663,None,302.7609596897848,None,,,,21011,0001,2022_Sep_01_1021,localizer,2021.1.3,59.75171971141049,
block,objects,objects082.bmp,,,,,0,142,142,142,,,,,,,,,,,,,,,,,,,,,,,,,,,,,,,,,,,,,,,,,,None,,302.7609596897848,None,302.7609596897848,None,2022-09-01-10:26:46.018710,302.7630663998425,303.0775483995676,302.7630663998425,None,None,302.7630663998425,None,303.5785739899613,None,,,,21011,0001,2022_Sep_01_1021,localizer,2021.1.3,59.75171971141049,
block,objects,objects001.bmp,,,,,0,143,143,143,,,,,,,,,,,,,,,,,,,,,,,,,,,,,,,,,,,,,,,,,,None,,303.5785739899613,None,303.5785739899613,None,2022-09-01-10:26:46.837328,303.5892485999502,303.89424589974806,303.5892485999502,None,None,303.5892485999502,None,304.40202748989685,None,,,,21011,0001,2022_Sep_01_1021,localizer,2021.1.3,59.75171971141049,
block,objects,objects081.bmp,,,,,0,144,144,144,,,,,,,,,,,,,,,,,,,,,,,,,,,,,,,,,,,,,,,,,,None,,304.40202748989685,None,304.40202748989685,None,2022-09-01-10:26:47.664999,304.40565889980644,304.710895399563,304.40565889980644,None,None,304.40565889980644,None,305.2118914898485,None,,,,21011,0001,2022_Sep_01_1021,localizer,2021.1.3,59.75171971141049,
block,objects,objects071.bmp,,,,,0,145,145,145,,,,,,,,,,,,,,,,,,,,,,,,,,,,,,,,,,,,,,,,,,None,,305.2118914898485,None,305.2118914898485,None,2022-09-01-10:26:48.470700,305.22304329974577,305.52760769985616,305.22304329974577,None,None,305.22304329974577,None,306.0282438898459,None,,,,21011,0001,2022_Sep_01_1021,localizer,2021.1.3,59.75171971141049,
block,objects,objects034.bmp,,,,,0,146,146,146,,,,,,,,,,,,,,,,,,,,,,,,,,,,,,,,,,,,,,,,,,None,,306.0282438898459,None,306.0282438898459,None,2022-09-01-10:26:49.287116,306.03837339999154,306.34426339995116,306.03837339999154,None,None,306.03837339999154,None,306.8441765897907,None,,,,21011,0001,2022_Sep_01_1021,localizer,2021.1.3,59.75171971141049,
block,objects,objects068.bmp,,,,,0,147,147,147,,,,,,,,,,,,,,,,,,,,,,,,,,,,,,,,,,,,,,,,,,None,,306.8441765897907,None,306.8441765897907,None,2022-09-01-10:26:50.101852,306.8514409996569,307.16093789972365,306.8514409996569,None,None,306.8514409996569,None,307.6610736896284,None,,,,21011,0001,2022_Sep_01_1021,localizer,2021.1.3,59.75171971141049,
block,objects,objects007.bmp,,,,,0,148,148,148,,,,,,,,,,,,,,,,,,,,,,,,,,,,,,,,,,,,,,,,,,None,,307.6610736896284,None,307.6610736896284,None,2022-09-01-10:26:50.919742,307.6700675999746,307.9778193999082,307.6700675999746,None,None,307.6700675999746,None,308.47752788970246,None,,,,21011,0001,2022_Sep_01_1021,localizer,2021.1.3,59.75171971141049,
block,objects,objects072.bmp,,,,,0,149,149,149,,,,,,,,,,,,,,,,,,,,,,,,,,,,,,,,,,,,,,,,,,None,,308.47752788970246,None,308.47752788970246,None,2022-09-01-10:26:51.735092,308.48836570000276,308.79443999985233,308.48836570000276,None,None,308.48836570000276,None,309.2949381897226,None,,,,21011,0001,2022_Sep_01_1021,localizer,2021.1.3,59.75171971141049,
block,objects,objects024.bmp,,,,,0,150,150,150,,,,,,,,,,,,,,,,,,,,,,,,,,,,,,,,,,,,,,,,,,None,,309.2949381897226,None,309.2949381897226,None,2022-09-01-10:26:52.553718,309.3057047999464,309.61168579990044,309.3057047999464,None,None,309.3057047999464,None,310.1111918900162,None,,,,21011,0001,2022_Sep_01_1021,localizer,2021.1.3,59.75171971141049,
block_end,objects,objects045.bmp,,,,,0,151,151,151,,,,,,,,,,,,,,,,,,,,,,,,,,,,,,,,,,,,,,,,,,None,,310.1111918900162,None,310.1111918900162,None,2022-09-01-10:26:53.369862,310.119610699825,310.42784909997135,310.119610699825,None,None,310.119610699825,None,310.92800768958404,None,,,,21011,0001,2022_Sep_01_1021,localizer,2021.1.3,59.75171971141049,
null_block,null_block,null_block.bmp,,,,,0,152,152,152,,,,,,,,,,,,,,,,,,,,,,,,,,,,,,,,,,,,,,,,,,t,1.7388444999232888,310.9281195998192,None,310.9281195998192,None,2022-09-01-10:26:55.954125,312.6952357895672,None,312.6952357895672,None,None,312.6952357895672,None,312.6989826997742,None,,,,21011,0001,2022_Sep_01_1021,localizer,2021.1.3,59.75171971141049,
block_start,scrambled,scrambled032.bmp,,,,,0,153,153,153,,,,,,,,,,,,,,,,,,,,,,,,,,,,,,,,,,,,,,,,,,t,1.9551859996281564,324.7118844999932,None,324.7118844999932,None,2022-09-01-10:27:09.954170,326.6956416997127,327.0113225998357,326.6956416997127,None,None,326.6956416997127,None,327.51115588964893,None,,,,21011,0001,2022_Sep_01_1021,localizer,2021.1.3,59.75171971141049,
block,scrambled,scrambled038.bmp,,,,,0,154,154,154,,,,,,,,,,,,,,,,,,,,,,,,,,,,,,,,,,,,,,,,,,None,,327.51115588964893,None,327.51115588964893,None,2022-09-01-10:27:10.769168,327.52017779974267,327.8280998999253,327.52017779974267,None,None,327.52017779974267,None,328.32773078959434,None,,,,21011,0001,2022_Sep_01_1021,localizer,2021.1.3,59.75171971141049,
block,scrambled,scrambled017.bmp,,,,,0,155,155,155,,,,,,,,,,,,,,,,,,,,,,,,,,,,,,,,,,,,,,,,,,None,,328.32773078959434,None,328.32773078959434,None,2022-09-01-10:27:11.585758,328.3292267997749,328.6289653996937,328.3292267997749,None,None,328.3292267997749,None,329.1288490898907,None,,,,21011,0001,2022_Sep_01_1021,localizer,2021.1.3,59.75171971141049,
block,scrambled,scrambled084.bmp,,,,,0,156,156,156,,,,,,,,,,,,,,,,,,,,,,,,,,,,,,,,,,,,,,,,,,None,,329.1288490898907,None,329.1288490898907,None,2022-09-01-10:27:12.390081,329.13912049960345,329.4448023997247,329.13912049960345,329.13912049960345,None,329.13912049960345,329.13912049960345,329.94481648998334,None,,,,21011,0001,2022_Sep_01_1021,localizer,2021.1.3,59.75171971141049,
block,scrambled,scrambled033.bmp,,,,,0,157,157,157,,,,,,,,,,,,,,,,,,,,,,,,,,,,,,,,,,,,,,,,,,None,,329.94481648998334,None,329.94481648998334,None,2022-09-01-10:27:13.203117,329.9541791998781,330.26135029969737,329.9541791998781,None,None,329.9541791998781,None,330.76204468989744,None,,,,21011,0001,2022_Sep_01_1021,localizer,2021.1.3,59.75171971141049,
block,scrambled,scrambled087.bmp,,,,,0,158,158,158,,,,,,,,,,,,,,,,,,,,,,,,,,,,,,,,,,,,,,,,,,None,,330.76204468989744,None,330.76204468989744,None,2022-09-01-10:27:14.021121,330.77282559964806,331.07800109963864,330.77282559964806,None,None,330.77282559964806,None,331.5779942896217,None,,,,21011,0001,2022_Sep_01_1021,localizer,2021.1.3,59.75171971141049,
block,scrambled,scrambled012.bmp,,,,,0,159,159,159,,,,,,,,,,,,,,,,,,,,,,,,,,,,,,,,,,,,,,,,,,None,,331.5779942896217,None,331.5779942896217,None,2022-09-01-10:27:14.836085,331.5869065998122,331.8946176995523,331.5869065998122,None,None,331.5869065998122,None,332.3954201897606,None,,,,21011,0001,2022_Sep_01_1021,localizer,2021.1.3,59.75171971141049,
block,scrambled,scrambled081.bmp,,,,,0,160,160,160,,,,,,,,,,,,,,,,,,,,,,,,,,,,,,,,,,,,,,,,,,None,,332.3954201897606,None,332.3954201897606,None,2022-09-01-10:27:15.654511,332.4073325996287,332.71127899968997,332.4073325996287,None,None,332.4073325996287,None,333.2118024898693,None,,,,21011,0001,2022_Sep_01_1021,localizer,2021.1.3,59.75171971141049,
block,scrambled,scrambled047.bmp,,,,,0,161,161,161,,,,,,,,,,,,,,,,,,,,,,,,,,,,,,,,,,,,,,,,,,None,,333.2118024898693,None,333.2118024898693,None,2022-09-01-10:27:16.471116,333.2124234996736,333.51169809978455,333.2124234996736,None,None,333.2124234996736,None,334.01178978970273,None,,,,21011,0001,2022_Sep_01_1021,localizer,2021.1.3,59.75171971141049,
block,scrambled,scrambled037.bmp,,,,,0,162,162,162,,,,,,,,,,,,,,,,,,,,,,,,,,,,,,,,,,,,,,,,,,None,,334.01178978970273,None,334.01178978970273,None,2022-09-01-10:27:17.273076,334.0245012999512,334.32855269964784,334.0245012999512,334.0245012999512,None,334.0245012999512,334.0245012999512,334.82808798998593,None,,,,21011,0001,2022_Sep_01_1021,localizer,2021.1.3,59.75171971141049,
block,scrambled,scrambled051.bmp,,,,,0,163,163,163,,,,,,,,,,,,,,,,,,,,,,,,,,,,,,,,,,,,,,,,,,None,,334.82808798998593,None,334.82808798998593,None,2022-09-01-10:27:18.086244,334.8364444999024,335.1454834998585,334.8364444999024,None,None,334.8364444999024,None,335.645430689957,None,,,,21011,0001,2022_Sep_01_1021,localizer,2021.1.3,59.75171971141049,
block,scrambled,scrambled079.bmp,,,,,0,164,164,164,,,,,,,,,,,,,,,,,,,,,,,,,,,,,,,,,,,,,,,,,,None,,335.645430689957,None,335.645430689957,None,2022-09-01-10:27:18.904579,335.6562611996196,335.9616552996449,335.6562611996196,None,None,335.6562611996196,None,336.4615628899075,None,,,,21011,0001,2022_Sep_01_1021,localizer,2021.1.3,59.75171971141049,
block,scrambled,scrambled029.bmp,,,,,0,165,165,165,,,,,,,,,,,,,,,,,,,,,,,,,,,,,,,,,,,,,,,,,,None,,336.4615628899075,None,336.4615628899075,None,2022-09-01-10:27:19.720739,336.4708378999494,336.7780913999304,336.4708378999494,None,None,336.4708378999494,None,337.2780829899013,None,,,,21011,0001,2022_Sep_01_1021,localizer,2021.1.3,59.75171971141049,
block,scrambled,scrambled073.bmp,,,,,0,166,166,166,,,,,,,,,,,,,,,,,,,,,,,,,,,,,,,,,,,,,,,,,,None,,337.2780829899013,None,337.2780829899013,None,2022-09-01-10:27:20.536285,337.28669489966705,337.5947947995737,337.28669489966705,None,None,337.28669489966705,None,338.0953489898704,None,,,,21011,0001,2022_Sep_01_1021,localizer,2021.1.3,59.75171971141049,
block_end,scrambled,scrambled071.bmp,,,,,0,167,167,167,,,,,,,,,,,,,,,,,,,,,,,,,,,,,,,,,,,,,,,,,,None,,338.0953489898704,None,338.0953489898704,None,2022-09-01-10:27:21.354741,338.10642739990726,338.41169629991055,338.10642739990726,None,None,338.10642739990726,None,338.9121269898489,None,,,,21011,0001,2022_Sep_01_1021,localizer,2021.1.3,59.75171971141049,
block_start,scenes,scenes047.bmp,,,,,0,168,168,168,,,,,,,,,,,,,,,,,,,,,,,,,,,,,,,,,,,,,,,,,,t,1.75493110017851,338.91206199955195,None,338.91206199955195,None,2022-09-01-10:27:23.953266,340.704045899678,341.01146459998563,340.704045899678,None,None,340.704045899678,None,341.51160788983105,None,,,,21011,0001,2022_Sep_01_1021,localizer,2021.1.3,59.75171971141049,
block,scenes,scenes073.bmp,,,,,0,169,169,169,,,,,,,,,,,,,,,,,,,,,,,,,,,,,,,,,,,,,,,,,,None,,341.51160788983105,None,341.51160788983105,None,2022-09-01-10:27:24.771236,341.5239432998933,341.8278757999651,341.5239432998933,None,None,341.5239432998933,None,342.32840448971837,None,,,,21011,0001,2022_Sep_01_1021,localizer,2021.1.3,59.75171971141049,
block,scenes,scenes089.bmp,,,,,0,170,170,170,,,,,,,,,,,,,,,,,,,,,,,,,,,,,,,,,,,,,,,,,,None,,342.32840448971837,None,342.32840448971837,None,2022-09-01-10:27:25.586892,342.32951259985566,342.6450579999946,342.32951259985566,None,None,342.32951259985566,None,343.13105458980425,None,,,,21011,0001,2022_Sep_01_1021,localizer,2021.1.3,59.75171971141049,
block,scenes,scenes061.bmp,,,,,0,171,171,171,,,,,,,,,,,,,,,,,,,,,,,,,,,,,,,,,,,,,,,,,,None,,343.13105458980425,None,343.13105458980425,None,2022-09-01-10:27:26.394432,343.1468962999061,343.4614222999662,343.1468962999061,343.1468962999061,None,343.1468962999061,343.1468962999061,343.94490558961405,None,,,,21011,0001,2022_Sep_01_1021,localizer,2021.1.3,59.75171971141049,
block,scenes,scenes033.bmp,,,,,0,172,172,172,,,,,,,,,,,,,,,,,,,,,,,,,,,,,,,,,,,,,,,,,,None,,343.94490558961405,None,343.94490558961405,None,2022-09-01-10:27:27.203235,343.9533430999145,344.26144689973444,343.9533430999145,None,None,343.9533430999145,None,344.761686089728,None,,,,21011,0001,2022_Sep_01_1021,localizer,2021.1.3,59.75171971141049,
block,scenes,scenes056.bmp,,,,,0,173,173,173,,,,,,,,,,,,,,,,,,,,,,,,,,,,,,,,,,,,,,,,,,None,,344.761686089728,None,344.761686089728,None,2022-09-01-10:27:28.021241,344.7719294996932,345.07797139976174,344.7719294996932,None,None,344.7719294996932,None,345.5802418899722,None,,,,21011,0001,2022_Sep_01_1021,localizer,2021.1.3,59.75171971141049,
block,scenes,scenes078.bmp,,,,,0,174,174,174,,,,,,,,,,,,,,,,,,,,,,,,,,,,,,,,,,,,,,,,,,None,,345.5802418899722,None,345.5802418899722,None,2022-09-01-10:27:28.842744,345.59307949990034,345.8949616998434,345.59307949990034,None,None,345.59307949990034,None,346.3948072896339,None,,,,21011,0001,2022_Sep_01_1021,localizer,2021.1.3,59.75171971141049,
block,scenes,scenes079.bmp,,,,,0,175,175,175,,,,,,,,,,,,,,,,,,,,,,,,,,,,,,,,,,,,,,,,,,None,,346.3948072896339,None,346.3948072896339,None,2022-09-01-10:27:29.654184,346.39594089984894,346.7115283999592,346.39594089984894,None,None,346.39594089984894,None,347.2113907898776,None,,,,21011,0001,2022_Sep_01_1021,localizer,2021.1.3,59.75171971141049,
block,scenes,scenes059.bmp,,,,,0,176,176,176,,,,,,,,,,,,,,,,,,,,,,,,,,,,,,,,,,,,,,,,,,None,,347.2113907898776,None,347.2113907898776,None,2022-09-01-10:27:30.469790,347.2135528996587,347.5280887996778,347.2135528996587,None,None,347.2135528996587,None,348.0282595896162,None,,,,21011,0001,2022_Sep_01_1021,localizer,2021.1.3,59.75171971141049,
block,scenes,scenes039.bmp,,,,,0,177,177,177,,,,,,,,,,,,,,,,,,,,,,,,,,,,,,,,,,,,,,,,,,None,,348.0282595896162,None,348.0282595896162,None,2022-09-01-10:27:31.287871,348.03697139956057,348.34475449984893,348.03697139956057,None,None,348.03697139956057,None,348.8452784896828,None,,,,21011,0001,2022_Sep_01_1021,localizer,2021.1.3,59.75171971141049,
block,scenes,scenes045.bmp,,,,,0,178,178,178,,,,,,,,,,,,,,,,,,,,,,,,,,,,,,,,,,,,,,,,,,None,,348.8452784896828,None,348.8452784896828,None,2022-09-01-10:27:32.104684,348.85521979955956,349.16135740000755,348.85521979955956,None,None,348.85521979955956,None,349.6619222898036,None,,,,21011,0001,2022_Sep_01_1021,localizer,2021.1.3,59.75171971141049,
block,scenes,scenes064.bmp,,,,,0,179,179,179,,,,,,,,,,,,,,,,,,,,,,,,,,,,,,,,,,,,,,,,,,None,,349.6619222898036,None,349.6619222898036,None,2022-09-01-10:27:32.921422,349.67265719966963,349.9784442000091,349.67265719966963,None,None,349.67265719966963,None,350.47859928971155,None,,,,21011,0001,2022_Sep_01_1021,localizer,2021.1.3,59.75171971141049,
block,scenes,scenes069.bmp,,,,,0,180,180,180,,,,,,,,,,,,,,,,,,,,,,,,,,,,,,,,,,,,,,,,,,None,,350.47859928971155,None,350.47859928971155,None,2022-09-01-10:27:33.738245,350.47957539977506,350.79495599959046,350.47957539977506,None,None,350.47957539977506,None,351.2949550899677,None,,,,21011,0001,2022_Sep_01_1021,localizer,2021.1.3,59.75171971141049,
block,scenes,scenes070.bmp,,,,,0,181,181,181,,,,,,,,,,,,,,,,,,,,,,,,,,,,,,,,,,,,,,,,,,None,,351.2949550899677,None,351.2949550899677,None,2022-09-01-10:27:34.554407,351.3043585997075,351.6117002996616,351.3043585997075,None,None,351.3043585997075,None,352.11175958979874,None,,,,21011,0001,2022_Sep_01_1021,localizer,2021.1.3,59.75171971141049,
block_end,scenes,scenes001.bmp,,,,,0,182,182,182,,,,,,,,,,,,,,,,,,,,,,,,,,,,,,,,,,,,,,,,,,None,,352.11175958979874,None,352.11175958979874,None,2022-09-01-10:27:35.371247,352.11269489955157,352.4282639999874,352.11269489955157,None,None,352.11269489955157,None,352.92830688999965,None,,,,21011,0001,2022_Sep_01_1021,localizer,2021.1.3,59.75171971141049,
block_start,faces,faces048.bmp,,,,,0,183,183,183,,,,,,,,,,,,,,,,,,,,,,,,,,,,,,,,,,,,,,,,,,t,1.7385880001820624,352.9284170996398,None,352.9284170996398,None,2022-09-01-10:27:37.953454,354.6962964995764,355.01147119980305,354.6962964995764,None,None,354.6962964995764,None,355.5112354897894,None,,,,21011,0001,2022_Sep_01_1021,localizer,2021.1.3,59.75171971141049,
block,faces,faces088.bmp,,,,,0,184,184,184,,,,,,,,,,,,,,,,,,,,,,,,,,,,,,,,,,,,,,,,,,None,,355.5112354897894,None,355.5112354897894,None,2022-09-01-10:27:38.769799,355.51326469983906,355.82808159990236,355.51326469983906,None,None,355.51326469983906,None,356.312274389714,None,,,,21011,0001,2022_Sep_01_1021,localizer,2021.1.3,59.75171971141049,
block,faces,faces064.bmp,,,,,0,185,185,185,,,,,,,,,,,,,,,,,,,,,,,,,,,,,,,,,,,,,,,,,,None,,356.312274389714,None,356.312274389714,None,2022-09-01-10:27:39.573992,356.32572119962424,356.6285321000032,356.32572119962424,356.32572119962424,None,356.32572119962424,356.32572119962424,357.12850558971985,None,,,,21011,0001,2022_Sep_01_1021,localizer,2021.1.3,59.75171971141049,
block,faces,faces054.bmp,,,,,0,186,186,186,,,,,,,,,,,,,,,,,,,,,,,,,,,,,,,,,,,,,,,,,,None,,357.12850558971985,None,357.12850558971985,None,2022-09-01-10:27:40.388088,357.13942119991407,357.4451160999015,357.13942119991407,None,None,357.13942119991407,None,357.9454240899533,None,,,,21011,0001,2022_Sep_01_1021,localizer,2021.1.3,59.75171971141049,
block,faces,faces033.bmp,,,,,0,187,187,187,,,,,,,,,,,,,,,,,,,,,,,,,,,,,,,,,,,,,,,,,,None,,357.9454240899533,None,357.9454240899533,None,2022-09-01-10:27:41.204204,357.95681649958715,358.26167589984834,357.95681649958715,None,None,357.95681649958715,None,358.7613344898447,None,,,,21011,0001,2022_Sep_01_1021,localizer,2021.1.3,59.75171971141049,
block,faces,faces027.bmp,,,,,0,188,188,188,,,,,,,,,,,,,,,,,,,,,,,,,,,,,,,,,,,,,,,,,,None,,358.7613344898447,None,358.7613344898447,None,2022-09-01-10:27:42.020955,358.76275239977986,359.07813599985093,358.76275239977986,None,None,358.76275239977986,None,359.5618516898714,None,,,,21011,0001,2022_Sep_01_1021,localizer,2021.1.3,59.75171971141049,
block,faces,faces068.bmp,,,,,0,189,189,189,,,,,,,,,,,,,,,,,,,,,,,,,,,,,,,,,,,,,,,,,,None,,359.5618516898714,None,359.5618516898714,None,2022-09-01-10:27:42.823702,359.562447599601,359.86178199993446,359.562447599601,359.562447599601,None,359.562447599601,359.562447599601,360.36186048975213,None,,,,21011,0001,2022_Sep_01_1021,localizer,2021.1.3,59.75171971141049,
block,faces,faces025.bmp,,,,,0,190,190,190,,,,,,,,,,,,,,,,,,,,,,,,,,,,,,,,,,,,,,,,,,None,,360.36186048975213,None,360.36186048975213,None,2022-09-01-10:27:43.623502,360.3625609995797,360.66177649982274,360.3625609995797,360.3625609995797,None,360.3625609995797,360.3625609995797,361.1617445897311,None,,,,21011,0001,2022_Sep_01_1021,localizer,2021.1.3,59.75171971141049,
block,faces,faces042.bmp,,,,,0,191,191,191,,,,,,,,,,,,,,,,,,,,,,,,,,,,,,,,,,,,,,,,,,None,,361.1617445897311,None,361.1617445897311,None,2022-09-01-10:27:44.423621,361.173911199905,361.47847429988906,361.173911199905,361.173911199905,None,361.173911199905,361.173911199905,361.97828648965805,None,,,,21011,0001,2022_Sep_01_1021,localizer,2021.1.3,59.75171971141049,
block,faces,faces071.bmp,,,,,0,192,192,192,,,,,,,,,,,,,,,,,,,,,,,,,,,,,,,,,,,,,,,,,,None,,361.97828648965805,None,361.97828648965805,None,2022-09-01-10:27:45.237967,361.98744879988953,362.29465929977596,361.98744879988953,None,None,361.98744879988953,None,362.79495248971506,None,,,,21011,0001,2022_Sep_01_1021,localizer,2021.1.3,59.75171971141049,
block,faces,faces003.bmp,,,,,0,193,193,193,,,,,,,,,,,,,,,,,,,,,,,,,,,,,,,,,,,,,,,,,,None,,362.79495248971506,None,362.79495248971506,None,2022-09-01-10:27:46.054652,362.8043967997655,363.11154199996963,362.8043967997655,None,None,362.8043967997655,None,363.61129608964546,None,,,,21011,0001,2022_Sep_01_1021,localizer,2021.1.3,59.75171971141049,
block,faces,faces026.bmp,,,,,0,194,194,194,,,,,,,,,,,,,,,,,,,,,,,,,,,,,,,,,,,,,,,,,,None,,363.61129608964546,None,363.61129608964546,None,2022-09-01-10:27:46.870018,363.6491389996372,363.9618095997721,363.6491389996372,None,None,363.6491389996372,None,364.42808688972144,None,,,,21011,0001,2022_Sep_01_1021,localizer,2021.1.3,59.75171971141049,
block,faces,faces082.bmp,,,,,0,195,195,195,,,,,,,,,,,,,,,,,,,,,,,,,,,,,,,,,,,,,,,,,,None,,364.42808688972144,None,364.42808688972144,None,2022-09-01-10:27:47.688336,364.4292969997041,364.7514702999033,364.4292969997041,None,None,364.4292969997041,None,365.2284846900031,None,,,,21011,0001,2022_Sep_01_1021,localizer,2021.1.3,59.75171971141049,
block,faces,faces078.bmp,,,,,0,196,196,196,,,,,,,,,,,,,,,,,,,,,,,,,,,,,,,,,,,,,,,,,,None,,365.2284846900031,None,365.2284846900031,None,2022-09-01-10:27:48.490223,365.2295128996484,365.54534829966724,365.2295128996484,365.2295128996484,None,365.2295128996484,365.2295128996484,366.04534548968076,None,,,,21011,0001,2022_Sep_01_1021,localizer,2021.1.3,59.75171971141049,
block_end,faces,faces058.bmp,,,,,0,197,197,197,,,,,,,,,,,,,,,,,,,,,,,,,,,,,,,,,,,,,,,,,,None,,366.04534548968076,None,366.04534548968076,None,2022-09-01-10:27:49.305310,366.05631109979004,366.36160449963063,366.05631109979004,None,None,366.05631109979004,None,366.8517991898581,None,,,,21011,0001,2022_Sep_01_1021,localizer,2021.1.3,59.75171971141049,
block_start,objects,objects086.bmp,,,,,0,198,198,198,,,,,,,,,,,,,,,,,,,,,,,,,,,,,,,,,,,,,,,,,,t,1.818249899893999,366.8487448999658,None,366.8487448999658,None,2022-09-01-10:27:51.952461,368.70160499960184,369.01106039993465,368.70160499960184,None,None,368.70160499960184,None,369.5124198899604,None,,,,21011,0001,2022_Sep_01_1021,localizer,2021.1.3,59.75171971141049,
block,objects,objects048.bmp,,,,,0,199,199,199,,,,,,,,,,,,,,,,,,,,,,,,,,,,,,,,,,,,,,,,,,None,,369.5124198899604,None,369.5124198899604,None,2022-09-01-10:27:52.772241,369.52285379962996,369.82825959986076,369.52285379962996,None,None,369.52285379962996,None,370.328005489707,None,,,,21011,0001,2022_Sep_01_1021,localizer,2021.1.3,59.75171971141049,
block,objects,objects012.bmp,,,,,0,200,200,200,,,,,,,,,,,,,,,,,,,,,,,,,,,,,,,,,,,,,,,,,,None,,370.328005489707,None,370.328005489707,None,2022-09-01-10:27:53.587855,370.3293000999838,370.6447383998893,370.3293000999838,None,None,370.3293000999838,None,371.1306878899224,None,,,,21011,0001,2022_Sep_01_1021,localizer,2021.1.3,59.75171971141049,
block,objects,objects012.bmp,,,,,0,201,201,201,,,,,,,,,,,,,,,,,,,,,,,,,,,,,,,,,,,,,,,,,,None,,371.1306878899224,None,371.1306878899224,None,2022-09-01-10:27:54.395522,371.13500239979476,371.4445629999973,371.13500239979476,371.13500239979476,y,371.13500239979476,371.13500239979476,371.94487458961083,None,0.6514632999897003,,,21011,0001,2022_Sep_01_1021,localizer,2021.1.3,59.75171971141049,
block,objects,objects060.bmp,,,,,0,202,202,202,,,,,,,,,,,,,,,,,,,,,,,,,,,,,,,,,,,,,,,,,,None,,371.94487458961083,None,371.94487458961083,None,2022-09-01-10:27:55.204754,371.94575559999794,372.24505429994315,371.94575559999794,None,None,371.94575559999794,None,372.7448746900074,None,,,,21011,0001,2022_Sep_01_1021,localizer,2021.1.3,59.75171971141049,
block,objects,objects082.bmp,,,,,0,203,203,203,,,,,,,,,,,,,,,,,,,,,,,,,,,,,,,,,,,,,,,,,,None,,372.7448746900074,None,372.7448746900074,None,2022-09-01-10:27:56.005969,372.74602709989995,373.06150629976764,372.74602709989995,372.74602709989995,None,372.74602709989995,372.74602709989995,373.56164808971806,None,,,,21011,0001,2022_Sep_01_1021,localizer,2021.1.3,59.75171971141049,
block,objects,objects017.bmp,,,,,0,204,204,204,,,,,,,,,,,,,,,,,,,,,,,,,,,,,,,,,,,,,,,,,,None,,373.56164808971806,None,373.56164808971806,None,2022-09-01-10:27:56.820562,373.56275019980967,373.87826229957864,373.56275019980967,None,None,373.56275019980967,None,374.37814898956566,None,,,,21011,0001,2022_Sep_01_1021,localizer,2021.1.3,59.75171971141049,
block,objects,objects061.bmp,,,,,0,205,205,205,,,,,,,,,,,,,,,,,,,,,,,,,,,,,,,,,,,,,,,,,,None,,374.37814898956566,None,374.37814898956566,None,2022-09-01-10:27:57.638428,374.387001699768,374.69486659998074,374.387001699768,None,None,374.387001699768,None,375.1945862898603,None,,,,21011,0001,2022_Sep_01_1021,localizer,2021.1.3,59.75171971141049,
block,objects,objects022.bmp,,,,,0,206,206,206,,,,,,,,,,,,,,,,,,,,,,,,,,,,,,,,,,,,,,,,,,None,,375.1945862898603,None,375.1945862898603,None,2022-09-01-10:27:58.453536,375.1966716996394,375.5115627995692,375.1966716996394,None,None,375.1966716996394,None,376.01194988964124,None,,,,21011,0001,2022_Sep_01_1021,localizer,2021.1.3,59.75171971141049,
block,objects,objects059.bmp,,,,,0,207,207,207,,,,,,,,,,,,,,,,,,,,,,,,,,,,,,,,,,,,,,,,,,None,,376.01194988964124,None,376.01194988964124,None,2022-09-01-10:27:59.272104,376.02115509985015,376.32825019955635,376.02115509985015,None,None,376.02115509985015,None,376.8281182896346,None,,,,21011,0001,2022_Sep_01_1021,localizer,2021.1.3,59.75171971141049,
block,objects,objects015.bmp,,,,,0,208,208,208,,,,,,,,,,,,,,,,,,,,,,,,,,,,,,,,,,,,,,,,,,None,,376.8281182896346,None,376.8281182896346,None,2022-09-01-10:28:00.087420,376.83052239986137,377.145042499993,376.83052239986137,None,None,376.83052239986137,None,377.6445721898228,None,,,,21011,0001,2022_Sep_01_1021,localizer,2021.1.3,59.75171971141049,
block,objects,objects075.bmp,,,,,0,209,209,209,,,,,,,,,,,,,,,,,,,,,,,,,,,,,,,,,,,,,,,,,,None,,377.6445721898228,None,377.6445721898228,None,2022-09-01-10:28:00.903572,377.65239959955215,377.96160509996116,377.65239959955215,None,None,377.65239959955215,None,378.46150838984175,None,,,,21011,0001,2022_Sep_01_1021,localizer,2021.1.3,59.75171971141049,
block,objects,objects051.bmp,,,,,0,210,210,210,,,,,,,,,,,,,,,,,,,,,,,,,,,,,,,,,,,,,,,,,,None,,378.46150838984175,None,378.46150838984175,None,2022-09-01-10:28:01.721514,378.47052469989285,378.7781896996312,378.47052469989285,None,None,378.47052469989285,None,379.27815819000824,None,,,,21011,0001,2022_Sep_01_1021,localizer,2021.1.3,59.75171971141049,
block,objects,objects071.bmp,,,,,0,211,211,211,,,,,,,,,,,,,,,,,,,,,,,,,,,,,,,,,,,,,,,,,,None,,379.27815819000824,None,379.27815819000824,None,2022-09-01-10:28:02.538185,379.2794284997508,379.59487109957263,379.2794284997508,None,None,379.2794284997508,None,380.07955959001555,None,,,,21011,0001,2022_Sep_01_1021,localizer,2021.1.3,59.75171971141049,
block_end,objects,objects034.bmp,,,,,0,212,212,212,,,,,,,,,,,,,,,,,,,,,,,,,,,,,,,,,,,,,,,,,,None,,380.07955959001555,None,380.07955959001555,None,2022-09-01-10:28:03.342755,380.0814795996994,380.3947047996335,380.0814795996994,380.0814795996994,None,380.0814795996994,380.0814795996994,380.89509278982877,None,,,,21011,0001,2022_Sep_01_1021,localizer,2021.1.3,59.75171971141049,
block_start,scenes,scenes023.bmp,,,,,0,213,213,213,,,,,,,,,,,,,,,,,,,,,,,,,,,,,,,,,,,,,,,,,,t,1.7718735998496413,380.8952042995952,None,380.8952042995952,None,2022-09-01-10:28:05.954223,382.69630499975756,383.011508599855,382.69630499975756,None,None,382.69630499975756,None,383.5119795899838,None,,,,21011,0001,2022_Sep_01_1021,localizer,2021.1.3,59.75171971141049,
block,scenes,scenes015.bmp,,,,,0,214,214,214,,,,,,,,,,,,,,,,,,,,,,,,,,,,,,,,,,,,,,,,,,None,,383.5119795899838,None,383.5119795899838,None,2022-09-01-10:28:06.772274,383.51292389957234,383.82828779984266,383.51292389957234,None,None,383.51292389957234,None,384.3123085897416,None,,,,21011,0001,2022_Sep_01_1021,localizer,2021.1.3,59.75171971141049,
block,scenes,scenes090.bmp,,,,,0,215,215,215,,,,,,,,,,,,,,,,,,,,,,,,,,,,,,,,,,,,,,,,,,None,,384.3123085897416,None,384.3123085897416,None,2022-09-01-10:28:07.574607,384.3252411996946,384.62833019997925,384.3252411996946,384.3252411996946,None,384.3252411996946,384.3252411996946,385.12834028974174,None,,,,21011,0001,2022_Sep_01_1021,localizer,2021.1.3,59.75171971141049,
block,scenes,scenes014.bmp,,,,,0,216,216,216,,,,,,,,,,,,,,,,,,,,,,,,,,,,,,,,,,,,,,,,,,None,,385.12834028974174,None,385.12834028974174,None,2022-09-01-10:28:08.388480,385.13881399994716,385.44484949996695,385.13881399994716,None,None,385.13881399994716,None,385.94494568957015,None,,,,21011,0001,2022_Sep_01_1021,localizer,2021.1.3,59.75171971141049,
block,scenes,scenes078.bmp,,,,,0,217,217,217,,,,,,,,,,,,,,,,,,,,,,,,,,,,,,,,,,,,,,,,,,None,,385.94494568957015,None,385.94494568957015,None,2022-09-01-10:28:09.204880,385.946046799887,386.2457741997205,385.946046799887,None,None,385.946046799887,None,386.76170228961854,None,,,,21011,0001,2022_Sep_01_1021,localizer,2021.1.3,59.75171971141049,
block,scenes,scenes025.bmp,,,,,0,218,218,218,,,,,,,,,,,,,,,,,,,,,,,,,,,,,,,,,,,,,,,,,,None,,386.76170228961854,None,386.76170228961854,None,2022-09-01-10:28:10.022103,386.7760422998108,387.07825749972835,386.7760422998108,None,None,386.7760422998108,None,387.5782290900126,None,,,,21011,0001,2022_Sep_01_1021,localizer,2021.1.3,59.75171971141049,
block,scenes,scenes010.bmp,,,,,0,219,219,219,,,,,,,,,,,,,,,,,,,,,,,,,,,,,,,,,,,,,,,,,,None,,387.5782290900126,None,387.5782290900126,None,2022-09-01-10:28:10.837639,387.5801634998061,387.8950270996429,387.5801634998061,None,None,387.5801634998061,None,388.3953149898909,None,,,,21011,0001,2022_Sep_01_1021,localizer,2021.1.3,59.75171971141049,
block,scenes,scenes054.bmp,,,,,0,220,220,220,,,,,,,,,,,,,,,,,,,,,,,,,,,,,,,,,,,,,,,,,,None,,388.3953149898909,None,388.3953149898909,None,2022-09-01-10:28:11.655518,388.40569149982184,388.71159259974957,388.40569149982184,None,None,388.40569149982184,None,389.2114954896271,None,,,,21011,0001,2022_Sep_01_1021,localizer,2021.1.3,59.75171971141049,
block,scenes,scenes029.bmp,,,,,0,221,221,221,,,,,,,,,,,,,,,,,,,,,,,,,,,,,,,,,,,,,,,,,,None,,389.2114954896271,None,389.2114954896271,None,2022-09-01-10:28:12.470719,389.215259199962,389.5282101999037,389.215259199962,None,None,389.215259199962,None,390.0282675896771,None,,,,21011,0001,2022_Sep_01_1021,localizer,2021.1.3,59.75171971141049,
block,scenes,scenes018.bmp,,,,,0,222,222,222,,,,,,,,,,,,,,,,,,,,,,,,,,,,,,,,,,,,,,,,,,None,,390.0282675896771,None,390.0282675896771,None,2022-09-01-10:28:13.287282,390.0370694999583,390.3450377997942,390.0370694999583,None,None,390.0370694999583,None,390.8450975895859,None,,,,21011,0001,2022_Sep_01_1021,localizer,2021.1.3,59.75171971141049,
block,scenes,scenes086.bmp,,,,,0,223,223,223,,,,,,,,,,,,,,,,,,,,,,,,,,,,,,,,,,,,,,,,,,None,,390.8450975895859,None,390.8450975895859,None,2022-09-01-10:28:14.105347,390.8545067999512,391.16156089957803,390.8545067999512,None,None,390.8545067999512,None,391.66150978980585,None,,,,21011,0001,2022_Sep_01_1021,localizer,2021.1.3,59.75171971141049,
block,scenes,scenes003.bmp,,,,,0,224,224,224,,,,,,,,,,,,,,,,,,,,,,,,,,,,,,,,,,,,,,,,,,None,,391.66150978980585,None,391.66150978980585,None,2022-09-01-10:28:14.920785,391.67037939978763,391.97839349973947,391.67037939978763,None,None,391.67037939978763,None,392.4788633899763,None,,,,21011,0001,2022_Sep_01_1021,localizer,2021.1.3,59.75171971141049,
block,scenes,scenes092.bmp,,,,,0,225,225,225,,,,,,,,,,,,,,,,,,,,,,,,,,,,,,,,,,,,,,,,,,None,,392.4788633899763,None,392.4788633899763,None,2022-09-01-10:28:15.739284,392.4887102995999,392.7947540995665,392.4887102995999,None,None,392.4887102995999,None,393.2948290899396,None,,,,21011,0001,2022_Sep_01_1021,localizer,2021.1.3,59.75171971141049,
block,scenes,scenes072.bmp,,,,,0,226,226,226,,,,,,,,,,,,,,,,,,,,,,,,,,,,,,,,,,,,,,,,,,None,,393.2948290899396,None,393.2948290899396,None,2022-09-01-10:28:16.554138,393.3025394999422,393.61161969974637,393.3025394999422,None,None,393.3025394999422,None,394.1121510898694,None,,,,21011,0001,2022_Sep_01_1021,localizer,2021.1.3,59.75171971141049,
block_end,scenes,scenes033.bmp,,,,,0,227,227,227,,,,,,,,,,,,,,,,,,,,,,,,,,,,,,,,,,,,,,,,,,None,,394.1121510898694,None,394.1121510898694,None,2022-09-01-10:28:17.372462,394.11300679994747,394.4120140997693,394.11300679994747,None,None,394.11300679994747,None,394.91204608958213,None,,,,21011,0001,2022_Sep_01_1021,localizer,2021.1.3,59.75171971141049,
null_block,null_block,null_block.bmp,,,,,0,228,228,228,,,,,,,,,,,,,,,,,,,,,,,,,,,,,,,,,,,,,,,,,,t,1.754680700134486,394.91219769977033,None,394.91219769977033,None,2022-09-01-10:28:19.955348,396.69497908959164,None,396.69497908959164,None,None,396.69497908959164,None,396.7053128997795,None,,,,21011,0001,2022_Sep_01_1021,localizer,2021.1.3,59.75171971141049,
block_start,scrambled,scrambled085.bmp,,,,,0,229,229,229,,,,,,,,,,,,,,,,,,,,,,,,,,,,,,,,,,,,,,,,,,t,1.9541884995996952,408.7116880998947,None,408.7116880998947,None,2022-09-01-10:28:33.957290,410.70525339990854,411.01819809991866,410.70525339990854,None,None,410.70525339990854,None,411.5117934898473,None,,,,21011,0001,2022_Sep_01_1021,localizer,2021.1.3,59.75171971141049,
block,scrambled,scrambled064.bmp,,,,,0,230,230,230,,,,,,,,,,,,,,,,,,,,,,,,,,,,,,,,,,,,,,,,,,None,,411.5117934898473,None,411.5117934898473,None,2022-09-01-10:28:34.771458,411.52037819987163,411.8285334999673,411.52037819987163,None,None,411.52037819987163,None,412.32900799000635,None,,,,21011,0001,2022_Sep_01_1021,localizer,2021.1.3,59.75171971141049,
block,scrambled,scrambled060.bmp,,,,,0,231,231,231,,,,,,,,,,,,,,,,,,,,,,,,,,,,,,,,,,,,,,,,,,None,,412.32900799000635,None,412.32900799000635,None,2022-09-01-10:28:35.589829,412.33976689958945,412.64551369985566,412.33976689958945,None,None,412.33976689958945,None,413.15173608977346,None,,,,21011,0001,2022_Sep_01_1021,localizer,2021.1.3,59.75171971141049,
block,scrambled,scrambled054.bmp,,,,,0,232,232,232,,,,,,,,,,,,,,,,,,,,,,,,,,,,,,,,,,,,,,,,,,None,,413.15173608977346,None,413.15173608977346,None,2022-09-01-10:28:36.411342,413.15837479988113,413.4617815995589,413.15837479988113,None,None,413.15837479988113,None,413.96199858961626,None,,,,21011,0001,2022_Sep_01_1021,localizer,2021.1.3,59.75171971141049,
block,scrambled,scrambled076.bmp,,,,,0,233,233,233,,,,,,,,,,,,,,,,,,,,,,,,,,,,,,,,,,,,,,,,,,None,,413.96199858961626,None,413.96199858961626,None,2022-09-01-10:28:37.222702,413.9630253999494,414.27879989985377,413.9630253999494,None,None,413.9630253999494,None,414.76580659002065,None,,,,21011,0001,2022_Sep_01_1021,localizer,2021.1.3,59.75171971141049,
block,scrambled,scrambled029.bmp,,,,,0,234,234,234,,,,,,,,,,,,,,,,,,,,,,,,,,,,,,,,,,,,,,,,,,None,,414.76580659002065,None,414.76580659002065,None,2022-09-01-10:28:38.035501,414.77306289970875,415.07851929962635,414.77306289970875,414.77306289970875,None,414.77306289970875,414.77306289970875,415.5786650896072,None,,,,21011,0001,2022_Sep_01_1021,localizer,2021.1.3,59.75171971141049,
block,scrambled,scrambled088.bmp,,,,,0,235,235,235,,,,,,,,,,,,,,,,,,,,,,,,,,,,,,,,,,,,,,,,,,None,,415.5786650896072,None,415.5786650896072,None,2022-09-01-10:28:38.839405,415.58835719991475,415.8953352998942,415.58835719991475,None,None,415.58835719991475,None,416.39518388994037,None,,,,21011,0001,2022_Sep_01_1021,localizer,2021.1.3,59.75171971141049,
block,scrambled,scrambled056.bmp,,,,,0,236,236,236,,,,,,,,,,,,,,,,,,,,,,,,,,,,,,,,,,,,,,,,,,None,,416.39518388994037,None,416.39518388994037,None,2022-09-01-10:28:39.654945,416.40389739954844,416.7117599998601,416.40389739954844,None,None,416.40389739954844,None,417.2119693898596,None,,,,21011,0001,2022_Sep_01_1021,localizer,2021.1.3,59.75171971141049,
block,scrambled,scrambled019.bmp,,,,,0,237,237,237,,,,,,,,,,,,,,,,,,,,,,,,,,,,,,,,,,,,,,,,,,None,,417.2119693898596,None,417.2119693898596,None,2022-09-01-10:28:40.472739,417.21293399995193,417.5284455996007,417.21293399995193,None,None,417.21293399995193,None,418.0284654896706,None,,,,21011,0001,2022_Sep_01_1021,localizer,2021.1.3,59.75171971141049,
block,scrambled,scrambled049.bmp,,,,,0,238,238,238,,,,,,,,,,,,,,,,,,,,,,,,,,,,,,,,,,,,,,,,,,None,,418.0284654896706,None,418.0284654896706,None,2022-09-01-10:28:41.288255,418.03685499960557,418.34512829966843,418.03685499960557,None,None,418.03685499960557,None,418.8451294897124,None,,,,21011,0001,2022_Sep_01_1021,localizer,2021.1.3,59.75171971141049,
block,scrambled,scrambled050.bmp,,,,,0,239,239,239,,,,,,,,,,,,,,,,,,,,,,,,,,,,,,,,,,,,,,,,,,None,,418.8451294897124,None,418.8451294897124,None,2022-09-01-10:28:42.104939,418.8525331998244,419.16211749985814,418.8525331998244,None,None,418.8525331998244,None,419.66192138968034,None,,,,21011,0001,2022_Sep_01_1021,localizer,2021.1.3,59.75171971141049,
block,scrambled,scrambled007.bmp,,,,,0,240,240,240,,,,,,,,,,,,,,,,,,,,,,,,,,,,,,,,,,,,,,,,,,None,,419.66192138968034,None,419.66192138968034,None,2022-09-01-10:28:42.921745,419.6692627999,419.9788092998788,419.6692627999,None,None,419.6692627999,None,420.47855778997763,None,,,,21011,0001,2022_Sep_01_1021,localizer,2021.1.3,59.75171971141049,
block,scrambled,scrambled002.bmp,,,,,0,241,241,241,,,,,,,,,,,,,,,,,,,,,,,,,,,,,,,,,,,,,,,,,,None,,420.47855778997763,None,420.47855778997763,None,2022-09-01-10:28:43.739396,420.48909179959446,420.7951950998977,420.48909179959446,None,None,420.48909179959446,None,421.2951775899157,None,,,,21011,0001,2022_Sep_01_1021,localizer,2021.1.3,59.75171971141049,
block,scrambled,scrambled031.bmp,,,,,0,242,242,242,,,,,,,,,,,,,,,,,,,,,,,,,,,,,,,,,,,,,,,,,,None,,421.2951775899157,None,421.2951775899157,None,2022-09-01-10:28:44.555258,421.303484399803,421.61164789972827,421.303484399803,None,None,421.303484399803,None,422.11192868957295,None,,,,21011,0001,2022_Sep_01_1021,localizer,2021.1.3,59.75171971141049,
block_end,scrambled,scrambled014.bmp,,,,,0,243,243,243,,,,,,,,,,,,,,,,,,,,,,,,,,,,,,,,,,,,,,,,,,None,,422.11192868957295,None,422.11192868957295,None,2022-09-01-10:28:45.373002,422.1218692995608,422.42859369982034,422.1218692995608,None,None,422.1218692995608,None,422.92897268971427,None,,,,21011,0001,2022_Sep_01_1021,localizer,2021.1.3,59.75171971141049,
,,,,,,,,,,,,,,,,,,,,,,,,,,,,,,,,,,,,,,,,,,,,,,,,,,,,,,,,,,,,,,,,,,,,,422.92865289980546,None,,,,,,,
