block_type,condition,img_name,Button.thisRepN,Button.thisTrialN,Button.thisN,Button.thisIndex,trials.thisRepN,trials.thisTrialN,trials.thisN,trials.thisIndex,Ready_experimenter_text.started,Ready_experimenter_text.stopped,Ready_experimenter_resp.keys,Ready_experimenter_resp.rt,Ready_experimenter_resp.started,Ready_experimenter_resp.stopped,Alignment_background.started,Alignment_background.stopped,Alignment_image.started,Alignment_image.stopped,Alignment_resp.keys,Alignment_resp.rt,Alignment_resp.started,Alignment_resp.stopped,Button_text.started,Button_text.stopped,Index_text.started,Index_text.stopped,Index_resp.keys,Index_resp.rt,Index_resp.started,Index_resp.stopped,Middle_text.started,Middle_text.stopped,Middle_resp.keys,Middle_resp.rt,Middle_resp.started,Middle_resp.stopped,Repeat_text.started,Repeat_text.stopped,Repeat_resp.keys,Repeat_resp.corr,Repeat_resp.rt,Repeat_resp.started,Repeat_resp.stopped,instruction_text.started,instruction_text.stopped,key_resp.keys,key_resp.rt,key_resp.started,key_resp.stopped,scanner_t.keys,scanner_t.rt,scanner_t.started,scanner_t.stopped,fixation_wait_for_t.started,fixation_wait_for_t.stopped,real_timestamp_trial_start,image.started,image.stopped,fixation.started,fixation.stopped,repeat_response.keys,repeat_response.started,repeat_response.stopped,fixation_null.started,fixation_null.stopped,repeat_response.rt,end_text.started,end_text.stopped,participant,run,date,expName,psychopyVersion,frameRate,
,,,,,,,,,,,11.953244699980132,None,return,442.61572070000693,11.953244699980132,None,,,,,,,,,,,,,,,,,,,,,,,,,,,,,,,,,,,,,,,,,,,,,,,,,,,,,,,11012,0002,2022_Mar_07_1137,localizer,2021.1.3,60.68171047754455,
,,,,,,,,,,,,,,,,,454.60619229997974,None,454.60619229997974,None,return,0.8308047000318766,454.60619229997974,None,,,,,,,,,,,,,,,,,,,,,,,,,,,,,,,,,,,,,,,,,,,,,,,11012,0002,2022_Mar_07_1137,localizer,2021.1.3,60.68171047754455,
,,,0,0,0,0,,,,,,,,,,,,,,,,,,,455.45138310000766,None,456.4572604999412,None,y,2.5352245999965817,456.4572604999412,None,459.0178562999936,None,b,1.3994866999564692,459.0178562999936,None,460.4355895000044,None,n,0,5.306895300047472,460.4355895000044,None,,,,,,,,,,,,,,,,,,,,,,,,,,11012,0002,2022_Mar_07_1137,localizer,2021.1.3,60.68171047754455,
,,,,,,,,,,,,,,,,,,,,,,,,,,,,,,,,,,,,,,,,,,,,,,465.76802479999606,None,y,21.23742190003395,465.76802479999606,None,,,,,,,,,,,,,,,,,,,,11012,0002,2022_Mar_07_1137,localizer,2021.1.3,60.68171047754455,
block_start,faces,faces018.bmp,,,,,0,0,0,0,,,,,,,,,,,,,,,,,,,,,,,,,,,,,,,,,,,,,,,,,,t,15.147899099974893,487.06941019999795,None,487.06941019999795,None,2022-03-07-11:45:45.854643,502.25390410004184,502.56841690000147,502.25390410004184,None,None,502.25390410004184,None,503.05204221996246,None,,,,11012,0002,2022_Mar_07_1137,localizer,2021.1.3,60.68171047754455,
block,faces,faces083.bmp,,,,,0,1,1,1,,,,,,,,,,,,,,,,,,,,,,,,,,,,,,,,,,,,,,,,,,None,,503.05204221996246,None,503.05204221996246,None,2022-03-07-11:45:46.669864,503.06202459998894,503.36888670001645,503.06202459998894,None,None,503.06202459998894,None,503.8692235199851,None,,,,11012,0002,2022_Mar_07_1137,localizer,2021.1.3,60.68171047754455,
block,faces,faces081.bmp,,,,,0,2,2,2,,,,,,,,,,,,,,,,,,,,,,,,,,,,,,,,,,,,,,,,,,None,,503.8692235199851,None,503.8692235199851,None,2022-03-07-11:45:47.484308,503.8790358999977,504.1853132999968,503.8790358999977,None,None,503.8790358999977,None,504.6864386200323,None,,,,11012,0002,2022_Mar_07_1137,localizer,2021.1.3,60.68171047754455,
block,faces,faces067.bmp,,,,,0,3,3,3,,,,,,,,,,,,,,,,,,,,,,,,,,,,,,,,,,,,,,,,,,None,,504.6864386200323,None,504.6864386200323,None,2022-03-07-11:45:48.304178,504.6890067999484,504.98844590003137,504.6890067999484,None,None,504.6890067999484,None,505.5018911200459,None,,,,11012,0002,2022_Mar_07_1137,localizer,2021.1.3,60.68171047754455,
block,faces,faces035.bmp,,,,,0,4,4,4,,,,,,,,,,,,,,,,,,,,,,,,,,,,,,,,,,,,,,,,,,None,,505.5018911200459,None,505.5018911200459,None,2022-03-07-11:45:49.117669,505.51432580000255,505.8187865000218,505.51432580000255,None,None,505.51432580000255,None,506.3182906199363,None,,,,11012,0002,2022_Mar_07_1137,localizer,2021.1.3,60.68171047754455,
block,faces,faces026.bmp,,,,,0,5,5,5,,,,,,,,,,,,,,,,,,,,,,,,,,,,,,,,,,,,,,,,,,None,,506.3182906199363,None,506.3182906199363,None,2022-03-07-11:45:49.934075,506.3194943999406,506.6189077999443,506.3194943999406,None,None,506.3194943999406,None,507.11959462001687,None,,,,11012,0002,2022_Mar_07_1137,localizer,2021.1.3,60.68171047754455,
block,faces,faces029.bmp,,,,,0,6,6,6,,,,,,,,,,,,,,,,,,,,,,,,,,,,,,,,,,,,,,,,,,None,,507.11959462001687,None,507.11959462001687,None,2022-03-07-11:45:50.740034,507.1386264000321,507.456838699989,507.1386264000321,507.1386264000321,None,507.1386264000321,507.1386264000321,507.93623842002125,None,,,,11012,0002,2022_Mar_07_1137,localizer,2021.1.3,60.68171047754455,
block,faces,faces079.bmp,,,,,0,7,7,7,,,,,,,,,,,,,,,,,,,,,,,,,,,,,,,,,,,,,,,,,,None,,507.93623842002125,None,507.93623842002125,None,2022-03-07-11:45:51.552998,507.94891799998004,508.25207919999957,507.94891799998004,None,None,507.94891799998004,None,508.75187132001156,None,,,,11012,0002,2022_Mar_07_1137,localizer,2021.1.3,60.68171047754455,
block,faces,faces042.bmp,,,,,0,8,8,8,,,,,,,,,,,,,,,,,,,,,,,,,,,,,,,,,,,,,,,,,,None,,508.75187132001156,None,508.75187132001156,None,2022-03-07-11:45:52.367875,508.75290089997,509.0521620999789,508.75290089997,None,None,508.75290089997,None,509.5672995199566,None,,,,11012,0002,2022_Mar_07_1137,localizer,2021.1.3,60.68171047754455,
block,faces,faces044.bmp,,,,,0,9,9,9,,,,,,,,,,,,,,,,,,,,,,,,,,,,,,,,,,,,,,,,,,None,,509.5672995199566,None,509.5672995199566,None,2022-03-07-11:45:53.182469,509.56954940001015,509.88520689995494,509.56954940001015,None,None,509.56954940001015,None,510.36856051994255,None,,,,11012,0002,2022_Mar_07_1137,localizer,2021.1.3,60.68171047754455,
block,faces,faces069.bmp,,,,,0,10,10,10,,,,,,,,,,,,,,,,,,,,,,,,,,,,,,,,,,,,,,,,,,None,,510.36856051994255,None,510.36856051994255,None,2022-03-07-11:45:53.986531,510.38194380002096,510.68519979994744,510.38194380002096,510.38194380002096,None,510.38194380002096,510.38194380002096,511.18506661994616,None,,,,11012,0002,2022_Mar_07_1137,localizer,2021.1.3,60.68171047754455,
block,faces,faces045.bmp,,,,,0,11,11,11,,,,,,,,,,,,,,,,,,,,,,,,,,,,,,,,,,,,,,,,,,None,,511.18506661994616,None,511.18506661994616,None,2022-03-07-11:45:54.801403,511.1860835000407,511.48534410004504,511.1860835000407,None,None,511.1860835000407,None,511.9852156199631,None,,,,11012,0002,2022_Mar_07_1137,localizer,2021.1.3,60.68171047754455,
block,faces,faces016.bmp,,,,,0,12,12,12,,,,,,,,,,,,,,,,,,,,,,,,,,,,,,,,,,,,,,,,,,None,,511.9852156199631,None,511.9852156199631,None,2022-03-07-11:45:55.604185,512.0001318999566,512.3017863000277,512.0001318999566,512.0001318999566,None,512.0001318999566,512.0001318999566,512.8028553199838,None,,,,11012,0002,2022_Mar_07_1137,localizer,2021.1.3,60.68171047754455,
block,faces,faces060.bmp,,,,,0,13,13,13,,,,,,,,,,,,,,,,,,,,,,,,,,,,,,,,,,,,,,,,,,None,,512.8028553199838,None,512.8028553199838,None,2022-03-07-11:45:56.418090,512.8118113999953,513.1187513000332,512.8118113999953,None,None,512.8118113999953,None,513.6190314200358,None,,,,11012,0002,2022_Mar_07_1137,localizer,2021.1.3,60.68171047754455,
block_end,faces,faces014.bmp,,,,,0,14,14,14,,,,,,,,,,,,,,,,,,,,,,,,,,,,,,,,,,,,,,,,,,None,,513.6190314200358,None,513.6190314200358,None,2022-03-07-11:45:57.234082,513.6313332000282,513.9350900000427,513.6313332000282,None,None,513.6313332000282,None,514.4347751199384,None,,,,11012,0002,2022_Mar_07_1137,localizer,2021.1.3,60.68171047754455,
null_block,null_block,null_block.bmp,,,,,0,15,15,15,,,,,,,,,,,,,,,,,,,,,,,,,,,,,,,,,,,,,,,,,,t,1.7828082999913022,514.4348548999988,None,514.4348548999988,None,2022-03-07-11:45:59.851247,516.2354699200368,None,516.2354699200368,None,None,516.2354699200368,None,516.2412968999706,None,,,,11012,0002,2022_Mar_07_1137,localizer,2021.1.3,60.68171047754455,
block_start,scrambled,scrambled028.bmp,,,,,0,16,16,16,,,,,,,,,,,,,,,,,,,,,,,,,,,,,,,,,,,,,,,,,,t,1.9638804000569507,528.2533084000461,None,528.2533084000461,None,2022-03-07-11:46:13.852700,530.2468164999736,530.552052199957,530.2468164999736,None,None,530.2468164999736,None,531.0520310199936,None,,,,11012,0002,2022_Mar_07_1137,localizer,2021.1.3,60.68171047754455,
block,scrambled,scrambled008.bmp,,,,,0,17,17,17,,,,,,,,,,,,,,,,,,,,,,,,,,,,,,,,,,,,,,,,,,None,,531.0520310199936,None,531.0520310199936,None,2022-03-07-11:46:14.667817,531.0632678000256,531.3687998999376,531.0632678000256,None,None,531.0632678000256,None,531.8686944200308,None,,,,11012,0002,2022_Mar_07_1137,localizer,2021.1.3,60.68171047754455,
block,scrambled,scrambled025.bmp,,,,,0,18,18,18,,,,,,,,,,,,,,,,,,,,,,,,,,,,,,,,,,,,,,,,,,None,,531.8686944200308,None,531.8686944200308,None,2022-03-07-11:46:15.484469,531.8696465999819,532.185533800046,531.8696465999819,None,None,531.8696465999819,None,532.6686671199859,None,,,,11012,0002,2022_Mar_07_1137,localizer,2021.1.3,60.68171047754455,
block,scrambled,scrambled038.bmp,,,,,0,19,19,19,,,,,,,,,,,,,,,,,,,,,,,,,,,,,,,,,,,,,,,,,,None,,532.6686671199859,None,532.6686671199859,None,2022-03-07-11:46:16.286438,532.682730600005,532.9860352999531,532.682730600005,532.682730600005,None,532.682730600005,532.682730600005,533.4858532200451,None,,,,11012,0002,2022_Mar_07_1137,localizer,2021.1.3,60.68171047754455,
block,scrambled,scrambled019.bmp,,,,,0,20,20,20,,,,,,,,,,,,,,,,,,,,,,,,,,,,,,,,,,,,,,,,,,None,,533.4858532200451,None,533.4858532200451,None,2022-03-07-11:46:17.102617,533.4873911000323,533.8023736999603,533.4873911000323,None,None,533.4873911000323,None,534.3031009199913,None,,,,11012,0002,2022_Mar_07_1137,localizer,2021.1.3,60.68171047754455,
block,scrambled,scrambled036.bmp,,,,,0,21,21,21,,,,,,,,,,,,,,,,,,,,,,,,,,,,,,,,,,,,,,,,,,None,,534.3031009199913,None,534.3031009199913,None,2022-03-07-11:46:17.921494,534.3163484999677,534.6187841999345,534.3163484999677,None,None,534.3163484999677,None,535.118426919973,None,,,,11012,0002,2022_Mar_07_1137,localizer,2021.1.3,60.68171047754455,
block,scrambled,scrambled039.bmp,,,,,0,22,22,22,,,,,,,,,,,,,,,,,,,,,,,,,,,,,,,,,,,,,,,,,,None,,535.118426919973,None,535.118426919973,None,2022-03-07-11:46:18.734200,535.1288051999873,535.5027376000071,535.1288051999873,None,None,535.1288051999873,None,535.9243223199737,None,,,,11012,0002,2022_Mar_07_1137,localizer,2021.1.3,60.68171047754455,
block,scrambled,scrambled064.bmp,,,,,0,23,23,23,,,,,,,,,,,,,,,,,,,,,,,,,,,,,,,,,,,,,,,,,,None,,535.9243223199737,None,535.9243223199737,None,2022-03-07-11:46:19.544019,535.9353484000312,536.2354070999427,535.9353484000312,None,None,535.9353484000312,None,536.7355032199412,None,,,,11012,0002,2022_Mar_07_1137,localizer,2021.1.3,60.68171047754455,
block,scrambled,scrambled060.bmp,,,,,0,24,24,24,,,,,,,,,,,,,,,,,,,,,,,,,,,,,,,,,,,,,,,,,,None,,536.7355032199412,None,536.7355032199412,None,2022-03-07-11:46:20.351042,536.7363218000391,537.0360810999991,536.7363218000391,None,None,536.7363218000391,None,537.5359005199862,None,,,,11012,0002,2022_Mar_07_1137,localizer,2021.1.3,60.68171047754455,
block,scrambled,scrambled060.bmp,,,,,0,25,25,25,,,,,,,,,,,,,,,,,,,,,,,,,,,,,,,,,,,,,,,,,,None,,537.5359005199862,None,537.5359005199862,None,2022-03-07-11:46:21.155010,537.5394680999452,537.852623200044,537.5394680999452,537.5394680999452,None,537.5394680999452,537.5394680999452,538.3529883199953,None,,,,11012,0002,2022_Mar_07_1137,localizer,2021.1.3,60.68171047754455,
block,scrambled,scrambled002.bmp,,,,,0,26,26,26,,,,,,,,,,,,,,,,,,,,,,,,,,,,,,,,,,,,,,,,,,None,,538.3529883199953,None,538.3529883199953,None,2022-03-07-11:46:21.970842,538.3559046000009,538.6688317999942,538.3559046000009,None,None,538.3559046000009,None,539.1687435199856,None,,,,11012,0002,2022_Mar_07_1137,localizer,2021.1.3,60.68171047754455,
block,scrambled,scrambled013.bmp,,,,,0,27,27,27,,,,,,,,,,,,,,,,,,,,,,,,,,,,,,,,,,,,,,,,,,None,,539.1687435199856,None,539.1687435199856,None,2022-03-07-11:46:22.784644,539.1799711999483,539.4852653000271,539.1799711999483,None,None,539.1799711999483,None,539.9857288200292,None,,,,11012,0002,2022_Mar_07_1137,localizer,2021.1.3,60.68171047754455,
block,scrambled,scrambled016.bmp,,,,,0,28,28,28,,,,,,,,,,,,,,,,,,,,,,,,,,,,,,,,,,,,,,,,,,None,,539.9857288200292,None,539.9857288200292,None,2022-03-07-11:46:23.602694,539.9966110000387,540.3022916000336,539.9966110000387,None,None,539.9966110000387,None,540.8020464199944,None,,,,11012,0002,2022_Mar_07_1137,localizer,2021.1.3,60.68171047754455,
block,scrambled,scrambled082.bmp,,,,,0,29,29,29,,,,,,,,,,,,,,,,,,,,,,,,,,,,,,,,,,,,,,,,,,None,,540.8020464199944,None,540.8020464199944,None,2022-03-07-11:46:24.418027,540.8116786000319,541.1188316999469,540.8116786000319,None,None,540.8116786000319,None,541.6187860200298,None,,,,11012,0002,2022_Mar_07_1137,localizer,2021.1.3,60.68171047754455,
block_end,scrambled,scrambled032.bmp,,,,,0,30,30,30,,,,,,,,,,,,,,,,,,,,,,,,,,,,,,,,,,,,,,,,,,None,,541.6187860200298,None,541.6187860200298,None,2022-03-07-11:46:25.234561,541.6286002999404,541.9358677000273,541.6286002999404,None,None,541.6286002999404,None,542.4353744199616,None,,,,11012,0002,2022_Mar_07_1137,localizer,2021.1.3,60.68171047754455,
block_start,objects,objects044.bmp,,,,,0,31,31,31,,,,,,,,,,,,,,,,,,,,,,,,,,,,,,,,,,,,,,,,,,t,1.780998200061731,542.4353220999474,None,542.4353220999474,None,2022-03-07-11:46:27.852644,544.2472779999953,544.55215699994,544.2472779999953,None,None,544.2472779999953,None,545.0519556200015,None,,,,11012,0002,2022_Mar_07_1137,localizer,2021.1.3,60.68171047754455,
block,objects,objects046.bmp,,,,,0,32,32,32,,,,,,,,,,,,,,,,,,,,,,,,,,,,,,,,,,,,,,,,,,None,,545.0519556200015,None,545.0519556200015,None,2022-03-07-11:46:28.667732,545.052992300014,545.3688665999798,545.052992300014,None,None,545.052992300014,None,545.853136819962,None,,,,11012,0002,2022_Mar_07_1137,localizer,2021.1.3,60.68171047754455,
block,objects,objects021.bmp,,,,,0,33,33,33,,,,,,,,,,,,,,,,,,,,,,,,,,,,,,,,,,,,,,,,,,None,,545.853136819962,None,545.853136819962,None,2022-03-07-11:46:29.473884,545.8584937000414,546.1695329999784,545.8584937000414,545.8584937000414,None,545.8584937000414,545.8584937000414,546.6692033199943,None,,,,11012,0002,2022_Mar_07_1137,localizer,2021.1.3,60.68171047754455,
block,objects,objects001.bmp,,,,,0,34,34,34,,,,,,,,,,,,,,,,,,,,,,,,,,,,,,,,,,,,,,,,,,None,,546.6692033199943,None,546.6692033199943,None,2022-03-07-11:46:30.286178,546.6813613999402,546.9853220999939,546.6813613999402,None,None,546.6813613999402,None,547.4857133200276,None,,,,11012,0002,2022_Mar_07_1137,localizer,2021.1.3,60.68171047754455,
block,objects,objects053.bmp,,,,,0,35,35,35,,,,,,,,,,,,,,,,,,,,,,,,,,,,,,,,,,,,,,,,,,None,,547.4857133200276,None,547.4857133200276,None,2022-03-07-11:46:31.101604,547.4966457999544,547.802250299952,547.4966457999544,None,None,547.4966457999544,None,548.3020583199686,None,,,,11012,0002,2022_Mar_07_1137,localizer,2021.1.3,60.68171047754455,
block,objects,objects018.bmp,,,,,0,36,36,36,,,,,,,,,,,,,,,,,,,,,,,,,,,,,,,,,,,,,,,,,,None,,548.3020583199686,None,548.3020583199686,None,2022-03-07-11:46:31.917831,548.3031189000467,548.6192627999699,548.3031189000467,None,None,548.3031189000467,None,549.1023384199361,None,,,,11012,0002,2022_Mar_07_1137,localizer,2021.1.3,60.68171047754455,
block,objects,objects017.bmp,,,,,0,37,37,37,,,,,,,,,,,,,,,,,,,,,,,,,,,,,,,,,,,,,,,,,,None,,549.1023384199361,None,549.1023384199361,None,2022-03-07-11:46:32.720302,549.1148541000439,549.4206300999504,549.1148541000439,549.1148541000439,None,549.1148541000439,549.1148541000439,549.918578420009,None,,,,11012,0002,2022_Mar_07_1137,localizer,2021.1.3,60.68171047754455,
block,objects,objects032.bmp,,,,,0,38,38,38,,,,,,,,,,,,,,,,,,,,,,,,,,,,,,,,,,,,,,,,,,None,,549.918578420009,None,549.918578420009,None,2022-03-07-11:46:33.534357,549.928283700021,550.2355884000426,549.928283700021,None,None,549.928283700021,None,550.7353796200478,None,,,,11012,0002,2022_Mar_07_1137,localizer,2021.1.3,60.68171047754455,
block,objects,objects024.bmp,,,,,0,39,39,39,,,,,,,,,,,,,,,,,,,,,,,,,,,,,,,,,,,,,,,,,,None,,550.7353796200478,None,550.7353796200478,None,2022-03-07-11:46:34.351151,550.7363212000346,551.052260800032,550.7363212000346,None,None,550.7363212000346,None,551.5363889199798,None,,,,11012,0002,2022_Mar_07_1137,localizer,2021.1.3,60.68171047754455,
block,objects,objects029.bmp,,,,,0,40,40,40,,,,,,,,,,,,,,,,,,,,,,,,,,,,,,,,,,,,,,,,,,None,,551.5363889199798,None,551.5363889199798,None,2022-03-07-11:46:35.155802,551.551315199933,551.8522201000014,551.551315199933,551.551315199933,None,551.551315199933,551.551315199933,552.352162819996,None,,,,11012,0002,2022_Mar_07_1137,localizer,2021.1.3,60.68171047754455,
block,objects,objects050.bmp,,,,,0,41,41,41,,,,,,,,,,,,,,,,,,,,,,,,,,,,,,,,,,,,,,,,,,None,,552.352162819996,None,552.352162819996,None,2022-03-07-11:46:35.968360,552.3529375999933,552.6521936999634,552.3529375999933,None,None,552.3529375999933,None,553.1520086200326,None,,,,11012,0002,2022_Mar_07_1137,localizer,2021.1.3,60.68171047754455,
block,objects,objects004.bmp,,,,,0,42,42,42,,,,,,,,,,,,,,,,,,,,,,,,,,,,,,,,,,,,,,,,,,None,,553.1520086200326,None,553.1520086200326,None,2022-03-07-11:46:36.769699,553.1532726000296,553.4689676000271,553.1532726000296,553.1532726000296,None,553.1532726000296,553.1532726000296,553.9524184199399,None,,,,11012,0002,2022_Mar_07_1137,localizer,2021.1.3,60.68171047754455,
block,objects,objects049.bmp,,,,,0,43,43,43,,,,,,,,,,,,,,,,,,,,,,,,,,,,,,,,,,,,,,,,,,None,,553.9524184199399,None,553.9524184199399,None,2022-03-07-11:46:37.571162,553.9663135999581,554.2685030000284,553.9663135999581,553.9663135999581,None,553.9663135999581,553.9663135999581,554.7686843199772,None,,,,11012,0002,2022_Mar_07_1137,localizer,2021.1.3,60.68171047754455,
block,objects,objects060.bmp,,,,,0,44,44,44,,,,,,,,,,,,,,,,,,,,,,,,,,,,,,,,,,,,,,,,,,None,,554.7686843199772,None,554.7686843199772,None,2022-03-07-11:46:38.384368,554.7768934000051,555.0855640999507,554.7768934000051,None,None,554.7768934000051,None,555.5855746199959,None,,,,11012,0002,2022_Mar_07_1137,localizer,2021.1.3,60.68171047754455,
block_end,objects,objects033.bmp,,,,,0,45,45,45,,,,,,,,,,,,,,,,,,,,,,,,,,,,,,,,,,,,,,,,,,None,,555.5855746199959,None,555.5855746199959,None,2022-03-07-11:46:39.201462,555.5865882999497,555.902013199986,555.5865882999497,None,None,555.5865882999497,None,556.4018190199859,None,,,,11012,0002,2022_Mar_07_1137,localizer,2021.1.3,60.68171047754455,
block_start,scenes,scenes061.bmp,,,,,0,46,46,46,,,,,,,,,,,,,,,,,,,,,,,,,,,,,,,,,,,,,,,,,,t,1.8141028999816626,556.4021254000254,None,556.4021254000254,None,2022-03-07-11:46:41.853425,558.2395104999887,558.5525373000419,558.2395104999887,None,None,558.2395104999887,None,559.0525904199458,None,,,,11012,0002,2022_Mar_07_1137,localizer,2021.1.3,60.68171047754455,
block,scenes,scenes048.bmp,,,,,0,47,47,47,,,,,,,,,,,,,,,,,,,,,,,,,,,,,,,,,,,,,,,,,,None,,559.0525904199458,None,559.0525904199458,None,2022-03-07-11:46:42.669352,559.0542798000388,559.369534199941,559.0542798000388,None,None,559.0542798000388,None,559.8694492199575,None,,,,11012,0002,2022_Mar_07_1137,localizer,2021.1.3,60.68171047754455,
block,scenes,scenes010.bmp,,,,,0,48,48,48,,,,,,,,,,,,,,,,,,,,,,,,,,,,,,,,,,,,,,,,,,None,,559.8694492199575,None,559.8694492199575,None,2022-03-07-11:46:43.486207,559.8713136999868,560.1855799000477,559.8713136999868,None,None,559.8713136999868,None,560.6855552199413,None,,,,11012,0002,2022_Mar_07_1137,localizer,2021.1.3,60.68171047754455,
block,scenes,scenes086.bmp,,,,,0,49,49,49,,,,,,,,,,,,,,,,,,,,,,,,,,,,,,,,,,,,,,,,,,None,,560.6855552199413,None,560.6855552199413,None,2022-03-07-11:46:44.301328,560.7251275000162,561.0356898000464,560.7251275000162,None,None,560.7251275000162,None,561.5021662200452,None,,,,11012,0002,2022_Mar_07_1137,localizer,2021.1.3,60.68171047754455,
block,scenes,scenes036.bmp,,,,,0,50,50,50,,,,,,,,,,,,,,,,,,,,,,,,,,,,,,,,,,,,,,,,,,None,,561.5021662200452,None,561.5021662200452,None,2022-03-07-11:46:45.118047,561.5123309999472,561.8191122999415,561.5123309999472,None,None,561.5123309999472,None,562.3190373200341,None,,,,11012,0002,2022_Mar_07_1137,localizer,2021.1.3,60.68171047754455,
block,scenes,scenes076.bmp,,,,,0,51,51,51,,,,,,,,,,,,,,,,,,,,,,,,,,,,,,,,,,,,,,,,,,None,,562.3190373200341,None,562.3190373200341,None,2022-03-07-11:46:45.935804,562.3300841000164,562.6353877999354,562.3300841000164,None,None,562.3300841000164,None,563.1354560199543,None,,,,11012,0002,2022_Mar_07_1137,localizer,2021.1.3,60.68171047754455,
block,scenes,scenes008.bmp,,,,,0,52,52,52,,,,,,,,,,,,,,,,,,,,,,,,,,,,,,,,,,,,,,,,,,None,,563.1354560199543,None,563.1354560199543,None,2022-03-07-11:46:46.751231,563.1364021999761,563.4523345000343,563.1364021999761,None,None,563.1364021999761,None,563.9356763200485,None,,,,11012,0002,2022_Mar_07_1137,localizer,2021.1.3,60.68171047754455,
block,scenes,scenes020.bmp,,,,,0,53,53,53,,,,,,,,,,,,,,,,,,,,,,,,,,,,,,,,,,,,,,,,,,None,,563.9356763200485,None,563.9356763200485,None,2022-03-07-11:46:47.553035,563.9478292999556,564.2525871000253,563.9478292999556,563.9478292999556,None,563.9478292999556,563.9478292999556,564.7530819200329,None,,,,11012,0002,2022_Mar_07_1137,localizer,2021.1.3,60.68171047754455,
block,scenes,scenes066.bmp,,,,,0,54,54,54,,,,,,,,,,,,,,,,,,,,,,,,,,,,,,,,,,,,,,,,,,None,,564.7530819200329,None,564.7530819200329,None,2022-03-07-11:46:48.371253,564.7671043999726,565.0696385999909,564.7671043999726,None,None,564.7671043999726,None,565.5686546200304,None,,,,11012,0002,2022_Mar_07_1137,localizer,2021.1.3,60.68171047754455,
block,scenes,scenes077.bmp,,,,,0,55,55,55,,,,,,,,,,,,,,,,,,,,,,,,,,,,,,,,,,,,,,,,,,None,,565.5686546200304,None,565.5686546200304,None,2022-03-07-11:46:49.184397,565.5735326999566,565.88558500004,565.5735326999566,None,None,565.5735326999566,None,566.3865190200158,None,,,,11012,0002,2022_Mar_07_1137,localizer,2021.1.3,60.68171047754455,
block,scenes,scenes033.bmp,,,,,0,56,56,56,,,,,,,,,,,,,,,,,,,,,,,,,,,,,,,,,,,,,,,,,,None,,566.3865190200158,None,566.3865190200158,None,2022-03-07-11:46:50.004440,566.3998776000226,566.7022920999443,566.3998776000226,None,None,566.3998776000226,None,567.2023004199727,None,,,,11012,0002,2022_Mar_07_1137,localizer,2021.1.3,60.68171047754455,
block,scenes,scenes026.bmp,,,,,0,57,57,57,,,,,,,,,,,,,,,,,,,,,,,,,,,,,,,,,,,,,,,,,,None,,567.2023004199727,None,567.2023004199727,None,2022-03-07-11:46:50.818038,567.2032743999735,567.5191447000252,567.2032743999735,None,None,567.2032743999735,None,568.0186834199703,None,,,,11012,0002,2022_Mar_07_1137,localizer,2021.1.3,60.68171047754455,
block,scenes,scenes054.bmp,,,,,0,58,58,58,,,,,,,,,,,,,,,,,,,,,,,,,,,,,,,,,,,,,,,,,,None,,568.0186834199703,None,568.0186834199703,None,2022-03-07-11:46:51.634455,568.0320038000355,568.3361101000337,568.0320038000355,None,None,568.0320038000355,None,568.8362744199694,None,,,,11012,0002,2022_Mar_07_1137,localizer,2021.1.3,60.68171047754455,
block,scenes,scenes024.bmp,,,,,0,59,59,59,,,,,,,,,,,,,,,,,,,,,,,,,,,,,,,,,,,,,,,,,,None,,568.8362744199694,None,568.8362744199694,None,2022-03-07-11:46:52.453230,568.8481080000056,569.1521995000076,568.8481080000056,None,None,568.8481080000056,None,569.6544149199617,None,,,,11012,0002,2022_Mar_07_1137,localizer,2021.1.3,60.68171047754455,
block_end,scenes,scenes017.bmp,,,,,0,60,60,60,,,,,,,,,,,,,,,,,,,,,,,,,,,,,,,,,,,,,,,,,,None,,569.6544149199617,None,569.6544149199617,None,2022-03-07-11:46:53.270652,569.6638111999491,569.9690024999436,569.6638111999491,None,None,569.6638111999491,None,570.4687245200039,None,,,,11012,0002,2022_Mar_07_1137,localizer,2021.1.3,60.68171047754455,
null_block,null_block,null_block.bmp,,,,,0,61,61,61,,,,,,,,,,,,,,,,,,,,,,,,,,,,,,,,,,,,,,,,,,t,1.747215999988839,570.4689301999751,None,570.4689301999751,None,2022-03-07-11:46:55.849779,572.2358135199756,None,572.2358135199756,None,None,572.2358135199756,None,572.2459068000317,None,,,,11012,0002,2022_Mar_07_1137,localizer,2021.1.3,60.68171047754455,
block_start,scrambled,scrambled070.bmp,,,,,0,62,62,62,,,,,,,,,,,,,,,,,,,,,,,,,,,,,,,,,,,,,,,,,,t,1.9625173999229446,584.2536523999879,None,584.2536523999879,None,2022-03-07-11:47:09.856466,586.2408597000176,586.5523793000029,586.2408597000176,None,None,586.2408597000176,None,587.0522747199866,None,,,,11012,0002,2022_Mar_07_1137,localizer,2021.1.3,60.68171047754455,
block,scrambled,scrambled007.bmp,,,,,0,63,63,63,,,,,,,,,,,,,,,,,,,,,,,,,,,,,,,,,,,,,,,,,,None,,587.0522747199866,None,587.0522747199866,None,2022-03-07-11:47:10.668122,587.0629538999638,587.3696739999577,587.0629538999638,None,None,587.0629538999638,None,587.8690109199961,None,,,,11012,0002,2022_Mar_07_1137,localizer,2021.1.3,60.68171047754455,
block,scrambled,scrambled071.bmp,,,,,0,64,64,64,,,,,,,,,,,,,,,,,,,,,,,,,,,,,,,,,,,,,,,,,,None,,587.8690109199961,None,587.8690109199961,None,2022-03-07-11:47:11.484756,587.870083799935,588.170343899983,587.870083799935,None,None,587.870083799935,None,588.6701072200085,None,,,,11012,0002,2022_Mar_07_1137,localizer,2021.1.3,60.68171047754455,
block,scrambled,scrambled033.bmp,,,,,0,65,65,65,,,,,,,,,,,,,,,,,,,,,,,,,,,,,,,,,,,,,,,,,,None,,588.6701072200085,None,588.6701072200085,None,2022-03-07-11:47:12.289884,588.6743482999736,588.9854831999401,588.6743482999736,588.6743482999736,None,588.6743482999736,588.6743482999736,589.485570519988,None,,,,11012,0002,2022_Mar_07_1137,localizer,2021.1.3,60.68171047754455,
block,scrambled,scrambled028.bmp,,,,,0,66,66,66,,,,,,,,,,,,,,,,,,,,,,,,,,,,,,,,,,,,,,,,,,None,,589.485570519988,None,589.485570519988,None,2022-03-07-11:47:13.101343,589.4865830999333,589.786036000005,589.4865830999333,None,None,589.4865830999333,None,590.2863584199804,None,,,,11012,0002,2022_Mar_07_1137,localizer,2021.1.3,60.68171047754455,
block,scrambled,scrambled088.bmp,,,,,0,67,67,67,,,,,,,,,,,,,,,,,,,,,,,,,,,,,,,,,,,,,,,,,,None,,590.2863584199804,None,590.2863584199804,None,2022-03-07-11:47:13.905953,590.2917475999566,590.6031407000264,590.2917475999566,590.2917475999566,None,590.2917475999566,590.2917475999566,591.1022682199837,None,,,,11012,0002,2022_Mar_07_1137,localizer,2021.1.3,60.68171047754455,
block,scrambled,scrambled053.bmp,,,,,0,68,68,68,,,,,,,,,,,,,,,,,,,,,,,,,,,,,,,,,,,,,,,,,,None,,591.1022682199837,None,591.1022682199837,None,2022-03-07-11:47:14.718039,591.1032420999836,591.4024686999619,591.1032420999836,None,None,591.1032420999836,None,591.9188622199581,None,,,,11012,0002,2022_Mar_07_1137,localizer,2021.1.3,60.68171047754455,
block,scrambled,scrambled058.bmp,,,,,0,69,69,69,,,,,,,,,,,,,,,,,,,,,,,,,,,,,,,,,,,,,,,,,,None,,591.9188622199581,None,591.9188622199581,None,2022-03-07-11:47:15.534633,591.9288663000334,592.235790799954,591.9288663000334,None,None,591.9288663000334,None,592.7357771200477,None,,,,11012,0002,2022_Mar_07_1137,localizer,2021.1.3,60.68171047754455,
block,scrambled,scrambled034.bmp,,,,,0,70,70,70,,,,,,,,,,,,,,,,,,,,,,,,,,,,,,,,,,,,,,,,,,None,,592.7357771200477,None,592.7357771200477,None,2022-03-07-11:47:16.351543,592.736491000047,593.0524167999392,592.736491000047,None,None,592.736491000047,None,593.5522796200239,None,,,,11012,0002,2022_Mar_07_1137,localizer,2021.1.3,60.68171047754455,
block,scrambled,scrambled081.bmp,,,,,0,71,71,71,,,,,,,,,,,,,,,,,,,,,,,,,,,,,,,,,,,,,,,,,,None,,593.5522796200239,None,593.5522796200239,None,2022-03-07-11:47:17.168048,593.5531745000044,593.8529819999821,593.5531745000044,None,None,593.5531745000044,None,594.3528980200063,None,,,,11012,0002,2022_Mar_07_1137,localizer,2021.1.3,60.68171047754455,
block,scrambled,scrambled047.bmp,,,,,0,72,72,72,,,,,,,,,,,,,,,,,,,,,,,,,,,,,,,,,,,,,,,,,,None,,594.3528980200063,None,594.3528980200063,None,2022-03-07-11:47:17.971586,594.3667264999822,594.66948339995,594.3667264999822,594.3667264999822,None,594.3667264999822,594.3667264999822,595.1687451199978,None,,,,11012,0002,2022_Mar_07_1137,localizer,2021.1.3,60.68171047754455,
block,scrambled,scrambled004.bmp,,,,,0,73,73,73,,,,,,,,,,,,,,,,,,,,,,,,,,,,,,,,,,,,,,,,,,None,,595.1687451199978,None,595.1687451199978,None,2022-03-07-11:47:18.784520,595.1735404999927,595.4858471000334,595.1735404999927,None,None,595.1735404999927,None,595.9862479200237,None,,,,11012,0002,2022_Mar_07_1137,localizer,2021.1.3,60.68171047754455,
block,scrambled,scrambled056.bmp,,,,,0,74,74,74,,,,,,,,,,,,,,,,,,,,,,,,,,,,,,,,,,,,,,,,,,None,,595.9862479200237,None,595.9862479200237,None,2022-03-07-11:47:19.603185,595.9980539999669,596.3029715999728,595.9980539999669,None,None,595.9980539999669,None,596.8026693199645,None,,,,11012,0002,2022_Mar_07_1137,localizer,2021.1.3,60.68171047754455,
block,scrambled,scrambled061.bmp,,,,,0,75,75,75,,,,,,,,,,,,,,,,,,,,,,,,,,,,,,,,,,,,,,,,,,None,,596.8026693199645,None,596.8026693199645,None,2022-03-07-11:47:20.419635,596.8034073000308,597.1027792999521,596.8034073000308,None,None,596.8034073000308,None,597.6189988200204,None,,,,11012,0002,2022_Mar_07_1137,localizer,2021.1.3,60.68171047754455,
block_end,scrambled,scrambled079.bmp,,,,,0,76,76,76,,,,,,,,,,,,,,,,,,,,,,,,,,,,,,,,,,,,,,,,,,None,,597.6189988200204,None,597.6189988200204,None,2022-03-07-11:47:21.234767,597.6199412000133,597.9419851000421,597.6199412000133,None,None,597.6199412000133,None,598.4194046200137,None,,,,11012,0002,2022_Mar_07_1137,localizer,2021.1.3,60.68171047754455,
block_start,scenes,scenes090.bmp,,,,,0,77,77,77,,,,,,,,,,,,,,,,,,,,,,,,,,,,,,,,,,,,,,,,,,t,1.7968011000193655,598.4193618999561,None,598.4193618999561,None,2022-03-07-11:47:23.853039,600.2387254999485,600.5531564999837,600.2387254999485,None,None,600.2387254999485,None,601.052900419978,None,,,,11012,0002,2022_Mar_07_1137,localizer,2021.1.3,60.68171047754455,
block,scenes,scenes027.bmp,,,,,0,78,78,78,,,,,,,,,,,,,,,,,,,,,,,,,,,,,,,,,,,,,,,,,,None,,601.052900419978,None,601.052900419978,None,2022-03-07-11:47:24.669677,601.0648769999389,601.3691696999595,601.0648769999389,None,None,601.0648769999389,None,601.869214920036,None,,,,11012,0002,2022_Mar_07_1137,localizer,2021.1.3,60.68171047754455,
block,scenes,scenes012.bmp,,,,,0,79,79,79,,,,,,,,,,,,,,,,,,,,,,,,,,,,,,,,,,,,,,,,,,None,,601.869214920036,None,601.869214920036,None,2022-03-07-11:47:25.484984,601.8701933999546,602.1696546999738,601.8701933999546,None,None,601.8701933999546,None,602.6710541200009,None,,,,11012,0002,2022_Mar_07_1137,localizer,2021.1.3,60.68171047754455,
block,scenes,scenes014.bmp,,,,,0,80,80,80,,,,,,,,,,,,,,,,,,,,,,,,,,,,,,,,,,,,,,,,,,None,,602.6710541200009,None,602.6710541200009,None,2022-03-07-11:47:26.293081,602.6930906999623,603.0031003999757,602.6930906999623,602.6930906999623,None,602.6930906999623,602.6930906999623,603.4857298200368,None,,,,11012,0002,2022_Mar_07_1137,localizer,2021.1.3,60.68171047754455,
block,scenes,scenes017.bmp,,,,,0,81,81,81,,,,,,,,,,,,,,,,,,,,,,,,,,,,,,,,,,,,,,,,,,None,,603.4857298200368,None,603.4857298200368,None,2022-03-07-11:47:27.101496,603.4868954999838,603.8026631999528,603.4868954999838,None,None,603.4868954999838,None,604.3019417200121,None,,,,11012,0002,2022_Mar_07_1137,localizer,2021.1.3,60.68171047754455,
block,scenes,scenes038.bmp,,,,,0,82,82,82,,,,,,,,,,,,,,,,,,,,,,,,,,,,,,,,,,,,,,,,,,None,,604.3019417200121,None,604.3019417200121,None,2022-03-07-11:47:27.917637,604.3035286000231,604.6191189000383,604.3035286000231,None,None,604.3035286000231,None,605.1025344200316,None,,,,11012,0002,2022_Mar_07_1137,localizer,2021.1.3,60.68171047754455,
block,scenes,scenes037.bmp,,,,,0,83,83,83,,,,,,,,,,,,,,,,,,,,,,,,,,,,,,,,,,,,,,,,,,None,,605.1025344200316,None,605.1025344200316,None,2022-03-07-11:47:28.721492,605.1056366999401,605.4196113999933,605.1056366999401,605.1056366999401,None,605.1056366999401,605.1056366999401,605.919399019971,None,,,,11012,0002,2022_Mar_07_1137,localizer,2021.1.3,60.68171047754455,
block,scenes,scenes020.bmp,,,,,0,84,84,84,,,,,,,,,,,,,,,,,,,,,,,,,,,,,,,,,,,,,,,,,,None,,605.919399019971,None,605.919399019971,None,2022-03-07-11:47:29.536160,605.9204759999411,606.2361329999985,605.9204759999411,None,None,605.9204759999411,None,606.7221767199808,None,,,,11012,0002,2022_Mar_07_1137,localizer,2021.1.3,60.68171047754455,
block,scenes,scenes026.bmp,,,,,0,85,85,85,,,,,,,,,,,,,,,,,,,,,,,,,,,,,,,,,,,,,,,,,,None,,606.7221767199808,None,606.7221767199808,None,2022-03-07-11:47:30.344098,606.7300934999948,607.035736199934,606.7300934999948,606.7300934999948,None,606.7300934999948,606.7300934999948,607.5359586199629,None,,,,11012,0002,2022_Mar_07_1137,localizer,2021.1.3,60.68171047754455,
block,scenes,scenes045.bmp,,,,,0,86,86,86,,,,,,,,,,,,,,,,,,,,,,,,,,,,,,,,,,,,,,,,,,None,,607.5359586199629,None,607.5359586199629,None,2022-03-07-11:47:31.151722,607.5367284000386,607.8359808999812,607.5367284000386,None,None,607.5367284000386,None,608.3522936199442,None,,,,11012,0002,2022_Mar_07_1137,localizer,2021.1.3,60.68171047754455,
block,scenes,scenes064.bmp,,,,,0,87,87,87,,,,,,,,,,,,,,,,,,,,,,,,,,,,,,,,,,,,,,,,,,None,,608.3522936199442,None,608.3522936199442,None,2022-03-07-11:47:31.968066,608.3614866000134,608.6689074999886,608.3614866000134,None,None,608.3614866000134,None,609.1710581200314,None,,,,11012,0002,2022_Mar_07_1137,localizer,2021.1.3,60.68171047754455,
block,scenes,scenes062.bmp,,,,,0,88,88,88,,,,,,,,,,,,,,,,,,,,,,,,,,,,,,,,,,,,,,,,,,None,,609.1710581200314,None,609.1710581200314,None,2022-03-07-11:47:32.787753,609.1819918999681,609.485764299985,609.1819918999681,None,None,609.1819918999681,None,609.9853655199404,None,,,,11012,0002,2022_Mar_07_1137,localizer,2021.1.3,60.68171047754455,
block,scenes,scenes035.bmp,,,,,0,89,89,89,,,,,,,,,,,,,,,,,,,,,,,,,,,,,,,,,,,,,,,,,,None,,609.9853655199404,None,609.9853655199404,None,2022-03-07-11:47:33.601436,609.9941577999853,610.2911460000323,609.9941577999853,None,None,609.9941577999853,None,610.8030630199355,None,,,,11012,0002,2022_Mar_07_1137,localizer,2021.1.3,60.68171047754455,
block,scenes,scenes049.bmp,,,,,0,90,90,90,,,,,,,,,,,,,,,,,,,,,,,,,,,,,,,,,,,,,,,,,,None,,610.8030630199355,None,610.8030630199355,None,2022-03-07-11:47:34.419817,610.8046507999534,611.1198743999703,610.8046507999534,None,None,610.8046507999534,None,611.6197695199517,None,,,,11012,0002,2022_Mar_07_1137,localizer,2021.1.3,60.68171047754455,
block_end,scenes,scenes032.bmp,,,,,0,91,91,91,,,,,,,,,,,,,,,,,,,,,,,,,,,,,,,,,,,,,,,,,,None,,611.6197695199517,None,611.6197695199517,None,2022-03-07-11:47:35.236576,611.6219392999774,611.9364423999796,611.6219392999774,None,None,611.6219392999774,None,612.436098820006,None,,,,11012,0002,2022_Mar_07_1137,localizer,2021.1.3,60.68171047754455,
block_start,objects,objects085.bmp,,,,,0,92,92,92,,,,,,,,,,,,,,,,,,,,,,,,,,,,,,,,,,,,,,,,,,t,1.7799545000307262,612.4362433999777,None,612.4362433999777,None,2022-03-07-11:47:37.851366,614.2368048999924,614.5529213999398,614.2368048999924,None,None,614.2368048999924,None,615.0358834199724,None,,,,11012,0002,2022_Mar_07_1137,localizer,2021.1.3,60.68171047754455,
block,objects,objects050.bmp,,,,,0,93,93,93,,,,,,,,,,,,,,,,,,,,,,,,,,,,,,,,,,,,,,,,,,None,,615.0358834199724,None,615.0358834199724,None,2022-03-07-11:47:38.653830,615.0385950999334,615.3525788999395,615.0385950999334,615.0385950999334,None,615.0385950999334,615.0385950999334,615.8527782200254,None,,,,11012,0002,2022_Mar_07_1137,localizer,2021.1.3,60.68171047754455,
block,objects,objects047.bmp,,,,,0,94,94,94,,,,,,,,,,,,,,,,,,,,,,,,,,,,,,,,,,,,,,,,,,None,,615.8527782200254,None,615.8527782200254,None,2022-03-07-11:47:39.469901,615.8536200999515,616.1694190000417,615.8536200999515,None,None,615.8536200999515,None,616.6529163199593,None,,,,11012,0002,2022_Mar_07_1137,localizer,2021.1.3,60.68171047754455,
block,objects,objects069.bmp,,,,,0,95,95,95,,,,,,,,,,,,,,,,,,,,,,,,,,,,,,,,,,,,,,,,,,None,,616.6529163199593,None,616.6529163199593,None,2022-03-07-11:47:40.270813,616.6659701999743,616.9698925999692,616.6659701999743,616.6659701999743,None,616.6659701999743,616.6659701999743,617.4691613199539,None,,,,11012,0002,2022_Mar_07_1137,localizer,2021.1.3,60.68171047754455,
block,objects,objects012.bmp,,,,,0,96,96,96,,,,,,,,,,,,,,,,,,,,,,,,,,,,,,,,,,,,,,,,,,None,,617.4691613199539,None,617.4691613199539,None,2022-03-07-11:47:41.084929,617.4700573999435,617.7694435999729,617.4700573999435,None,None,617.4700573999435,None,618.2695662199403,None,,,,11012,0002,2022_Mar_07_1137,localizer,2021.1.3,60.68171047754455,
block,objects,objects052.bmp,,,,,0,97,97,97,,,,,,,,,,,,,,,,,,,,,,,,,,,,,,,,,,,,,,,,,,None,,618.2695662199403,None,618.2695662199403,None,2022-03-07-11:47:41.888330,618.2851778999902,618.5866270000115,618.2851778999902,618.2851778999902,None,618.2851778999902,618.2851778999902,619.0856810199912,None,,,,11012,0002,2022_Mar_07_1137,localizer,2021.1.3,60.68171047754455,
block,objects,objects044.bmp,,,,,0,98,98,98,,,,,,,,,,,,,,,,,,,,,,,,,,,,,,,,,,,,,,,,,,None,,619.0856810199912,None,619.0856810199912,None,2022-03-07-11:47:42.701487,619.0868346999632,619.4026733000064,619.0868346999632,None,None,619.0868346999632,None,619.886892719951,None,,,,11012,0002,2022_Mar_07_1137,localizer,2021.1.3,60.68171047754455,
block,objects,objects003.bmp,,,,,0,99,99,99,,,,,,,,,,,,,,,,,,,,,,,,,,,,,,,,,,,,,,,,,,None,,619.886892719951,None,619.886892719951,None,2022-03-07-11:47:43.508885,619.8936305999523,620.203435500036,619.8936305999523,619.8936305999523,None,619.8936305999523,619.8936305999523,620.7030355199822,None,,,,11012,0002,2022_Mar_07_1137,localizer,2021.1.3,60.68171047754455,
block,objects,objects046.bmp,,,,,0,100,100,100,,,,,,,,,,,,,,,,,,,,,,,,,,,,,,,,,,,,,,,,,,None,,620.7030355199822,None,620.7030355199822,None,2022-03-07-11:47:44.319790,620.7036150000058,621.0192313999869,620.7036150000058,None,None,620.7036150000058,None,621.5192246200168,None,,,,11012,0002,2022_Mar_07_1137,localizer,2021.1.3,60.68171047754455,
block,objects,objects017.bmp,,,,,0,101,101,101,,,,,,,,,,,,,,,,,,,,,,,,,,,,,,,,,,,,,,,,,,None,,621.5192246200168,None,621.5192246200168,None,2022-03-07-11:47:45.134993,621.520011399989,621.836033300031,621.520011399989,None,None,621.520011399989,None,622.3356527200085,None,,,,11012,0002,2022_Mar_07_1137,localizer,2021.1.3,60.68171047754455,
block,objects,objects040.bmp,,,,,0,102,102,102,,,,,,,,,,,,,,,,,,,,,,,,,,,,,,,,,,,,,,,,,,None,,622.3356527200085,None,622.3356527200085,None,2022-03-07-11:47:45.951421,622.3461186999921,622.6532979999902,622.3461186999921,None,None,622.3461186999921,None,623.1533025199897,None,,,,11012,0002,2022_Mar_07_1137,localizer,2021.1.3,60.68171047754455,
block,objects,objects025.bmp,,,,,0,103,103,103,,,,,,,,,,,,,,,,,,,,,,,,,,,,,,,,,,,,,,,,,,None,,623.1533025199897,None,623.1533025199897,None,2022-03-07-11:47:46.770085,623.1616554999491,623.4692772999406,623.1616554999491,None,None,623.1616554999491,None,623.9695448199636,None,,,,11012,0002,2022_Mar_07_1137,localizer,2021.1.3,60.68171047754455,
block,objects,objects057.bmp,,,,,0,104,104,104,,,,,,,,,,,,,,,,,,,,,,,,,,,,,,,,,,,,,,,,,,None,,623.9695448199636,None,623.9695448199636,None,2022-03-07-11:47:47.586363,623.9702261999482,624.2697071000002,623.9702261999482,None,None,623.9702261999482,None,624.7703272200306,None,,,,11012,0002,2022_Mar_07_1137,localizer,2021.1.3,60.68171047754455,
block,objects,objects005.bmp,,,,,0,105,105,105,,,,,,,,,,,,,,,,,,,,,,,,,,,,,,,,,,,,,,,,,,None,,624.7703272200306,None,624.7703272200306,None,2022-03-07-11:47:48.390251,624.7746997999493,625.0862154000206,624.7746997999493,624.7746997999493,None,624.7746997999493,624.7746997999493,625.5860749199637,None,,,,11012,0002,2022_Mar_07_1137,localizer,2021.1.3,60.68171047754455,
block_end,objects,objects059.bmp,,,,,0,106,106,106,,,,,,,,,,,,,,,,,,,,,,,,,,,,,,,,,,,,,,,,,,None,,625.5860749199637,None,625.5860749199637,None,2022-03-07-11:47:49.203013,625.5971628000261,625.9026421000017,625.5971628000261,None,None,625.5971628000261,None,626.4025825199788,None,,,,11012,0002,2022_Mar_07_1137,localizer,2021.1.3,60.68171047754455,
block_start,faces,faces063.bmp,,,,,0,107,107,107,,,,,,,,,,,,,,,,,,,,,,,,,,,,,,,,,,,,,,,,,,t,1.8131470000371337,626.4029672000324,None,626.4029672000324,None,2022-03-07-11:47:51.851882,628.2497812999645,628.5525766999926,628.2497812999645,None,None,628.2497812999645,None,629.052294520021,None,,,,11012,0002,2022_Mar_07_1137,localizer,2021.1.3,60.68171047754455,
block,faces,faces032.bmp,,,,,0,108,108,108,,,,,,,,,,,,,,,,,,,,,,,,,,,,,,,,,,,,,,,,,,None,,629.052294520021,None,629.052294520021,None,2022-03-07-11:47:52.668067,629.0534946999978,629.3690162999555,629.0534946999978,None,None,629.0534946999978,None,629.8679972199607,None,,,,11012,0002,2022_Mar_07_1137,localizer,2021.1.3,60.68171047754455,
block,faces,faces070.bmp,,,,,0,109,109,109,,,,,,,,,,,,,,,,,,,,,,,,,,,,,,,,,,,,,,,,,,None,,629.8679972199607,None,629.8679972199607,None,2022-03-07-11:47:53.483676,629.8701538000023,630.1697646999964,629.8701538000023,None,None,629.8701538000023,None,630.6695277200197,None,,,,11012,0002,2022_Mar_07_1137,localizer,2021.1.3,60.68171047754455,
block,faces,faces039.bmp,,,,,0,110,110,110,,,,,,,,,,,,,,,,,,,,,,,,,,,,,,,,,,,,,,,,,,None,,630.6695277200197,None,630.6695277200197,None,2022-03-07-11:47:54.288281,630.6847837000387,630.9857249000343,630.6847837000387,630.6847837000387,None,630.6847837000387,630.6847837000387,631.4858391199377,None,,,,11012,0002,2022_Mar_07_1137,localizer,2021.1.3,60.68171047754455,
block,faces,faces007.bmp,,,,,0,111,111,111,,,,,,,,,,,,,,,,,,,,,,,,,,,,,,,,,,,,,,,,,,None,,631.4858391199377,None,631.4858391199377,None,2022-03-07-11:47:55.101603,631.4869361999445,631.8027023000177,631.4869361999445,None,None,631.4869361999445,None,632.2867100199801,None,,,,11012,0002,2022_Mar_07_1137,localizer,2021.1.3,60.68171047754455,
block,faces,faces051.bmp,,,,,0,112,112,112,,,,,,,,,,,,,,,,,,,,,,,,,,,,,,,,,,,,,,,,,,None,,632.2867100199801,None,632.2867100199801,None,2022-03-07-11:47:55.905368,632.2899966000114,632.603132499964,632.2899966000114,632.2899966000114,None,632.2899966000114,632.2899966000114,633.1029010200291,None,,,,11012,0002,2022_Mar_07_1137,localizer,2021.1.3,60.68171047754455,
block,faces,faces052.bmp,,,,,0,113,113,113,,,,,,,,,,,,,,,,,,,,,,,,,,,,,,,,,,,,,,,,,,None,,633.1029010200291,None,633.1029010200291,None,2022-03-07-11:47:56.719609,633.1163701999467,633.4197679000208,633.1163701999467,None,None,633.1163701999467,None,633.919256819936,None,,,,11012,0002,2022_Mar_07_1137,localizer,2021.1.3,60.68171047754455,
block,faces,faces047.bmp,,,,,0,114,114,114,,,,,,,,,,,,,,,,,,,,,,,,,,,,,,,,,,,,,,,,,,None,,633.919256819936,None,633.919256819936,None,2022-03-07-11:47:57.535024,633.9202636999544,634.2359468999784,633.9202636999544,None,None,633.9202636999544,None,634.7358164199977,None,,,,11012,0002,2022_Mar_07_1137,localizer,2021.1.3,60.68171047754455,
block,faces,faces047.bmp,,,,,0,115,115,115,,,,,,,,,,,,,,,,,,,,,,,,,,,,,,,,,,,,,,,,,,None,,634.7358164199977,None,634.7358164199977,None,2022-03-07-11:47:58.351584,634.7368152999552,635.0524711000035,634.7368152999552,None,y,634.7368152999552,None,635.5358664199593,None,0.6923769999993965,,,11012,0002,2022_Mar_07_1137,localizer,2021.1.3,60.68171047754455,
block,faces,faces057.bmp,,,,,0,116,116,116,,,,,,,,,,,,,,,,,,,,,,,,,,,,,,,,,,,,,,,,,,None,,635.5358664199593,None,635.5358664199593,None,2022-03-07-11:47:59.153625,635.538887099945,635.8526360000251,635.538887099945,635.538887099945,None,635.538887099945,635.538887099945,636.3382281199447,None,,,,11012,0002,2022_Mar_07_1137,localizer,2021.1.3,60.68171047754455,
block,faces,faces034.bmp,,,,,0,117,117,117,,,,,,,,,,,,,,,,,,,,,,,,,,,,,,,,,,,,,,,,,,None,,636.3382281199447,None,636.3382281199447,None,2022-03-07-11:47:59.960038,636.3460155000212,636.6525822000112,636.3460155000212,636.3460155000212,None,636.3460155000212,636.3460155000212,637.1525275200256,None,,,,11012,0002,2022_Mar_07_1137,localizer,2021.1.3,60.68171047754455,
block,faces,faces045.bmp,,,,,0,118,118,118,,,,,,,,,,,,,,,,,,,,,,,,,,,,,,,,,,,,,,,,,,None,,637.1525275200256,None,637.1525275200256,None,2022-03-07-11:48:00.768354,637.1536364000058,637.4692878000205,637.1536364000058,None,None,637.1536364000058,None,637.9527084199362,None,,,,11012,0002,2022_Mar_07_1137,localizer,2021.1.3,60.68171047754455,
block,faces,faces013.bmp,,,,,0,119,119,119,,,,,,,,,,,,,,,,,,,,,,,,,,,,,,,,,,,,,,,,,,None,,637.9527084199362,None,637.9527084199362,None,2022-03-07-11:48:01.570467,637.955939300009,638.2692099999404,637.955939300009,637.955939300009,None,637.955939300009,637.955939300009,638.7699617200415,None,,,,11012,0002,2022_Mar_07_1137,localizer,2021.1.3,60.68171047754455,
block,faces,faces074.bmp,,,,,0,120,120,120,,,,,,,,,,,,,,,,,,,,,,,,,,,,,,,,,,,,,,,,,,None,,638.7699617200415,None,638.7699617200415,None,2022-03-07-11:48:02.386801,638.783564100042,639.0872447999427,638.783564100042,None,None,638.783564100042,None,639.5855959200417,None,,,,11012,0002,2022_Mar_07_1137,localizer,2021.1.3,60.68171047754455,
block_end,faces,faces079.bmp,,,,,0,121,121,121,,,,,,,,,,,,,,,,,,,,,,,,,,,,,,,,,,,,,,,,,,None,,639.5855959200417,None,639.5855959200417,None,2022-03-07-11:48:03.201365,639.5869555999525,639.8922111999709,639.5869555999525,None,None,639.5869555999525,None,640.3870720200357,None,,,,11012,0002,2022_Mar_07_1137,localizer,2021.1.3,60.68171047754455,
block_start,scrambled,scrambled088.bmp,,,,,0,122,122,122,,,,,,,,,,,,,,,,,,,,,,,,,,,,,,,,,,,,,,,,,,t,1.8273949000285938,640.3887966999318,None,640.3887966999318,None,2022-03-07-11:48:05.854783,642.23932589998,642.5526562000159,642.23932589998,None,None,642.23932589998,None,643.0545077199931,None,,,,11012,0002,2022_Mar_07_1137,localizer,2021.1.3,60.68171047754455,
block,scrambled,scrambled015.bmp,,,,,0,123,123,123,,,,,,,,,,,,,,,,,,,,,,,,,,,,,,,,,,,,,,,,,,None,,643.0545077199931,None,643.0545077199931,None,2022-03-07-11:48:06.674308,643.0598643999547,643.3698971000267,643.0598643999547,None,None,643.0598643999547,None,643.8698431200464,None,,,,11012,0002,2022_Mar_07_1137,localizer,2021.1.3,60.68171047754455,
block,scrambled,scrambled059.bmp,,,,,0,124,124,124,,,,,,,,,,,,,,,,,,,,,,,,,,,,,,,,,,,,,,,,,,None,,643.8698431200464,None,643.8698431200464,None,2022-03-07-11:48:07.486784,643.8815700999694,644.185761300032,643.8815700999694,None,None,643.8815700999694,None,644.6859448199975,None,,,,11012,0002,2022_Mar_07_1137,localizer,2021.1.3,60.68171047754455,
block,scrambled,scrambled003.bmp,,,,,0,125,125,125,,,,,,,,,,,,,,,,,,,,,,,,,,,,,,,,,,,,,,,,,,None,,644.6859448199975,None,644.6859448199975,None,2022-03-07-11:48:08.301687,644.6971535999328,645.0030242999783,644.6971535999328,None,None,644.6971535999328,None,645.5028771199868,None,,,,11012,0002,2022_Mar_07_1137,localizer,2021.1.3,60.68171047754455,
block,scrambled,scrambled049.bmp,,,,,0,126,126,126,,,,,,,,,,,,,,,,,,,,,,,,,,,,,,,,,,,,,,,,,,None,,645.5028771199868,None,645.5028771199868,None,2022-03-07-11:48:09.119635,645.5139107999858,645.819280799944,645.5139107999858,None,None,645.5139107999858,None,646.3195753199398,None,,,,11012,0002,2022_Mar_07_1137,localizer,2021.1.3,60.68171047754455,
block,scrambled,scrambled032.bmp,,,,,0,127,127,127,,,,,,,,,,,,,,,,,,,,,,,,,,,,,,,,,,,,,,,,,,None,,646.3195753199398,None,646.3195753199398,None,2022-03-07-11:48:09.935337,646.3204310999718,646.6360147999367,646.3204310999718,None,None,646.3204310999718,None,647.1207710200106,None,,,,11012,0002,2022_Mar_07_1137,localizer,2021.1.3,60.68171047754455,
block,scrambled,scrambled061.bmp,,,,,0,128,128,128,,,,,,,,,,,,,,,,,,,,,,,,,,,,,,,,,,,,,,,,,,None,,647.1207710200106,None,647.1207710200106,None,2022-03-07-11:48:10.741680,647.1272944000084,647.4422518999781,647.1272944000084,647.1272944000084,None,647.1272944000084,647.1272944000084,647.9421860200237,None,,,,11012,0002,2022_Mar_07_1137,localizer,2021.1.3,60.68171047754455,
block,scrambled,scrambled054.bmp,,,,,0,129,129,129,,,,,,,,,,,,,,,,,,,,,,,,,,,,,,,,,,,,,,,,,,None,,647.9421860200237,None,647.9421860200237,None,2022-03-07-11:48:11.561861,647.9467497000005,648.2596575999632,647.9467497000005,None,None,647.9467497000005,None,648.7537549200351,None,,,,11012,0002,2022_Mar_07_1137,localizer,2021.1.3,60.68171047754455,
block,scrambled,scrambled074.bmp,,,,,0,130,130,130,,,,,,,,,,,,,,,,,,,,,,,,,,,,,,,,,,,,,,,,,,None,,648.7537549200351,None,648.7537549200351,None,2022-03-07-11:48:12.371497,648.7562507999828,649.070297600003,648.7562507999828,None,None,648.7562507999828,None,649.569475419994,None,,,,11012,0002,2022_Mar_07_1137,localizer,2021.1.3,60.68171047754455,
block,scrambled,scrambled019.bmp,,,,,0,131,131,131,,,,,,,,,,,,,,,,,,,,,,,,,,,,,,,,,,,,,,,,,,None,,649.569475419994,None,649.569475419994,None,2022-03-07-11:48:13.186411,649.5705895000137,649.8864381000167,649.5705895000137,None,None,649.5705895000137,None,650.3701802199357,None,,,,11012,0002,2022_Mar_07_1137,localizer,2021.1.3,60.68171047754455,
block,scrambled,scrambled023.bmp,,,,,0,132,132,132,,,,,,,,,,,,,,,,,,,,,,,,,,,,,,,,,,,,,,,,,,None,,650.3701802199357,None,650.3701802199357,None,2022-03-07-11:48:13.988906,650.3852998999646,650.6866863999749,650.3852998999646,650.3852998999646,None,650.3852998999646,650.3852998999646,651.1856672199792,None,,,,11012,0002,2022_Mar_07_1137,localizer,2021.1.3,60.68171047754455,
block,scrambled,scrambled087.bmp,,,,,0,133,133,133,,,,,,,,,,,,,,,,,,,,,,,,,,,,,,,,,,,,,,,,,,None,,651.1856672199792,None,651.1856672199792,None,2022-03-07-11:48:14.801439,651.1871323999949,651.487280500005,651.1871323999949,None,None,651.1871323999949,None,651.9866016200394,None,,,,11012,0002,2022_Mar_07_1137,localizer,2021.1.3,60.68171047754455,
block,scrambled,scrambled021.bmp,,,,,0,134,134,134,,,,,,,,,,,,,,,,,,,,,,,,,,,,,,,,,,,,,,,,,,None,,651.9866016200394,None,651.9866016200394,None,2022-03-07-11:48:15.605349,651.9897839999758,652.30370639998,651.9897839999758,651.9897839999758,None,651.9897839999758,651.9897839999758,652.8035059200483,None,,,,11012,0002,2022_Mar_07_1137,localizer,2021.1.3,60.68171047754455,
block,scrambled,scrambled069.bmp,,,,,0,135,135,135,,,,,,,,,,,,,,,,,,,,,,,,,,,,,,,,,,,,,,,,,,None,,652.8035059200483,None,652.8035059200483,None,2022-03-07-11:48:16.420449,652.8062689999351,653.1190673999954,652.8062689999351,None,None,652.8062689999351,None,653.6192945199437,None,,,,11012,0002,2022_Mar_07_1137,localizer,2021.1.3,60.68171047754455,
block_end,scrambled,scrambled039.bmp,,,,,0,136,136,136,,,,,,,,,,,,,,,,,,,,,,,,,,,,,,,,,,,,,,,,,,None,,653.6192945199437,None,653.6192945199437,None,2022-03-07-11:48:17.235092,653.6203214999987,653.9196619000286,653.6203214999987,None,None,653.6203214999987,None,654.4199161199504,None,,,,11012,0002,2022_Mar_07_1137,localizer,2021.1.3,60.68171047754455,
null_block,null_block,null_block.bmp,,,,,0,137,137,137,,,,,,,,,,,,,,,,,,,,,,,,,,,,,,,,,,,,,,,,,,t,1.7959498000564054,654.420211300021,None,654.420211300021,None,2022-03-07-11:48:19.852531,656.2365280199447,None,656.2365280199447,None,None,656.2365280199447,None,656.2416005999548,None,,,,11012,0002,2022_Mar_07_1137,localizer,2021.1.3,60.68171047754455,
block_start,faces,faces012.bmp,,,,,0,138,138,138,,,,,,,,,,,,,,,,,,,,,,,,,,,,,,,,,,,,,,,,,,t,1.9601149000227451,668.2560127000324,None,668.2560127000324,None,2022-03-07-11:48:33.852968,670.2369922000216,670.552965000039,670.2369922000216,None,None,670.2369922000216,None,671.0526039200486,None,,,,11012,0002,2022_Mar_07_1137,localizer,2021.1.3,60.68171047754455,
block,faces,faces013.bmp,,,,,0,139,139,139,,,,,,,,,,,,,,,,,,,,,,,,,,,,,,,,,,,,,,,,,,None,,671.0526039200486,None,671.0526039200486,None,2022-03-07-11:48:34.668350,671.0538646000205,671.3695445000194,671.0538646000205,None,None,671.0538646000205,None,671.8548922199407,None,,,,11012,0002,2022_Mar_07_1137,localizer,2021.1.3,60.68171047754455,
block,faces,faces065.bmp,,,,,0,140,140,140,,,,,,,,,,,,,,,,,,,,,,,,,,,,,,,,,,,,,,,,,,None,,671.8548922199407,None,671.8548922199407,None,2022-03-07-11:48:35.476614,671.8623084999854,672.1699638999999,671.8623084999854,671.8623084999854,None,671.8623084999854,671.8623084999854,672.6696611199877,None,,,,11012,0002,2022_Mar_07_1137,localizer,2021.1.3,60.68171047754455,
block,faces,faces027.bmp,,,,,0,141,141,141,,,,,,,,,,,,,,,,,,,,,,,,,,,,,,,,,,,,,,,,,,None,,672.6696611199877,None,672.6696611199877,None,2022-03-07-11:48:36.286613,672.6706448999466,672.9860247999895,672.6706448999466,None,None,672.6706448999466,None,673.4860905199894,None,,,,11012,0002,2022_Mar_07_1137,localizer,2021.1.3,60.68171047754455,
block,faces,faces050.bmp,,,,,0,142,142,142,,,,,,,,,,,,,,,,,,,,,,,,,,,,,,,,,,,,,,,,,,None,,673.4860905199894,None,673.4860905199894,None,2022-03-07-11:48:37.101854,673.4957224000245,673.8040867999662,673.4957224000245,None,None,673.4957224000245,None,674.2923654199694,None,,,,11012,0002,2022_Mar_07_1137,localizer,2021.1.3,60.68171047754455,
block,faces,faces059.bmp,,,,,0,143,143,143,,,,,,,,,,,,,,,,,,,,,,,,,,,,,,,,,,,,,,,,,,None,,674.2923654199694,None,674.2923654199694,None,2022-03-07-11:48:37.913111,674.3097831000341,674.6197140000295,674.3097831000341,None,None,674.3097831000341,None,675.1027447200031,None,,,,11012,0002,2022_Mar_07_1137,localizer,2021.1.3,60.68171047754455,
block,faces,faces031.bmp,,,,,0,144,144,144,,,,,,,,,,,,,,,,,,,,,,,,,,,,,,,,,,,,,,,,,,None,,675.1027447200031,None,675.1027447200031,None,2022-03-07-11:48:38.718621,675.1128158000065,675.4196510999463,675.1128158000065,None,None,675.1128158000065,None,675.9192896199529,None,,,,11012,0002,2022_Mar_07_1137,localizer,2021.1.3,60.68171047754455,
block,faces,faces069.bmp,,,,,0,145,145,145,,,,,,,,,,,,,,,,,,,,,,,,,,,,,,,,,,,,,,,,,,None,,675.9192896199529,None,675.9192896199529,None,2022-03-07-11:48:39.535252,675.9204761999426,676.2361167999916,675.9204761999426,None,None,675.9204761999426,None,676.7201509200386,None,,,,11012,0002,2022_Mar_07_1137,localizer,2021.1.3,60.68171047754455,
block,faces,faces033.bmp,,,,,0,146,146,146,,,,,,,,,,,,,,,,,,,,,,,,,,,,,,,,,,,,,,,,,,None,,676.7201509200386,None,676.7201509200386,None,2022-03-07-11:48:40.338895,676.7233663999941,677.0361652999418,676.7233663999941,676.7233663999941,None,676.7233663999941,676.7233663999941,677.536024119996,None,,,,11012,0002,2022_Mar_07_1137,localizer,2021.1.3,60.68171047754455,
block,faces,faces056.bmp,,,,,0,147,147,147,,,,,,,,,,,,,,,,,,,,,,,,,,,,,,,,,,,,,,,,,,None,,677.536024119996,None,677.536024119996,None,2022-03-07-11:48:41.151987,677.5465335999615,677.8529741000384,677.5465335999615,None,None,677.5465335999615,None,678.3539495199802,None,,,,11012,0002,2022_Mar_07_1137,localizer,2021.1.3,60.68171047754455,
block,faces,faces026.bmp,,,,,0,148,148,148,,,,,,,,,,,,,,,,,,,,,,,,,,,,,,,,,,,,,,,,,,None,,678.3539495199802,None,678.3539495199802,None,2022-03-07-11:48:41.972546,678.3580592999933,678.6700493999524,678.3580592999933,None,None,678.3580592999933,None,679.1700408199686,None,,,,11012,0002,2022_Mar_07_1137,localizer,2021.1.3,60.68171047754455,
block,faces,faces049.bmp,,,,,0,149,149,149,,,,,,,,,,,,,,,,,,,,,,,,,,,,,,,,,,,,,,,,,,None,,679.1700408199686,None,679.1700408199686,None,2022-03-07-11:48:42.786776,679.1710739999544,679.4868233000161,679.1710739999544,None,None,679.1710739999544,None,679.9705395199708,None,,,,11012,0002,2022_Mar_07_1137,localizer,2021.1.3,60.68171047754455,
block,faces,faces052.bmp,,,,,0,150,150,150,,,,,,,,,,,,,,,,,,,,,,,,,,,,,,,,,,,,,,,,,,None,,679.9705395199708,None,679.9705395199708,None,2022-03-07-11:48:43.590184,679.9748420999385,680.2915276000276,679.9748420999385,679.9748420999385,None,679.9748420999385,679.9748420999385,680.7872819200275,None,,,,11012,0002,2022_Mar_07_1137,localizer,2021.1.3,60.68171047754455,
block,faces,faces081.bmp,,,,,0,151,151,151,,,,,,,,,,,,,,,,,,,,,,,,,,,,,,,,,,,,,,,,,,None,,680.7872819200275,None,680.7872819200275,None,2022-03-07-11:48:44.405107,680.7906033999752,681.1032029000344,680.7906033999752,None,None,680.7906033999752,None,681.602773319988,None,,,,11012,0002,2022_Mar_07_1137,localizer,2021.1.3,60.68171047754455,
block_end,faces,faces071.bmp,,,,,0,152,152,152,,,,,,,,,,,,,,,,,,,,,,,,,,,,,,,,,,,,,,,,,,None,,681.602773319988,None,681.602773319988,None,2022-03-07-11:48:45.218530,681.6133127999492,681.919629400014,681.6133127999492,None,None,681.6133127999492,None,682.419405320019,None,,,,11012,0002,2022_Mar_07_1137,localizer,2021.1.3,60.68171047754455,
block_start,objects,objects032.bmp,,,,,0,153,153,153,,,,,,,,,,,,,,,,,,,,,,,,,,,,,,,,,,,,,,,,,,t,1.795684100012295,682.4195430999389,None,682.4195430999389,None,2022-03-07-11:48:47.851182,684.2375491999555,684.5529686999507,684.2375491999555,None,None,684.2375491999555,None,685.0528967199498,None,,,,11012,0002,2022_Mar_07_1137,localizer,2021.1.3,60.68171047754455,
block,objects,objects057.bmp,,,,,0,154,154,154,,,,,,,,,,,,,,,,,,,,,,,,,,,,,,,,,,,,,,,,,,None,,685.0528967199498,None,685.0528967199498,None,2022-03-07-11:48:48.668881,685.0539056999842,685.353595099994,685.0539056999842,None,None,685.0539056999842,None,685.8529434200027,None,,,,11012,0002,2022_Mar_07_1137,localizer,2021.1.3,60.68171047754455,
block,objects,objects055.bmp,,,,,0,155,155,155,,,,,,,,,,,,,,,,,,,,,,,,,,,,,,,,,,,,,,,,,,None,,685.8529434200027,None,685.8529434200027,None,2022-03-07-11:48:49.470702,685.8664240000071,686.1696456000209,685.8664240000071,685.8664240000071,None,685.8664240000071,685.8664240000071,686.6717048199498,None,,,,11012,0002,2022_Mar_07_1137,localizer,2021.1.3,60.68171047754455,
block,objects,objects058.bmp,,,,,0,156,156,156,,,,,,,,,,,,,,,,,,,,,,,,,,,,,,,,,,,,,,,,,,None,,686.6717048199498,None,686.6717048199498,None,2022-03-07-11:48:50.291427,686.6882978000212,687.0029644999886,686.6882978000212,None,None,686.6882978000212,None,687.4861137200496,None,,,,11012,0002,2022_Mar_07_1137,localizer,2021.1.3,60.68171047754455,
block,objects,objects013.bmp,,,,,0,157,157,157,,,,,,,,,,,,,,,,,,,,,,,,,,,,,,,,,,,,,,,,,,None,,687.4861137200496,None,687.4861137200496,None,2022-03-07-11:48:51.101876,687.4966192999855,687.8030643999809,687.4966192999855,None,None,687.4966192999855,None,688.3027650199947,None,,,,11012,0002,2022_Mar_07_1137,localizer,2021.1.3,60.68171047754455,
block,objects,objects021.bmp,,,,,0,158,158,158,,,,,,,,,,,,,,,,,,,,,,,,,,,,,,,,,,,,,,,,,,None,,688.3027650199947,None,688.3027650199947,None,2022-03-07-11:48:51.918648,688.3038336000172,688.603014399996,688.3038336000172,None,None,688.3038336000172,None,689.119429220038,None,,,,11012,0002,2022_Mar_07_1137,localizer,2021.1.3,60.68171047754455,
block,objects,objects024.bmp,,,,,0,159,159,159,,,,,,,,,,,,,,,,,,,,,,,,,,,,,,,,,,,,,,,,,,None,,689.119429220038,None,689.119429220038,None,2022-03-07-11:48:52.735202,689.1204443000024,689.4364529999439,689.1204443000024,None,None,689.1204443000024,None,689.919746319938,None,,,,11012,0002,2022_Mar_07_1137,localizer,2021.1.3,60.68171047754455,
block,objects,objects049.bmp,,,,,0,160,160,160,,,,,,,,,,,,,,,,,,,,,,,,,,,,,,,,,,,,,,,,,,None,,689.919746319938,None,689.919746319938,None,2022-03-07-11:48:53.538688,689.9227677000454,690.2360690999776,689.9227677000454,689.9227677000454,None,689.9227677000454,689.9227677000454,690.7367683200282,None,,,,11012,0002,2022_Mar_07_1137,localizer,2021.1.3,60.68171047754455,
block,objects,objects073.bmp,,,,,0,161,161,161,,,,,,,,,,,,,,,,,,,,,,,,,,,,,,,,,,,,,,,,,,None,,690.7367683200282,None,690.7367683200282,None,2022-03-07-11:48:54.353517,690.7381316999672,691.0528847000096,690.7381316999672,None,None,690.7381316999672,None,691.552746219968,None,,,,11012,0002,2022_Mar_07_1137,localizer,2021.1.3,60.68171047754455,
block,objects,objects037.bmp,,,,,0,162,162,162,,,,,,,,,,,,,,,,,,,,,,,,,,,,,,,,,,,,,,,,,,None,,691.552746219968,None,691.552746219968,None,2022-03-07-11:48:55.169022,691.5537452000426,691.8696645000018,691.5537452000426,None,None,691.5537452000426,None,692.3528293199488,None,,,,11012,0002,2022_Mar_07_1137,localizer,2021.1.3,60.68171047754455,
block,objects,objects074.bmp,,,,,0,163,163,163,,,,,,,,,,,,,,,,,,,,,,,,,,,,,,,,,,,,,,,,,,None,,692.3528293199488,None,692.3528293199488,None,2022-03-07-11:48:55.970801,692.3547380999662,692.6696244999766,692.3547380999662,692.3547380999662,None,692.3547380999662,692.3547380999662,693.1694605199737,None,,,,11012,0002,2022_Mar_07_1137,localizer,2021.1.3,60.68171047754455,
block,objects,objects015.bmp,,,,,0,164,164,164,,,,,,,,,,,,,,,,,,,,,,,,,,,,,,,,,,,,,,,,,,None,,693.1694605199737,None,693.1694605199737,None,2022-03-07-11:48:56.785221,693.1704731000355,693.4862998999888,693.1704731000355,None,None,693.1704731000355,None,693.9696173199336,None,,,,11012,0002,2022_Mar_07_1137,localizer,2021.1.3,60.68171047754455,
block,objects,objects014.bmp,,,,,0,165,165,165,,,,,,,,,,,,,,,,,,,,,,,,,,,,,,,,,,,,,,,,,,None,,693.9696173199336,None,693.9696173199336,None,2022-03-07-11:48:57.587371,693.9724622999784,694.2862491999986,693.9724622999784,693.9724622999784,None,693.9724622999784,693.9724622999784,694.7858644199441,None,,,,11012,0002,2022_Mar_07_1137,localizer,2021.1.3,60.68171047754455,
block,objects,objects064.bmp,,,,,0,166,166,166,,,,,,,,,,,,,,,,,,,,,,,,,,,,,,,,,,,,,,,,,,None,,694.7858644199441,None,694.7858644199441,None,2022-03-07-11:48:58.401890,694.7950565000065,695.1037171999924,694.7950565000065,None,None,694.7950565000065,None,695.6034223200404,None,,,,11012,0002,2022_Mar_07_1137,localizer,2021.1.3,60.68171047754455,
block_end,objects,objects064.bmp,,,,,0,167,167,167,,,,,,,,,,,,,,,,,,,,,,,,,,,,,,,,,,,,,,,,,,None,,695.6034223200404,None,695.6034223200404,None,2022-03-07-11:48:59.220497,695.6059191999957,695.920391599997,695.6059191999957,None,None,695.6059191999957,None,696.4191729199956,None,,,,11012,0002,2022_Mar_07_1137,localizer,2021.1.3,60.68171047754455,
block_start,scenes,scenes061.bmp,,,,,0,168,168,168,,,,,,,,,,,,,,,,,,,,,,,,,,,,,,,,,,,,,,,,,,t,1.7959200999466702,696.4192914000014,None,696.4192914000014,None,2022-03-07-11:49:01.852086,698.2372541000368,698.5366295999847,698.2372541000368,None,None,698.2372541000368,None,699.0367301200167,None,,,,11012,0002,2022_Mar_07_1137,localizer,2021.1.3,60.68171047754455,
block,scenes,scenes063.bmp,,,,,0,169,169,169,,,,,,,,,,,,,,,,,,,,,,,,,,,,,,,,,,,,,,,,,,None,,699.0367301200167,None,699.0367301200167,None,2022-03-07-11:49:02.655675,699.0527676999336,699.3529945999617,699.0527676999336,699.0527676999336,None,699.0527676999336,699.0527676999336,699.8528013199684,None,,,,11012,0002,2022_Mar_07_1137,localizer,2021.1.3,60.68171047754455,
block,scenes,scenes029.bmp,,,,,0,170,170,170,,,,,,,,,,,,,,,,,,,,,,,,,,,,,,,,,,,,,,,,,,None,,699.8528013199684,None,699.8528013199684,None,2022-03-07-11:49:03.468758,699.8539505000226,700.1534363999963,699.8539505000226,None,None,699.8539505000226,None,700.6691197199398,None,,,,11012,0002,2022_Mar_07_1137,localizer,2021.1.3,60.68171047754455,
block,scenes,scenes073.bmp,,,,,0,171,171,171,,,,,,,,,,,,,,,,,,,,,,,,,,,,,,,,,,,,,,,,,,None,,700.6691197199398,None,700.6691197199398,None,2022-03-07-11:49:04.284886,700.6712313999888,700.9861273999559,700.6712313999888,None,None,700.6712313999888,None,701.4862198200426,None,,,,11012,0002,2022_Mar_07_1137,localizer,2021.1.3,60.68171047754455,
block,scenes,scenes071.bmp,,,,,0,172,172,172,,,,,,,,,,,,,,,,,,,,,,,,,,,,,,,,,,,,,,,,,,None,,701.4862198200426,None,701.4862198200426,None,2022-03-07-11:49:05.101980,701.487644399982,701.8029545999598,701.487644399982,None,None,701.487644399982,None,702.3028111199965,None,,,,11012,0002,2022_Mar_07_1137,localizer,2021.1.3,60.68171047754455,
block,scenes,scenes022.bmp,,,,,0,173,173,173,,,,,,,,,,,,,,,,,,,,,,,,,,,,,,,,,,,,,,,,,,None,,702.3028111199965,None,702.3028111199965,None,2022-03-07-11:49:05.918513,702.3097488000058,702.6198111999547,702.3097488000058,None,None,702.3097488000058,None,703.1195369200432,None,,,,11012,0002,2022_Mar_07_1137,localizer,2021.1.3,60.68171047754455,
block,scenes,scenes037.bmp,,,,,0,174,174,174,,,,,,,,,,,,,,,,,,,,,,,,,,,,,,,,,,,,,,,,,,None,,703.1195369200432,None,703.1195369200432,None,2022-03-07-11:49:06.735295,703.1208897000179,703.4364717999706,703.1208897000179,None,None,703.1208897000179,None,703.9362079200218,None,,,,11012,0002,2022_Mar_07_1137,localizer,2021.1.3,60.68171047754455,
block,scenes,scenes001.bmp,,,,,0,175,175,175,,,,,,,,,,,,,,,,,,,,,,,,,,,,,,,,,,,,,,,,,,None,,703.9362079200218,None,703.9362079200218,None,2022-03-07-11:49:07.553178,703.9474335999694,704.2529803999932,703.9474335999694,None,None,703.9474335999694,None,704.7528899199679,None,,,,11012,0002,2022_Mar_07_1137,localizer,2021.1.3,60.68171047754455,
block,scenes,scenes044.bmp,,,,,0,176,176,176,,,,,,,,,,,,,,,,,,,,,,,,,,,,,,,,,,,,,,,,,,None,,704.7528899199679,None,704.7528899199679,None,2022-03-07-11:49:08.368739,704.7538974999916,705.0697510000318,704.7538974999916,None,None,704.7538974999916,None,705.5695891200448,None,,,,11012,0002,2022_Mar_07_1137,localizer,2021.1.3,60.68171047754455,
block,scenes,scenes013.bmp,,,,,0,177,177,177,,,,,,,,,,,,,,,,,,,,,,,,,,,,,,,,,,,,,,,,,,None,,705.5695891200448,None,705.5695891200448,None,2022-03-07-11:49:09.185591,705.5799906000029,705.8862800999777,705.5799906000029,None,None,705.5799906000029,None,706.3861096200417,None,,,,11012,0002,2022_Mar_07_1137,localizer,2021.1.3,60.68171047754455,
block,scenes,scenes091.bmp,,,,,0,178,178,178,,,,,,,,,,,,,,,,,,,,,,,,,,,,,,,,,,,,,,,,,,None,,706.3861096200417,None,706.3861096200417,None,2022-03-07-11:49:10.001732,706.3976478000404,706.7030776999891,706.3976478000404,None,None,706.3976478000404,None,707.2027627200005,None,,,,11012,0002,2022_Mar_07_1137,localizer,2021.1.3,60.68171047754455,
block,scenes,scenes036.bmp,,,,,0,179,179,179,,,,,,,,,,,,,,,,,,,,,,,,,,,,,,,,,,,,,,,,,,None,,707.2027627200005,None,707.2027627200005,None,2022-03-07-11:49:10.818521,707.2040617000312,707.5196902999887,707.2040617000312,None,None,707.2040617000312,None,708.0040137200267,None,,,,11012,0002,2022_Mar_07_1137,localizer,2021.1.3,60.68171047754455,
block,scenes,scenes015.bmp,,,,,0,180,180,180,,,,,,,,,,,,,,,,,,,,,,,,,,,,,,,,,,,,,,,,,,None,,708.0040137200267,None,708.0040137200267,None,2022-03-07-11:49:11.623622,708.0081327999942,708.3204114999389,708.0081327999942,708.0081327999942,None,708.0081327999942,708.0081327999942,708.8195526199997,None,,,,11012,0002,2022_Mar_07_1137,localizer,2021.1.3,60.68171047754455,
block,scenes,scenes079.bmp,,,,,0,181,181,181,,,,,,,,,,,,,,,,,,,,,,,,,,,,,,,,,,,,,,,,,,None,,708.8195526199997,None,708.8195526199997,None,2022-03-07-11:49:12.435550,708.8205359999556,709.1364422000479,708.8205359999556,None,None,708.8205359999556,None,709.6216569200042,None,,,,11012,0002,2022_Mar_07_1137,localizer,2021.1.3,60.68171047754455,
block_end,scenes,scenes011.bmp,,,,,0,182,182,182,,,,,,,,,,,,,,,,,,,,,,,,,,,,,,,,,,,,,,,,,,None,,709.6216569200042,None,709.6216569200042,None,2022-03-07-11:49:13.243455,709.6292362000095,709.9361508999718,709.6292362000095,709.6292362000095,None,709.6292362000095,709.6292362000095,710.4365771200391,None,,,,11012,0002,2022_Mar_07_1137,localizer,2021.1.3,60.68171047754455,
block_start,scenes,scenes010.bmp,,,,,0,183,183,183,,,,,,,,,,,,,,,,,,,,,,,,,,,,,,,,,,,,,,,,,,t,1.7783939000219107,710.4370489999419,None,710.4370489999419,None,2022-03-07-11:49:15.851976,712.2382803999353,712.5529263999779,712.2382803999353,None,None,712.2382803999353,None,713.0529367200215,None,,,,11012,0002,2022_Mar_07_1137,localizer,2021.1.3,60.68171047754455,
block,scenes,scenes014.bmp,,,,,0,184,184,184,,,,,,,,,,,,,,,,,,,,,,,,,,,,,,,,,,,,,,,,,,None,,713.0529367200215,None,713.0529367200215,None,2022-03-07-11:49:16.668733,713.0540491000284,713.3699287000345,713.0540491000284,None,None,713.0540491000284,None,713.8584725199617,None,,,,11012,0002,2022_Mar_07_1137,localizer,2021.1.3,60.68171047754455,
block,scenes,scenes092.bmp,,,,,0,185,185,185,,,,,,,,,,,,,,,,,,,,,,,,,,,,,,,,,,,,,,,,,,None,,713.8584725199617,None,713.8584725199617,None,2022-03-07-11:49:17.474240,713.863848799956,714.1696262999903,713.863848799956,None,None,713.863848799956,None,714.6696565199527,None,,,,11012,0002,2022_Mar_07_1137,localizer,2021.1.3,60.68171047754455,
block,scenes,scenes092.bmp,,,,,0,186,186,186,,,,,,,,,,,,,,,,,,,,,,,,,,,,,,,,,,,,,,,,,,None,,714.6696565199527,None,714.6696565199527,None,2022-03-07-11:49:18.285423,714.6707829999505,714.9863145999843,714.6707829999505,None,y,714.6707829999505,None,715.4708326199907,None,0.4797155000269413,,,11012,0002,2022_Mar_07_1137,localizer,2021.1.3,60.68171047754455,
block,scenes,scenes078.bmp,,,,,0,187,187,187,,,,,,,,,,,,,,,,,,,,,,,,,,,,,,,,,,,,,,,,,,None,,715.4708326199907,None,715.4708326199907,None,2022-03-07-11:49:19.091015,715.475404900033,715.7867857000092,715.475404900033,715.475404900033,None,715.475404900033,715.475404900033,716.2867101199809,None,,,,11012,0002,2022_Mar_07_1137,localizer,2021.1.3,60.68171047754455,
block,scenes,scenes001.bmp,,,,,0,188,188,188,,,,,,,,,,,,,,,,,,,,,,,,,,,,,,,,,,,,,,,,,,None,,716.2867101199809,None,716.2867101199809,None,2022-03-07-11:49:19.903529,716.2876006000442,716.6034428999992,716.2876006000442,None,None,716.2876006000442,None,717.1028753199498,None,,,,11012,0002,2022_Mar_07_1137,localizer,2021.1.3,60.68171047754455,
block,scenes,scenes007.bmp,,,,,0,189,189,189,,,,,,,,,,,,,,,,,,,,,,,,,,,,,,,,,,,,,,,,,,None,,717.1028753199498,None,717.1028753199498,None,2022-03-07-11:49:20.718637,717.1040455000475,717.4199089000467,717.1040455000475,None,None,717.1040455000475,None,717.9193539199769,None,,,,11012,0002,2022_Mar_07_1137,localizer,2021.1.3,60.68171047754455,
block,scenes,scenes035.bmp,,,,,0,190,190,190,,,,,,,,,,,,,,,,,,,,,,,,,,,,,,,,,,,,,,,,,,None,,717.9193539199769,None,717.9193539199769,None,2022-03-07-11:49:21.535114,717.9207310000202,718.2364030999597,717.9207310000202,None,None,717.9207310000202,None,718.7208439199603,None,,,,11012,0002,2022_Mar_07_1137,localizer,2021.1.3,60.68171047754455,
block,scenes,scenes057.bmp,,,,,0,191,191,191,,,,,,,,,,,,,,,,,,,,,,,,,,,,,,,,,,,,,,,,,,None,,718.7208439199603,None,718.7208439199603,None,2022-03-07-11:49:22.342571,718.7273445000174,719.0371471999679,718.7273445000174,718.7273445000174,None,718.7273445000174,718.7273445000174,719.5363124199794,None,,,,11012,0002,2022_Mar_07_1137,localizer,2021.1.3,60.68171047754455,
block,scenes,scenes058.bmp,,,,,0,192,192,192,,,,,,,,,,,,,,,,,,,,,,,,,,,,,,,,,,,,,,,,,,None,,719.5363124199794,None,719.5363124199794,None,2022-03-07-11:49:23.152068,719.5374038999435,719.8365979000228,719.5374038999435,None,None,719.5374038999435,None,720.3530564200482,None,,,,11012,0002,2022_Mar_07_1137,localizer,2021.1.3,60.68171047754455,
block,scenes,scenes031.bmp,,,,,0,193,193,193,,,,,,,,,,,,,,,,,,,,,,,,,,,,,,,,,,,,,,,,,,None,,720.3530564200482,None,720.3530564200482,None,2022-03-07-11:49:23.968852,720.3632807999384,720.6698090999853,720.3632807999384,None,None,720.3632807999384,None,721.1697334199562,None,,,,11012,0002,2022_Mar_07_1137,localizer,2021.1.3,60.68171047754455,
block,scenes,scenes080.bmp,,,,,0,194,194,194,,,,,,,,,,,,,,,,,,,,,,,,,,,,,,,,,,,,,,,,,,None,,721.1697334199562,None,721.1697334199562,None,2022-03-07-11:49:24.785493,721.1708289999515,721.4863648000173,721.1708289999515,None,None,721.1708289999515,None,721.9756270199432,None,,,,11012,0002,2022_Mar_07_1137,localizer,2021.1.3,60.68171047754455,
block,scenes,scenes045.bmp,,,,,0,195,195,195,,,,,,,,,,,,,,,,,,,,,,,,,,,,,,,,,,,,,,,,,,None,,721.9756270199432,None,721.9756270199432,None,2022-03-07-11:49:25.595424,721.9802096999483,722.2865019999444,721.9802096999483,None,None,721.9802096999483,None,722.7867183200433,None,,,,11012,0002,2022_Mar_07_1137,localizer,2021.1.3,60.68171047754455,
block,scenes,scenes059.bmp,,,,,0,196,196,196,,,,,,,,,,,,,,,,,,,,,,,,,,,,,,,,,,,,,,,,,,None,,722.7867183200433,None,722.7867183200433,None,2022-03-07-11:49:26.402515,722.7977172000101,723.1032833999489,722.7977172000101,None,None,722.7977172000101,None,723.6029799200478,None,,,,11012,0002,2022_Mar_07_1137,localizer,2021.1.3,60.68171047754455,
block_end,scenes,scenes034.bmp,,,,,0,197,197,197,,,,,,,,,,,,,,,,,,,,,,,,,,,,,,,,,,,,,,,,,,None,,723.6029799200478,None,723.6029799200478,None,2022-03-07-11:49:27.218740,723.6131428999361,723.920508399955,723.6131428999361,None,None,723.6131428999361,None,724.4203294199542,None,,,,11012,0002,2022_Mar_07_1137,localizer,2021.1.3,60.68171047754455,
block_start,objects,objects069.bmp,,,,,0,198,198,198,,,,,,,,,,,,,,,,,,,,,,,,,,,,,,,,,,,,,,,,,,t,1.7948217999655753,724.4205355000449,None,724.4205355000449,None,2022-03-07-11:49:29.855724,726.2393447000068,726.5529600000009,726.2393447000068,None,None,726.2393447000068,None,727.0532367199776,None,,,,11012,0002,2022_Mar_07_1137,localizer,2021.1.3,60.68171047754455,
block,objects,objects070.bmp,,,,,0,199,199,199,,,,,,,,,,,,,,,,,,,,,,,,,,,,,,,,,,,,,,,,,,None,,727.0532367199776,None,727.0532367199776,None,2022-03-07-11:49:30.669285,727.0541569000343,727.3699676999822,727.0541569000343,None,None,727.0541569000343,None,727.8697135199909,None,,,,11012,0002,2022_Mar_07_1137,localizer,2021.1.3,60.68171047754455,
block,objects,objects046.bmp,,,,,0,200,200,200,,,,,,,,,,,,,,,,,,,,,,,,,,,,,,,,,,,,,,,,,,None,,727.8697135199909,None,727.8697135199909,None,2022-03-07-11:49:31.485374,727.8706226999639,728.1698798999423,727.8706226999639,None,None,727.8706226999639,None,728.6717256199918,None,,,,11012,0002,2022_Mar_07_1137,localizer,2021.1.3,60.68171047754455,
block,objects,objects038.bmp,,,,,0,201,201,201,,,,,,,,,,,,,,,,,,,,,,,,,,,,,,,,,,,,,,,,,,None,,728.6717256199918,None,728.6717256199918,None,2022-03-07-11:49:32.293504,728.6786173,728.9865697999485,728.6786173,728.6786173,None,728.6786173,728.6786173,729.489297019958,None,,,,11012,0002,2022_Mar_07_1137,localizer,2021.1.3,60.68171047754455,
block,objects,objects028.bmp,,,,,0,202,202,202,,,,,,,,,,,,,,,,,,,,,,,,,,,,,,,,,,,,,,,,,,None,,729.489297019958,None,729.489297019958,None,2022-03-07-11:49:33.107054,729.4972277999623,729.8032449999591,729.4972277999623,None,None,729.4972277999623,None,730.3036166199599,None,,,,11012,0002,2022_Mar_07_1137,localizer,2021.1.3,60.68171047754455,
block,objects,objects021.bmp,,,,,0,203,203,203,,,,,,,,,,,,,,,,,,,,,,,,,,,,,,,,,,,,,,,,,,None,,730.3036166199599,None,730.3036166199599,None,2022-03-07-11:49:33.920551,730.3058080000337,730.6206607000204,730.3058080000337,None,None,730.3058080000337,None,731.1050510199857,None,,,,11012,0002,2022_Mar_07_1137,localizer,2021.1.3,60.68171047754455,
block,objects,objects050.bmp,,,,,0,204,204,204,,,,,,,,,,,,,,,,,,,,,,,,,,,,,,,,,,,,,,,,,,None,,731.1050510199857,None,731.1050510199857,None,2022-03-07-11:49:34.726768,731.1126707999501,731.4204866000218,731.1126707999501,731.1126707999501,None,731.1126707999501,731.1126707999501,731.9198363200412,None,,,,11012,0002,2022_Mar_07_1137,localizer,2021.1.3,60.68171047754455,
block,objects,objects039.bmp,,,,,0,205,205,205,,,,,,,,,,,,,,,,,,,,,,,,,,,,,,,,,,,,,,,,,,None,,731.9198363200412,None,731.9198363200412,None,2022-03-07-11:49:35.535644,731.9209076999687,732.2364096000092,731.9209076999687,None,None,731.9209076999687,None,732.7217966199969,None,,,,11012,0002,2022_Mar_07_1137,localizer,2021.1.3,60.68171047754455,
block,objects,objects031.bmp,,,,,0,206,206,206,,,,,,,,,,,,,,,,,,,,,,,,,,,,,,,,,,,,,,,,,,None,,732.7217966199969,None,732.7217966199969,None,2022-03-07-11:49:36.343397,732.7407368000131,733.0534053000156,732.7407368000131,732.7407368000131,None,732.7407368000131,732.7407368000131,733.5366893199389,None,,,,11012,0002,2022_Mar_07_1137,localizer,2021.1.3,60.68171047754455,
block,objects,objects056.bmp,,,,,0,207,207,207,,,,,,,,,,,,,,,,,,,,,,,,,,,,,,,,,,,,,,,,,,None,,733.5366893199389,None,733.5366893199389,None,2022-03-07-11:49:37.153440,733.5478608999401,733.853601800045,733.5478608999401,None,None,733.5478608999401,None,734.3533699199907,None,,,,11012,0002,2022_Mar_07_1137,localizer,2021.1.3,60.68171047754455,
block,objects,objects006.bmp,,,,,0,208,208,208,,,,,,,,,,,,,,,,,,,,,,,,,,,,,,,,,,,,,,,,,,None,,734.3533699199907,None,734.3533699199907,None,2022-03-07-11:49:37.970119,734.3655211000005,734.6703550999518,734.3655211000005,None,None,734.3655211000005,None,735.1698598199873,None,,,,11012,0002,2022_Mar_07_1137,localizer,2021.1.3,60.68171047754455,
block,objects,objects034.bmp,,,,,0,209,209,209,,,,,,,,,,,,,,,,,,,,,,,,,,,,,,,,,,,,,,,,,,None,,735.1698598199873,None,735.1698598199873,None,2022-03-07-11:49:38.785694,735.1707438000012,735.4866440999322,735.1707438000012,None,None,735.1707438000012,None,735.9862943200278,None,,,,11012,0002,2022_Mar_07_1137,localizer,2021.1.3,60.68171047754455,
block,objects,objects060.bmp,,,,,0,210,210,210,,,,,,,,,,,,,,,,,,,,,,,,,,,,,,,,,,,,,,,,,,None,,735.9862943200278,None,735.9862943200278,None,2022-03-07-11:49:39.602004,735.987512200023,736.3030252000317,735.987512200023,None,None,735.987512200023,None,736.8029081200366,None,,,,11012,0002,2022_Mar_07_1137,localizer,2021.1.3,60.68171047754455,
block,objects,objects085.bmp,,,,,0,211,211,211,,,,,,,,,,,,,,,,,,,,,,,,,,,,,,,,,,,,,,,,,,None,,736.8029081200366,None,736.8029081200366,None,2022-03-07-11:49:40.418318,736.8042470000219,737.1200195000274,736.8042470000219,None,None,736.8042470000219,None,737.6197736199829,None,,,,11012,0002,2022_Mar_07_1137,localizer,2021.1.3,60.68171047754455,
block_end,objects,objects032.bmp,,,,,0,212,212,212,,,,,,,,,,,,,,,,,,,,,,,,,,,,,,,,,,,,,,,,,,None,,737.6197736199829,None,737.6197736199829,None,2022-03-07-11:49:41.235580,737.6209593999665,737.9364134999923,737.6209593999665,None,None,737.6209593999665,None,738.4204411199898,None,,,,11012,0002,2022_Mar_07_1137,localizer,2021.1.3,60.68171047754455,
block_start,scrambled,scrambled030.bmp,,,,,0,213,213,213,,,,,,,,,,,,,,,,,,,,,,,,,,,,,,,,,,,,,,,,,,t,1.7943733000429347,738.4207795000402,None,738.4207795000402,None,2022-03-07-11:49:43.852632,740.2472297999775,740.5533570999978,740.2472297999775,None,None,740.2472297999775,None,741.0534825199866,None,,,,11012,0002,2022_Mar_07_1137,localizer,2021.1.3,60.68171047754455,
block,scrambled,scrambled012.bmp,,,,,0,214,214,214,,,,,,,,,,,,,,,,,,,,,,,,,,,,,,,,,,,,,,,,,,None,,741.0534825199866,None,741.0534825199866,None,2022-03-07-11:49:44.670898,741.0548217999749,741.3703420000384,741.0548217999749,None,None,741.0548217999749,None,741.8701439200086,None,,,,11012,0002,2022_Mar_07_1137,localizer,2021.1.3,60.68171047754455,
block,scrambled,scrambled075.bmp,,,,,0,215,215,215,,,,,,,,,,,,,,,,,,,,,,,,,,,,,,,,,,,,,,,,,,None,,741.8701439200086,None,741.8701439200086,None,2022-03-07-11:49:45.486892,741.8810739000328,742.186682999949,741.8810739000328,None,None,741.8810739000328,None,742.6864128199522,None,,,,11012,0002,2022_Mar_07_1137,localizer,2021.1.3,60.68171047754455,
block,scrambled,scrambled003.bmp,,,,,0,216,216,216,,,,,,,,,,,,,,,,,,,,,,,,,,,,,,,,,,,,,,,,,,None,,742.6864128199522,None,742.6864128199522,None,2022-03-07-11:49:46.302234,742.6874935999513,743.0033631999977,742.6874935999513,None,None,742.6874935999513,None,743.4865897199488,None,,,,11012,0002,2022_Mar_07_1137,localizer,2021.1.3,60.68171047754455,
block,scrambled,scrambled011.bmp,,,,,0,217,217,217,,,,,,,,,,,,,,,,,,,,,,,,,,,,,,,,,,,,,,,,,,None,,743.4865897199488,None,743.4865897199488,None,2022-03-07-11:49:47.104336,743.4895565999905,743.8033023000462,743.4895565999905,743.4895565999905,None,743.4895565999905,743.4895565999905,744.3029867199366,None,,,,11012,0002,2022_Mar_07_1137,localizer,2021.1.3,60.68171047754455,
block,scrambled,scrambled016.bmp,,,,,0,218,218,218,,,,,,,,,,,,,,,,,,,,,,,,,,,,,,,,,,,,,,,,,,None,,744.3029867199366,None,744.3029867199366,None,2022-03-07-11:49:47.918647,744.304151999997,744.6198603999801,744.304151999997,None,None,744.304151999997,None,745.1036398199503,None,,,,11012,0002,2022_Mar_07_1137,localizer,2021.1.3,60.68171047754455,
block,scrambled,scrambled032.bmp,,,,,0,219,219,219,,,,,,,,,,,,,,,,,,,,,,,,,,,,,,,,,,,,,,,,,,None,,745.1036398199503,None,745.1036398199503,None,2022-03-07-11:49:48.722322,745.1068052999908,745.4202848999994,745.1068052999908,745.1068052999908,None,745.1068052999908,745.1068052999908,745.9200973200495,None,,,,11012,0002,2022_Mar_07_1137,localizer,2021.1.3,60.68171047754455,
block,scrambled,scrambled084.bmp,,,,,0,220,220,220,,,,,,,,,,,,,,,,,,,,,,,,,,,,,,,,,,,,,,,,,,None,,745.9200973200495,None,745.9200973200495,None,2022-03-07-11:49:49.536846,745.9209456000244,746.2204174000071,745.9209456000244,None,None,745.9209456000244,None,746.7201102199615,None,,,,11012,0002,2022_Mar_07_1137,localizer,2021.1.3,60.68171047754455,
block,scrambled,scrambled083.bmp,,,,,0,221,221,221,,,,,,,,,,,,,,,,,,,,,,,,,,,,,,,,,,,,,,,,,,None,,746.7201102199615,None,746.7201102199615,None,2022-03-07-11:49:50.339054,746.7231751999352,747.0370101999724,746.7231751999352,746.7231751999352,None,746.7231751999352,746.7231751999352,747.5368335199892,None,,,,11012,0002,2022_Mar_07_1137,localizer,2021.1.3,60.68171047754455,
block,scrambled,scrambled081.bmp,,,,,0,222,222,222,,,,,,,,,,,,,,,,,,,,,,,,,,,,,,,,,,,,,,,,,,None,,747.5368335199892,None,747.5368335199892,None,2022-03-07-11:49:51.153588,747.5375851000426,747.8369527000468,747.5375851000426,None,None,747.5375851000426,None,748.3375653200201,None,,,,11012,0002,2022_Mar_07_1137,localizer,2021.1.3,60.68171047754455,
block,scrambled,scrambled057.bmp,,,,,0,223,223,223,,,,,,,,,,,,,,,,,,,,,,,,,,,,,,,,,,,,,,,,,,None,,748.3375653200201,None,748.3375653200201,None,2022-03-07-11:49:51.959289,748.3497107999865,748.6532496999716,748.3497107999865,748.3497107999865,None,748.3497107999865,748.3497107999865,749.154298420006,None,,,,11012,0002,2022_Mar_07_1137,localizer,2021.1.3,60.68171047754455,
block,scrambled,scrambled068.bmp,,,,,0,224,224,224,,,,,,,,,,,,,,,,,,,,,,,,,,,,,,,,,,,,,,,,,,None,,749.154298420006,None,749.154298420006,None,2022-03-07-11:49:52.771012,749.1572345000459,749.4704483000096,749.1572345000459,None,None,749.1572345000459,None,749.9718457200215,None,,,,11012,0002,2022_Mar_07_1137,localizer,2021.1.3,60.68171047754455,
block,scrambled,scrambled022.bmp,,,,,0,225,225,225,,,,,,,,,,,,,,,,,,,,,,,,,,,,,,,,,,,,,,,,,,None,,749.9718457200215,None,749.9718457200215,None,2022-03-07-11:49:53.591544,749.9773768000305,750.2923277999507,749.9773768000305,None,None,749.9773768000305,None,750.7858752200264,None,,,,11012,0002,2022_Mar_07_1137,localizer,2021.1.3,60.68171047754455,
block,scrambled,scrambled064.bmp,,,,,0,226,226,226,,,,,,,,,,,,,,,,,,,,,,,,,,,,,,,,,,,,,,,,,,None,,750.7858752200264,None,750.7858752200264,None,2022-03-07-11:49:54.400638,750.7877060000319,751.1032869999763,750.7877060000319,None,None,750.7877060000319,None,751.5870553199784,None,,,,11012,0002,2022_Mar_07_1137,localizer,2021.1.3,60.68171047754455,
block_end,scrambled,scrambled056.bmp,,,,,0,227,227,227,,,,,,,,,,,,,,,,,,,,,,,,,,,,,,,,,,,,,,,,,,None,,751.5870553199784,None,751.5870553199784,None,2022-03-07-11:49:55.205797,751.5902614999795,751.9035755000077,751.5902614999795,751.5902614999795,None,751.5902614999795,751.5902614999795,752.4033230200293,None,,,,11012,0002,2022_Mar_07_1137,localizer,2021.1.3,60.68171047754455,
null_block,null_block,null_block.bmp,,,,,0,228,228,228,,,,,,,,,,,,,,,,,,,,,,,,,,,,,,,,,,,,,,,,,,t,1.8116748998872936,752.4034869000316,None,752.4034869000316,None,2022-03-07-11:49:57.851068,754.2364783200319,None,754.2364783200319,None,None,754.2364783200319,None,754.2388148000464,None,,,,11012,0002,2022_Mar_07_1137,localizer,2021.1.3,60.68171047754455,
block_start,faces,faces003.bmp,,,,,0,229,229,229,,,,,,,,,,,,,,,,,,,,,,,,,,,,,,,,,,,,,,,,,,t,1.961712299962528,766.2534227999859,None,766.2534227999859,None,2022-03-07-11:50:11.852739,768.2376010000007,768.5538759999909,768.2376010000007,None,None,768.2376010000007,None,769.0369795199367,None,,,,11012,0002,2022_Mar_07_1137,localizer,2021.1.3,60.68171047754455,
block,faces,faces026.bmp,,,,,0,230,230,230,,,,,,,,,,,,,,,,,,,,,,,,,,,,,,,,,,,,,,,,,,None,,769.0369795199367,None,769.0369795199367,None,2022-03-07-11:50:12.656717,769.0412476999918,769.3539399999427,769.0412476999918,769.0412476999918,None,769.0412476999918,769.0412476999918,769.8536357200355,None,,,,11012,0002,2022_Mar_07_1137,localizer,2021.1.3,60.68171047754455,
block,faces,faces046.bmp,,,,,0,231,231,231,,,,,,,,,,,,,,,,,,,,,,,,,,,,,,,,,,,,,,,,,,None,,769.8536357200355,None,769.8536357200355,None,2022-03-07-11:50:13.470377,769.8550527000334,770.1708382000215,769.8550527000334,None,None,769.8550527000334,None,770.669913520047,None,,,,11012,0002,2022_Mar_07_1137,localizer,2021.1.3,60.68171047754455,
block,faces,faces059.bmp,,,,,0,232,232,232,,,,,,,,,,,,,,,,,,,,,,,,,,,,,,,,,,,,,,,,,,None,,770.669913520047,None,770.669913520047,None,2022-03-07-11:50:14.285671,770.6710789999925,770.9866758999415,770.6710789999925,None,None,770.6710789999925,None,771.4864815199398,None,,,,11012,0002,2022_Mar_07_1137,localizer,2021.1.3,60.68171047754455,
block,faces,faces044.bmp,,,,,0,233,233,233,,,,,,,,,,,,,,,,,,,,,,,,,,,,,,,,,,,,,,,,,,None,,771.4864815199398,None,771.4864815199398,None,2022-03-07-11:50:15.102234,771.4878371999366,771.8034897999605,771.4878371999366,None,None,771.4878371999366,None,772.303400619945,None,,,,11012,0002,2022_Mar_07_1137,localizer,2021.1.3,60.68171047754455,
block,faces,faces045.bmp,,,,,0,234,234,234,,,,,,,,,,,,,,,,,,,,,,,,,,,,,,,,,,,,,,,,,,None,,772.303400619945,None,772.303400619945,None,2022-03-07-11:50:15.919151,772.304479500046,772.620247600018,772.304479500046,None,None,772.304479500046,None,773.1053243199713,None,,,,11012,0002,2022_Mar_07_1137,localizer,2021.1.3,60.68171047754455,
block,faces,faces060.bmp,,,,,0,235,235,235,,,,,,,,,,,,,,,,,,,,,,,,,,,,,,,,,,,,,,,,,,None,,773.1053243199713,None,773.1053243199713,None,2022-03-07-11:50:16.727219,773.1142951999791,773.4206741999369,773.1142951999791,773.1142951999791,None,773.1142951999791,773.1142951999791,773.9198665200383,None,,,,11012,0002,2022_Mar_07_1137,localizer,2021.1.3,60.68171047754455,
block,faces,faces062.bmp,,,,,0,236,236,236,,,,,,,,,,,,,,,,,,,,,,,,,,,,,,,,,,,,,,,,,,None,,773.9198665200383,None,773.9198665200383,None,2022-03-07-11:50:17.535627,773.9209159000311,774.2367260999745,773.9209159000311,None,None,773.9209159000311,None,774.7199280199711,None,,,,11012,0002,2022_Mar_07_1137,localizer,2021.1.3,60.68171047754455,
block,faces,faces011.bmp,,,,,0,237,237,237,,,,,,,,,,,,,,,,,,,,,,,,,,,,,,,,,,,,,,,,,,None,,774.7199280199711,None,774.7199280199711,None,2022-03-07-11:50:18.336681,774.7210346999345,775.0367195999715,774.7210346999345,774.7210346999345,None,774.7210346999345,774.7210346999345,775.5362569200224,None,,,,11012,0002,2022_Mar_07_1137,localizer,2021.1.3,60.68171047754455,
block,faces,faces001.bmp,,,,,0,238,238,238,,,,,,,,,,,,,,,,,,,,,,,,,,,,,,,,,,,,,,,,,,None,,775.5362569200224,None,775.5362569200224,None,2022-03-07-11:50:19.151741,775.5473485999973,775.853388999938,775.5473485999973,None,None,775.5473485999973,None,776.3532775199856,None,,,,11012,0002,2022_Mar_07_1137,localizer,2021.1.3,60.68171047754455,
block,faces,faces039.bmp,,,,,0,239,239,239,,,,,,,,,,,,,,,,,,,,,,,,,,,,,,,,,,,,,,,,,,None,,776.3532775199856,None,776.3532775199856,None,2022-03-07-11:50:19.969028,776.3543372999411,776.6701352000237,776.3543372999411,None,None,776.3543372999411,None,777.1554365199408,None,,,,11012,0002,2022_Mar_07_1137,localizer,2021.1.3,60.68171047754455,
block,faces,faces014.bmp,,,,,0,240,240,240,,,,,,,,,,,,,,,,,,,,,,,,,,,,,,,,,,,,,,,,,,None,,777.1554365199408,None,777.1554365199408,None,2022-03-07-11:50:20.777148,777.1631600999972,777.4708170000231,777.1631600999972,777.1631600999972,None,777.1631600999972,777.1631600999972,777.9699814200285,None,,,,11012,0002,2022_Mar_07_1137,localizer,2021.1.3,60.68171047754455,
block,faces,faces064.bmp,,,,,0,241,241,241,,,,,,,,,,,,,,,,,,,,,,,,,,,,,,,,,,,,,,,,,,None,,777.9699814200285,None,777.9699814200285,None,2022-03-07-11:50:21.585736,777.9796169999754,778.2871131999418,777.9796169999754,None,None,777.9796169999754,None,778.7865761200082,None,,,,11012,0002,2022_Mar_07_1137,localizer,2021.1.3,60.68171047754455,
block,faces,faces058.bmp,,,,,0,242,242,242,,,,,,,,,,,,,,,,,,,,,,,,,,,,,,,,,,,,,,,,,,None,,778.7865761200082,None,778.7865761200082,None,2022-03-07-11:50:22.402331,778.7987735000206,779.1034457000205,778.7987735000206,None,None,778.7987735000206,None,779.603272719949,None,,,,11012,0002,2022_Mar_07_1137,localizer,2021.1.3,60.68171047754455,
block_end,faces,faces078.bmp,,,,,0,243,243,243,,,,,,,,,,,,,,,,,,,,,,,,,,,,,,,,,,,,,,,,,,None,,779.603272719949,None,779.603272719949,None,2022-03-07-11:50:23.219028,779.6043906999985,779.9038006999763,779.6043906999985,None,None,779.6043906999985,None,780.4200204200461,None,,,,11012,0002,2022_Mar_07_1137,localizer,2021.1.3,60.68171047754455,
,,,,,,,,,,,,,,,,,,,,,,,,,,,,,,,,,,,,,,,,,,,,,,,,,,,,,,,,,,,,,,,,,,,,,780.4201661000261,None,,,,,,,
