block_type,condition,img_name,Button.thisRepN,Button.thisTrialN,Button.thisN,Button.thisIndex,trials.thisRepN,trials.thisTrialN,trials.thisN,trials.thisIndex,Ready_experimenter_text.started,Ready_experimenter_text.stopped,Ready_experimenter_resp.keys,Ready_experimenter_resp.rt,Ready_experimenter_resp.started,Ready_experimenter_resp.stopped,Alignment_background.started,Alignment_background.stopped,Alignment_image.started,Alignment_image.stopped,Alignment_resp.keys,Alignment_resp.rt,Alignment_resp.started,Alignment_resp.stopped,Button_text.started,Button_text.stopped,Index_text.started,Index_text.stopped,Index_resp.keys,Index_resp.rt,Index_resp.started,Index_resp.stopped,Middle_text.started,Middle_text.stopped,Middle_resp.keys,Middle_resp.rt,Middle_resp.started,Middle_resp.stopped,Repeat_text.started,Repeat_text.stopped,Repeat_resp.keys,Repeat_resp.corr,Repeat_resp.rt,Repeat_resp.started,Repeat_resp.stopped,instruction_text.started,instruction_text.stopped,key_resp.keys,key_resp.rt,key_resp.started,key_resp.stopped,scanner_t.keys,scanner_t.rt,scanner_t.started,scanner_t.stopped,fixation_wait_for_t.started,fixation_wait_for_t.stopped,real_timestamp_trial_start,image.started,image.stopped,fixation.started,fixation.stopped,repeat_response.keys,repeat_response.started,repeat_response.stopped,fixation_null.started,fixation_null.stopped,repeat_response.rt,end_text.started,end_text.stopped,participant,run,date,expName,psychopyVersion,frameRate,
,,,,,,,,,,,8.256886500001201,None,return,58.51766840000164,8.256886500001201,None,,,,,,,,,,,,,,,,,,,,,,,,,,,,,,,,,,,,,,,,,,,,,,,,,,,,,,,22009,0001,2022_Apr_26_1357,localizer,2021.1.3,59.96976324530216,
,,,,,,,,,,,,,,,,,66.82731670000067,None,66.82731670000067,None,return,6.254296000000977,66.82731670000067,None,,,,,,,,,,,,,,,,,,,,,,,,,,,,,,,,,,,,,,,,,,,,,,,22009,0001,2022_Apr_26_1357,localizer,2021.1.3,59.96976324530216,
,,,0,0,0,0,,,,,,,,,,,,,,,,,,,73.10891720000109,None,74.11999110000033,None,y,2.733386800000517,74.11999110000033,None,76.87479639999947,None,b,1.0635055999991891,76.87479639999947,None,77.97010129999944,None,n,0,3.1587457999994513,77.97010129999944,None,,,,,,,,,,,,,,,,,,,,,,,,,,22009,0001,2022_Apr_26_1357,localizer,2021.1.3,59.96976324530216,
,,,,,,,,,,,,,,,,,,,,,,,,,,,,,,,,,,,,,,,,,,,,,,81.15326330000062,None,y,34.52416769999945,81.15326330000062,None,,,,,,,,,,,,,,,,,,,,22009,0001,2022_Apr_26_1357,localizer,2021.1.3,59.96976324530216,
block_start,objects,objects060.bmp,,,,,0,0,0,0,,,,,,,,,,,,,,,,,,,,,,,,,,,,,,,,,,,,,,,,,,t,16.096139100000073,115.77317369999946,None,115.77317369999946,None,2022-04-26-13:59:06.764063,131.89810650000072,132.20466979999946,131.89810650000072,None,None,131.89810650000072,None,132.70444547999978,None,,,,22009,0001,2022_Apr_26_1357,localizer,2021.1.3,59.96976324530216,
block,objects,objects040.bmp,,,,,0,1,1,1,,,,,,,,,,,,,,,,,,,,,,,,,,,,,,,,,,,,,,,,,,None,,132.70444547999978,None,132.70444547999978,None,2022-04-26-13:59:07.585055,132.71861010000066,133.02058100000067,132.71861010000066,None,None,132.71861010000066,None,133.5112587800013,None,,,,22009,0001,2022_Apr_26_1357,localizer,2021.1.3,59.96976324530216,
block,objects,objects022.bmp,,,,,0,2,2,2,,,,,,,,,,,,,,,,,,,,,,,,,,,,,,,,,,,,,,,,,,None,,133.5112587800013,None,133.5112587800013,None,2022-04-26-13:59:08.393332,133.52702710000085,133.83725679999952,133.52702710000085,None,None,133.52702710000085,None,134.32143418000123,None,,,,22009,0001,2022_Apr_26_1357,localizer,2021.1.3,59.96976324530216,
block,objects,objects068.bmp,,,,,0,3,3,3,,,,,,,,,,,,,,,,,,,,,,,,,,,,,,,,,,,,,,,,,,None,,134.32143418000123,None,134.32143418000123,None,2022-04-26-13:59:09.200000,134.3332792000001,134.63812990000042,134.3332792000001,None,None,134.3332792000001,None,135.13765828000032,None,,,,22009,0001,2022_Apr_26_1357,localizer,2021.1.3,59.96976324530216,
block,objects,objects059.bmp,,,,,0,4,4,4,,,,,,,,,,,,,,,,,,,,,,,,,,,,,,,,,,,,,,,,,,None,,135.13765828000032,None,135.13765828000032,None,2022-04-26-13:59:10.015248,135.1474288999998,135.4542634999998,135.1474288999998,None,None,135.1474288999998,None,135.95416058000046,None,,,,22009,0001,2022_Apr_26_1357,localizer,2021.1.3,59.96976324530216,
block,objects,objects045.bmp,,,,,0,5,5,5,,,,,,,,,,,,,,,,,,,,,,,,,,,,,,,,,,,,,,,,,,None,,135.95416058000046,None,135.95416058000046,None,2022-04-26-13:59:10.831760,135.96334150000075,136.2707814000005,135.96334150000075,None,None,135.96334150000075,None,136.77200337999966,None,,,,22009,0001,2022_Apr_26_1357,localizer,2021.1.3,59.96976324530216,
block,objects,objects005.bmp,,,,,0,6,6,6,,,,,,,,,,,,,,,,,,,,,,,,,,,,,,,,,,,,,,,,,,None,,136.77200337999966,None,136.77200337999966,None,2022-04-26-13:59:11.650759,136.7847925999995,137.0876105999996,136.7847925999995,None,None,136.7847925999995,None,137.5871310800012,None,,,,22009,0001,2022_Apr_26_1357,localizer,2021.1.3,59.96976324530216,
block,objects,objects018.bmp,,,,,0,7,7,7,,,,,,,,,,,,,,,,,,,,,,,,,,,,,,,,,,,,,,,,,,None,,137.5871310800012,None,137.5871310800012,None,2022-04-26-13:59:12.464737,137.5964096000007,137.90379720000055,137.5964096000007,None,None,137.5964096000007,None,138.40494028000103,None,,,,22009,0001,2022_Apr_26_1357,localizer,2021.1.3,59.96976324530216,
block,objects,objects008.bmp,,,,,0,8,8,8,,,,,,,,,,,,,,,,,,,,,,,,,,,,,,,,,,,,,,,,,,None,,138.40494028000103,None,138.40494028000103,None,2022-04-26-13:59:13.283562,138.41598730000078,138.72108300000036,138.41598730000078,None,None,138.41598730000078,None,139.22067758000048,None,,,,22009,0001,2022_Apr_26_1357,localizer,2021.1.3,59.96976324530216,
block,objects,objects083.bmp,,,,,0,9,9,9,,,,,,,,,,,,,,,,,,,,,,,,,,,,,,,,,,,,,,,,,,None,,139.22067758000048,None,139.22067758000048,None,2022-04-26-13:59:14.098284,139.23084899999958,139.53734319999967,139.23084899999958,None,None,139.23084899999958,None,140.03733658000056,None,,,,22009,0001,2022_Apr_26_1357,localizer,2021.1.3,59.96976324530216,
block,objects,objects015.bmp,,,,,0,10,10,10,,,,,,,,,,,,,,,,,,,,,,,,,,,,,,,,,,,,,,,,,,None,,140.03733658000056,None,140.03733658000056,None,2022-04-26-13:59:14.914948,140.04583300000013,140.35408950000055,140.04583300000013,None,None,140.04583300000013,None,140.85430258000088,None,,,,22009,0001,2022_Apr_26_1357,localizer,2021.1.3,59.96976324530216,
block,objects,objects074.bmp,,,,,0,11,11,11,,,,,,,,,,,,,,,,,,,,,,,,,,,,,,,,,,,,,,,,,,None,,140.85430258000088,None,140.85430258000088,None,2022-04-26-13:59:15.731911,140.8644836000003,141.17055260000052,140.8644836000003,None,None,140.8644836000003,None,141.67086297999958,None,,,,22009,0001,2022_Apr_26_1357,localizer,2021.1.3,59.96976324530216,
block,objects,objects049.bmp,,,,,0,12,12,12,,,,,,,,,,,,,,,,,,,,,,,,,,,,,,,,,,,,,,,,,,None,,141.67086297999958,None,141.67086297999958,None,2022-04-26-13:59:16.548476,141.6808247000008,141.98734390000027,141.6808247000008,None,None,141.6808247000008,None,142.48725818000094,None,,,,22009,0001,2022_Apr_26_1357,localizer,2021.1.3,59.96976324530216,
block,objects,objects071.bmp,,,,,0,13,13,13,,,,,,,,,,,,,,,,,,,,,,,,,,,,,,,,,,,,,,,,,,None,,142.48725818000094,None,142.48725818000094,None,2022-04-26-13:59:17.364878,142.4956234000001,142.8038826000011,142.4956234000001,None,None,142.4956234000001,None,143.30460028000016,None,,,,22009,0001,2022_Apr_26_1357,localizer,2021.1.3,59.96976324530216,
block_end,objects,objects058.bmp,,,,,0,14,14,14,,,,,,,,,,,,,,,,,,,,,,,,,,,,,,,,,,,,,,,,,,None,,143.30460028000016,None,143.30460028000016,None,2022-04-26-13:59:18.182405,143.31650810000065,143.6207570000006,143.31650810000065,None,None,143.31650810000065,None,144.1206784799997,None,,,,22009,0001,2022_Apr_26_1357,localizer,2021.1.3,59.96976324530216,
block_start,faces,faces016.bmp,,,,,0,15,15,15,,,,,,,,,,,,,,,,,,,,,,,,,,,,,,,,,,,,,,,,,,t,1.7486788000005618,144.1206531000007,None,144.1206531000007,None,2022-04-26-13:59:20.765000,145.89900490000036,146.20425380000052,145.89900490000036,None,None,145.89900490000036,None,146.70501418000094,None,,,,22009,0001,2022_Apr_26_1357,localizer,2021.1.3,59.96976324530216,
block,faces,faces024.bmp,,,,,0,16,16,16,,,,,,,,,,,,,,,,,,,,,,,,,,,,,,,,,,,,,,,,,,None,,146.70501418000094,None,146.70501418000094,None,2022-04-26-13:59:21.583627,146.71664220000093,147.0205203000005,146.71664220000093,None,None,146.71664220000093,None,147.52076527999998,None,,,,22009,0001,2022_Apr_26_1357,localizer,2021.1.3,59.96976324530216,
block,faces,faces080.bmp,,,,,0,17,17,17,,,,,,,,,,,,,,,,,,,,,,,,,,,,,,,,,,,,,,,,,,None,,147.52076527999998,None,147.52076527999998,None,2022-04-26-13:59:22.398394,147.53386890000002,147.83742060000077,147.53386890000002,None,None,147.53386890000002,None,148.3374910800012,None,,,,22009,0001,2022_Apr_26_1357,localizer,2021.1.3,59.96976324530216,
block,faces,faces003.bmp,,,,,0,18,18,18,,,,,,,,,,,,,,,,,,,,,,,,,,,,,,,,,,,,,,,,,,None,,148.3374910800012,None,148.3374910800012,None,2022-04-26-13:59:23.215120,148.34758200000033,148.65450480000072,148.34758200000033,None,None,148.34758200000033,None,149.15420298000026,None,,,,22009,0001,2022_Apr_26_1357,localizer,2021.1.3,59.96976324530216,
block,faces,faces042.bmp,,,,,0,19,19,19,,,,,,,,,,,,,,,,,,,,,,,,,,,,,,,,,,,,,,,,,,None,,149.15420298000026,None,149.15420298000026,None,2022-04-26-13:59:24.031835,149.16329330000008,149.477036100001,149.16329330000008,None,None,149.16329330000008,None,149.9706222799996,None,,,,22009,0001,2022_Apr_26_1357,localizer,2021.1.3,59.96976324530216,
block,faces,faces020.bmp,,,,,0,20,20,20,,,,,,,,,,,,,,,,,,,,,,,,,,,,,,,,,,,,,,,,,,None,,149.9706222799996,None,149.9706222799996,None,2022-04-26-13:59:24.847265,149.9797821000011,150.28749310000057,149.9797821000011,None,None,149.9797821000011,None,150.78797097999995,None,,,,22009,0001,2022_Apr_26_1357,localizer,2021.1.3,59.96976324530216,
block,faces,faces069.bmp,,,,,0,21,21,21,,,,,,,,,,,,,,,,,,,,,,,,,,,,,,,,,,,,,,,,,,None,,150.78797097999995,None,150.78797097999995,None,2022-04-26-13:59:25.666761,150.7987088000009,151.1048568999995,150.7987088000009,None,None,150.7987088000009,None,151.60481968000022,None,,,,22009,0001,2022_Apr_26_1357,localizer,2021.1.3,59.96976324530216,
block,faces,faces043.bmp,,,,,0,22,22,22,,,,,,,,,,,,,,,,,,,,,,,,,,,,,,,,,,,,,,,,,,None,,151.60481968000022,None,151.60481968000022,None,2022-04-26-13:59:26.483624,151.61658100000022,151.92045619999953,151.61658100000022,None,None,151.61658100000022,None,152.42116918000102,None,,,,22009,0001,2022_Apr_26_1357,localizer,2021.1.3,59.96976324530216,
block,faces,faces052.bmp,,,,,0,23,23,23,,,,,,,,,,,,,,,,,,,,,,,,,,,,,,,,,,,,,,,,,,None,,152.42116918000102,None,152.42116918000102,None,2022-04-26-13:59:27.298804,152.43201690000024,152.74365000000034,152.43201690000024,None,None,152.43201690000024,None,153.23764237999967,None,,,,22009,0001,2022_Apr_26_1357,localizer,2021.1.3,59.96976324530216,
block,faces,faces025.bmp,,,,,0,24,24,24,,,,,,,,,,,,,,,,,,,,,,,,,,,,,,,,,,,,,,,,,,None,,153.23764237999967,None,153.23764237999967,None,2022-04-26-13:59:28.115486,153.24811899999986,153.55483920000006,153.24811899999986,None,None,153.24811899999986,None,154.0542055799997,None,,,,22009,0001,2022_Apr_26_1357,localizer,2021.1.3,59.96976324530216,
block,faces,faces086.bmp,,,,,0,25,25,25,,,,,,,,,,,,,,,,,,,,,,,,,,,,,,,,,,,,,,,,,,None,,154.0542055799997,None,154.0542055799997,None,2022-04-26-13:59:28.931916,154.06420269999944,154.3709512000005,154.06420269999944,None,None,154.06420269999944,None,154.87106058000063,None,,,,22009,0001,2022_Apr_26_1357,localizer,2021.1.3,59.96976324530216,
block,faces,faces068.bmp,,,,,0,26,26,26,,,,,,,,,,,,,,,,,,,,,,,,,,,,,,,,,,,,,,,,,,None,,154.87106058000063,None,154.87106058000063,None,2022-04-26-13:59:29.748707,154.88247670000055,155.18733539999994,154.88247670000055,None,None,154.88247670000055,None,155.68836188000023,None,,,,22009,0001,2022_Apr_26_1357,localizer,2021.1.3,59.96976324530216,
block,faces,faces037.bmp,,,,,0,27,27,27,,,,,,,,,,,,,,,,,,,,,,,,,,,,,,,,,,,,,,,,,,None,,155.68836188000023,None,155.68836188000023,None,2022-04-26-13:59:30.567734,155.6998775000011,156.00409919999947,155.6998775000011,None,None,155.6998775000011,None,156.504136380001,None,,,,22009,0001,2022_Apr_26_1357,localizer,2021.1.3,59.96976324530216,
block,faces,faces012.bmp,,,,,0,28,28,28,,,,,,,,,,,,,,,,,,,,,,,,,,,,,,,,,,,,,,,,,,None,,156.504136380001,None,156.504136380001,None,2022-04-26-13:59:31.381789,156.51330179999968,156.82081199999993,156.51330179999968,None,None,156.51330179999968,None,157.32076858000073,None,,,,22009,0001,2022_Apr_26_1357,localizer,2021.1.3,59.96976324530216,
block_end,faces,faces077.bmp,,,,,0,29,29,29,,,,,,,,,,,,,,,,,,,,,,,,,,,,,,,,,,,,,,,,,,None,,157.32076858000073,None,157.32076858000073,None,2022-04-26-13:59:32.198421,157.32741150000038,157.63758720000078,157.32741150000038,None,None,157.32741150000038,None,158.1388163800002,None,,,,22009,0001,2022_Apr_26_1357,localizer,2021.1.3,59.96976324530216,
null_block,null_block,null_block.bmp,,,,,0,30,30,30,,,,,,,,,,,,,,,,,,,,,,,,,,,,,,,,,,,,,,,,,,t,1.7306262999991304,158.13883890000034,None,158.13883890000034,None,2022-04-26-13:59:34.768011,159.90556665999975,None,159.90556665999975,None,None,159.90556665999975,None,159.90575119999994,None,,,,22009,0001,2022_Apr_26_1357,localizer,2021.1.3,59.96976324530216,
block_start,scenes,scenes003.bmp,,,,,0,31,31,31,,,,,,,,,,,,,,,,,,,,,,,,,,,,,,,,,,,,,,,,,,t,1.9645990999997593,171.90372770000067,None,171.90372770000067,None,2022-04-26-13:59:48.766335,173.89874630000122,174.2045175000003,173.89874630000122,None,None,173.89874630000122,None,174.70514958000058,None,,,,22009,0001,2022_Apr_26_1357,localizer,2021.1.3,59.96976324530216,
block,scenes,scenes006.bmp,,,,,0,32,32,32,,,,,,,,,,,,,,,,,,,,,,,,,,,,,,,,,,,,,,,,,,None,,174.70514958000058,None,174.70514958000058,None,2022-04-26-13:59:49.584025,174.71682730000066,175.02128230000017,174.71682730000066,None,None,174.71682730000066,None,175.52122348000012,None,,,,22009,0001,2022_Apr_26_1357,localizer,2021.1.3,59.96976324530216,
block,scenes,scenes086.bmp,,,,,0,33,33,33,,,,,,,,,,,,,,,,,,,,,,,,,,,,,,,,,,,,,,,,,,None,,175.52122348000012,None,175.52122348000012,None,2022-04-26-13:59:50.399143,175.5311442000002,175.83814200000052,175.5311442000002,None,None,175.5311442000002,None,176.33773217999988,None,,,,22009,0001,2022_Apr_26_1357,localizer,2021.1.3,59.96976324530216,
block,scenes,scenes016.bmp,,,,,0,34,34,34,,,,,,,,,,,,,,,,,,,,,,,,,,,,,,,,,,,,,,,,,,None,,176.33773217999988,None,176.33773217999988,None,2022-04-26-13:59:51.215431,176.3528239999996,176.65518909999992,176.3528239999996,None,None,176.3528239999996,None,177.15528718000132,None,,,,22009,0001,2022_Apr_26_1357,localizer,2021.1.3,59.96976324530216,
block,scenes,scenes051.bmp,,,,,0,35,35,35,,,,,,,,,,,,,,,,,,,,,,,,,,,,,,,,,,,,,,,,,,None,,177.15528718000132,None,177.15528718000132,None,2022-04-26-13:59:52.034315,177.16591599999992,177.47717510000075,177.16591599999992,None,None,177.16591599999992,None,177.97224318000008,None,,,,22009,0001,2022_Apr_26_1357,localizer,2021.1.3,59.96976324530216,
block,scenes,scenes018.bmp,,,,,0,36,36,36,,,,,,,,,,,,,,,,,,,,,,,,,,,,,,,,,,,,,,,,,,None,,177.97224318000008,None,177.97224318000008,None,2022-04-26-13:59:52.852104,177.9856018999999,178.28786930000024,177.9856018999999,None,None,177.9856018999999,None,178.78807208000035,None,,,,22009,0001,2022_Apr_26_1357,localizer,2021.1.3,59.96976324530216,
block,scenes,scenes034.bmp,,,,,0,37,37,37,,,,,,,,,,,,,,,,,,,,,,,,,,,,,,,,,,,,,,,,,,None,,178.78807208000035,None,178.78807208000035,None,2022-04-26-13:59:53.665773,178.79892149999978,179.10960160000104,178.79892149999978,None,None,178.79892149999978,None,179.6051300800009,None,,,,22009,0001,2022_Apr_26_1357,localizer,2021.1.3,59.96976324530216,
block,scenes,scenes009.bmp,,,,,0,38,38,38,,,,,,,,,,,,,,,,,,,,,,,,,,,,,,,,,,,,,,,,,,None,,179.6051300800009,None,179.6051300800009,None,2022-04-26-13:59:54.484014,179.61579449999954,179.9213808000004,179.61579449999954,None,None,179.61579449999954,None,180.42139948000113,None,,,,22009,0001,2022_Apr_26_1357,localizer,2021.1.3,59.96976324530216,
block,scenes,scenes078.bmp,,,,,0,39,39,39,,,,,,,,,,,,,,,,,,,,,,,,,,,,,,,,,,,,,,,,,,None,,180.42139948000113,None,180.42139948000113,None,2022-04-26-13:59:55.300082,180.43426379999983,180.74351550000029,180.43426379999983,None,None,180.43426379999983,None,181.23775788000057,None,,,,22009,0001,2022_Apr_26_1357,localizer,2021.1.3,59.96976324530216,
block,scenes,scenes055.bmp,,,,,0,40,40,40,,,,,,,,,,,,,,,,,,,,,,,,,,,,,,,,,,,,,,,,,,None,,181.23775788000057,None,181.23775788000057,None,2022-04-26-13:59:56.115598,181.24874439999985,181.55491059999986,181.24874439999985,None,None,181.24874439999985,None,182.05446977999964,None,,,,22009,0001,2022_Apr_26_1357,localizer,2021.1.3,59.96976324530216,
block,scenes,scenes057.bmp,,,,,0,41,41,41,,,,,,,,,,,,,,,,,,,,,,,,,,,,,,,,,,,,,,,,,,None,,182.05446977999964,None,182.05446977999964,None,2022-04-26-13:59:56.932187,182.0629884000009,182.37129509999977,182.0629884000009,None,None,182.0629884000009,None,182.87187588000052,None,,,,22009,0001,2022_Apr_26_1357,localizer,2021.1.3,59.96976324530216,
block,scenes,scenes028.bmp,,,,,0,42,42,42,,,,,,,,,,,,,,,,,,,,,,,,,,,,,,,,,,,,,,,,,,None,,182.87187588000052,None,182.87187588000052,None,2022-04-26-13:59:57.750579,182.88394929999959,183.18824750000022,182.88394929999959,None,None,182.88394929999959,None,183.68841577999956,None,,,,22009,0001,2022_Apr_26_1357,localizer,2021.1.3,59.96976324530216,
block,scenes,scenes071.bmp,,,,,0,43,43,43,,,,,,,,,,,,,,,,,,,,,,,,,,,,,,,,,,,,,,,,,,None,,183.68841577999956,None,183.68841577999956,None,2022-04-26-13:59:58.567318,183.69692919999943,184.00708020000093,183.69692919999943,None,None,183.69692919999943,None,184.50461698000072,None,,,,22009,0001,2022_Apr_26_1357,localizer,2021.1.3,59.96976324530216,
block,scenes,scenes038.bmp,,,,,0,44,44,44,,,,,,,,,,,,,,,,,,,,,,,,,,,,,,,,,,,,,,,,,,None,,184.50461698000072,None,184.50461698000072,None,2022-04-26-13:59:59.382350,184.51408190000075,184.82112290000077,184.51408190000075,None,None,184.51408190000075,None,185.32096167999953,None,,,,22009,0001,2022_Apr_26_1357,localizer,2021.1.3,59.96976324530216,
block_end,scenes,scenes080.bmp,,,,,0,45,45,45,,,,,,,,,,,,,,,,,,,,,,,,,,,,,,,,,,,,,,,,,,None,,185.32096167999953,None,185.32096167999953,None,2022-04-26-14:00:00.198689,185.32929739999963,185.63761420000083,185.32929739999963,None,None,185.32929739999963,None,186.13804988000084,None,,,,22009,0001,2022_Apr_26_1357,localizer,2021.1.3,59.96976324530216,
block_start,scrambled,scrambled035.bmp,,,,,0,46,46,46,,,,,,,,,,,,,,,,,,,,,,,,,,,,,,,,,,,,,,,,,,t,1.7306268000011187,186.13767680000092,None,186.13767680000092,None,2022-04-26-14:00:02.766165,187.89951939999992,188.20447140000033,187.89951939999992,None,None,187.89951939999992,None,188.70495778000077,None,,,,22009,0001,2022_Apr_26_1357,localizer,2021.1.3,59.96976324530216,
block,scrambled,scrambled027.bmp,,,,,0,47,47,47,,,,,,,,,,,,,,,,,,,,,,,,,,,,,,,,,,,,,,,,,,None,,188.70495778000077,None,188.70495778000077,None,2022-04-26-14:00:03.583676,188.7116958000006,189.0211885000008,188.7116958000006,None,None,188.7116958000006,None,189.52196608000122,None,,,,22009,0001,2022_Apr_26_1357,localizer,2021.1.3,59.96976324530216,
block,scrambled,scrambled058.bmp,,,,,0,48,48,48,,,,,,,,,,,,,,,,,,,,,,,,,,,,,,,,,,,,,,,,,,None,,189.52196608000122,None,189.52196608000122,None,2022-04-26-14:00:04.401131,189.5347923999998,189.8384129999995,189.5347923999998,None,None,189.5347923999998,None,190.33789658000023,None,,,,22009,0001,2022_Apr_26_1357,localizer,2021.1.3,59.96976324530216,
block,scrambled,scrambled058.bmp,,,,,0,49,49,49,,,,,,,,,,,,,,,,,,,,,,,,,,,,,,,,,,,,,,,,,,None,,190.33789658000023,None,190.33789658000023,None,2022-04-26-14:00:05.215851,190.33864929999982,190.63806459999978,190.33864929999982,None,None,190.33864929999982,None,191.138277080001,None,,,,22009,0001,2022_Apr_26_1357,localizer,2021.1.3,59.96976324530216,
block,scrambled,scrambled005.bmp,,,,,0,50,50,50,,,,,,,,,,,,,,,,,,,,,,,,,,,,,,,,,,,,,,,,,,None,,191.138277080001,None,191.138277080001,None,2022-04-26-14:00:06.019207,191.15071329999955,191.4542192000008,191.15071329999955,191.15071329999955,y,191.15071329999955,191.15071329999955,191.95467477999955,None,0.35370829999919806,,,22009,0001,2022_Apr_26_1357,localizer,2021.1.3,59.96976324530216,
block,scrambled,scrambled022.bmp,,,,,0,51,51,51,,,,,,,,,,,,,,,,,,,,,,,,,,,,,,,,,,,,,,,,,,None,,191.95467477999955,None,191.95467477999955,None,2022-04-26-14:00:06.832413,191.9632827000005,192.2714605000001,191.9632827000005,None,None,191.9632827000005,None,192.77120558000024,None,,,,22009,0001,2022_Apr_26_1357,localizer,2021.1.3,59.96976324530216,
block,scrambled,scrambled006.bmp,,,,,0,52,52,52,,,,,,,,,,,,,,,,,,,,,,,,,,,,,,,,,,,,,,,,,,None,,192.77120558000024,None,192.77120558000024,None,2022-04-26-14:00:07.649141,192.77736800000093,193.0882816000012,192.77736800000093,None,None,192.77736800000093,None,193.58775387999958,None,,,,22009,0001,2022_Apr_26_1357,localizer,2021.1.3,59.96976324530216,
block,scrambled,scrambled007.bmp,,,,,0,53,53,53,,,,,,,,,,,,,,,,,,,,,,,,,,,,,,,,,,,,,,,,,,None,,193.58775387999958,None,193.58775387999958,None,2022-04-26-14:00:08.465500,193.59650280000096,193.90440390000003,193.59650280000096,None,None,193.59650280000096,None,194.40479448000042,None,,,,22009,0001,2022_Apr_26_1357,localizer,2021.1.3,59.96976324530216,
block,scrambled,scrambled026.bmp,,,,,0,54,54,54,,,,,,,,,,,,,,,,,,,,,,,,,,,,,,,,,,,,,,,,,,None,,194.40479448000042,None,194.40479448000042,None,2022-04-26-14:00:09.282196,194.41419080000014,194.72114809999948,194.41419080000014,None,None,194.41419080000014,None,195.22131018000073,None,,,,22009,0001,2022_Apr_26_1357,localizer,2021.1.3,59.96976324530216,
block,scrambled,scrambled013.bmp,,,,,0,55,55,55,,,,,,,,,,,,,,,,,,,,,,,,,,,,,,,,,,,,,,,,,,None,,195.22131018000073,None,195.22131018000073,None,2022-04-26-14:00:10.099057,195.2312423000003,195.5376709000011,195.2312423000003,None,None,195.2312423000003,None,196.040948580001,None,,,,22009,0001,2022_Apr_26_1357,localizer,2021.1.3,59.96976324530216,
block,scrambled,scrambled053.bmp,,,,,0,56,56,56,,,,,,,,,,,,,,,,,,,,,,,,,,,,,,,,,,,,,,,,,,None,,196.040948580001,None,196.040948580001,None,2022-04-26-14:00:10.922843,196.0558629999996,196.37099730000045,196.0558629999996,None,None,196.0558629999996,None,196.85415868000018,None,,,,22009,0001,2022_Apr_26_1357,localizer,2021.1.3,59.96976324530216,
block,scrambled,scrambled044.bmp,,,,,0,57,57,57,,,,,,,,,,,,,,,,,,,,,,,,,,,,,,,,,,,,,,,,,,None,,196.85415868000018,None,196.85415868000018,None,2022-04-26-14:00:11.731915,196.8583619000001,197.17117680000047,196.8583619000001,None,None,196.8583619000001,None,197.67107568000029,None,,,,22009,0001,2022_Apr_26_1357,localizer,2021.1.3,59.96976324530216,
block,scrambled,scrambled043.bmp,,,,,0,58,58,58,,,,,,,,,,,,,,,,,,,,,,,,,,,,,,,,,,,,,,,,,,None,,197.67107568000029,None,197.67107568000029,None,2022-04-26-14:00:12.548834,197.67923960000007,197.98744050000096,197.67923960000007,None,None,197.67923960000007,None,198.48753518000012,None,,,,22009,0001,2022_Apr_26_1357,localizer,2021.1.3,59.96976324530216,
block,scrambled,scrambled083.bmp,,,,,0,59,59,59,,,,,,,,,,,,,,,,,,,,,,,,,,,,,,,,,,,,,,,,,,None,,198.48753518000012,None,198.48753518000012,None,2022-04-26-14:00:13.365295,198.49595580000096,198.80467680000038,198.49595580000096,None,None,198.49595580000096,None,199.30462948000059,None,,,,22009,0001,2022_Apr_26_1357,localizer,2021.1.3,59.96976324530216,
block_end,scrambled,scrambled023.bmp,,,,,0,60,60,60,,,,,,,,,,,,,,,,,,,,,,,,,,,,,,,,,,,,,,,,,,None,,199.30462948000059,None,199.30462948000059,None,2022-04-26-14:00:14.182385,199.3147296999996,199.6212286000009,199.3147296999996,None,None,199.3147296999996,None,200.1220178800013,None,,,,22009,0001,2022_Apr_26_1357,localizer,2021.1.3,59.96976324530216,
block_start,objects,objects071.bmp,,,,,0,61,61,61,,,,,,,,,,,,,,,,,,,,,,,,,,,,,,,,,,,,,,,,,,t,1.7465854000001855,200.12175840000054,None,200.12175840000054,None,2022-04-26-14:00:16.767473,201.89090530000067,202.20441980000032,201.89090530000067,None,None,201.89090530000067,None,202.70457238000017,None,,,,22009,0001,2022_Apr_26_1357,localizer,2021.1.3,59.96976324530216,
block,objects,objects041.bmp,,,,,0,62,62,62,,,,,,,,,,,,,,,,,,,,,,,,,,,,,,,,,,,,,,,,,,None,,202.70457238000017,None,202.70457238000017,None,2022-04-26-14:00:17.582337,202.71363689999998,203.0210416000009,202.71363689999998,None,None,202.71363689999998,None,203.52132308,None,,,,22009,0001,2022_Apr_26_1357,localizer,2021.1.3,59.96976324530216,
block,objects,objects051.bmp,,,,,0,63,63,63,,,,,,,,,,,,,,,,,,,,,,,,,,,,,,,,,,,,,,,,,,None,,203.52132308,None,203.52132308,None,2022-04-26-14:00:18.399092,203.53182519999973,203.8377132000005,203.53182519999973,None,None,203.53182519999973,None,204.33931907999977,None,,,,22009,0001,2022_Apr_26_1357,localizer,2021.1.3,59.96976324530216,
block,objects,objects085.bmp,,,,,0,64,64,64,,,,,,,,,,,,,,,,,,,,,,,,,,,,,,,,,,,,,,,,,,None,,204.33931907999977,None,204.33931907999977,None,2022-04-26-14:00:19.220061,204.352971100001,204.65439020000122,204.352971100001,None,None,204.352971100001,None,205.15555828000106,None,,,,22009,0001,2022_Apr_26_1357,localizer,2021.1.3,59.96976324530216,
block,objects,objects073.bmp,,,,,0,65,65,65,,,,,,,,,,,,,,,,,,,,,,,,,,,,,,,,,,,,,,,,,,None,,205.15555828000106,None,205.15555828000106,None,2022-04-26-14:00:20.033316,205.16310090000115,205.47130649999963,205.16310090000115,None,None,205.16310090000115,None,205.97149268000067,None,,,,22009,0001,2022_Apr_26_1357,localizer,2021.1.3,59.96976324530216,
block,objects,objects036.bmp,,,,,0,66,66,66,,,,,,,,,,,,,,,,,,,,,,,,,,,,,,,,,,,,,,,,,,None,,205.97149268000067,None,205.97149268000067,None,2022-04-26-14:00:20.850258,205.9780592999996,206.28814270000112,205.9780592999996,None,None,205.9780592999996,None,206.7872536800005,None,,,,22009,0001,2022_Apr_26_1357,localizer,2021.1.3,59.96976324530216,
block,objects,objects014.bmp,,,,,0,67,67,67,,,,,,,,,,,,,,,,,,,,,,,,,,,,,,,,,,,,,,,,,,None,,206.7872536800005,None,206.7872536800005,None,2022-04-26-14:00:21.663880,206.79547830000047,207.10381450000023,206.79547830000047,None,None,206.79547830000047,None,207.60450138000124,None,,,,22009,0001,2022_Apr_26_1357,localizer,2021.1.3,59.96976324530216,
block,objects,objects074.bmp,,,,,0,68,68,68,,,,,,,,,,,,,,,,,,,,,,,,,,,,,,,,,,,,,,,,,,None,,207.60450138000124,None,207.60450138000124,None,2022-04-26-14:00:22.482281,207.60543540000072,207.90423980000014,207.60543540000072,None,None,207.60543540000072,None,208.4202347800001,None,,,,22009,0001,2022_Apr_26_1357,localizer,2021.1.3,59.96976324530216,
block,objects,objects045.bmp,,,,,0,69,69,69,,,,,,,,,,,,,,,,,,,,,,,,,,,,,,,,,,,,,,,,,,None,,208.4202347800001,None,208.4202347800001,None,2022-04-26-14:00:23.298414,208.42211850000058,208.73706560000028,208.42211850000058,None,y,208.42211850000058,None,209.22122407999996,None,0.17195629999878292,,,22009,0001,2022_Apr_26_1357,localizer,2021.1.3,59.96976324530216,
block,objects,objects006.bmp,,,,,0,70,70,70,,,,,,,,,,,,,,,,,,,,,,,,,,,,,,,,,,,,,,,,,,None,,209.22122407999996,None,209.22122407999996,None,2022-04-26-14:00:24.099980,209.2265907000001,209.53774169999997,209.2265907000001,209.2265907000001,y,209.2265907000001,209.2265907000001,210.03767137999967,None,0.6078993000010087,,,22009,0001,2022_Apr_26_1357,localizer,2021.1.3,59.96976324530216,
block,objects,objects067.bmp,,,,,0,71,71,71,,,,,,,,,,,,,,,,,,,,,,,,,,,,,,,,,,,,,,,,,,None,,210.03767137999967,None,210.03767137999967,None,2022-04-26-14:00:24.915459,210.04570960000092,210.3541576000007,210.04570960000092,None,None,210.04570960000092,None,210.85467038000024,None,,,,22009,0001,2022_Apr_26_1357,localizer,2021.1.3,59.96976324530216,
block,objects,objects038.bmp,,,,,0,72,72,72,,,,,,,,,,,,,,,,,,,,,,,,,,,,,,,,,,,,,,,,,,None,,210.85467038000024,None,210.85467038000024,None,2022-04-26-14:00:25.732540,210.8580316000007,211.1712688000007,210.8580316000007,None,None,210.8580316000007,None,211.67248308000126,None,,,,22009,0001,2022_Apr_26_1357,localizer,2021.1.3,59.96976324530216,
block,objects,objects053.bmp,,,,,0,73,73,73,,,,,,,,,,,,,,,,,,,,,,,,,,,,,,,,,,,,,,,,,,None,,211.67248308000126,None,211.67248308000126,None,2022-04-26-14:00:26.551252,211.68486649999977,211.98736389999976,211.68486649999977,None,None,211.68486649999977,None,212.48779018000096,None,,,,22009,0001,2022_Apr_26_1357,localizer,2021.1.3,59.96976324530216,
block,objects,objects031.bmp,,,,,0,74,74,74,,,,,,,,,,,,,,,,,,,,,,,,,,,,,,,,,,,,,,,,,,None,,212.48779018000096,None,212.48779018000096,None,2022-04-26-14:00:27.365547,212.49139529999957,212.78744720000032,212.49139529999957,None,None,212.49139529999957,None,213.30435638000017,None,,,,22009,0001,2022_Apr_26_1357,localizer,2021.1.3,59.96976324530216,
block_end,objects,objects030.bmp,,,,,0,75,75,75,,,,,,,,,,,,,,,,,,,,,,,,,,,,,,,,,,,,,,,,,,None,,213.30435638000017,None,213.30435638000017,None,2022-04-26-14:00:28.182150,213.31323069999962,213.62092029999985,213.31323069999962,None,None,213.31323069999962,None,214.1213498800007,None,,,,22009,0001,2022_Apr_26_1357,localizer,2021.1.3,59.96976324530216,
null_block,null_block,null_block.bmp,,,,,0,76,76,76,,,,,,,,,,,,,,,,,,,,,,,,,,,,,,,,,,,,,,,,,,t,1.7475303999999596,214.12087799999972,None,214.12087799999972,None,2022-04-26-14:00:30.771669,215.90458846,None,215.90458846,None,None,215.90458846,None,215.90448730000026,None,,,,22009,0001,2022_Apr_26_1357,localizer,2021.1.3,59.96976324530216,
block_start,faces,faces028.bmp,,,,,0,77,77,77,,,,,,,,,,,,,,,,,,,,,,,,,,,,,,,,,,,,,,,,,,t,1.9638680000007298,227.9045438000012,None,227.9045438000012,None,2022-04-26-14:00:44.768607,229.90183629999956,230.20468710000023,229.90183629999956,None,None,229.90183629999956,None,230.7047202800004,None,,,,22009,0001,2022_Apr_26_1357,localizer,2021.1.3,59.96976324530216,
block,faces,faces059.bmp,,,,,0,78,78,78,,,,,,,,,,,,,,,,,,,,,,,,,,,,,,,,,,,,,,,,,,None,,230.7047202800004,None,230.7047202800004,None,2022-04-26-14:00:45.582555,230.712980100001,231.02125239999987,230.712980100001,None,None,230.712980100001,None,231.52141248000044,None,,,,22009,0001,2022_Apr_26_1357,localizer,2021.1.3,59.96976324530216,
block,faces,faces063.bmp,,,,,0,79,79,79,,,,,,,,,,,,,,,,,,,,,,,,,,,,,,,,,,,,,,,,,,None,,231.52141248000044,None,231.52141248000044,None,2022-04-26-14:00:46.399250,231.53222970000024,231.83794549999948,231.53222970000024,None,y,231.53222970000024,None,232.3380129800007,None,0.5929005000016332,,,22009,0001,2022_Apr_26_1357,localizer,2021.1.3,59.96976324530216,
block,faces,faces043.bmp,,,,,0,80,80,80,,,,,,,,,,,,,,,,,,,,,,,,,,,,,,,,,,,,,,,,,,None,,232.3380129800007,None,232.3380129800007,None,2022-04-26-14:00:47.215888,232.33910660000038,232.63826090000111,232.33910660000038,None,None,232.33910660000038,None,233.14024338000127,None,,,,22009,0001,2022_Apr_26_1357,localizer,2021.1.3,59.96976324530216,
block,faces,faces003.bmp,,,,,0,81,81,81,,,,,,,,,,,,,,,,,,,,,,,,,,,,,,,,,,,,,,,,,,None,,233.14024338000127,None,233.14024338000127,None,2022-04-26-14:00:48.024065,233.14665530000093,233.45458320000034,233.14665530000093,233.14665530000093,y,233.14665530000093,233.14665530000093,233.9548092799996,None,0.05403959999966901,,,22009,0001,2022_Apr_26_1357,localizer,2021.1.3,59.96976324530216,
block,faces,faces067.bmp,,,,,0,82,82,82,,,,,,,,,,,,,,,,,,,,,,,,,,,,,,,,,,,,,,,,,,None,,233.9548092799996,None,233.9548092799996,None,2022-04-26-14:00:48.832650,233.9648314999995,234.2720143000006,233.9648314999995,None,y,233.9648314999995,None,234.77135608000026,None,0.4264706000012666,,,22009,0001,2022_Apr_26_1357,localizer,2021.1.3,59.96976324530216,
block,faces,faces082.bmp,,,,,0,83,83,83,,,,,,,,,,,,,,,,,,,,,,,,,,,,,,,,,,,,,,,,,,None,,234.77135608000026,None,234.77135608000026,None,2022-04-26-14:00:49.649204,234.7809474000005,235.08807030000025,234.7809474000005,None,y,234.7809474000005,None,235.58818478000103,None,0.49128790000031586,,,22009,0001,2022_Apr_26_1357,localizer,2021.1.3,59.96976324530216,
block,faces,faces025.bmp,,,,,0,84,84,84,,,,,,,,,,,,,,,,,,,,,,,,,,,,,,,,,,,,,,,,,,None,,235.58818478000103,None,235.58818478000103,None,2022-04-26-14:00:50.466285,235.5890373000002,235.88843410000118,235.5890373000002,None,y,235.5890373000002,None,236.40467338000053,None,0.43924629999855824,,,22009,0001,2022_Apr_26_1357,localizer,2021.1.3,59.96976324530216,
block,faces,faces071.bmp,,,,,0,85,85,85,,,,,,,,,,,,,,,,,,,,,,,,,,,,,,,,,,,,,,,,,,None,,236.40467338000053,None,236.40467338000053,None,2022-04-26-14:00:51.282530,236.41312169999946,236.72145749999981,236.41312169999946,None,y,236.41312169999946,None,237.22198037999988,None,0.564246900001308,,,22009,0001,2022_Apr_26_1357,localizer,2021.1.3,59.96976324530216,
block,faces,faces030.bmp,,,,,0,86,86,86,,,,,,,,,,,,,,,,,,,,,,,,,,,,,,,,,,,,,,,,,,None,,237.22198037999988,None,237.22198037999988,None,2022-04-26-14:00:52.101878,237.23488879999968,237.53786320000108,237.23488879999968,None,None,237.23488879999968,None,238.03825298000083,None,,,,22009,0001,2022_Apr_26_1357,localizer,2021.1.3,59.96976324530216,
block,faces,faces016.bmp,,,,,0,87,87,87,,,,,,,,,,,,,,,,,,,,,,,,,,,,,,,,,,,,,,,,,,None,,238.03825298000083,None,238.03825298000083,None,2022-04-26-14:00:52.916497,238.03903069999978,238.33814639999946,238.03903069999978,None,None,238.03903069999978,None,238.83813018,None,,,,22009,0001,2022_Apr_26_1357,localizer,2021.1.3,59.96976324530216,
block,faces,faces062.bmp,,,,,0,88,88,88,,,,,,,,,,,,,,,,,,,,,,,,,,,,,,,,,,,,,,,,,,None,,238.83813018,None,238.83813018,None,2022-04-26-14:00:53.717988,238.84803570000076,239.15459829999963,238.84803570000076,238.84803570000076,None,238.84803570000076,238.84803570000076,239.65487128000132,None,,,,22009,0001,2022_Apr_26_1357,localizer,2021.1.3,59.96976324530216,
block,faces,faces040.bmp,,,,,0,89,89,89,,,,,,,,,,,,,,,,,,,,,,,,,,,,,,,,,,,,,,,,,,None,,239.65487128000132,None,239.65487128000132,None,2022-04-26-14:00:54.532731,239.6644668000008,239.9712627000008,239.6644668000008,None,None,239.6644668000008,None,240.46105178000107,None,,,,22009,0001,2022_Apr_26_1357,localizer,2021.1.3,59.96976324530216,
block,faces,faces032.bmp,,,,,0,90,90,90,,,,,,,,,,,,,,,,,,,,,,,,,,,,,,,,,,,,,,,,,,None,,240.46105178000107,None,240.46105178000107,None,2022-04-26-14:00:55.339353,240.46453219999967,240.77140529999997,240.46453219999967,None,None,240.46453219999967,None,241.27151718000096,None,,,,22009,0001,2022_Apr_26_1357,localizer,2021.1.3,59.96976324530216,
block_end,faces,faces085.bmp,,,,,0,91,91,91,,,,,,,,,,,,,,,,,,,,,,,,,,,,,,,,,,,,,,,,,,None,,241.27151718000096,None,241.27151718000096,None,2022-04-26-14:00:56.149379,241.2808373000007,241.58808900000076,241.2808373000007,None,y,241.2808373000007,None,242.08816128000035,None,0.711463100000401,,,22009,0001,2022_Apr_26_1357,localizer,2021.1.3,59.96976324530216,
block_start,scenes,scenes036.bmp,,,,,0,92,92,92,,,,,,,,,,,,,,,,,,,,,,,,,,,,,,,,,,,,,,,,,,t,1.7803190000013274,242.08806899999945,None,242.08806899999945,None,2022-04-26-14:00:58.765205,243.8974589999998,244.20478250000087,243.8974589999998,None,None,243.8974589999998,None,244.70496248000018,None,,,,22009,0001,2022_Apr_26_1357,localizer,2021.1.3,59.96976324530216,
block,scenes,scenes080.bmp,,,,,0,93,93,93,,,,,,,,,,,,,,,,,,,,,,,,,,,,,,,,,,,,,,,,,,None,,244.70496248000018,None,244.70496248000018,None,2022-04-26-14:00:59.583141,244.7058377000012,245.0050740000006,244.7058377000012,None,y,244.7058377000012,None,245.52087208000012,None,0.7522186999995029,,,22009,0001,2022_Apr_26_1357,localizer,2021.1.3,59.96976324530216,
block,scenes,scenes057.bmp,,,,,0,94,94,94,,,,,,,,,,,,,,,,,,,,,,,,,,,,,,,,,,,,,,,,,,None,,245.52087208000012,None,245.52087208000012,None,2022-04-26-14:01:00.398069,245.52208640000026,245.82120990000112,245.52208640000026,None,y,245.52208640000026,None,246.32275778000076,None,0.6530536999998731,,,22009,0001,2022_Apr_26_1357,localizer,2021.1.3,59.96976324530216,
block,scenes,scenes040.bmp,,,,,0,95,95,95,,,,,,,,,,,,,,,,,,,,,,,,,,,,,,,,,,,,,,,,,,None,,246.32275778000076,None,246.32275778000076,None,2022-04-26-14:01:01.206599,246.33920130000115,246.65455920000022,246.33920130000115,246.33920130000115,None,246.33920130000115,246.33920130000115,247.13855497999975,None,,,,22009,0001,2022_Apr_26_1357,localizer,2021.1.3,59.96976324530216,
block,scenes,scenes029.bmp,,,,,0,96,96,96,,,,,,,,,,,,,,,,,,,,,,,,,,,,,,,,,,,,,,,,,,None,,247.13855497999975,None,247.13855497999975,None,2022-04-26-14:01:02.017430,247.14953609999975,247.45430380000107,247.14953609999975,None,y,247.14953609999975,None,247.9550090800003,None,0.6545534000015323,,,22009,0001,2022_Apr_26_1357,localizer,2021.1.3,59.96976324530216,
block,scenes,scenes088.bmp,,,,,0,97,97,97,,,,,,,,,,,,,,,,,,,,,,,,,,,,,,,,,,,,,,,,,,None,,247.9550090800003,None,247.9550090800003,None,2022-04-26-14:01:02.831781,247.9631131999995,248.27167100000042,247.9631131999995,None,None,247.9631131999995,None,248.77167637999992,None,,,,22009,0001,2022_Apr_26_1357,localizer,2021.1.3,59.96976324530216,
block,scenes,scenes088.bmp,,,,,0,98,98,98,,,,,,,,,,,,,,,,,,,,,,,,,,,,,,,,,,,,,,,,,,None,,248.77167637999992,None,248.77167637999992,None,2022-04-26-14:01:03.649701,248.77239779999945,249.07151630000044,248.77239779999945,None,y,248.77239779999945,None,249.5718318800009,None,0.608881800000745,,,22009,0001,2022_Apr_26_1357,localizer,2021.1.3,59.96976324530216,
block,scenes,scenes058.bmp,,,,,0,99,99,99,,,,,,,,,,,,,,,,,,,,,,,,,,,,,,,,,,,,,,,,,,None,,249.5718318800009,None,249.5718318800009,None,2022-04-26-14:01:04.451734,249.57982450000054,249.88781630000085,249.57982450000054,249.57982450000054,None,249.57982450000054,249.57982450000054,250.38848708000114,None,,,,22009,0001,2022_Apr_26_1357,localizer,2021.1.3,59.96976324530216,
block,scenes,scenes073.bmp,,,,,0,100,100,100,,,,,,,,,,,,,,,,,,,,,,,,,,,,,,,,,,,,,,,,,,None,,250.38848708000114,None,250.38848708000114,None,2022-04-26-14:01:05.266433,250.40036990000044,250.7044330000008,250.40036990000044,None,None,250.40036990000044,None,251.20496908000132,None,,,,22009,0001,2022_Apr_26_1357,localizer,2021.1.3,59.96976324530216,
block,scenes,scenes072.bmp,,,,,0,101,101,101,,,,,,,,,,,,,,,,,,,,,,,,,,,,,,,,,,,,,,,,,,None,,251.20496908000132,None,251.20496908000132,None,2022-04-26-14:01:06.081776,251.21429790000002,251.52153440000075,251.21429790000002,None,None,251.21429790000002,None,252.01165537999987,None,,,,22009,0001,2022_Apr_26_1357,localizer,2021.1.3,59.96976324530216,
block,scenes,scenes033.bmp,,,,,0,102,102,102,,,,,,,,,,,,,,,,,,,,,,,,,,,,,,,,,,,,,,,,,,None,,252.01165537999987,None,252.01165537999987,None,2022-04-26-14:01:06.894512,252.02923139999984,252.33819720000065,252.02923139999984,None,None,252.02923139999984,None,252.82149698000103,None,,,,22009,0001,2022_Apr_26_1357,localizer,2021.1.3,59.96976324530216,
block,scenes,scenes067.bmp,,,,,0,103,103,103,,,,,,,,,,,,,,,,,,,,,,,,,,,,,,,,,,,,,,,,,,None,,252.82149698000103,None,252.82149698000103,None,2022-04-26-14:01:07.699385,252.8317029000009,253.1379947000005,252.8317029000009,None,None,252.8317029000009,None,253.63810417999957,None,,,,22009,0001,2022_Apr_26_1357,localizer,2021.1.3,59.96976324530216,
block,scenes,scenes082.bmp,,,,,0,104,104,104,,,,,,,,,,,,,,,,,,,,,,,,,,,,,,,,,,,,,,,,,,None,,253.63810417999957,None,253.63810417999957,None,2022-04-26-14:01:08.515312,253.6464476000001,253.95481780000046,253.6464476000001,None,None,253.6464476000001,None,254.45536768000056,None,,,,22009,0001,2022_Apr_26_1357,localizer,2021.1.3,59.96976324530216,
block,scenes,scenes077.bmp,,,,,0,105,105,105,,,,,,,,,,,,,,,,,,,,,,,,,,,,,,,,,,,,,,,,,,None,,254.45536768000056,None,254.45536768000056,None,2022-04-26-14:01:09.334358,254.46476930000063,254.77137810000022,254.46476930000063,None,None,254.46476930000063,None,255.27185848000045,None,,,,22009,0001,2022_Apr_26_1357,localizer,2021.1.3,59.96976324530216,
block_end,scenes,scenes035.bmp,,,,,0,106,106,106,,,,,,,,,,,,,,,,,,,,,,,,,,,,,,,,,,,,,,,,,,None,,255.27185848000045,None,255.27185848000045,None,2022-04-26-14:01:10.150747,255.28375919999962,255.58817740000086,255.28375919999962,None,None,255.28375919999962,None,256.0884118800004,None,,,,22009,0001,2022_Apr_26_1357,localizer,2021.1.3,59.96976324530216,
block_start,scrambled,scrambled038.bmp,,,,,0,107,107,107,,,,,,,,,,,,,,,,,,,,,,,,,,,,,,,,,,,,,,,,,,t,1.780097000000751,256.0882746999996,None,256.0882746999996,None,2022-04-26-14:01:12.765480,257.89708749999954,258.20500900000116,257.89708749999954,None,None,257.89708749999954,None,258.70493288000034,None,,,,22009,0001,2022_Apr_26_1357,localizer,2021.1.3,59.96976324530216,
block,scrambled,scrambled070.bmp,,,,,0,108,108,108,,,,,,,,,,,,,,,,,,,,,,,,,,,,,,,,,,,,,,,,,,None,,258.70493288000034,None,258.70493288000034,None,2022-04-26-14:01:13.582947,258.7148648000002,259.02138469999954,258.7148648000002,None,None,258.7148648000002,None,259.5214490800008,None,,,,22009,0001,2022_Apr_26_1357,localizer,2021.1.3,59.96976324530216,
block,scrambled,scrambled048.bmp,,,,,0,109,109,109,,,,,,,,,,,,,,,,,,,,,,,,,,,,,,,,,,,,,,,,,,None,,259.5214490800008,None,259.5214490800008,None,2022-04-26-14:01:14.399912,259.5252481999996,259.83832059999986,259.5252481999996,None,None,259.5252481999996,None,260.3385931800003,None,,,,22009,0001,2022_Apr_26_1357,localizer,2021.1.3,59.96976324530216,
block,scrambled,scrambled047.bmp,,,,,0,110,110,110,,,,,,,,,,,,,,,,,,,,,,,,,,,,,,,,,,,,,,,,,,None,,260.3385931800003,None,260.3385931800003,None,2022-04-26-14:01:15.216711,260.3486281000005,260.65498690000095,260.3486281000005,None,None,260.3486281000005,None,261.1548465800006,None,,,,22009,0001,2022_Apr_26_1357,localizer,2021.1.3,59.96976324530216,
block,scrambled,scrambled051.bmp,,,,,0,111,111,111,,,,,,,,,,,,,,,,,,,,,,,,,,,,,,,,,,,,,,,,,,None,,261.1548465800006,None,261.1548465800006,None,2022-04-26-14:01:16.032701,261.1637283,261.4787417999996,261.1637283,None,None,261.1637283,None,261.9713577800012,None,,,,22009,0001,2022_Apr_26_1357,localizer,2021.1.3,59.96976324530216,
block,scrambled,scrambled026.bmp,,,,,0,112,112,112,,,,,,,,,,,,,,,,,,,,,,,,,,,,,,,,,,,,,,,,,,None,,261.9713577800012,None,261.9713577800012,None,2022-04-26-14:01:16.848281,261.9726031000009,262.27166410000063,261.9726031000009,None,None,261.9726031000009,None,262.7719989800007,None,,,,22009,0001,2022_Apr_26_1357,localizer,2021.1.3,59.96976324530216,
block,scrambled,scrambled085.bmp,,,,,0,113,113,113,,,,,,,,,,,,,,,,,,,,,,,,,,,,,,,,,,,,,,,,,,None,,262.7719989800007,None,262.7719989800007,None,2022-04-26-14:01:17.652145,262.7844170999997,263.0881927999999,262.7844170999997,262.7844170999997,None,262.7844170999997,262.7844170999997,263.58835488000113,None,,,,22009,0001,2022_Apr_26_1357,localizer,2021.1.3,59.96976324530216,
block,scrambled,scrambled065.bmp,,,,,0,114,114,114,,,,,,,,,,,,,,,,,,,,,,,,,,,,,,,,,,,,,,,,,,None,,263.58835488000113,None,263.58835488000113,None,2022-04-26-14:01:18.466274,263.59737230000064,263.90539250000074,263.59737230000064,None,None,263.59737230000064,None,264.40579978000096,None,,,,22009,0001,2022_Apr_26_1357,localizer,2021.1.3,59.96976324530216,
block,scrambled,scrambled082.bmp,,,,,0,115,115,115,,,,,,,,,,,,,,,,,,,,,,,,,,,,,,,,,,,,,,,,,,None,,264.40579978000096,None,264.40579978000096,None,2022-04-26-14:01:19.284688,264.41746410000087,264.72162650000064,264.41746410000087,None,None,264.41746410000087,None,265.2217734799997,None,,,,22009,0001,2022_Apr_26_1357,localizer,2021.1.3,59.96976324530216,
block,scrambled,scrambled018.bmp,,,,,0,116,116,116,,,,,,,,,,,,,,,,,,,,,,,,,,,,,,,,,,,,,,,,,,None,,265.2217734799997,None,265.2217734799997,None,2022-04-26-14:01:20.099695,265.2308905000009,265.5383001000009,265.2308905000009,None,None,265.2308905000009,None,266.0381568800003,None,,,,22009,0001,2022_Apr_26_1357,localizer,2021.1.3,59.96976324530216,
block,scrambled,scrambled002.bmp,,,,,0,117,117,117,,,,,,,,,,,,,,,,,,,,,,,,,,,,,,,,,,,,,,,,,,None,,266.0381568800003,None,266.0381568800003,None,2022-04-26-14:01:20.916268,266.04373529999975,266.35450800000035,266.04373529999975,None,None,266.04373529999975,None,266.8563459800007,None,,,,22009,0001,2022_Apr_26_1357,localizer,2021.1.3,59.96976324530216,
block,scrambled,scrambled055.bmp,,,,,0,118,118,118,,,,,,,,,,,,,,,,,,,,,,,,,,,,,,,,,,,,,,,,,,None,,266.8563459800007,None,266.8563459800007,None,2022-04-26-14:01:21.737153,266.87011259999963,267.1718146000003,266.87011259999963,None,None,266.87011259999963,None,267.67170817999977,None,,,,22009,0001,2022_Apr_26_1357,localizer,2021.1.3,59.96976324530216,
block,scrambled,scrambled057.bmp,,,,,0,119,119,119,,,,,,,,,,,,,,,,,,,,,,,,,,,,,,,,,,,,,,,,,,None,,267.67170817999977,None,267.67170817999977,None,2022-04-26-14:01:22.549639,267.68075859999954,267.9881416999997,267.68075859999954,None,None,267.68075859999954,None,268.4897334800007,None,,,,22009,0001,2022_Apr_26_1357,localizer,2021.1.3,59.96976324530216,
block,scrambled,scrambled062.bmp,,,,,0,120,120,120,,,,,,,,,,,,,,,,,,,,,,,,,,,,,,,,,,,,,,,,,,None,,268.4897334800007,None,268.4897334800007,None,2022-04-26-14:01:23.368825,268.5028679999996,268.80550609999955,268.5028679999996,None,None,268.5028679999996,None,269.3054115800005,None,,,,22009,0001,2022_Apr_26_1357,localizer,2021.1.3,59.96976324530216,
block_end,scrambled,scrambled044.bmp,,,,,0,121,121,121,,,,,,,,,,,,,,,,,,,,,,,,,,,,,,,,,,,,,,,,,,None,,269.3054115800005,None,269.3054115800005,None,2022-04-26-14:01:24.184455,269.3059615000002,269.621548000001,269.3059615000002,None,None,269.3059615000002,None,270.10535228000117,None,,,,22009,0001,2022_Apr_26_1357,localizer,2021.1.3,59.96976324530216,
block_start,scrambled,scrambled020.bmp,,,,,0,122,122,122,,,,,,,,,,,,,,,,,,,,,,,,,,,,,,,,,,,,,,,,,,t,1.763485600000422,270.1049079000004,None,270.1049079000004,None,2022-04-26-14:01:26.765168,271.8962339999998,272.2049406999995,271.8962339999998,None,None,271.8962339999998,None,272.70507118000023,None,,,,22009,0001,2022_Apr_26_1357,localizer,2021.1.3,59.96976324530216,
block,scrambled,scrambled057.bmp,,,,,0,123,123,123,,,,,,,,,,,,,,,,,,,,,,,,,,,,,,,,,,,,,,,,,,None,,272.70507118000023,None,272.70507118000023,None,2022-04-26-14:01:27.583010,272.70589090000067,273.00781110000025,272.70589090000067,None,None,272.70589090000067,None,273.52157718000126,None,,,,22009,0001,2022_Apr_26_1357,localizer,2021.1.3,59.96976324530216,
block,scrambled,scrambled017.bmp,,,,,0,124,124,124,,,,,,,,,,,,,,,,,,,,,,,,,,,,,,,,,,,,,,,,,,None,,273.52157718000126,None,273.52157718000126,None,2022-04-26-14:01:28.399564,273.52671530000043,273.8380971000006,273.52671530000043,None,None,273.52671530000043,None,274.33884598000077,None,,,,22009,0001,2022_Apr_26_1357,localizer,2021.1.3,59.96976324530216,
block,scrambled,scrambled054.bmp,,,,,0,125,125,125,,,,,,,,,,,,,,,,,,,,,,,,,,,,,,,,,,,,,,,,,,None,,274.33884598000077,None,274.33884598000077,None,2022-04-26-14:01:29.216969,274.3496876999998,274.65506690000075,274.3496876999998,None,None,274.3496876999998,None,275.1548521799996,None,,,,22009,0001,2022_Apr_26_1357,localizer,2021.1.3,59.96976324530216,
block,scrambled,scrambled074.bmp,,,,,0,126,126,126,,,,,,,,,,,,,,,,,,,,,,,,,,,,,,,,,,,,,,,,,,None,,275.1548521799996,None,275.1548521799996,None,2022-04-26-14:01:30.031955,275.1622083000002,275.4716927999998,275.1622083000002,None,None,275.1622083000002,None,275.97139608,None,,,,22009,0001,2022_Apr_26_1357,localizer,2021.1.3,59.96976324530216,
block,scrambled,scrambled042.bmp,,,,,0,127,127,127,,,,,,,,,,,,,,,,,,,,,,,,,,,,,,,,,,,,,,,,,,None,,275.97139608,None,275.97139608,None,2022-04-26-14:01:30.848351,275.97937439999987,276.27562620000026,275.97937439999987,None,None,275.97937439999987,None,276.77720367999973,None,,,,22009,0001,2022_Apr_26_1357,localizer,2021.1.3,59.96976324530216,
block,scrambled,scrambled076.bmp,,,,,0,128,128,128,,,,,,,,,,,,,,,,,,,,,,,,,,,,,,,,,,,,,,,,,,None,,276.77720367999973,None,276.77720367999973,None,2022-04-26-14:01:31.658208,276.79124989999946,277.1055266000003,276.79124989999946,None,None,276.79124989999946,None,277.5946637800007,None,,,,22009,0001,2022_Apr_26_1357,localizer,2021.1.3,59.96976324530216,
block,scrambled,scrambled036.bmp,,,,,0,129,129,129,,,,,,,,,,,,,,,,,,,,,,,,,,,,,,,,,,,,,,,,,,None,,277.5946637800007,None,277.5946637800007,None,2022-04-26-14:01:32.479572,277.60982220000005,277.9218516000001,277.60982220000005,None,None,277.60982220000005,None,278.4049979800002,None,,,,22009,0001,2022_Apr_26_1357,localizer,2021.1.3,59.96976324530216,
block,scrambled,scrambled064.bmp,,,,,0,130,130,130,,,,,,,,,,,,,,,,,,,,,,,,,,,,,,,,,,,,,,,,,,None,,278.4049979800002,None,278.4049979800002,None,2022-04-26-14:01:33.282954,278.4137807999996,278.72153660000004,278.4137807999996,None,None,278.4137807999996,None,279.2215811799997,None,,,,22009,0001,2022_Apr_26_1357,localizer,2021.1.3,59.96976324530216,
block,scrambled,scrambled041.bmp,,,,,0,131,131,131,,,,,,,,,,,,,,,,,,,,,,,,,,,,,,,,,,,,,,,,,,None,,279.2215811799997,None,279.2215811799997,None,2022-04-26-14:01:34.099539,279.2293112999996,279.53827230000024,279.2293112999996,None,None,279.2293112999996,None,280.03811547999976,None,,,,22009,0001,2022_Apr_26_1357,localizer,2021.1.3,59.96976324530216,
block,scrambled,scrambled060.bmp,,,,,0,132,132,132,,,,,,,,,,,,,,,,,,,,,,,,,,,,,,,,,,,,,,,,,,None,,280.03811547999976,None,280.03811547999976,None,2022-04-26-14:01:34.916154,280.04668970000057,280.35459600000104,280.04668970000057,None,y,280.04668970000057,None,280.85493298000074,None,0.7276726000000053,,,22009,0001,2022_Apr_26_1357,localizer,2021.1.3,59.96976324530216,
block,scrambled,scrambled014.bmp,,,,,0,133,133,133,,,,,,,,,,,,,,,,,,,,,,,,,,,,,,,,,,,,,,,,,,None,,280.85493298000074,None,280.85493298000074,None,2022-04-26-14:01:35.732894,280.86349429999973,281.1715062000003,280.86349429999973,None,None,280.86349429999973,None,281.6715704800008,None,,,,22009,0001,2022_Apr_26_1357,localizer,2021.1.3,59.96976324530216,
block,scrambled,scrambled071.bmp,,,,,0,134,134,134,,,,,,,,,,,,,,,,,,,,,,,,,,,,,,,,,,,,,,,,,,None,,281.6715704800008,None,281.6715704800008,None,2022-04-26-14:01:36.549534,281.6802731000007,281.98825209999995,281.6802731000007,None,None,281.6802731000007,None,282.48844508,None,,,,22009,0001,2022_Apr_26_1357,localizer,2021.1.3,59.96976324530216,
block,scrambled,scrambled046.bmp,,,,,0,135,135,135,,,,,,,,,,,,,,,,,,,,,,,,,,,,,,,,,,,,,,,,,,None,,282.48844508,None,282.48844508,None,2022-04-26-14:01:37.366408,282.4978444999997,282.80505319999975,282.4978444999997,None,None,282.4978444999997,None,283.3050535800012,None,,,,22009,0001,2022_Apr_26_1357,localizer,2021.1.3,59.96976324530216,
block_end,scrambled,scrambled065.bmp,,,,,0,136,136,136,,,,,,,,,,,,,,,,,,,,,,,,,,,,,,,,,,,,,,,,,,None,,283.3050535800012,None,283.3050535800012,None,2022-04-26-14:01:38.183022,283.30606799999987,283.6214001999997,283.30606799999987,None,None,283.30606799999987,None,284.1056706800009,None,,,,22009,0001,2022_Apr_26_1357,localizer,2021.1.3,59.96976324530216,
block_start,scenes,scenes090.bmp,,,,,0,137,137,137,,,,,,,,,,,,,,,,,,,,,,,,,,,,,,,,,,,,,,,,,,t,1.7627880000000005,284.10561039999993,None,284.10561039999993,None,2022-04-26-14:01:40.765431,285.8977353999999,286.2046807000006,285.8977353999999,None,None,285.8977353999999,None,286.7050813799997,None,,,,22009,0001,2022_Apr_26_1357,localizer,2021.1.3,59.96976324530216,
block,scenes,scenes082.bmp,,,,,0,138,138,138,,,,,,,,,,,,,,,,,,,,,,,,,,,,,,,,,,,,,,,,,,None,,286.7050813799997,None,286.7050813799997,None,2022-04-26-14:01:41.583017,286.7060495000005,287.0213445999998,286.7060495000005,None,y,286.7060495000005,None,287.5217734800008,None,0.625423999999839,,,22009,0001,2022_Apr_26_1357,localizer,2021.1.3,59.96976324530216,
block,scenes,scenes071.bmp,,,,,0,139,139,139,,,,,,,,,,,,,,,,,,,,,,,,,,,,,,,,,,,,,,,,,,None,,287.5217734800008,None,287.5217734800008,None,2022-04-26-14:01:42.398754,287.5226792000012,287.8220433000006,287.5226792000012,None,None,287.5226792000012,None,288.321680680001,None,,,,22009,0001,2022_Apr_26_1357,localizer,2021.1.3,59.96976324530216,
block,scenes,scenes025.bmp,,,,,0,140,140,140,,,,,,,,,,,,,,,,,,,,,,,,,,,,,,,,,,,,,,,,,,None,,288.321680680001,None,288.321680680001,None,2022-04-26-14:01:43.200660,288.3359085000011,288.6383370000003,288.3359085000011,288.3359085000011,None,288.3359085000011,288.3359085000011,289.1384221799999,None,,,,22009,0001,2022_Apr_26_1357,localizer,2021.1.3,59.96976324530216,
block,scenes,scenes041.bmp,,,,,0,141,141,141,,,,,,,,,,,,,,,,,,,,,,,,,,,,,,,,,,,,,,,,,,None,,289.1384221799999,None,289.1384221799999,None,2022-04-26-14:01:44.015410,289.14677239999946,289.45546599999943,289.14677239999946,None,None,289.14677239999946,None,289.9550850800006,None,,,,22009,0001,2022_Apr_26_1357,localizer,2021.1.3,59.96976324530216,
block,scenes,scenes081.bmp,,,,,0,142,142,142,,,,,,,,,,,,,,,,,,,,,,,,,,,,,,,,,,,,,,,,,,None,,289.9550850800006,None,289.9550850800006,None,2022-04-26-14:01:44.832600,289.9665851000009,290.27148750000015,289.9665851000009,None,None,289.9665851000009,None,290.7716961799997,None,,,,22009,0001,2022_Apr_26_1357,localizer,2021.1.3,59.96976324530216,
block,scenes,scenes052.bmp,,,,,0,143,143,143,,,,,,,,,,,,,,,,,,,,,,,,,,,,,,,,,,,,,,,,,,None,,290.7716961799997,None,290.7716961799997,None,2022-04-26-14:01:45.648510,290.78038109999943,291.08835550000003,290.78038109999943,None,None,290.78038109999943,None,291.58853318,None,,,,22009,0001,2022_Apr_26_1357,localizer,2021.1.3,59.96976324530216,
block,scenes,scenes079.bmp,,,,,0,144,144,144,,,,,,,,,,,,,,,,,,,,,,,,,,,,,,,,,,,,,,,,,,None,,291.58853318,None,291.58853318,None,2022-04-26-14:01:46.466523,291.5977208000004,291.9048696000009,291.5977208000004,None,y,291.5977208000004,None,292.4051120799995,None,0.6406348000000435,,,22009,0001,2022_Apr_26_1357,localizer,2021.1.3,59.96976324530216,
block,scenes,scenes047.bmp,,,,,0,145,145,145,,,,,,,,,,,,,,,,,,,,,,,,,,,,,,,,,,,,,,,,,,None,,292.4051120799995,None,292.4051120799995,None,2022-04-26-14:01:47.283105,292.4139391000008,292.7215969000008,292.4139391000008,None,y,292.4139391000008,None,293.22464777999994,None,0.7094150000011723,,,22009,0001,2022_Apr_26_1357,localizer,2021.1.3,59.96976324530216,
block,scenes,scenes015.bmp,,,,,0,146,146,146,,,,,,,,,,,,,,,,,,,,,,,,,,,,,,,,,,,,,,,,,,None,,293.22464777999994,None,293.22464777999994,None,2022-04-26-14:01:48.105828,293.2370375999999,293.5384505000002,293.2370375999999,None,None,293.2370375999999,None,294.03912158000094,None,,,,22009,0001,2022_Apr_26_1357,localizer,2021.1.3,59.96976324530216,
block,scenes,scenes087.bmp,,,,,0,147,147,147,,,,,,,,,,,,,,,,,,,,,,,,,,,,,,,,,,,,,,,,,,None,,294.03912158000094,None,294.03912158000094,None,2022-04-26-14:01:48.917845,294.04672370000117,294.3562853000003,294.04672370000117,None,None,294.04672370000117,None,294.85582457999953,None,,,,22009,0001,2022_Apr_26_1357,localizer,2021.1.3,59.96976324530216,
block,scenes,scenes003.bmp,,,,,0,148,148,148,,,,,,,,,,,,,,,,,,,,,,,,,,,,,,,,,,,,,,,,,,None,,294.85582457999953,None,294.85582457999953,None,2022-04-26-14:01:49.733810,294.85645880000084,295.15553870000076,294.85645880000084,None,None,294.85645880000084,None,295.67177708000054,None,,,,22009,0001,2022_Apr_26_1357,localizer,2021.1.3,59.96976324530216,
block,scenes,scenes076.bmp,,,,,0,149,149,149,,,,,,,,,,,,,,,,,,,,,,,,,,,,,,,,,,,,,,,,,,None,,295.67177708000054,None,295.67177708000054,None,2022-04-26-14:01:50.548783,295.67909359999976,295.9949697000011,295.67909359999976,None,y,295.67909359999976,None,296.4961072799997,None,0.5514306000004581,,,22009,0001,2022_Apr_26_1357,localizer,2021.1.3,59.96976324530216,
block,scenes,scenes066.bmp,,,,,0,150,150,150,,,,,,,,,,,,,,,,,,,,,,,,,,,,,,,,,,,,,,,,,,None,,296.4961072799997,None,296.4961072799997,None,2022-04-26-14:01:51.379894,296.5097458,296.82176830000026,296.5097458,None,None,296.5097458,None,297.30514328000027,None,,,,22009,0001,2022_Apr_26_1357,localizer,2021.1.3,59.96976324530216,
block_end,scenes,scenes054.bmp,,,,,0,151,151,151,,,,,,,,,,,,,,,,,,,,,,,,,,,,,,,,,,,,,,,,,,None,,297.30514328000027,None,297.30514328000027,None,2022-04-26-14:01:52.182151,297.31407560000116,297.62126200000057,297.31407560000116,None,None,297.31407560000116,None,298.1231219800011,None,,,,22009,0001,2022_Apr_26_1357,localizer,2021.1.3,59.96976324530216,
null_block,null_block,null_block.bmp,,,,,0,152,152,152,,,,,,,,,,,,,,,,,,,,,,,,,,,,,,,,,,,,,,,,,,t,1.7454550999991625,298.1230288000006,None,298.1230288000006,None,2022-04-26-14:01:54.765356,299.8883970799998,None,299.8883970799998,None,None,299.8883970799998,None,299.88849630000004,None,,,,22009,0001,2022_Apr_26_1357,localizer,2021.1.3,59.96976324530216,
block_start,objects,objects059.bmp,,,,,0,153,153,153,,,,,,,,,,,,,,,,,,,,,,,,,,,,,,,,,,,,,,,,,,t,1.97879599999942,311.88879989999987,None,311.88879989999987,None,2022-04-26-14:02:08.767634,313.8892257000007,314.1884456000007,313.8892257000007,None,None,313.8892257000007,None,314.6887292800002,None,,,,22009,0001,2022_Apr_26_1357,localizer,2021.1.3,59.96976324530216,
block,objects,objects038.bmp,,,,,0,154,154,154,,,,,,,,,,,,,,,,,,,,,,,,,,,,,,,,,,,,,,,,,,None,,314.6887292800002,None,314.6887292800002,None,2022-04-26-14:02:09.566776,314.6891821999998,314.9885800000011,314.6891821999998,314.6891821999998,y,314.6891821999998,314.6891821999998,315.4884980799998,None,0.7350745000003371,,,22009,0001,2022_Apr_26_1357,localizer,2021.1.3,59.96976324530216,
block,objects,objects015.bmp,,,,,0,155,155,155,,,,,,,,,,,,,,,,,,,,,,,,,,,,,,,,,,,,,,,,,,None,,315.4884980799998,None,315.4884980799998,None,2022-04-26-14:02:10.366551,315.4898443000002,315.7887705000012,315.4898443000002,315.4898443000002,y,315.4898443000002,315.4898443000002,316.3050433799999,None,0.7483912999996392,,,22009,0001,2022_Apr_26_1357,localizer,2021.1.3,59.96976324530216,
block,objects,objects062.bmp,,,,,0,156,156,156,,,,,,,,,,,,,,,,,,,,,,,,,,,,,,,,,,,,,,,,,,None,,316.3050433799999,None,316.3050433799999,None,2022-04-26-14:02:11.182099,316.3133439000012,316.62229450000086,316.3133439000012,None,None,316.3133439000012,None,317.1220102799998,None,,,,22009,0001,2022_Apr_26_1357,localizer,2021.1.3,59.96976324530216,
block,objects,objects032.bmp,,,,,0,157,157,157,,,,,,,,,,,,,,,,,,,,,,,,,,,,,,,,,,,,,,,,,,None,,317.1220102799998,None,317.1220102799998,None,2022-04-26-14:02:11.999068,317.1292002000009,317.43868269999984,317.1292002000009,None,y,317.1292002000009,None,317.9392223800005,None,0.5331315000003087,,,22009,0001,2022_Apr_26_1357,localizer,2021.1.3,59.96976324530216,
block,objects,objects086.bmp,,,,,0,158,158,158,,,,,,,,,,,,,,,,,,,,,,,,,,,,,,,,,,,,,,,,,,None,,317.9392223800005,None,317.9392223800005,None,2022-04-26-14:02:12.817454,317.949232500001,318.2551330999995,317.949232500001,None,None,317.949232500001,None,318.75532958000076,None,,,,22009,0001,2022_Apr_26_1357,localizer,2021.1.3,59.96976324530216,
block,objects,objects025.bmp,,,,,0,159,159,159,,,,,,,,,,,,,,,,,,,,,,,,,,,,,,,,,,,,,,,,,,None,,318.75532958000076,None,318.75532958000076,None,2022-04-26-14:02:13.632723,318.76254300000073,319.0718807000012,318.76254300000073,None,y,318.76254300000073,None,319.5719221800009,None,0.5168590000012045,,,22009,0001,2022_Apr_26_1357,localizer,2021.1.3,59.96976324530216,
block,objects,objects006.bmp,,,,,0,160,160,160,,,,,,,,,,,,,,,,,,,,,,,,,,,,,,,,,,,,,,,,,,None,,319.5719221800009,None,319.5719221800009,None,2022-04-26-14:02:14.449982,319.5735488999999,319.8889044999996,319.5735488999999,None,y,319.5735488999999,None,320.3887638800006,None,0.6859518999990541,,,22009,0001,2022_Apr_26_1357,localizer,2021.1.3,59.96976324530216,
block,objects,objects078.bmp,,,,,0,161,161,161,,,,,,,,,,,,,,,,,,,,,,,,,,,,,,,,,,,,,,,,,,None,,320.3887638800006,None,320.3887638800006,None,2022-04-26-14:02:15.266147,320.3976395999998,320.70513740000024,320.3976395999998,None,None,320.3976395999998,None,321.20523567999953,None,,,,22009,0001,2022_Apr_26_1357,localizer,2021.1.3,59.96976324530216,
block,objects,objects057.bmp,,,,,0,162,162,162,,,,,,,,,,,,,,,,,,,,,,,,,,,,,,,,,,,,,,,,,,None,,321.20523567999953,None,321.20523567999953,None,2022-04-26-14:02:16.082304,321.21346430000085,321.5226034999996,321.21346430000085,None,None,321.21346430000085,None,322.02201437999975,None,,,,22009,0001,2022_Apr_26_1357,localizer,2021.1.3,59.96976324530216,
block,objects,objects071.bmp,,,,,0,163,163,163,,,,,,,,,,,,,,,,,,,,,,,,,,,,,,,,,,,,,,,,,,None,,322.02201437999975,None,322.02201437999975,None,2022-04-26-14:02:16.900080,322.02282279999963,322.3220352999997,322.02282279999963,None,None,322.02282279999963,None,322.8220912800007,None,,,,22009,0001,2022_Apr_26_1357,localizer,2021.1.3,59.96976324530216,
block,objects,objects082.bmp,,,,,0,164,164,164,,,,,,,,,,,,,,,,,,,,,,,,,,,,,,,,,,,,,,,,,,None,,322.8220912800007,None,322.8220912800007,None,2022-04-26-14:02:17.702151,322.83220170000095,323.13955519999945,322.83220170000095,322.83220170000095,None,322.83220170000095,322.83220170000095,323.6384310800004,None,,,,22009,0001,2022_Apr_26_1357,localizer,2021.1.3,59.96976324530216,
block,objects,objects075.bmp,,,,,0,165,165,165,,,,,,,,,,,,,,,,,,,,,,,,,,,,,,,,,,,,,,,,,,None,,323.6384310800004,None,323.6384310800004,None,2022-04-26-14:02:18.515506,323.64540920000036,323.9553037000005,323.64540920000036,None,None,323.64540920000036,None,324.4552247800002,None,,,,22009,0001,2022_Apr_26_1357,localizer,2021.1.3,59.96976324530216,
block,objects,objects074.bmp,,,,,0,166,166,166,,,,,,,,,,,,,,,,,,,,,,,,,,,,,,,,,,,,,,,,,,None,,324.4552247800002,None,324.4552247800002,None,2022-04-26-14:02:19.332536,324.46022660000017,324.77823549999994,324.46022660000017,None,y,324.46022660000017,None,325.27183977999994,None,0.5045251999999891,,,22009,0001,2022_Apr_26_1357,localizer,2021.1.3,59.96976324530216,
block_end,objects,objects023.bmp,,,,,0,167,167,167,,,,,,,,,,,,,,,,,,,,,,,,,,,,,,,,,,,,,,,,,,None,,325.27183977999994,None,325.27183977999994,None,2022-04-26-14:02:20.148919,325.27952469999946,325.5884513000001,325.27952469999946,None,None,325.27952469999946,None,326.08893498,None,,,,22009,0001,2022_Apr_26_1357,localizer,2021.1.3,59.96976324530216,
block_start,faces,faces073.bmp,,,,,0,168,168,168,,,,,,,,,,,,,,,,,,,,,,,,,,,,,,,,,,,,,,,,,,t,1.7788213999992877,326.0886422000003,None,326.0886422000003,None,2022-04-26-14:02:22.767542,327.8994201000005,328.2057136000003,327.8994201000005,None,y,327.8994201000005,None,328.70546078000007,None,0.7449664999985544,,,22009,0001,2022_Apr_26_1357,localizer,2021.1.3,59.96976324530216,
block,faces,faces007.bmp,,,,,0,169,169,169,,,,,,,,,,,,,,,,,,,,,,,,,,,,,,,,,,,,,,,,,,None,,328.70546078000007,None,328.70546078000007,None,2022-04-26-14:02:23.584284,328.71559210000123,329.02227870000024,328.71559210000123,None,None,328.71559210000123,None,329.52241168,None,,,,22009,0001,2022_Apr_26_1357,localizer,2021.1.3,59.96976324530216,
block,faces,faces071.bmp,,,,,0,170,170,170,,,,,,,,,,,,,,,,,,,,,,,,,,,,,,,,,,,,,,,,,,None,,329.52241168,None,329.52241168,None,2022-04-26-14:02:24.400699,329.52295760000015,329.8225280000006,329.52295760000015,None,y,329.52295760000015,None,330.32240318000004,None,0.5872517999996489,,,22009,0001,2022_Apr_26_1357,localizer,2021.1.3,59.96976324530216,
block,faces,faces046.bmp,,,,,0,171,171,171,,,,,,,,,,,,,,,,,,,,,,,,,,,,,,,,,,,,,,,,,,None,,330.32240318000004,None,330.32240318000004,None,2022-04-26-14:02:25.202481,330.3342673999996,330.63858430000073,330.3342673999996,330.3342673999996,None,330.3342673999996,330.3342673999996,331.1387836800004,None,,,,22009,0001,2022_Apr_26_1357,localizer,2021.1.3,59.96976324530216,
block,faces,faces077.bmp,,,,,0,172,172,172,,,,,,,,,,,,,,,,,,,,,,,,,,,,,,,,,,,,,,,,,,None,,331.1387836800004,None,331.1387836800004,None,2022-04-26-14:02:26.015625,331.1403129999999,331.4555829000001,331.1403129999999,None,None,331.1403129999999,None,331.95539798000027,None,,,,22009,0001,2022_Apr_26_1357,localizer,2021.1.3,59.96976324530216,
block,faces,faces077.bmp,,,,,0,173,173,173,,,,,,,,,,,,,,,,,,,,,,,,,,,,,,,,,,,,,,,,,,None,,331.95539798000027,None,331.95539798000027,None,2022-04-26-14:02:26.833488,331.95644809999976,332.2719326999995,331.95644809999976,None,None,331.95644809999976,None,332.75567627999953,None,,,,22009,0001,2022_Apr_26_1357,localizer,2021.1.3,59.96976324530216,
block,faces,faces009.bmp,,,,,0,174,174,174,,,,,,,,,,,,,,,,,,,,,,,,,,,,,,,,,,,,,,,,,,None,,332.75567627999953,None,332.75567627999953,None,2022-04-26-14:02:27.634974,332.7656416000009,333.07349910000084,332.7656416000009,332.7656416000009,y,332.7656416000009,332.7656416000009,333.5724258800001,None,0.23558550000052492,,,22009,0001,2022_Apr_26_1357,localizer,2021.1.3,59.96976324530216,
block,faces,faces070.bmp,,,,,0,175,175,175,,,,,,,,,,,,,,,,,,,,,,,,,,,,,,,,,,,,,,,,,,None,,333.5724258800001,None,333.5724258800001,None,2022-04-26-14:02:28.450735,333.583483800001,333.8951400999995,333.583483800001,None,None,333.583483800001,None,334.3886482800008,None,,,,22009,0001,2022_Apr_26_1357,localizer,2021.1.3,59.96976324530216,
block,faces,faces024.bmp,,,,,0,176,176,176,,,,,,,,,,,,,,,,,,,,,,,,,,,,,,,,,,,,,,,,,,None,,334.3886482800008,None,334.3886482800008,None,2022-04-26-14:02:29.265751,334.3903964000001,334.7052076,334.3903964000001,None,None,334.3903964000001,None,335.1894141800003,None,,,,22009,0001,2022_Apr_26_1357,localizer,2021.1.3,59.96976324530216,
block,faces,faces058.bmp,,,,,0,177,177,177,,,,,,,,,,,,,,,,,,,,,,,,,,,,,,,,,,,,,,,,,,None,,335.1894141800003,None,335.1894141800003,None,2022-04-26-14:02:30.069495,335.204288500001,335.50520959999994,335.204288500001,335.204288500001,None,335.204288500001,335.204288500001,336.0116079800009,None,,,,22009,0001,2022_Apr_26_1357,localizer,2021.1.3,59.96976324530216,
block,faces,faces049.bmp,,,,,0,178,178,178,,,,,,,,,,,,,,,,,,,,,,,,,,,,,,,,,,,,,,,,,,None,,336.0116079800009,None,336.0116079800009,None,2022-04-26-14:02:30.891732,336.02424229999997,336.33930130000044,336.02424229999997,None,None,336.02424229999997,None,336.8219004800012,None,,,,22009,0001,2022_Apr_26_1357,localizer,2021.1.3,59.96976324530216,
block,faces,faces019.bmp,,,,,0,179,179,179,,,,,,,,,,,,,,,,,,,,,,,,,,,,,,,,,,,,,,,,,,None,,336.8219004800012,None,336.8219004800012,None,2022-04-26-14:02:31.699012,336.8347491000004,337.1386368000003,336.8347491000004,None,None,336.8347491000004,None,337.638846580001,None,,,,22009,0001,2022_Apr_26_1357,localizer,2021.1.3,59.96976324530216,
block,faces,faces002.bmp,,,,,0,180,180,180,,,,,,,,,,,,,,,,,,,,,,,,,,,,,,,,,,,,,,,,,,None,,337.638846580001,None,337.638846580001,None,2022-04-26-14:02:32.515955,337.6477351000012,337.9553102000009,337.6477351000012,None,None,337.6477351000012,None,338.44516828000087,None,,,,22009,0001,2022_Apr_26_1357,localizer,2021.1.3,59.96976324530216,
block,faces,faces075.bmp,,,,,0,181,181,181,,,,,,,,,,,,,,,,,,,,,,,,,,,,,,,,,,,,,,,,,,None,,338.44516828000087,None,338.44516828000087,None,2022-04-26-14:02:33.325194,338.45592790000046,338.75557819999995,338.45592790000046,None,None,338.45592790000046,None,339.25610598000094,None,,,,22009,0001,2022_Apr_26_1357,localizer,2021.1.3,59.96976324530216,
block_end,faces,faces087.bmp,,,,,0,182,182,182,,,,,,,,,,,,,,,,,,,,,,,,,,,,,,,,,,,,,,,,,,None,,339.25610598000094,None,339.25610598000094,None,2022-04-26-14:02:34.134270,339.26773440000034,339.5719337999999,339.26773440000034,None,None,339.26773440000034,None,340.0721834800006,None,,,,22009,0001,2022_Apr_26_1357,localizer,2021.1.3,59.96976324530216,
block_start,faces,faces034.bmp,,,,,0,183,183,183,,,,,,,,,,,,,,,,,,,,,,,,,,,,,,,,,,,,,,,,,,t,1.7953570000008767,340.07217560000026,None,340.07217560000026,None,2022-04-26-14:02:36.765995,341.89733759999945,342.20548170000075,341.89733759999945,None,None,341.89733759999945,None,342.70559547999983,None,,,,22009,0001,2022_Apr_26_1357,localizer,2021.1.3,59.96976324530216,
block,faces,faces066.bmp,,,,,0,184,184,184,,,,,,,,,,,,,,,,,,,,,,,,,,,,,,,,,,,,,,,,,,None,,342.70559547999983,None,342.70559547999983,None,2022-04-26-14:02:37.583711,342.71120429999974,343.0222045999999,342.71120429999974,None,y,342.71120429999974,None,343.5234606800004,None,0.7505573999987973,,,22009,0001,2022_Apr_26_1357,localizer,2021.1.3,59.96976324530216,
block,faces,faces010.bmp,,,,,0,185,185,185,,,,,,,,,,,,,,,,,,,,,,,,,,,,,,,,,,,,,,,,,,None,,343.5234606800004,None,343.5234606800004,None,2022-04-26-14:02:38.401734,343.5344115000007,343.83878430000004,343.5344115000007,None,y,343.5344115000007,None,344.339092780001,None,0.7006576999992831,,,22009,0001,2022_Apr_26_1357,localizer,2021.1.3,59.96976324530216,
block,faces,faces047.bmp,,,,,0,186,186,186,,,,,,,,,,,,,,,,,,,,,,,,,,,,,,,,,,,,,,,,,,None,,344.339092780001,None,344.339092780001,None,2022-04-26-14:02:39.217444,344.3538956000011,344.6554367000008,344.3538956000011,None,None,344.3538956000011,None,345.15608367999994,None,,,,22009,0001,2022_Apr_26_1357,localizer,2021.1.3,59.96976324530216,
block,faces,faces017.bmp,,,,,0,187,187,187,,,,,,,,,,,,,,,,,,,,,,,,,,,,,,,,,,,,,,,,,,None,,345.15608367999994,None,345.15608367999994,None,2022-04-26-14:02:40.034689,345.16686090000076,345.472661400001,345.16686090000076,None,y,345.16686090000076,None,345.9719480800013,None,0.471541699998852,,,22009,0001,2022_Apr_26_1357,localizer,2021.1.3,59.96976324530216,
block,faces,faces043.bmp,,,,,0,188,188,188,,,,,,,,,,,,,,,,,,,,,,,,,,,,,,,,,,,,,,,,,,None,,345.9719480800013,None,345.9719480800013,None,2022-04-26-14:02:40.849081,345.9738393000007,346.28886539999985,345.9738393000007,None,None,345.9738393000007,None,346.7894198800004,None,,,,22009,0001,2022_Apr_26_1357,localizer,2021.1.3,59.96976324530216,
block,faces,faces008.bmp,,,,,0,189,189,189,,,,,,,,,,,,,,,,,,,,,,,,,,,,,,,,,,,,,,,,,,None,,346.7894198800004,None,346.7894198800004,None,2022-04-26-14:02:41.667625,346.8003638000009,347.1060455000006,346.8003638000009,None,None,346.8003638000009,None,347.60544837999987,None,,,,22009,0001,2022_Apr_26_1357,localizer,2021.1.3,59.96976324530216,
block,faces,faces078.bmp,,,,,0,190,190,190,,,,,,,,,,,,,,,,,,,,,,,,,,,,,,,,,,,,,,,,,,None,,347.60544837999987,None,347.60544837999987,None,2022-04-26-14:02:42.483578,347.60993749999943,347.93006760000026,347.60993749999943,None,y,347.60993749999943,None,348.4230386800009,None,0.13235379999969155,,,22009,0001,2022_Apr_26_1357,localizer,2021.1.3,59.96976324530216,
block,faces,faces037.bmp,,,,,0,191,191,191,,,,,,,,,,,,,,,,,,,,,,,,,,,,,,,,,,,,,,,,,,None,,348.4230386800009,None,348.4230386800009,None,2022-04-26-14:02:43.301264,348.42392540000037,348.7387290000006,348.42392540000037,None,y,348.42392540000037,None,349.22471978000067,None,0.08037049999984447,,,22009,0001,2022_Apr_26_1357,localizer,2021.1.3,59.96976324530216,
block,faces,faces014.bmp,,,,,0,192,192,192,,,,,,,,,,,,,,,,,,,,,,,,,,,,,,,,,,,,,,,,,,None,,349.22471978000067,None,349.22471978000067,None,2022-04-26-14:02:44.106849,349.23621699999967,349.5386416000001,349.23621699999967,349.23621699999967,None,349.23621699999967,349.23621699999967,350.03889318000074,None,,,,22009,0001,2022_Apr_26_1357,localizer,2021.1.3,59.96976324530216,
block,faces,faces007.bmp,,,,,0,193,193,193,,,,,,,,,,,,,,,,,,,,,,,,,,,,,,,,,,,,,,,,,,None,,350.03889318000074,None,350.03889318000074,None,2022-04-26-14:02:44.917029,350.0406565000012,350.35545120000097,350.0406565000012,None,y,350.0406565000012,None,350.85942158000034,None,0.7814584000007017,,,22009,0001,2022_Apr_26_1357,localizer,2021.1.3,59.96976324530216,
block,faces,faces026.bmp,,,,,0,194,194,194,,,,,,,,,,,,,,,,,,,,,,,,,,,,,,,,,,,,,,,,,,None,,350.85942158000034,None,350.85942158000034,None,2022-04-26-14:02:45.744586,350.90204769999946,351.20584400000007,350.90204769999946,None,None,350.90204769999946,None,351.67275898000116,None,,,,22009,0001,2022_Apr_26_1357,localizer,2021.1.3,59.96976324530216,
block,faces,faces081.bmp,,,,,0,195,195,195,,,,,,,,,,,,,,,,,,,,,,,,,,,,,,,,,,,,,,,,,,None,,351.67275898000116,None,351.67275898000116,None,2022-04-26-14:02:46.550888,351.6832532999997,351.98870759999954,351.6832532999997,None,None,351.6832532999997,None,352.4889670800003,None,,,,22009,0001,2022_Apr_26_1357,localizer,2021.1.3,59.96976324530216,
block,faces,faces060.bmp,,,,,0,196,196,196,,,,,,,,,,,,,,,,,,,,,,,,,,,,,,,,,,,,,,,,,,None,,352.4889670800003,None,352.4889670800003,None,2022-04-26-14:02:47.367108,352.4973338,352.8052303000004,352.4973338,None,None,352.4973338,None,353.3056606800001,None,,,,22009,0001,2022_Apr_26_1357,localizer,2021.1.3,59.96976324530216,
block_end,faces,faces063.bmp,,,,,0,197,197,197,,,,,,,,,,,,,,,,,,,,,,,,,,,,,,,,,,,,,,,,,,None,,353.3056606800001,None,353.3056606800001,None,2022-04-26-14:02:48.183026,353.30659790000027,353.6058329000007,353.30659790000027,None,None,353.30659790000027,None,354.12229538000065,None,,,,22009,0001,2022_Apr_26_1357,localizer,2021.1.3,59.96976324530216,
block_start,objects,objects020.bmp,,,,,0,198,198,198,,,,,,,,,,,,,,,,,,,,,,,,,,,,,,,,,,,,,,,,,,t,1.7452616999999009,354.1221731000005,None,354.1221731000005,None,2022-04-26-14:02:50.767989,355.9006829000009,356.2067836999995,355.9006829000009,None,None,355.9006829000009,None,356.7056811800012,None,,,,22009,0001,2022_Apr_26_1357,localizer,2021.1.3,59.96976324530216,
block,objects,objects080.bmp,,,,,0,199,199,199,,,,,,,,,,,,,,,,,,,,,,,,,,,,,,,,,,,,,,,,,,None,,356.7056811800012,None,356.7056811800012,None,2022-04-26-14:02:51.583766,356.7130553999996,357.0220695000007,356.7130553999996,None,None,356.7130553999996,None,357.5222581800008,None,,,,22009,0001,2022_Apr_26_1357,localizer,2021.1.3,59.96976324530216,
block,objects,objects054.bmp,,,,,0,200,200,200,,,,,,,,,,,,,,,,,,,,,,,,,,,,,,,,,,,,,,,,,,None,,357.5222581800008,None,357.5222581800008,None,2022-04-26-14:02:52.400411,357.5309820000002,357.83879569999954,357.5309820000002,None,None,357.5309820000002,None,358.3394508800011,None,,,,22009,0001,2022_Apr_26_1357,localizer,2021.1.3,59.96976324530216,
block,objects,objects024.bmp,,,,,0,201,201,201,,,,,,,,,,,,,,,,,,,,,,,,,,,,,,,,,,,,,,,,,,None,,358.3394508800011,None,358.3394508800011,None,2022-04-26-14:02:53.217822,358.34844370000064,358.6554305999998,358.34844370000064,None,None,358.34844370000064,None,359.15545958000075,None,,,,22009,0001,2022_Apr_26_1357,localizer,2021.1.3,59.96976324530216,
block,objects,objects001.bmp,,,,,0,202,202,202,,,,,,,,,,,,,,,,,,,,,,,,,,,,,,,,,,,,,,,,,,None,,359.15545958000075,None,359.15545958000075,None,2022-04-26-14:02:54.032823,359.1638120000007,359.47654259999945,359.1638120000007,None,None,359.1638120000007,None,359.9721323800004,None,,,,22009,0001,2022_Apr_26_1357,localizer,2021.1.3,59.96976324530216,
block,objects,objects015.bmp,,,,,0,203,203,203,,,,,,,,,,,,,,,,,,,,,,,,,,,,,,,,,,,,,,,,,,None,,359.9721323800004,None,359.9721323800004,None,2022-04-26-14:02:54.849278,359.97414670000035,360.28892050000104,359.97414670000035,None,y,359.97414670000035,None,360.77350948000094,None,0.6981472000006761,,,22009,0001,2022_Apr_26_1357,localizer,2021.1.3,59.96976324530216,
block,objects,objects038.bmp,,,,,0,204,204,204,,,,,,,,,,,,,,,,,,,,,,,,,,,,,,,,,,,,,,,,,,None,,360.77350948000094,None,360.77350948000094,None,2022-04-26-14:02:55.654706,360.77665200000047,361.08874690000084,360.77665200000047,360.77665200000047,y,360.77665200000047,360.77665200000047,361.5889441800009,None,0.5475139999998646,,,22009,0001,2022_Apr_26_1357,localizer,2021.1.3,59.96976324530216,
block,objects,objects038.bmp,,,,,0,205,205,205,,,,,,,,,,,,,,,,,,,,,,,,,,,,,,,,,,,,,,,,,,None,,361.5889441800009,None,361.5889441800009,None,2022-04-26-14:02:56.466401,361.59067890000006,361.8929336000001,361.59067890000006,None,y,361.59067890000006,None,362.38972708000074,None,0.4436965999993845,,,22009,0001,2022_Apr_26_1357,localizer,2021.1.3,59.96976324530216,
block,objects,objects069.bmp,,,,,0,206,206,206,,,,,,,,,,,,,,,,,,,,,,,,,,,,,,,,,,,,,,,,,,None,,362.38972708000074,None,362.38972708000074,None,2022-04-26-14:02:57.269859,362.40220430000045,362.7060419999998,362.40220430000045,362.40220430000045,None,362.40220430000045,362.40220430000045,363.2062757800013,None,,,,22009,0001,2022_Apr_26_1357,localizer,2021.1.3,59.96976324530216,
block,objects,objects016.bmp,,,,,0,207,207,207,,,,,,,,,,,,,,,,,,,,,,,,,,,,,,,,,,,,,,,,,,None,,363.2062757800013,None,363.2062757800013,None,2022-04-26-14:02:58.084415,363.2159164000004,363.5229426999995,363.2159164000004,None,None,363.2159164000004,None,364.0234974800005,None,,,,22009,0001,2022_Apr_26_1357,localizer,2021.1.3,59.96976324530216,
block,objects,objects058.bmp,,,,,0,208,208,208,,,,,,,,,,,,,,,,,,,,,,,,,,,,,,,,,,,,,,,,,,None,,364.0234974800005,None,364.0234974800005,None,2022-04-26-14:02:58.902829,364.02445459999944,364.33885290000035,364.02445459999944,None,None,364.02445459999944,None,364.83890068000073,None,,,,22009,0001,2022_Apr_26_1357,localizer,2021.1.3,59.96976324530216,
block,objects,objects044.bmp,,,,,0,209,209,209,,,,,,,,,,,,,,,,,,,,,,,,,,,,,,,,,,,,,,,,,,None,,364.83890068000073,None,364.83890068000073,None,2022-04-26-14:02:59.717072,364.84730110000055,365.15546800000084,364.84730110000055,None,None,364.84730110000055,None,365.6556745800008,None,,,,22009,0001,2022_Apr_26_1357,localizer,2021.1.3,59.96976324530216,
block,objects,objects049.bmp,,,,,0,210,210,210,,,,,,,,,,,,,,,,,,,,,,,,,,,,,,,,,,,,,,,,,,None,,365.6556745800008,None,365.6556745800008,None,2022-04-26-14:03:00.533845,365.6566634999999,365.9721750000008,365.6566634999999,None,None,365.6566634999999,None,366.4557013800004,None,,,,22009,0001,2022_Apr_26_1357,localizer,2021.1.3,59.96976324530216,
block,objects,objects066.bmp,,,,,0,211,211,211,,,,,,,,,,,,,,,,,,,,,,,,,,,,,,,,,,,,,,,,,,None,,366.4557013800004,None,366.4557013800004,None,2022-04-26-14:03:01.335867,366.4657805000006,366.77208489999975,366.4657805000006,366.4657805000006,y,366.4657805000006,366.4657805000006,367.27214428000116,None,0.02362410000023374,,,22009,0001,2022_Apr_26_1357,localizer,2021.1.3,59.96976324530216,
block_end,objects,objects071.bmp,,,,,0,212,212,212,,,,,,,,,,,,,,,,,,,,,,,,,,,,,,,,,,,,,,,,,,None,,367.27214428000116,None,367.27214428000116,None,2022-04-26-14:03:02.149325,367.2740407000001,367.5889532000001,367.2740407000001,None,y,367.2740407000001,None,368.08927118000065,None,0.6162803000006534,,,22009,0001,2022_Apr_26_1357,localizer,2021.1.3,59.96976324530216,
block_start,scenes,scenes049.bmp,,,,,0,213,213,213,,,,,,,,,,,,,,,,,,,,,,,,,,,,,,,,,,,,,,,,,,t,1.7782513000001927,368.08927609999955,None,368.08927609999955,None,2022-04-26-14:03:04.766283,369.89781700000094,370.2058072,369.89781700000094,None,None,369.89781700000094,None,370.6956727800007,None,,,,22009,0001,2022_Apr_26_1357,localizer,2021.1.3,59.96976324530216,
block,scenes,scenes018.bmp,,,,,0,214,214,214,,,,,,,,,,,,,,,,,,,,,,,,,,,,,,,,,,,,,,,,,,None,,370.6956727800007,None,370.6956727800007,None,2022-04-26-14:03:05.577836,370.70024379999995,371.00577879999946,370.70024379999995,None,None,370.70024379999995,None,371.50577588000124,None,,,,22009,0001,2022_Apr_26_1357,localizer,2021.1.3,59.96976324530216,
block,scenes,scenes013.bmp,,,,,0,215,215,215,,,,,,,,,,,,,,,,,,,,,,,,,,,,,,,,,,,,,,,,,,None,,371.50577588000124,None,371.50577588000124,None,2022-04-26-14:03:06.383951,371.5153760000012,371.8221904000002,371.5153760000012,None,y,371.5153760000012,None,372.32352827999966,None,0.7431039999992208,,,22009,0001,2022_Apr_26_1357,localizer,2021.1.3,59.96976324530216,
block,scenes,scenes063.bmp,,,,,0,216,216,216,,,,,,,,,,,,,,,,,,,,,,,,,,,,,,,,,,,,,,,,,,None,,372.32352827999966,None,372.32352827999966,None,2022-04-26-14:03:07.201361,372.3323392000002,372.6386886,372.3323392000002,None,None,372.3323392000002,None,373.14026148000085,None,,,,22009,0001,2022_Apr_26_1357,localizer,2021.1.3,59.96976324530216,
block,scenes,scenes039.bmp,,,,,0,217,217,217,,,,,,,,,,,,,,,,,,,,,,,,,,,,,,,,,,,,,,,,,,None,,373.14026148000085,None,373.14026148000085,None,2022-04-26-14:03:08.019600,373.1515668000011,373.45544100000006,373.1515668000011,None,None,373.1515668000011,None,373.9563170800011,None,,,,22009,0001,2022_Apr_26_1357,localizer,2021.1.3,59.96976324530216,
block,scenes,scenes015.bmp,,,,,0,218,218,218,,,,,,,,,,,,,,,,,,,,,,,,,,,,,,,,,,,,,,,,,,None,,373.9563170800011,None,373.9563170800011,None,2022-04-26-14:03:08.834560,373.9572853999998,374.27261290000024,373.9572853999998,None,None,373.9572853999998,None,374.75698037999973,None,,,,22009,0001,2022_Apr_26_1357,localizer,2021.1.3,59.96976324530216,
block,scenes,scenes009.bmp,,,,,0,219,219,219,,,,,,,,,,,,,,,,,,,,,,,,,,,,,,,,,,,,,,,,,,None,,374.75698037999973,None,374.75698037999973,None,2022-04-26-14:03:09.639204,374.7662281000012,375.07230680000066,374.7662281000012,374.7662281000012,None,374.7662281000012,374.7662281000012,375.57245838000017,None,,,,22009,0001,2022_Apr_26_1357,localizer,2021.1.3,59.96976324530216,
block,scenes,scenes021.bmp,,,,,0,220,220,220,,,,,,,,,,,,,,,,,,,,,,,,,,,,,,,,,,,,,,,,,,None,,375.57245838000017,None,375.57245838000017,None,2022-04-26-14:03:10.450986,375.5817927999997,375.8895735999995,375.5817927999997,None,None,375.5817927999997,None,376.3890795799998,None,,,,22009,0001,2022_Apr_26_1357,localizer,2021.1.3,59.96976324530216,
block,scenes,scenes087.bmp,,,,,0,221,221,221,,,,,,,,,,,,,,,,,,,,,,,,,,,,,,,,,,,,,,,,,,None,,376.3890795799998,None,376.3890795799998,None,2022-04-26-14:03:11.267263,376.39011690000007,376.7055488999995,376.39011690000007,None,None,376.39011690000007,None,377.1891705800008,None,,,,22009,0001,2022_Apr_26_1357,localizer,2021.1.3,59.96976324530216,
block,scenes,scenes061.bmp,,,,,0,222,222,222,,,,,,,,,,,,,,,,,,,,,,,,,,,,,,,,,,,,,,,,,,None,,377.1891705800008,None,377.1891705800008,None,2022-04-26-14:03:12.068351,377.19933520000086,377.5058362,377.19933520000086,377.19933520000086,y,377.19933520000086,377.19933520000086,378.00552188000074,None,0.028062100000170176,,,22009,0001,2022_Apr_26_1357,localizer,2021.1.3,59.96976324530216,
block,scenes,scenes041.bmp,,,,,0,223,223,223,,,,,,,,,,,,,,,,,,,,,,,,,,,,,,,,,,,,,,,,,,None,,378.00552188000074,None,378.00552188000074,None,2022-04-26-14:03:12.882704,378.00728490000074,378.32239149999987,378.00728490000074,None,y,378.00728490000074,None,378.81030457999987,None,0.7292140999998082,,,22009,0001,2022_Apr_26_1357,localizer,2021.1.3,59.96976324530216,
block,scenes,scenes027.bmp,,,,,0,224,224,224,,,,,,,,,,,,,,,,,,,,,,,,,,,,,,,,,,,,,,,,,,None,,378.81030457999987,None,378.81030457999987,None,2022-04-26-14:03:13.691437,378.82383130000017,379.1390733999997,378.82383130000017,None,None,378.82383130000017,None,379.62251728000047,None,,,,22009,0001,2022_Apr_26_1357,localizer,2021.1.3,59.96976324530216,
block,scenes,scenes043.bmp,,,,,0,225,225,225,,,,,,,,,,,,,,,,,,,,,,,,,,,,,,,,,,,,,,,,,,None,,379.62251728000047,None,379.62251728000047,None,2022-04-26-14:03:14.499657,379.6305446000006,379.940193800001,379.6305446000006,None,None,379.6305446000006,None,380.43918078000024,None,,,,22009,0001,2022_Apr_26_1357,localizer,2021.1.3,59.96976324530216,
block,scenes,scenes053.bmp,,,,,0,226,226,226,,,,,,,,,,,,,,,,,,,,,,,,,,,,,,,,,,,,,,,,,,None,,380.43918078000024,None,380.43918078000024,None,2022-04-26-14:03:15.317758,380.4439246000002,380.7549218000004,380.4439246000002,None,None,380.4439246000002,None,381.2559086800011,None,,,,22009,0001,2022_Apr_26_1357,localizer,2021.1.3,59.96976324530216,
block_end,scenes,scenes033.bmp,,,,,0,227,227,227,,,,,,,,,,,,,,,,,,,,,,,,,,,,,,,,,,,,,,,,,,None,,381.2559086800011,None,381.2559086800011,None,2022-04-26-14:03:16.134093,381.2568599999995,381.5722082000011,381.2568599999995,None,y,381.2568599999995,None,382.05586177999976,None,0.004515999999057385,,,22009,0001,2022_Apr_26_1357,localizer,2021.1.3,59.96976324530216,
block_start,scrambled,scrambled088.bmp,,,,,0,228,228,228,,,,,,,,,,,,,,,,,,,,,,,,,,,,,,,,,,,,,,,,,,t,1.8119874999993044,382.05557059999956,None,382.05557059999956,None,2022-04-26-14:03:18.767815,383.9006910999997,384.20577200000116,383.9006910999997,None,None,383.9006910999997,None,384.7064333800008,None,,,,22009,0001,2022_Apr_26_1357,localizer,2021.1.3,59.96976324530216,
block,scrambled,scrambled006.bmp,,,,,0,229,229,229,,,,,,,,,,,,,,,,,,,,,,,,,,,,,,,,,,,,,,,,,,None,,384.7064333800008,None,384.7064333800008,None,2022-04-26-14:03:19.584751,384.7070712000004,385.0063415000004,384.7070712000004,None,y,384.7070712000004,None,385.5222258800004,None,0.014218399999663234,,,22009,0001,2022_Apr_26_1357,localizer,2021.1.3,59.96976324530216,
block,scrambled,scrambled009.bmp,,,,,0,230,230,230,,,,,,,,,,,,,,,,,,,,,,,,,,,,,,,,,,,,,,,,,,None,,385.5222258800004,None,385.5222258800004,None,2022-04-26-14:03:20.399623,385.53057790000094,385.8391035000004,385.53057790000094,None,y,385.53057790000094,None,386.3400103799995,None,0.11261930000000575,,,22009,0001,2022_Apr_26_1357,localizer,2021.1.3,59.96976324530216,
block,scrambled,scrambled085.bmp,,,,,0,231,231,231,,,,,,,,,,,,,,,,,,,,,,,,,,,,,,,,,,,,,,,,,,None,,386.3400103799995,None,386.3400103799995,None,2022-04-26-14:03:21.218189,386.34018319999996,386.6556376000008,386.34018319999996,None,None,386.34018319999996,None,387.1398783799996,None,,,,22009,0001,2022_Apr_26_1357,localizer,2021.1.3,59.96976324530216,
block,scrambled,scrambled041.bmp,,,,,0,232,232,232,,,,,,,,,,,,,,,,,,,,,,,,,,,,,,,,,,,,,,,,,,None,,387.1398783799996,None,387.1398783799996,None,2022-04-26-14:03:22.020247,387.14206860000013,387.4403949999996,387.14206860000013,387.14206860000013,y,387.14206860000013,387.14206860000013,387.94443608000074,None,0.5581722000006266,,,22009,0001,2022_Apr_26_1357,localizer,2021.1.3,59.96976324530216,
block,scrambled,scrambled014.bmp,,,,,0,233,233,233,,,,,,,,,,,,,,,,,,,,,,,,,,,,,,,,,,,,,,,,,,None,,387.94443608000074,None,387.94443608000074,None,2022-04-26-14:03:22.826593,387.9475579000009,388.2565563999997,387.9475579000009,387.9475579000009,None,387.9475579000009,387.9475579000009,388.7565307799996,None,,,,22009,0001,2022_Apr_26_1357,localizer,2021.1.3,59.96976324530216,
block,scrambled,scrambled065.bmp,,,,,0,234,234,234,,,,,,,,,,,,,,,,,,,,,,,,,,,,,,,,,,,,,,,,,,None,,388.7565307799996,None,388.7565307799996,None,2022-04-26-14:03:23.635467,388.756962200001,389.0574713999995,388.756962200001,None,y,388.756962200001,None,389.57252938000056,None,0.5805634999996983,,,22009,0001,2022_Apr_26_1357,localizer,2021.1.3,59.96976324530216,
block,scrambled,scrambled027.bmp,,,,,0,235,235,235,,,,,,,,,,,,,,,,,,,,,,,,,,,,,,,,,,,,,,,,,,None,,389.57252938000056,None,389.57252938000056,None,2022-04-26-14:03:24.449733,389.57404730000053,389.88966020000043,389.57404730000053,None,None,389.57404730000053,None,390.3887595800006,None,,,,22009,0001,2022_Apr_26_1357,localizer,2021.1.3,59.96976324530216,
block,scrambled,scrambled055.bmp,,,,,0,236,236,236,,,,,,,,,,,,,,,,,,,,,,,,,,,,,,,,,,,,,,,,,,None,,390.3887595800006,None,390.3887595800006,None,2022-04-26-14:03:25.266139,390.39038410000103,390.7056864999995,390.39038410000103,None,None,390.39038410000103,None,391.18980417999956,None,,,,22009,0001,2022_Apr_26_1357,localizer,2021.1.3,59.96976324530216,
block,scrambled,scrambled021.bmp,,,,,0,237,237,237,,,,,,,,,,,,,,,,,,,,,,,,,,,,,,,,,,,,,,,,,,None,,391.18980417999956,None,391.18980417999956,None,2022-04-26-14:03:26.070178,391.202362,391.50576809999984,391.202362,391.202362,None,391.202362,391.202362,392.0108051799998,None,,,,22009,0001,2022_Apr_26_1357,localizer,2021.1.3,59.96976324530216,
block,scrambled,scrambled047.bmp,,,,,0,238,238,238,,,,,,,,,,,,,,,,,,,,,,,,,,,,,,,,,,,,,,,,,,None,,392.0108051799998,None,392.0108051799998,None,2022-04-26-14:03:26.891079,392.01637310000115,392.3222973000011,392.01637310000115,None,None,392.01637310000115,None,392.82240077999995,None,,,,22009,0001,2022_Apr_26_1357,localizer,2021.1.3,59.96976324530216,
block,scrambled,scrambled083.bmp,,,,,0,239,239,239,,,,,,,,,,,,,,,,,,,,,,,,,,,,,,,,,,,,,,,,,,None,,392.82240077999995,None,392.82240077999995,None,2022-04-26-14:03:27.699610,392.82419070000105,393.13902170000074,392.82419070000105,None,None,392.82419070000105,None,393.6393225800002,None,,,,22009,0001,2022_Apr_26_1357,localizer,2021.1.3,59.96976324530216,
block,scrambled,scrambled039.bmp,,,,,0,240,240,240,,,,,,,,,,,,,,,,,,,,,,,,,,,,,,,,,,,,,,,,,,None,,393.6393225800002,None,393.6393225800002,None,2022-04-26-14:03:28.517523,393.6482646000004,393.95604920000005,393.6482646000004,None,None,393.6482646000004,None,394.4456516800001,None,,,,22009,0001,2022_Apr_26_1357,localizer,2021.1.3,59.96976324530216,
block,scrambled,scrambled060.bmp,,,,,0,241,241,241,,,,,,,,,,,,,,,,,,,,,,,,,,,,,,,,,,,,,,,,,,None,,394.4456516800001,None,394.4456516800001,None,2022-04-26-14:03:29.326824,394.4494465000007,394.7558549000005,394.4494465000007,None,None,394.4494465000007,None,395.2559176800005,None,,,,22009,0001,2022_Apr_26_1357,localizer,2021.1.3,59.96976324530216,
block_end,scrambled,scrambled023.bmp,,,,,0,242,242,242,,,,,,,,,,,,,,,,,,,,,,,,,,,,,,,,,,,,,,,,,,None,,395.2559176800005,None,395.2559176800005,None,2022-04-26-14:03:30.134122,395.25696830000015,395.5566895000011,395.25696830000015,None,y,395.25696830000015,None,396.05665598000087,None,0.5351657999999588,,,22009,0001,2022_Apr_26_1357,localizer,2021.1.3,59.96976324530216,
null_block,null_block,null_block.bmp,,,,,0,243,243,243,,,,,,,,,,,,,,,,,,,,,,,,,,,,,,,,,,,,,,,,,,t,1.8108529000001,396.0567150000006,None,396.0567150000006,None,2022-04-26-14:03:32.769695,397.8905092799996,None,397.8905092799996,None,None,397.8905092799996,None,397.8951304000002,None,,,,22009,0001,2022_Apr_26_1357,localizer,2021.1.3,59.96976324530216,
,,,,,,,,,,,,,,,,,,,,,,,,,,,,,,,,,,,,,,,,,,,,,,,,,,,,,,,,,,,,,,,,,,,,,409.90749549999964,None,,,,,,,
