block_type,condition,img_name,Button.thisRepN,Button.thisTrialN,Button.thisN,Button.thisIndex,trials.thisRepN,trials.thisTrialN,trials.thisN,trials.thisIndex,Ready_experimenter_text.started,Ready_experimenter_text.stopped,Ready_experimenter_resp.keys,Ready_experimenter_resp.rt,Ready_experimenter_resp.started,Ready_experimenter_resp.stopped,Alignment_background.started,Alignment_background.stopped,Alignment_image.started,Alignment_image.stopped,Alignment_resp.keys,Alignment_resp.rt,Alignment_resp.started,Alignment_resp.stopped,Button_text.started,Button_text.stopped,Index_text.started,Index_text.stopped,Index_resp.keys,Index_resp.rt,Index_resp.started,Index_resp.stopped,Middle_text.started,Middle_text.stopped,Middle_resp.keys,Middle_resp.rt,Middle_resp.started,Middle_resp.stopped,Repeat_text.started,Repeat_text.stopped,Repeat_resp.keys,Repeat_resp.corr,Repeat_resp.rt,Repeat_resp.started,Repeat_resp.stopped,instruction_text.started,instruction_text.stopped,key_resp.keys,key_resp.rt,key_resp.started,key_resp.stopped,scanner_t.keys,scanner_t.rt,scanner_t.started,scanner_t.stopped,fixation_wait_for_t.started,fixation_wait_for_t.stopped,real_timestamp_trial_start,image.started,image.stopped,fixation.started,fixation.stopped,repeat_response.keys,repeat_response.started,repeat_response.stopped,fixation_null.started,fixation_null.stopped,repeat_response.rt,end_text.started,end_text.stopped,participant,run,date,expName,psychopyVersion,frameRate,
,,,,,,,,,,,10.458350399974734,None,return,468.71655189991,10.458350399974734,None,,,,,,,,,,,,,,,,,,,,,,,,,,,,,,,,,,,,,,,,,,,,,,,,,,,,,,,12015,0002,2022_May_12_1406,localizer,2021.1.3,60.20371736213184,
,,,,,,,,,,,,,,,,,479.22876340011135,None,479.22876340011135,None,return,1.1291612000204623,479.22876340011135,None,,,,,,,,,,,,,,,,,,,,,,,,,,,,,,,,,,,,,,,,,,,,,,,12015,0002,2022_May_12_1406,localizer,2021.1.3,60.20371736213184,
,,,0,0,0,0,,,,,,,,,,,,,,,,,,,480.3706076000817,None,481.3699654000811,None,y,3.1733750000130385,481.3699654000811,None,484.5702804001048,None,b,1.4381246999837458,484.5702804001048,None,486.0379864999559,None,n,0,1.9575543999671936,486.0379864999559,None,,,,,,,,,,,,,,,,,,,,,,,,,,12015,0002,2022_May_12_1406,localizer,2021.1.3,60.20371736213184,
,,,,,,,,,,,,,,,,,,,,,,,,,,,,,,,,,,,,,,,,,,,,,,488.0210428000428,None,y,22.517441199859604,488.0210428000428,None,,,,,,,,,,,,,,,,,,,,12015,0002,2022_May_12_1406,localizer,2021.1.3,60.20371736213184,
null_block,null_block,null_block.bmp,,,,,0,0,0,0,,,,,,,,,,,,,,,,,,,,,,,,,,,,,,,,,,,,,,,,,,t,16.603838399983943,510.5806013001129,None,510.5806013001129,None,2022-05-12-14:15:16.719895,527.2047657301184,None,527.2047657301184,None,None,527.2047657301184,None,527.2127402999904,None,,,,12015,0002,2022_May_12_1406,localizer,2021.1.3,60.20371736213184,
block_start,objects,objects071.bmp,,,,,0,1,1,1,,,,,,,,,,,,,,,,,,,,,,,,,,,,,,,,,,,,,,,,,,t,1.9627147000283003,539.2216388001107,None,539.2216388001107,None,2022-05-12-14:15:30.718951,541.2054151999764,541.5211502001621,541.2054151999764,None,None,541.2054151999764,None,542.0055563301314,None,,,,12015,0002,2022_May_12_1406,localizer,2021.1.3,60.20371736213184,
block,objects,objects061.bmp,,,,,0,2,2,2,,,,,,,,,,,,,,,,,,,,,,,,,,,,,,,,,,,,,,,,,,None,,542.0055563301314,None,542.0055563301314,None,2022-05-12-14:15:31.525301,542.0106781001668,542.3211491999682,542.0106781001668,542.0106781001668,None,542.0106781001668,542.0106781001668,542.8222208300606,None,,,,12015,0002,2022_May_12_1406,localizer,2021.1.3,60.20371736213184,
block,objects,objects076.bmp,,,,,0,3,3,3,,,,,,,,,,,,,,,,,,,,,,,,,,,,,,,,,,,,,,,,,,None,,542.8222208300606,None,542.8222208300606,None,2022-05-12-14:15:32.338149,542.8249311000109,543.1385637000203,542.8249311000109,None,None,542.8249311000109,None,543.639098430099,None,,,,12015,0002,2022_May_12_1406,localizer,2021.1.3,60.20371736213184,
block,objects,objects039.bmp,,,,,0,4,4,4,,,,,,,,,,,,,,,,,,,,,,,,,,,,,,,,,,,,,,,,,,None,,543.639098430099,None,543.639098430099,None,2022-05-12-14:15:33.155090,543.6525687000249,543.9542445000261,543.6525687000249,None,None,543.6525687000249,None,544.4541741300375,None,,,,12015,0002,2022_May_12_1406,localizer,2021.1.3,60.20371736213184,
block,objects,objects008.bmp,,,,,0,5,5,5,,,,,,,,,,,,,,,,,,,,,,,,,,,,,,,,,,,,,,,,,,None,,544.4541741300375,None,544.4541741300375,None,2022-05-12-14:15:33.968131,544.4629818999674,544.7707766999956,544.4629818999674,None,None,544.4629818999674,None,545.2710176301655,None,,,,12015,0002,2022_May_12_1406,localizer,2021.1.3,60.20371736213184,
block,objects,objects030.bmp,,,,,0,6,6,6,,,,,,,,,,,,,,,,,,,,,,,,,,,,,,,,,,,,,,,,,,None,,545.2710176301655,None,545.2710176301655,None,2022-05-12-14:15:34.784970,545.2719018000644,545.5709637000691,545.2719018000644,None,None,545.2719018000644,None,546.0710960301105,None,,,,12015,0002,2022_May_12_1406,localizer,2021.1.3,60.20371736213184,
block,objects,objects054.bmp,,,,,0,7,7,7,,,,,,,,,,,,,,,,,,,,,,,,,,,,,,,,,,,,,,,,,,None,,546.0710960301105,None,546.0710960301105,None,2022-05-12-14:15:35.586463,546.0822129000444,546.3877763999626,546.0822129000444,546.0822129000444,None,546.0822129000444,546.0822129000444,546.887733530067,None,,,,12015,0002,2022_May_12_1406,localizer,2021.1.3,60.20371736213184,
block,objects,objects011.bmp,,,,,0,8,8,8,,,,,,,,,,,,,,,,,,,,,,,,,,,,,,,,,,,,,,,,,,None,,546.887733530067,None,546.887733530067,None,2022-05-12-14:15:36.401683,546.8887800001539,547.2043135999702,546.8887800001539,None,None,546.8887800001539,None,547.7043097301387,None,,,,12015,0002,2022_May_12_1406,localizer,2021.1.3,60.20371736213184,
block,objects,objects075.bmp,,,,,0,9,9,9,,,,,,,,,,,,,,,,,,,,,,,,,,,,,,,,,,,,,,,,,,None,,547.7043097301387,None,547.7043097301387,None,2022-05-12-14:15:37.218500,547.7156571999658,548.0210252001416,547.7156571999658,None,None,547.7156571999658,None,548.5209399301559,None,,,,12015,0002,2022_May_12_1406,localizer,2021.1.3,60.20371736213184,
block,objects,objects050.bmp,,,,,0,10,10,10,,,,,,,,,,,,,,,,,,,,,,,,,,,,,,,,,,,,,,,,,,None,,548.5209399301559,None,548.5209399301559,None,2022-05-12-14:15:38.034960,548.5305185001343,548.8380040000193,548.5305185001343,None,None,548.5305185001343,None,549.3375756300986,None,,,,12015,0002,2022_May_12_1406,localizer,2021.1.3,60.20371736213184,
block,objects,objects025.bmp,,,,,0,11,11,11,,,,,,,,,,,,,,,,,,,,,,,,,,,,,,,,,,,,,,,,,,None,,549.3375756300986,None,549.3375756300986,None,2022-05-12-14:15:38.851760,549.3387728000525,549.6545602001715,549.3387728000525,None,None,549.3387728000525,None,550.154327230109,None,,,,12015,0002,2022_May_12_1406,localizer,2021.1.3,60.20371736213184,
block,objects,objects047.bmp,,,,,0,12,12,12,,,,,,,,,,,,,,,,,,,,,,,,,,,,,,,,,,,,,,,,,,None,,550.154327230109,None,550.154327230109,None,2022-05-12-14:15:39.668471,550.1553356000222,550.4711856001522,550.1553356000222,None,None,550.1553356000222,None,550.9707849300933,None,,,,12015,0002,2022_May_12_1406,localizer,2021.1.3,60.20371736213184,
block,objects,objects079.bmp,,,,,0,13,13,13,,,,,,,,,,,,,,,,,,,,,,,,,,,,,,,,,,,,,,,,,,None,,550.9707849300933,None,550.9707849300933,None,2022-05-12-14:15:40.484443,550.9797722001094,551.2878460001666,550.9797722001094,None,None,550.9797722001094,None,551.7878639300354,None,,,,12015,0002,2022_May_12_1406,localizer,2021.1.3,60.20371736213184,
block,objects,objects023.bmp,,,,,0,14,14,14,,,,,,,,,,,,,,,,,,,,,,,,,,,,,,,,,,,,,,,,,,None,,551.7878639300354,None,551.7878639300354,None,2022-05-12-14:15:41.302779,551.7888197000138,552.1044828000013,551.7888197000138,None,None,551.7888197000138,None,552.5879126301036,None,,,,12015,0002,2022_May_12_1406,localizer,2021.1.3,60.20371736213184,
block_end,objects,objects005.bmp,,,,,0,15,15,15,,,,,,,,,,,,,,,,,,,,,,,,,,,,,,,,,,,,,,,,,,None,,552.5879126301036,None,552.5879126301036,None,2022-05-12-14:15:42.103857,552.5908252000809,552.9042609999888,552.5908252000809,552.5908252000809,None,552.5908252000809,552.5908252000809,553.4044612299651,None,,,,12015,0002,2022_May_12_1406,localizer,2021.1.3,60.20371736213184,
block_start,faces,faces032.bmp,,,,,0,16,16,16,,,,,,,,,,,,,,,,,,,,,,,,,,,,,,,,,,,,,,,,,,t,1.7797763000708073,553.4046609001234,None,553.4046609001234,None,2022-05-12-14:15:44.717514,555.215764200082,555.5225061001256,555.215764200082,None,None,555.215764200082,None,556.021100230096,None,,,,12015,0002,2022_May_12_1406,localizer,2021.1.3,60.20371736213184,
block,faces,faces054.bmp,,,,,0,17,17,17,,,,,,,,,,,,,,,,,,,,,,,,,,,,,,,,,,,,,,,,,,None,,556.021100230096,None,556.021100230096,None,2022-05-12-14:15:45.535053,556.0313413001131,556.3379760000389,556.0313413001131,None,None,556.0313413001131,None,556.8381693300792,None,,,,12015,0002,2022_May_12_1406,localizer,2021.1.3,60.20371736213184,
block,faces,faces037.bmp,,,,,0,18,18,18,,,,,,,,,,,,,,,,,,,,,,,,,,,,,,,,,,,,,,,,,,None,,556.8381693300792,None,556.8381693300792,None,2022-05-12-14:15:46.353246,556.8489843001589,557.1544164000079,556.8489843001589,None,None,556.8489843001589,None,557.6558095301036,None,,,,12015,0002,2022_May_12_1406,localizer,2021.1.3,60.20371736213184,
block,faces,faces044.bmp,,,,,0,19,19,19,,,,,,,,,,,,,,,,,,,,,,,,,,,,,,,,,,,,,,,,,,None,,557.6558095301036,None,557.6558095301036,None,2022-05-12-14:15:47.172226,557.6651747000869,557.9709948000964,557.6651747000869,None,None,557.6651747000869,None,558.4709585300182,None,,,,12015,0002,2022_May_12_1406,localizer,2021.1.3,60.20371736213184,
block,faces,faces023.bmp,,,,,0,20,20,20,,,,,,,,,,,,,,,,,,,,,,,,,,,,,,,,,,,,,,,,,,None,,558.4709585300182,None,558.4709585300182,None,2022-05-12-14:15:47.984916,558.4797402000986,558.786852600053,558.4797402000986,None,None,558.4797402000986,None,559.2880131300074,None,,,,12015,0002,2022_May_12_1406,localizer,2021.1.3,60.20371736213184,
block,faces,faces059.bmp,,,,,0,21,21,21,,,,,,,,,,,,,,,,,,,,,,,,,,,,,,,,,,,,,,,,,,None,,559.2880131300074,None,559.2880131300074,None,2022-05-12-14:15:48.803169,559.2888508001342,559.5880359001458,559.2888508001342,None,None,559.2888508001342,None,560.1043157300912,None,,,,12015,0002,2022_May_12_1406,localizer,2021.1.3,60.20371736213184,
block,faces,faces042.bmp,,,,,0,22,22,22,,,,,,,,,,,,,,,,,,,,,,,,,,,,,,,,,,,,,,,,,,None,,560.1043157300912,None,560.1043157300912,None,2022-05-12-14:15:49.618270,560.1053260001354,560.4209970999509,560.1053260001354,None,None,560.1053260001354,None,560.9046202300117,None,,,,12015,0002,2022_May_12_1406,localizer,2021.1.3,60.20371736213184,
block,faces,faces075.bmp,,,,,0,23,23,23,,,,,,,,,,,,,,,,,,,,,,,,,,,,,,,,,,,,,,,,,,None,,560.9046202300117,None,560.9046202300117,None,2022-05-12-14:15:50.420566,560.9075257000513,561.2208310000133,560.9075257000513,560.9075257000513,None,560.9075257000513,560.9075257000513,561.7212990301662,None,,,,12015,0002,2022_May_12_1406,localizer,2021.1.3,60.20371736213184,
block,faces,faces065.bmp,,,,,0,24,24,24,,,,,,,,,,,,,,,,,,,,,,,,,,,,,,,,,,,,,,,,,,None,,561.7212990301662,None,561.7212990301662,None,2022-05-12-14:15:51.235053,561.722087000031,562.0377959001344,561.722087000031,None,None,561.722087000031,None,562.5211449300871,None,,,,12015,0002,2022_May_12_1406,localizer,2021.1.3,60.20371736213184,
block,faces,faces012.bmp,,,,,0,25,25,25,,,,,,,,,,,,,,,,,,,,,,,,,,,,,,,,,,,,,,,,,,None,,562.5211449300871,None,562.5211449300871,None,2022-05-12-14:15:52.036350,562.522256599972,562.8379787001759,562.522256599972,562.522256599972,None,562.522256599972,562.522256599972,563.3378392300103,None,,,,12015,0002,2022_May_12_1406,localizer,2021.1.3,60.20371736213184,
block,faces,faces050.bmp,,,,,0,26,26,26,,,,,,,,,,,,,,,,,,,,,,,,,,,,,,,,,,,,,,,,,,None,,563.3378392300103,None,563.3378392300103,None,2022-05-12-14:15:52.851798,563.3465104000643,563.6545659000985,563.3465104000643,None,None,563.3465104000643,None,564.1544404300396,None,,,,12015,0002,2022_May_12_1406,localizer,2021.1.3,60.20371736213184,
block,faces,faces024.bmp,,,,,0,27,27,27,,,,,,,,,,,,,,,,,,,,,,,,,,,,,,,,,,,,,,,,,,None,,564.1544404300396,None,564.1544404300396,None,2022-05-12-14:15:53.668296,564.1554678999819,564.4552035001107,564.1554678999819,None,None,564.1554678999819,None,564.9556861301419,None,,,,12015,0002,2022_May_12_1406,localizer,2021.1.3,60.20371736213184,
block,faces,faces052.bmp,,,,,0,28,28,28,,,,,,,,,,,,,,,,,,,,,,,,,,,,,,,,,,,,,,,,,,None,,564.9556861301419,None,564.9556861301419,None,2022-05-12-14:15:54.473826,564.9599178000353,565.2716721000616,564.9599178000353,564.9599178000353,None,564.9599178000353,564.9599178000353,565.7711089300458,None,,,,12015,0002,2022_May_12_1406,localizer,2021.1.3,60.20371736213184,
block,faces,faces014.bmp,,,,,0,29,29,29,,,,,,,,,,,,,,,,,,,,,,,,,,,,,,,,,,,,,,,,,,None,,565.7711089300458,None,565.7711089300458,None,2022-05-12-14:15:55.285305,565.7776152000297,566.0892038000748,565.7776152000297,None,None,565.7776152000297,None,566.5877245301847,None,,,,12015,0002,2022_May_12_1406,localizer,2021.1.3,60.20371736213184,
block_end,faces,faces088.bmp,,,,,0,30,30,30,,,,,,,,,,,,,,,,,,,,,,,,,,,,,,,,,,,,,,,,,,None,,566.5877245301847,None,566.5877245301847,None,2022-05-12-14:15:56.101679,566.5887533000205,566.9109508001711,566.5887533000205,None,None,566.5887533000205,None,567.3879993299954,None,,,,12015,0002,2022_May_12_1406,localizer,2021.1.3,60.20371736213184,
block_start,scrambled,scrambled052.bmp,,,,,0,31,31,31,,,,,,,,,,,,,,,,,,,,,,,,,,,,,,,,,,,,,,,,,,t,1.7967028999701142,567.3877123000566,None,567.3877123000566,None,2022-05-12-14:15:58.717475,569.2054234000389,569.5047482999507,569.2054234000389,None,None,569.2054234000389,None,570.0044725300279,None,,,,12015,0002,2022_May_12_1406,localizer,2021.1.3,60.20371736213184,
block,scrambled,scrambled026.bmp,,,,,0,32,32,32,,,,,,,,,,,,,,,,,,,,,,,,,,,,,,,,,,,,,,,,,,None,,570.0044725300279,None,570.0044725300279,None,2022-05-12-14:15:59.519396,570.0145400001202,570.3213542001322,570.0145400001202,570.0145400001202,None,570.0145400001202,570.0145400001202,570.8110224300065,None,,,,12015,0002,2022_May_12_1406,localizer,2021.1.3,60.20371736213184,
block,scrambled,scrambled036.bmp,,,,,0,33,33,33,,,,,,,,,,,,,,,,,,,,,,,,,,,,,,,,,,,,,,,,,,None,,570.8110224300065,None,570.8110224300065,None,2022-05-12-14:16:00.333138,570.8268073999789,571.1380924000405,570.8268073999789,None,None,570.8268073999789,None,571.6210904301145,None,,,,12015,0002,2022_May_12_1406,localizer,2021.1.3,60.20371736213184,
block,scrambled,scrambled017.bmp,,,,,0,34,34,34,,,,,,,,,,,,,,,,,,,,,,,,,,,,,,,,,,,,,,,,,,None,,571.6210904301145,None,571.6210904301145,None,2022-05-12-14:16:01.135257,571.6307469999883,571.9383315001614,571.6307469999883,None,None,571.6307469999883,None,572.4377778301016,None,,,,12015,0002,2022_May_12_1406,localizer,2021.1.3,60.20371736213184,
block,scrambled,scrambled062.bmp,,,,,0,35,35,35,,,,,,,,,,,,,,,,,,,,,,,,,,,,,,,,,,,,,,,,,,None,,572.4377778301016,None,572.4377778301016,None,2022-05-12-14:16:01.951989,572.4387772001792,572.754736199975,572.4387772001792,None,None,572.4387772001792,None,573.2383572301362,None,,,,12015,0002,2022_May_12_1406,localizer,2021.1.3,60.20371736213184,
block,scrambled,scrambled030.bmp,,,,,0,36,36,36,,,,,,,,,,,,,,,,,,,,,,,,,,,,,,,,,,,,,,,,,,None,,573.2383572301362,None,573.2383572301362,None,2022-05-12-14:16:02.755413,573.2414671999868,573.554712299956,573.2414671999868,573.2414671999868,None,573.2414671999868,573.2414671999868,574.0557850301732,None,,,,12015,0002,2022_May_12_1406,localizer,2021.1.3,60.20371736213184,
block,scrambled,scrambled059.bmp,,,,,0,37,37,37,,,,,,,,,,,,,,,,,,,,,,,,,,,,,,,,,,,,,,,,,,None,,574.0557850301732,None,574.0557850301732,None,2022-05-12-14:16:03.571715,574.0580717001576,574.3713424000889,574.0580717001576,None,None,574.0580717001576,None,574.8708481300157,None,,,,12015,0002,2022_May_12_1406,localizer,2021.1.3,60.20371736213184,
block,scrambled,scrambled044.bmp,,,,,0,38,38,38,,,,,,,,,,,,,,,,,,,,,,,,,,,,,,,,,,,,,,,,,,None,,574.8708481300157,None,574.8708481300157,None,2022-05-12-14:16:04.384805,574.8814291001763,575.1883296000306,574.8814291001763,None,None,574.8814291001763,None,575.6900139300153,None,,,,12015,0002,2022_May_12_1406,localizer,2021.1.3,60.20371736213184,
block,scrambled,scrambled071.bmp,,,,,0,39,39,39,,,,,,,,,,,,,,,,,,,,,,,,,,,,,,,,,,,,,,,,,,None,,575.6900139300153,None,575.6900139300153,None,2022-05-12-14:16:05.209083,575.6967882001773,576.0046290000901,575.6967882001773,None,None,575.6967882001773,None,576.5049647300505,None,,,,12015,0002,2022_May_12_1406,localizer,2021.1.3,60.20371736213184,
block,scrambled,scrambled068.bmp,,,,,0,40,40,40,,,,,,,,,,,,,,,,,,,,,,,,,,,,,,,,,,,,,,,,,,None,,576.5049647300505,None,576.5049647300505,None,2022-05-12-14:16:06.020102,576.5061068001669,576.820975900162,576.5061068001669,None,None,576.5061068001669,None,577.3058172301855,None,,,,12015,0002,2022_May_12_1406,localizer,2021.1.3,60.20371736213184,
block,scrambled,scrambled070.bmp,,,,,0,41,41,41,,,,,,,,,,,,,,,,,,,,,,,,,,,,,,,,,,,,,,,,,,None,,577.3058172301855,None,577.3058172301855,None,2022-05-12-14:16:06.823742,577.3098824999761,577.6220182999969,577.3098824999761,577.3098824999761,None,577.3098824999761,577.3098824999761,578.1212267301046,None,,,,12015,0002,2022_May_12_1406,localizer,2021.1.3,60.20371736213184,
block,scrambled,scrambled055.bmp,,,,,0,42,42,42,,,,,,,,,,,,,,,,,,,,,,,,,,,,,,,,,,,,,,,,,,None,,578.1212267301046,None,578.1212267301046,None,2022-05-12-14:16:07.635179,578.1313539000694,578.4377831001766,578.1313539000694,None,None,578.1313539000694,None,578.9279602300842,None,,,,12015,0002,2022_May_12_1406,localizer,2021.1.3,60.20371736213184,
block,scrambled,scrambled013.bmp,,,,,0,43,43,43,,,,,,,,,,,,,,,,,,,,,,,,,,,,,,,,,,,,,,,,,,None,,578.9279602300842,None,578.9279602300842,None,2022-05-12-14:16:08.443239,578.9319961001165,579.2380228999536,578.9319961001165,None,None,578.9319961001165,None,579.7378935299814,None,,,,12015,0002,2022_May_12_1406,localizer,2021.1.3,60.20371736213184,
block,scrambled,scrambled049.bmp,,,,,0,44,44,44,,,,,,,,,,,,,,,,,,,,,,,,,,,,,,,,,,,,,,,,,,None,,579.7378935299814,None,579.7378935299814,None,2022-05-12-14:16:09.251848,579.7475801000837,580.0546152000315,579.7475801000837,None,None,579.7475801000837,None,580.5553041301202,None,,,,12015,0002,2022_May_12_1406,localizer,2021.1.3,60.20371736213184,
block_end,scrambled,scrambled054.bmp,,,,,0,45,45,45,,,,,,,,,,,,,,,,,,,,,,,,,,,,,,,,,,,,,,,,,,None,,580.5553041301202,None,580.5553041301202,None,2022-05-12-14:16:10.070845,580.5680627999827,580.8713670000434,580.5680627999827,None,None,580.5680627999827,None,581.3713275301736,None,,,,12015,0002,2022_May_12_1406,localizer,2021.1.3,60.20371736213184,
block_start,scenes,scenes054.bmp,,,,,0,46,46,46,,,,,,,,,,,,,,,,,,,,,,,,,,,,,,,,,,,,,,,,,,t,1.8132141001988202,581.3713098999579,None,581.3713098999579,None,2022-05-12-14:16:12.716944,583.2058415999636,583.5053839001339,583.2058415999636,None,None,583.2058415999636,None,584.0052257301752,None,,,,12015,0002,2022_May_12_1406,localizer,2021.1.3,60.20371736213184,
block,scenes,scenes083.bmp,,,,,0,47,47,47,,,,,,,,,,,,,,,,,,,,,,,,,,,,,,,,,,,,,,,,,,None,,584.0052257301752,None,584.0052257301752,None,2022-05-12-14:16:13.522377,584.0086805000901,584.3212158000097,584.0086805000901,584.0086805000901,None,584.0086805000901,584.0086805000901,584.8214911299758,None,,,,12015,0002,2022_May_12_1406,localizer,2021.1.3,60.20371736213184,
block,scenes,scenes047.bmp,,,,,0,48,48,48,,,,,,,,,,,,,,,,,,,,,,,,,,,,,,,,,,,,,,,,,,None,,584.8214911299758,None,584.8214911299758,None,2022-05-12-14:16:14.336650,584.8324282001704,585.1383470001165,584.8324282001704,None,None,584.8324282001704,None,585.6386128301267,None,,,,12015,0002,2022_May_12_1406,localizer,2021.1.3,60.20371736213184,
block,scenes,scenes047.bmp,,,,,0,49,49,49,,,,,,,,,,,,,,,,,,,,,,,,,,,,,,,,,,,,,,,,,,None,,585.6386128301267,None,585.6386128301267,None,2022-05-12-14:16:15.153552,585.6401816001162,585.9552670000121,585.6401816001162,None,y,585.6401816001162,None,586.4542106299662,None,0.5500968999695033,,,12015,0002,2022_May_12_1406,localizer,2021.1.3,60.20371736213184,
block,scenes,scenes043.bmp,,,,,0,50,50,50,,,,,,,,,,,,,,,,,,,,,,,,,,,,,,,,,,,,,,,,,,None,,586.4542106299662,None,586.4542106299662,None,2022-05-12-14:16:15.968168,586.4556652000174,586.7775483001024,586.4556652000174,None,None,586.4556652000174,None,587.2550858301577,None,,,,12015,0002,2022_May_12_1406,localizer,2021.1.3,60.20371736213184,
block,scenes,scenes005.bmp,,,,,0,51,51,51,,,,,,,,,,,,,,,,,,,,,,,,,,,,,,,,,,,,,,,,,,None,,587.2550858301577,None,587.2550858301577,None,2022-05-12-14:16:16.771209,587.2570794001222,587.5711626000702,587.2570794001222,587.2570794001222,None,587.2570794001222,587.2570794001222,588.0712528301403,None,,,,12015,0002,2022_May_12_1406,localizer,2021.1.3,60.20371736213184,
block,scenes,scenes002.bmp,,,,,0,52,52,52,,,,,,,,,,,,,,,,,,,,,,,,,,,,,,,,,,,,,,,,,,None,,588.0712528301403,None,588.0712528301403,None,2022-05-12-14:16:17.585452,588.0722247001249,588.3880084999837,588.0722247001249,None,None,588.0722247001249,None,588.8713029299863,None,,,,12015,0002,2022_May_12_1406,localizer,2021.1.3,60.20371736213184,
block,scenes,scenes003.bmp,,,,,0,53,53,53,,,,,,,,,,,,,,,,,,,,,,,,,,,,,,,,,,,,,,,,,,None,,588.8713029299863,None,588.8713029299863,None,2022-05-12-14:16:18.387407,588.8726399000734,589.1881018001586,588.8726399000734,588.8726399000734,None,588.8726399000734,588.8726399000734,589.6879477301147,None,,,,12015,0002,2022_May_12_1406,localizer,2021.1.3,60.20371736213184,
block,scenes,scenes042.bmp,,,,,0,54,54,54,,,,,,,,,,,,,,,,,,,,,,,,,,,,,,,,,,,,,,,,,,None,,589.6879477301147,None,589.6879477301147,None,2022-05-12-14:16:19.202114,589.6889230001252,590.0046485001221,589.6889230001252,None,None,589.6889230001252,None,590.4893137300853,None,,,,12015,0002,2022_May_12_1406,localizer,2021.1.3,60.20371736213184,
block,scenes,scenes067.bmp,,,,,0,55,55,55,,,,,,,,,,,,,,,,,,,,,,,,,,,,,,,,,,,,,,,,,,None,,590.4893137300853,None,590.4893137300853,None,2022-05-12-14:16:20.009234,590.5077933000866,590.8221173000056,590.5077933000866,590.5077933000866,None,590.5077933000866,590.5077933000866,591.3058678301052,None,,,,12015,0002,2022_May_12_1406,localizer,2021.1.3,60.20371736213184,
block,scenes,scenes009.bmp,,,,,0,56,56,56,,,,,,,,,,,,,,,,,,,,,,,,,,,,,,,,,,,,,,,,,,None,,591.3058678301052,None,591.3058678301052,None,2022-05-12-14:16:20.821974,591.3082546000369,591.621696999995,591.3082546000369,None,None,591.3082546000369,None,592.1225522300695,None,,,,12015,0002,2022_May_12_1406,localizer,2021.1.3,60.20371736213184,
block,scenes,scenes080.bmp,,,,,0,57,57,57,,,,,,,,,,,,,,,,,,,,,,,,,,,,,,,,,,,,,,,,,,None,,592.1225522300695,None,592.1225522300695,None,2022-05-12-14:16:21.638668,592.1257756999694,592.4380745000672,592.1257756999694,None,None,592.1257756999694,None,592.9376401301008,None,,,,12015,0002,2022_May_12_1406,localizer,2021.1.3,60.20371736213184,
block,scenes,scenes034.bmp,,,,,0,58,58,58,,,,,,,,,,,,,,,,,,,,,,,,,,,,,,,,,,,,,,,,,,None,,592.9376401301008,None,592.9376401301008,None,2022-05-12-14:16:22.451596,592.9463135001715,593.2547188999597,592.9463135001715,None,None,592.9463135001715,None,593.7547777300235,None,,,,12015,0002,2022_May_12_1406,localizer,2021.1.3,60.20371736213184,
block,scenes,scenes088.bmp,,,,,0,59,59,59,,,,,,,,,,,,,,,,,,,,,,,,,,,,,,,,,,,,,,,,,,None,,593.7547777300235,None,593.7547777300235,None,2022-05-12-14:16:23.268728,593.7557233001571,594.0554667001124,593.7557233001571,None,None,593.7557233001571,None,594.5610423300416,None,,,,12015,0002,2022_May_12_1406,localizer,2021.1.3,60.20371736213184,
block_end,scenes,scenes060.bmp,,,,,0,60,60,60,,,,,,,,,,,,,,,,,,,,,,,,,,,,,,,,,,,,,,,,,,None,,594.5610423300416,None,594.5610423300416,None,2022-05-12-14:16:24.080990,594.5675258000847,594.8717599001247,594.5675258000847,None,None,594.5675258000847,None,595.3718215299771,None,,,,12015,0002,2022_May_12_1406,localizer,2021.1.3,60.20371736213184,
null_block,null_block,null_block.bmp,,,,,0,61,61,61,,,,,,,,,,,,,,,,,,,,,,,,,,,,,,,,,,,,,,,,,,t,1.812313700094819,595.3727214999963,None,595.3727214999963,None,2022-05-12-14:16:26.718511,597.2046842300799,None,597.2046842300799,None,None,597.2046842300799,None,597.2073618001305,None,,,,12015,0002,2022_May_12_1406,localizer,2021.1.3,60.20371736213184,
block_start,scrambled,scrambled081.bmp,,,,,0,62,62,62,,,,,,,,,,,,,,,,,,,,,,,,,,,,,,,,,,,,,,,,,,t,1.9622465001884848,609.2221498000436,None,609.2221498000436,None,2022-05-12-14:16:40.719788,611.2177734000143,611.5219737000298,611.2177734000143,None,None,611.2177734000143,None,612.0215654301458,None,,,,12015,0002,2022_May_12_1406,localizer,2021.1.3,60.20371736213184,
block,scrambled,scrambled029.bmp,,,,,0,63,63,63,,,,,,,,,,,,,,,,,,,,,,,,,,,,,,,,,,,,,,,,,,None,,612.0215654301458,None,612.0215654301458,None,2022-05-12-14:16:41.535366,612.0321570001543,612.3384112999775,612.0321570001543,None,None,612.0321570001543,None,612.8401688300539,None,,,,12015,0002,2022_May_12_1406,localizer,2021.1.3,60.20371736213184,
block,scrambled,scrambled082.bmp,,,,,0,64,64,64,,,,,,,,,,,,,,,,,,,,,,,,,,,,,,,,,,,,,,,,,,None,,612.8401688300539,None,612.8401688300539,None,2022-05-12-14:16:42.355102,612.8509266001638,613.1550906000193,612.8509266001638,None,None,612.8509266001638,None,613.6547862301115,None,,,,12015,0002,2022_May_12_1406,localizer,2021.1.3,60.20371736213184,
block,scrambled,scrambled085.bmp,,,,,0,65,65,65,,,,,,,,,,,,,,,,,,,,,,,,,,,,,,,,,,,,,,,,,,None,,613.6547862301115,None,613.6547862301115,None,2022-05-12-14:16:43.169032,613.6556443001609,613.954935700167,613.6556443001609,None,None,613.6556443001609,None,614.4553103300743,None,,,,12015,0002,2022_May_12_1406,localizer,2021.1.3,60.20371736213184,
block,scrambled,scrambled041.bmp,,,,,0,66,66,66,,,,,,,,,,,,,,,,,,,,,,,,,,,,,,,,,,,,,,,,,,None,,614.4553103300743,None,614.4553103300743,None,2022-05-12-14:16:43.972243,614.4584633000195,614.7723165000789,614.4584633000195,614.4584633000195,None,614.4584633000195,614.4584633000195,615.272216229979,None,,,,12015,0002,2022_May_12_1406,localizer,2021.1.3,60.20371736213184,
block,scrambled,scrambled034.bmp,,,,,0,67,67,67,,,,,,,,,,,,,,,,,,,,,,,,,,,,,,,,,,,,,,,,,,None,,615.272216229979,None,615.272216229979,None,2022-05-12-14:16:44.787156,615.2742030001245,615.577963600168,615.2742030001245,None,None,615.2742030001245,None,616.0894319301472,None,,,,12015,0002,2022_May_12_1406,localizer,2021.1.3,60.20371736213184,
block,scrambled,scrambled037.bmp,,,,,0,68,68,68,,,,,,,,,,,,,,,,,,,,,,,,,,,,,,,,,,,,,,,,,,None,,616.0894319301472,None,616.0894319301472,None,2022-05-12-14:16:45.605536,616.091729399981,616.4047340999823,616.091729399981,None,None,616.091729399981,None,616.9060107300058,None,,,,12015,0002,2022_May_12_1406,localizer,2021.1.3,60.20371736213184,
block,scrambled,scrambled052.bmp,,,,,0,69,69,69,,,,,,,,,,,,,,,,,,,,,,,,,,,,,,,,,,,,,,,,,,None,,616.9060107300058,None,616.9060107300058,None,2022-05-12-14:16:46.422868,616.9090804001316,617.2218718000222,616.9090804001316,None,None,616.9090804001316,None,617.7236204301473,None,,,,12015,0002,2022_May_12_1406,localizer,2021.1.3,60.20371736213184,
block,scrambled,scrambled053.bmp,,,,,0,70,70,70,,,,,,,,,,,,,,,,,,,,,,,,,,,,,,,,,,,,,,,,,,None,,617.7236204301473,None,617.7236204301473,None,2022-05-12-14:16:47.242570,617.7432807001751,618.0550200000871,617.7432807001751,None,None,617.7432807001751,None,618.5377745300532,None,,,,12015,0002,2022_May_12_1406,localizer,2021.1.3,60.20371736213184,
block,scrambled,scrambled076.bmp,,,,,0,71,71,71,,,,,,,,,,,,,,,,,,,,,,,,,,,,,,,,,,,,,,,,,,None,,618.5377745300532,None,618.5377745300532,None,2022-05-12-14:16:48.051495,618.5392498001456,618.855578500079,618.5392498001456,None,None,618.5392498001456,None,619.3406578300521,None,,,,12015,0002,2022_May_12_1406,localizer,2021.1.3,60.20371736213184,
block,scrambled,scrambled028.bmp,,,,,0,72,72,72,,,,,,,,,,,,,,,,,,,,,,,,,,,,,,,,,,,,,,,,,,None,,619.3406578300521,None,619.3406578300521,None,2022-05-12-14:16:48.863537,619.3501258001197,619.6554875001311,619.3501258001197,619.3501258001197,None,619.3501258001197,619.3501258001197,620.1570195300039,None,,,,12015,0002,2022_May_12_1406,localizer,2021.1.3,60.20371736213184,
block,scrambled,scrambled030.bmp,,,,,0,73,73,73,,,,,,,,,,,,,,,,,,,,,,,,,,,,,,,,,,,,,,,,,,None,,620.1570195300039,None,620.1570195300039,None,2022-05-12-14:16:49.674114,620.1615399001166,620.4715675001498,620.1615399001166,None,None,620.1615399001166,None,620.9711340300739,None,,,,12015,0002,2022_May_12_1406,localizer,2021.1.3,60.20371736213184,
block,scrambled,scrambled056.bmp,,,,,0,74,74,74,,,,,,,,,,,,,,,,,,,,,,,,,,,,,,,,,,,,,,,,,,None,,620.9711340300739,None,620.9711340300739,None,2022-05-12-14:16:50.485728,620.972388900118,621.2720161001198,620.972388900118,None,None,620.972388900118,None,621.772100230027,None,,,,12015,0002,2022_May_12_1406,localizer,2021.1.3,60.20371736213184,
block,scrambled,scrambled065.bmp,,,,,0,75,75,75,,,,,,,,,,,,,,,,,,,,,,,,,,,,,,,,,,,,,,,,,,None,,621.772100230027,None,621.772100230027,None,2022-05-12-14:16:51.289117,621.7752813999541,622.0881759000476,621.7752813999541,621.7752813999541,None,621.7752813999541,621.7752813999541,622.5881606301293,None,,,,12015,0002,2022_May_12_1406,localizer,2021.1.3,60.20371736213184,
block_end,scrambled,scrambled014.bmp,,,,,0,76,76,76,,,,,,,,,,,,,,,,,,,,,,,,,,,,,,,,,,,,,,,,,,None,,622.5881606301293,None,622.5881606301293,None,2022-05-12-14:16:52.102114,622.5890649000648,622.8884058000986,622.5890649000648,None,None,622.5890649000648,None,623.3881452300586,None,,,,12015,0002,2022_May_12_1406,localizer,2021.1.3,60.20371736213184,
block_start,faces,faces078.bmp,,,,,0,77,77,77,,,,,,,,,,,,,,,,,,,,,,,,,,,,,,,,,,,,,,,,,,t,1.7901942001190037,623.3942950000055,None,623.3942950000055,None,2022-05-12-14:16:54.720394,625.218542000046,625.5216214000247,625.218542000046,None,None,625.218542000046,None,626.0216281300411,None,,,,12015,0002,2022_May_12_1406,localizer,2021.1.3,60.20371736213184,
block,faces,faces070.bmp,,,,,0,78,78,78,,,,,,,,,,,,,,,,,,,,,,,,,,,,,,,,,,,,,,,,,,None,,626.0216281300411,None,626.0216281300411,None,2022-05-12-14:16:55.536325,626.0339035999496,626.3382971000392,626.0339035999496,None,None,626.0339035999496,None,626.8385047300719,None,,,,12015,0002,2022_May_12_1406,localizer,2021.1.3,60.20371736213184,
block,faces,faces057.bmp,,,,,0,79,79,79,,,,,,,,,,,,,,,,,,,,,,,,,,,,,,,,,,,,,,,,,,None,,626.8385047300719,None,626.8385047300719,None,2022-05-12-14:16:56.352669,626.83933290001,627.1549422000535,626.83933290001,None,None,626.83933290001,None,627.6550065300428,None,,,,12015,0002,2022_May_12_1406,localizer,2021.1.3,60.20371736213184,
block,faces,faces002.bmp,,,,,0,80,80,80,,,,,,,,,,,,,,,,,,,,,,,,,,,,,,,,,,,,,,,,,,None,,627.6550065300428,None,627.6550065300428,None,2022-05-12-14:16:57.168959,627.666256400058,627.9716940000653,627.666256400058,None,None,627.666256400058,None,628.471771830041,None,,,,12015,0002,2022_May_12_1406,localizer,2021.1.3,60.20371736213184,
block,faces,faces067.bmp,,,,,0,81,81,81,,,,,,,,,,,,,,,,,,,,,,,,,,,,,,,,,,,,,,,,,,None,,628.471771830041,None,628.471771830041,None,2022-05-12-14:16:57.985721,628.4839959000237,628.7879619000014,628.4839959000237,None,None,628.4839959000237,None,629.2883393301629,None,,,,12015,0002,2022_May_12_1406,localizer,2021.1.3,60.20371736213184,
block,faces,faces021.bmp,,,,,0,82,82,82,,,,,,,,,,,,,,,,,,,,,,,,,,,,,,,,,,,,,,,,,,None,,629.2883393301629,None,629.2883393301629,None,2022-05-12-14:16:58.802293,629.2955267999787,629.6048551001586,629.2955267999787,None,None,629.2955267999787,None,630.1054452301935,None,,,,12015,0002,2022_May_12_1406,localizer,2021.1.3,60.20371736213184,
block,faces,faces008.bmp,,,,,0,83,83,83,,,,,,,,,,,,,,,,,,,,,,,,,,,,,,,,,,,,,,,,,,None,,630.1054452301935,None,630.1054452301935,None,2022-05-12-14:16:59.620411,630.1183321999852,630.421665500151,630.1183321999852,None,None,630.1183321999852,None,630.9211206301582,None,,,,12015,0002,2022_May_12_1406,localizer,2021.1.3,60.20371736213184,
block,faces,faces025.bmp,,,,,0,84,84,84,,,,,,,,,,,,,,,,,,,,,,,,,,,,,,,,,,,,,,,,,,None,,630.9211206301582,None,630.9211206301582,None,2022-05-12-14:17:00.435074,630.9314288001042,631.2382480001543,630.9314288001042,None,None,630.9314288001042,None,631.7394326301758,None,,,,12015,0002,2022_May_12_1406,localizer,2021.1.3,60.20371736213184,
block,faces,faces062.bmp,,,,,0,85,85,85,,,,,,,,,,,,,,,,,,,,,,,,,,,,,,,,,,,,,,,,,,None,,631.7394326301758,None,631.7394326301758,None,2022-05-12-14:17:01.255540,631.7552559000906,632.0551456999965,631.7552559000906,None,None,631.7552559000906,None,632.5551527301316,None,,,,12015,0002,2022_May_12_1406,localizer,2021.1.3,60.20371736213184,
block,faces,faces019.bmp,,,,,0,86,86,86,,,,,,,,,,,,,,,,,,,,,,,,,,,,,,,,,,,,,,,,,,None,,632.5551527301316,None,632.5551527301316,None,2022-05-12-14:17:02.069452,632.5559484001715,632.8557947000954,632.5559484001715,None,None,632.5559484001715,None,633.3555897300132,None,,,,12015,0002,2022_May_12_1406,localizer,2021.1.3,60.20371736213184,
block,faces,faces033.bmp,,,,,0,87,87,87,,,,,,,,,,,,,,,,,,,,,,,,,,,,,,,,,,,,,,,,,,None,,633.3555897300132,None,633.3555897300132,None,2022-05-12-14:17:02.872716,633.3818169001024,633.6885085999966,633.3818169001024,633.3818169001024,None,633.3818169001024,633.3818169001024,634.1715043301695,None,,,,12015,0002,2022_May_12_1406,localizer,2021.1.3,60.20371736213184,
block,faces,faces061.bmp,,,,,0,88,88,88,,,,,,,,,,,,,,,,,,,,,,,,,,,,,,,,,,,,,,,,,,None,,634.1715043301695,None,634.1715043301695,None,2022-05-12-14:17:03.685462,634.1812881000806,634.4887586999685,634.1812881000806,None,None,634.1812881000806,None,634.9884471300059,None,,,,12015,0002,2022_May_12_1406,localizer,2021.1.3,60.20371736213184,
block,faces,faces018.bmp,,,,,0,89,89,89,,,,,,,,,,,,,,,,,,,,,,,,,,,,,,,,,,,,,,,,,,None,,634.9884471300059,None,634.9884471300059,None,2022-05-12-14:17:04.502400,634.9892492999788,635.3049045000225,634.9892492999788,None,None,634.9892492999788,None,635.7883857300505,None,,,,12015,0002,2022_May_12_1406,localizer,2021.1.3,60.20371736213184,
block,faces,faces072.bmp,,,,,0,90,90,90,,,,,,,,,,,,,,,,,,,,,,,,,,,,,,,,,,,,,,,,,,None,,635.7883857300505,None,635.7883857300505,None,2022-05-12-14:17:05.303335,635.7996175000444,636.1052818000317,635.7996175000444,635.7996175000444,None,635.7996175000444,635.7996175000444,636.5943202299998,None,,,,12015,0002,2022_May_12_1406,localizer,2021.1.3,60.20371736213184,
block_end,faces,faces072.bmp,,,,,0,91,91,91,,,,,,,,,,,,,,,,,,,,,,,,,,,,,,,,,,,,,,,,,,None,,636.5943202299998,None,636.5943202299998,None,2022-05-12-14:17:06.114117,636.6006227000616,636.9051222000271,636.6006227000616,None,y,636.6006227000616,None,637.4048941301182,None,0.6011066001374274,,,12015,0002,2022_May_12_1406,localizer,2021.1.3,60.20371736213184,
block_start,scenes,scenes011.bmp,,,,,0,92,92,92,,,,,,,,,,,,,,,,,,,,,,,,,,,,,,,,,,,,,,,,,,t,1.7795314998365939,637.4049893000629,None,637.4049893000629,None,2022-05-12-14:17:08.720690,639.2078925999813,639.5219169000629,639.2078925999813,None,None,639.2078925999813,None,640.0218431300484,None,,,,12015,0002,2022_May_12_1406,localizer,2021.1.3,60.20371736213184,
block,scenes,scenes074.bmp,,,,,0,93,93,93,,,,,,,,,,,,,,,,,,,,,,,,,,,,,,,,,,,,,,,,,,None,,640.0218431300484,None,640.0218431300484,None,2022-05-12-14:17:09.535773,640.032990799984,640.3378302000929,640.032990799984,None,None,640.032990799984,None,640.8442737299949,None,,,,12015,0002,2022_May_12_1406,localizer,2021.1.3,60.20371736213184,
block,scenes,scenes021.bmp,,,,,0,94,94,94,,,,,,,,,,,,,,,,,,,,,,,,,,,,,,,,,,,,,,,,,,None,,640.8442737299949,None,640.8442737299949,None,2022-05-12-14:17:10.358428,640.8491691001691,641.1563367000781,640.8491691001691,None,None,640.8491691001691,None,641.6550175301265,None,,,,12015,0002,2022_May_12_1406,localizer,2021.1.3,60.20371736213184,
block,scenes,scenes014.bmp,,,,,0,95,95,95,,,,,,,,,,,,,,,,,,,,,,,,,,,,,,,,,,,,,,,,,,None,,641.6550175301265,None,641.6550175301265,None,2022-05-12-14:17:11.168782,641.6560758000705,641.9580022001173,641.6560758000705,None,None,641.6560758000705,None,642.4714727299754,None,,,,12015,0002,2022_May_12_1406,localizer,2021.1.3,60.20371736213184,
block,scenes,scenes046.bmp,,,,,0,96,96,96,,,,,,,,,,,,,,,,,,,,,,,,,,,,,,,,,,,,,,,,,,None,,642.4714727299754,None,642.4714727299754,None,2022-05-12-14:17:11.985685,642.4725667000748,642.788416699972,642.4725667000748,None,None,642.4725667000748,None,643.2716683301144,None,,,,12015,0002,2022_May_12_1406,localizer,2021.1.3,60.20371736213184,
block,scenes,scenes079.bmp,,,,,0,97,97,97,,,,,,,,,,,,,,,,,,,,,,,,,,,,,,,,,,,,,,,,,,None,,643.2716683301144,None,643.2716683301144,None,2022-05-12-14:17:12.786617,643.2828967000823,643.5885954000987,643.2828967000823,643.2828967000823,None,643.2828967000823,643.2828967000823,644.0890846301802,None,,,,12015,0002,2022_May_12_1406,localizer,2021.1.3,60.20371736213184,
block,scenes,scenes035.bmp,,,,,0,98,98,98,,,,,,,,,,,,,,,,,,,,,,,,,,,,,,,,,,,,,,,,,,None,,644.0890846301802,None,644.0890846301802,None,2022-05-12-14:17:13.604213,644.1019329000264,644.411212499952,644.1019329000264,None,None,644.1019329000264,None,644.9112108301372,None,,,,12015,0002,2022_May_12_1406,localizer,2021.1.3,60.20371736213184,
block,scenes,scenes053.bmp,,,,,0,99,99,99,,,,,,,,,,,,,,,,,,,,,,,,,,,,,,,,,,,,,,,,,,None,,644.9112108301372,None,644.9112108301372,None,2022-05-12-14:17:14.433131,644.920977300033,645.2217169001233,644.920977300033,None,None,644.920977300033,None,645.7220498300624,None,,,,12015,0002,2022_May_12_1406,localizer,2021.1.3,60.20371736213184,
block,scenes,scenes029.bmp,,,,,0,100,100,100,,,,,,,,,,,,,,,,,,,,,,,,,,,,,,,,,,,,,,,,,,None,,645.7220498300624,None,645.7220498300624,None,2022-05-12-14:17:15.237293,645.7229712000117,646.0383939000312,645.7229712000117,None,None,645.7229712000117,None,646.5229375299998,None,,,,12015,0002,2022_May_12_1406,localizer,2021.1.3,60.20371736213184,
block,scenes,scenes017.bmp,,,,,0,101,101,101,,,,,,,,,,,,,,,,,,,,,,,,,,,,,,,,,,,,,,,,,,None,,646.5229375299998,None,646.5229375299998,None,2022-05-12-14:17:16.040949,646.5402806000784,646.85551699996,646.5402806000784,646.5402806000784,None,646.5402806000784,646.5402806000784,647.3382861300372,None,,,,12015,0002,2022_May_12_1406,localizer,2021.1.3,60.20371736213184,
block,scenes,scenes086.bmp,,,,,0,102,102,102,,,,,,,,,,,,,,,,,,,,,,,,,,,,,,,,,,,,,,,,,,None,,647.3382861300372,None,647.3382861300372,None,2022-05-12-14:17:16.852239,647.3484317001421,647.6551904000808,647.3484317001421,None,None,647.3484317001421,None,648.1548480301165,None,,,,12015,0002,2022_May_12_1406,localizer,2021.1.3,60.20371736213184,
block,scenes,scenes073.bmp,,,,,0,103,103,103,,,,,,,,,,,,,,,,,,,,,,,,,,,,,,,,,,,,,,,,,,None,,648.1548480301165,None,648.1548480301165,None,2022-05-12-14:17:17.668801,648.1667387001216,648.4720850000158,648.1667387001216,None,None,648.1667387001216,None,648.972051230073,None,,,,12015,0002,2022_May_12_1406,localizer,2021.1.3,60.20371736213184,
block,scenes,scenes016.bmp,,,,,0,104,104,104,,,,,,,,,,,,,,,,,,,,,,,,,,,,,,,,,,,,,,,,,,None,,648.972051230073,None,648.972051230073,None,2022-05-12-14:17:18.486193,648.9892881000414,649.2885441000108,648.9892881000414,None,None,648.9892881000414,None,649.7885975300335,None,,,,12015,0002,2022_May_12_1406,localizer,2021.1.3,60.20371736213184,
block,scenes,scenes026.bmp,,,,,0,105,105,105,,,,,,,,,,,,,,,,,,,,,,,,,,,,,,,,,,,,,,,,,,None,,649.7885975300335,None,649.7885975300335,None,2022-05-12-14:17:19.302547,649.7969679001253,650.1048340999987,649.7969679001253,None,None,649.7969679001253,None,650.6051295300015,None,,,,12015,0002,2022_May_12_1406,localizer,2021.1.3,60.20371736213184,
block_end,scenes,scenes092.bmp,,,,,0,106,106,106,,,,,,,,,,,,,,,,,,,,,,,,,,,,,,,,,,,,,,,,,,None,,650.6051295300015,None,650.6051295300015,None,2022-05-12-14:17:20.119292,650.6148348001298,650.9217895001639,650.6148348001298,None,None,650.6148348001298,None,651.411235129973,None,,,,12015,0002,2022_May_12_1406,localizer,2021.1.3,60.20371736213184,
block_start,objects,objects059.bmp,,,,,0,107,107,107,,,,,,,,,,,,,,,,,,,,,,,,,,,,,,,,,,,,,,,,,,t,1.7744251999538392,651.4101484999992,None,651.4101484999992,None,2022-05-12-14:17:22.718992,653.2152715001721,653.5217715001199,653.2152715001721,None,None,653.2152715001721,None,654.0220045301132,None,,,,12015,0002,2022_May_12_1406,localizer,2021.1.3,60.20371736213184,
block,objects,objects060.bmp,,,,,0,108,108,108,,,,,,,,,,,,,,,,,,,,,,,,,,,,,,,,,,,,,,,,,,None,,654.0220045301132,None,654.0220045301132,None,2022-05-12-14:17:23.535825,654.0227989000268,654.3220045999624,654.0227989000268,None,None,654.0227989000268,None,654.8219292301685,None,,,,12015,0002,2022_May_12_1406,localizer,2021.1.3,60.20371736213184,
block,objects,objects013.bmp,,,,,0,109,109,109,,,,,,,,,,,,,,,,,,,,,,,,,,,,,,,,,,,,,,,,,,None,,654.8219292301685,None,654.8219292301685,None,2022-05-12-14:17:24.337874,654.8246782999486,655.1387835999485,654.8246782999486,654.8246782999486,None,654.8246782999486,654.8246782999486,655.63966293009,None,,,,12015,0002,2022_May_12_1406,localizer,2021.1.3,60.20371736213184,
block,objects,objects010.bmp,,,,,0,110,110,110,,,,,,,,,,,,,,,,,,,,,,,,,,,,,,,,,,,,,,,,,,None,,655.63966293009,None,655.63966293009,None,2022-05-12-14:17:25.155771,655.6419577000197,655.9550527001265,655.6419577000197,None,None,655.6419577000197,None,656.4549298300874,None,,,,12015,0002,2022_May_12_1406,localizer,2021.1.3,60.20371736213184,
block,objects,objects051.bmp,,,,,0,111,111,111,,,,,,,,,,,,,,,,,,,,,,,,,,,,,,,,,,,,,,,,,,None,,656.4549298300874,None,656.4549298300874,None,2022-05-12-14:17:25.968982,656.4661962001119,656.7719489999581,656.4661962001119,None,None,656.4661962001119,None,657.2721430301201,None,,,,12015,0002,2022_May_12_1406,localizer,2021.1.3,60.20371736213184,
block,objects,objects034.bmp,,,,,0,112,112,112,,,,,,,,,,,,,,,,,,,,,,,,,,,,,,,,,,,,,,,,,,None,,657.2721430301201,None,657.2721430301201,None,2022-05-12-14:17:26.787294,657.2728510000743,657.572206000099,657.2728510000743,None,None,657.2728510000743,None,658.088476130087,None,,,,12015,0002,2022_May_12_1406,localizer,2021.1.3,60.20371736213184,
block,objects,objects019.bmp,,,,,0,113,113,113,,,,,,,,,,,,,,,,,,,,,,,,,,,,,,,,,,,,,,,,,,None,,658.088476130087,None,658.088476130087,None,2022-05-12-14:17:27.602628,658.0895010000095,658.4050347001757,658.0895010000095,None,None,658.0895010000095,None,658.9047709301115,None,,,,12015,0002,2022_May_12_1406,localizer,2021.1.3,60.20371736213184,
block,objects,objects031.bmp,,,,,0,114,114,114,,,,,,,,,,,,,,,,,,,,,,,,,,,,,,,,,,,,,,,,,,None,,658.9047709301115,None,658.9047709301115,None,2022-05-12-14:17:28.418730,658.9133777001407,659.2218675001059,658.9133777001407,None,None,658.9133777001407,None,659.7216898301151,None,,,,12015,0002,2022_May_12_1406,localizer,2021.1.3,60.20371736213184,
block,objects,objects057.bmp,,,,,0,115,115,115,,,,,,,,,,,,,,,,,,,,,,,,,,,,,,,,,,,,,,,,,,None,,659.7216898301151,None,659.7216898301151,None,2022-05-12-14:17:29.235380,659.7313874999527,660.0384716000408,659.7313874999527,None,None,659.7313874999527,None,660.5392184299883,None,,,,12015,0002,2022_May_12_1406,localizer,2021.1.3,60.20371736213184,
block,objects,objects072.bmp,,,,,0,116,116,116,,,,,,,,,,,,,,,,,,,,,,,,,,,,,,,,,,,,,,,,,,None,,660.5392184299883,None,660.5392184299883,None,2022-05-12-14:17:30.054157,660.5510062000249,660.8550913000945,660.5510062000249,None,None,660.5510062000249,None,661.3553297301289,None,,,,12015,0002,2022_May_12_1406,localizer,2021.1.3,60.20371736213184,
block,objects,objects018.bmp,,,,,0,117,117,117,,,,,,,,,,,,,,,,,,,,,,,,,,,,,,,,,,,,,,,,,,None,,661.3553297301289,None,661.3553297301289,None,2022-05-12-14:17:30.869282,661.3654140001163,661.6720311001409,661.3654140001163,None,None,661.3654140001163,None,662.1718399301637,None,,,,12015,0002,2022_May_12_1406,localizer,2021.1.3,60.20371736213184,
block,objects,objects004.bmp,,,,,0,118,118,118,,,,,,,,,,,,,,,,,,,,,,,,,,,,,,,,,,,,,,,,,,None,,662.1718399301637,None,662.1718399301637,None,2022-05-12-14:17:31.685791,662.1827151000034,662.4884890001267,662.1827151000034,None,None,662.1827151000034,None,662.988823530078,None,,,,12015,0002,2022_May_12_1406,localizer,2021.1.3,60.20371736213184,
block,objects,objects064.bmp,,,,,0,119,119,119,,,,,,,,,,,,,,,,,,,,,,,,,,,,,,,,,,,,,,,,,,None,,662.988823530078,None,662.988823530078,None,2022-05-12-14:17:32.503826,662.9895673000719,663.3052344000898,662.9895673000719,None,None,662.9895673000719,None,663.7891552299727,None,,,,12015,0002,2022_May_12_1406,localizer,2021.1.3,60.20371736213184,
block,objects,objects048.bmp,,,,,0,120,120,120,,,,,,,,,,,,,,,,,,,,,,,,,,,,,,,,,,,,,,,,,,None,,663.7891552299727,None,663.7891552299727,None,2022-05-12-14:17:33.306287,663.8042691999581,664.1051741000265,663.8042691999581,663.8042691999581,None,663.8042691999581,663.8042691999581,664.6052109301556,None,,,,12015,0002,2022_May_12_1406,localizer,2021.1.3,60.20371736213184,
block_end,objects,objects049.bmp,,,,,0,121,121,121,,,,,,,,,,,,,,,,,,,,,,,,,,,,,,,,,,,,,,,,,,None,,664.6052109301556,None,664.6052109301556,None,2022-05-12-14:17:34.119378,664.6164115001447,664.9258791001048,664.6164115001447,None,None,664.6164115001447,None,665.4105895301793,None,,,,12015,0002,2022_May_12_1406,localizer,2021.1.3,60.20371736213184,
block_start,faces,faces045.bmp,,,,,0,122,122,122,,,,,,,,,,,,,,,,,,,,,,,,,,,,,,,,,,,,,,,,,,t,1.7792355997953564,665.4052178000566,None,665.4052178000566,None,2022-05-12-14:17:36.719577,667.2061380001251,667.5057493001223,667.2061380001251,None,None,667.2061380001251,None,668.021371230064,None,,,,12015,0002,2022_May_12_1406,localizer,2021.1.3,60.20371736213184,
block,faces,faces026.bmp,,,,,0,123,123,123,,,,,,,,,,,,,,,,,,,,,,,,,,,,,,,,,,,,,,,,,,None,,668.021371230064,None,668.021371230064,None,2022-05-12-14:17:37.535230,668.0229116000701,668.3224260001443,668.0229116000701,None,None,668.0229116000701,None,668.8219522301108,None,,,,12015,0002,2022_May_12_1406,localizer,2021.1.3,60.20371736213184,
block,faces,faces074.bmp,,,,,0,124,124,124,,,,,,,,,,,,,,,,,,,,,,,,,,,,,,,,,,,,,,,,,,None,,668.8219522301108,None,668.8219522301108,None,2022-05-12-14:17:38.337897,668.8361025999766,669.1389012001455,668.8361025999766,668.8361025999766,None,668.8361025999766,668.8361025999766,669.6384130300023,None,,,,12015,0002,2022_May_12_1406,localizer,2021.1.3,60.20371736213184,
block,faces,faces085.bmp,,,,,0,125,125,125,,,,,,,,,,,,,,,,,,,,,,,,,,,,,,,,,,,,,,,,,,None,,669.6384130300023,None,669.6384130300023,None,2022-05-12-14:17:39.152614,669.6395817999728,669.9553487000521,669.6395817999728,None,None,669.6395817999728,None,670.4549887301866,None,,,,12015,0002,2022_May_12_1406,localizer,2021.1.3,60.20371736213184,
block,faces,faces022.bmp,,,,,0,126,126,126,,,,,,,,,,,,,,,,,,,,,,,,,,,,,,,,,,,,,,,,,,None,,670.4549887301866,None,670.4549887301866,None,2022-05-12-14:17:39.969100,670.4563272001687,670.7717470000498,670.4563272001687,None,None,670.4563272001687,None,671.2554256301839,None,,,,12015,0002,2022_May_12_1406,localizer,2021.1.3,60.20371736213184,
block,faces,faces012.bmp,,,,,0,127,127,127,,,,,,,,,,,,,,,,,,,,,,,,,,,,,,,,,,,,,,,,,,None,,671.2554256301839,None,671.2554256301839,None,2022-05-12-14:17:40.771371,671.2581114000641,671.5719368001446,671.2581114000641,671.2581114000641,None,671.2581114000641,671.2581114000641,672.0717514299788,None,,,,12015,0002,2022_May_12_1406,localizer,2021.1.3,60.20371736213184,
block,faces,faces024.bmp,,,,,0,128,128,128,,,,,,,,,,,,,,,,,,,,,,,,,,,,,,,,,,,,,,,,,,None,,672.0717514299788,None,672.0717514299788,None,2022-05-12-14:17:41.585710,672.0734282000922,672.3885761001147,672.0734282000922,None,None,672.0734282000922,None,672.8888525299728,None,,,,12015,0002,2022_May_12_1406,localizer,2021.1.3,60.20371736213184,
block,faces,faces047.bmp,,,,,0,129,129,129,,,,,,,,,,,,,,,,,,,,,,,,,,,,,,,,,,,,,,,,,,None,,672.8888525299728,None,672.8888525299728,None,2022-05-12-14:17:42.403359,672.9048291000072,673.205318500055,672.9048291000072,None,None,672.9048291000072,None,673.7054593300447,None,,,,12015,0002,2022_May_12_1406,localizer,2021.1.3,60.20371736213184,
block,faces,faces004.bmp,,,,,0,130,130,130,,,,,,,,,,,,,,,,,,,,,,,,,,,,,,,,,,,,,,,,,,None,,673.7054593300447,None,673.7054593300447,None,2022-05-12-14:17:43.219391,673.7062558999751,674.006264799973,673.7062558999751,None,None,673.7062558999751,None,674.5073773300276,None,,,,12015,0002,2022_May_12_1406,localizer,2021.1.3,60.20371736213184,
block,faces,faces017.bmp,,,,,0,131,131,131,,,,,,,,,,,,,,,,,,,,,,,,,,,,,,,,,,,,,,,,,,None,,674.5073773300276,None,674.5073773300276,None,2022-05-12-14:17:44.028454,674.5161900999956,674.8217738000676,674.5161900999956,674.5161900999956,None,674.5161900999956,674.5161900999956,675.3222705300898,None,,,,12015,0002,2022_May_12_1406,localizer,2021.1.3,60.20371736213184,
block,faces,faces039.bmp,,,,,0,132,132,132,,,,,,,,,,,,,,,,,,,,,,,,,,,,,,,,,,,,,,,,,,None,,675.3222705300898,None,675.3222705300898,None,2022-05-12-14:17:44.837312,675.3352559001651,675.6387686000671,675.3352559001651,None,None,675.3352559001651,None,676.1407111301553,None,,,,12015,0002,2022_May_12_1406,localizer,2021.1.3,60.20371736213184,
block,faces,faces013.bmp,,,,,0,133,133,133,,,,,,,,,,,,,,,,,,,,,,,,,,,,,,,,,,,,,,,,,,None,,676.1407111301553,None,676.1407111301553,None,2022-05-12-14:17:45.659604,676.144700899953,676.4550952999853,676.144700899953,None,None,676.144700899953,None,676.9552062300966,None,,,,12015,0002,2022_May_12_1406,localizer,2021.1.3,60.20371736213184,
block,faces,faces060.bmp,,,,,0,134,134,134,,,,,,,,,,,,,,,,,,,,,,,,,,,,,,,,,,,,,,,,,,None,,676.9552062300966,None,676.9552062300966,None,2022-05-12-14:17:46.469162,676.9650857001543,677.2718797000125,676.9650857001543,None,None,676.9650857001543,None,677.771255230112,None,,,,12015,0002,2022_May_12_1406,localizer,2021.1.3,60.20371736213184,
block,faces,faces027.bmp,,,,,0,135,135,135,,,,,,,,,,,,,,,,,,,,,,,,,,,,,,,,,,,,,,,,,,None,,677.771255230112,None,677.771255230112,None,2022-05-12-14:17:47.285433,677.7730946999509,678.0728875000495,677.7730946999509,None,None,677.7730946999509,None,678.5882996300236,None,,,,12015,0002,2022_May_12_1406,localizer,2021.1.3,60.20371736213184,
block_end,faces,faces031.bmp,,,,,0,136,136,136,,,,,,,,,,,,,,,,,,,,,,,,,,,,,,,,,,,,,,,,,,None,,678.5882996300236,None,678.5882996300236,None,2022-05-12-14:17:48.102258,678.5973062000703,678.9051463000942,678.5973062000703,None,None,678.5973062000703,None,679.4053432301619,None,,,,12015,0002,2022_May_12_1406,localizer,2021.1.3,60.20371736213184,
block_start,objects,objects071.bmp,,,,,0,137,137,137,,,,,,,,,,,,,,,,,,,,,,,,,,,,,,,,,,,,,,,,,,t,1.7781126000918448,679.4053212001454,None,679.4053212001454,None,2022-05-12-14:17:50.718345,681.2068638999481,681.5221957999747,681.2068638999481,None,None,681.2068638999481,None,682.0065136300866,None,,,,12015,0002,2022_May_12_1406,localizer,2021.1.3,60.20371736213184,
block,objects,objects019.bmp,,,,,0,138,138,138,,,,,,,,,,,,,,,,,,,,,,,,,,,,,,,,,,,,,,,,,,None,,682.0065136300866,None,682.0065136300866,None,2022-05-12-14:17:51.525416,682.011886500055,682.3227318001445,682.011886500055,682.011886500055,None,682.011886500055,682.011886500055,682.8112882301677,None,,,,12015,0002,2022_May_12_1406,localizer,2021.1.3,60.20371736213184,
block,objects,objects005.bmp,,,,,0,139,139,139,,,,,,,,,,,,,,,,,,,,,,,,,,,,,,,,,,,,,,,,,,None,,682.8112882301677,None,682.8112882301677,None,2022-05-12-14:17:52.327275,682.8160882000811,683.1221555999946,682.8160882000811,682.8160882000811,None,682.8160882000811,682.8160882000811,683.622057030024,None,,,,12015,0002,2022_May_12_1406,localizer,2021.1.3,60.20371736213184,
block,objects,objects049.bmp,,,,,0,140,140,140,,,,,,,,,,,,,,,,,,,,,,,,,,,,,,,,,,,,,,,,,,None,,683.622057030024,None,683.622057030024,None,2022-05-12-14:17:53.136017,683.6231064000167,683.9262709000614,683.6231064000167,None,None,683.6231064000167,None,684.428418529965,None,,,,12015,0002,2022_May_12_1406,localizer,2021.1.3,60.20371736213184,
block,objects,objects034.bmp,,,,,0,141,141,141,,,,,,,,,,,,,,,,,,,,,,,,,,,,,,,,,,,,,,,,,,None,,684.428418529965,None,684.428418529965,None,2022-05-12-14:17:53.947179,684.4336723999586,684.7388889000285,684.4336723999586,None,None,684.4336723999586,None,685.2387864301447,None,,,,12015,0002,2022_May_12_1406,localizer,2021.1.3,60.20371736213184,
block,objects,objects058.bmp,,,,,0,142,142,142,,,,,,,,,,,,,,,,,,,,,,,,,,,,,,,,,,,,,,,,,,None,,685.2387864301447,None,685.2387864301447,None,2022-05-12-14:17:54.752736,685.2395824999548,685.5388967001345,685.2395824999548,None,None,685.2395824999548,None,686.0387779300102,None,,,,12015,0002,2022_May_12_1406,localizer,2021.1.3,60.20371736213184,
block,objects,objects058.bmp,,,,,0,143,143,143,,,,,,,,,,,,,,,,,,,,,,,,,,,,,,,,,,,,,,,,,,None,,686.0387779300102,None,686.0387779300102,None,2022-05-12-14:17:55.554703,686.0416931000073,686.3618010999635,686.0416931000073,686.0416931000073,y,686.0416931000073,686.0416931000073,686.8556763299741,None,0.547610699897632,,,12015,0002,2022_May_12_1406,localizer,2021.1.3,60.20371736213184,
block,objects,objects043.bmp,,,,,0,144,144,144,,,,,,,,,,,,,,,,,,,,,,,,,,,,,,,,,,,,,,,,,,None,,686.8556763299741,None,686.8556763299741,None,2022-05-12-14:17:56.370837,686.8563876000699,687.1558375000022,686.8563876000699,None,None,686.8563876000699,None,687.6555044299923,None,,,,12015,0002,2022_May_12_1406,localizer,2021.1.3,60.20371736213184,
block,objects,objects074.bmp,,,,,0,145,145,145,,,,,,,,,,,,,,,,,,,,,,,,,,,,,,,,,,,,,,,,,,None,,687.6555044299923,None,687.6555044299923,None,2022-05-12-14:17:57.171432,687.656717899954,687.9720269001555,687.656717899954,687.656717899954,None,687.656717899954,687.656717899954,688.4717796301004,None,,,,12015,0002,2022_May_12_1406,localizer,2021.1.3,60.20371736213184,
block,objects,objects087.bmp,,,,,0,146,146,146,,,,,,,,,,,,,,,,,,,,,,,,,,,,,,,,,,,,,,,,,,None,,688.4717796301004,None,688.4717796301004,None,2022-05-12-14:17:57.986010,688.5088969001081,688.8219475001097,688.5088969001081,None,None,688.5088969001081,None,689.2888153300621,None,,,,12015,0002,2022_May_12_1406,localizer,2021.1.3,60.20371736213184,
block,objects,objects006.bmp,,,,,0,147,147,147,,,,,,,,,,,,,,,,,,,,,,,,,,,,,,,,,,,,,,,,,,None,,689.2888153300621,None,689.2888153300621,None,2022-05-12-14:17:58.802768,689.2895782000851,689.5888668999542,689.2895782000851,None,None,689.2895782000851,None,690.0887353299652,None,,,,12015,0002,2022_May_12_1406,localizer,2021.1.3,60.20371736213184,
block,objects,objects023.bmp,,,,,0,148,148,148,,,,,,,,,,,,,,,,,,,,,,,,,,,,,,,,,,,,,,,,,,None,,690.0887353299652,None,690.0887353299652,None,2022-05-12-14:17:59.604427,690.0912957000546,690.4052834999748,690.0912957000546,690.0912957000546,None,690.0912957000546,690.0912957000546,690.9060535300989,None,,,,12015,0002,2022_May_12_1406,localizer,2021.1.3,60.20371736213184,
block,objects,objects027.bmp,,,,,0,149,149,149,,,,,,,,,,,,,,,,,,,,,,,,,,,,,,,,,,,,,,,,,,None,,690.9060535300989,None,690.9060535300989,None,2022-05-12-14:18:00.421184,690.9081320001278,691.2228936001193,690.9081320001278,None,None,690.9081320001278,None,691.7220293300227,None,,,,12015,0002,2022_May_12_1406,localizer,2021.1.3,60.20371736213184,
block,objects,objects035.bmp,,,,,0,150,150,150,,,,,,,,,,,,,,,,,,,,,,,,,,,,,,,,,,,,,,,,,,None,,691.7220293300227,None,691.7220293300227,None,2022-05-12-14:18:01.235615,691.7300879000686,692.039684599964,691.7300879000686,None,None,691.7300879000686,None,692.5385261301883,None,,,,12015,0002,2022_May_12_1406,localizer,2021.1.3,60.20371736213184,
block_end,objects,objects084.bmp,,,,,0,151,151,151,,,,,,,,,,,,,,,,,,,,,,,,,,,,,,,,,,,,,,,,,,None,,692.5385261301883,None,692.5385261301883,None,2022-05-12-14:18:02.052541,692.5395504999906,692.8389204000123,692.5395504999906,None,None,692.5395504999906,None,693.3399855301716,None,,,,12015,0002,2022_May_12_1406,localizer,2021.1.3,60.20371736213184,
null_block,null_block,null_block.bmp,,,,,0,152,152,152,,,,,,,,,,,,,,,,,,,,,,,,,,,,,,,,,,,,,,,,,,t,1.8427935000509024,693.34071759996,None,693.34071759996,None,2022-05-12-14:18:04.718413,695.2054565300234,None,695.2054565300234,None,None,695.2054565300234,None,695.2080203001387,None,,,,12015,0002,2022_May_12_1406,localizer,2021.1.3,60.20371736213184,
block_start,scenes,scenes069.bmp,,,,,0,153,153,153,,,,,,,,,,,,,,,,,,,,,,,,,,,,,,,,,,,,,,,,,,t,1.9615120999515057,707.2220610999502,None,707.2220610999502,None,2022-05-12-14:18:18.724620,709.2107168999501,709.5221403001342,709.2107168999501,None,None,709.2107168999501,None,710.0220683301334,None,,,,12015,0002,2022_May_12_1406,localizer,2021.1.3,60.20371736213184,
block,scenes,scenes035.bmp,,,,,0,154,154,154,,,,,,,,,,,,,,,,,,,,,,,,,,,,,,,,,,,,,,,,,,None,,710.0220683301334,None,710.0220683301334,None,2022-05-12-14:18:19.536187,710.0230432001408,710.3221989001613,710.0230432001408,None,None,710.0230432001408,None,710.8224251301028,None,,,,12015,0002,2022_May_12_1406,localizer,2021.1.3,60.20371736213184,
block,scenes,scenes077.bmp,,,,,0,155,155,155,,,,,,,,,,,,,,,,,,,,,,,,,,,,,,,,,,,,,,,,,,None,,710.8224251301028,None,710.8224251301028,None,2022-05-12-14:18:20.338575,710.8252479000948,711.1394903999753,710.8252479000948,710.8252479000948,None,710.8252479000948,710.8252479000948,711.6387142299675,None,,,,12015,0002,2022_May_12_1406,localizer,2021.1.3,60.20371736213184,
block,scenes,scenes064.bmp,,,,,0,156,156,156,,,,,,,,,,,,,,,,,,,,,,,,,,,,,,,,,,,,,,,,,,None,,711.6387142299675,None,711.6387142299675,None,2022-05-12-14:18:21.152733,711.6435623001307,711.9554236000404,711.6435623001307,None,None,711.6435623001307,None,712.4555495300331,None,,,,12015,0002,2022_May_12_1406,localizer,2021.1.3,60.20371736213184,
block,scenes,scenes012.bmp,,,,,0,157,157,157,,,,,,,,,,,,,,,,,,,,,,,,,,,,,,,,,,,,,,,,,,None,,712.4555495300331,None,712.4555495300331,None,2022-05-12-14:18:21.969750,712.4653986999765,712.7723203999922,712.4653986999765,None,None,712.4653986999765,None,713.2726619299967,None,,,,12015,0002,2022_May_12_1406,localizer,2021.1.3,60.20371736213184,
block,scenes,scenes088.bmp,,,,,0,158,158,158,,,,,,,,,,,,,,,,,,,,,,,,,,,,,,,,,,,,,,,,,,None,,713.2726619299967,None,713.2726619299967,None,2022-05-12-14:18:22.786608,713.273475700058,713.5887082000263,713.273475700058,None,None,713.273475700058,None,714.0885616301559,None,,,,12015,0002,2022_May_12_1406,localizer,2021.1.3,60.20371736213184,
block,scenes,scenes076.bmp,,,,,0,159,159,159,,,,,,,,,,,,,,,,,,,,,,,,,,,,,,,,,,,,,,,,,,None,,714.0885616301559,None,714.0885616301559,None,2022-05-12-14:18:23.602517,714.0899514001794,714.4051259001717,714.0899514001794,None,None,714.0899514001794,None,714.8889977301471,None,,,,12015,0002,2022_May_12_1406,localizer,2021.1.3,60.20371736213184,
block,scenes,scenes085.bmp,,,,,0,160,160,160,,,,,,,,,,,,,,,,,,,,,,,,,,,,,,,,,,,,,,,,,,None,,714.8889977301471,None,714.8889977301471,None,2022-05-12-14:18:24.405138,714.9010336999781,715.2058491001371,714.9010336999781,714.9010336999781,None,714.9010336999781,714.9010336999781,715.7055220301729,None,,,,12015,0002,2022_May_12_1406,localizer,2021.1.3,60.20371736213184,
block,scenes,scenes054.bmp,,,,,0,161,161,161,,,,,,,,,,,,,,,,,,,,,,,,,,,,,,,,,,,,,,,,,,None,,715.7055220301729,None,715.7055220301729,None,2022-05-12-14:18:25.219475,715.7064972000662,716.0223447000608,715.7064972000662,None,None,715.7064972000662,None,716.5083514301107,None,,,,12015,0002,2022_May_12_1406,localizer,2021.1.3,60.20371736213184,
block,scenes,scenes011.bmp,,,,,0,162,162,162,,,,,,,,,,,,,,,,,,,,,,,,,,,,,,,,,,,,,,,,,,None,,716.5083514301107,None,716.5083514301107,None,2022-05-12-14:18:26.029257,716.5159790001344,716.8234359000344,716.5159790001344,716.5159790001344,None,716.5159790001344,716.5159790001344,717.322956530191,None,,,,12015,0002,2022_May_12_1406,localizer,2021.1.3,60.20371736213184,
block,scenes,scenes089.bmp,,,,,0,163,163,163,,,,,,,,,,,,,,,,,,,,,,,,,,,,,,,,,,,,,,,,,,None,,717.322956530191,None,717.322956530191,None,2022-05-12-14:18:26.838013,717.3358386000618,717.639076200081,717.3358386000618,None,None,717.3358386000618,None,718.1395828300622,None,,,,12015,0002,2022_May_12_1406,localizer,2021.1.3,60.20371736213184,
block,scenes,scenes074.bmp,,,,,0,164,164,164,,,,,,,,,,,,,,,,,,,,,,,,,,,,,,,,,,,,,,,,,,None,,718.1395828300622,None,718.1395828300622,None,2022-05-12-14:18:27.654522,718.1412130000535,718.4554532000329,718.1412130000535,None,None,718.1412130000535,None,718.9410472300835,None,,,,12015,0002,2022_May_12_1406,localizer,2021.1.3,60.20371736213184,
block,scenes,scenes043.bmp,,,,,0,165,165,165,,,,,,,,,,,,,,,,,,,,,,,,,,,,,,,,,,,,,,,,,,None,,718.9410472300835,None,718.9410472300835,None,2022-05-12-14:18:28.461146,718.94878039998,719.2563036000356,718.94878039998,718.94878039998,None,718.94878039998,718.94878039998,719.7555486301892,None,,,,12015,0002,2022_May_12_1406,localizer,2021.1.3,60.20371736213184,
block,scenes,scenes033.bmp,,,,,0,166,166,166,,,,,,,,,,,,,,,,,,,,,,,,,,,,,,,,,,,,,,,,,,None,,719.7555486301892,None,719.7555486301892,None,2022-05-12-14:18:29.269503,719.7565307000186,720.0723018001299,719.7565307000186,None,None,719.7565307000186,None,720.5558696301189,None,,,,12015,0002,2022_May_12_1406,localizer,2021.1.3,60.20371736213184,
block_end,scenes,scenes068.bmp,,,,,0,167,167,167,,,,,,,,,,,,,,,,,,,,,,,,,,,,,,,,,,,,,,,,,,None,,720.5558696301189,None,720.5558696301189,None,2022-05-12-14:18:30.072809,720.5706528001465,720.872047400102,720.5706528001465,720.5706528001465,None,720.5706528001465,720.5706528001465,721.3720415300224,None,,,,12015,0002,2022_May_12_1406,localizer,2021.1.3,60.20371736213184,
block_start,scrambled,scrambled081.bmp,,,,,0,168,168,168,,,,,,,,,,,,,,,,,,,,,,,,,,,,,,,,,,,,,,,,,,t,1.8117398000322282,721.3719242999796,None,721.3719242999796,None,2022-05-12-14:18:32.722920,723.2163275000639,723.5222382999491,723.2163275000639,None,None,723.2163275000639,None,724.0231734300498,None,,,,12015,0002,2022_May_12_1406,localizer,2021.1.3,60.20371736213184,
block,scrambled,scrambled049.bmp,,,,,0,169,169,169,,,,,,,,,,,,,,,,,,,,,,,,,,,,,,,,,,,,,,,,,,None,,724.0231734300498,None,724.0231734300498,None,2022-05-12-14:18:33.539041,724.0261554000899,724.3390461001545,724.0261554000899,None,None,724.0261554000899,None,724.839357830165,None,,,,12015,0002,2022_May_12_1406,localizer,2021.1.3,60.20371736213184,
block,scrambled,scrambled046.bmp,,,,,0,170,170,170,,,,,,,,,,,,,,,,,,,,,,,,,,,,,,,,,,,,,,,,,,None,,724.839357830165,None,724.839357830165,None,2022-05-12-14:18:34.354284,724.8472341999877,725.1557591001038,724.8472341999877,None,None,724.8472341999877,None,725.655519230105,None,,,,12015,0002,2022_May_12_1406,localizer,2021.1.3,60.20371736213184,
block,scrambled,scrambled082.bmp,,,,,0,171,171,171,,,,,,,,,,,,,,,,,,,,,,,,,,,,,,,,,,,,,,,,,,None,,725.655519230105,None,725.655519230105,None,2022-05-12-14:18:35.169470,725.6565845999867,725.956066200044,725.6565845999867,None,None,725.6565845999867,None,726.4721133299638,None,,,,12015,0002,2022_May_12_1406,localizer,2021.1.3,60.20371736213184,
block,scrambled,scrambled004.bmp,,,,,0,172,172,172,,,,,,,,,,,,,,,,,,,,,,,,,,,,,,,,,,,,,,,,,,None,,726.4721133299638,None,726.4721133299638,None,2022-05-12-14:18:35.986246,726.4732528000604,726.7891155001707,726.4732528000604,None,None,726.4732528000604,None,727.2725895301439,None,,,,12015,0002,2022_May_12_1406,localizer,2021.1.3,60.20371736213184,
block,scrambled,scrambled014.bmp,,,,,0,173,173,173,,,,,,,,,,,,,,,,,,,,,,,,,,,,,,,,,,,,,,,,,,None,,727.2725895301439,None,727.2725895301439,None,2022-05-12-14:18:36.789512,727.275567300152,727.5955507999752,727.275567300152,727.275567300152,None,727.275567300152,727.275567300152,728.090322330175,None,,,,12015,0002,2022_May_12_1406,localizer,2021.1.3,60.20371736213184,
block,scrambled,scrambled056.bmp,,,,,0,174,174,174,,,,,,,,,,,,,,,,,,,,,,,,,,,,,,,,,,,,,,,,,,None,,728.090322330175,None,728.090322330175,None,2022-05-12-14:18:37.606434,728.0925921001472,728.4058434001636,728.0925921001472,None,None,728.0925921001472,None,728.9056918300223,None,,,,12015,0002,2022_May_12_1406,localizer,2021.1.3,60.20371736213184,
block,scrambled,scrambled037.bmp,,,,,0,175,175,175,,,,,,,,,,,,,,,,,,,,,,,,,,,,,,,,,,,,,,,,,,None,,728.9056918300223,None,728.9056918300223,None,2022-05-12-14:18:38.419853,728.9066566000693,729.2225258001126,728.9066566000693,None,None,728.9066566000693,None,729.7057141301223,None,,,,12015,0002,2022_May_12_1406,localizer,2021.1.3,60.20371736213184,
block,scrambled,scrambled039.bmp,,,,,0,176,176,176,,,,,,,,,,,,,,,,,,,,,,,,,,,,,,,,,,,,,,,,,,None,,729.7057141301223,None,729.7057141301223,None,2022-05-12-14:18:39.221492,729.7082355001476,730.0224008001387,729.7082355001476,729.7082355001476,None,729.7082355001476,729.7082355001476,730.5221976300702,None,,,,12015,0002,2022_May_12_1406,localizer,2021.1.3,60.20371736213184,
block,scrambled,scrambled072.bmp,,,,,0,177,177,177,,,,,,,,,,,,,,,,,,,,,,,,,,,,,,,,,,,,,,,,,,None,,730.5221976300702,None,730.5221976300702,None,2022-05-12-14:18:40.036173,730.5304295001552,730.8391126999632,730.5304295001552,None,None,730.5304295001552,None,731.3391138301697,None,,,,12015,0002,2022_May_12_1406,localizer,2021.1.3,60.20371736213184,
block,scrambled,scrambled026.bmp,,,,,0,178,178,178,,,,,,,,,,,,,,,,,,,,,,,,,,,,,,,,,,,,,,,,,,None,,731.3391138301697,None,731.3391138301697,None,2022-05-12-14:18:40.852971,731.3400083000306,731.6558652000967,731.3400083000306,None,None,731.3400083000306,None,732.1391510300339,None,,,,12015,0002,2022_May_12_1406,localizer,2021.1.3,60.20371736213184,
block,scrambled,scrambled027.bmp,,,,,0,179,179,179,,,,,,,,,,,,,,,,,,,,,,,,,,,,,,,,,,,,,,,,,,None,,732.1391510300339,None,732.1391510300339,None,2022-05-12-14:18:41.655095,732.1419977000915,732.4559245000128,732.1419977000915,732.1419977000915,None,732.1419977000915,732.1419977000915,732.9555126301013,None,,,,12015,0002,2022_May_12_1406,localizer,2021.1.3,60.20371736213184,
block,scrambled,scrambled044.bmp,,,,,0,180,180,180,,,,,,,,,,,,,,,,,,,,,,,,,,,,,,,,,,,,,,,,,,None,,732.9555126301013,None,732.9555126301013,None,2022-05-12-14:18:42.469467,732.9566312001552,733.2564216000028,732.9566312001552,None,None,732.9566312001552,None,733.7564438300208,None,,,,12015,0002,2022_May_12_1406,localizer,2021.1.3,60.20371736213184,
block,scrambled,scrambled073.bmp,,,,,0,181,181,181,,,,,,,,,,,,,,,,,,,,,,,,,,,,,,,,,,,,,,,,,,None,,733.7564438300208,None,733.7564438300208,None,2022-05-12-14:18:43.274577,733.7730201999657,734.0724543000106,733.7730201999657,733.7730201999657,None,733.7730201999657,733.7730201999657,734.572013329994,None,,,,12015,0002,2022_May_12_1406,localizer,2021.1.3,60.20371736213184,
block_end,scrambled,scrambled070.bmp,,,,,0,182,182,182,,,,,,,,,,,,,,,,,,,,,,,,,,,,,,,,,,,,,,,,,,None,,734.572013329994,None,734.572013329994,None,2022-05-12-14:18:44.085968,734.5734530000482,734.8887909001205,734.5734530000482,None,None,734.5734530000482,None,735.3888544301037,None,,,,12015,0002,2022_May_12_1406,localizer,2021.1.3,60.20371736213184,
block_start,scenes,scenes012.bmp,,,,,0,183,183,183,,,,,,,,,,,,,,,,,,,,,,,,,,,,,,,,,,,,,,,,,,t,1.7878602999262512,735.3954974000808,None,735.3954974000808,None,2022-05-12-14:18:46.718646,737.2066311000381,737.5222682000604,737.2066311000381,None,None,737.2066311000381,None,738.0065591300838,None,,,,12015,0002,2022_May_12_1406,localizer,2021.1.3,60.20371736213184,
block,scenes,scenes018.bmp,,,,,0,184,184,184,,,,,,,,,,,,,,,,,,,,,,,,,,,,,,,,,,,,,,,,,,None,,738.0065591300838,None,738.0065591300838,None,2022-05-12-14:18:47.523568,738.0182306000497,738.3223615000024,738.0182306000497,738.0182306000497,None,738.0182306000497,738.0182306000497,738.8223414300476,None,,,,12015,0002,2022_May_12_1406,localizer,2021.1.3,60.20371736213184,
block,scenes,scenes009.bmp,,,,,0,185,185,185,,,,,,,,,,,,,,,,,,,,,,,,,,,,,,,,,,,,,,,,,,None,,738.8223414300476,None,738.8223414300476,None,2022-05-12-14:18:48.336308,738.8233535001054,739.1397361999843,738.8233535001054,None,None,738.8233535001054,None,739.6231083299965,None,,,,12015,0002,2022_May_12_1406,localizer,2021.1.3,60.20371736213184,
block,scenes,scenes003.bmp,,,,,0,186,186,186,,,,,,,,,,,,,,,,,,,,,,,,,,,,,,,,,,,,,,,,,,None,,739.6231083299965,None,739.6231083299965,None,2022-05-12-14:18:49.140027,739.6261760999914,739.9221290000714,739.6261760999914,739.6261760999914,None,739.6261760999914,739.6261760999914,740.4277205300052,None,,,,12015,0002,2022_May_12_1406,localizer,2021.1.3,60.20371736213184,
block,scenes,scenes017.bmp,,,,,0,187,187,187,,,,,,,,,,,,,,,,,,,,,,,,,,,,,,,,,,,,,,,,,,None,,740.4277205300052,None,740.4277205300052,None,2022-05-12-14:18:49.946588,740.4317995000165,740.7389930000063,740.4317995000165,740.4317995000165,None,740.4317995000165,740.4317995000165,741.2396765300539,None,,,,12015,0002,2022_May_12_1406,localizer,2021.1.3,60.20371736213184,
block,scenes,scenes075.bmp,,,,,0,188,188,188,,,,,,,,,,,,,,,,,,,,,,,,,,,,,,,,,,,,,,,,,,None,,741.2396765300539,None,741.2396765300539,None,2022-05-12-14:18:50.754615,741.2413882000837,741.5566126999911,741.2413882000837,None,None,741.2413882000837,None,742.0411242300645,None,,,,12015,0002,2022_May_12_1406,localizer,2021.1.3,60.20371736213184,
block,scenes,scenes061.bmp,,,,,0,189,189,189,,,,,,,,,,,,,,,,,,,,,,,,,,,,,,,,,,,,,,,,,,None,,742.0411242300645,None,742.0411242300645,None,2022-05-12-14:18:51.561207,742.0635112000164,742.3722457000986,742.0635112000164,742.0635112000164,None,742.0635112000164,742.0635112000164,742.8578588301782,None,,,,12015,0002,2022_May_12_1406,localizer,2021.1.3,60.20371736213184,
block,scenes,scenes065.bmp,,,,,0,190,190,190,,,,,,,,,,,,,,,,,,,,,,,,,,,,,,,,,,,,,,,,,,None,,742.8578588301782,None,742.8578588301782,None,2022-05-12-14:18:52.377607,742.8640889001545,743.1728752001654,742.8640889001545,None,None,742.8640889001545,None,743.6724206300453,None,,,,12015,0002,2022_May_12_1406,localizer,2021.1.3,60.20371736213184,
block,scenes,scenes006.bmp,,,,,0,191,191,191,,,,,,,,,,,,,,,,,,,,,,,,,,,,,,,,,,,,,,,,,,None,,743.6724206300453,None,743.6724206300453,None,2022-05-12-14:18:53.185386,743.6811645000707,743.9894111000467,743.6811645000707,None,None,743.6811645000707,None,744.4891513300129,None,,,,12015,0002,2022_May_12_1406,localizer,2021.1.3,60.20371736213184,
block,scenes,scenes091.bmp,,,,,0,192,192,192,,,,,,,,,,,,,,,,,,,,,,,,,,,,,,,,,,,,,,,,,,None,,744.4891513300129,None,744.4891513300129,None,2022-05-12-14:18:54.003102,744.490162699949,744.8059579001274,744.490162699949,None,None,744.490162699949,None,745.3055056301412,None,,,,12015,0002,2022_May_12_1406,localizer,2021.1.3,60.20371736213184,
block,scenes,scenes008.bmp,,,,,0,193,193,193,,,,,,,,,,,,,,,,,,,,,,,,,,,,,,,,,,,,,,,,,,None,,745.3055056301412,None,745.3055056301412,None,2022-05-12-14:18:54.819731,745.3069045001175,745.6061809000093,745.3069045001175,None,None,745.3069045001175,None,746.1061898300425,None,,,,12015,0002,2022_May_12_1406,localizer,2021.1.3,60.20371736213184,
block,scenes,scenes057.bmp,,,,,0,194,194,194,,,,,,,,,,,,,,,,,,,,,,,,,,,,,,,,,,,,,,,,,,None,,746.1061898300425,None,746.1061898300425,None,2022-05-12-14:18:55.622607,746.120050100144,746.4222721001133,746.120050100144,746.120050100144,None,746.120050100144,746.120050100144,746.9286896300503,None,,,,12015,0002,2022_May_12_1406,localizer,2021.1.3,60.20371736213184,
block,scenes,scenes088.bmp,,,,,0,195,195,195,,,,,,,,,,,,,,,,,,,,,,,,,,,,,,,,,,,,,,,,,,None,,746.9286896300503,None,746.9286896300503,None,2022-05-12-14:18:56.447948,746.9347290000878,747.2396088000387,746.9347290000878,None,None,746.9347290000878,None,747.7392306300346,None,,,,12015,0002,2022_May_12_1406,localizer,2021.1.3,60.20371736213184,
block,scenes,scenes036.bmp,,,,,0,196,196,196,,,,,,,,,,,,,,,,,,,,,,,,,,,,,,,,,,,,,,,,,,None,,747.7392306300346,None,747.7392306300346,None,2022-05-12-14:18:57.253182,747.7401193000842,748.0395419001579,747.7401193000842,None,None,747.7401193000842,None,748.5391308300198,None,,,,12015,0002,2022_May_12_1406,localizer,2021.1.3,60.20371736213184,
block_end,scenes,scenes039.bmp,,,,,0,197,197,197,,,,,,,,,,,,,,,,,,,,,,,,,,,,,,,,,,,,,,,,,,None,,748.5391308300198,None,748.5391308300198,None,2022-05-12-14:18:58.054082,748.5504171999637,748.8559485001024,748.5504171999637,748.5504171999637,None,748.5504171999637,748.5504171999637,749.3558616301045,None,,,,12015,0002,2022_May_12_1406,localizer,2021.1.3,60.20371736213184,
null_block,null_block,null_block.bmp,,,,,0,198,198,198,,,,,,,,,,,,,,,,,,,,,,,,,,,,,,,,,,,,,,,,,,t,1.8278405999299139,749.3556498000398,None,749.3556498000398,None,2022-05-12-14:19:00.721478,751.2065379301087,None,751.2065379301087,None,None,751.2065379301087,None,751.2123649001587,None,,,,12015,0002,2022_May_12_1406,localizer,2021.1.3,60.20371736213184,
block_start,scrambled,scrambled075.bmp,,,,,0,199,199,199,,,,,,,,,,,,,,,,,,,,,,,,,,,,,,,,,,,,,,,,,,t,1.9602129999548197,763.2232613000087,None,763.2232613000087,None,2022-05-12-14:19:14.722026,765.2179225999862,765.5226735000033,765.2179225999862,None,None,765.2179225999862,None,766.0230600301177,None,,,,12015,0002,2022_May_12_1406,localizer,2021.1.3,60.20371736213184,
block,scrambled,scrambled075.bmp,,,,,0,200,200,200,,,,,,,,,,,,,,,,,,,,,,,,,,,,,,,,,,,,,,,,,,None,,766.0230600301177,None,766.0230600301177,None,2022-05-12-14:19:15.538193,766.0235769001301,766.3230402001645,766.0235769001301,None,y,766.0235769001301,None,766.8390897301026,None,0.6208794000558555,,,12015,0002,2022_May_12_1406,localizer,2021.1.3,60.20371736213184,
block,scrambled,scrambled032.bmp,,,,,0,201,201,201,,,,,,,,,,,,,,,,,,,,,,,,,,,,,,,,,,,,,,,,,,None,,766.8390897301026,None,766.8390897301026,None,2022-05-12-14:19:16.353055,766.8404820000287,767.1400846999604,766.8404820000287,None,None,766.8404820000287,None,767.6412087299861,None,,,,12015,0002,2022_May_12_1406,localizer,2021.1.3,60.20371736213184,
block,scrambled,scrambled052.bmp,,,,,0,202,202,202,,,,,,,,,,,,,,,,,,,,,,,,,,,,,,,,,,,,,,,,,,None,,767.6412087299861,None,767.6412087299861,None,2022-05-12-14:19:17.162287,767.6488918000832,767.9566907000262,767.6488918000832,767.6488918000832,None,767.6488918000832,767.6488918000832,768.4561924301554,None,,,,12015,0002,2022_May_12_1406,localizer,2021.1.3,60.20371736213184,
block,scrambled,scrambled048.bmp,,,,,0,203,203,203,,,,,,,,,,,,,,,,,,,,,,,,,,,,,,,,,,,,,,,,,,None,,768.4561924301554,None,768.4561924301554,None,2022-05-12-14:19:17.970141,768.4571824001614,768.7726835999638,768.4571824001614,None,None,768.4571824001614,None,769.2728450301104,None,,,,12015,0002,2022_May_12_1406,localizer,2021.1.3,60.20371736213184,
block,scrambled,scrambled077.bmp,,,,,0,204,204,204,,,,,,,,,,,,,,,,,,,,,,,,,,,,,,,,,,,,,,,,,,None,,769.2728450301104,None,769.2728450301104,None,2022-05-12-14:19:18.787020,769.2846880001016,769.5894631999545,769.2846880001016,None,None,769.2846880001016,None,770.0896628301591,None,,,,12015,0002,2022_May_12_1406,localizer,2021.1.3,60.20371736213184,
block,scrambled,scrambled024.bmp,,,,,0,205,205,205,,,,,,,,,,,,,,,,,,,,,,,,,,,,,,,,,,,,,,,,,,None,,770.0896628301591,None,770.0896628301591,None,2022-05-12-14:19:19.604777,770.090365699958,770.3896097000688,770.090365699958,None,None,770.090365699958,None,770.8898948301096,None,,,,12015,0002,2022_May_12_1406,localizer,2021.1.3,60.20371736213184,
block,scrambled,scrambled062.bmp,,,,,0,206,206,206,,,,,,,,,,,,,,,,,,,,,,,,,,,,,,,,,,,,,,,,,,None,,770.8898948301096,None,770.8898948301096,None,2022-05-12-14:19:20.407019,770.8931621001102,771.2069417000748,770.8931621001102,770.8931621001102,None,770.8931621001102,770.8931621001102,771.7064600300976,None,,,,12015,0002,2022_May_12_1406,localizer,2021.1.3,60.20371736213184,
block,scrambled,scrambled049.bmp,,,,,0,207,207,207,,,,,,,,,,,,,,,,,,,,,,,,,,,,,,,,,,,,,,,,,,None,,771.7064600300976,None,771.7064600300976,None,2022-05-12-14:19:21.221400,771.7080033000093,772.0072833001614,771.7080033000093,None,None,771.7080033000093,None,772.5071422299836,None,,,,12015,0002,2022_May_12_1406,localizer,2021.1.3,60.20371736213184,
block,scrambled,scrambled005.bmp,,,,,0,208,208,208,,,,,,,,,,,,,,,,,,,,,,,,,,,,,,,,,,,,,,,,,,None,,772.5071422299836,None,772.5071422299836,None,2022-05-12-14:19:22.025255,772.523952000076,772.8230852000415,772.523952000076,772.523952000076,None,772.523952000076,772.523952000076,773.322867129976,None,,,,12015,0002,2022_May_12_1406,localizer,2021.1.3,60.20371736213184,
block,scrambled,scrambled053.bmp,,,,,0,209,209,209,,,,,,,,,,,,,,,,,,,,,,,,,,,,,,,,,,,,,,,,,,None,,773.322867129976,None,773.322867129976,None,2022-05-12-14:19:22.836818,773.3236182001419,773.6235673001502,773.3236182001419,None,None,773.3236182001419,None,774.1233071301133,None,,,,12015,0002,2022_May_12_1406,localizer,2021.1.3,60.20371736213184,
block,scrambled,scrambled040.bmp,,,,,0,210,210,210,,,,,,,,,,,,,,,,,,,,,,,,,,,,,,,,,,,,,,,,,,None,,774.1233071301133,None,774.1233071301133,None,2022-05-12-14:19:23.640246,774.1264186000917,774.42879250017,774.1264186000917,774.1264186000917,None,774.1264186000917,774.1264186000917,774.9406051300932,None,,,,12015,0002,2022_May_12_1406,localizer,2021.1.3,60.20371736213184,
block,scrambled,scrambled041.bmp,,,,,0,211,211,211,,,,,,,,,,,,,,,,,,,,,,,,,,,,,,,,,,,,,,,,,,None,,774.9406051300932,None,774.9406051300932,None,2022-05-12-14:19:24.456536,774.9428085000254,775.2560533999931,774.9428085000254,None,None,774.9428085000254,None,775.7560807301663,None,,,,12015,0002,2022_May_12_1406,localizer,2021.1.3,60.20371736213184,
block,scrambled,scrambled068.bmp,,,,,0,212,212,212,,,,,,,,,,,,,,,,,,,,,,,,,,,,,,,,,,,,,,,,,,None,,775.7560807301663,None,775.7560807301663,None,2022-05-12-14:19:25.270236,775.7570215000305,776.0728716000449,775.7570215000305,None,None,775.7570215000305,None,776.5725545301568,None,,,,12015,0002,2022_May_12_1406,localizer,2021.1.3,60.20371736213184,
block_end,scrambled,scrambled007.bmp,,,,,0,213,213,213,,,,,,,,,,,,,,,,,,,,,,,,,,,,,,,,,,,,,,,,,,None,,776.5725545301568,None,776.5725545301568,None,2022-05-12-14:19:26.086510,776.5735786000732,776.8893995999824,776.5735786000732,None,None,776.5735786000732,None,777.372880330123,None,,,,12015,0002,2022_May_12_1406,localizer,2021.1.3,60.20371736213184,
block_start,faces,faces069.bmp,,,,,0,214,214,214,,,,,,,,,,,,,,,,,,,,,,,,,,,,,,,,,,,,,,,,,,t,1.810883899917826,777.3727400000207,None,777.3727400000207,None,2022-05-12-14:19:28.719348,779.2170894001611,779.5227695000358,779.2170894001611,None,None,779.2170894001611,None,780.0240205300972,None,,,,12015,0002,2022_May_12_1406,localizer,2021.1.3,60.20371736213184,
block,faces,faces027.bmp,,,,,0,215,215,215,,,,,,,,,,,,,,,,,,,,,,,,,,,,,,,,,,,,,,,,,,None,,780.0240205300972,None,780.0240205300972,None,2022-05-12-14:19:29.537940,780.0236051999964,780.3227048001718,780.0236051999964,None,None,780.0236051999964,None,780.8392264300958,None,,,,12015,0002,2022_May_12_1406,localizer,2021.1.3,60.20371736213184,
block,faces,faces065.bmp,,,,,0,216,216,216,,,,,,,,,,,,,,,,,,,,,,,,,,,,,,,,,,,,,,,,,,None,,780.8392264300958,None,780.8392264300958,None,2022-05-12-14:19:30.353185,780.8405188999604,781.1396643000189,780.8405188999604,None,None,780.8405188999604,None,781.6560093299952,None,,,,12015,0002,2022_May_12_1406,localizer,2021.1.3,60.20371736213184,
block,faces,faces053.bmp,,,,,0,217,217,217,,,,,,,,,,,,,,,,,,,,,,,,,,,,,,,,,,,,,,,,,,None,,781.6560093299952,None,781.6560093299952,None,2022-05-12-14:19:31.169961,781.6570326001383,781.9586957001593,781.6570326001383,None,None,781.6570326001383,None,782.4726710301359,None,,,,12015,0002,2022_May_12_1406,localizer,2021.1.3,60.20371736213184,
block,faces,faces060.bmp,,,,,0,218,218,218,,,,,,,,,,,,,,,,,,,,,,,,,,,,,,,,,,,,,,,,,,None,,782.4726710301359,None,782.4726710301359,None,2022-05-12-14:19:31.985631,782.4738650999498,782.7891482000705,782.4738650999498,None,None,782.4738650999498,None,783.2894787299913,None,,,,12015,0002,2022_May_12_1406,localizer,2021.1.3,60.20371736213184,
block,faces,faces016.bmp,,,,,0,219,219,219,,,,,,,,,,,,,,,,,,,,,,,,,,,,,,,,,,,,,,,,,,None,,783.2894787299913,None,783.2894787299913,None,2022-05-12-14:19:32.803849,783.2903666000348,783.6058422999922,783.2903666000348,None,None,783.2903666000348,None,784.1059203299694,None,,,,12015,0002,2022_May_12_1406,localizer,2021.1.3,60.20371736213184,
block,faces,faces048.bmp,,,,,0,220,220,220,,,,,,,,,,,,,,,,,,,,,,,,,,,,,,,,,,,,,,,,,,None,,784.1059203299694,None,784.1059203299694,None,2022-05-12-14:19:33.619876,784.1070485000964,784.4227346000262,784.1070485000964,None,None,784.1070485000964,None,784.9287893299945,None,,,,12015,0002,2022_May_12_1406,localizer,2021.1.3,60.20371736213184,
block,faces,faces071.bmp,,,,,0,221,221,221,,,,,,,,,,,,,,,,,,,,,,,,,,,,,,,,,,,,,,,,,,None,,784.9287893299945,None,784.9287893299945,None,2022-05-12-14:19:34.450706,784.9515615000855,785.2561676001642,784.9515615000855,None,None,784.9515615000855,None,785.7393886300736,None,,,,12015,0002,2022_May_12_1406,localizer,2021.1.3,60.20371736213184,
block,faces,faces007.bmp,,,,,0,222,222,222,,,,,,,,,,,,,,,,,,,,,,,,,,,,,,,,,,,,,,,,,,None,,785.7393886300736,None,785.7393886300736,None,2022-05-12-14:19:35.253338,785.7503796999808,786.0561766000465,785.7503796999808,None,None,785.7503796999808,None,786.5559474300128,None,,,,12015,0002,2022_May_12_1406,localizer,2021.1.3,60.20371736213184,
block,faces,faces062.bmp,,,,,0,223,223,223,,,,,,,,,,,,,,,,,,,,,,,,,,,,,,,,,,,,,,,,,,None,,786.5559474300128,None,786.5559474300128,None,2022-05-12-14:19:36.069898,786.5569780000951,786.8562567001209,786.5569780000951,None,None,786.5569780000951,None,787.3560948300176,None,,,,12015,0002,2022_May_12_1406,localizer,2021.1.3,60.20371736213184,
block,faces,faces088.bmp,,,,,0,224,224,224,,,,,,,,,,,,,,,,,,,,,,,,,,,,,,,,,,,,,,,,,,None,,787.3560948300176,None,787.3560948300176,None,2022-05-12-14:19:36.872040,787.35744910012,787.6568758999929,787.35744910012,787.35744910012,None,787.35744910012,787.35744910012,788.172591130063,None,,,,12015,0002,2022_May_12_1406,localizer,2021.1.3,60.20371736213184,
block,faces,faces008.bmp,,,,,0,225,225,225,,,,,,,,,,,,,,,,,,,,,,,,,,,,,,,,,,,,,,,,,,None,,788.172591130063,None,788.172591130063,None,2022-05-12-14:19:37.686781,788.1737041000742,788.4896768999752,788.1737041000742,None,None,788.1737041000742,None,788.9748591301498,None,,,,12015,0002,2022_May_12_1406,localizer,2021.1.3,60.20371736213184,
block,faces,faces001.bmp,,,,,0,226,226,226,,,,,,,,,,,,,,,,,,,,,,,,,,,,,,,,,,,,,,,,,,None,,788.9748591301498,None,788.9748591301498,None,2022-05-12-14:19:38.495744,788.9988610001747,789.3064347000327,788.9988610001747,788.9988610001747,None,788.9988610001747,788.9988610001747,789.7900363300462,None,,,,12015,0002,2022_May_12_1406,localizer,2021.1.3,60.20371736213184,
block,faces,faces020.bmp,,,,,0,227,227,227,,,,,,,,,,,,,,,,,,,,,,,,,,,,,,,,,,,,,,,,,,None,,789.7900363300462,None,789.7900363300462,None,2022-05-12-14:19:39.305166,789.7920328001492,790.1061728999484,789.7920328001492,None,None,789.7920328001492,None,790.6058186300099,None,,,,12015,0002,2022_May_12_1406,localizer,2021.1.3,60.20371736213184,
block_end,faces,faces012.bmp,,,,,0,228,228,228,,,,,,,,,,,,,,,,,,,,,,,,,,,,,,,,,,,,,,,,,,None,,790.6058186300099,None,790.6058186300099,None,2022-05-12-14:19:40.119770,790.6071399999782,790.9227249999531,790.6071399999782,None,None,790.6071399999782,None,791.4290854300373,None,,,,12015,0002,2022_May_12_1406,localizer,2021.1.3,60.20371736213184,
block_start,objects,objects070.bmp,,,,,0,229,229,229,,,,,,,,,,,,,,,,,,,,,,,,,,,,,,,,,,,,,,,,,,t,1.7544797998853028,791.4291099000257,None,791.4291099000257,None,2022-05-12-14:19:42.720162,793.2074835000094,793.5225729001686,793.2074835000094,None,None,793.2074835000094,None,794.0226304301061,None,,,,12015,0002,2022_May_12_1406,localizer,2021.1.3,60.20371736213184,
block,objects,objects026.bmp,,,,,0,230,230,230,,,,,,,,,,,,,,,,,,,,,,,,,,,,,,,,,,,,,,,,,,None,,794.0226304301061,None,794.0226304301061,None,2022-05-12-14:19:43.536723,794.0237595001236,794.3394051000942,794.0237595001236,None,None,794.0237595001236,None,794.8390325301327,None,,,,12015,0002,2022_May_12_1406,localizer,2021.1.3,60.20371736213184,
block,objects,objects003.bmp,,,,,0,231,231,231,,,,,,,,,,,,,,,,,,,,,,,,,,,,,,,,,,,,,,,,,,None,,794.8390325301327,None,794.8390325301327,None,2022-05-12-14:19:44.353195,794.8404797001276,795.1560834001284,794.8404797001276,None,None,794.8404797001276,None,795.6397171300371,None,,,,12015,0002,2022_May_12_1406,localizer,2021.1.3,60.20371736213184,
block,objects,objects069.bmp,,,,,0,232,232,232,,,,,,,,,,,,,,,,,,,,,,,,,,,,,,,,,,,,,,,,,,None,,795.6397171300371,None,795.6397171300371,None,2022-05-12-14:19:45.156888,795.6537405999843,795.9563039999921,795.6537405999843,795.6537405999843,None,795.6537405999843,795.6537405999843,796.4563079299871,None,,,,12015,0002,2022_May_12_1406,localizer,2021.1.3,60.20371736213184,
block,objects,objects059.bmp,,,,,0,233,233,233,,,,,,,,,,,,,,,,,,,,,,,,,,,,,,,,,,,,,,,,,,None,,796.4563079299871,None,796.4563079299871,None,2022-05-12-14:19:45.970256,796.4571414999664,796.7565391000826,796.4571414999664,None,None,796.4571414999664,None,797.2620853300207,None,,,,12015,0002,2022_May_12_1406,localizer,2021.1.3,60.20371736213184,
block,objects,objects034.bmp,,,,,0,234,234,234,,,,,,,,,,,,,,,,,,,,,,,,,,,,,,,,,,,,,,,,,,None,,797.2620853300207,None,797.2620853300207,None,2022-05-12-14:19:46.779967,797.2665723001119,797.5725974000525,797.2665723001119,None,None,797.2665723001119,None,798.073135130154,None,,,,12015,0002,2022_May_12_1406,localizer,2021.1.3,60.20371736213184,
block,objects,objects074.bmp,,,,,0,235,235,235,,,,,,,,,,,,,,,,,,,,,,,,,,,,,,,,,,,,,,,,,,None,,798.073135130154,None,798.073135130154,None,2022-05-12-14:19:47.588283,798.0738338001538,798.3893667000812,798.0738338001538,None,None,798.0738338001538,None,798.8893963301555,None,,,,12015,0002,2022_May_12_1406,localizer,2021.1.3,60.20371736213184,
block,objects,objects005.bmp,,,,,0,236,236,236,,,,,,,,,,,,,,,,,,,,,,,,,,,,,,,,,,,,,,,,,,None,,798.8893963301555,None,798.8893963301555,None,2022-05-12-14:19:48.403599,798.8906299001537,799.2062151001301,798.8906299001537,None,None,798.8906299001537,None,799.7058144300711,None,,,,12015,0002,2022_May_12_1406,localizer,2021.1.3,60.20371736213184,
block,objects,objects033.bmp,,,,,0,237,237,237,,,,,,,,,,,,,,,,,,,,,,,,,,,,,,,,,,,,,,,,,,None,,799.7058144300711,None,799.7058144300711,None,2022-05-12-14:19:49.219797,799.7099172000308,800.0233315001242,799.7099172000308,None,None,799.7099172000308,None,800.5234286301304,None,,,,12015,0002,2022_May_12_1406,localizer,2021.1.3,60.20371736213184,
block,objects,objects028.bmp,,,,,0,238,238,238,,,,,,,,,,,,,,,,,,,,,,,,,,,,,,,,,,,,,,,,,,None,,800.5234286301304,None,800.5234286301304,None,2022-05-12-14:19:50.039060,800.5362855000421,800.8395510001574,800.5362855000421,None,None,800.5362855000421,None,801.3397164301016,None,,,,12015,0002,2022_May_12_1406,localizer,2021.1.3,60.20371736213184,
block,objects,objects014.bmp,,,,,0,239,239,239,,,,,,,,,,,,,,,,,,,,,,,,,,,,,,,,,,,,,,,,,,None,,801.3397164301016,None,801.3397164301016,None,2022-05-12-14:19:50.853645,801.349738900084,801.6565268000122,801.349738900084,None,None,801.349738900084,None,802.1561523301527,None,,,,12015,0002,2022_May_12_1406,localizer,2021.1.3,60.20371736213184,
block,objects,objects016.bmp,,,,,0,240,240,240,,,,,,,,,,,,,,,,,,,,,,,,,,,,,,,,,,,,,,,,,,None,,802.1561523301527,None,802.1561523301527,None,2022-05-12-14:19:51.670141,802.1570725999773,802.4568791000638,802.1570725999773,None,None,802.1570725999773,None,802.9725876299665,None,,,,12015,0002,2022_May_12_1406,localizer,2021.1.3,60.20371736213184,
block,objects,objects008.bmp,,,,,0,241,241,241,,,,,,,,,,,,,,,,,,,,,,,,,,,,,,,,,,,,,,,,,,None,,802.9725876299665,None,802.9725876299665,None,2022-05-12-14:19:52.486783,802.9735880000517,803.2728371000849,802.9735880000517,None,None,802.9735880000517,None,803.7749225299806,None,,,,12015,0002,2022_May_12_1406,localizer,2021.1.3,60.20371736213184,
block,objects,objects084.bmp,,,,,0,242,242,242,,,,,,,,,,,,,,,,,,,,,,,,,,,,,,,,,,,,,,,,,,None,,803.7749225299806,None,803.7749225299806,None,2022-05-12-14:19:53.295999,803.7823076001368,804.0893788000103,803.7823076001368,803.7823076001368,None,803.7823076001368,803.7823076001368,804.5894911301323,None,,,,12015,0002,2022_May_12_1406,localizer,2021.1.3,60.20371736213184,
block_end,objects,objects024.bmp,,,,,0,243,243,243,,,,,,,,,,,,,,,,,,,,,,,,,,,,,,,,,,,,,,,,,,None,,804.5894911301323,None,804.5894911301323,None,2022-05-12-14:19:54.103445,804.5904071000405,804.8898893001024,804.5904071000405,None,None,804.5904071000405,None,805.3897203300614,None,,,,12015,0002,2022_May_12_1406,localizer,2021.1.3,60.20371736213184,
,,,,,,,,,,,,,,,,,,,,,,,,,,,,,,,,,,,,,,,,,,,,,,,,,,,,,,,,,,,,,,,,,,,,,805.3906026000623,None,,,,,,,
