block_type,condition,img_name,Button.thisRepN,Button.thisTrialN,Button.thisN,Button.thisIndex,trials.thisRepN,trials.thisTrialN,trials.thisN,trials.thisIndex,Ready_experimenter_text.started,Ready_experimenter_text.stopped,Ready_experimenter_resp.keys,Ready_experimenter_resp.rt,Ready_experimenter_resp.started,Ready_experimenter_resp.stopped,Alignment_background.started,Alignment_background.stopped,Alignment_image.started,Alignment_image.stopped,Alignment_resp.keys,Alignment_resp.rt,Alignment_resp.started,Alignment_resp.stopped,Button_text.started,Button_text.stopped,Index_text.started,Index_text.stopped,Index_resp.keys,Index_resp.rt,Index_resp.started,Index_resp.stopped,Middle_text.started,Middle_text.stopped,Middle_resp.keys,Middle_resp.rt,Middle_resp.started,Middle_resp.stopped,Repeat_text.started,Repeat_text.stopped,Repeat_resp.keys,Repeat_resp.corr,Repeat_resp.rt,Repeat_resp.started,Repeat_resp.stopped,instruction_text.started,instruction_text.stopped,key_resp.keys,key_resp.rt,key_resp.started,key_resp.stopped,scanner_t.keys,scanner_t.rt,scanner_t.started,scanner_t.stopped,fixation_wait_for_t.started,fixation_wait_for_t.stopped,real_timestamp_trial_start,image.started,image.stopped,fixation.started,fixation.stopped,repeat_response.keys,repeat_response.started,repeat_response.stopped,fixation_null.started,fixation_null.stopped,repeat_response.rt,end_text.started,end_text.stopped,participant,run,date,expName,psychopyVersion,frameRate,
,,,,,,,,,,,9.099012800026685,None,return,34.65393150015734,9.099012800026685,None,,,,,,,,,,,,,,,,,,,,,,,,,,,,,,,,,,,,,,,,,,,,,,,,,,,,,,,11009,0001,2022_Feb_21_1440,localizer,2021.1.3,60.283380109498715,
,,,,,,,,,,,,,,,,,43.79359780019149,None,43.79359780019149,None,return,8.315299999900162,43.79359780019149,None,,,,,,,,,,,,,,,,,,,,,,,,,,,,,,,,,,,,,,,,,,,,,,,11009,0001,2022_Feb_21_1440,localizer,2021.1.3,60.283380109498715,
,,,0,0,0,0,,,,,,,,,,,,,,,,,,,52.139967600116506,None,53.15813650004566,None,y,2.83525100001134,53.15813650004566,None,56.01943210000172,None,b,0.7628216999582946,56.01943210000172,None,56.805923900101334,None,n,0,25.0378561001271,56.805923900101334,None,,,,,,,,,,,,,,,,,,,,,,,,,,11009,0001,2022_Feb_21_1440,localizer,2021.1.3,60.283380109498715,
,,,,,,,,,,,,,,,,,,,,,,,,,,,,,,,,,,,,,,,,,,,,,,81.86966189998202,None,y,7.662541100056842,81.86966189998202,None,,,,,,,,,,,,,,,,,,,,11009,0001,2022_Feb_21_1440,localizer,2021.1.3,60.283380109498715,
block_start,objects,objects060.bmp,,,,,0,0,0,0,,,,,,,,,,,,,,,,,,,,,,,,,,,,,,,,,,,,,,,,,,t,16.391306899953634,89.61799460020848,None,89.61799460020848,None,2022-02-21-14:41:45.452583,106.04683900019154,106.35487530007958,106.04683900019154,None,None,106.04683900019154,None,106.84192139001098,None,,,,11009,0001,2022_Feb_21_1440,localizer,2021.1.3,60.283380109498715,
block,objects,objects040.bmp,,,,,0,1,1,1,,,,,,,,,,,,,,,,,,,,,,,,,,,,,,,,,,,,,,,,,,None,,106.84192139001098,None,106.84192139001098,None,2022-02-21-14:41:46.269771,106.86514020012692,107.1687157000415,106.86514020012692,None,None,106.86514020012692,None,107.66915999001358,None,,,,11009,0001,2022_Feb_21_1440,localizer,2021.1.3,60.283380109498715,
block,objects,objects022.bmp,,,,,0,2,2,2,,,,,,,,,,,,,,,,,,,,,,,,,,,,,,,,,,,,,,,,,,None,,107.66915999001358,None,107.66915999001358,None,2022-02-21-14:41:47.087155,107.6764537000563,107.98599870014004,107.6764537000563,None,None,107.6764537000563,None,108.48584589010571,None,,,,11009,0001,2022_Feb_21_1440,localizer,2021.1.3,60.283380109498715,
block,objects,objects068.bmp,,,,,0,3,3,3,,,,,,,,,,,,,,,,,,,,,,,,,,,,,,,,,,,,,,,,,,None,,108.48584589010571,None,108.48584589010571,None,2022-02-21-14:41:47.903788,108.49560450017452,108.80353100015782,108.49560450017452,None,None,108.49560450017452,None,109.30236819011625,None,,,,11009,0001,2022_Feb_21_1440,localizer,2021.1.3,60.283380109498715,
block,objects,objects059.bmp,,,,,0,4,4,4,,,,,,,,,,,,,,,,,,,,,,,,,,,,,,,,,,,,,,,,,,None,,109.30236819011625,None,109.30236819011625,None,2022-02-21-14:41:48.720324,109.3112910001073,109.61857510008849,109.3112910001073,None,None,109.3112910001073,None,110.1191618900979,None,,,,11009,0001,2022_Feb_21_1440,localizer,2021.1.3,60.283380109498715,
block,objects,objects045.bmp,,,,,0,5,5,5,,,,,,,,,,,,,,,,,,,,,,,,,,,,,,,,,,,,,,,,,,None,,110.1191618900979,None,110.1191618900979,None,2022-02-21-14:41:49.537104,110.12997490004636,110.43575690011494,110.12997490004636,None,None,110.12997490004636,None,110.93583659010474,None,,,,11009,0001,2022_Feb_21_1440,localizer,2021.1.3,60.283380109498715,
block,objects,objects005.bmp,,,,,0,6,6,6,,,,,,,,,,,,,,,,,,,,,,,,,,,,,,,,,,,,,,,,,,None,,110.93583659010474,None,110.93583659010474,None,2022-02-21-14:41:50.353981,110.94703610008582,111.25227420008741,110.94703610008582,None,None,110.94703610008582,None,111.75251519002487,None,,,,11009,0001,2022_Feb_21_1440,localizer,2021.1.3,60.283380109498715,
block,objects,objects018.bmp,,,,,0,7,7,7,,,,,,,,,,,,,,,,,,,,,,,,,,,,,,,,,,,,,,,,,,None,,111.75251519002487,None,111.75251519002487,None,2022-02-21-14:41:51.170459,111.76323000015691,112.06911550019868,111.76323000015691,None,None,111.76323000015691,None,112.5694734900957,None,,,,11009,0001,2022_Feb_21_1440,localizer,2021.1.3,60.283380109498715,
block,objects,objects008.bmp,,,,,0,8,8,8,,,,,,,,,,,,,,,,,,,,,,,,,,,,,,,,,,,,,,,,,,None,,112.5694734900957,None,112.5694734900957,None,2022-02-21-14:41:51.988619,112.58003990002908,112.88543590018526,112.58003990002908,None,None,112.58003990002908,None,113.38564819002059,None,,,,11009,0001,2022_Feb_21_1440,localizer,2021.1.3,60.283380109498715,
block,objects,objects083.bmp,,,,,0,9,9,9,,,,,,,,,,,,,,,,,,,,,,,,,,,,,,,,,,,,,,,,,,None,,113.38564819002059,None,113.38564819002059,None,2022-02-21-14:41:52.803593,113.39472580002621,113.7021711000707,113.39472580002621,None,None,113.39472580002621,None,114.20231659009588,None,,,,11009,0001,2022_Feb_21_1440,localizer,2021.1.3,60.283380109498715,
block,objects,objects015.bmp,,,,,0,10,10,10,,,,,,,,,,,,,,,,,,,,,,,,,,,,,,,,,,,,,,,,,,None,,114.20231659009588,None,114.20231659009588,None,2022-02-21-14:41:53.620261,114.21222810004838,114.51858859998174,114.21222810004838,None,None,114.21222810004838,None,115.01962589004543,None,,,,11009,0001,2022_Feb_21_1440,localizer,2021.1.3,60.283380109498715,
block,objects,objects074.bmp,,,,,0,11,11,11,,,,,,,,,,,,,,,,,,,,,,,,,,,,,,,,,,,,,,,,,,None,,115.01962589004543,None,115.01962589004543,None,2022-02-21-14:41:54.438698,115.03004940017127,115.33530899998732,115.03004940017127,None,None,115.03004940017127,None,115.83587229016703,None,,,,11009,0001,2022_Feb_21_1440,localizer,2021.1.3,60.283380109498715,
block,objects,objects049.bmp,,,,,0,12,12,12,,,,,,,,,,,,,,,,,,,,,,,,,,,,,,,,,,,,,,,,,,None,,115.83587229016703,None,115.83587229016703,None,2022-02-21-14:41:55.254021,115.84535369998775,116.15222450019792,115.84535369998775,None,None,115.84535369998775,None,116.65244079006371,None,,,,11009,0001,2022_Feb_21_1440,localizer,2021.1.3,60.283380109498715,
block,objects,objects071.bmp,,,,,0,13,13,13,,,,,,,,,,,,,,,,,,,,,,,,,,,,,,,,,,,,,,,,,,None,,116.65244079006371,None,116.65244079006371,None,2022-02-21-14:41:56.070387,116.66231050016358,116.96888260007836,116.66231050016358,None,None,116.66231050016358,None,117.46913999014069,None,,,,11009,0001,2022_Feb_21_1440,localizer,2021.1.3,60.283380109498715,
block_end,objects,objects058.bmp,,,,,0,14,14,14,,,,,,,,,,,,,,,,,,,,,,,,,,,,,,,,,,,,,,,,,,None,,117.46913999014069,None,117.46913999014069,None,2022-02-21-14:41:56.887292,117.47895920020528,117.78531390009448,117.47895920020528,None,None,117.47895920020528,None,118.28587459002156,None,,,,11009,0001,2022_Feb_21_1440,localizer,2021.1.3,60.283380109498715,
block_start,faces,faces016.bmp,,,,,0,15,15,15,,,,,,,,,,,,,,,,,,,,,,,,,,,,,,,,,,,,,,,,,,t,1.7236601000186056,118.2856129000429,None,118.2856129000429,None,2022-02-21-14:41:59.453079,120.04616320016794,120.35198510019109,120.04616320016794,None,None,120.04616320016794,None,120.85234518998769,None,,,,11009,0001,2022_Feb_21_1440,localizer,2021.1.3,60.283380109498715,
block,faces,faces024.bmp,,,,,0,16,16,16,,,,,,,,,,,,,,,,,,,,,,,,,,,,,,,,,,,,,,,,,,None,,120.85234518998769,None,120.85234518998769,None,2022-02-21-14:42:00.270505,120.85945170000196,121.16914200014435,120.85945170000196,None,None,120.85945170000196,None,121.66873529015575,None,,,,11009,0001,2022_Feb_21_1440,localizer,2021.1.3,60.283380109498715,
block,faces,faces080.bmp,,,,,0,17,17,17,,,,,,,,,,,,,,,,,,,,,,,,,,,,,,,,,,,,,,,,,,None,,121.66873529015575,None,121.66873529015575,None,2022-02-21-14:42:01.086684,121.67944000009447,121.985289900098,121.67944000009447,None,None,121.67944000009447,None,122.48577869005968,None,,,,11009,0001,2022_Feb_21_1440,localizer,2021.1.3,60.283380109498715,
block,faces,faces003.bmp,,,,,0,18,18,18,,,,,,,,,,,,,,,,,,,,,,,,,,,,,,,,,,,,,,,,,,None,,122.48577869005968,None,122.48577869005968,None,2022-02-21-14:42:01.903928,122.49606440006755,122.80217410018668,122.49606440006755,None,None,122.49606440006755,None,123.302370390133,None,,,,11009,0001,2022_Feb_21_1440,localizer,2021.1.3,60.283380109498715,
block,faces,faces042.bmp,,,,,0,19,19,19,,,,,,,,,,,,,,,,,,,,,,,,,,,,,,,,,,,,,,,,,,None,,123.302370390133,None,123.302370390133,None,2022-02-21-14:42:02.720315,123.31163320015185,123.6194729001727,123.31163320015185,None,None,123.31163320015185,None,124.11949339017738,None,,,,11009,0001,2022_Feb_21_1440,localizer,2021.1.3,60.283380109498715,
block,faces,faces020.bmp,,,,,0,20,20,20,,,,,,,,,,,,,,,,,,,,,,,,,,,,,,,,,,,,,,,,,,None,,124.11949339017738,None,124.11949339017738,None,2022-02-21-14:42:03.538561,124.13127630017698,124.43549780012108,124.13127630017698,None,None,124.13127630017698,None,124.93605449001771,None,,,,11009,0001,2022_Feb_21_1440,localizer,2021.1.3,60.283380109498715,
block,faces,faces069.bmp,,,,,0,21,21,21,,,,,,,,,,,,,,,,,,,,,,,,,,,,,,,,,,,,,,,,,,None,,124.93605449001771,None,124.93605449001771,None,2022-02-21-14:42:04.355186,124.94692590017803,125.25227480009198,124.94692590017803,None,None,124.94692590017803,None,125.75252069018316,None,,,,11009,0001,2022_Feb_21_1440,localizer,2021.1.3,60.283380109498715,
block,faces,faces043.bmp,,,,,0,22,22,22,,,,,,,,,,,,,,,,,,,,,,,,,,,,,,,,,,,,,,,,,,None,,125.75252069018316,None,125.75252069018316,None,2022-02-21-14:42:05.170462,125.76345119997859,126.0687550001312,125.76345119997859,None,None,125.76345119997859,None,126.56969319002238,None,,,,11009,0001,2022_Feb_21_1440,localizer,2021.1.3,60.283380109498715,
block,faces,faces052.bmp,,,,,0,23,23,23,,,,,,,,,,,,,,,,,,,,,,,,,,,,,,,,,,,,,,,,,,None,,126.56969319002238,None,126.56969319002238,None,2022-02-21-14:42:05.988627,126.58119589998387,126.88515720004216,126.58119589998387,None,None,126.58119589998387,None,127.38585459019524,None,,,,11009,0001,2022_Feb_21_1440,localizer,2021.1.3,60.283380109498715,
block,faces,faces025.bmp,,,,,0,24,24,24,,,,,,,,,,,,,,,,,,,,,,,,,,,,,,,,,,,,,,,,,,None,,127.38585459019524,None,127.38585459019524,None,2022-02-21-14:42:06.803801,127.3954024000559,127.70218989998102,127.3954024000559,None,None,127.3954024000559,None,128.2024427901255,None,,,,11009,0001,2022_Feb_21_1440,localizer,2021.1.3,60.283380109498715,
block,faces,faces086.bmp,,,,,0,25,25,25,,,,,,,,,,,,,,,,,,,,,,,,,,,,,,,,,,,,,,,,,,None,,128.2024427901255,None,128.2024427901255,None,2022-02-21-14:42:07.620358,128.21197200007737,128.51890230015852,128.21197200007737,None,None,128.21197200007737,None,129.01932219017763,None,,,,11009,0001,2022_Feb_21_1440,localizer,2021.1.3,60.283380109498715,
block,faces,faces068.bmp,,,,,0,26,26,26,,,,,,,,,,,,,,,,,,,,,,,,,,,,,,,,,,,,,,,,,,None,,129.01932219017763,None,129.01932219017763,None,2022-02-21-14:42:08.437263,129.03000050014816,129.33534710016102,129.03000050014816,None,None,129.03000050014816,None,129.83634859018494,None,,,,11009,0001,2022_Feb_21_1440,localizer,2021.1.3,60.283380109498715,
block,faces,faces037.bmp,,,,,0,27,27,27,,,,,,,,,,,,,,,,,,,,,,,,,,,,,,,,,,,,,,,,,,None,,129.83634859018494,None,129.83634859018494,None,2022-02-21-14:42:09.255282,129.84810940013267,130.15217850008048,129.84810940013267,None,None,129.84810940013267,None,130.65280439003837,None,,,,11009,0001,2022_Feb_21_1440,localizer,2021.1.3,60.283380109498715,
block,faces,faces012.bmp,,,,,0,28,28,28,,,,,,,,,,,,,,,,,,,,,,,,,,,,,,,,,,,,,,,,,,None,,130.65280439003837,None,130.65280439003837,None,2022-02-21-14:42:10.071837,130.66457780008204,130.9691888000816,130.66457780008204,None,None,130.66457780008204,None,131.4695039901184,None,,,,11009,0001,2022_Feb_21_1440,localizer,2021.1.3,60.283380109498715,
block_end,faces,faces077.bmp,,,,,0,29,29,29,,,,,,,,,,,,,,,,,,,,,,,,,,,,,,,,,,,,,,,,,,None,,131.4695039901184,None,131.4695039901184,None,2022-02-21-14:42:10.887497,131.4810584001243,131.78556380001828,131.4810584001243,None,None,131.4810584001243,None,132.2858400901081,None,,,,11009,0001,2022_Feb_21_1440,localizer,2021.1.3,60.283380109498715,
null_block,null_block,null_block.bmp,,,,,0,30,30,30,,,,,,,,,,,,,,,,,,,,,,,,,,,,,,,,,,,,,,,,,,t,1.723766200011596,132.2855748999864,None,132.2855748999864,None,2022-02-21-14:42:13.452429,134.05237078010106,None,134.05237078010106,None,None,134.05237078010106,None,134.0472308001481,None,,,,11009,0001,2022_Feb_21_1440,localizer,2021.1.3,60.283380109498715,
block_start,scenes,scenes003.bmp,,,,,0,31,31,31,,,,,,,,,,,,,,,,,,,,,,,,,,,,,,,,,,,,,,,,,,t,1.9556372000370175,146.0535334001761,None,146.0535334001761,None,2022-02-21-14:42:27.452378,148.0459975001868,148.35249479999766,148.0459975001868,None,None,148.0459975001868,None,148.85273179013748,None,,,,11009,0001,2022_Feb_21_1440,localizer,2021.1.3,60.283380109498715,
block,scenes,scenes006.bmp,,,,,0,32,32,32,,,,,,,,,,,,,,,,,,,,,,,,,,,,,,,,,,,,,,,,,,None,,148.85273179013748,None,148.85273179013748,None,2022-02-21-14:42:28.270744,148.86252020020038,149.16917890007608,148.86252020020038,None,None,148.86252020020038,None,149.6693966900697,None,,,,11009,0001,2022_Feb_21_1440,localizer,2021.1.3,60.283380109498715,
block,scenes,scenes086.bmp,,,,,0,33,33,33,,,,,,,,,,,,,,,,,,,,,,,,,,,,,,,,,,,,,,,,,,None,,149.6693966900697,None,149.6693966900697,None,2022-02-21-14:42:29.087199,149.67896010004915,149.98538700002246,149.67896010004915,None,None,149.67896010004915,None,150.4861002901802,None,,,,11009,0001,2022_Feb_21_1440,localizer,2021.1.3,60.283380109498715,
block,scenes,scenes016.bmp,,,,,0,34,34,34,,,,,,,,,,,,,,,,,,,,,,,,,,,,,,,,,,,,,,,,,,None,,150.4861002901802,None,150.4861002901802,None,2022-02-21-14:42:29.904046,150.50102630001493,150.80249830009416,150.50102630001493,None,None,150.50102630001493,None,151.30276319009718,None,,,,11009,0001,2022_Feb_21_1440,localizer,2021.1.3,60.283380109498715,
block,scenes,scenes051.bmp,,,,,0,35,35,35,,,,,,,,,,,,,,,,,,,,,,,,,,,,,,,,,,,,,,,,,,None,,151.30276319009718,None,151.30276319009718,None,2022-02-21-14:42:30.721083,151.31335370009765,151.6190473001916,151.31335370009765,None,None,151.31335370009765,None,152.11960009017494,None,,,,11009,0001,2022_Feb_21_1440,localizer,2021.1.3,60.283380109498715,
block,scenes,scenes018.bmp,,,,,0,36,36,36,,,,,,,,,,,,,,,,,,,,,,,,,,,,,,,,,,,,,,,,,,None,,152.11960009017494,None,152.11960009017494,None,2022-02-21-14:42:31.538538,152.13017780007794,152.4358561001718,152.13017780007794,None,None,152.13017780007794,None,152.93605859016535,None,,,,11009,0001,2022_Feb_21_1440,localizer,2021.1.3,60.283380109498715,
block,scenes,scenes034.bmp,,,,,0,37,37,37,,,,,,,,,,,,,,,,,,,,,,,,,,,,,,,,,,,,,,,,,,None,,152.93605859016535,None,152.93605859016535,None,2022-02-21-14:42:32.354053,152.9453542002011,153.25302260019816,152.9453542002011,None,None,152.9453542002011,None,153.75272819001694,None,,,,11009,0001,2022_Feb_21_1440,localizer,2021.1.3,60.283380109498715,
block,scenes,scenes009.bmp,,,,,0,38,38,38,,,,,,,,,,,,,,,,,,,,,,,,,,,,,,,,,,,,,,,,,,None,,153.75272819001694,None,153.75272819001694,None,2022-02-21-14:42:33.170957,153.76407800009474,154.06993200001307,153.76407800009474,None,None,153.76407800009474,None,154.5693637900753,None,,,,11009,0001,2022_Feb_21_1440,localizer,2021.1.3,60.283380109498715,
block,scenes,scenes078.bmp,,,,,0,39,39,39,,,,,,,,,,,,,,,,,,,,,,,,,,,,,,,,,,,,,,,,,,None,,154.5693637900753,None,154.5693637900753,None,2022-02-21-14:42:33.987392,154.57937610009685,154.88556120009162,154.57937610009685,None,None,154.57937610009685,None,155.38620309017134,None,,,,11009,0001,2022_Feb_21_1440,localizer,2021.1.3,60.283380109498715,
block,scenes,scenes055.bmp,,,,,0,40,40,40,,,,,,,,,,,,,,,,,,,,,,,,,,,,,,,,,,,,,,,,,,None,,155.38620309017134,None,155.38620309017134,None,2022-02-21-14:42:34.804148,155.39687729999423,155.70246230019256,155.39687729999423,None,None,155.39687729999423,None,156.2028290901566,None,,,,11009,0001,2022_Feb_21_1440,localizer,2021.1.3,60.283380109498715,
block,scenes,scenes057.bmp,,,,,0,41,41,41,,,,,,,,,,,,,,,,,,,,,,,,,,,,,,,,,,,,,,,,,,None,,156.2028290901566,None,156.2028290901566,None,2022-02-21-14:42:35.620891,156.2134883000981,156.51902050012723,156.2134883000981,None,None,156.2134883000981,None,157.01967259005178,None,,,,11009,0001,2022_Feb_21_1440,localizer,2021.1.3,60.283380109498715,
block,scenes,scenes028.bmp,,,,,0,42,42,42,,,,,,,,,,,,,,,,,,,,,,,,,,,,,,,,,,,,,,,,,,None,,157.01967259005178,None,157.01967259005178,None,2022-02-21-14:42:36.438610,157.03139240015298,157.3423283000011,157.03139240015298,None,None,157.03139240015298,None,157.8359804900596,None,,,,11009,0001,2022_Feb_21_1440,localizer,2021.1.3,60.283380109498715,
block,scenes,scenes071.bmp,,,,,0,43,43,43,,,,,,,,,,,,,,,,,,,,,,,,,,,,,,,,,,,,,,,,,,None,,157.8359804900596,None,157.8359804900596,None,2022-02-21-14:42:37.253771,157.8441420001909,158.1522574000992,157.8441420001909,None,None,157.8441420001909,None,158.6529075901257,None,,,,11009,0001,2022_Feb_21_1440,localizer,2021.1.3,60.283380109498715,
block,scenes,scenes038.bmp,,,,,0,44,44,44,,,,,,,,,,,,,,,,,,,,,,,,,,,,,,,,,,,,,,,,,,None,,158.6529075901257,None,158.6529075901257,None,2022-02-21-14:42:38.070851,158.65922580007464,158.96913120010868,158.65922580007464,None,None,158.65922580007464,None,159.46957299017814,None,,,,11009,0001,2022_Feb_21_1440,localizer,2021.1.3,60.283380109498715,
block_end,scenes,scenes080.bmp,,,,,0,45,45,45,,,,,,,,,,,,,,,,,,,,,,,,,,,,,,,,,,,,,,,,,,None,,159.46957299017814,None,159.46957299017814,None,2022-02-21-14:42:38.887731,159.48033490008675,159.78559130011126,159.48033490008675,None,None,159.48033490008675,None,160.2863476900151,None,,,,11009,0001,2022_Feb_21_1440,localizer,2021.1.3,60.283380109498715,
block_start,scrambled,scrambled035.bmp,,,,,0,46,46,46,,,,,,,,,,,,,,,,,,,,,,,,,,,,,,,,,,,,,,,,,,t,1.7232335999142379,160.28612460009754,None,160.28612460009754,None,2022-02-21-14:42:41.452914,162.0449142002035,162.35234940005466,162.0449142002035,None,None,162.0449142002035,None,162.8528087900253,None,,,,11009,0001,2022_Feb_21_1440,localizer,2021.1.3,60.283380109498715,
block,scrambled,scrambled027.bmp,,,,,0,47,47,47,,,,,,,,,,,,,,,,,,,,,,,,,,,,,,,,,,,,,,,,,,None,,162.8528087900253,None,162.8528087900253,None,2022-02-21-14:42:42.270963,162.86357689998113,163.16946330014616,162.86357689998113,None,None,162.86357689998113,None,163.66906959002372,None,,,,11009,0001,2022_Feb_21_1440,localizer,2021.1.3,60.283380109498715,
block,scrambled,scrambled058.bmp,,,,,0,48,48,48,,,,,,,,,,,,,,,,,,,,,,,,,,,,,,,,,,,,,,,,,,None,,163.66906959002372,None,163.66906959002372,None,2022-02-21-14:42:43.087246,163.67737930011936,163.98573690000921,163.67737930011936,None,None,163.67737930011936,None,164.48604669000488,None,,,,11009,0001,2022_Feb_21_1440,localizer,2021.1.3,60.283380109498715,
block,scrambled,scrambled058.bmp,,,,,0,49,49,49,,,,,,,,,,,,,,,,,,,,,,,,,,,,,,,,,,,,,,,,,,None,,164.48604669000488,None,164.48604669000488,None,2022-02-21-14:42:43.904409,164.4865885002073,164.7858806999866,164.4865885002073,None,y,164.4865885002073,None,165.28574189005886,None,0.6125455999281257,,,11009,0001,2022_Feb_21_1440,localizer,2021.1.3,60.283380109498715,
block,scrambled,scrambled005.bmp,,,,,0,50,50,50,,,,,,,,,,,,,,,,,,,,,,,,,,,,,,,,,,,,,,,,,,None,,165.28574189005886,None,165.28574189005886,None,2022-02-21-14:42:44.705852,165.2955951001495,165.60244020004757,165.2955951001495,165.2955951001495,None,165.2955951001495,165.2955951001495,166.10265178999398,None,,,,11009,0001,2022_Feb_21_1440,localizer,2021.1.3,60.283380109498715,
block,scrambled,scrambled022.bmp,,,,,0,51,51,51,,,,,,,,,,,,,,,,,,,,,,,,,,,,,,,,,,,,,,,,,,None,,166.10265178999398,None,166.10265178999398,None,2022-02-21-14:42:45.520598,166.11254220013507,166.41907669999637,166.11254220013507,None,None,166.11254220013507,None,166.91963689003606,None,,,,11009,0001,2022_Feb_21_1440,localizer,2021.1.3,60.283380109498715,
block,scrambled,scrambled006.bmp,,,,,0,52,52,52,,,,,,,,,,,,,,,,,,,,,,,,,,,,,,,,,,,,,,,,,,None,,166.91963689003606,None,166.91963689003606,None,2022-02-21-14:42:46.338574,166.9304003000725,167.2360821000766,166.9304003000725,None,None,166.9304003000725,None,167.7361516901059,None,,,,11009,0001,2022_Feb_21_1440,localizer,2021.1.3,60.283380109498715,
block,scrambled,scrambled007.bmp,,,,,0,53,53,53,,,,,,,,,,,,,,,,,,,,,,,,,,,,,,,,,,,,,,,,,,None,,167.7361516901059,None,167.7361516901059,None,2022-02-21-14:42:47.155305,167.74692770000547,168.05275889998302,167.74692770000547,None,None,167.74692770000547,None,168.5530143901473,None,,,,11009,0001,2022_Feb_21_1440,localizer,2021.1.3,60.283380109498715,
block,scrambled,scrambled026.bmp,,,,,0,54,54,54,,,,,,,,,,,,,,,,,,,,,,,,,,,,,,,,,,,,,,,,,,None,,168.5530143901473,None,168.5530143901473,None,2022-02-21-14:42:47.971953,168.56284070014954,168.86898220004514,168.56284070014954,None,None,168.56284070014954,None,169.36889009012376,None,,,,11009,0001,2022_Feb_21_1440,localizer,2021.1.3,60.283380109498715,
block,scrambled,scrambled013.bmp,,,,,0,55,55,55,,,,,,,,,,,,,,,,,,,,,,,,,,,,,,,,,,,,,,,,,,None,,169.36889009012376,None,169.36889009012376,None,2022-02-21-14:42:48.786953,169.37726010009646,169.68578140018508,169.37726010009646,None,None,169.37726010009646,None,170.18581998997834,None,,,,11009,0001,2022_Feb_21_1440,localizer,2021.1.3,60.283380109498715,
block,scrambled,scrambled053.bmp,,,,,0,56,56,56,,,,,,,,,,,,,,,,,,,,,,,,,,,,,,,,,,,,,,,,,,None,,170.18581998997834,None,170.18581998997834,None,2022-02-21-14:42:49.603765,170.19052210007794,170.50295029999688,170.19052210007794,None,None,170.19052210007794,None,171.0022853901377,None,,,,11009,0001,2022_Feb_21_1440,localizer,2021.1.3,60.283380109498715,
block,scrambled,scrambled044.bmp,,,,,0,57,57,57,,,,,,,,,,,,,,,,,,,,,,,,,,,,,,,,,,,,,,,,,,None,,171.0022853901377,None,171.0022853901377,None,2022-02-21-14:42:50.420434,171.0104505000636,171.31906890007667,171.0104505000636,None,None,171.0104505000636,None,171.81926719003823,None,,,,11009,0001,2022_Feb_21_1440,localizer,2021.1.3,60.283380109498715,
block,scrambled,scrambled043.bmp,,,,,0,58,58,58,,,,,,,,,,,,,,,,,,,,,,,,,,,,,,,,,,,,,,,,,,None,,171.81926719003823,None,171.81926719003823,None,2022-02-21-14:42:51.237617,171.83048700005747,172.13610570016317,171.83048700005747,None,None,171.83048700005747,None,172.63591319017578,None,,,,11009,0001,2022_Feb_21_1440,localizer,2021.1.3,60.283380109498715,
block,scrambled,scrambled083.bmp,,,,,0,59,59,59,,,,,,,,,,,,,,,,,,,,,,,,,,,,,,,,,,,,,,,,,,None,,172.63591319017578,None,172.63591319017578,None,2022-02-21-14:42:52.053859,172.64592520007864,172.9531098001171,172.64592520007864,None,None,172.64592520007864,None,173.45289469019045,None,,,,11009,0001,2022_Feb_21_1440,localizer,2021.1.3,60.283380109498715,
block_end,scrambled,scrambled023.bmp,,,,,0,60,60,60,,,,,,,,,,,,,,,,,,,,,,,,,,,,,,,,,,,,,,,,,,None,,173.45289469019045,None,173.45289469019045,None,2022-02-21-14:42:52.870836,173.46299510006793,173.7688089001458,173.46299510006793,None,None,173.46299510006793,None,174.2694334899774,None,,,,11009,0001,2022_Feb_21_1440,localizer,2021.1.3,60.283380109498715,
block_start,objects,objects071.bmp,,,,,0,61,61,61,,,,,,,,,,,,,,,,,,,,,,,,,,,,,,,,,,,,,,,,,,t,1.7390246998984367,174.2692195000127,None,174.2692195000127,None,2022-02-21-14:42:55.452592,176.0368280999828,176.3353828000836,176.0368280999828,None,None,176.0368280999828,None,176.83606148997788,None,,,,11009,0001,2022_Feb_21_1440,localizer,2021.1.3,60.283380109498715,
block,objects,objects041.bmp,,,,,0,62,62,62,,,,,,,,,,,,,,,,,,,,,,,,,,,,,,,,,,,,,,,,,,None,,176.83606148997788,None,176.83606148997788,None,2022-02-21-14:42:56.255003,176.8455637001898,177.152302400209,176.8455637001898,176.8455637001898,None,176.8455637001898,176.8455637001898,177.6527188899694,None,,,,11009,0001,2022_Feb_21_1440,localizer,2021.1.3,60.283380109498715,
block,objects,objects051.bmp,,,,,0,63,63,63,,,,,,,,,,,,,,,,,,,,,,,,,,,,,,,,,,,,,,,,,,None,,177.6527188899694,None,177.6527188899694,None,2022-02-21-14:42:57.070666,177.66182080004364,177.96871879999526,177.66182080004364,None,None,177.66182080004364,None,178.46919339008164,None,,,,11009,0001,2022_Feb_21_1440,localizer,2021.1.3,60.283380109498715,
block,objects,objects085.bmp,,,,,0,64,64,64,,,,,,,,,,,,,,,,,,,,,,,,,,,,,,,,,,,,,,,,,,None,,178.46919339008164,None,178.46919339008164,None,2022-02-21-14:42:57.887141,178.47834160015918,178.7857775001321,178.47834160015918,None,None,178.47834160015918,None,179.28588668999728,None,,,,11009,0001,2022_Feb_21_1440,localizer,2021.1.3,60.283380109498715,
block,objects,objects073.bmp,,,,,0,65,65,65,,,,,,,,,,,,,,,,,,,,,,,,,,,,,,,,,,,,,,,,,,None,,179.28588668999728,None,179.28588668999728,None,2022-02-21-14:42:58.703886,179.29480220004916,179.60265700006858,179.29480220004916,None,None,179.29480220004916,None,180.10284899009858,None,,,,11009,0001,2022_Feb_21_1440,localizer,2021.1.3,60.283380109498715,
block,objects,objects036.bmp,,,,,0,66,66,66,,,,,,,,,,,,,,,,,,,,,,,,,,,,,,,,,,,,,,,,,,None,,180.10284899009858,None,180.10284899009858,None,2022-02-21-14:42:59.520833,180.11272410000674,180.41936160018668,180.11272410000674,None,None,180.11272410000674,None,180.91903739001137,None,,,,11009,0001,2022_Feb_21_1440,localizer,2021.1.3,60.283380109498715,
block,objects,objects014.bmp,,,,,0,67,67,67,,,,,,,,,,,,,,,,,,,,,,,,,,,,,,,,,,,,,,,,,,None,,180.91903739001137,None,180.91903739001137,None,2022-02-21-14:43:00.337143,180.92231549997814,181.23580610007048,180.92231549997814,None,None,180.92231549997814,None,181.7362370900577,None,,,,11009,0001,2022_Feb_21_1440,localizer,2021.1.3,60.283380109498715,
block,objects,objects074.bmp,,,,,0,68,68,68,,,,,,,,,,,,,,,,,,,,,,,,,,,,,,,,,,,,,,,,,,None,,181.7362370900577,None,181.7362370900577,None,2022-02-21-14:43:01.155385,181.73689940012991,182.0358787002042,181.73689940012991,None,None,181.73689940012991,None,182.5372811900219,None,,,,11009,0001,2022_Feb_21_1440,localizer,2021.1.3,60.283380109498715,
block,objects,objects045.bmp,,,,,0,69,69,69,,,,,,,,,,,,,,,,,,,,,,,,,,,,,,,,,,,,,,,,,,None,,182.5372811900219,None,182.5372811900219,None,2022-02-21-14:43:01.961336,182.54331120010465,182.85241520009004,182.54331120010465,182.54331120010465,None,182.54331120010465,182.54331120010465,183.3535050900886,None,,,,11009,0001,2022_Feb_21_1440,localizer,2021.1.3,60.283380109498715,
block,objects,objects006.bmp,,,,,0,70,70,70,,,,,,,,,,,,,,,,,,,,,,,,,,,,,,,,,,,,,,,,,,None,,183.3535050900886,None,183.3535050900886,None,2022-02-21-14:43:02.772632,183.36487490008585,183.66911180014722,183.36487490008585,None,None,183.36487490008585,None,184.16907069014852,None,,,,11009,0001,2022_Feb_21_1440,localizer,2021.1.3,60.283380109498715,
block,objects,objects067.bmp,,,,,0,71,71,71,,,,,,,,,,,,,,,,,,,,,,,,,,,,,,,,,,,,,,,,,,None,,184.16907069014852,None,184.16907069014852,None,2022-02-21-14:43:03.585947,184.1764385001734,184.48545380006544,184.1764385001734,None,None,184.1764385001734,None,184.98598069020082,None,,,,11009,0001,2022_Feb_21_1440,localizer,2021.1.3,60.283380109498715,
block,objects,objects038.bmp,,,,,0,72,72,72,,,,,,,,,,,,,,,,,,,,,,,,,,,,,,,,,,,,,,,,,,None,,184.98598069020082,None,184.98598069020082,None,2022-02-21-14:43:04.403931,184.99447170016356,185.3022358000744,184.99447170016356,None,None,184.99447170016356,None,185.80307379013394,None,,,,11009,0001,2022_Feb_21_1440,localizer,2021.1.3,60.283380109498715,
block,objects,objects053.bmp,,,,,0,73,73,73,,,,,,,,,,,,,,,,,,,,,,,,,,,,,,,,,,,,,,,,,,None,,185.80307379013394,None,185.80307379013394,None,2022-02-21-14:43:05.219898,185.81135810003616,186.11880540009588,185.81135810003616,None,None,185.81135810003616,None,186.61901169011836,None,,,,11009,0001,2022_Feb_21_1440,localizer,2021.1.3,60.283380109498715,
block,objects,objects031.bmp,,,,,0,74,74,74,,,,,,,,,,,,,,,,,,,,,,,,,,,,,,,,,,,,,,,,,,None,,186.61901169011836,None,186.61901169011836,None,2022-02-21-14:43:06.035966,186.62690360005945,186.93595630000345,186.62690360005945,None,None,186.62690360005945,None,187.43618869010825,None,,,,11009,0001,2022_Feb_21_1440,localizer,2021.1.3,60.283380109498715,
block_end,objects,objects030.bmp,,,,,0,75,75,75,,,,,,,,,,,,,,,,,,,,,,,,,,,,,,,,,,,,,,,,,,None,,187.43618869010825,None,187.43618869010825,None,2022-02-21-14:43:06.854177,187.44616550020874,187.75326420017518,187.44616550020874,None,None,187.44616550020874,None,188.25278719000053,None,,,,11009,0001,2022_Feb_21_1440,localizer,2021.1.3,60.283380109498715,
null_block,null_block,null_block.bmp,,,,,0,76,76,76,,,,,,,,,,,,,,,,,,,,,,,,,,,,,,,,,,,,,,,,,,t,1.7558377999812365,188.25245290016755,None,188.25245290016755,None,2022-02-21-14:43:09.457541,190.0374379900517,None,190.0374379900517,None,None,190.0374379900517,None,190.04503170005046,None,,,,11009,0001,2022_Feb_21_1440,localizer,2021.1.3,60.283380109498715,
block_start,faces,faces028.bmp,,,,,0,77,77,77,,,,,,,,,,,,,,,,,,,,,,,,,,,,,,,,,,,,,,,,,,t,1.9549221999477595,202.05339500005357,None,202.05339500005357,None,2022-02-21-14:43:23.455158,204.04630909999833,204.35251110000536,204.04630909999833,None,None,204.04630909999833,None,204.85277318998706,None,,,,11009,0001,2022_Feb_21_1440,localizer,2021.1.3,60.283380109498715,
block,faces,faces059.bmp,,,,,0,78,78,78,,,,,,,,,,,,,,,,,,,,,,,,,,,,,,,,,,,,,,,,,,None,,204.85277318998706,None,204.85277318998706,None,2022-02-21-14:43:24.270725,204.8609220001381,205.16954690008424,204.8609220001381,None,None,204.8609220001381,None,205.6696186901303,None,,,,11009,0001,2022_Feb_21_1440,localizer,2021.1.3,60.283380109498715,
block,faces,faces063.bmp,,,,,0,79,79,79,,,,,,,,,,,,,,,,,,,,,,,,,,,,,,,,,,,,,,,,,,None,,205.6696186901303,None,205.6696186901303,None,2022-02-21-14:43:25.087652,205.68048109998927,205.98586160014383,205.68048109998927,None,None,205.68048109998927,None,206.4863760901848,None,,,,11009,0001,2022_Feb_21_1440,localizer,2021.1.3,60.283380109498715,
block,faces,faces043.bmp,,,,,0,80,80,80,,,,,,,,,,,,,,,,,,,,,,,,,,,,,,,,,,,,,,,,,,None,,206.4863760901848,None,206.4863760901848,None,2022-02-21-14:43:25.904321,206.4869652001653,206.78623890015297,206.4869652001653,None,None,206.4869652001653,None,207.28628849003,None,,,,11009,0001,2022_Feb_21_1440,localizer,2021.1.3,60.283380109498715,
block,faces,faces003.bmp,,,,,0,81,81,81,,,,,,,,,,,,,,,,,,,,,,,,,,,,,,,,,,,,,,,,,,None,,207.28628849003,None,207.28628849003,None,2022-02-21-14:43:26.706368,207.28754530008882,207.6027128000278,207.28754530008882,207.28754530008882,None,207.28754530008882,207.28754530008882,208.1019195900066,None,,,,11009,0001,2022_Feb_21_1440,localizer,2021.1.3,60.283380109498715,
block,faces,faces067.bmp,,,,,0,82,82,82,,,,,,,,,,,,,,,,,,,,,,,,,,,,,,,,,,,,,,,,,,None,,208.1019195900066,None,208.1019195900066,None,2022-02-21-14:43:27.518646,208.11084880004637,208.41933220019564,208.11084880004637,None,None,208.11084880004637,None,208.92591899002437,None,,,,11009,0001,2022_Feb_21_1440,localizer,2021.1.3,60.283380109498715,
block,faces,faces082.bmp,,,,,0,83,83,83,,,,,,,,,,,,,,,,,,,,,,,,,,,,,,,,,,,,,,,,,,None,,208.92591899002437,None,208.92591899002437,None,2022-02-21-14:43:28.351789,208.94285690016113,209.25271080015227,208.94285690016113,None,None,208.94285690016113,None,209.7362781900214,None,,,,11009,0001,2022_Feb_21_1440,localizer,2021.1.3,60.283380109498715,
block,faces,faces025.bmp,,,,,0,84,84,84,,,,,,,,,,,,,,,,,,,,,,,,,,,,,,,,,,,,,,,,,,None,,209.7362781900214,None,209.7362781900214,None,2022-02-21-14:43:29.154587,209.7369654001668,210.03604330006056,209.7369654001668,None,None,209.7369654001668,None,210.53639009010513,None,,,,11009,0001,2022_Feb_21_1440,localizer,2021.1.3,60.283380109498715,
block,faces,faces071.bmp,,,,,0,85,85,85,,,,,,,,,,,,,,,,,,,,,,,,,,,,,,,,,,,,,,,,,,None,,210.53639009010513,None,210.53639009010513,None,2022-02-21-14:43:29.956556,210.54870180017315,210.85283460002393,210.54870180017315,210.54870180017315,None,210.54870180017315,210.54870180017315,211.3542775900336,None,,,,11009,0001,2022_Feb_21_1440,localizer,2021.1.3,60.283380109498715,
block,faces,faces030.bmp,,,,,0,86,86,86,,,,,,,,,,,,,,,,,,,,,,,,,,,,,,,,,,,,,,,,,,None,,211.3542775900336,None,211.3542775900336,None,2022-02-21-14:43:30.773380,211.36735960002989,211.6699853001628,211.36735960002989,None,None,211.36735960002989,None,212.17139809017536,None,,,,11009,0001,2022_Feb_21_1440,localizer,2021.1.3,60.283380109498715,
block,faces,faces016.bmp,,,,,0,87,87,87,,,,,,,,,,,,,,,,,,,,,,,,,,,,,,,,,,,,,,,,,,None,,212.17139809017536,None,212.17139809017536,None,2022-02-21-14:43:31.590449,212.1731995001901,212.48599370010197,212.1731995001901,None,None,212.1731995001901,None,212.98647609001492,None,,,,11009,0001,2022_Feb_21_1440,localizer,2021.1.3,60.283380109498715,
block,faces,faces062.bmp,,,,,0,88,88,88,,,,,,,,,,,,,,,,,,,,,,,,,,,,,,,,,,,,,,,,,,None,,212.98647609001492,None,212.98647609001492,None,2022-02-21-14:43:32.404386,212.99635899998248,213.30299610015936,212.99635899998248,None,None,212.99635899998248,None,213.80295959019568,None,,,,11009,0001,2022_Feb_21_1440,localizer,2021.1.3,60.283380109498715,
block,faces,faces040.bmp,,,,,0,89,89,89,,,,,,,,,,,,,,,,,,,,,,,,,,,,,,,,,,,,,,,,,,None,,213.80295959019568,None,213.80295959019568,None,2022-02-21-14:43:33.220883,213.81353959999979,214.11954910005443,213.81353959999979,None,None,213.81353959999979,None,214.61981449017767,None,,,,11009,0001,2022_Feb_21_1440,localizer,2021.1.3,60.283380109498715,
block,faces,faces032.bmp,,,,,0,90,90,90,,,,,,,,,,,,,,,,,,,,,,,,,,,,,,,,,,,,,,,,,,None,,214.61981449017767,None,214.61981449017767,None,2022-02-21-14:43:34.037951,214.62950849998742,214.93872390012257,214.62950849998742,None,None,214.62950849998742,None,215.43755469003227,None,,,,11009,0001,2022_Feb_21_1440,localizer,2021.1.3,60.283380109498715,
block_end,faces,faces085.bmp,,,,,0,91,91,91,,,,,,,,,,,,,,,,,,,,,,,,,,,,,,,,,,,,,,,,,,None,,215.43755469003227,None,215.43755469003227,None,2022-02-21-14:43:34.856666,215.4492377000861,215.75229010009207,215.4492377000861,None,None,215.4492377000861,None,216.25511449014303,None,,,,11009,0001,2022_Feb_21_1440,localizer,2021.1.3,60.283380109498715,
block_start,scenes,scenes036.bmp,,,,,0,92,92,92,,,,,,,,,,,,,,,,,,,,,,,,,,,,,,,,,,,,,,,,,,t,1.7516513001173735,216.25673720007762,None,216.25673720007762,None,2022-02-21-14:43:37.452713,218.04305050009862,218.35236040013842,218.04305050009862,None,None,218.04305050009862,None,218.8531753900228,None,,,,11009,0001,2022_Feb_21_1440,localizer,2021.1.3,60.283380109498715,
block,scenes,scenes080.bmp,,,,,0,93,93,93,,,,,,,,,,,,,,,,,,,,,,,,,,,,,,,,,,,,,,,,,,None,,218.8531753900228,None,218.8531753900228,None,2022-02-21-14:43:38.271101,218.8537408001721,219.1528912000358,218.8537408001721,None,None,218.8537408001721,None,219.65308189017233,None,,,,11009,0001,2022_Feb_21_1440,localizer,2021.1.3,60.283380109498715,
block,scenes,scenes057.bmp,,,,,0,94,94,94,,,,,,,,,,,,,,,,,,,,,,,,,,,,,,,,,,,,,,,,,,None,,219.65308189017233,None,219.65308189017233,None,2022-02-21-14:43:39.073018,219.6558058001101,219.969157300191,219.6558058001101,219.6558058001101,None,219.6558058001101,219.6558058001101,220.46978539016564,None,,,,11009,0001,2022_Feb_21_1440,localizer,2021.1.3,60.283380109498715,
block,scenes,scenes040.bmp,,,,,0,95,95,95,,,,,,,,,,,,,,,,,,,,,,,,,,,,,,,,,,,,,,,,,,None,,220.46978539016564,None,220.46978539016564,None,2022-02-21-14:43:39.887935,220.47958970000036,220.78610200015828,220.47958970000036,None,None,220.47958970000036,None,221.2875698900083,None,,,,11009,0001,2022_Feb_21_1440,localizer,2021.1.3,60.283380109498715,
block,scenes,scenes029.bmp,,,,,0,96,96,96,,,,,,,,,,,,,,,,,,,,,,,,,,,,,,,,,,,,,,,,,,None,,221.2875698900083,None,221.2875698900083,None,2022-02-21-14:43:40.707061,221.3002967000939,221.60260100010782,221.3002967000939,None,None,221.3002967000939,None,222.10277789013927,None,,,,11009,0001,2022_Feb_21_1440,localizer,2021.1.3,60.283380109498715,
block,scenes,scenes088.bmp,,,,,0,97,97,97,,,,,,,,,,,,,,,,,,,,,,,,,,,,,,,,,,,,,,,,,,None,,222.10277789013927,None,222.10277789013927,None,2022-02-21-14:43:41.520722,222.1120671001263,222.41947880014777,222.1120671001263,None,None,222.1120671001263,None,222.91967758999672,None,,,,11009,0001,2022_Feb_21_1440,localizer,2021.1.3,60.283380109498715,
block,scenes,scenes088.bmp,,,,,0,98,98,98,,,,,,,,,,,,,,,,,,,,,,,,,,,,,,,,,,,,,,,,,,None,,222.91967758999672,None,222.91967758999672,None,2022-02-21-14:43:42.337623,222.9204859000165,223.21935300016776,222.9204859000165,None,y,222.9204859000165,None,223.7195380900288,None,0.5297044001054019,,,11009,0001,2022_Feb_21_1440,localizer,2021.1.3,60.283380109498715,
block,scenes,scenes058.bmp,,,,,0,99,99,99,,,,,,,,,,,,,,,,,,,,,,,,,,,,,,,,,,,,,,,,,,None,,223.7195380900288,None,223.7195380900288,None,2022-02-21-14:43:43.139179,223.7305299001746,224.03623710013926,223.7305299001746,223.7305299001746,None,223.7305299001746,223.7305299001746,224.53599599001464,None,,,,11009,0001,2022_Feb_21_1440,localizer,2021.1.3,60.283380109498715,
block,scenes,scenes073.bmp,,,,,0,100,100,100,,,,,,,,,,,,,,,,,,,,,,,,,,,,,,,,,,,,,,,,,,None,,224.53599599001464,None,224.53599599001464,None,2022-02-21-14:43:43.953947,224.5460611002054,224.85319380019791,224.5460611002054,None,None,224.5460611002054,None,225.3527919901302,None,,,,11009,0001,2022_Feb_21_1440,localizer,2021.1.3,60.283380109498715,
block,scenes,scenes072.bmp,,,,,0,101,101,101,,,,,,,,,,,,,,,,,,,,,,,,,,,,,,,,,,,,,,,,,,None,,225.3527919901302,None,225.3527919901302,None,2022-02-21-14:43:44.771012,225.36174130020663,225.66932490002364,225.36174130020663,None,None,225.36174130020663,None,226.16996679010336,None,,,,11009,0001,2022_Feb_21_1440,localizer,2021.1.3,60.283380109498715,
block,scenes,scenes033.bmp,,,,,0,102,102,102,,,,,,,,,,,,,,,,,,,,,,,,,,,,,,,,,,,,,,,,,,None,,226.16996679010336,None,226.16996679010336,None,2022-02-21-14:43:45.588147,226.18075560010038,226.48600700008683,226.18075560010038,None,None,226.18075560010038,None,226.9862515900517,None,,,,11009,0001,2022_Feb_21_1440,localizer,2021.1.3,60.283380109498715,
block,scenes,scenes067.bmp,,,,,0,103,103,103,,,,,,,,,,,,,,,,,,,,,,,,,,,,,,,,,,,,,,,,,,None,,226.9862515900517,None,226.9862515900517,None,2022-02-21-14:43:46.404468,226.9948009001091,227.3032979001291,226.9948009001091,None,None,226.9948009001091,None,227.80305349009578,None,,,,11009,0001,2022_Feb_21_1440,localizer,2021.1.3,60.283380109498715,
block,scenes,scenes082.bmp,,,,,0,104,104,104,,,,,,,,,,,,,,,,,,,,,,,,,,,,,,,,,,,,,,,,,,None,,227.80305349009578,None,227.80305349009578,None,2022-02-21-14:43:47.220999,227.8080846001394,228.11934540001675,227.8080846001394,None,None,227.8080846001394,None,228.62002139000688,None,,,,11009,0001,2022_Feb_21_1440,localizer,2021.1.3,60.283380109498715,
block,scenes,scenes077.bmp,,,,,0,105,105,105,,,,,,,,,,,,,,,,,,,,,,,,,,,,,,,,,,,,,,,,,,None,,228.62002139000688,None,228.62002139000688,None,2022-02-21-14:43:48.038142,228.63067630003206,228.93644170020707,228.63067630003206,None,None,228.63067630003206,None,229.43652739000973,None,,,,11009,0001,2022_Feb_21_1440,localizer,2021.1.3,60.283380109498715,
block_end,scenes,scenes035.bmp,,,,,0,106,106,106,,,,,,,,,,,,,,,,,,,,,,,,,,,,,,,,,,,,,,,,,,None,,229.43652739000973,None,229.43652739000973,None,2022-02-21-14:43:48.854683,229.4477624001447,229.75298190000467,229.4477624001447,None,None,229.4477624001447,None,230.25323649004568,None,,,,11009,0001,2022_Feb_21_1440,localizer,2021.1.3,60.283380109498715,
block_start,scrambled,scrambled038.bmp,,,,,0,107,107,107,,,,,,,,,,,,,,,,,,,,,,,,,,,,,,,,,,,,,,,,,,t,1.755218300037086,230.25301109999418,None,230.25301109999418,None,2022-02-21-14:43:51.452754,232.04564730008133,232.35260850004852,232.04564730008133,None,None,232.04564730008133,None,232.85315289020073,None,,,,11009,0001,2022_Feb_21_1440,localizer,2021.1.3,60.283380109498715,
block,scrambled,scrambled070.bmp,,,,,0,108,108,108,,,,,,,,,,,,,,,,,,,,,,,,,,,,,,,,,,,,,,,,,,None,,232.85315289020073,None,232.85315289020073,None,2022-02-21-14:43:52.271098,232.86247280007228,233.16915650013834,232.86247280007228,None,None,232.86247280007228,None,233.6699141901685,None,,,,11009,0001,2022_Feb_21_1440,localizer,2021.1.3,60.283380109498715,
block,scrambled,scrambled048.bmp,,,,,0,109,109,109,,,,,,,,,,,,,,,,,,,,,,,,,,,,,,,,,,,,,,,,,,None,,233.6699141901685,None,233.6699141901685,None,2022-02-21-14:43:53.088044,233.6795825001318,233.98672330006957,233.6795825001318,None,None,233.6795825001318,None,234.48702288998757,None,,,,11009,0001,2022_Feb_21_1440,localizer,2021.1.3,60.283380109498715,
block,scrambled,scrambled047.bmp,,,,,0,110,110,110,,,,,,,,,,,,,,,,,,,,,,,,,,,,,,,,,,,,,,,,,,None,,234.48702288998757,None,234.48702288998757,None,2022-02-21-14:43:53.906150,234.49848420009948,234.80271490011364,234.49848420009948,None,None,234.49848420009948,None,235.30274929010776,None,,,,11009,0001,2022_Feb_21_1440,localizer,2021.1.3,60.283380109498715,
block,scrambled,scrambled051.bmp,,,,,0,111,111,111,,,,,,,,,,,,,,,,,,,,,,,,,,,,,,,,,,,,,,,,,,None,,235.30274929010776,None,235.30274929010776,None,2022-02-21-14:43:54.719704,235.31015120004304,235.61966760014184,235.31015120004304,None,None,235.31015120004304,None,236.1218585900264,None,,,,11009,0001,2022_Feb_21_1440,localizer,2021.1.3,60.283380109498715,
block,scrambled,scrambled026.bmp,,,,,0,112,112,112,,,,,,,,,,,,,,,,,,,,,,,,,,,,,,,,,,,,,,,,,,None,,236.1218585900264,None,236.1218585900264,None,2022-02-21-14:43:55.543959,236.1270556000527,236.4367285000626,236.1270556000527,None,None,236.1270556000527,None,236.93706529003103,None,,,,11009,0001,2022_Feb_21_1440,localizer,2021.1.3,60.283380109498715,
block,scrambled,scrambled085.bmp,,,,,0,113,113,113,,,,,,,,,,,,,,,,,,,,,,,,,,,,,,,,,,,,,,,,,,None,,236.93706529003103,None,236.93706529003103,None,2022-02-21-14:43:56.356191,236.94967090012506,237.25336150010116,236.94967090012506,None,None,236.94967090012506,None,237.75360349004623,None,,,,11009,0001,2022_Feb_21_1440,localizer,2021.1.3,60.283380109498715,
block,scrambled,scrambled065.bmp,,,,,0,114,114,114,,,,,,,,,,,,,,,,,,,,,,,,,,,,,,,,,,,,,,,,,,None,,237.75360349004623,None,237.75360349004623,None,2022-02-21-14:43:57.172537,237.76530120009556,238.07015650020912,237.76530120009556,None,None,237.76530120009556,None,238.57041689006147,None,,,,11009,0001,2022_Feb_21_1440,localizer,2021.1.3,60.283380109498715,
block,scrambled,scrambled082.bmp,,,,,0,115,115,115,,,,,,,,,,,,,,,,,,,,,,,,,,,,,,,,,,,,,,,,,,None,,238.57041689006147,None,238.57041689006147,None,2022-02-21-14:43:57.989522,238.58221830008551,238.88673420017585,238.58221830008551,None,None,238.58221830008551,None,239.38757969017607,None,,,,11009,0001,2022_Feb_21_1440,localizer,2021.1.3,60.283380109498715,
block,scrambled,scrambled018.bmp,,,,,0,116,116,116,,,,,,,,,,,,,,,,,,,,,,,,,,,,,,,,,,,,,,,,,,None,,239.38757969017607,None,239.38757969017607,None,2022-02-21-14:43:58.806505,239.39974330016412,239.7025993000716,239.39974330016412,None,None,239.39974330016412,None,240.20441369011533,None,,,,11009,0001,2022_Feb_21_1440,localizer,2021.1.3,60.283380109498715,
block,scrambled,scrambled002.bmp,,,,,0,117,117,117,,,,,,,,,,,,,,,,,,,,,,,,,,,,,,,,,,,,,,,,,,None,,240.20441369011533,None,240.20441369011533,None,2022-02-21-14:43:59.623478,240.21835750015453,240.5196446001064,240.21835750015453,None,None,240.21835750015453,None,241.01981129006018,None,,,,11009,0001,2022_Feb_21_1440,localizer,2021.1.3,60.283380109498715,
block,scrambled,scrambled055.bmp,,,,,0,118,118,118,,,,,,,,,,,,,,,,,,,,,,,,,,,,,,,,,,,,,,,,,,None,,241.01981129006018,None,241.01981129006018,None,2022-02-21-14:44:00.437997,241.0298946001567,241.33598319999874,241.0298946001567,None,None,241.0298946001567,None,241.8378096900182,None,,,,11009,0001,2022_Feb_21_1440,localizer,2021.1.3,60.283380109498715,
block,scrambled,scrambled057.bmp,,,,,0,119,119,119,,,,,,,,,,,,,,,,,,,,,,,,,,,,,,,,,,,,,,,,,,None,,241.8378096900182,None,241.8378096900182,None,2022-02-21-14:44:01.256935,241.85039400006644,242.15279840002768,241.85039400006644,None,None,241.85039400006644,None,242.65338149012533,None,,,,11009,0001,2022_Feb_21_1440,localizer,2021.1.3,60.283380109498715,
block,scrambled,scrambled062.bmp,,,,,0,120,120,120,,,,,,,,,,,,,,,,,,,,,,,,,,,,,,,,,,,,,,,,,,None,,242.65338149012533,None,242.65338149012533,None,2022-02-21-14:44:02.071323,242.66405420005322,242.96956500015222,242.66405420005322,None,None,242.66405420005322,None,243.47112368999515,None,,,,11009,0001,2022_Feb_21_1440,localizer,2021.1.3,60.283380109498715,
block_end,scrambled,scrambled044.bmp,,,,,0,121,121,121,,,,,,,,,,,,,,,,,,,,,,,,,,,,,,,,,,,,,,,,,,None,,243.47112368999515,None,243.47112368999515,None,2022-02-21-14:44:02.891184,243.47306860005483,243.78648370015435,243.47306860005483,None,None,243.47306860005483,None,244.28735719013494,None,,,,11009,0001,2022_Feb_21_1440,localizer,2021.1.3,60.283380109498715,
block_start,scrambled,scrambled020.bmp,,,,,0,122,122,122,,,,,,,,,,,,,,,,,,,,,,,,,,,,,,,,,,,,,,,,,,t,1.7217568000778556,244.28654920007102,None,244.28654920007102,None,2022-02-21-14:44:05.453413,246.04431490018032,246.35283820005134,246.04431490018032,None,None,246.04431490018032,None,246.85288689003792,None,,,,11009,0001,2022_Feb_21_1440,localizer,2021.1.3,60.283380109498715,
block,scrambled,scrambled057.bmp,,,,,0,123,123,123,,,,,,,,,,,,,,,,,,,,,,,,,,,,,,,,,,,,,,,,,,None,,246.85288689003792,None,246.85288689003792,None,2022-02-21-14:44:06.270098,246.85385920014232,247.1529049000237,246.85385920014232,None,None,246.85385920014232,None,247.65446679012385,None,,,,11009,0001,2022_Feb_21_1440,localizer,2021.1.3,60.283380109498715,
block,scrambled,scrambled017.bmp,,,,,0,124,124,124,,,,,,,,,,,,,,,,,,,,,,,,,,,,,,,,,,,,,,,,,,None,,247.65446679012385,None,247.65446679012385,None,2022-02-21-14:44:07.077512,247.6678964002058,247.96941230003722,247.6678964002058,247.6678964002058,None,247.6678964002058,247.6678964002058,248.47052939001006,None,,,,11009,0001,2022_Feb_21_1440,localizer,2021.1.3,60.283380109498715,
block,scrambled,scrambled054.bmp,,,,,0,125,125,125,,,,,,,,,,,,,,,,,,,,,,,,,,,,,,,,,,,,,,,,,,None,,248.47052939001006,None,248.47052939001006,None,2022-02-21-14:44:07.889461,248.48094130004756,248.78631009999663,248.48094130004756,None,None,248.48094130004756,None,249.2866553901462,None,,,,11009,0001,2022_Feb_21_1440,localizer,2021.1.3,60.283380109498715,
block,scrambled,scrambled074.bmp,,,,,0,126,126,126,,,,,,,,,,,,,,,,,,,,,,,,,,,,,,,,,,,,,,,,,,None,,249.2866553901462,None,249.2866553901462,None,2022-02-21-14:44:08.704598,249.29687180020846,249.6031325000804,249.29687180020846,None,None,249.29687180020846,None,250.10319389004727,None,,,,11009,0001,2022_Feb_21_1440,localizer,2021.1.3,60.283380109498715,
block,scrambled,scrambled042.bmp,,,,,0,127,127,127,,,,,,,,,,,,,,,,,,,,,,,,,,,,,,,,,,,,,,,,,,None,,250.10319389004727,None,250.10319389004727,None,2022-02-21-14:44:09.521140,250.10885690012947,250.41958410013467,250.10885690012947,None,None,250.10885690012947,None,250.92004709013273,None,,,,11009,0001,2022_Feb_21_1440,localizer,2021.1.3,60.283380109498715,
block,scrambled,scrambled076.bmp,,,,,0,128,128,128,,,,,,,,,,,,,,,,,,,,,,,,,,,,,,,,,,,,,,,,,,None,,250.92004709013273,None,250.92004709013273,None,2022-02-21-14:44:10.337989,250.93016680004075,251.2363456999883,250.93016680004075,None,None,250.93016680004075,None,251.73683289017063,None,,,,11009,0001,2022_Feb_21_1440,localizer,2021.1.3,60.283380109498715,
block,scrambled,scrambled036.bmp,,,,,0,129,129,129,,,,,,,,,,,,,,,,,,,,,,,,,,,,,,,,,,,,,,,,,,None,,251.73683289017063,None,251.73683289017063,None,2022-02-21-14:44:11.154775,251.74653950007632,252.05317900003865,251.74653950007632,None,None,251.74653950007632,None,252.55325959015173,None,,,,11009,0001,2022_Feb_21_1440,localizer,2021.1.3,60.283380109498715,
block,scrambled,scrambled064.bmp,,,,,0,130,130,130,,,,,,,,,,,,,,,,,,,,,,,,,,,,,,,,,,,,,,,,,,None,,252.55325959015173,None,252.55325959015173,None,2022-02-21-14:44:11.971405,252.5638172000181,252.86977180000395,252.5638172000181,None,None,252.5638172000181,None,253.37011829016265,None,,,,11009,0001,2022_Feb_21_1440,localizer,2021.1.3,60.283380109498715,
block,scrambled,scrambled041.bmp,,,,,0,131,131,131,,,,,,,,,,,,,,,,,,,,,,,,,,,,,,,,,,,,,,,,,,None,,253.37011829016265,None,253.37011829016265,None,2022-02-21-14:44:12.789262,253.38103400007822,253.68653460009955,253.38103400007822,None,None,253.38103400007822,None,254.1870436900994,None,,,,11009,0001,2022_Feb_21_1440,localizer,2021.1.3,60.283380109498715,
block,scrambled,scrambled060.bmp,,,,,0,132,132,132,,,,,,,,,,,,,,,,,,,,,,,,,,,,,,,,,,,,,,,,,,None,,254.1870436900994,None,254.1870436900994,None,2022-02-21-14:44:13.606182,254.19795550010167,254.50323450006545,254.19795550010167,None,None,254.19795550010167,None,255.0029986900976,None,,,,11009,0001,2022_Feb_21_1440,localizer,2021.1.3,60.283380109498715,
block,scrambled,scrambled014.bmp,,,,,0,133,133,133,,,,,,,,,,,,,,,,,,,,,,,,,,,,,,,,,,,,,,,,,,None,,255.0029986900976,None,255.0029986900976,None,2022-02-21-14:44:14.420949,255.01153910020366,255.32074670004658,255.01153910020366,None,None,255.01153910020366,None,255.81968599020038,None,,,,11009,0001,2022_Feb_21_1440,localizer,2021.1.3,60.283380109498715,
block,scrambled,scrambled071.bmp,,,,,0,134,134,134,,,,,,,,,,,,,,,,,,,,,,,,,,,,,,,,,,,,,,,,,,None,,255.81968599020038,None,255.81968599020038,None,2022-02-21-14:44:15.237635,255.82784779998474,256.1365393002052,255.82784779998474,None,None,255.82784779998474,None,256.63858759005086,None,,,,11009,0001,2022_Feb_21_1440,localizer,2021.1.3,60.283380109498715,
block,scrambled,scrambled046.bmp,,,,,0,135,135,135,,,,,,,,,,,,,,,,,,,,,,,,,,,,,,,,,,,,,,,,,,None,,256.63858759005086,None,256.63858759005086,None,2022-02-21-14:44:16.059629,256.6528372000903,256.9552267000545,256.6528372000903,None,None,256.6528372000903,None,257.4544227900682,None,,,,11009,0001,2022_Feb_21_1440,localizer,2021.1.3,60.283380109498715,
block_end,scrambled,scrambled065.bmp,,,,,0,136,136,136,,,,,,,,,,,,,,,,,,,,,,,,,,,,,,,,,,,,,,,,,,None,,257.4544227900682,None,257.4544227900682,None,2022-02-21-14:44:16.874486,257.45637510018423,257.77001310000196,257.45637510018423,None,None,257.45637510018423,None,258.27023269000927,None,,,,11009,0001,2022_Feb_21_1440,localizer,2021.1.3,60.283380109498715,
block_start,scenes,scenes090.bmp,,,,,0,137,137,137,,,,,,,,,,,,,,,,,,,,,,,,,,,,,,,,,,,,,,,,,,t,1.7383439000695944,258.2699535000138,None,258.2699535000138,None,2022-02-21-14:44:19.452935,260.0468401000835,260.35315980017185,260.0468401000835,None,None,260.0468401000835,None,260.8529691900825,None,,,,11009,0001,2022_Feb_21_1440,localizer,2021.1.3,60.283380109498715,
block,scenes,scenes082.bmp,,,,,0,138,138,138,,,,,,,,,,,,,,,,,,,,,,,,,,,,,,,,,,,,,,,,,,None,,260.8529691900825,None,260.8529691900825,None,2022-02-21-14:44:20.270918,260.85440750001,261.1697631001007,260.85440750001,None,None,260.85440750001,None,261.65359398999715,None,,,,11009,0001,2022_Feb_21_1440,localizer,2021.1.3,60.283380109498715,
block,scenes,scenes071.bmp,,,,,0,139,139,139,,,,,,,,,,,,,,,,,,,,,,,,,,,,,,,,,,,,,,,,,,None,,261.65359398999715,None,261.65359398999715,None,2022-02-21-14:44:21.073733,261.6563018001616,261.970445800107,261.6563018001616,261.6563018001616,None,261.6563018001616,261.6563018001616,262.4704932900844,None,,,,11009,0001,2022_Feb_21_1440,localizer,2021.1.3,60.283380109498715,
block,scenes,scenes025.bmp,,,,,0,140,140,140,,,,,,,,,,,,,,,,,,,,,,,,,,,,,,,,,,,,,,,,,,None,,262.4704932900844,None,262.4704932900844,None,2022-02-21-14:44:21.889426,262.48705710005015,262.7863475000486,262.48705710005015,None,None,262.48705710005015,None,263.2865631901426,None,,,,11009,0001,2022_Feb_21_1440,localizer,2021.1.3,60.283380109498715,
block,scenes,scenes041.bmp,,,,,0,141,141,141,,,,,,,,,,,,,,,,,,,,,,,,,,,,,,,,,,,,,,,,,,None,,263.2865631901426,None,263.2865631901426,None,2022-02-21-14:44:22.704506,263.2964192000218,263.6034142000135,263.2964192000218,None,None,263.2964192000218,None,264.103412890085,None,,,,11009,0001,2022_Feb_21_1440,localizer,2021.1.3,60.283380109498715,
block,scenes,scenes081.bmp,,,,,0,142,142,142,,,,,,,,,,,,,,,,,,,,,,,,,,,,,,,,,,,,,,,,,,None,,264.103412890085,None,264.103412890085,None,2022-02-21-14:44:23.521656,264.1131613000762,264.41940570017323,264.1131613000762,None,None,264.1131613000762,None,264.9199722900288,None,,,,11009,0001,2022_Feb_21_1440,localizer,2021.1.3,60.283380109498715,
block,scenes,scenes052.bmp,,,,,0,143,143,143,,,,,,,,,,,,,,,,,,,,,,,,,,,,,,,,,,,,,,,,,,None,,264.9199722900288,None,264.9199722900288,None,2022-02-21-14:44:24.337915,264.9302899001632,265.23649650020525,264.9302899001632,None,None,264.9302899001632,None,265.73671679010147,None,,,,11009,0001,2022_Feb_21_1440,localizer,2021.1.3,60.283380109498715,
block,scenes,scenes079.bmp,,,,,0,144,144,144,,,,,,,,,,,,,,,,,,,,,,,,,,,,,,,,,,,,,,,,,,None,,265.73671679010147,None,265.73671679010147,None,2022-02-21-14:44:25.154873,265.7477067001164,266.05317460000515,265.7477067001164,None,None,265.7477067001164,None,266.5534183901967,None,,,,11009,0001,2022_Feb_21_1440,localizer,2021.1.3,60.283380109498715,
block,scenes,scenes047.bmp,,,,,0,145,145,145,,,,,,,,,,,,,,,,,,,,,,,,,,,,,,,,,,,,,,,,,,None,,266.5534183901967,None,266.5534183901967,None,2022-02-21-14:44:25.971720,266.56429490004666,266.86967120016925,266.56429490004666,None,None,266.56429490004666,None,267.3597282899776,None,,,,11009,0001,2022_Feb_21_1440,localizer,2021.1.3,60.283380109498715,
block,scenes,scenes015.bmp,,,,,0,146,146,146,,,,,,,,,,,,,,,,,,,,,,,,,,,,,,,,,,,,,,,,,,None,,267.3597282899776,None,267.3597282899776,None,2022-02-21-14:44:26.785875,267.3727005000692,267.6862765001133,267.3727005000692,None,None,267.3727005000692,None,268.1698594901012,None,,,,11009,0001,2022_Feb_21_1440,localizer,2021.1.3,60.283380109498715,
block,scenes,scenes087.bmp,,,,,0,147,147,147,,,,,,,,,,,,,,,,,,,,,,,,,,,,,,,,,,,,,,,,,,None,,268.1698594901012,None,268.1698594901012,None,2022-02-21-14:44:27.587807,268.18075280007906,268.48674150020815,268.18075280007906,None,None,268.18075280007906,None,268.9869699901668,None,,,,11009,0001,2022_Feb_21_1440,localizer,2021.1.3,60.283380109498715,
block,scenes,scenes003.bmp,,,,,0,148,148,148,,,,,,,,,,,,,,,,,,,,,,,,,,,,,,,,,,,,,,,,,,None,,268.9869699901668,None,268.9869699901668,None,2022-02-21-14:44:28.406106,268.9876234000549,269.28676080005243,268.9876234000549,None,None,268.9876234000549,None,269.7873339901911,None,,,,11009,0001,2022_Feb_21_1440,localizer,2021.1.3,60.283380109498715,
block,scenes,scenes076.bmp,,,,,0,149,149,149,,,,,,,,,,,,,,,,,,,,,,,,,,,,,,,,,,,,,,,,,,None,,269.7873339901911,None,269.7873339901911,None,2022-02-21-14:44:29.208459,269.7972484000493,270.10296530020423,269.7972484000493,269.7972484000493,None,269.7972484000493,269.7972484000493,270.6040081900777,None,,,,11009,0001,2022_Feb_21_1440,localizer,2021.1.3,60.283380109498715,
block,scenes,scenes066.bmp,,,,,0,150,150,150,,,,,,,,,,,,,,,,,,,,,,,,,,,,,,,,,,,,,,,,,,None,,270.6040081900777,None,270.6040081900777,None,2022-02-21-14:44:30.022911,270.61542730010115,270.91954859998077,270.61542730010115,None,None,270.61542730010115,None,271.4203479899792,None,,,,11009,0001,2022_Feb_21_1440,localizer,2021.1.3,60.283380109498715,
block_end,scenes,scenes054.bmp,,,,,0,151,151,151,,,,,,,,,,,,,,,,,,,,,,,,,,,,,,,,,,,,,,,,,,None,,271.4203479899792,None,271.4203479899792,None,2022-02-21-14:44:30.839491,271.43172740004957,271.7435296000913,271.43172740004957,None,None,271.43172740004957,None,272.2431812900817,None,,,,11009,0001,2022_Feb_21_1440,localizer,2021.1.3,60.283380109498715,
null_block,null_block,null_block.bmp,,,,,0,152,152,152,,,,,,,,,,,,,,,,,,,,,,,,,,,,,,,,,,,,,,,,,,t,1.7665027000475675,272.2417745999992,None,272.2417745999992,None,2022-02-21-14:44:33.453719,274.0367718899855,None,274.0367718899855,None,None,274.0367718899855,None,274.04666850017384,None,,,,11009,0001,2022_Feb_21_1440,localizer,2021.1.3,60.283380109498715,
block_start,objects,objects059.bmp,,,,,0,153,153,153,,,,,,,,,,,,,,,,,,,,,,,,,,,,,,,,,,,,,,,,,,t,1.9551918001379818,286.05318240006454,None,286.05318240006454,None,2022-02-21-14:44:47.454565,288.037237000186,288.34285370004363,288.037237000186,None,None,288.037237000186,None,288.8376807900844,None,,,,11009,0001,2022_Feb_21_1440,localizer,2021.1.3,60.283380109498715,
block,objects,objects038.bmp,,,,,0,154,154,154,,,,,,,,,,,,,,,,,,,,,,,,,,,,,,,,,,,,,,,,,,None,,288.8376807900844,None,288.8376807900844,None,2022-02-21-14:44:48.257785,288.83804290019907,289.1531189000234,288.83804290019907,288.83804290019907,None,288.83804290019907,288.83804290019907,289.65358049001077,None,,,,11009,0001,2022_Feb_21_1440,localizer,2021.1.3,60.283380109498715,
block,objects,objects015.bmp,,,,,0,155,155,155,,,,,,,,,,,,,,,,,,,,,,,,,,,,,,,,,,,,,,,,,,None,,289.65358049001077,None,289.65358049001077,None,2022-02-21-14:44:49.071925,289.6541957000736,289.953891400015,289.6541957000736,None,None,289.6541957000736,None,290.453760890034,None,,,,11009,0001,2022_Feb_21_1440,localizer,2021.1.3,60.283380109498715,
block,objects,objects062.bmp,,,,,0,156,156,156,,,,,,,,,,,,,,,,,,,,,,,,,,,,,,,,,,,,,,,,,,None,,290.453760890034,None,290.453760890034,None,2022-02-21-14:44:49.873905,290.4661106001586,290.7700780001469,290.4661106001586,290.4661106001586,None,290.4661106001586,290.4661106001586,291.27044029019305,None,,,,11009,0001,2022_Feb_21_1440,localizer,2021.1.3,60.283380109498715,
block,objects,objects032.bmp,,,,,0,157,157,157,,,,,,,,,,,,,,,,,,,,,,,,,,,,,,,,,,,,,,,,,,None,,291.27044029019305,None,291.27044029019305,None,2022-02-21-14:44:50.688384,291.28100230009295,291.5866887001321,291.28100230009295,None,None,291.28100230009295,None,292.08722239008637,None,,,,11009,0001,2022_Feb_21_1440,localizer,2021.1.3,60.283380109498715,
block,objects,objects086.bmp,,,,,0,158,158,158,,,,,,,,,,,,,,,,,,,,,,,,,,,,,,,,,,,,,,,,,,None,,292.08722239008637,None,292.08722239008637,None,2022-02-21-14:44:51.505371,292.0978798000142,292.40332320006564,292.0978798000142,None,None,292.0978798000142,None,292.9063136901008,None,,,,11009,0001,2022_Feb_21_1440,localizer,2021.1.3,60.283380109498715,
block,objects,objects025.bmp,,,,,0,159,159,159,,,,,,,,,,,,,,,,,,,,,,,,,,,,,,,,,,,,,,,,,,None,,292.9063136901008,None,292.9063136901008,None,2022-02-21-14:44:52.325894,292.91717980010435,293.21997159998864,292.91717980010435,None,None,292.91717980010435,None,293.72045719015875,None,,,,11009,0001,2022_Feb_21_1440,localizer,2021.1.3,60.283380109498715,
block,objects,objects006.bmp,,,,,0,160,160,160,,,,,,,,,,,,,,,,,,,,,,,,,,,,,,,,,,,,,,,,,,None,,293.72045719015875,None,293.72045719015875,None,2022-02-21-14:44:53.138802,293.72088979999535,294.0198413000908,293.72088979999535,None,None,293.72088979999535,None,294.52037639005573,None,,,,11009,0001,2022_Feb_21_1440,localizer,2021.1.3,60.283380109498715,
block,objects,objects078.bmp,,,,,0,161,161,161,,,,,,,,,,,,,,,,,,,,,,,,,,,,,,,,,,,,,,,,,,None,,294.52037639005573,None,294.52037639005573,None,2022-02-21-14:44:53.940530,294.53163980017416,294.84286660002545,294.53163980017416,294.53163980017416,None,294.53163980017416,294.53163980017416,295.3369984901277,None,,,,11009,0001,2022_Feb_21_1440,localizer,2021.1.3,60.283380109498715,
block,objects,objects057.bmp,,,,,0,162,162,162,,,,,,,,,,,,,,,,,,,,,,,,,,,,,,,,,,,,,,,,,,None,,295.3369984901277,None,295.3369984901277,None,2022-02-21-14:44:54.754939,295.3478281002026,295.6530762000475,295.3478281002026,None,None,295.3478281002026,None,296.1538869901327,None,,,,11009,0001,2022_Feb_21_1440,localizer,2021.1.3,60.283380109498715,
block,objects,objects071.bmp,,,,,0,163,163,163,,,,,,,,,,,,,,,,,,,,,,,,,,,,,,,,,,,,,,,,,,None,,296.1538869901327,None,296.1538869901327,None,2022-02-21-14:44:55.572038,296.1542429002002,296.4537031000946,296.1542429002002,None,None,296.1542429002002,None,296.95401589011306,None,,,,11009,0001,2022_Feb_21_1440,localizer,2021.1.3,60.283380109498715,
block,objects,objects082.bmp,,,,,0,164,164,164,,,,,,,,,,,,,,,,,,,,,,,,,,,,,,,,,,,,,,,,,,None,,296.95401589011306,None,296.95401589011306,None,2022-02-21-14:44:56.374949,296.9671397001948,297.2698919000104,296.9671397001948,296.9671397001948,None,296.9671397001948,296.9671397001948,297.7702467900002,None,,,,11009,0001,2022_Feb_21_1440,localizer,2021.1.3,60.283380109498715,
block,objects,objects075.bmp,,,,,0,165,165,165,,,,,,,,,,,,,,,,,,,,,,,,,,,,,,,,,,,,,,,,,,None,,297.7702467900002,None,297.7702467900002,None,2022-02-21-14:44:57.188437,297.7793275001459,298.0872239000164,297.7793275001459,None,None,297.7793275001459,None,298.5869700901443,None,,,,11009,0001,2022_Feb_21_1440,localizer,2021.1.3,60.283380109498715,
block,objects,objects074.bmp,,,,,0,166,166,166,,,,,,,,,,,,,,,,,,,,,,,,,,,,,,,,,,,,,,,,,,None,,298.5869700901443,None,298.5869700901443,None,2022-02-21-14:44:58.004910,298.5876110000536,298.88684030016884,298.5876110000536,None,None,298.5876110000536,None,299.3868299901718,None,,,,11009,0001,2022_Feb_21_1440,localizer,2021.1.3,60.283380109498715,
block_end,objects,objects023.bmp,,,,,0,167,167,167,,,,,,,,,,,,,,,,,,,,,,,,,,,,,,,,,,,,,,,,,,None,,299.3868299901718,None,299.3868299901718,None,2022-02-21-14:44:58.805774,299.3971235000063,299.7033129001502,299.3971235000063,299.3971235000063,None,299.3971235000063,299.3971235000063,300.2037473900476,None,,,,11009,0001,2022_Feb_21_1440,localizer,2021.1.3,60.283380109498715,
block_start,faces,faces073.bmp,,,,,0,168,168,168,,,,,,,,,,,,,,,,,,,,,,,,,,,,,,,,,,,,,,,,,,t,1.804990400094539,300.2033307000529,None,300.2033307000529,None,2022-02-21-14:45:01.453317,302.0469560001511,302.35325699998066,302.0469560001511,None,None,302.0469560001511,None,302.85436309010254,None,,,,11009,0001,2022_Feb_21_1440,localizer,2021.1.3,60.283380109498715,
block,faces,faces007.bmp,,,,,0,169,169,169,,,,,,,,,,,,,,,,,,,,,,,,,,,,,,,,,,,,,,,,,,None,,302.85436309010254,None,302.85436309010254,None,2022-02-21-14:45:02.273542,302.8656851002015,303.1706745000556,302.8656851002015,None,None,302.8656851002015,None,303.6708389899926,None,,,,11009,0001,2022_Feb_21_1440,localizer,2021.1.3,60.283380109498715,
block,faces,faces071.bmp,,,,,0,170,170,170,,,,,,,,,,,,,,,,,,,,,,,,,,,,,,,,,,,,,,,,,,None,,303.6708389899926,None,303.6708389899926,None,2022-02-21-14:45:03.089924,303.67287150002085,303.98660459998064,303.67287150002085,None,None,303.67287150002085,None,304.48700119017155,None,,,,11009,0001,2022_Feb_21_1440,localizer,2021.1.3,60.283380109498715,
block,faces,faces046.bmp,,,,,0,171,171,171,,,,,,,,,,,,,,,,,,,,,,,,,,,,,,,,,,,,,,,,,,None,,304.48700119017155,None,304.48700119017155,None,2022-02-21-14:45:03.905151,304.4936618001666,304.8034473999869,304.4936618001666,None,None,304.4936618001666,None,305.30385579003485,None,,,,11009,0001,2022_Feb_21_1440,localizer,2021.1.3,60.283380109498715,
block,faces,faces077.bmp,,,,,0,172,172,172,,,,,,,,,,,,,,,,,,,,,,,,,,,,,,,,,,,,,,,,,,None,,305.30385579003485,None,305.30385579003485,None,2022-02-21-14:45:04.722093,305.3043647999875,305.6035286001861,305.3043647999875,None,None,305.3043647999875,None,306.10376439008394,None,,,,11009,0001,2022_Feb_21_1440,localizer,2021.1.3,60.283380109498715,
block,faces,faces077.bmp,,,,,0,173,173,173,,,,,,,,,,,,,,,,,,,,,,,,,,,,,,,,,,,,,,,,,,None,,306.10376439008394,None,306.10376439008394,None,2022-02-21-14:45:05.524698,306.1064507002011,306.4201343001332,306.1064507002011,306.1064507002011,y,306.1064507002011,306.1064507002011,306.9209083900554,None,0.37551319994963706,,,11009,0001,2022_Feb_21_1440,localizer,2021.1.3,60.283380109498715,
block,faces,faces009.bmp,,,,,0,174,174,174,,,,,,,,,,,,,,,,,,,,,,,,,,,,,,,,,,,,,,,,,,None,,306.9209083900554,None,306.9209083900554,None,2022-02-21-14:45:06.340039,306.93232850008644,307.2366295000538,306.93232850008644,None,None,306.93232850008644,None,307.73707959007004,None,,,,11009,0001,2022_Feb_21_1440,localizer,2021.1.3,60.283380109498715,
block,faces,faces070.bmp,,,,,0,175,175,175,,,,,,,,,,,,,,,,,,,,,,,,,,,,,,,,,,,,,,,,,,None,,307.73707959007004,None,307.73707959007004,None,2022-02-21-14:45:07.155023,307.7473605000414,308.053258900065,307.7473605000414,None,None,307.7473605000414,None,308.5538346899906,None,,,,11009,0001,2022_Feb_21_1440,localizer,2021.1.3,60.283380109498715,
block,faces,faces024.bmp,,,,,0,176,176,176,,,,,,,,,,,,,,,,,,,,,,,,,,,,,,,,,,,,,,,,,,None,,308.5538346899906,None,308.5538346899906,None,2022-02-21-14:45:07.971779,308.554328000173,308.8700121000875,308.554328000173,None,None,308.554328000173,None,309.35357699005397,None,,,,11009,0001,2022_Feb_21_1440,localizer,2021.1.3,60.283380109498715,
block,faces,faces058.bmp,,,,,0,177,177,177,,,,,,,,,,,,,,,,,,,,,,,,,,,,,,,,,,,,,,,,,,None,,309.35357699005397,None,309.35357699005397,None,2022-02-21-14:45:08.773384,309.36543270014226,309.6700112000108,309.36543270014226,309.36543270014226,None,309.36543270014226,309.36543270014226,310.170397190121,None,,,,11009,0001,2022_Feb_21_1440,localizer,2021.1.3,60.283380109498715,
block,faces,faces049.bmp,,,,,0,178,178,178,,,,,,,,,,,,,,,,,,,,,,,,,,,,,,,,,,,,,,,,,,None,,310.170397190121,None,310.170397190121,None,2022-02-21-14:45:09.588342,310.18037000019103,310.48662550002337,310.18037000019103,None,None,310.18037000019103,None,310.98696929004507,None,,,,11009,0001,2022_Feb_21_1440,localizer,2021.1.3,60.283380109498715,
block,faces,faces019.bmp,,,,,0,179,179,179,,,,,,,,,,,,,,,,,,,,,,,,,,,,,,,,,,,,,,,,,,None,,310.98696929004507,None,310.98696929004507,None,2022-02-21-14:45:10.405126,311.00196220004,311.30336070014164,311.00196220004,None,None,311.00196220004,None,311.80385869017334,None,,,,11009,0001,2022_Feb_21_1440,localizer,2021.1.3,60.283380109498715,
block,faces,faces002.bmp,,,,,0,180,180,180,,,,,,,,,,,,,,,,,,,,,,,,,,,,,,,,,,,,,,,,,,None,,311.80385869017334,None,311.80385869017334,None,2022-02-21-14:45:11.221802,311.8149196000304,312.12009830004536,311.8149196000304,None,None,311.8149196000304,None,312.6203563899966,None,,,,11009,0001,2022_Feb_21_1440,localizer,2021.1.3,60.283380109498715,
block,faces,faces075.bmp,,,,,0,181,181,181,,,,,,,,,,,,,,,,,,,,,,,,,,,,,,,,,,,,,,,,,,None,,312.6203563899966,None,312.6203563899966,None,2022-02-21-14:45:12.038520,312.63032970018685,312.9365736001637,312.63032970018685,None,None,312.63032970018685,None,313.4373731901636,None,,,,11009,0001,2022_Feb_21_1440,localizer,2021.1.3,60.283380109498715,
block_end,faces,faces087.bmp,,,,,0,182,182,182,,,,,,,,,,,,,,,,,,,,,,,,,,,,,,,,,,,,,,,,,,None,,313.4373731901636,None,313.4373731901636,None,2022-02-21-14:45:12.856309,313.44882380007766,313.75352610019036,313.44882380007766,None,None,313.44882380007766,None,314.25400579019913,None,,,,11009,0001,2022_Feb_21_1440,localizer,2021.1.3,60.283380109498715,
block_start,faces,faces034.bmp,,,,,0,183,183,183,,,,,,,,,,,,,,,,,,,,,,,,,,,,,,,,,,,,,,,,,,t,1.7555942998733371,314.2535647000186,None,314.2535647000186,None,2022-02-21-14:45:15.462063,316.05232340004295,316.3533168002032,316.05232340004295,None,None,316.05232340004295,None,316.85352819014804,None,,,,11009,0001,2022_Feb_21_1440,localizer,2021.1.3,60.283380109498715,
block,faces,faces066.bmp,,,,,0,184,184,184,,,,,,,,,,,,,,,,,,,,,,,,,,,,,,,,,,,,,,,,,,None,,316.85352819014804,None,316.85352819014804,None,2022-02-21-14:45:16.271475,316.86335650016554,317.1700797001831,316.86335650016554,None,None,316.86335650016554,None,317.6706943900557,None,,,,11009,0001,2022_Feb_21_1440,localizer,2021.1.3,60.283380109498715,
block,faces,faces010.bmp,,,,,0,185,185,185,,,,,,,,,,,,,,,,,,,,,,,,,,,,,,,,,,,,,,,,,,None,,317.6706943900557,None,317.6706943900557,None,2022-02-21-14:45:17.089825,317.68249490018934,317.98710210016,317.68249490018934,None,None,317.68249490018934,None,318.4871575901983,None,,,,11009,0001,2022_Feb_21_1440,localizer,2021.1.3,60.283380109498715,
block,faces,faces047.bmp,,,,,0,186,186,186,,,,,,,,,,,,,,,,,,,,,,,,,,,,,,,,,,,,,,,,,,None,,318.4871575901983,None,318.4871575901983,None,2022-02-21-14:45:17.905380,318.50194140011445,318.8033776001539,318.50194140011445,None,None,318.50194140011445,None,319.30378909010903,None,,,,11009,0001,2022_Feb_21_1440,localizer,2021.1.3,60.283380109498715,
block,faces,faces017.bmp,,,,,0,187,187,187,,,,,,,,,,,,,,,,,,,,,,,,,,,,,,,,,,,,,,,,,,None,,319.30378909010903,None,319.30378909010903,None,2022-02-21-14:45:18.721934,319.31407910003327,319.62018420011736,319.31407910003327,None,None,319.31407910003327,None,320.1204489900032,None,,,,11009,0001,2022_Feb_21_1440,localizer,2021.1.3,60.283380109498715,
block,faces,faces043.bmp,,,,,0,188,188,188,,,,,,,,,,,,,,,,,,,,,,,,,,,,,,,,,,,,,,,,,,None,,320.1204489900032,None,320.1204489900032,None,2022-02-21-14:45:19.538391,320.1210367002059,320.4202774001751,320.1210367002059,None,None,320.1210367002059,None,320.9208899901481,None,,,,11009,0001,2022_Feb_21_1440,localizer,2021.1.3,60.283380109498715,
block,faces,faces008.bmp,,,,,0,189,189,189,,,,,,,,,,,,,,,,,,,,,,,,,,,,,,,,,,,,,,,,,,None,,320.9208899901481,None,320.9208899901481,None,2022-02-21-14:45:20.341800,320.9298456001561,321.2367253000848,320.9298456001561,320.9298456001561,None,320.9298456001561,320.9298456001561,321.7381259901216,None,,,,11009,0001,2022_Feb_21_1440,localizer,2021.1.3,60.283380109498715,
block,faces,faces078.bmp,,,,,0,190,190,190,,,,,,,,,,,,,,,,,,,,,,,,,,,,,,,,,,,,,,,,,,None,,321.7381259901216,None,321.7381259901216,None,2022-02-21-14:45:21.157185,321.7502412002068,322.0537988001015,321.7502412002068,None,None,321.7502412002068,None,322.5558040900854,None,,,,11009,0001,2022_Feb_21_1440,localizer,2021.1.3,60.283380109498715,
block,faces,faces037.bmp,,,,,0,191,191,191,,,,,,,,,,,,,,,,,,,,,,,,,,,,,,,,,,,,,,,,,,None,,322.5558040900854,None,322.5558040900854,None,2022-02-21-14:45:21.977911,322.56125980010256,322.8708317000419,322.56125980010256,None,None,322.56125980010256,None,323.3703764900332,None,,,,11009,0001,2022_Feb_21_1440,localizer,2021.1.3,60.283380109498715,
block,faces,faces014.bmp,,,,,0,192,192,192,,,,,,,,,,,,,,,,,,,,,,,,,,,,,,,,,,,,,,,,,,None,,323.3703764900332,None,323.3703764900332,None,2022-02-21-14:45:22.788932,323.3810498001985,323.68703190004453,323.3810498001985,None,None,323.3810498001985,None,324.1891747901449,None,,,,11009,0001,2022_Feb_21_1440,localizer,2021.1.3,60.283380109498715,
block,faces,faces007.bmp,,,,,0,193,193,193,,,,,,,,,,,,,,,,,,,,,,,,,,,,,,,,,,,,,,,,,,None,,324.1891747901449,None,324.1891747901449,None,2022-02-21-14:45:23.611097,324.1943022001069,324.503245000029,324.1943022001069,None,None,324.1943022001069,None,325.0039615900954,None,,,,11009,0001,2022_Feb_21_1440,localizer,2021.1.3,60.283380109498715,
block,faces,faces026.bmp,,,,,0,194,194,194,,,,,,,,,,,,,,,,,,,,,,,,,,,,,,,,,,,,,,,,,,None,,325.0039615900954,None,325.0039615900954,None,2022-02-21-14:45:24.421905,325.04116070014425,325.3534085000865,325.04116070014425,None,None,325.04116070014425,None,325.820398390037,None,,,,11009,0001,2022_Feb_21_1440,localizer,2021.1.3,60.283380109498715,
block,faces,faces081.bmp,,,,,0,195,195,195,,,,,,,,,,,,,,,,,,,,,,,,,,,,,,,,,,,,,,,,,,None,,325.820398390037,None,325.820398390037,None,2022-02-21-14:45:25.238446,325.8306886001956,326.1369588000234,325.8306886001956,None,None,325.8306886001956,None,326.63703579010905,None,,,,11009,0001,2022_Feb_21_1440,localizer,2021.1.3,60.283380109498715,
block,faces,faces060.bmp,,,,,0,196,196,196,,,,,,,,,,,,,,,,,,,,,,,,,,,,,,,,,,,,,,,,,,None,,326.63703579010905,None,326.63703579010905,None,2022-02-21-14:45:26.054977,326.6471212999895,326.95341780013405,326.6471212999895,None,None,326.6471212999895,None,327.4539344901917,None,,,,11009,0001,2022_Feb_21_1440,localizer,2021.1.3,60.283380109498715,
block_end,faces,faces063.bmp,,,,,0,197,197,197,,,,,,,,,,,,,,,,,,,,,,,,,,,,,,,,,,,,,,,,,,None,,327.4539344901917,None,327.4539344901917,None,2022-02-21-14:45:26.872091,327.4544945000671,327.753587000072,327.4544945000671,None,None,327.4544945000671,None,328.25413579002486,None,,,,11009,0001,2022_Feb_21_1440,localizer,2021.1.3,60.283380109498715,
block_start,objects,objects020.bmp,,,,,0,198,198,198,,,,,,,,,,,,,,,,,,,,,,,,,,,,,,,,,,,,,,,,,,t,1.7535926001146436,328.2536709001288,None,328.2536709001288,None,2022-02-21-14:45:29.456570,330.0481092000846,330.35370260011405,330.0481092000846,None,None,330.0481092000846,None,330.85388599007854,None,,,,11009,0001,2022_Feb_21_1440,localizer,2021.1.3,60.283380109498715,
block,objects,objects080.bmp,,,,,0,199,199,199,,,,,,,,,,,,,,,,,,,,,,,,,,,,,,,,,,,,,,,,,,None,,330.85388599007854,None,330.85388599007854,None,2022-02-21-14:45:30.271810,330.8636301001534,331.1705291001126,330.8636301001534,None,None,330.8636301001534,None,331.67132529008666,None,,,,11009,0001,2022_Feb_21_1440,localizer,2021.1.3,60.283380109498715,
block,objects,objects054.bmp,,,,,0,200,200,200,,,,,,,,,,,,,,,,,,,,,,,,,,,,,,,,,,,,,,,,,,None,,331.67132529008666,None,331.67132529008666,None,2022-02-21-14:45:31.089256,331.6786120000761,331.98715420020744,331.6786120000761,None,None,331.6786120000761,None,332.48718309004323,None,,,,11009,0001,2022_Feb_21_1440,localizer,2021.1.3,60.283380109498715,
block,objects,objects024.bmp,,,,,0,201,201,201,,,,,,,,,,,,,,,,,,,,,,,,,,,,,,,,,,,,,,,,,,None,,332.48718309004323,None,332.48718309004323,None,2022-02-21-14:45:31.905128,332.4970112000592,332.80355270020664,332.4970112000592,None,None,332.4970112000592,None,333.3038514901185,None,,,,11009,0001,2022_Feb_21_1440,localizer,2021.1.3,60.283380109498715,
block,objects,objects001.bmp,,,,,0,202,202,202,,,,,,,,,,,,,,,,,,,,,,,,,,,,,,,,,,,,,,,,,,None,,333.3038514901185,None,333.3038514901185,None,2022-02-21-14:45:32.721795,333.31357570015825,333.62054849998094,333.31357570015825,None,None,333.31357570015825,None,334.1210572900949,None,,,,11009,0001,2022_Feb_21_1440,localizer,2021.1.3,60.283380109498715,
block,objects,objects015.bmp,,,,,0,203,203,203,,,,,,,,,,,,,,,,,,,,,,,,,,,,,,,,,,,,,,,,,,None,,334.1210572900949,None,334.1210572900949,None,2022-02-21-14:45:33.540770,334.1237282000948,334.4368253001012,334.1237282000948,None,None,334.1237282000948,None,334.93689098998436,None,,,,11009,0001,2022_Feb_21_1440,localizer,2021.1.3,60.283380109498715,
block,objects,objects038.bmp,,,,,0,204,204,204,,,,,,,,,,,,,,,,,,,,,,,,,,,,,,,,,,,,,,,,,,None,,334.93689098998436,None,334.93689098998436,None,2022-02-21-14:45:34.354840,334.9381624001544,335.23694380000234,334.9381624001544,None,None,334.9381624001544,None,335.7372110900236,None,,,,11009,0001,2022_Feb_21_1440,localizer,2021.1.3,60.283380109498715,
block,objects,objects038.bmp,,,,,0,205,205,205,,,,,,,,,,,,,,,,,,,,,,,,,,,,,,,,,,,,,,,,,,None,,335.7372110900236,None,335.7372110900236,None,2022-02-21-14:45:35.157150,335.7382065001875,336.0534809001256,335.7382065001875,335.7382065001875,y,335.7382065001875,335.7382065001875,336.5372437899699,None,0.5901434000115842,,,11009,0001,2022_Feb_21_1440,localizer,2021.1.3,60.283380109498715,
block,objects,objects069.bmp,,,,,0,206,206,206,,,,,,,,,,,,,,,,,,,,,,,,,,,,,,,,,,,,,,,,,,None,,336.5372437899699,None,336.5372437899699,None,2022-02-21-14:45:35.957301,336.5453938001301,336.85364700015634,336.5453938001301,336.5453938001301,None,336.5453938001301,336.5453938001301,337.35380569004917,None,,,,11009,0001,2022_Feb_21_1440,localizer,2021.1.3,60.283380109498715,
block,objects,objects016.bmp,,,,,0,207,207,207,,,,,,,,,,,,,,,,,,,,,,,,,,,,,,,,,,,,,,,,,,None,,337.35380569004917,None,337.35380569004917,None,2022-02-21-14:45:36.771751,337.36243380000815,337.6702647001948,337.36243380000815,None,None,337.36243380000815,None,338.1705647900002,None,,,,11009,0001,2022_Feb_21_1440,localizer,2021.1.3,60.283380109498715,
block,objects,objects058.bmp,,,,,0,208,208,208,,,,,,,,,,,,,,,,,,,,,,,,,,,,,,,,,,,,,,,,,,None,,338.1705647900002,None,338.1705647900002,None,2022-02-21-14:45:37.588944,338.1711431001313,338.4706636001356,338.1711431001313,None,None,338.1711431001313,None,338.97040518999563,None,,,,11009,0001,2022_Feb_21_1440,localizer,2021.1.3,60.283380109498715,
block,objects,objects044.bmp,,,,,0,209,209,209,,,,,,,,,,,,,,,,,,,,,,,,,,,,,,,,,,,,,,,,,,None,,338.97040518999563,None,338.97040518999563,None,2022-02-21-14:45:38.390604,338.98117729998194,339.2868848000653,338.98117729998194,338.98117729998194,None,338.98117729998194,338.98117729998194,339.7872875900706,None,,,,11009,0001,2022_Feb_21_1440,localizer,2021.1.3,60.283380109498715,
block,objects,objects049.bmp,,,,,0,210,210,210,,,,,,,,,,,,,,,,,,,,,,,,,,,,,,,,,,,,,,,,,,None,,339.7872875900706,None,339.7872875900706,None,2022-02-21-14:45:39.205205,339.78776980005205,340.0868517002091,339.78776980005205,None,None,339.78776980005205,None,340.5875381901627,None,,,,11009,0001,2022_Feb_21_1440,localizer,2021.1.3,60.283380109498715,
block,objects,objects066.bmp,,,,,0,211,211,211,,,,,,,,,,,,,,,,,,,,,,,,,,,,,,,,,,,,,,,,,,None,,340.5875381901627,None,340.5875381901627,None,2022-02-21-14:45:40.008626,340.60102760000154,340.90341500006616,340.60102760000154,340.60102760000154,None,340.60102760000154,340.60102760000154,341.40424609018953,None,,,,11009,0001,2022_Feb_21_1440,localizer,2021.1.3,60.283380109498715,
block_end,objects,objects071.bmp,,,,,0,212,212,212,,,,,,,,,,,,,,,,,,,,,,,,,,,,,,,,,,,,,,,,,,None,,341.40424609018953,None,341.40424609018953,None,2022-02-21-14:45:40.822362,341.4043642000761,341.7035344000906,341.4043642000761,None,None,341.4043642000761,None,342.2037758901482,None,,,,11009,0001,2022_Feb_21_1440,localizer,2021.1.3,60.283380109498715,
block_start,scenes,scenes049.bmp,,,,,0,213,213,213,,,,,,,,,,,,,,,,,,,,,,,,,,,,,,,,,,,,,,,,,,t,1.8040017001330853,342.2035085000098,None,342.2035085000098,None,2022-02-21-14:45:43.456608,344.0468821001705,344.36005020001903,344.0468821001705,None,None,344.0468821001705,None,344.8539181900909,None,,,,11009,0001,2022_Feb_21_1440,localizer,2021.1.3,60.283380109498715,
block,scenes,scenes018.bmp,,,,,0,214,214,214,,,,,,,,,,,,,,,,,,,,,,,,,,,,,,,,,,,,,,,,,,None,,344.8539181900909,None,344.8539181900909,None,2022-02-21-14:45:44.271082,344.85470200004056,345.17013010010123,344.85470200004056,None,None,344.85470200004056,None,345.6543306901352,None,,,,11009,0001,2022_Feb_21_1440,localizer,2021.1.3,60.283380109498715,
block,scenes,scenes013.bmp,,,,,0,215,215,215,,,,,,,,,,,,,,,,,,,,,,,,,,,,,,,,,,,,,,,,,,None,,345.6543306901352,None,345.6543306901352,None,2022-02-21-14:45:45.075263,345.6666469001211,345.97040960006416,345.6666469001211,345.6666469001211,None,345.6666469001211,345.6666469001211,346.4717824901221,None,,,,11009,0001,2022_Feb_21_1440,localizer,2021.1.3,60.283380109498715,
block,scenes,scenes063.bmp,,,,,0,216,216,216,,,,,,,,,,,,,,,,,,,,,,,,,,,,,,,,,,,,,,,,,,None,,346.4717824901221,None,346.4717824901221,None,2022-02-21-14:45:45.891701,346.4863129002042,346.78727830015123,346.4863129002042,None,None,346.4863129002042,None,347.28944729010107,None,,,,11009,0001,2022_Feb_21_1440,localizer,2021.1.3,60.283380109498715,
block,scenes,scenes039.bmp,,,,,0,217,217,217,,,,,,,,,,,,,,,,,,,,,,,,,,,,,,,,,,,,,,,,,,None,,347.28944729010107,None,347.28944729010107,None,2022-02-21-14:45:46.711473,347.3043116000481,347.60346540017053,347.3043116000481,None,None,347.3043116000481,None,348.1049851900665,None,,,,11009,0001,2022_Feb_21_1440,localizer,2021.1.3,60.283380109498715,
block,scenes,scenes015.bmp,,,,,0,218,218,218,,,,,,,,,,,,,,,,,,,,,,,,,,,,,,,,,,,,,,,,,,None,,348.1049851900665,None,348.1049851900665,None,2022-02-21-14:45:47.522937,348.10488970018923,348.42010890017264,348.10488970018923,None,None,348.10488970018923,None,348.9040116900345,None,,,,11009,0001,2022_Feb_21_1440,localizer,2021.1.3,60.283380109498715,
block,scenes,scenes009.bmp,,,,,0,219,219,219,,,,,,,,,,,,,,,,,,,,,,,,,,,,,,,,,,,,,,,,,,None,,348.9040116900345,None,348.9040116900345,None,2022-02-21-14:45:48.324396,348.905839700019,349.2050284000579,348.905839700019,348.905839700019,None,348.905839700019,348.905839700019,349.72023439009206,None,,,,11009,0001,2022_Feb_21_1440,localizer,2021.1.3,60.283380109498715,
block,scenes,scenes021.bmp,,,,,0,220,220,220,,,,,,,,,,,,,,,,,,,,,,,,,,,,,,,,,,,,,,,,,,None,,349.72023439009206,None,349.72023439009206,None,2022-02-21-14:45:49.138183,349.7298817001283,350.03713960014284,349.7298817001283,None,None,349.7298817001283,None,350.5370692901546,None,,,,11009,0001,2022_Feb_21_1440,localizer,2021.1.3,60.283380109498715,
block,scenes,scenes087.bmp,,,,,0,221,221,221,,,,,,,,,,,,,,,,,,,,,,,,,,,,,,,,,,,,,,,,,,None,,350.5370692901546,None,350.5370692901546,None,2022-02-21-14:45:49.955230,350.53803190006875,350.85381740005687,350.53803190006875,None,None,350.53803190006875,None,351.3384788899915,None,,,,11009,0001,2022_Feb_21_1440,localizer,2021.1.3,60.283380109498715,
block,scenes,scenes061.bmp,,,,,0,222,222,222,,,,,,,,,,,,,,,,,,,,,,,,,,,,,,,,,,,,,,,,,,None,,351.3384788899915,None,351.3384788899915,None,2022-02-21-14:45:50.760526,351.35370590002276,351.6537179001607,351.35370590002276,351.35370590002276,None,351.35370590002276,351.35370590002276,352.1542802899843,None,,,,11009,0001,2022_Feb_21_1440,localizer,2021.1.3,60.283380109498715,
block,scenes,scenes041.bmp,,,,,0,223,223,223,,,,,,,,,,,,,,,,,,,,,,,,,,,,,,,,,,,,,,,,,,None,,352.1542802899843,None,352.1542802899843,None,2022-02-21-14:45:51.572425,352.15475860005245,352.4540642001666,352.15475860005245,None,None,352.15475860005245,None,352.96183069001415,None,,,,11009,0001,2022_Feb_21_1440,localizer,2021.1.3,60.283380109498715,
block,scenes,scenes027.bmp,,,,,0,224,224,224,,,,,,,,,,,,,,,,,,,,,,,,,,,,,,,,,,,,,,,,,,None,,352.96183069001415,None,352.96183069001415,None,2022-02-21-14:45:52.386703,352.98040970019065,353.2872250000946,352.98040970019065,None,None,352.98040970019065,None,353.770797490119,None,,,,11009,0001,2022_Feb_21_1440,localizer,2021.1.3,60.283380109498715,
block,scenes,scenes043.bmp,,,,,0,225,225,225,,,,,,,,,,,,,,,,,,,,,,,,,,,,,,,,,,,,,,,,,,None,,353.770797490119,None,353.770797490119,None,2022-02-21-14:45:53.188949,353.7804667002056,354.08719200012274,353.7804667002056,None,None,353.7804667002056,None,354.5873955900082,None,,,,11009,0001,2022_Feb_21_1440,localizer,2021.1.3,60.283380109498715,
block,scenes,scenes053.bmp,,,,,0,226,226,226,,,,,,,,,,,,,,,,,,,,,,,,,,,,,,,,,,,,,,,,,,None,,354.5873955900082,None,354.5873955900082,None,2022-02-21-14:45:54.005339,354.5971950001549,354.90462410007603,354.5971950001549,None,None,354.5971950001549,None,355.4042730901623,None,,,,11009,0001,2022_Feb_21_1440,localizer,2021.1.3,60.283380109498715,
block_end,scenes,scenes033.bmp,,,,,0,227,227,227,,,,,,,,,,,,,,,,,,,,,,,,,,,,,,,,,,,,,,,,,,None,,355.4042730901623,None,355.4042730901623,None,2022-02-21-14:45:54.822195,355.40469110012054,355.7038764001336,355.40469110012054,None,None,355.40469110012054,None,356.20419079016426,None,,,,11009,0001,2022_Feb_21_1440,localizer,2021.1.3,60.283380109498715,
block_start,scrambled,scrambled088.bmp,,,,,0,228,228,228,,,,,,,,,,,,,,,,,,,,,,,,,,,,,,,,,,,,,,,,,,t,1.8037503000814468,356.20374889997765,None,356.20374889997765,None,2022-02-21-14:45:57.454427,358.0468246000819,358.35382960014977,358.0468246000819,None,None,358.0468246000819,None,358.8541129901772,None,,,,11009,0001,2022_Feb_21_1440,localizer,2021.1.3,60.283380109498715,
block,scrambled,scrambled006.bmp,,,,,0,229,229,229,,,,,,,,,,,,,,,,,,,,,,,,,,,,,,,,,,,,,,,,,,None,,358.8541129901772,None,358.8541129901772,None,2022-02-21-14:45:58.279350,358.8649501001928,359.17176600010134,358.8649501001928,None,None,358.8649501001928,None,359.6706526900874,None,,,,11009,0001,2022_Feb_21_1440,localizer,2021.1.3,60.283380109498715,
block,scrambled,scrambled009.bmp,,,,,0,230,230,230,,,,,,,,,,,,,,,,,,,,,,,,,,,,,,,,,,,,,,,,,,None,,359.6706526900874,None,359.6706526900874,None,2022-02-21-14:45:59.088605,359.68040930014104,359.98729409999214,359.68040930014104,None,None,359.68040930014104,None,360.4885479900753,None,,,,11009,0001,2022_Feb_21_1440,localizer,2021.1.3,60.283380109498715,
block,scrambled,scrambled085.bmp,,,,,0,231,231,231,,,,,,,,,,,,,,,,,,,,,,,,,,,,,,,,,,,,,,,,,,None,,360.4885479900753,None,360.4885479900753,None,2022-02-21-14:45:59.907656,360.49049090011977,360.8035603000317,360.49049090011977,None,None,360.49049090011977,None,361.3043205900816,None,,,,11009,0001,2022_Feb_21_1440,localizer,2021.1.3,60.283380109498715,
block,scrambled,scrambled041.bmp,,,,,0,232,232,232,,,,,,,,,,,,,,,,,,,,,,,,,,,,,,,,,,,,,,,,,,None,,361.3043205900816,None,361.3043205900816,None,2022-02-21-14:46:00.722477,361.30472680018283,361.60364690003917,361.30472680018283,None,None,361.30472680018283,None,362.1040391900809,None,,,,11009,0001,2022_Feb_21_1440,localizer,2021.1.3,60.283380109498715,
block,scrambled,scrambled014.bmp,,,,,0,233,233,233,,,,,,,,,,,,,,,,,,,,,,,,,,,,,,,,,,,,,,,,,,None,,362.1040391900809,None,362.1040391900809,None,2022-02-21-14:46:01.523981,362.10509890015237,362.4203115000855,362.10509890015237,362.10509890015237,None,362.10509890015237,362.10509890015237,362.92066939009817,None,,,,11009,0001,2022_Feb_21_1440,localizer,2021.1.3,60.283380109498715,
block,scrambled,scrambled065.bmp,,,,,0,234,234,234,,,,,,,,,,,,,,,,,,,,,,,,,,,,,,,,,,,,,,,,,,None,,362.92066939009817,None,362.92066939009817,None,2022-02-21-14:46:02.337619,362.9214572000783,363.23703180020675,362.9214572000783,None,None,362.9214572000783,None,363.7227500900393,None,,,,11009,0001,2022_Feb_21_1440,localizer,2021.1.3,60.283380109498715,
block,scrambled,scrambled027.bmp,,,,,0,235,235,235,,,,,,,,,,,,,,,,,,,,,,,,,,,,,,,,,,,,,,,,,,None,,363.7227500900393,None,363.7227500900393,None,2022-02-21-14:46:03.146646,363.7299321000464,364.03772900020704,363.7299321000464,363.7299321000464,None,363.7299321000464,363.7299321000464,364.53717519014606,None,,,,11009,0001,2022_Feb_21_1440,localizer,2021.1.3,60.283380109498715,
block,scrambled,scrambled055.bmp,,,,,0,236,236,236,,,,,,,,,,,,,,,,,,,,,,,,,,,,,,,,,,,,,,,,,,None,,364.53717519014606,None,364.53717519014606,None,2022-02-21-14:46:03.955121,364.5379417000804,364.8371996001806,364.5379417000804,None,None,364.5379417000804,None,365.3374825899722,None,,,,11009,0001,2022_Feb_21_1440,localizer,2021.1.3,60.283380109498715,
block,scrambled,scrambled021.bmp,,,,,0,237,237,237,,,,,,,,,,,,,,,,,,,,,,,,,,,,,,,,,,,,,,,,,,None,,365.3374825899722,None,365.3374825899722,None,2022-02-21-14:46:04.756426,365.3440033001825,365.65383440000005,365.3440033001825,365.3440033001825,None,365.3440033001825,365.3440033001825,366.15437459012026,None,,,,11009,0001,2022_Feb_21_1440,localizer,2021.1.3,60.283380109498715,
block,scrambled,scrambled047.bmp,,,,,0,238,238,238,,,,,,,,,,,,,,,,,,,,,,,,,,,,,,,,,,,,,,,,,,None,,366.15437459012026,None,366.15437459012026,None,2022-02-21-14:46:05.573531,366.1547978001181,366.45403330004774,366.1547978001181,None,y,366.1547978001181,None,366.96018809007944,None,0.72837909986265,,,11009,0001,2022_Feb_21_1440,localizer,2021.1.3,60.283380109498715,
block,scrambled,scrambled083.bmp,,,,,0,239,239,239,,,,,,,,,,,,,,,,,,,,,,,,,,,,,,,,,,,,,,,,,,None,,366.96018809007944,None,366.96018809007944,None,2022-02-21-14:46:06.381078,366.96319480007514,367.27049030014314,366.96319480007514,None,None,366.96319480007514,None,367.77079449009614,None,,,,11009,0001,2022_Feb_21_1440,localizer,2021.1.3,60.283380109498715,
block,scrambled,scrambled039.bmp,,,,,0,240,240,240,,,,,,,,,,,,,,,,,,,,,,,,,,,,,,,,,,,,,,,,,,None,,367.77079449009614,None,367.77079449009614,None,2022-02-21-14:46:07.188739,367.77996870013885,368.087203200208,367.77996870013885,None,None,367.77996870013885,None,368.58734329019205,None,,,,11009,0001,2022_Feb_21_1440,localizer,2021.1.3,60.283380109498715,
block,scrambled,scrambled060.bmp,,,,,0,241,241,241,,,,,,,,,,,,,,,,,,,,,,,,,,,,,,,,,,,,,,,,,,None,,368.58734329019205,None,368.58734329019205,None,2022-02-21-14:46:08.005288,368.5880521000363,368.8871826999821,368.5880521000363,None,None,368.5880521000363,None,369.3877233899897,None,,,,11009,0001,2022_Feb_21_1440,localizer,2021.1.3,60.283380109498715,
block_end,scrambled,scrambled023.bmp,,,,,0,242,242,242,,,,,,,,,,,,,,,,,,,,,,,,,,,,,,,,,,,,,,,,,,None,,369.3877233899897,None,369.3877233899897,None,2022-02-21-14:46:08.808873,369.39040600019507,369.7041519000195,369.39040600019507,369.39040600019507,None,369.39040600019507,369.39040600019507,370.20418439011553,None,,,,11009,0001,2022_Feb_21_1440,localizer,2021.1.3,60.283380109498715,
null_block,null_block,null_block.bmp,,,,,0,243,243,243,,,,,,,,,,,,,,,,,,,,,,,,,,,,,,,,,,,,,,,,,,t,1.80320640001446,370.20400690007955,None,370.20400690007955,None,2022-02-21-14:46:11.455538,372.03734799006486,None,372.03734799006486,None,None,372.03734799006486,None,372.04069310007617,None,,,,11009,0001,2022_Feb_21_1440,localizer,2021.1.3,60.283380109498715,
,,,,,,,,,,,,,,,,,,,,,,,,,,,,,,,,,,,,,,,,,,,,,,,,,,,,,,,,,,,,,,,,,,,,,384.0544163000304,None,,,,,,,
