block_type,condition,img_name,Button.thisRepN,Button.thisTrialN,Button.thisN,Button.thisIndex,trials.thisRepN,trials.thisTrialN,trials.thisN,trials.thisIndex,Ready_experimenter_text.started,Ready_experimenter_text.stopped,Ready_experimenter_resp.keys,Ready_experimenter_resp.rt,Ready_experimenter_resp.started,Ready_experimenter_resp.stopped,Alignment_background.started,Alignment_background.stopped,Alignment_image.started,Alignment_image.stopped,Alignment_resp.keys,Alignment_resp.rt,Alignment_resp.started,Alignment_resp.stopped,Button_text.started,Button_text.stopped,Index_text.started,Index_text.stopped,Index_resp.keys,Index_resp.rt,Index_resp.started,Index_resp.stopped,Middle_text.started,Middle_text.stopped,Middle_resp.keys,Middle_resp.rt,Middle_resp.started,Middle_resp.stopped,Repeat_text.started,Repeat_text.stopped,Repeat_resp.keys,Repeat_resp.corr,Repeat_resp.rt,Repeat_resp.started,Repeat_resp.stopped,instruction_text.started,instruction_text.stopped,key_resp.keys,key_resp.rt,key_resp.started,key_resp.stopped,scanner_t.keys,scanner_t.rt,scanner_t.started,scanner_t.stopped,fixation_wait_for_t.started,fixation_wait_for_t.stopped,real_timestamp_trial_start,image.started,image.stopped,fixation.started,fixation.stopped,repeat_response.keys,repeat_response.started,repeat_response.stopped,fixation_null.started,fixation_null.stopped,repeat_response.rt,end_text.started,end_text.stopped,participant,run,date,expName,psychopyVersion,frameRate,
,,,,,,,,,,,8.443384499987587,None,return,77.30833619995974,8.443384499987587,None,,,,,,,,,,,,,,,,,,,,,,,,,,,,,,,,,,,,,,,,,,,,,,,,,,,,,,,11014,0001,2022_May_04_1420,localizer,2021.1.3,59.656189442343056,
,,,,,,,,,,,,,,,,,85.79405060003046,None,85.79405060003046,None,return,9.652125699911267,85.79405060003046,None,,,,,,,,,,,,,,,,,,,,,,,,,,,,,,,,,,,,,,,,,,,,,,,11014,0001,2022_May_04_1420,localizer,2021.1.3,59.656189442343056,
,,,0,0,0,0,,,,,,,,,,,,,,,,,,,95.46161769994069,None,96.47464669996407,None,y,2.2931088000768796,96.47464669996407,None,98.79143640003167,None,b,1.317015399923548,98.79143640003167,None,100.1262811999768,None,y,1,2.7896535999607295,100.1262811999768,None,,,,,,,,,,,,,,,,,,,,,,,,,,11014,0001,2022_May_04_1420,localizer,2021.1.3,59.656189442343056,
,,,1,0,1,0,,,,,,,,,,,,,,,,,,,102.94126899994444,None,103.94162009994034,None,y,0.35145489999558777,103.94162009994034,None,104.30783169995993,None,b,0.4149786999914795,104.30783169995993,None,104.74171500001103,None,y,1,0.5622464999323711,104.74171500001103,None,,,,,,,,,,,,,,,,,,,,,,,,,,11014,0001,2022_May_04_1420,localizer,2021.1.3,59.656189442343056,
,,,2,0,2,0,,,,,,,,,,,,,,,,,,,105.32464629993774,None,106.32458309992217,None,y,1.2512006000615656,106.32458309992217,None,107.59537100000307,None,b,0.5166564000537619,107.59537100000307,None,108.14145839994308,None,y,1,0.6299849000060931,108.14145839994308,None,,,,,,,,,,,,,,,,,,,,,,,,,,11014,0001,2022_May_04_1420,localizer,2021.1.3,59.656189442343056,
,,,3,0,3,0,,,,,,,,,,,,,,,,,,,108.79856269992888,None,109.80834079999477,None,y,0.022560599958524108,109.80834079999477,None,109.85784609999973,None,b,0.6360071999952197,109.85784609999973,None,110.52474399993662,None,n,0,0.5357133999932557,110.52474399993662,None,,,,,,,,,,,,,,,,,,,,,,,,,,11014,0001,2022_May_04_1420,localizer,2021.1.3,59.656189442343056,
,,,,,,,,,,,,,,,,,,,,,,,,,,,,,,,,,,,,,,,,,,,,,,111.0761521999957,None,y,0.1848297999240458,111.0761521999957,None,,,,,,,,,,,,,,,,,,,,11014,0001,2022_May_04_1420,localizer,2021.1.3,59.656189442343056,
null_block,null_block,null_block.bmp,,,,,0,0,0,0,,,,,,,,,,,,,,,,,,,,,,,,,,,,,,,,,,,,,,,,,,t,63.996348900021985,111.3594776999671,None,111.3594776999671,None,2022-05-04-14:22:49.883296,175.3931733599631,None,175.3931733599631,None,None,175.3931733599631,None,175.39674529992044,None,,,,11014,0001,2022_May_04_1420,localizer,2021.1.3,59.656189442343056,
block_start,faces,faces030.bmp,,,,,0,1,1,1,,,,,,,,,,,,,,,,,,,,,,,,,,,,,,,,,,,,,,,,,,t,1.9470744000282139,187.40940549992956,None,187.40940549992956,None,2022-05-04-14:23:03.890508,189.39644699997734,189.70923079992644,189.39644699997734,None,None,189.39644699997734,None,190.19987047995673,None,,,,11014,0001,2022_May_04_1420,localizer,2021.1.3,59.656189442343056,
block,faces,faces037.bmp,,,,,0,2,2,2,,,,,,,,,,,,,,,,,,,,,,,,,,,,,,,,,,,,,,,,,,None,,190.19987047995673,None,190.19987047995673,None,2022-05-04-14:23:04.712753,190.21576799999457,190.52570019999985,190.21576799999457,None,None,190.21576799999457,None,191.02547587997978,None,,,,11014,0001,2022_May_04_1420,localizer,2021.1.3,59.656189442343056,
block,faces,faces026.bmp,,,,,0,3,3,3,,,,,,,,,,,,,,,,,,,,,,,,,,,,,,,,,,,,,,,,,,None,,191.02547587997978,None,191.02547587997978,None,2022-05-04-14:23:05.531442,191.06219570001122,191.37617880001199,191.06219570001122,None,None,191.06219570001122,None,191.84369718000525,None,,,,11014,0001,2022_May_04_1420,localizer,2021.1.3,59.656189442343056,
block,faces,faces022.bmp,,,,,0,4,4,4,,,,,,,,,,,,,,,,,,,,,,,,,,,,,,,,,,,,,,,,,,None,,191.84369718000525,None,191.84369718000525,None,2022-05-04-14:23:06.351229,191.85929359996226,192.15884119994007,191.85929359996226,None,None,191.85929359996226,None,192.6591894799727,None,,,,11014,0001,2022_May_04_1420,localizer,2021.1.3,59.656189442343056,
block,faces,faces028.bmp,,,,,0,5,5,5,,,,,,,,,,,,,,,,,,,,,,,,,,,,,,,,,,,,,,,,,,None,,192.6591894799727,None,192.6591894799727,None,2022-05-04-14:23:07.165139,192.66930880001746,192.97529919992667,192.66930880001746,None,None,192.66930880001746,None,193.47575027992715,None,,,,11014,0001,2022_May_04_1420,localizer,2021.1.3,59.656189442343056,
block,faces,faces009.bmp,,,,,0,6,6,6,,,,,,,,,,,,,,,,,,,,,,,,,,,,,,,,,,,,,,,,,,None,,193.47575027992715,None,193.47575027992715,None,2022-05-04-14:23:07.981875,193.48647240002174,193.79230059997644,193.48647240002174,None,None,193.48647240002174,None,194.29271427992498,None,,,,11014,0001,2022_May_04_1420,localizer,2021.1.3,59.656189442343056,
block,faces,faces059.bmp,,,,,0,7,7,7,,,,,,,,,,,,,,,,,,,,,,,,,,,,,,,,,,,,,,,,,,None,,194.29271427992498,None,194.29271427992498,None,2022-05-04-14:23:08.798891,194.3035226999782,194.6087741999654,194.3035226999782,None,None,194.3035226999782,None,195.1097879799432,None,,,,11014,0001,2022_May_04_1420,localizer,2021.1.3,59.656189442343056,
block,faces,faces067.bmp,,,,,0,8,8,8,,,,,,,,,,,,,,,,,,,,,,,,,,,,,,,,,,,,,,,,,,None,,195.1097879799432,None,195.1097879799432,None,2022-05-04-14:23:09.616699,195.1224266999634,195.4299112999579,195.1224266999634,None,None,195.1224266999634,None,195.92588367996504,None,,,,11014,0001,2022_May_04_1420,localizer,2021.1.3,59.656189442343056,
block,faces,faces032.bmp,,,,,0,9,9,9,,,,,,,,,,,,,,,,,,,,,,,,,,,,,,,,,,,,,,,,,,None,,195.92588367996504,None,195.92588367996504,None,2022-05-04-14:23:10.430840,195.9343908999581,196.24245120002888,195.9343908999581,None,None,195.9343908999581,None,196.74233628002693,None,,,,11014,0001,2022_May_04_1420,localizer,2021.1.3,59.656189442343056,
block,faces,faces055.bmp,,,,,0,10,10,10,,,,,,,,,,,,,,,,,,,,,,,,,,,,,,,,,,,,,,,,,,None,,196.74233628002693,None,196.74233628002693,None,2022-05-04-14:23:11.248089,196.75248859997373,197.05916209996212,196.75248859997373,None,None,196.75248859997373,None,197.5589694799506,None,,,,11014,0001,2022_May_04_1420,localizer,2021.1.3,59.656189442343056,
block,faces,faces027.bmp,,,,,0,11,11,11,,,,,,,,,,,,,,,,,,,,,,,,,,,,,,,,,,,,,,,,,,None,,197.5589694799506,None,197.5589694799506,None,2022-05-04-14:23:12.064880,197.5701962999301,197.8758759999182,197.5701962999301,None,None,197.5701962999301,None,198.37558057993883,None,,,,11014,0001,2022_May_04_1420,localizer,2021.1.3,59.656189442343056,
block,faces,faces027.bmp,,,,,0,12,12,12,,,,,,,,,,,,,,,,,,,,,,,,,,,,,,,,,,,,,,,,,,None,,198.37558057993883,None,198.37558057993883,None,2022-05-04-14:23:12.881529,198.37674490001518,198.675605299999,198.37674490001518,None,y,198.37674490001518,None,199.1924474800122,None,0.5306589999236166,,,11014,0001,2022_May_04_1420,localizer,2021.1.3,59.656189442343056,
block,faces,faces081.bmp,,,,,0,13,13,13,,,,,,,,,,,,,,,,,,,,,,,,,,,,,,,,,,,,,,,,,,None,,199.1924474800122,None,199.1924474800122,None,2022-05-04-14:23:13.698380,199.20384420000482,199.50883509998675,199.20384420000482,None,None,199.20384420000482,None,200.00937467996263,None,,,,11014,0001,2022_May_04_1420,localizer,2021.1.3,59.656189442343056,
block,faces,faces025.bmp,,,,,0,14,14,14,,,,,,,,,,,,,,,,,,,,,,,,,,,,,,,,,,,,,,,,,,None,,200.00937467996263,None,200.00937467996263,None,2022-05-04-14:23:14.515126,200.0192892999621,200.33218339993618,200.0192892999621,None,None,200.0192892999621,None,200.83206077999202,None,,,,11014,0001,2022_May_04_1420,localizer,2021.1.3,59.656189442343056,
block_end,faces,faces035.bmp,,,,,0,15,15,15,,,,,,,,,,,,,,,,,,,,,,,,,,,,,,,,,,,,,,,,,,None,,200.83206077999202,None,200.83206077999202,None,2022-05-04-14:23:15.345773,200.86732790002134,201.17574600002263,200.86732790002134,None,None,200.86732790002134,None,201.64206847999012,None,,,,11014,0001,2022_May_04_1420,localizer,2021.1.3,59.656189442343056,
block_start,scenes,scenes080.bmp,,,,,0,16,16,16,,,,,,,,,,,,,,,,,,,,,,,,,,,,,,,,,,,,,,,,,,t,1.713773199939169,201.64201569999568,None,201.64201569999568,None,2022-05-04-14:23:17.881449,203.3849114999175,203.6936863999581,203.3849114999175,None,None,203.3849114999175,None,204.19309188002953,None,,,,11014,0001,2022_May_04_1420,localizer,2021.1.3,59.656189442343056,
block,scenes,scenes060.bmp,,,,,0,17,17,17,,,,,,,,,,,,,,,,,,,,,,,,,,,,,,,,,,,,,,,,,,None,,204.19309188002953,None,204.19309188002953,None,2022-05-04-14:23:18.700808,204.2078549999278,204.50896929996088,204.2078549999278,None,None,204.2078549999278,None,205.00870497998548,None,,,,11014,0001,2022_May_04_1420,localizer,2021.1.3,59.656189442343056,
block,scenes,scenes079.bmp,,,,,0,18,18,18,,,,,,,,,,,,,,,,,,,,,,,,,,,,,,,,,,,,,,,,,,None,,205.00870497998548,None,205.00870497998548,None,2022-05-04-14:23:19.514569,205.01823819999117,205.32521319994703,205.01823819999117,None,None,205.01823819999117,None,205.82594327997649,None,,,,11014,0001,2022_May_04_1420,localizer,2021.1.3,59.656189442343056,
block,scenes,scenes012.bmp,,,,,0,19,19,19,,,,,,,,,,,,,,,,,,,,,,,,,,,,,,,,,,,,,,,,,,None,,205.82594327997649,None,205.82594327997649,None,2022-05-04-14:23:20.331858,205.83577459992375,206.14230369997676,205.83577459992375,None,None,205.83577459992375,None,206.64312838002806,None,,,,11014,0001,2022_May_04_1420,localizer,2021.1.3,59.656189442343056,
block,scenes,scenes016.bmp,,,,,0,20,20,20,,,,,,,,,,,,,,,,,,,,,,,,,,,,,,,,,,,,,,,,,,None,,206.64312838002806,None,206.64312838002806,None,2022-05-04-14:23:21.149987,206.6609706999734,206.975595899974,206.6609706999734,None,None,206.6609706999734,None,207.45934917995473,None,,,,11014,0001,2022_May_04_1420,localizer,2021.1.3,59.656189442343056,
block,scenes,scenes088.bmp,,,,,0,21,21,21,,,,,,,,,,,,,,,,,,,,,,,,,,,,,,,,,,,,,,,,,,None,,207.45934917995473,None,207.45934917995473,None,2022-05-04-14:23:21.965296,207.46913739992306,207.77654029999394,207.46913739992306,None,None,207.46913739992306,None,208.27710927996085,None,,,,11014,0001,2022_May_04_1420,localizer,2021.1.3,59.656189442343056,
block,scenes,scenes024.bmp,,,,,0,22,22,22,,,,,,,,,,,,,,,,,,,,,,,,,,,,,,,,,,,,,,,,,,None,,208.27710927996085,None,208.27710927996085,None,2022-05-04-14:23:22.785016,208.29045430000406,208.59707709995564,208.29045430000406,None,None,208.29045430000406,None,209.09252797994995,None,,,,11014,0001,2022_May_04_1420,localizer,2021.1.3,59.656189442343056,
block,scenes,scenes043.bmp,,,,,0,23,23,23,,,,,,,,,,,,,,,,,,,,,,,,,,,,,,,,,,,,,,,,,,None,,209.09252797994995,None,209.09252797994995,None,2022-05-04-14:23:23.598447,209.1019039999228,209.40891939995345,209.1019039999228,None,None,209.1019039999228,None,209.91019088003085,None,,,,11014,0001,2022_May_04_1420,localizer,2021.1.3,59.656189442343056,
block,scenes,scenes069.bmp,,,,,0,24,24,24,,,,,,,,,,,,,,,,,,,,,,,,,,,,,,,,,,,,,,,,,,None,,209.91019088003085,None,209.91019088003085,None,2022-05-04-14:23:24.417005,209.9204633999616,210.22537599992938,209.9204633999616,None,None,209.9204633999616,None,210.72652708002133,None,,,,11014,0001,2022_May_04_1420,localizer,2021.1.3,59.656189442343056,
block,scenes,scenes027.bmp,,,,,0,25,25,25,,,,,,,,,,,,,,,,,,,,,,,,,,,,,,,,,,,,,,,,,,None,,210.72652708002133,None,210.72652708002133,None,2022-05-04-14:23:25.233642,210.7384959999472,211.04319080000278,210.7384959999472,None,None,210.7384959999472,None,211.5428567799623,None,,,,11014,0001,2022_May_04_1420,localizer,2021.1.3,59.656189442343056,
block,scenes,scenes034.bmp,,,,,0,26,26,26,,,,,,,,,,,,,,,,,,,,,,,,,,,,,,,,,,,,,,,,,,None,,211.5428567799623,None,211.5428567799623,None,2022-05-04-14:23:26.049864,211.55401939991862,211.85929309995845,211.55401939991862,None,None,211.55401939991862,None,212.35907617999473,None,,,,11014,0001,2022_May_04_1420,localizer,2021.1.3,59.656189442343056,
block,scenes,scenes033.bmp,,,,,0,27,27,27,,,,,,,,,,,,,,,,,,,,,,,,,,,,,,,,,,,,,,,,,,None,,212.35907617999473,None,212.35907617999473,None,2022-05-04-14:23:26.864994,212.3683302999707,212.67803900002036,212.3683302999707,None,None,212.3683302999707,None,213.17723157998407,None,,,,11014,0001,2022_May_04_1420,localizer,2021.1.3,59.656189442343056,
block,scenes,scenes084.bmp,,,,,0,28,28,28,,,,,,,,,,,,,,,,,,,,,,,,,,,,,,,,,,,,,,,,,,None,,213.17723157998407,None,213.17723157998407,None,2022-05-04-14:23:27.685102,213.18946169991978,213.49288429995067,213.18946169991978,None,None,213.18946169991978,None,213.99203407993772,None,,,,11014,0001,2022_May_04_1420,localizer,2021.1.3,59.656189442343056,
block,scenes,scenes083.bmp,,,,,0,29,29,29,,,,,,,,,,,,,,,,,,,,,,,,,,,,,,,,,,,,,,,,,,None,,213.99203407993772,None,213.99203407993772,None,2022-05-04-14:23:28.497955,214.0004987999564,214.31300289998762,214.0004987999564,None,None,214.0004987999564,None,214.80985597994876,None,,,,11014,0001,2022_May_04_1420,localizer,2021.1.3,59.656189442343056,
block_end,scenes,scenes031.bmp,,,,,0,30,30,30,,,,,,,,,,,,,,,,,,,,,,,,,,,,,,,,,,,,,,,,,,None,,214.80985597994876,None,214.80985597994876,None,2022-05-04-14:23:29.315995,214.82129699992947,215.1254005000228,214.82129699992947,None,None,214.82129699992947,None,215.6154276799294,None,,,,11014,0001,2022_May_04_1420,localizer,2021.1.3,59.656189442343056,
block_start,scrambled,scrambled080.bmp,,,,,0,31,31,31,,,,,,,,,,,,,,,,,,,,,,,,,,,,,,,,,,,,,,,,,,t,1.7408399999840185,215.61504069995135,None,215.61504069995135,None,2022-05-04-14:23:31.880738,217.38509350002278,217.69332540000323,217.38509350002278,None,None,217.38509350002278,None,218.1932810799568,None,,,,11014,0001,2022_May_04_1420,localizer,2021.1.3,59.656189442343056,
block,scrambled,scrambled081.bmp,,,,,0,32,32,32,,,,,,,,,,,,,,,,,,,,,,,,,,,,,,,,,,,,,,,,,,None,,218.1932810799568,None,218.1932810799568,None,2022-05-04-14:23:32.701000,218.20790229993872,218.50901029992383,218.20790229993872,None,None,218.20790229993872,None,219.01010577994165,None,,,,11014,0001,2022_May_04_1420,localizer,2021.1.3,59.656189442343056,
block,scrambled,scrambled047.bmp,,,,,0,33,33,33,,,,,,,,,,,,,,,,,,,,,,,,,,,,,,,,,,,,,,,,,,None,,219.01010577994165,None,219.01010577994165,None,2022-05-04-14:23:33.517207,219.02134640002623,219.3277792999288,219.02134640002623,None,None,219.02134640002623,None,219.82596468002302,None,,,,11014,0001,2022_May_04_1420,localizer,2021.1.3,59.656189442343056,
block,scrambled,scrambled049.bmp,,,,,0,34,34,34,,,,,,,,,,,,,,,,,,,,,,,,,,,,,,,,,,,,,,,,,,None,,219.82596468002302,None,219.82596468002302,None,2022-05-04-14:23:34.331637,219.8352929999819,220.1419811999658,219.8352929999819,None,None,219.8352929999819,None,220.64263678001006,None,,,,11014,0001,2022_May_04_1420,localizer,2021.1.3,59.656189442343056,
block,scrambled,scrambled035.bmp,,,,,0,35,35,35,,,,,,,,,,,,,,,,,,,,,,,,,,,,,,,,,,,,,,,,,,None,,220.64263678001006,None,220.64263678001006,None,2022-05-04-14:23:35.148552,220.65279690001626,220.9589566999348,220.65279690001626,None,None,220.65279690001626,None,221.4600508799427,None,,,,11014,0001,2022_May_04_1420,localizer,2021.1.3,59.656189442343056,
block,scrambled,scrambled011.bmp,,,,,0,36,36,36,,,,,,,,,,,,,,,,,,,,,,,,,,,,,,,,,,,,,,,,,,None,,221.4600508799427,None,221.4600508799427,None,2022-05-04-14:23:35.966941,221.47114199993666,221.78240889997687,221.47114199993666,None,None,221.47114199993666,None,222.27638037999859,None,,,,11014,0001,2022_May_04_1420,localizer,2021.1.3,59.656189442343056,
block,scrambled,scrambled078.bmp,,,,,0,37,37,37,,,,,,,,,,,,,,,,,,,,,,,,,,,,,,,,,,,,,,,,,,None,,222.27638037999859,None,222.27638037999859,None,2022-05-04-14:23:36.783229,222.28704999992624,222.5929072999861,222.28704999992624,None,None,222.28704999992624,None,223.0924186799326,None,,,,11014,0001,2022_May_04_1420,localizer,2021.1.3,59.656189442343056,
block,scrambled,scrambled021.bmp,,,,,0,38,38,38,,,,,,,,,,,,,,,,,,,,,,,,,,,,,,,,,,,,,,,,,,None,,223.0924186799326,None,223.0924186799326,None,2022-05-04-14:23:37.598347,223.10103130002972,223.40916469995864,223.10103130002972,None,None,223.10103130002972,None,223.91013687996892,None,,,,11014,0001,2022_May_04_1420,localizer,2021.1.3,59.656189442343056,
block,scrambled,scrambled019.bmp,,,,,0,39,39,39,,,,,,,,,,,,,,,,,,,,,,,,,,,,,,,,,,,,,,,,,,None,,223.91013687996892,None,223.91013687996892,None,2022-05-04-14:23:38.417057,223.92126480001025,224.2292066999944,223.92126480001025,None,None,223.92126480001025,None,224.7154210799723,None,,,,11014,0001,2022_May_04_1420,localizer,2021.1.3,59.656189442343056,
block,scrambled,scrambled065.bmp,,,,,0,40,40,40,,,,,,,,,,,,,,,,,,,,,,,,,,,,,,,,,,,,,,,,,,None,,224.7154210799723,None,224.7154210799723,None,2022-05-04-14:23:39.222656,224.72038650000468,225.02556640002877,224.72038650000468,None,None,224.72038650000468,None,225.52666977999033,None,,,,11014,0001,2022_May_04_1420,localizer,2021.1.3,59.656189442343056,
block,scrambled,scrambled012.bmp,,,,,0,41,41,41,,,,,,,,,,,,,,,,,,,,,,,,,,,,,,,,,,,,,,,,,,None,,225.52666977999033,None,225.52666977999033,None,2022-05-04-14:23:40.033754,225.53840209997725,225.84244349994697,225.53840209997725,None,None,225.53840209997725,None,226.34295597994932,None,,,,11014,0001,2022_May_04_1420,localizer,2021.1.3,59.656189442343056,
block,scrambled,scrambled071.bmp,,,,,0,42,42,42,,,,,,,,,,,,,,,,,,,,,,,,,,,,,,,,,,,,,,,,,,None,,226.34295597994932,None,226.34295597994932,None,2022-05-04-14:23:40.849119,226.35387200000696,226.6588713999372,226.35387200000696,None,None,226.35387200000696,None,227.15937087995698,None,,,,11014,0001,2022_May_04_1420,localizer,2021.1.3,59.656189442343056,
block,scrambled,scrambled030.bmp,,,,,0,43,43,43,,,,,,,,,,,,,,,,,,,,,,,,,,,,,,,,,,,,,,,,,,None,,227.15937087995698,None,227.15937087995698,None,2022-05-04-14:23:41.665290,227.16835259995423,227.47619449999183,227.16835259995423,None,None,227.16835259995423,None,227.9656450799317,None,,,,11014,0001,2022_May_04_1420,localizer,2021.1.3,59.656189442343056,
block,scrambled,scrambled013.bmp,,,,,0,44,44,44,,,,,,,,,,,,,,,,,,,,,,,,,,,,,,,,,,,,,,,,,,None,,227.9656450799317,None,227.9656450799317,None,2022-05-04-14:23:42.479267,227.98040779994335,228.29247260000557,227.98040779994335,None,None,227.98040779994335,None,228.77568657995434,None,,,,11014,0001,2022_May_04_1420,localizer,2021.1.3,59.656189442343056,
block_end,scrambled,scrambled063.bmp,,,,,0,45,45,45,,,,,,,,,,,,,,,,,,,,,,,,,,,,,,,,,,,,,,,,,,None,,228.77568657995434,None,228.77568657995434,None,2022-05-04-14:23:43.281877,228.77967349998653,229.09261069993954,228.77967349998653,None,None,228.77967349998653,None,229.59259347998304,None,,,,11014,0001,2022_May_04_1420,localizer,2021.1.3,59.656189442343056,
block_start,objects,objects034.bmp,,,,,0,46,46,46,,,,,,,,,,,,,,,,,,,,,,,,,,,,,,,,,,,,,,,,,,t,1.7633394000586122,229.59261219995096,None,229.59261219995096,None,2022-05-04-14:23:45.880841,231.38447439996526,231.69246109994128,231.38447439996526,None,None,231.38447439996526,None,232.19269847994437,None,,,,11014,0001,2022_May_04_1420,localizer,2021.1.3,59.656189442343056,
block,objects,objects002.bmp,,,,,0,47,47,47,,,,,,,,,,,,,,,,,,,,,,,,,,,,,,,,,,,,,,,,,,None,,232.19269847994437,None,232.19269847994437,None,2022-05-04-14:23:46.699006,232.20396569999866,232.51005579996854,232.20396569999866,None,None,232.20396569999866,None,233.01012187994783,None,,,,11014,0001,2022_May_04_1420,localizer,2021.1.3,59.656189442343056,
block,objects,objects065.bmp,,,,,0,48,48,48,,,,,,,,,,,,,,,,,,,,,,,,,,,,,,,,,,,,,,,,,,None,,233.01012187994783,None,233.01012187994783,None,2022-05-04-14:23:47.517030,233.02152690000366,233.3266160999192,233.02152690000366,None,None,233.02152690000366,None,233.83250397999072,None,,,,11014,0001,2022_May_04_1420,localizer,2021.1.3,59.656189442343056,
block,objects,objects044.bmp,,,,,0,49,49,49,,,,,,,,,,,,,,,,,,,,,,,,,,,,,,,,,,,,,,,,,,None,,233.83250397999072,None,233.83250397999072,None,2022-05-04-14:23:48.338812,233.84096800000407,234.14290690002963,233.84096800000407,None,None,233.84096800000407,None,234.64347477998817,None,,,,11014,0001,2022_May_04_1420,localizer,2021.1.3,59.656189442343056,
block,objects,objects073.bmp,,,,,0,50,50,50,,,,,,,,,,,,,,,,,,,,,,,,,,,,,,,,,,,,,,,,,,None,,234.64347477998817,None,234.64347477998817,None,2022-05-04-14:23:49.150796,234.65501699992456,234.9592308999272,234.65501699992456,None,None,234.65501699992456,None,235.46311387998284,None,,,,11014,0001,2022_May_04_1420,localizer,2021.1.3,59.656189442343056,
block,objects,objects012.bmp,,,,,0,51,51,51,,,,,,,,,,,,,,,,,,,,,,,,,,,,,,,,,,,,,,,,,,None,,235.46311387998284,None,235.46311387998284,None,2022-05-04-14:23:49.973037,235.4817016000161,235.7938900999725,235.4817016000161,None,None,235.4817016000161,None,236.2760297800065,None,,,,11014,0001,2022_May_04_1420,localizer,2021.1.3,59.656189442343056,
block,objects,objects033.bmp,,,,,0,52,52,52,,,,,,,,,,,,,,,,,,,,,,,,,,,,,,,,,,,,,,,,,,None,,236.2760297800065,None,236.2760297800065,None,2022-05-04-14:23:50.781951,236.2860306999646,236.59231159999035,236.2860306999646,None,None,236.2860306999646,None,237.0924794799299,None,,,,11014,0001,2022_May_04_1420,localizer,2021.1.3,59.656189442343056,
block,objects,objects003.bmp,,,,,0,53,53,53,,,,,,,,,,,,,,,,,,,,,,,,,,,,,,,,,,,,,,,,,,None,,237.0924794799299,None,237.0924794799299,None,2022-05-04-14:23:51.599040,237.10114469996188,237.40901770000346,237.10114469996188,None,None,237.10114469996188,None,237.90883587995776,None,,,,11014,0001,2022_May_04_1420,localizer,2021.1.3,59.656189442343056,
block,objects,objects008.bmp,,,,,0,54,54,54,,,,,,,,,,,,,,,,,,,,,,,,,,,,,,,,,,,,,,,,,,None,,237.90883587995776,None,237.90883587995776,None,2022-05-04-14:23:52.413752,237.91692520002834,238.2329488999676,237.91692520002834,None,None,237.91692520002834,None,238.72741608003852,None,,,,11014,0001,2022_May_04_1420,localizer,2021.1.3,59.656189442343056,
block,objects,objects019.bmp,,,,,0,55,55,55,,,,,,,,,,,,,,,,,,,,,,,,,,,,,,,,,,,,,,,,,,None,,238.72741608003852,None,238.72741608003852,None,2022-05-04-14:23:53.235317,238.73819049994927,239.04255589994136,238.73819049994927,None,None,238.73819049994927,None,239.54235858001047,None,,,,11014,0001,2022_May_04_1420,localizer,2021.1.3,59.656189442343056,
block,objects,objects085.bmp,,,,,0,56,56,56,,,,,,,,,,,,,,,,,,,,,,,,,,,,,,,,,,,,,,,,,,None,,239.54235858001047,None,239.54235858001047,None,2022-05-04-14:23:54.047969,239.55120989994612,239.8594939999748,239.55120989994612,None,None,239.55120989994612,None,240.36015887997345,None,,,,11014,0001,2022_May_04_1420,localizer,2021.1.3,59.656189442343056,
block,objects,objects051.bmp,,,,,0,57,57,57,,,,,,,,,,,,,,,,,,,,,,,,,,,,,,,,,,,,,,,,,,None,,240.36015887997345,None,240.36015887997345,None,2022-05-04-14:23:54.867070,240.37118989997543,240.67631689994596,240.37118989997543,None,None,240.37118989997543,None,241.17541658001718,None,,,,11014,0001,2022_May_04_1420,localizer,2021.1.3,59.656189442343056,
block,objects,objects049.bmp,,,,,0,58,58,58,,,,,,,,,,,,,,,,,,,,,,,,,,,,,,,,,,,,,,,,,,None,,241.17541658001718,None,241.17541658001718,None,2022-05-04-14:23:55.681482,241.1840599999996,241.49235630000476,241.1840599999996,None,None,241.1840599999996,None,241.99235557994106,None,,,,11014,0001,2022_May_04_1420,localizer,2021.1.3,59.656189442343056,
block,objects,objects071.bmp,,,,,0,59,59,59,,,,,,,,,,,,,,,,,,,,,,,,,,,,,,,,,,,,,,,,,,None,,241.99235557994106,None,241.99235557994106,None,2022-05-04-14:23:56.498303,242.00094399997033,242.30897080001887,242.00094399997033,None,None,242.00094399997033,None,242.8102654800401,None,,,,11014,0001,2022_May_04_1420,localizer,2021.1.3,59.656189442343056,
block_end,objects,objects018.bmp,,,,,0,60,60,60,,,,,,,,,,,,,,,,,,,,,,,,,,,,,,,,,,,,,,,,,,None,,242.8102654800401,None,242.8102654800401,None,2022-05-04-14:23:57.323085,242.83230789995287,243.1432247000048,242.83230789995287,None,None,242.83230789995287,None,243.62605597994988,None,,,,11014,0001,2022_May_04_1420,localizer,2021.1.3,59.656189442343056,
block_start,scrambled,scrambled084.bmp,,,,,0,61,61,61,,,,,,,,,,,,,,,,,,,,,,,,,,,,,,,,,,,,,,,,,,t,1.7300883999560028,243.62578300002497,None,243.62578300002497,None,2022-05-04-14:23:59.886305,245.39315889996942,245.6926110999193,245.39315889996942,None,None,245.39315889996942,None,246.1927294799476,None,,,,11014,0001,2022_May_04_1420,localizer,2021.1.3,59.656189442343056,
block,scrambled,scrambled015.bmp,,,,,0,62,62,62,,,,,,,,,,,,,,,,,,,,,,,,,,,,,,,,,,,,,,,,,,None,,246.1927294799476,None,246.1927294799476,None,2022-05-04-14:24:00.698647,246.20197559997905,246.5157302999869,246.20197559997905,None,None,246.20197559997905,None,247.0102880799328,None,,,,11014,0001,2022_May_04_1420,localizer,2021.1.3,59.656189442343056,
block,scrambled,scrambled038.bmp,,,,,0,63,63,63,,,,,,,,,,,,,,,,,,,,,,,,,,,,,,,,,,,,,,,,,,None,,247.0102880799328,None,247.0102880799328,None,2022-05-04-14:24:01.517800,247.0234841000056,247.32570259994827,247.0234841000056,None,None,247.0234841000056,None,247.8254762800294,None,,,,11014,0001,2022_May_04_1420,localizer,2021.1.3,59.656189442343056,
block,scrambled,scrambled083.bmp,,,,,0,64,64,64,,,,,,,,,,,,,,,,,,,,,,,,,,,,,,,,,,,,,,,,,,None,,247.8254762800294,None,247.8254762800294,None,2022-05-04-14:24:02.330253,247.83648119994905,248.14253329997882,247.83648119994905,None,None,247.83648119994905,None,248.64488257999764,None,,,,11014,0001,2022_May_04_1420,localizer,2021.1.3,59.656189442343056,
block,scrambled,scrambled047.bmp,,,,,0,65,65,65,,,,,,,,,,,,,,,,,,,,,,,,,,,,,,,,,,,,,,,,,,None,,248.64488257999764,None,248.64488257999764,None,2022-05-04-14:24:03.154781,248.65024889993947,248.96011049998924,248.65024889993947,None,None,248.65024889993947,None,249.46015997995855,None,,,,11014,0001,2022_May_04_1420,localizer,2021.1.3,59.656189442343056,
block,scrambled,scrambled080.bmp,,,,,0,66,66,66,,,,,,,,,,,,,,,,,,,,,,,,,,,,,,,,,,,,,,,,,,None,,249.46015997995855,None,249.46015997995855,None,2022-05-04-14:24:03.967156,249.46039020002354,249.75973339995835,249.46039020002354,None,None,249.46039020002354,None,250.27596517998026,None,,,,11014,0001,2022_May_04_1420,localizer,2021.1.3,59.656189442343056,
block,scrambled,scrambled023.bmp,,,,,0,67,67,67,,,,,,,,,,,,,,,,,,,,,,,,,,,,,,,,,,,,,,,,,,None,,250.27596517998026,None,250.27596517998026,None,2022-05-04-14:24:04.781894,250.28573799994774,250.59245589992497,250.28573799994774,None,None,250.28573799994774,None,251.09409387999912,None,,,,11014,0001,2022_May_04_1420,localizer,2021.1.3,59.656189442343056,
block,scrambled,scrambled039.bmp,,,,,0,68,68,68,,,,,,,,,,,,,,,,,,,,,,,,,,,,,,,,,,,,,,,,,,None,,251.09409387999912,None,251.09409387999912,None,2022-05-04-14:24:05.601710,251.1071316000307,251.40899010002613,251.1071316000307,None,None,251.1071316000307,None,251.90998717999318,None,,,,11014,0001,2022_May_04_1420,localizer,2021.1.3,59.656189442343056,
block,scrambled,scrambled024.bmp,,,,,0,69,69,69,,,,,,,,,,,,,,,,,,,,,,,,,,,,,,,,,,,,,,,,,,None,,251.90998717999318,None,251.90998717999318,None,2022-05-04-14:24:06.417013,251.92069840000477,252.225970499916,251.92069840000477,None,None,251.92069840000477,None,252.72573577993316,None,,,,11014,0001,2022_May_04_1420,localizer,2021.1.3,59.656189442343056,
block,scrambled,scrambled051.bmp,,,,,0,70,70,70,,,,,,,,,,,,,,,,,,,,,,,,,,,,,,,,,,,,,,,,,,None,,252.72573577993316,None,252.72573577993316,None,2022-05-04-14:24:07.231790,252.73432759998832,253.0428160999436,252.73432759998832,None,None,252.73432759998832,None,253.54329807994654,None,,,,11014,0001,2022_May_04_1420,localizer,2021.1.3,59.656189442343056,
block,scrambled,scrambled043.bmp,,,,,0,71,71,71,,,,,,,,,,,,,,,,,,,,,,,,,,,,,,,,,,,,,,,,,,None,,253.54329807994654,None,253.54329807994654,None,2022-05-04-14:24:08.050766,253.5546843999764,253.8589221999282,253.5546843999764,None,None,253.5546843999764,None,254.35949268002295,None,,,,11014,0001,2022_May_04_1420,localizer,2021.1.3,59.656189442343056,
block,scrambled,scrambled027.bmp,,,,,0,72,72,72,,,,,,,,,,,,,,,,,,,,,,,,,,,,,,,,,,,,,,,,,,None,,254.35949268002295,None,254.35949268002295,None,2022-05-04-14:24:08.865423,254.36936689994764,254.67576369992457,254.36936689994764,None,None,254.36936689994764,None,255.17608367997454,None,,,,11014,0001,2022_May_04_1420,localizer,2021.1.3,59.656189442343056,
block,scrambled,scrambled088.bmp,,,,,0,73,73,73,,,,,,,,,,,,,,,,,,,,,,,,,,,,,,,,,,,,,,,,,,None,,255.17608367997454,None,255.17608367997454,None,2022-05-04-14:24:09.682010,255.18625749996863,255.49283979996108,255.18625749996863,None,None,255.18625749996863,None,255.99255827997112,None,,,,11014,0001,2022_May_04_1420,localizer,2021.1.3,59.656189442343056,
block,scrambled,scrambled066.bmp,,,,,0,74,74,74,,,,,,,,,,,,,,,,,,,,,,,,,,,,,,,,,,,,,,,,,,None,,255.99255827997112,None,255.99255827997112,None,2022-05-04-14:24:10.497498,255.99993259995244,256.31056739995256,255.99993259995244,None,None,255.99993259995244,None,256.810547279974,None,,,,11014,0001,2022_May_04_1420,localizer,2021.1.3,59.656189442343056,
block_end,scrambled,scrambled066.bmp,,,,,0,75,75,75,,,,,,,,,,,,,,,,,,,,,,,,,,,,,,,,,,,,,,,,,,None,,256.810547279974,None,256.810547279974,None,2022-05-04-14:24:11.318181,256.81331300002057,257.1269507999532,256.81331300002057,None,y,256.81331300002057,None,257.62700957999334,None,0.7524880999699235,,,11014,0001,2022_May_04_1420,localizer,2021.1.3,59.656189442343056,
null_block,null_block,null_block.bmp,,,,,0,76,76,76,,,,,,,,,,,,,,,,,,,,,,,,,,,,,,,,,,,,,,,,,,t,1.7294852000195533,257.62660710001364,None,257.62660710001364,None,2022-05-04-14:24:13.881732,259.37579867996976,None,259.37579867996976,None,None,259.37579867996976,None,259.3781646999996,None,,,,11014,0001,2022_May_04_1420,localizer,2021.1.3,59.656189442343056,
block_start,faces,faces036.bmp,,,,,0,77,77,77,,,,,,,,,,,,,,,,,,,,,,,,,,,,,,,,,,,,,,,,,,t,1.963808299973607,271.3929113999475,None,271.3929113999475,None,2022-05-04-14:24:27.883447,273.3871331999544,273.69269870000426,273.3871331999544,None,None,273.3871331999544,None,274.1933631799999,None,,,,11014,0001,2022_May_04_1420,localizer,2021.1.3,59.656189442343056,
block,faces,faces030.bmp,,,,,0,78,78,78,,,,,,,,,,,,,,,,,,,,,,,,,,,,,,,,,,,,,,,,,,None,,274.1933631799999,None,274.1933631799999,None,2022-05-04-14:24:28.700065,274.1943869999377,274.4951256000204,274.1943869999377,None,None,274.1943869999377,None,275.0098674799898,None,,,,11014,0001,2022_May_04_1420,localizer,2021.1.3,59.656189442343056,
block,faces,faces044.bmp,,,,,0,79,79,79,,,,,,,,,,,,,,,,,,,,,,,,,,,,,,,,,,,,,,,,,,None,,275.0098674799898,None,275.0098674799898,None,2022-05-04-14:24:29.515903,275.01997949997894,275.32594329991844,275.01997949997894,None,None,275.01997949997894,None,275.8278464800329,None,,,,11014,0001,2022_May_04_1420,localizer,2021.1.3,59.656189442343056,
block,faces,faces006.bmp,,,,,0,80,80,80,,,,,,,,,,,,,,,,,,,,,,,,,,,,,,,,,,,,,,,,,,None,,275.8278464800329,None,275.8278464800329,None,2022-05-04-14:24:30.335762,275.84319049993064,276.14360750000924,275.84319049993064,None,None,275.84319049993064,None,276.6432330800104,None,,,,11014,0001,2022_May_04_1420,localizer,2021.1.3,59.656189442343056,
block,faces,faces016.bmp,,,,,0,81,81,81,,,,,,,,,,,,,,,,,,,,,,,,,,,,,,,,,,,,,,,,,,None,,276.6432330800104,None,276.6432330800104,None,2022-05-04-14:24:31.150421,276.6560994000174,276.95923649996985,276.6560994000174,None,None,276.6560994000174,None,277.45999547998656,None,,,,11014,0001,2022_May_04_1420,localizer,2021.1.3,59.656189442343056,
block,faces,faces045.bmp,,,,,0,82,82,82,,,,,,,,,,,,,,,,,,,,,,,,,,,,,,,,,,,,,,,,,,None,,277.45999547998656,None,277.45999547998656,None,2022-05-04-14:24:31.965955,277.4708768000128,277.77625619992614,277.4708768000128,None,None,277.4708768000128,None,278.27690478003353,None,,,,11014,0001,2022_May_04_1420,localizer,2021.1.3,59.656189442343056,
block,faces,faces061.bmp,,,,,0,83,83,83,,,,,,,,,,,,,,,,,,,,,,,,,,,,,,,,,,,,,,,,,,None,,278.27690478003353,None,278.27690478003353,None,2022-05-04-14:24:32.783831,278.2895528000081,278.5930456999922,278.2895528000081,None,None,278.2895528000081,None,279.0935009800247,None,,,,11014,0001,2022_May_04_1420,localizer,2021.1.3,59.656189442343056,
block,faces,faces063.bmp,,,,,0,84,84,84,,,,,,,,,,,,,,,,,,,,,,,,,,,,,,,,,,,,,,,,,,None,,279.0935009800247,None,279.0935009800247,None,2022-05-04-14:24:33.600999,279.1073524999665,279.4158800999867,279.1073524999665,None,None,279.1073524999665,None,279.9099155800301,None,,,,11014,0001,2022_May_04_1420,localizer,2021.1.3,59.656189442343056,
block,faces,faces050.bmp,,,,,0,85,85,85,,,,,,,,,,,,,,,,,,,,,,,,,,,,,,,,,,,,,,,,,,None,,279.9099155800301,None,279.9099155800301,None,2022-05-04-14:24:34.415854,279.9199538999237,280.2271976999473,279.9199538999237,None,None,279.9199538999237,None,280.72770067999375,None,,,,11014,0001,2022_May_04_1420,localizer,2021.1.3,59.656189442343056,
block,faces,faces038.bmp,,,,,0,86,86,86,,,,,,,,,,,,,,,,,,,,,,,,,,,,,,,,,,,,,,,,,,None,,280.72770067999375,None,280.72770067999375,None,2022-05-04-14:24:35.237429,280.75041410000995,281.0606319999788,280.75041410000995,None,None,280.75041410000995,None,281.5431264800369,None,,,,11014,0001,2022_May_04_1420,localizer,2021.1.3,59.656189442343056,
block,faces,faces077.bmp,,,,,0,87,87,87,,,,,,,,,,,,,,,,,,,,,,,,,,,,,,,,,,,,,,,,,,None,,281.5431264800369,None,281.5431264800369,None,2022-05-04-14:24:36.049480,281.5550333999563,281.8599409000017,281.5550333999563,None,None,281.5550333999563,None,282.3604858800187,None,,,,11014,0001,2022_May_04_1420,localizer,2021.1.3,59.656189442343056,
block,faces,faces086.bmp,,,,,0,88,88,88,,,,,,,,,,,,,,,,,,,,,,,,,,,,,,,,,,,,,,,,,,None,,282.3604858800187,None,282.3604858800187,None,2022-05-04-14:24:36.867459,282.3732874999987,282.6760836999165,282.3732874999987,None,None,282.3732874999987,None,283.1762240799959,None,,,,11014,0001,2022_May_04_1420,localizer,2021.1.3,59.656189442343056,
block,faces,faces020.bmp,,,,,0,89,89,89,,,,,,,,,,,,,,,,,,,,,,,,,,,,,,,,,,,,,,,,,,None,,283.1762240799959,None,283.1762240799959,None,2022-05-04-14:24:37.682162,283.1811689999886,283.4926333000185,283.1811689999886,None,None,283.1811689999886,None,283.99434447995156,None,,,,11014,0001,2022_May_04_1420,localizer,2021.1.3,59.656189442343056,
block,faces,faces008.bmp,,,,,0,90,90,90,,,,,,,,,,,,,,,,,,,,,,,,,,,,,,,,,,,,,,,,,,None,,283.99434447995156,None,283.99434447995156,None,2022-05-04-14:24:38.502320,284.0120044000214,284.3263156999601,284.0120044000214,None,None,284.0120044000214,None,284.80986278000057,None,,,,11014,0001,2022_May_04_1420,localizer,2021.1.3,59.656189442343056,
block_end,faces,faces066.bmp,,,,,0,91,91,91,,,,,,,,,,,,,,,,,,,,,,,,,,,,,,,,,,,,,,,,,,None,,284.80986278000057,None,284.80986278000057,None,2022-05-04-14:24:39.315674,284.82092969992664,285.1264409000287,284.82092969992664,None,None,284.82092969992664,None,285.6265221800073,None,,,,11014,0001,2022_May_04_1420,localizer,2021.1.3,59.656189442343056,
block_start,objects,objects034.bmp,,,,,0,92,92,92,,,,,,,,,,,,,,,,,,,,,,,,,,,,,,,,,,,,,,,,,,t,1.728444300009869,285.6264304999495,None,285.6264304999495,None,2022-05-04-14:24:41.881630,287.377544799936,287.69297939992975,287.377544799936,None,None,287.377544799936,None,288.1773171799374,None,,,,11014,0001,2022_May_04_1420,localizer,2021.1.3,59.656189442343056,
block,objects,objects065.bmp,,,,,0,93,93,93,,,,,,,,,,,,,,,,,,,,,,,,,,,,,,,,,,,,,,,,,,None,,288.1773171799374,None,288.1773171799374,None,2022-05-04-14:24:42.686238,288.1805365999462,288.49353219999466,288.1805365999462,288.1805365999462,None,288.1805365999462,288.1805365999462,288.98302708003905,None,,,,11014,0001,2022_May_04_1420,localizer,2021.1.3,59.656189442343056,
block,objects,objects085.bmp,,,,,0,94,94,94,,,,,,,,,,,,,,,,,,,,,,,,,,,,,,,,,,,,,,,,,,None,,288.98302708003905,None,288.98302708003905,None,2022-05-04-14:24:43.495849,288.9904005000135,289.292699099984,288.9904005000135,288.9904005000135,None,288.9904005000135,288.9904005000135,289.7933934799745,None,,,,11014,0001,2022_May_04_1420,localizer,2021.1.3,59.656189442343056,
block,objects,objects045.bmp,,,,,0,95,95,95,,,,,,,,,,,,,,,,,,,,,,,,,,,,,,,,,,,,,,,,,,None,,289.7933934799745,None,289.7933934799745,None,2022-05-04-14:24:44.299989,289.8039034999674,290.109543700004,289.8039034999674,None,None,289.8039034999674,None,290.6105644800351,None,,,,11014,0001,2022_May_04_1420,localizer,2021.1.3,59.656189442343056,
block,objects,objects020.bmp,,,,,0,96,96,96,,,,,,,,,,,,,,,,,,,,,,,,,,,,,,,,,,,,,,,,,,None,,290.6105644800351,None,290.6105644800351,None,2022-05-04-14:24:45.118412,290.6226800000295,290.9260887999553,290.6226800000295,None,None,290.6226800000295,None,291.4269226799603,None,,,,11014,0001,2022_May_04_1420,localizer,2021.1.3,59.656189442343056,
block,objects,objects028.bmp,,,,,0,97,97,97,,,,,,,,,,,,,,,,,,,,,,,,,,,,,,,,,,,,,,,,,,None,,291.4269226799603,None,291.4269226799603,None,2022-05-04-14:24:45.933869,291.43875799991656,291.7429076000117,291.43875799991656,None,None,291.43875799991656,None,292.24293887995884,None,,,,11014,0001,2022_May_04_1420,localizer,2021.1.3,59.656189442343056,
block,objects,objects013.bmp,,,,,0,98,98,98,,,,,,,,,,,,,,,,,,,,,,,,,,,,,,,,,,,,,,,,,,None,,292.24293887995884,None,292.24293887995884,None,2022-05-04-14:24:46.749183,292.251551299938,292.5601566999685,292.251551299938,None,None,292.251551299938,None,293.06093907993056,None,,,,11014,0001,2022_May_04_1420,localizer,2021.1.3,59.656189442343056,
block,objects,objects088.bmp,,,,,0,99,99,99,,,,,,,,,,,,,,,,,,,,,,,,,,,,,,,,,,,,,,,,,,None,,293.06093907993056,None,293.06093907993056,None,2022-05-04-14:24:47.568402,293.0762754000025,293.37584100000095,293.0762754000025,None,None,293.0762754000025,None,293.87600027999144,None,,,,11014,0001,2022_May_04_1420,localizer,2021.1.3,59.656189442343056,
block,objects,objects036.bmp,,,,,0,100,100,100,,,,,,,,,,,,,,,,,,,,,,,,,,,,,,,,,,,,,,,,,,None,,293.87600027999144,None,293.87600027999144,None,2022-05-04-14:24:48.381943,293.8805455999682,294.1930423999438,293.8805455999682,None,None,293.8805455999682,None,294.69360908000965,None,,,,11014,0001,2022_May_04_1420,localizer,2021.1.3,59.656189442343056,
block,objects,objects025.bmp,,,,,0,101,101,101,,,,,,,,,,,,,,,,,,,,,,,,,,,,,,,,,,,,,,,,,,None,,294.69360908000965,None,294.69360908000965,None,2022-05-04-14:24:49.200575,294.7053960999474,295.00939729996026,294.7053960999474,None,None,294.7053960999474,None,295.5096663799719,None,,,,11014,0001,2022_May_04_1420,localizer,2021.1.3,59.656189442343056,
block,objects,objects010.bmp,,,,,0,102,102,102,,,,,,,,,,,,,,,,,,,,,,,,,,,,,,,,,,,,,,,,,,None,,295.5096663799719,None,295.5096663799719,None,2022-05-04-14:24:50.015546,295.5184057999868,295.82587079994846,295.5184057999868,None,None,295.5184057999868,None,296.32565107996345,None,,,,11014,0001,2022_May_04_1420,localizer,2021.1.3,59.656189442343056,
block,objects,objects022.bmp,,,,,0,103,103,103,,,,,,,,,,,,,,,,,,,,,,,,,,,,,,,,,,,,,,,,,,None,,296.32565107996345,None,296.32565107996345,None,2022-05-04-14:24:50.831852,296.3346499999752,296.6427812000038,296.3346499999752,None,None,296.3346499999752,None,297.14305987997216,None,,,,11014,0001,2022_May_04_1420,localizer,2021.1.3,59.656189442343056,
block,objects,objects030.bmp,,,,,0,104,104,104,,,,,,,,,,,,,,,,,,,,,,,,,,,,,,,,,,,,,,,,,,None,,297.14305987997216,None,297.14305987997216,None,2022-05-04-14:24:51.648904,297.1484335999703,297.459281599964,297.1484335999703,None,None,297.1484335999703,None,297.9597356799874,None,,,,11014,0001,2022_May_04_1420,localizer,2021.1.3,59.656189442343056,
block,objects,objects043.bmp,,,,,0,105,105,105,,,,,,,,,,,,,,,,,,,,,,,,,,,,,,,,,,,,,,,,,,None,,297.9597356799874,None,297.9597356799874,None,2022-05-04-14:24:52.465687,297.9696797999786,298.2827590999659,297.9696797999786,None,None,297.9696797999786,None,298.77711327999134,None,,,,11014,0001,2022_May_04_1420,localizer,2021.1.3,59.656189442343056,
block_end,objects,objects047.bmp,,,,,0,106,106,106,,,,,,,,,,,,,,,,,,,,,,,,,,,,,,,,,,,,,,,,,,None,,298.77711327999134,None,298.77711327999134,None,2022-05-04-14:24:53.284220,298.788712700014,299.09286400000565,298.788712700014,None,None,298.788712700014,None,299.5943213799852,None,,,,11014,0001,2022_May_04_1420,localizer,2021.1.3,59.656189442343056,
block_start,scenes,scenes091.bmp,,,,,0,107,107,107,,,,,,,,,,,,,,,,,,,,,,,,,,,,,,,,,,,,,,,,,,t,1.7607533999253064,299.5942503999686,None,299.5942503999686,None,2022-05-04-14:24:55.888057,301.3963784999214,301.7098521000007,301.3963784999214,None,None,301.3963784999214,None,302.1930867799907,None,,,,11014,0001,2022_May_04_1420,localizer,2021.1.3,59.656189442343056,
block,scenes,scenes006.bmp,,,,,0,108,108,108,,,,,,,,,,,,,,,,,,,,,,,,,,,,,,,,,,,,,,,,,,None,,302.1930867799907,None,302.1930867799907,None,2022-05-04-14:24:56.699951,302.20429639995564,302.5104252999881,302.20429639995564,None,None,302.20429639995564,None,303.01132057999496,None,,,,11014,0001,2022_May_04_1420,localizer,2021.1.3,59.656189442343056,
block,scenes,scenes057.bmp,,,,,0,109,109,109,,,,,,,,,,,,,,,,,,,,,,,,,,,,,,,,,,,,,,,,,,None,,303.01132057999496,None,303.01132057999496,None,2022-05-04-14:24:57.518782,303.0249418999301,303.3330875999527,303.0249418999301,None,None,303.0249418999301,None,303.82605598001976,None,,,,11014,0001,2022_May_04_1420,localizer,2021.1.3,59.656189442343056,
block,scenes,scenes048.bmp,,,,,0,110,110,110,,,,,,,,,,,,,,,,,,,,,,,,,,,,,,,,,,,,,,,,,,None,,303.82605598001976,None,303.82605598001976,None,2022-05-04-14:24:58.331953,303.84202420001384,304.1429022999946,303.84202420001384,None,None,303.84202420001384,None,304.6429143800284,None,,,,11014,0001,2022_May_04_1420,localizer,2021.1.3,59.656189442343056,
block,scenes,scenes017.bmp,,,,,0,111,111,111,,,,,,,,,,,,,,,,,,,,,,,,,,,,,,,,,,,,,,,,,,None,,304.6429143800284,None,304.6429143800284,None,2022-05-04-14:24:59.149247,304.6530544999987,304.9596050999826,304.6530544999987,None,None,304.6530544999987,None,305.45946767992575,None,,,,11014,0001,2022_May_04_1420,localizer,2021.1.3,59.656189442343056,
block,scenes,scenes052.bmp,,,,,0,112,112,112,,,,,,,,,,,,,,,,,,,,,,,,,,,,,,,,,,,,,,,,,,None,,305.45946767992575,None,305.45946767992575,None,2022-05-04-14:24:59.965163,305.4679092000006,305.7761761000147,305.4679092000006,None,None,305.4679092000006,None,306.2759477799642,None,,,,11014,0001,2022_May_04_1420,localizer,2021.1.3,59.656189442343056,
block,scenes,scenes080.bmp,,,,,0,113,113,113,,,,,,,,,,,,,,,,,,,,,,,,,,,,,,,,,,,,,,,,,,None,,306.2759477799642,None,306.2759477799642,None,2022-05-04-14:25:00.781894,306.27720409992617,306.57721719995607,306.27720409992617,None,None,306.27720409992617,None,307.0783827799256,None,,,,11014,0001,2022_May_04_1420,localizer,2021.1.3,59.656189442343056,
block,scenes,scenes071.bmp,,,,,0,114,114,114,,,,,,,,,,,,,,,,,,,,,,,,,,,,,,,,,,,,,,,,,,None,,307.0783827799256,None,307.0783827799256,None,2022-05-04-14:25:01.588034,307.09292610001285,307.392855699989,307.09292610001285,307.09292610001285,None,307.09292610001285,307.09292610001285,307.89381097998705,None,,,,11014,0001,2022_May_04_1420,localizer,2021.1.3,59.656189442343056,
block,scenes,scenes054.bmp,,,,,0,115,115,115,,,,,,,,,,,,,,,,,,,,,,,,,,,,,,,,,,,,,,,,,,None,,307.89381097998705,None,307.89381097998705,None,2022-05-04-14:25:02.400755,307.90693579998333,308.2096089000115,307.90693579998333,None,None,307.90693579998333,None,308.7105647800141,None,,,,11014,0001,2022_May_04_1420,localizer,2021.1.3,59.656189442343056,
block,scenes,scenes033.bmp,,,,,0,116,116,116,,,,,,,,,,,,,,,,,,,,,,,,,,,,,,,,,,,,,,,,,,None,,308.7105647800141,None,308.7105647800141,None,2022-05-04-14:25:03.219195,308.7131406000117,309.0264964000089,308.7131406000117,None,None,308.7131406000117,None,309.52580507992536,None,,,,11014,0001,2022_May_04_1420,localizer,2021.1.3,59.656189442343056,
block,scenes,scenes051.bmp,,,,,0,117,117,117,,,,,,,,,,,,,,,,,,,,,,,,,,,,,,,,,,,,,,,,,,None,,309.52580507992536,None,309.52580507992536,None,2022-05-04-14:25:04.030758,309.53596899996046,309.84280709992163,309.53596899996046,None,None,309.53596899996046,None,310.3427380800364,None,,,,11014,0001,2022_May_04_1420,localizer,2021.1.3,59.656189442343056,
block,scenes,scenes062.bmp,,,,,0,118,118,118,,,,,,,,,,,,,,,,,,,,,,,,,,,,,,,,,,,,,,,,,,None,,310.3427380800364,None,310.3427380800364,None,2022-05-04-14:25:04.848689,310.3530550999567,310.65976930002216,310.3530550999567,None,None,310.3530550999567,None,311.1596733799321,None,,,,11014,0001,2022_May_04_1420,localizer,2021.1.3,59.656189442343056,
block,scenes,scenes008.bmp,,,,,0,119,119,119,,,,,,,,,,,,,,,,,,,,,,,,,,,,,,,,,,,,,,,,,,None,,311.1596733799321,None,311.1596733799321,None,2022-05-04-14:25:05.665621,311.16882369993255,311.4760027999291,311.16882369993255,None,None,311.16882369993255,None,311.9765763799311,None,,,,11014,0001,2022_May_04_1420,localizer,2021.1.3,59.656189442343056,
block,scenes,scenes004.bmp,,,,,0,120,120,120,,,,,,,,,,,,,,,,,,,,,,,,,,,,,,,,,,,,,,,,,,None,,311.9765763799311,None,311.9765763799311,None,2022-05-04-14:25:06.482521,311.99275159998797,312.292843000032,311.99275159998797,None,None,311.99275159998797,None,312.7938689799863,None,,,,11014,0001,2022_May_04_1420,localizer,2021.1.3,59.656189442343056,
block_end,scenes,scenes023.bmp,,,,,0,121,121,121,,,,,,,,,,,,,,,,,,,,,,,,,,,,,,,,,,,,,,,,,,None,,312.7938689799863,None,312.7938689799863,None,2022-05-04-14:25:07.300856,312.80564409994986,313.109428799944,312.80564409994986,None,None,312.80564409994986,None,313.6098030799418,None,,,,11014,0001,2022_May_04_1420,localizer,2021.1.3,59.656189442343056,
block_start,faces,faces040.bmp,,,,,0,122,122,122,,,,,,,,,,,,,,,,,,,,,,,,,,,,,,,,,,,,,,,,,,t,1.7453830000013113,313.60955439996906,None,313.60955439996906,None,2022-05-04-14:25:09.881244,315.3840376000153,315.6931760000298,315.3840376000153,None,None,315.3840376000153,None,316.19311287995663,None,,,,11014,0001,2022_May_04_1420,localizer,2021.1.3,59.656189442343056,
block,faces,faces038.bmp,,,,,0,123,123,123,,,,,,,,,,,,,,,,,,,,,,,,,,,,,,,,,,,,,,,,,,None,,316.19311287995663,None,316.19311287995663,None,2022-05-04-14:25:10.698025,316.19425259996206,316.5095276000211,316.19425259996206,None,None,316.19425259996206,None,316.99329908002403,None,,,,11014,0001,2022_May_04_1420,localizer,2021.1.3,59.656189442343056,
block,faces,faces074.bmp,,,,,0,124,124,124,,,,,,,,,,,,,,,,,,,,,,,,,,,,,,,,,,,,,,,,,,None,,316.99329908002403,None,316.99329908002403,None,2022-05-04-14:25:11.501018,317.0052704999689,317.30951079993974,317.0052704999689,317.0052704999689,None,317.0052704999689,317.0052704999689,317.8095718799974,None,,,,11014,0001,2022_May_04_1420,localizer,2021.1.3,59.656189442343056,
block,faces,faces031.bmp,,,,,0,125,125,125,,,,,,,,,,,,,,,,,,,,,,,,,,,,,,,,,,,,,,,,,,None,,317.8095718799974,None,317.8095718799974,None,2022-05-04-14:25:12.314526,317.8173456999939,318.1262219999917,317.8173456999939,None,None,317.8173456999939,None,318.6264935800224,None,,,,11014,0001,2022_May_04_1420,localizer,2021.1.3,59.656189442343056,
block,faces,faces056.bmp,,,,,0,126,126,126,,,,,,,,,,,,,,,,,,,,,,,,,,,,,,,,,,,,,,,,,,None,,318.6264935800224,None,318.6264935800224,None,2022-05-04-14:25:13.131445,318.63484910002444,318.9428851000266,318.63484910002444,None,None,318.63484910002444,None,319.4446981800371,None,,,,11014,0001,2022_May_04_1420,localizer,2021.1.3,59.656189442343056,
block,faces,faces082.bmp,,,,,0,127,127,127,,,,,,,,,,,,,,,,,,,,,,,,,,,,,,,,,,,,,,,,,,None,,319.4446981800371,None,319.4446981800371,None,2022-05-04-14:25:13.952809,319.45882169995457,319.76067290001083,319.45882169995457,None,None,319.45882169995457,None,320.25997337998126,None,,,,11014,0001,2022_May_04_1420,localizer,2021.1.3,59.656189442343056,
block,faces,faces022.bmp,,,,,0,128,128,128,,,,,,,,,,,,,,,,,,,,,,,,,,,,,,,,,,,,,,,,,,None,,320.25997337998126,None,320.25997337998126,None,2022-05-04-14:25:14.765224,320.2616204000078,320.5759246000089,320.2616204000078,None,None,320.2616204000078,None,321.07637987992496,None,,,,11014,0001,2022_May_04_1420,localizer,2021.1.3,59.656189442343056,
block,faces,faces039.bmp,,,,,0,129,129,129,,,,,,,,,,,,,,,,,,,,,,,,,,,,,,,,,,,,,,,,,,None,,321.07637987992496,None,321.07637987992496,None,2022-05-04-14:25:15.581336,321.08516559994314,321.3926874999888,321.08516559994314,None,None,321.08516559994314,None,321.8928406799329,None,,,,11014,0001,2022_May_04_1420,localizer,2021.1.3,59.656189442343056,
block,faces,faces016.bmp,,,,,0,130,130,130,,,,,,,,,,,,,,,,,,,,,,,,,,,,,,,,,,,,,,,,,,None,,321.8928406799329,None,321.8928406799329,None,2022-05-04-14:25:16.398077,321.8942871999461,322.2164340999443,321.8942871999461,None,None,321.8942871999461,None,322.69407347993695,None,,,,11014,0001,2022_May_04_1420,localizer,2021.1.3,59.656189442343056,
block,faces,faces081.bmp,,,,,0,131,131,131,,,,,,,,,,,,,,,,,,,,,,,,,,,,,,,,,,,,,,,,,,None,,322.69407347993695,None,322.69407347993695,None,2022-05-04-14:25:17.203016,322.6967657000059,323.009563999949,322.6967657000059,322.6967657000059,None,322.6967657000059,322.6967657000059,323.50937267994743,None,,,,11014,0001,2022_May_04_1420,localizer,2021.1.3,59.656189442343056,
block,faces,faces004.bmp,,,,,0,132,132,132,,,,,,,,,,,,,,,,,,,,,,,,,,,,,,,,,,,,,,,,,,None,,323.50937267994743,None,323.50937267994743,None,2022-05-04-14:25:18.014202,323.52260709996335,323.8271412999602,323.52260709996335,None,None,323.52260709996335,None,324.32791697998766,None,,,,11014,0001,2022_May_04_1420,localizer,2021.1.3,59.656189442343056,
block,faces,faces028.bmp,,,,,0,133,133,133,,,,,,,,,,,,,,,,,,,,,,,,,,,,,,,,,,,,,,,,,,None,,324.32791697998766,None,324.32791697998766,None,2022-05-04-14:25:18.834863,324.32856209995225,324.6429992999183,324.32856209995225,None,None,324.32856209995225,None,325.14304928000786,None,,,,11014,0001,2022_May_04_1420,localizer,2021.1.3,59.656189442343056,
block,faces,faces010.bmp,,,,,0,134,134,134,,,,,,,,,,,,,,,,,,,,,,,,,,,,,,,,,,,,,,,,,,None,,325.14304928000786,None,325.14304928000786,None,2022-05-04-14:25:19.647798,325.15243859996554,325.459787699976,325.15243859996554,None,None,325.15243859996554,None,325.95975097998746,None,,,,11014,0001,2022_May_04_1420,localizer,2021.1.3,59.656189442343056,
block,faces,faces025.bmp,,,,,0,135,135,135,,,,,,,,,,,,,,,,,,,,,,,,,,,,,,,,,,,,,,,,,,None,,325.95975097998746,None,325.95975097998746,None,2022-05-04-14:25:20.464707,325.961005799938,326.2610633999575,325.961005799938,None,None,325.961005799938,None,326.76648117994193,None,,,,11014,0001,2022_May_04_1420,localizer,2021.1.3,59.656189442343056,
block_end,faces,faces015.bmp,,,,,0,136,136,136,,,,,,,,,,,,,,,,,,,,,,,,,,,,,,,,,,,,,,,,,,None,,326.76648117994193,None,326.76648117994193,None,2022-05-04-14:25:21.279194,326.7882924999576,327.0929717000108,326.7882924999576,None,None,326.7882924999576,None,327.5767618800397,None,,,,11014,0001,2022_May_04_1420,localizer,2021.1.3,59.656189442343056,
null_block,null_block,null_block.bmp,,,,,0,137,137,137,,,,,,,,,,,,,,,,,,,,,,,,,,,,,,,,,,,,,,,,,,t,1.778484300011769,327.5763924999628,None,327.5763924999628,None,2022-05-04-14:25:23.882190,329.3772085799952,None,329.3772085799952,None,None,329.3772085799952,None,329.37828830000944,None,,,,11014,0001,2022_May_04_1420,localizer,2021.1.3,59.656189442343056,
block_start,scenes,scenes059.bmp,,,,,0,138,138,138,,,,,,,,,,,,,,,,,,,,,,,,,,,,,,,,,,,,,,,,,,t,1.9620708000147715,341.39280459994916,None,341.39280459994916,None,2022-05-04-14:25:37.881930,343.3866178999888,343.6960055999225,343.3866178999888,None,None,343.3866178999888,None,344.1935687799356,None,,,,11014,0001,2022_May_04_1420,localizer,2021.1.3,59.656189442343056,
block,scenes,scenes068.bmp,,,,,0,139,139,139,,,,,,,,,,,,,,,,,,,,,,,,,,,,,,,,,,,,,,,,,,None,,344.1935687799356,None,344.1935687799356,None,2022-05-04-14:25:38.699084,344.2026536000194,344.5096961000236,344.2026536000194,None,None,344.2026536000194,None,345.0109522799845,None,,,,11014,0001,2022_May_04_1420,localizer,2021.1.3,59.656189442343056,
block,scenes,scenes039.bmp,,,,,0,140,140,140,,,,,,,,,,,,,,,,,,,,,,,,,,,,,,,,,,,,,,,,,,None,,345.0109522799845,None,345.0109522799845,None,2022-05-04-14:25:39.517223,345.0214142999612,345.3264551999746,345.0214142999612,None,None,345.0214142999612,None,345.8280876800069,None,,,,11014,0001,2022_May_04_1420,localizer,2021.1.3,59.656189442343056,
block,scenes,scenes007.bmp,,,,,0,141,141,141,,,,,,,,,,,,,,,,,,,,,,,,,,,,,,,,,,,,,,,,,,None,,345.8280876800069,None,345.8280876800069,None,2022-05-04-14:25:40.335234,345.8452816000208,346.150280199945,345.8452816000208,None,None,345.8452816000208,None,346.6431842799881,None,,,,11014,0001,2022_May_04_1420,localizer,2021.1.3,59.656189442343056,
block,scenes,scenes002.bmp,,,,,0,142,142,142,,,,,,,,,,,,,,,,,,,,,,,,,,,,,,,,,,,,,,,,,,None,,346.6431842799881,None,346.6431842799881,None,2022-05-04-14:25:41.147900,346.650653699995,346.9597661999287,346.650653699995,None,None,346.650653699995,None,347.45992468002953,None,,,,11014,0001,2022_May_04_1420,localizer,2021.1.3,59.656189442343056,
block,scenes,scenes033.bmp,,,,,0,143,143,143,,,,,,,,,,,,,,,,,,,,,,,,,,,,,,,,,,,,,,,,,,None,,347.45992468002953,None,347.45992468002953,None,2022-05-04-14:25:41.965186,347.4617214000318,347.76085860002786,347.4617214000318,None,None,347.4617214000318,None,348.2609584800317,None,,,,11014,0001,2022_May_04_1420,localizer,2021.1.3,59.656189442343056,
block,scenes,scenes033.bmp,,,,,0,144,144,144,,,,,,,,,,,,,,,,,,,,,,,,,,,,,,,,,,,,,,,,,,None,,348.2609584800317,None,348.2609584800317,None,2022-05-04-14:25:42.768283,348.2618492000038,348.57672020001337,348.2618492000038,348.2618492000038,y,348.2618492000038,348.2618492000038,349.07697807993975,None,0.4179389999480918,,,11014,0001,2022_May_04_1420,localizer,2021.1.3,59.656189442343056,
block,scenes,scenes061.bmp,,,,,0,145,145,145,,,,,,,,,,,,,,,,,,,,,,,,,,,,,,,,,,,,,,,,,,None,,349.07697807993975,None,349.07697807993975,None,2022-05-04-14:25:43.583164,349.0875281000044,349.3939911000198,349.0875281000044,None,None,349.0875281000044,None,349.89336487996627,None,,,,11014,0001,2022_May_04_1420,localizer,2021.1.3,59.656189442343056,
block,scenes,scenes036.bmp,,,,,0,146,146,146,,,,,,,,,,,,,,,,,,,,,,,,,,,,,,,,,,,,,,,,,,None,,349.89336487996627,None,349.89336487996627,None,2022-05-04-14:25:44.398113,349.90033590001985,350.21280300000217,349.90033590001985,None,None,349.90033590001985,None,350.7107414799626,None,,,,11014,0001,2022_May_04_1420,localizer,2021.1.3,59.656189442343056,
block,scenes,scenes018.bmp,,,,,0,147,147,147,,,,,,,,,,,,,,,,,,,,,,,,,,,,,,,,,,,,,,,,,,None,,350.7107414799626,None,350.7107414799626,None,2022-05-04-14:25:45.216725,350.7209949999815,351.0266309999861,350.7209949999815,None,None,350.7209949999815,None,351.5266595800291,None,,,,11014,0001,2022_May_04_1420,localizer,2021.1.3,59.656189442343056,
block,scenes,scenes062.bmp,,,,,0,148,148,148,,,,,,,,,,,,,,,,,,,,,,,,,,,,,,,,,,,,,,,,,,None,,351.5266595800291,None,351.5266595800291,None,2022-05-04-14:25:46.032982,351.5278199999593,351.8306462999899,351.5278199999593,None,None,351.5278199999593,None,352.3432803799748,None,,,,11014,0001,2022_May_04_1420,localizer,2021.1.3,59.656189442343056,
block,scenes,scenes010.bmp,,,,,0,149,149,149,,,,,,,,,,,,,,,,,,,,,,,,,,,,,,,,,,,,,,,,,,None,,352.3432803799748,None,352.3432803799748,None,2022-05-04-14:25:46.847907,352.351403699955,352.66015230002813,352.351403699955,None,None,352.351403699955,None,353.16017977994636,None,,,,11014,0001,2022_May_04_1420,localizer,2021.1.3,59.656189442343056,
block,scenes,scenes090.bmp,,,,,0,150,150,150,,,,,,,,,,,,,,,,,,,,,,,,,,,,,,,,,,,,,,,,,,None,,353.16017977994636,None,353.16017977994636,None,2022-05-04-14:25:47.666140,353.16923430003226,353.47684000001755,353.16923430003226,None,None,353.16923430003226,None,353.9769594799378,None,,,,11014,0001,2022_May_04_1420,localizer,2021.1.3,59.656189442343056,
block,scenes,scenes032.bmp,,,,,0,151,151,151,,,,,,,,,,,,,,,,,,,,,,,,,,,,,,,,,,,,,,,,,,None,,353.9769594799378,None,353.9769594799378,None,2022-05-04-14:25:48.483117,353.98554659995716,354.29317279998213,353.98554659995716,None,None,353.98554659995716,None,354.79480137998473,None,,,,11014,0001,2022_May_04_1420,localizer,2021.1.3,59.656189442343056,
block_end,scenes,scenes011.bmp,,,,,0,152,152,152,,,,,,,,,,,,,,,,,,,,,,,,,,,,,,,,,,,,,,,,,,None,,354.79480137998473,None,354.79480137998473,None,2022-05-04-14:25:49.302674,354.8091103999177,355.1105964999879,354.8091103999177,None,None,354.8091103999177,None,355.610329879995,None,,,,11014,0001,2022_May_04_1420,localizer,2021.1.3,59.656189442343056,
block_start,scrambled,scrambled068.bmp,,,,,0,153,153,153,,,,,,,,,,,,,,,,,,,,,,,,,,,,,,,,,,,,,,,,,,t,1.7448359000263736,355.610045599984,None,355.610045599984,None,2022-05-04-14:25:51.882031,357.386540699983,357.69315219996497,357.386540699983,None,None,357.386540699983,None,358.19335627994735,None,,,,11014,0001,2022_May_04_1420,localizer,2021.1.3,59.656189442343056,
block,scrambled,scrambled073.bmp,,,,,0,154,154,154,,,,,,,,,,,,,,,,,,,,,,,,,,,,,,,,,,,,,,,,,,None,,358.19335627994735,None,358.19335627994735,None,2022-05-04-14:25:52.699079,358.20233469991945,358.5097437999211,358.20233469991945,None,None,358.20233469991945,None,359.01019028000303,None,,,,11014,0001,2022_May_04_1420,localizer,2021.1.3,59.656189442343056,
block,scrambled,scrambled029.bmp,,,,,0,155,155,155,,,,,,,,,,,,,,,,,,,,,,,,,,,,,,,,,,,,,,,,,,None,,359.01019028000303,None,359.01019028000303,None,2022-05-04-14:25:53.516597,359.01980050001293,359.3267699999269,359.01980050001293,None,None,359.01980050001293,None,359.82678197995995,None,,,,11014,0001,2022_May_04_1420,localizer,2021.1.3,59.656189442343056,
block,scrambled,scrambled002.bmp,,,,,0,156,156,156,,,,,,,,,,,,,,,,,,,,,,,,,,,,,,,,,,,,,,,,,,None,,359.82678197995995,None,359.82678197995995,None,2022-05-04-14:25:54.332746,359.8371128999861,360.14314039994497,359.8371128999861,None,None,359.8371128999861,None,360.6448011799599,None,,,,11014,0001,2022_May_04_1420,localizer,2021.1.3,59.656189442343056,
block,scrambled,scrambled041.bmp,,,,,0,157,157,157,,,,,,,,,,,,,,,,,,,,,,,,,,,,,,,,,,,,,,,,,,None,,360.6448011799599,None,360.6448011799599,None,2022-05-04-14:25:55.152740,360.65772669995204,360.95991360000335,360.65772669995204,None,None,360.65772669995204,None,361.462550580001,None,,,,11014,0001,2022_May_04_1420,localizer,2021.1.3,59.656189442343056,
block,scrambled,scrambled027.bmp,,,,,0,158,158,158,,,,,,,,,,,,,,,,,,,,,,,,,,,,,,,,,,,,,,,,,,None,,361.462550580001,None,361.462550580001,None,2022-05-04-14:25:55.971465,361.4668368999846,361.7761281999992,361.4668368999846,None,None,361.4668368999846,None,362.27767077992905,None,,,,11014,0001,2022_May_04_1420,localizer,2021.1.3,59.656189442343056,
block,scrambled,scrambled072.bmp,,,,,0,159,159,159,,,,,,,,,,,,,,,,,,,,,,,,,,,,,,,,,,,,,,,,,,None,,362.27767077992905,None,362.27767077992905,None,2022-05-04-14:25:56.784620,362.2893182999687,362.59354779997375,362.2893182999687,None,None,362.2893182999687,None,363.09331327999246,None,,,,11014,0001,2022_May_04_1420,localizer,2021.1.3,59.656189442343056,
block,scrambled,scrambled086.bmp,,,,,0,160,160,160,,,,,,,,,,,,,,,,,,,,,,,,,,,,,,,,,,,,,,,,,,None,,363.09331327999246,None,363.09331327999246,None,2022-05-04-14:25:57.597886,363.10091999999713,363.41015899996273,363.10091999999713,None,None,363.10091999999713,None,363.91033527996626,None,,,,11014,0001,2022_May_04_1420,localizer,2021.1.3,59.656189442343056,
block,scrambled,scrambled018.bmp,,,,,0,161,161,161,,,,,,,,,,,,,,,,,,,,,,,,,,,,,,,,,,,,,,,,,,None,,363.91033527996626,None,363.91033527996626,None,2022-05-04-14:25:58.416427,363.92007849994116,364.22665009996854,363.92007849994116,None,None,363.92007849994116,None,364.72824867997554,None,,,,11014,0001,2022_May_04_1420,localizer,2021.1.3,59.656189442343056,
block,scrambled,scrambled023.bmp,,,,,0,162,162,162,,,,,,,,,,,,,,,,,,,,,,,,,,,,,,,,,,,,,,,,,,None,,364.72824867997554,None,364.72824867997554,None,2022-05-04-14:25:59.235204,364.72990949999075,365.043179799919,364.72990949999075,None,None,364.72990949999075,None,365.5432715799776,None,,,,11014,0001,2022_May_04_1420,localizer,2021.1.3,59.656189442343056,
block,scrambled,scrambled084.bmp,,,,,0,163,163,163,,,,,,,,,,,,,,,,,,,,,,,,,,,,,,,,,,,,,,,,,,None,,365.5432715799776,None,365.5432715799776,None,2022-05-04-14:26:00.048871,365.54566579998937,365.8598730999511,365.54566579998937,None,None,365.54566579998937,None,366.3476328799385,None,,,,11014,0001,2022_May_04_1420,localizer,2021.1.3,59.656189442343056,
block,scrambled,scrambled019.bmp,,,,,0,164,164,164,,,,,,,,,,,,,,,,,,,,,,,,,,,,,,,,,,,,,,,,,,None,,366.3476328799385,None,366.3476328799385,None,2022-05-04-14:26:00.857538,366.3518035999732,366.6602320999373,366.3518035999732,None,None,366.3518035999732,None,367.16035788002193,None,,,,11014,0001,2022_May_04_1420,localizer,2021.1.3,59.656189442343056,
block,scrambled,scrambled076.bmp,,,,,0,165,165,165,,,,,,,,,,,,,,,,,,,,,,,,,,,,,,,,,,,,,,,,,,None,,367.16035788002193,None,367.16035788002193,None,2022-05-04-14:26:01.666326,367.1699168999912,367.4777931999415,367.1699168999912,None,None,367.1699168999912,None,367.9766319800052,None,,,,11014,0001,2022_May_04_1420,localizer,2021.1.3,59.656189442343056,
block,scrambled,scrambled009.bmp,,,,,0,166,166,166,,,,,,,,,,,,,,,,,,,,,,,,,,,,,,,,,,,,,,,,,,None,,367.9766319800052,None,367.9766319800052,None,2022-05-04-14:26:02.481599,367.9850224999245,368.29325350001454,367.9850224999245,None,None,367.9850224999245,None,368.7932578799897,None,,,,11014,0001,2022_May_04_1420,localizer,2021.1.3,59.656189442343056,
block_end,scrambled,scrambled020.bmp,,,,,0,167,167,167,,,,,,,,,,,,,,,,,,,,,,,,,,,,,,,,,,,,,,,,,,None,,368.7932578799897,None,368.7932578799897,None,2022-05-04-14:26:03.299093,368.8022375999717,369.1106690999586,368.8022375999717,None,None,368.8022375999717,None,369.61030747994084,None,,,,11014,0001,2022_May_04_1420,localizer,2021.1.3,59.656189442343056,
block_start,objects,objects052.bmp,,,,,0,168,168,168,,,,,,,,,,,,,,,,,,,,,,,,,,,,,,,,,,,,,,,,,,t,1.7447507999604568,369.6101744999178,None,369.6101744999178,None,2022-05-04-14:26:05.882834,371.3851700000232,371.69347960001323,371.3851700000232,None,None,371.3851700000232,None,372.1937305800035,None,,,,11014,0001,2022_May_04_1420,localizer,2021.1.3,59.656189442343056,
block,objects,objects024.bmp,,,,,0,169,169,169,,,,,,,,,,,,,,,,,,,,,,,,,,,,,,,,,,,,,,,,,,None,,372.1937305800035,None,372.1937305800035,None,2022-05-04-14:26:06.700143,372.20371209993027,372.51008679997176,372.20371209993027,None,None,372.20371209993027,None,373.0099277799833,None,,,,11014,0001,2022_May_04_1420,localizer,2021.1.3,59.656189442343056,
block,objects,objects008.bmp,,,,,0,170,170,170,,,,,,,,,,,,,,,,,,,,,,,,,,,,,,,,,,,,,,,,,,None,,373.0099277799833,None,373.0099277799833,None,2022-05-04-14:26:07.514875,373.0121220999863,373.3265392999165,373.0121220999863,None,None,373.0121220999863,None,373.8269618799328,None,,,,11014,0001,2022_May_04_1420,localizer,2021.1.3,59.656189442343056,
block,objects,objects037.bmp,,,,,0,171,171,171,,,,,,,,,,,,,,,,,,,,,,,,,,,,,,,,,,,,,,,,,,None,,373.8269618799328,None,373.8269618799328,None,2022-05-04-14:26:08.332924,373.8357706000097,374.1433937000111,373.8357706000097,None,None,373.8357706000097,None,374.64388007993114,None,,,,11014,0001,2022_May_04_1420,localizer,2021.1.3,59.656189442343056,
block,objects,objects075.bmp,,,,,0,172,172,172,,,,,,,,,,,,,,,,,,,,,,,,,,,,,,,,,,,,,,,,,,None,,374.64388007993114,None,374.64388007993114,None,2022-05-04-14:26:09.149846,374.6548754000105,374.96064399997704,374.6548754000105,None,None,374.6548754000105,None,375.4604033799493,None,,,,11014,0001,2022_May_04_1420,localizer,2021.1.3,59.656189442343056,
block,objects,objects079.bmp,,,,,0,173,173,173,,,,,,,,,,,,,,,,,,,,,,,,,,,,,,,,,,,,,,,,,,None,,375.4604033799493,None,375.4604033799493,None,2022-05-04-14:26:09.966645,375.46993249992374,375.77684890001547,375.46993249992374,None,None,375.46993249992374,None,376.27843737994556,None,,,,11014,0001,2022_May_04_1420,localizer,2021.1.3,59.656189442343056,
block,objects,objects045.bmp,,,,,0,174,174,174,,,,,,,,,,,,,,,,,,,,,,,,,,,,,,,,,,,,,,,,,,None,,376.27843737994556,None,376.27843737994556,None,2022-05-04-14:26:10.786356,376.28062859992497,376.59498809999786,376.28062859992497,None,None,376.28062859992497,None,377.09361807998505,None,,,,11014,0001,2022_May_04_1420,localizer,2021.1.3,59.656189442343056,
block,objects,objects084.bmp,,,,,0,175,175,175,,,,,,,,,,,,,,,,,,,,,,,,,,,,,,,,,,,,,,,,,,None,,377.09361807998505,None,377.09361807998505,None,2022-05-04-14:26:11.600103,377.103846999933,377.4099298999645,377.103846999933,None,None,377.103846999933,None,377.9102693799301,None,,,,11014,0001,2022_May_04_1420,localizer,2021.1.3,59.656189442343056,
block,objects,objects074.bmp,,,,,0,176,176,176,,,,,,,,,,,,,,,,,,,,,,,,,,,,,,,,,,,,,,,,,,None,,377.9102693799301,None,377.9102693799301,None,2022-05-04-14:26:12.415848,377.91935310000554,378.2271383999614,377.91935310000554,None,None,377.91935310000554,None,378.72688927998536,None,,,,11014,0001,2022_May_04_1420,localizer,2021.1.3,59.656189442343056,
block,objects,objects059.bmp,,,,,0,177,177,177,,,,,,,,,,,,,,,,,,,,,,,,,,,,,,,,,,,,,,,,,,None,,378.72688927998536,None,378.72688927998536,None,2022-05-04-14:26:13.233078,378.73187579994556,379.0433068999555,378.73187579994556,None,None,378.73187579994556,None,379.54360577996124,None,,,,11014,0001,2022_May_04_1420,localizer,2021.1.3,59.656189442343056,
block,objects,objects046.bmp,,,,,0,178,178,178,,,,,,,,,,,,,,,,,,,,,,,,,,,,,,,,,,,,,,,,,,None,,379.54360577996124,None,379.54360577996124,None,2022-05-04-14:26:14.049812,379.5532431999454,379.8605256000301,379.5532431999454,None,None,379.5532431999454,None,380.3610138799646,None,,,,11014,0001,2022_May_04_1420,localizer,2021.1.3,59.656189442343056,
block,objects,objects069.bmp,,,,,0,179,179,179,,,,,,,,,,,,,,,,,,,,,,,,,,,,,,,,,,,,,,,,,,None,,380.3610138799646,None,380.3610138799646,None,2022-05-04-14:26:14.866251,380.3689650000306,380.67662899999414,380.3689650000306,None,None,380.3689650000306,None,381.17690208003626,None,,,,11014,0001,2022_May_04_1420,localizer,2021.1.3,59.656189442343056,
block,objects,objects047.bmp,,,,,0,180,180,180,,,,,,,,,,,,,,,,,,,,,,,,,,,,,,,,,,,,,,,,,,None,,381.17690208003626,None,381.17690208003626,None,2022-05-04-14:26:15.682873,381.178021300002,381.49368359998334,381.178021300002,None,None,381.178021300002,None,381.98344407995467,None,,,,11014,0001,2022_May_04_1420,localizer,2021.1.3,59.656189442343056,
block,objects,objects010.bmp,,,,,0,181,181,181,,,,,,,,,,,,,,,,,,,,,,,,,,,,,,,,,,,,,,,,,,None,,381.98344407995467,None,381.98344407995467,None,2022-05-04-14:26:16.497833,381.9935494000092,382.29358960001264,381.9935494000092,None,None,381.9935494000092,None,382.79419977994405,None,,,,11014,0001,2022_May_04_1420,localizer,2021.1.3,59.656189442343056,
block_end,objects,objects019.bmp,,,,,0,182,182,182,,,,,,,,,,,,,,,,,,,,,,,,,,,,,,,,,,,,,,,,,,None,,382.79419977994405,None,382.79419977994405,None,2022-05-04-14:26:17.300471,382.7946640999289,383.10960460000206,382.7946640999289,None,None,382.7946640999289,None,383.61041018002436,None,,,,11014,0001,2022_May_04_1420,localizer,2021.1.3,59.656189442343056,
block_start,scrambled,scrambled030.bmp,,,,,0,183,183,183,,,,,,,,,,,,,,,,,,,,,,,,,,,,,,,,,,,,,,,,,,t,1.7444890000624582,383.61042449995875,None,383.61042449995875,None,2022-05-04-14:26:19.883417,385.37793800001964,385.6934739999706,385.37793800001964,None,None,385.37793800001964,None,386.17711117999863,None,,,,11014,0001,2022_May_04_1420,localizer,2021.1.3,59.656189442343056,
block,scrambled,scrambled060.bmp,,,,,0,184,184,184,,,,,,,,,,,,,,,,,,,,,,,,,,,,,,,,,,,,,,,,,,None,,386.17711117999863,None,386.17711117999863,None,2022-05-04-14:26:20.684078,386.1871036000084,386.4936670999741,386.1871036000084,386.1871036000084,None,386.1871036000084,386.1871036000084,386.99410287997455,None,,,,11014,0001,2022_May_04_1420,localizer,2021.1.3,59.656189442343056,
block,scrambled,scrambled033.bmp,,,,,0,185,185,185,,,,,,,,,,,,,,,,,,,,,,,,,,,,,,,,,,,,,,,,,,None,,386.99410287997455,None,386.99410287997455,None,2022-05-04-14:26:21.501389,387.0059601999819,387.310585899977,387.0059601999819,None,None,387.0059601999819,None,387.8105240800302,None,,,,11014,0001,2022_May_04_1420,localizer,2021.1.3,59.656189442343056,
block,scrambled,scrambled042.bmp,,,,,0,186,186,186,,,,,,,,,,,,,,,,,,,,,,,,,,,,,,,,,,,,,,,,,,None,,387.8105240800302,None,387.8105240800302,None,2022-05-04-14:26:22.316219,387.8201867999742,388.1267962999409,387.8201867999742,None,None,387.8201867999742,None,388.6268326799269,None,,,,11014,0001,2022_May_04_1420,localizer,2021.1.3,59.656189442343056,
block,scrambled,scrambled037.bmp,,,,,0,187,187,187,,,,,,,,,,,,,,,,,,,,,,,,,,,,,,,,,,,,,,,,,,None,,388.6268326799269,None,388.6268326799269,None,2022-05-04-14:26:23.133058,388.6357867999468,388.9435634999536,388.6357867999468,None,None,388.6357867999468,None,389.4433628799976,None,,,,11014,0001,2022_May_04_1420,localizer,2021.1.3,59.656189442343056,
block,scrambled,scrambled083.bmp,,,,,0,188,188,188,,,,,,,,,,,,,,,,,,,,,,,,,,,,,,,,,,,,,,,,,,None,,389.4433628799976,None,389.4433628799976,None,2022-05-04-14:26:23.948077,389.4453141000122,389.76033129997086,389.4453141000122,None,None,389.4453141000122,None,390.26031827992995,None,,,,11014,0001,2022_May_04_1420,localizer,2021.1.3,59.656189442343056,
block,scrambled,scrambled084.bmp,,,,,0,189,189,189,,,,,,,,,,,,,,,,,,,,,,,,,,,,,,,,,,,,,,,,,,None,,390.26031827992995,None,390.26031827992995,None,2022-05-04-14:26:24.765945,390.2615434000036,390.58351879997645,390.2615434000036,None,None,390.2615434000036,None,391.0769186799531,None,,,,11014,0001,2022_May_04_1420,localizer,2021.1.3,59.656189442343056,
block,scrambled,scrambled079.bmp,,,,,0,190,190,190,,,,,,,,,,,,,,,,,,,,,,,,,,,,,,,,,,,,,,,,,,None,,391.0769186799531,None,391.0769186799531,None,2022-05-04-14:26:25.582890,391.0809563000221,391.39363389997743,391.0809563000221,None,None,391.0809563000221,None,391.8936582799885,None,,,,11014,0001,2022_May_04_1420,localizer,2021.1.3,59.656189442343056,
block,scrambled,scrambled066.bmp,,,,,0,191,191,191,,,,,,,,,,,,,,,,,,,,,,,,,,,,,,,,,,,,,,,,,,None,,391.8936582799885,None,391.8936582799885,None,2022-05-04-14:26:26.398851,391.89577529998496,392.2101832999615,391.89577529998496,None,None,391.89577529998496,None,392.7104188799509,None,,,,11014,0001,2022_May_04_1420,localizer,2021.1.3,59.656189442343056,
block,scrambled,scrambled085.bmp,,,,,0,192,192,192,,,,,,,,,,,,,,,,,,,,,,,,,,,,,,,,,,,,,,,,,,None,,392.7104188799509,None,392.7104188799509,None,2022-05-04-14:26:27.216448,392.7198738999432,393.02675119997,392.7198738999432,None,None,392.7198738999432,None,393.52704827996206,None,,,,11014,0001,2022_May_04_1420,localizer,2021.1.3,59.656189442343056,
block,scrambled,scrambled041.bmp,,,,,0,193,193,193,,,,,,,,,,,,,,,,,,,,,,,,,,,,,,,,,,,,,,,,,,None,,393.52704827996206,None,393.52704827996206,None,2022-05-04-14:26:28.033016,393.5279693999328,393.8270302999299,393.5279693999328,None,None,393.5279693999328,None,394.34371717992474,None,,,,11014,0001,2022_May_04_1420,localizer,2021.1.3,59.656189442343056,
block,scrambled,scrambled039.bmp,,,,,0,194,194,194,,,,,,,,,,,,,,,,,,,,,,,,,,,,,,,,,,,,,,,,,,None,,394.34371717992474,None,394.34371717992474,None,2022-05-04-14:26:28.850050,394.34499899996445,394.66046939999796,394.34499899996445,None,None,394.34499899996445,None,395.1604319800041,None,,,,11014,0001,2022_May_04_1420,localizer,2021.1.3,59.656189442343056,
block,scrambled,scrambled063.bmp,,,,,0,195,195,195,,,,,,,,,,,,,,,,,,,,,,,,,,,,,,,,,,,,,,,,,,None,,395.1604319800041,None,395.1604319800041,None,2022-05-04-14:26:29.666472,395.1612179999938,395.4767185000237,395.1612179999938,None,None,395.1612179999938,None,395.96044258001496,None,,,,11014,0001,2022_May_04_1420,localizer,2021.1.3,59.656189442343056,
block,scrambled,scrambled050.bmp,,,,,0,196,196,196,,,,,,,,,,,,,,,,,,,,,,,,,,,,,,,,,,,,,,,,,,None,,395.96044258001496,None,395.96044258001496,None,2022-05-04-14:26:30.467626,395.96763219998684,396.2769669999834,395.96763219998684,395.96763219998684,None,395.96763219998684,395.96763219998684,396.7770344799734,None,,,,11014,0001,2022_May_04_1420,localizer,2021.1.3,59.656189442343056,
block_end,scrambled,scrambled002.bmp,,,,,0,197,197,197,,,,,,,,,,,,,,,,,,,,,,,,,,,,,,,,,,,,,,,,,,None,,396.7770344799734,None,396.7770344799734,None,2022-05-04-14:26:31.283005,396.777908799937,397.07680279994383,396.777908799937,None,None,396.777908799937,None,397.57737168002643,None,,,,11014,0001,2022_May_04_1420,localizer,2021.1.3,59.656189442343056,
block_start,scenes,scenes003.bmp,,,,,0,198,198,198,,,,,,,,,,,,,,,,,,,,,,,,,,,,,,,,,,,,,,,,,,t,1.7787538000848144,397.57611319993157,None,397.57611319993157,None,2022-05-04-14:26:33.881219,399.3876891999971,399.6935898999218,399.3876891999971,None,None,399.3876891999971,None,400.19464577998735,None,,,,11014,0001,2022_May_04_1420,localizer,2021.1.3,59.656189442343056,
block,scenes,scenes005.bmp,,,,,0,199,199,199,,,,,,,,,,,,,,,,,,,,,,,,,,,,,,,,,,,,,,,,,,None,,400.19464577998735,None,400.19464577998735,None,2022-05-04-14:26:34.702566,400.20723599998746,400.51196279993746,400.20723599998746,None,None,400.20723599998746,None,401.010799979989,None,,,,11014,0001,2022_May_04_1420,localizer,2021.1.3,59.656189442343056,
block,scenes,scenes047.bmp,,,,,0,200,200,200,,,,,,,,,,,,,,,,,,,,,,,,,,,,,,,,,,,,,,,,,,None,,401.010799979989,None,401.010799979989,None,2022-05-04-14:26:35.518236,401.0222324000206,401.326881099958,401.0222324000206,None,None,401.0222324000206,None,401.82702158003815,None,,,,11014,0001,2022_May_04_1420,localizer,2021.1.3,59.656189442343056,
block,scenes,scenes060.bmp,,,,,0,201,201,201,,,,,,,,,,,,,,,,,,,,,,,,,,,,,,,,,,,,,,,,,,None,,401.82702158003815,None,401.82702158003815,None,2022-05-04-14:26:36.333228,401.82807339995634,402.143565599923,401.82807339995634,None,None,401.82807339995634,None,402.6272067799815,None,,,,11014,0001,2022_May_04_1420,localizer,2021.1.3,59.656189442343056,
block,scenes,scenes020.bmp,,,,,0,202,202,202,,,,,,,,,,,,,,,,,,,,,,,,,,,,,,,,,,,,,,,,,,None,,402.6272067799815,None,402.6272067799815,None,2022-05-04-14:26:37.135366,402.6393506999593,402.94357629993465,402.6393506999593,402.6393506999593,None,402.6393506999593,402.6393506999593,403.4435405799537,None,,,,11014,0001,2022_May_04_1420,localizer,2021.1.3,59.656189442343056,
block,scenes,scenes055.bmp,,,,,0,203,203,203,,,,,,,,,,,,,,,,,,,,,,,,,,,,,,,,,,,,,,,,,,None,,403.4435405799537,None,403.4435405799537,None,2022-05-04-14:26:37.950088,403.45475409994833,403.7604280000087,403.45475409994833,None,None,403.45475409994833,None,404.26056357993514,None,,,,11014,0001,2022_May_04_1420,localizer,2021.1.3,59.656189442343056,
block,scenes,scenes088.bmp,,,,,0,204,204,204,,,,,,,,,,,,,,,,,,,,,,,,,,,,,,,,,,,,,,,,,,None,,404.26056357993514,None,404.26056357993514,None,2022-05-04-14:26:38.766258,404.26146559999324,404.5767319999868,404.26146559999324,None,None,404.26146559999324,None,405.0606156800292,None,,,,11014,0001,2022_May_04_1420,localizer,2021.1.3,59.656189442343056,
block,scenes,scenes076.bmp,,,,,0,205,205,205,,,,,,,,,,,,,,,,,,,,,,,,,,,,,,,,,,,,,,,,,,None,,405.0606156800292,None,405.0606156800292,None,2022-05-04-14:26:39.568395,405.0719755999744,405.3836755999364,405.0719755999744,405.0719755999744,None,405.0719755999744,405.0719755999744,405.87954537997723,None,,,,11014,0001,2022_May_04_1420,localizer,2021.1.3,59.656189442343056,
block,scenes,scenes083.bmp,,,,,0,206,206,206,,,,,,,,,,,,,,,,,,,,,,,,,,,,,,,,,,,,,,,,,,None,,405.87954537997723,None,405.87954537997723,None,2022-05-04-14:26:40.389572,405.8834181999555,406.1938840999501,405.8834181999555,None,None,405.8834181999555,None,406.6939721799805,None,,,,11014,0001,2022_May_04_1420,localizer,2021.1.3,59.656189442343056,
block,scenes,scenes079.bmp,,,,,0,207,207,207,,,,,,,,,,,,,,,,,,,,,,,,,,,,,,,,,,,,,,,,,,None,,406.6939721799805,None,406.6939721799805,None,2022-05-04-14:26:41.200532,406.69485520001035,406.9938502999721,406.69485520001035,None,None,406.69485520001035,None,407.4943001799635,None,,,,11014,0001,2022_May_04_1420,localizer,2021.1.3,59.656189442343056,
block,scenes,scenes080.bmp,,,,,0,208,208,208,,,,,,,,,,,,,,,,,,,,,,,,,,,,,,,,,,,,,,,,,,None,,407.4943001799635,None,407.4943001799635,None,2022-05-04-14:26:42.002488,407.49693339993246,407.8112063999288,407.49693339993246,407.49693339993246,None,407.49693339993246,407.49693339993246,408.31057477995057,None,,,,11014,0001,2022_May_04_1420,localizer,2021.1.3,59.656189442343056,
block,scenes,scenes034.bmp,,,,,0,209,209,209,,,,,,,,,,,,,,,,,,,,,,,,,,,,,,,,,,,,,,,,,,None,,408.31057477995057,None,408.31057477995057,None,2022-05-04-14:26:42.817104,408.3113672999898,408.6101172999479,408.3113672999898,None,None,408.3113672999898,None,409.110660979955,None,,,,11014,0001,2022_May_04_1420,localizer,2021.1.3,59.656189442343056,
block,scenes,scenes036.bmp,,,,,0,210,210,210,,,,,,,,,,,,,,,,,,,,,,,,,,,,,,,,,,,,,,,,,,None,,409.110660979955,None,409.110660979955,None,2022-05-04-14:26:43.618319,409.11126819998026,409.4104384999955,409.11126819998026,409.11126819998026,None,409.11126819998026,409.11126819998026,409.9105967799784,None,,,,11014,0001,2022_May_04_1420,localizer,2021.1.3,59.656189442343056,
block,scenes,scenes056.bmp,,,,,0,211,211,211,,,,,,,,,,,,,,,,,,,,,,,,,,,,,,,,,,,,,,,,,,None,,409.9105967799784,None,409.9105967799784,None,2022-05-04-14:26:44.417638,409.92057219997514,410.2276716999477,409.92057219997514,409.92057219997514,None,409.92057219997514,409.92057219997514,410.7273015799816,None,,,,11014,0001,2022_May_04_1420,localizer,2021.1.3,59.656189442343056,
block_end,scenes,scenes050.bmp,,,,,0,212,212,212,,,,,,,,,,,,,,,,,,,,,,,,,,,,,,,,,,,,,,,,,,None,,410.7273015799816,None,410.7273015799816,None,2022-05-04-14:26:45.233303,410.737367899972,411.0511588000227,410.737367899972,None,None,410.737367899972,None,411.54405568001096,None,,,,11014,0001,2022_May_04_1420,localizer,2021.1.3,59.656189442343056,
block_start,objects,objects017.bmp,,,,,0,213,213,213,,,,,,,,,,,,,,,,,,,,,,,,,,,,,,,,,,,,,,,,,,t,1.8117886999389157,411.54353289993014,None,411.54353289993014,None,2022-05-04-14:26:47.889143,413.39269849995617,413.69608539994806,413.39269849995617,None,None,413.39269849995617,None,414.1934466799372,None,,,,11014,0001,2022_May_04_1420,localizer,2021.1.3,59.656189442343056,
block,objects,objects028.bmp,,,,,0,214,214,214,,,,,,,,,,,,,,,,,,,,,,,,,,,,,,,,,,,,,,,,,,None,,414.1934466799372,None,414.1934466799372,None,2022-05-04-14:26:48.699316,414.1957364999689,414.51070879993495,414.1957364999689,None,None,414.1957364999689,None,414.99575277996485,None,,,,11014,0001,2022_May_04_1420,localizer,2021.1.3,59.656189442343056,
block,objects,objects060.bmp,,,,,0,215,215,215,,,,,,,,,,,,,,,,,,,,,,,,,,,,,,,,,,,,,,,,,,None,,414.99575277996485,None,414.99575277996485,None,2022-05-04-14:26:49.505991,415.01162140001543,415.3113381000003,415.01162140001543,415.01162140001543,None,415.01162140001543,415.01162140001543,415.8120978800231,None,,,,11014,0001,2022_May_04_1420,localizer,2021.1.3,59.656189442343056,
block,objects,objects011.bmp,,,,,0,216,216,216,,,,,,,,,,,,,,,,,,,,,,,,,,,,,,,,,,,,,,,,,,None,,415.8120978800231,None,415.8120978800231,None,2022-05-04-14:26:50.320182,415.8258996999357,416.12719229992945,415.8258996999357,None,None,415.8258996999357,None,416.6276059799944,None,,,,11014,0001,2022_May_04_1420,localizer,2021.1.3,59.656189442343056,
block,objects,objects058.bmp,,,,,0,217,217,217,,,,,,,,,,,,,,,,,,,,,,,,,,,,,,,,,,,,,,,,,,None,,416.6276059799944,None,416.6276059799944,None,2022-05-04-14:26:51.133675,416.638514899998,416.9438744999934,416.638514899998,None,None,416.638514899998,None,417.44973567997806,None,,,,11014,0001,2022_May_04_1420,localizer,2021.1.3,59.656189442343056,
block,objects,objects025.bmp,,,,,0,218,218,218,,,,,,,,,,,,,,,,,,,,,,,,,,,,,,,,,,,,,,,,,,None,,417.44973567997806,None,417.44973567997806,None,2022-05-04-14:26:51.955456,417.45454469998367,417.7605521000223,417.45454469998367,None,None,417.45454469998367,None,418.2604249799275,None,,,,11014,0001,2022_May_04_1420,localizer,2021.1.3,59.656189442343056,
block,objects,objects037.bmp,,,,,0,219,219,219,,,,,,,,,,,,,,,,,,,,,,,,,,,,,,,,,,,,,,,,,,None,,418.2604249799275,None,418.2604249799275,None,2022-05-04-14:26:52.765833,418.2616708999267,418.5834551999578,418.2616708999267,None,None,418.2616708999267,None,419.061528379994,None,,,,11014,0001,2022_May_04_1420,localizer,2021.1.3,59.656189442343056,
block,objects,objects064.bmp,,,,,0,220,220,220,,,,,,,,,,,,,,,,,,,,,,,,,,,,,,,,,,,,,,,,,,None,,419.061528379994,None,419.061528379994,None,2022-05-04-14:26:53.570607,419.07457769999746,419.37682230002247,419.07457769999746,419.07457769999746,None,419.07457769999746,419.07457769999746,419.877006779972,None,,,,11014,0001,2022_May_04_1420,localizer,2021.1.3,59.656189442343056,
block,objects,objects042.bmp,,,,,0,221,221,221,,,,,,,,,,,,,,,,,,,,,,,,,,,,,,,,,,,,,,,,,,None,,419.877006779972,None,419.877006779972,None,2022-05-04-14:26:54.382839,419.8853821000084,420.19360280002,419.8853821000084,None,None,419.8853821000084,None,420.69395287994996,None,,,,11014,0001,2022_May_04_1420,localizer,2021.1.3,59.656189442343056,
block,objects,objects010.bmp,,,,,0,222,222,222,,,,,,,,,,,,,,,,,,,,,,,,,,,,,,,,,,,,,,,,,,None,,420.69395287994996,None,420.69395287994996,None,2022-05-04-14:26:55.200037,420.69462780002505,420.9943847999675,420.69462780002505,None,None,420.69462780002505,None,421.49406737993706,None,,,,11014,0001,2022_May_04_1420,localizer,2021.1.3,59.656189442343056,
block,objects,objects068.bmp,,,,,0,223,223,223,,,,,,,,,,,,,,,,,,,,,,,,,,,,,,,,,,,,,,,,,,None,,421.49406737993706,None,421.49406737993706,None,2022-05-04-14:26:56.001873,421.50507039995864,421.8101337000262,421.50507039995864,421.50507039995864,None,421.50507039995864,421.50507039995864,422.31145867992893,None,,,,11014,0001,2022_May_04_1420,localizer,2021.1.3,59.656189442343056,
block,objects,objects034.bmp,,,,,0,224,224,224,,,,,,,,,,,,,,,,,,,,,,,,,,,,,,,,,,,,,,,,,,None,,422.31145867992893,None,422.31145867992893,None,2022-05-04-14:26:56.818646,422.3118507999461,422.6111348000122,422.3118507999461,None,None,422.3118507999461,None,423.12715068002,None,,,,11014,0001,2022_May_04_1420,localizer,2021.1.3,59.656189442343056,
block,objects,objects074.bmp,,,,,0,225,225,225,,,,,,,,,,,,,,,,,,,,,,,,,,,,,,,,,,,,,,,,,,None,,423.12715068002,None,423.12715068002,None,2022-05-04-14:26:57.633418,423.128200899926,423.4270073999651,423.128200899926,None,None,423.128200899926,None,423.92875637995314,None,,,,11014,0001,2022_May_04_1420,localizer,2021.1.3,59.656189442343056,
block,objects,objects057.bmp,,,,,0,226,226,226,,,,,,,,,,,,,,,,,,,,,,,,,,,,,,,,,,,,,,,,,,None,,423.92875637995314,None,423.92875637995314,None,2022-05-04-14:26:58.437335,423.94280969991814,424.2437066999264,423.94280969991814,423.94280969991814,None,423.94280969991814,423.94280969991814,424.74556957996685,None,,,,11014,0001,2022_May_04_1420,localizer,2021.1.3,59.656189442343056,
block_end,objects,objects057.bmp,,,,,0,227,227,227,,,,,,,,,,,,,,,,,,,,,,,,,,,,,,,,,,,,,,,,,,None,,424.74556957996685,None,424.74556957996685,None,2022-05-04-14:26:59.252969,424.74622839991935,425.06029419996776,424.74622839991935,None,None,424.74622839991935,None,425.5605912799598,None,,,,11014,0001,2022_May_04_1420,localizer,2021.1.3,59.656189442343056,
null_block,null_block,null_block.bmp,,,,,0,228,228,228,,,,,,,,,,,,,,,,,,,,,,,,,,,,,,,,,,,,,,,,,,t,1.7937139999121428,425.5602561000269,None,425.5602561000269,None,2022-05-04-14:27:01.892252,427.38164827992443,None,427.38164827992443,None,None,427.38164827992443,None,427.3884243000066,None,,,,11014,0001,2022_May_04_1420,localizer,2021.1.3,59.656189442343056,
block_start,faces,faces065.bmp,,,,,0,229,229,229,,,,,,,,,,,,,,,,,,,,,,,,,,,,,,,,,,,,,,,,,,t,1.9535202999832109,439.40056259999983,None,439.40056259999983,None,2022-05-04-14:27:15.886313,441.39862130000256,441.71079009992536,441.39862130000256,None,None,441.39862130000256,None,442.19484708000675,None,,,,11014,0001,2022_May_04_1420,localizer,2021.1.3,59.656189442343056,
block,faces,faces036.bmp,,,,,0,230,230,230,,,,,,,,,,,,,,,,,,,,,,,,,,,,,,,,,,,,,,,,,,None,,442.19484708000675,None,442.19484708000675,None,2022-05-04-14:27:16.703083,442.19614409992937,442.5105379000306,442.19614409992937,None,None,442.19614409992937,None,442.99633097994376,None,,,,11014,0001,2022_May_04_1420,localizer,2021.1.3,59.656189442343056,
block,faces,faces028.bmp,,,,,0,231,231,231,,,,,,,,,,,,,,,,,,,,,,,,,,,,,,,,,,,,,,,,,,None,,442.99633097994376,None,442.99633097994376,None,2022-05-04-14:27:17.508603,443.00341739994474,443.3111825999804,443.00341739994474,443.00341739994474,None,443.00341739994474,443.00341739994474,443.81067318000134,None,,,,11014,0001,2022_May_04_1420,localizer,2021.1.3,59.656189442343056,
block,faces,faces083.bmp,,,,,0,232,232,232,,,,,,,,,,,,,,,,,,,,,,,,,,,,,,,,,,,,,,,,,,None,,443.81067318000134,None,443.81067318000134,None,2022-05-04-14:27:18.317059,443.81919880001806,444.1273504999699,443.81919880001806,None,None,443.81919880001806,None,444.61683128002335,None,,,,11014,0001,2022_May_04_1420,localizer,2021.1.3,59.656189442343056,
block,faces,faces001.bmp,,,,,0,233,233,233,,,,,,,,,,,,,,,,,,,,,,,,,,,,,,,,,,,,,,,,,,None,,444.61683128002335,None,444.61683128002335,None,2022-05-04-14:27:19.127424,444.6328946999274,444.9448329999577,444.6328946999274,None,None,444.6328946999274,None,445.42738017995146,None,,,,11014,0001,2022_May_04_1420,localizer,2021.1.3,59.656189442343056,
block,faces,faces074.bmp,,,,,0,234,234,234,,,,,,,,,,,,,,,,,,,,,,,,,,,,,,,,,,,,,,,,,,None,,445.42738017995146,None,445.42738017995146,None,2022-05-04-14:27:19.934552,445.42808510002214,445.7276420999551,445.42808510002214,None,None,445.42808510002214,None,446.2272889800021,None,,,,11014,0001,2022_May_04_1420,localizer,2021.1.3,59.656189442343056,
block,faces,faces078.bmp,,,,,0,235,235,235,,,,,,,,,,,,,,,,,,,,,,,,,,,,,,,,,,,,,,,,,,None,,446.2272889800021,None,446.2272889800021,None,2022-05-04-14:27:20.734112,446.23268130002543,446.5443537000101,446.23268130002543,446.23268130002543,None,446.23268130002543,446.23268130002543,447.04421817996774,None,,,,11014,0001,2022_May_04_1420,localizer,2021.1.3,59.656189442343056,
block,faces,faces013.bmp,,,,,0,236,236,236,,,,,,,,,,,,,,,,,,,,,,,,,,,,,,,,,,,,,,,,,,None,,447.04421817996774,None,447.04421817996774,None,2022-05-04-14:27:21.550938,447.0541869000299,447.3608833999606,447.0541869000299,None,None,447.0541869000299,None,447.862037479959,None,,,,11014,0001,2022_May_04_1420,localizer,2021.1.3,59.656189442343056,
block,faces,faces010.bmp,,,,,0,237,237,237,,,,,,,,,,,,,,,,,,,,,,,,,,,,,,,,,,,,,,,,,,None,,447.862037479959,None,447.862037479959,None,2022-05-04-14:27:22.370592,447.8642383000115,448.1774781999411,447.8642383000115,None,None,447.8642383000115,None,448.67734268001516,None,,,,11014,0001,2022_May_04_1420,localizer,2021.1.3,59.656189442343056,
block,faces,faces079.bmp,,,,,0,238,238,238,,,,,,,,,,,,,,,,,,,,,,,,,,,,,,,,,,,,,,,,,,None,,448.67734268001516,None,448.67734268001516,None,2022-05-04-14:27:23.183992,448.68587819999084,448.9937716999557,448.68587819999084,None,None,448.68587819999084,None,449.49433417998955,None,,,,11014,0001,2022_May_04_1420,localizer,2021.1.3,59.656189442343056,
block,faces,faces059.bmp,,,,,0,239,239,239,,,,,,,,,,,,,,,,,,,,,,,,,,,,,,,,,,,,,,,,,,None,,449.49433417998955,None,449.49433417998955,None,2022-05-04-14:27:24.000872,449.4949948999565,449.79376859997865,449.4949948999565,None,None,449.4949948999565,None,450.29447537994713,None,,,,11014,0001,2022_May_04_1420,localizer,2021.1.3,59.656189442343056,
block,faces,faces061.bmp,,,,,0,240,240,240,,,,,,,,,,,,,,,,,,,,,,,,,,,,,,,,,,,,,,,,,,None,,450.29447537994713,None,450.29447537994713,None,2022-05-04-14:27:24.803170,450.2957279999973,450.61071269994136,450.2957279999973,450.2957279999973,None,450.2957279999973,450.2957279999973,451.11089187996697,None,,,,11014,0001,2022_May_04_1420,localizer,2021.1.3,59.656189442343056,
block,faces,faces003.bmp,,,,,0,241,241,241,,,,,,,,,,,,,,,,,,,,,,,,,,,,,,,,,,,,,,,,,,None,,451.11089187996697,None,451.11089187996697,None,2022-05-04-14:27:25.618003,451.1210783999413,451.427479499951,451.1210783999413,None,None,451.1210783999413,None,451.927338979987,None,,,,11014,0001,2022_May_04_1420,localizer,2021.1.3,59.656189442343056,
block,faces,faces044.bmp,,,,,0,242,242,242,,,,,,,,,,,,,,,,,,,,,,,,,,,,,,,,,,,,,,,,,,None,,451.927338979987,None,451.927338979987,None,2022-05-04-14:27:26.433693,451.92848919995595,452.2275376999751,451.92848919995595,None,None,451.92848919995595,None,452.72761627993316,None,,,,11014,0001,2022_May_04_1420,localizer,2021.1.3,59.656189442343056,
block_end,faces,faces076.bmp,,,,,0,243,243,243,,,,,,,,,,,,,,,,,,,,,,,,,,,,,,,,,,,,,,,,,,None,,452.72761627993316,None,452.72761627993316,None,2022-05-04-14:27:27.235684,452.73814010003116,453.0433589000022,452.73814010003116,452.73814010003116,None,452.73814010003116,452.73814010003116,453.54503288000126,None,,,,11014,0001,2022_May_04_1420,localizer,2021.1.3,59.656189442343056,
,,,,,,,,,,,,,,,,,,,,,,,,,,,,,,,,,,,,,,,,,,,,,,,,,,,,,,,,,,,,,,,,,,,,,453.54475130001083,None,,,,,,,
