block_type,condition,img_name,Button.thisRepN,Button.thisTrialN,Button.thisN,Button.thisIndex,trials.thisRepN,trials.thisTrialN,trials.thisN,trials.thisIndex,Alignment_background.started,Alignment_background.stopped,Alignment_image.started,Alignment_image.stopped,Alignment_resp.keys,Alignment_resp.rt,Alignment_resp.started,Alignment_resp.stopped,Button_text.started,Button_text.stopped,Index_text.started,Index_text.stopped,Index_resp.keys,Index_resp.rt,Index_resp.started,Index_resp.stopped,Middle_text.started,Middle_text.stopped,Middle_resp.keys,Middle_resp.rt,Middle_resp.started,Middle_resp.stopped,Repeat_text.started,Repeat_text.stopped,Repeat_resp.keys,Repeat_resp.corr,Repeat_resp.rt,Repeat_resp.started,Repeat_resp.stopped,instruction_text.started,instruction_text.stopped,key_resp.keys,key_resp.rt,key_resp.started,key_resp.stopped,scanner_t.keys,scanner_t.rt,scanner_t.started,scanner_t.stopped,fixation_wait_for_t.started,fixation_wait_for_t.stopped,real_timestamp_trial_start,image.started,image.stopped,fixation.started,fixation.stopped,repeat_response.keys,repeat_response.started,repeat_response.stopped,fixation_null.started,fixation_null.stopped,repeat_response.rt,end_text.started,end_text.stopped,participant,run,date,expName,psychopyVersion,frameRate,
,,,,,,,,,,,10.869225800037384,None,10.869225800037384,None,return,31.798513299785554,10.869225800037384,None,,,,,,,,,,,,,,,,,,,,,,,,,,,,,,,,,,,,,,,,,,,,,,,22001,0001,2021_Aug_17_1008,localizer,2021.1.3,59.9819934220857,
,,,0,0,0,0,,,,,,,,,,,,,42.684328199829906,None,43.68473510025069,None,y,0.8374375998973846,43.68473510025069,None,44.551317300181836,None,b,2.318056100048125,44.551317300181836,None,46.8851621998474,None,n,0,2.7876710002310574,46.8851621998474,None,,,,,,,,,,,,,,,,,,,,,,,,,,22001,0001,2021_Aug_17_1008,localizer,2021.1.3,59.9819934220857,
,,,,,,,,,,,,,,,,,,,,,,,,,,,,,,,,,,,,,,,,49.701398599892855,None,y,26.875657900236547,49.701398599892855,None,,,,,,,,,,,,,,,,,,,,22001,0001,2021_Aug_17_1008,localizer,2021.1.3,59.9819934220857,
block_start,scrambled,scrambled004.bmp,,,,,0,0,0,0,,,,,,,,,,,,,,,,,,,,,,,,,,,,,,,,,,,,t,14.027545199729502,76.66488570021465,None,76.66488570021465,None,2021-08-17-10:10:09.435845,90.73586599994451,91.03512170026079,90.73586599994451,None,None,90.73586599994451,None,91.534962429991,None,,,,22001,0001,2021_Aug_17_1008,localizer,2021.1.3,59.9819934220857,
block,scrambled,scrambled024.bmp,,,,,0,1,1,1,,,,,,,,,,,,,,,,,,,,,,,,,,,,,,,,,,,,None,,91.534962429991,None,91.534962429991,None,2021-08-17-10:10:10.252313,91.54413510020822,91.85176570015028,91.54413510020822,None,None,91.54413510020822,None,92.35178732997738,None,,,,22001,0001,2021_Aug_17_1008,localizer,2021.1.3,59.9819934220857,
block,scrambled,scrambled060.bmp,,,,,0,2,2,2,,,,,,,,,,,,,,,,,,,,,,,,,,,,,,,,,,,,None,,92.35178732997738,None,92.35178732997738,None,2021-08-17-10:10:11.074865,92.36719720019028,92.66835789987817,92.36719720019028,None,None,92.36719720019028,None,93.16857503014617,None,,,,22001,0001,2021_Aug_17_1008,localizer,2021.1.3,59.9819934220857,
block,scrambled,scrambled006.bmp,,,,,0,3,3,3,,,,,,,,,,,,,,,,,,,,,,,,,,,,,,,,,,,,None,,93.16857503014617,None,93.16857503014617,None,2021-08-17-10:10:11.890874,93.18888399982825,93.50202060025185,93.18888399982825,None,None,93.18888399982825,None,93.984894730011,None,,,,22001,0001,2021_Aug_17_1008,localizer,2021.1.3,59.9819934220857,
block,scrambled,scrambled030.bmp,,,,,0,4,4,4,,,,,,,,,,,,,,,,,,,,,,,,,,,,,,,,,,,,None,,93.984894730011,None,93.984894730011,None,2021-08-17-10:10:12.698276,93.99115270003676,94.3017210001126,93.99115270003676,None,None,93.99115270003676,None,94.80169882983901,None,,,,22001,0001,2021_Aug_17_1008,localizer,2021.1.3,59.9819934220857,
block,scrambled,scrambled072.bmp,,,,,0,5,5,5,,,,,,,,,,,,,,,,,,,,,,,,,,,,,,,,,,,,None,,94.80169882983901,None,94.80169882983901,None,2021-08-17-10:10:13.524201,94.8166001001373,95.11847259989008,94.8166001001373,None,None,94.8166001001373,None,95.61830943017267,None,,,,22001,0001,2021_Aug_17_1008,localizer,2021.1.3,59.9819934220857,
block,scrambled,scrambled047.bmp,,,,,0,6,6,6,,,,,,,,,,,,,,,,,,,,,,,,,,,,,,,,,,,,None,,95.61830943017267,None,95.61830943017267,None,2021-08-17-10:10:14.331708,95.6188483000733,95.91830840008333,95.6188483000733,None,None,95.6188483000733,None,96.41851223013364,None,,,,22001,0001,2021_Aug_17_1008,localizer,2021.1.3,59.9819934220857,
block,scrambled,scrambled043.bmp,,,,,0,7,7,7,,,,,,,,,,,,,,,,,,,,,,,,,,,,,,,,,,,,None,,96.41851223013364,None,96.41851223013364,None,2021-08-17-10:10:15.143826,96.43983349995688,96.75140820024535,96.43983349995688,96.43983349995688,None,96.43983349995688,96.43983349995688,97.23507432998159,None,,,,22001,0001,2021_Aug_17_1008,localizer,2021.1.3,59.9819934220857,
block,scrambled,scrambled016.bmp,,,,,0,8,8,8,,,,,,,,,,,,,,,,,,,,,,,,,,,,,,,,,,,,None,,97.23507432998159,None,97.23507432998159,None,2021-08-17-10:10:15.948633,97.24325119983405,97.55168149992824,97.24325119983405,None,None,97.24325119983405,None,98.05198542992585,None,,,,22001,0001,2021_Aug_17_1008,localizer,2021.1.3,59.9819934220857,
block,scrambled,scrambled077.bmp,,,,,0,9,9,9,,,,,,,,,,,,,,,,,,,,,,,,,,,,,,,,,,,,None,,98.05198542992585,None,98.05198542992585,None,2021-08-17-10:10:16.776410,98.08787960000336,98.40193120017648,98.08787960000336,None,None,98.08787960000336,None,98.86836833027192,None,,,,22001,0001,2021_Aug_17_1008,localizer,2021.1.3,59.9819934220857,
block,scrambled,scrambled034.bmp,,,,,0,10,10,10,,,,,,,,,,,,,,,,,,,,,,,,,,,,,,,,,,,,None,,98.86836833027192,None,98.86836833027192,None,2021-08-17-10:10:17.583434,98.87354240007699,99.18511180020869,98.87354240007699,None,None,98.87354240007699,None,99.68544692997821,None,,,,22001,0001,2021_Aug_17_1008,localizer,2021.1.3,59.9819934220857,
block,scrambled,scrambled027.bmp,,,,,0,11,11,11,,,,,,,,,,,,,,,,,,,,,,,,,,,,,,,,,,,,None,,99.68544692997821,None,99.68544692997821,None,2021-08-17-10:10:18.409677,99.70698360027745,100.01849019993097,99.70698360027745,None,None,99.70698360027745,None,100.50181213007309,None,,,,22001,0001,2021_Aug_17_1008,localizer,2021.1.3,59.9819934220857,
block,scrambled,scrambled074.bmp,,,,,0,12,12,12,,,,,,,,,,,,,,,,,,,,,,,,,,,,,,,,,,,,None,,100.50181213007309,None,100.50181213007309,None,2021-08-17-10:10:19.226627,100.53113269992173,100.83505980018526,100.53113269992173,None,None,100.53113269992173,None,101.31829543025233,None,,,,22001,0001,2021_Aug_17_1008,localizer,2021.1.3,59.9819934220857,
block,scrambled,scrambled053.bmp,,,,,0,13,13,13,,,,,,,,,,,,,,,,,,,,,,,,,,,,,,,,,,,,None,,101.31829543025233,None,101.31829543025233,None,2021-08-17-10:10:20.034651,101.328503199853,101.63510450022295,101.328503199853,None,None,101.328503199853,None,102.13477443004959,None,,,,22001,0001,2021_Aug_17_1008,localizer,2021.1.3,59.9819934220857,
block_end,scrambled,scrambled062.bmp,,,,,0,14,14,14,,,,,,,,,,,,,,,,,,,,,,,,,,,,,,,,,,,,None,,102.13477443004959,None,102.13477443004959,None,2021-08-17-10:10:20.847738,102.13538130000234,102.43517589988187,102.13538130000234,None,None,102.13538130000234,None,102.93516543027945,None,,,,22001,0001,2021_Aug_17_1008,localizer,2021.1.3,59.9819934220857,
block_start,objects,objects019.bmp,,,,,0,15,15,15,,,,,,,,,,,,,,,,,,,,,,,,,,,,,,,,,,,,t,36.17137310001999,102.9351244000718,None,102.9351244000718,None,2021-08-17-10:10:57.849501,139.13674939982593,139.43527529994026,139.13674939982593,None,None,139.13674939982593,None,139.95201532994398,None,,,,22001,0001,2021_Aug_17_1008,localizer,2021.1.3,59.9819934220857,
block,objects,objects071.bmp,,,,,0,16,16,16,,,,,,,,,,,,,,,,,,,,,,,,,,,,,,,,,,,,None,,139.95201532994398,None,139.95201532994398,None,2021-08-17-10:10:58.676523,139.97330790013075,140.28491799999028,139.97330790013075,None,None,139.97330790013075,None,140.76868522991427,None,,,,22001,0001,2021_Aug_17_1008,localizer,2021.1.3,59.9819934220857,
block,objects,objects086.bmp,,,,,0,17,17,17,,,,,,,,,,,,,,,,,,,,,,,,,,,,,,,,,,,,None,,140.76868522991427,None,140.76868522991427,None,2021-08-17-10:10:59.491984,140.78983619995415,141.10196730028838,140.78983619995415,None,None,140.78983619995415,None,141.5850730299484,None,,,,22001,0001,2021_Aug_17_1008,localizer,2021.1.3,59.9819934220857,
block,objects,objects084.bmp,,,,,0,18,18,18,,,,,,,,,,,,,,,,,,,,,,,,,,,,,,,,,,,,None,,141.5850730299484,None,141.5850730299484,None,2021-08-17-10:11:00.297145,141.58842269983143,141.90206710016355,141.58842269983143,None,None,141.58842269983143,None,142.40190323009156,None,,,,22001,0001,2021_Aug_17_1008,localizer,2021.1.3,59.9819934220857,
block,objects,objects076.bmp,,,,,0,19,19,19,,,,,,,,,,,,,,,,,,,,,,,,,,,,,,,,,,,,None,,142.40190323009156,None,142.40190323009156,None,2021-08-17-10:11:01.115301,142.40254099993035,142.70170830003917,142.40254099993035,None,None,142.40254099993035,None,143.20209042993375,None,,,,22001,0001,2021_Aug_17_1008,localizer,2021.1.3,59.9819934220857,
block,objects,objects082.bmp,,,,,0,20,20,20,,,,,,,,,,,,,,,,,,,,,,,,,,,,,,,,,,,,None,,143.20209042993375,None,143.20209042993375,None,2021-08-17-10:11:01.919812,143.21069229999557,143.51880830014125,143.21069229999557,143.21069229999557,None,143.21069229999557,143.21069229999557,144.01876552994364,None,,,,22001,0001,2021_Aug_17_1008,localizer,2021.1.3,59.9819934220857,
block,objects,objects073.bmp,,,,,0,21,21,21,,,,,,,,,,,,,,,,,,,,,,,,,,,,,,,,,,,,None,,144.01876552994364,None,144.01876552994364,None,2021-08-17-10:11:02.743056,144.04812070028856,144.35190630005673,144.04812070028856,None,None,144.04812070028856,None,144.83537502991967,None,,,,22001,0001,2021_Aug_17_1008,localizer,2021.1.3,59.9819934220857,
block,objects,objects013.bmp,,,,,0,22,22,22,,,,,,,,,,,,,,,,,,,,,,,,,,,,,,,,,,,,None,,144.83537502991967,None,144.83537502991967,None,2021-08-17-10:11:03.557863,144.84974360000342,145.1520467000082,144.84974360000342,None,None,144.84974360000342,None,145.6518511300441,None,,,,22001,0001,2021_Aug_17_1008,localizer,2021.1.3,59.9819934220857,
block,objects,objects040.bmp,,,,,0,23,23,23,,,,,,,,,,,,,,,,,,,,,,,,,,,,,,,,,,,,None,,145.6518511300441,None,145.6518511300441,None,2021-08-17-10:11:04.365249,145.65251410007477,145.95188930025324,145.65251410007477,None,None,145.65251410007477,None,146.4519707298372,None,,,,22001,0001,2021_Aug_17_1008,localizer,2021.1.3,59.9819934220857,
block,objects,objects025.bmp,,,,,0,24,24,24,,,,,,,,,,,,,,,,,,,,,,,,,,,,,,,,,,,,None,,146.4519707298372,None,146.4519707298372,None,2021-08-17-10:11:05.174277,146.4609819999896,146.76876430027187,146.4609819999896,146.4609819999896,None,146.4609819999896,146.4609819999896,147.26871363013052,None,,,,22001,0001,2021_Aug_17_1008,localizer,2021.1.3,59.9819934220857,
block,objects,objects004.bmp,,,,,0,25,25,25,,,,,,,,,,,,,,,,,,,,,,,,,,,,,,,,,,,,None,,147.26871363013052,None,147.26871363013052,None,2021-08-17-10:11:05.982765,147.26993239996955,147.56872340012342,147.26993239996955,None,None,147.26993239996955,None,148.0853948298376,None,,,,22001,0001,2021_Aug_17_1008,localizer,2021.1.3,59.9819934220857,
block,objects,objects088.bmp,,,,,0,26,26,26,,,,,,,,,,,,,,,,,,,,,,,,,,,,,,,,,,,,None,,148.0853948298376,None,148.0853948298376,None,2021-08-17-10:11:06.807901,148.10425940016285,148.4182589002885,148.10425940016285,None,None,148.10425940016285,None,148.90207303022035,None,,,,22001,0001,2021_Aug_17_1008,localizer,2021.1.3,59.9819934220857,
block,objects,objects033.bmp,,,,,0,27,27,27,,,,,,,,,,,,,,,,,,,,,,,,,,,,,,,,,,,,None,,148.90207303022035,None,148.90207303022035,None,2021-08-17-10:11:07.624101,148.92035340005532,149.23528410028666,148.92035340005532,None,None,148.92035340005532,None,149.71852403027006,None,,,,22001,0001,2021_Aug_17_1008,localizer,2021.1.3,59.9819934220857,
block,objects,objects055.bmp,,,,,0,28,28,28,,,,,,,,,,,,,,,,,,,,,,,,,,,,,,,,,,,,None,,149.71852403027006,None,149.71852403027006,None,2021-08-17-10:11:08.435838,149.73124579992145,150.03514959989116,149.73124579992145,None,None,149.73124579992145,None,150.53539672992193,None,,,,22001,0001,2021_Aug_17_1008,localizer,2021.1.3,59.9819934220857,
block_end,objects,objects065.bmp,,,,,0,29,29,29,,,,,,,,,,,,,,,,,,,,,,,,,,,,,,,,,,,,None,,150.53539672992193,None,150.53539672992193,None,2021-08-17-10:11:09.256913,150.5531965000555,150.8514208998531,150.5531965000555,None,None,150.5531965000555,None,151.3519888299983,None,,,,22001,0001,2021_Aug_17_1008,localizer,2021.1.3,59.9819934220857,
null_block,null_block,null_block.bmp,,,,,0,30,30,30,,,,,,,,,,,,,,,,,,,,,,,,,,,,,,,,,,,,t,9.549051700159907,151.35203040018678,None,151.35203040018678,None,2021-08-17-10:11:19.640963,160.9363871600479,None,160.9363871600479,None,None,160.9363871600479,None,160.94021859997883,None,,,,22001,0001,2021_Aug_17_1008,localizer,2021.1.3,59.9819934220857,
block_start,scenes,scenes087.bmp,,,,,0,31,31,31,,,,,,,,,,,,,,,,,,,,,,,,,,,,,,,,,,,,t,15.33506690012291,172.9531916999258,None,172.9531916999258,None,2021-08-17-10:11:47.035499,188.32305900007486,188.6355408001691,188.32305900007486,None,None,188.32305900007486,None,189.1355839300435,None,,,,22001,0001,2021_Aug_17_1008,localizer,2021.1.3,59.9819934220857,
block,scenes,scenes049.bmp,,,,,0,32,32,32,,,,,,,,,,,,,,,,,,,,,,,,,,,,,,,,,,,,None,,189.1355839300435,None,189.1355839300435,None,2021-08-17-10:11:47.858116,189.1561453002505,189.4689909000881,189.1561453002505,None,None,189.1561453002505,None,189.95226233019494,None,,,,22001,0001,2021_Aug_17_1008,localizer,2021.1.3,59.9819934220857,
block,scenes,scenes008.bmp,,,,,0,33,33,33,,,,,,,,,,,,,,,,,,,,,,,,,,,,,,,,,,,,None,,189.95226233019494,None,189.95226233019494,None,2021-08-17-10:11:48.674662,189.9643124002032,190.2689028000459,189.9643124002032,None,None,189.9643124002032,None,190.7690904302057,None,,,,22001,0001,2021_Aug_17_1008,localizer,2021.1.3,59.9819934220857,
block,scenes,scenes084.bmp,,,,,0,34,34,34,,,,,,,,,,,,,,,,,,,,,,,,,,,,,,,,,,,,None,,190.7690904302057,None,190.7690904302057,None,2021-08-17-10:11:49.493444,190.7977729998529,191.10235390020534,190.7977729998529,None,None,190.7977729998529,None,191.58551922985353,None,,,,22001,0001,2021_Aug_17_1008,localizer,2021.1.3,59.9819934220857,
block,scenes,scenes085.bmp,,,,,0,35,35,35,,,,,,,,,,,,,,,,,,,,,,,,,,,,,,,,,,,,None,,191.58551922985353,None,191.58551922985353,None,2021-08-17-10:11:50.299923,191.59254699992016,191.90244020009413,191.59254699992016,None,None,191.59254699992016,None,192.4022500299383,None,,,,22001,0001,2021_Aug_17_1008,localizer,2021.1.3,59.9819934220857,
block,scenes,scenes022.bmp,,,,,0,36,36,36,,,,,,,,,,,,,,,,,,,,,,,,,,,,,,,,,,,,None,,192.4022500299383,None,192.4022500299383,None,2021-08-17-10:11:51.115667,192.40695980004966,192.71906680008397,192.40695980004966,None,None,192.40695980004966,None,193.2191489300225,None,,,,22001,0001,2021_Aug_17_1008,localizer,2021.1.3,59.9819934220857,
block,scenes,scenes031.bmp,,,,,0,37,37,37,,,,,,,,,,,,,,,,,,,,,,,,,,,,,,,,,,,,None,,193.2191489300225,None,193.2191489300225,None,2021-08-17-10:11:51.943667,193.24842970026657,193.55238550016657,193.24842970026657,None,None,193.24842970026657,None,194.03576742983424,None,,,,22001,0001,2021_Aug_17_1008,localizer,2021.1.3,59.9819934220857,
block,scenes,scenes015.bmp,,,,,0,38,38,38,,,,,,,,,,,,,,,,,,,,,,,,,,,,,,,,,,,,None,,194.03576742983424,None,194.03576742983424,None,2021-08-17-10:11:52.760078,194.05929750017822,194.3690804000944,194.05929750017822,None,None,194.05929750017822,None,194.852127330238,None,,,,22001,0001,2021_Aug_17_1008,localizer,2021.1.3,59.9819934220857,
block,scenes,scenes001.bmp,,,,,0,39,39,39,,,,,,,,,,,,,,,,,,,,,,,,,,,,,,,,,,,,None,,194.852127330238,None,194.852127330238,None,2021-08-17-10:11:53.566754,194.8576437002048,195.16901780012995,194.8576437002048,None,None,194.8576437002048,None,195.66895803003572,None,,,,22001,0001,2021_Aug_17_1008,localizer,2021.1.3,59.9819934220857,
block,scenes,scenes037.bmp,,,,,0,40,40,40,,,,,,,,,,,,,,,,,,,,,,,,,,,,,,,,,,,,None,,195.66895803003572,None,195.66895803003572,None,2021-08-17-10:11:54.382658,195.67488850001246,195.9856332000345,195.67488850001246,None,None,195.67488850001246,None,196.4855465300847,None,,,,22001,0001,2021_Aug_17_1008,localizer,2021.1.3,59.9819934220857,
block,scenes,scenes065.bmp,,,,,0,41,41,41,,,,,,,,,,,,,,,,,,,,,,,,,,,,,,,,,,,,None,,196.4855465300847,None,196.4855465300847,None,2021-08-17-10:11:55.199218,196.49378640018404,196.80239460011944,196.49378640018404,None,None,196.49378640018404,None,197.30247542993166,None,,,,22001,0001,2021_Aug_17_1008,localizer,2021.1.3,59.9819934220857,
block,scenes,scenes077.bmp,,,,,0,42,42,42,,,,,,,,,,,,,,,,,,,,,,,,,,,,,,,,,,,,None,,197.30247542993166,None,197.30247542993166,None,2021-08-17-10:11:56.026690,197.32629240024835,197.635619699955,197.32629240024835,None,None,197.32629240024835,None,198.11902363025584,None,,,,22001,0001,2021_Aug_17_1008,localizer,2021.1.3,59.9819934220857,
block,scenes,scenes043.bmp,,,,,0,43,43,43,,,,,,,,,,,,,,,,,,,,,,,,,,,,,,,,,,,,None,,198.11902363025584,None,198.11902363025584,None,2021-08-17-10:11:56.842536,198.13740940019488,198.45237960014492,198.13740940019488,None,None,198.13740940019488,None,198.93569473023527,None,,,,22001,0001,2021_Aug_17_1008,localizer,2021.1.3,59.9819934220857,
block,scenes,scenes002.bmp,,,,,0,44,44,44,,,,,,,,,,,,,,,,,,,,,,,,,,,,,,,,,,,,None,,198.93569473023527,None,198.93569473023527,None,2021-08-17-10:11:57.649211,198.93606259999797,199.23563789995387,198.93606259999797,None,None,198.93606259999797,None,199.7356197301764,None,,,,22001,0001,2021_Aug_17_1008,localizer,2021.1.3,59.9819934220857,
block_end,scenes,scenes059.bmp,,,,,0,45,45,45,,,,,,,,,,,,,,,,,,,,,,,,,,,,,,,,,,,,None,,199.7356197301764,None,199.7356197301764,None,2021-08-17-10:11:58.452010,199.74663559999317,200.05238999985158,199.74663559999317,199.74663559999317,None,199.74663559999317,199.74663559999317,200.55224603028037,None,,,,22001,0001,2021_Aug_17_1008,localizer,2021.1.3,59.9819934220857,
block_start,faces,faces049.bmp,,,,,0,46,46,46,,,,,,,,,,,,,,,,,,,,,,,,,,,,,,,,,,,,t,7.365159600041807,200.55217140028253,None,200.55217140028253,None,2021-08-17-10:12:06.656212,207.95252199983224,208.25266790017486,207.95252199983224,None,None,207.95252199983224,None,208.75264343000018,None,,,,22001,0001,2021_Aug_17_1008,localizer,2021.1.3,59.9819934220857,
block,faces,faces059.bmp,,,,,0,47,47,47,,,,,,,,,,,,,,,,,,,,,,,,,,,,,,,,,,,,None,,208.75264343000018,None,208.75264343000018,None,2021-08-17-10:12:07.474924,208.7680478002876,209.06899610022083,208.7680478002876,None,None,208.7680478002876,None,209.56937802988105,None,,,,22001,0001,2021_Aug_17_1008,localizer,2021.1.3,59.9819934220857,
block,faces,faces036.bmp,,,,,0,48,48,48,,,,,,,,,,,,,,,,,,,,,,,,,,,,,,,,,,,,None,,209.56937802988105,None,209.56937802988105,None,2021-08-17-10:12:08.289921,209.5877058999613,209.886254100129,209.5877058999613,None,None,209.5877058999613,None,210.38587343026884,None,,,,22001,0001,2021_Aug_17_1008,localizer,2021.1.3,59.9819934220857,
block,faces,faces039.bmp,,,,,0,49,49,49,,,,,,,,,,,,,,,,,,,,,,,,,,,,,,,,,,,,None,,210.38587343026884,None,210.38587343026884,None,2021-08-17-10:12:09.108249,210.42167509999126,210.7356873000972,210.42167509999126,None,None,210.42167509999126,None,211.2024176300969,None,,,,22001,0001,2021_Aug_17_1008,localizer,2021.1.3,59.9819934220857,
block,faces,faces085.bmp,,,,,0,50,50,50,,,,,,,,,,,,,,,,,,,,,,,,,,,,,,,,,,,,None,,211.2024176300969,None,211.2024176300969,None,2021-08-17-10:12:09.921883,211.21242190012708,211.5190607002005,211.21242190012708,None,None,211.21242190012708,None,212.0184233298991,None,,,,22001,0001,2021_Aug_17_1008,localizer,2021.1.3,59.9819934220857,
block,faces,faces073.bmp,,,,,0,51,51,51,,,,,,,,,,,,,,,,,,,,,,,,,,,,,,,,,,,,None,,212.0184233298991,None,212.0184233298991,None,2021-08-17-10:12:10.732842,212.01959480019286,212.31923189992085,212.01959480019286,None,None,212.01959480019286,None,212.81909272992053,None,,,,22001,0001,2021_Aug_17_1008,localizer,2021.1.3,59.9819934220857,
block,faces,faces012.bmp,,,,,0,52,52,52,,,,,,,,,,,,,,,,,,,,,,,,,,,,,,,,,,,,None,,212.81909272992053,None,212.81909272992053,None,2021-08-17-10:12:11.533794,212.82690289989114,213.13567670015618,212.82690289989114,212.82690289989114,None,212.82690289989114,212.82690289989114,213.6356900300365,None,,,,22001,0001,2021_Aug_17_1008,localizer,2021.1.3,59.9819934220857,
block,faces,faces004.bmp,,,,,0,53,53,53,,,,,,,,,,,,,,,,,,,,,,,,,,,,,,,,,,,,None,,213.6356900300365,None,213.6356900300365,None,2021-08-17-10:12:12.350094,213.64936270006,213.95249539986253,213.64936270006,None,None,213.64936270006,None,214.45249163019471,None,,,,22001,0001,2021_Aug_17_1008,localizer,2021.1.3,59.9819934220857,
block,faces,faces043.bmp,,,,,0,54,54,54,,,,,,,,,,,,,,,,,,,,,,,,,,,,,,,,,,,,None,,214.45249163019471,None,214.45249163019471,None,2021-08-17-10:12:13.177010,214.4837819999084,214.78583119995892,214.4837819999084,None,None,214.4837819999084,None,215.26924423021265,None,,,,22001,0001,2021_Aug_17_1008,localizer,2021.1.3,59.9819934220857,
block,faces,faces023.bmp,,,,,0,55,55,55,,,,,,,,,,,,,,,,,,,,,,,,,,,,,,,,,,,,None,,215.26924423021265,None,215.26924423021265,None,2021-08-17-10:12:13.993567,215.2905075000599,215.60201899986714,215.2905075000599,None,None,215.2905075000599,None,216.08588123028167,None,,,,22001,0001,2021_Aug_17_1008,localizer,2021.1.3,59.9819934220857,
block,faces,faces040.bmp,,,,,0,56,56,56,,,,,,,,,,,,,,,,,,,,,,,,,,,,,,,,,,,,None,,216.08588123028167,None,216.08588123028167,None,2021-08-17-10:12:14.808212,216.10647640004754,216.41911800019443,216.10647640004754,None,None,216.10647640004754,None,216.90248122983613,None,,,,22001,0001,2021_Aug_17_1008,localizer,2021.1.3,59.9819934220857,
block,faces,faces063.bmp,,,,,0,57,57,57,,,,,,,,,,,,,,,,,,,,,,,,,,,,,,,,,,,,None,,216.90248122983613,None,216.90248122983613,None,2021-08-17-10:12:15.615874,216.9085544999689,217.21904260013252,216.9085544999689,None,None,216.9085544999689,None,217.7192179298494,None,,,,22001,0001,2021_Aug_17_1008,localizer,2021.1.3,59.9819934220857,
block,faces,faces027.bmp,,,,,0,58,58,58,,,,,,,,,,,,,,,,,,,,,,,,,,,,,,,,,,,,None,,217.7192179298494,None,217.7192179298494,None,2021-08-17-10:12:16.442553,217.74057130003348,218.05250870017335,217.74057130003348,None,None,217.74057130003348,None,218.53595163007267,None,,,,22001,0001,2021_Aug_17_1008,localizer,2021.1.3,59.9819934220857,
block,faces,faces027.bmp,,,,,0,59,59,59,,,,,,,,,,,,,,,,,,,,,,,,,,,,,,,,,,,,None,,218.53595163007267,None,218.53595163007267,None,2021-08-17-10:12:17.253805,218.53653249982744,218.83581550000235,218.53653249982744,None,y,218.53653249982744,None,219.33601633026265,None,0.48619760014116764,,,22001,0001,2021_Aug_17_1008,localizer,2021.1.3,59.9819934220857,
block_end,faces,faces051.bmp,,,,,0,60,60,60,,,,,,,,,,,,,,,,,,,,,,,,,,,,,,,,,,,,None,,219.33601633026265,None,219.33601633026265,None,2021-08-17-10:12:18.062542,219.36746879993007,219.6692079999484,219.36746879993007,219.36746879993007,None,219.36746879993007,219.36746879993007,220.15253353011795,None,,,,22001,0001,2021_Aug_17_1008,localizer,2021.1.3,59.9819934220857,
null_block,null_block,null_block.bmp,,,,,0,61,61,61,,,,,,,,,,,,,,,,,,,,,,,,,,,,,,,,,,,,t,3.6174331000074744,220.15253960015252,None,220.15253960015252,None,2021-08-17-10:12:22.505765,223.7859764302615,None,223.7859764302615,None,None,223.7859764302615,None,223.79273870028555,None,,,,22001,0001,2021_Aug_17_1008,localizer,2021.1.3,59.9819934220857,
block_start,scenes,scenes046.bmp,,,,,0,62,62,62,,,,,,,,,,,,,,,,,,,,,,,,,,,,,,,,,,,,t,12.875780100002885,235.80253530014306,None,235.80253530014306,None,2021-08-17-10:12:47.424699,248.71257330011576,249.01912359986454,248.71257330011576,None,None,248.71257330011576,None,249.51939932988026,None,,,,22001,0001,2021_Aug_17_1008,localizer,2021.1.3,59.9819934220857,
block,scenes,scenes064.bmp,,,,,0,63,63,63,,,,,,,,,,,,,,,,,,,,,,,,,,,,,,,,,,,,None,,249.51939932988026,None,249.51939932988026,None,2021-08-17-10:12:48.232828,249.52459699986503,249.83579450007528,249.52459699986503,None,None,249.52459699986503,None,250.33593793013134,None,,,,22001,0001,2021_Aug_17_1008,localizer,2021.1.3,59.9819934220857,
block,scenes,scenes075.bmp,,,,,0,64,64,64,,,,,,,,,,,,,,,,,,,,,,,,,,,,,,,,,,,,None,,250.33593793013134,None,250.33593793013134,None,2021-08-17-10:12:49.058442,250.37046949984506,250.669480800163,250.37046949984506,None,None,250.37046949984506,None,251.1523810302373,None,,,,22001,0001,2021_Aug_17_1008,localizer,2021.1.3,59.9819934220857,
block,scenes,scenes083.bmp,,,,,0,65,65,65,,,,,,,,,,,,,,,,,,,,,,,,,,,,,,,,,,,,None,,251.1523810302373,None,251.1523810302373,None,2021-08-17-10:12:49.866415,251.15673319995403,251.46926870010793,251.15673319995403,None,None,251.15673319995403,None,251.9695049299393,None,,,,22001,0001,2021_Aug_17_1008,localizer,2021.1.3,59.9819934220857,
block,scenes,scenes015.bmp,,,,,0,66,66,66,,,,,,,,,,,,,,,,,,,,,,,,,,,,,,,,,,,,None,,251.9695049299393,None,251.9695049299393,None,2021-08-17-10:12:50.694042,251.98094979999587,252.28601709986106,251.98094979999587,None,None,251.98094979999587,None,252.78613712997176,None,,,,22001,0001,2021_Aug_17_1008,localizer,2021.1.3,59.9819934220857,
block,scenes,scenes018.bmp,,,,,0,67,67,67,,,,,,,,,,,,,,,,,,,,,,,,,,,,,,,,,,,,None,,252.78613712997176,None,252.78613712997176,None,2021-08-17-10:12:51.509475,252.80225070007145,253.10287699988112,252.80225070007145,None,None,252.80225070007145,None,253.60257543004118,None,,,,22001,0001,2021_Aug_17_1008,localizer,2021.1.3,59.9819934220857,
block,scenes,scenes027.bmp,,,,,0,68,68,68,,,,,,,,,,,,,,,,,,,,,,,,,,,,,,,,,,,,None,,253.60257543004118,None,253.60257543004118,None,2021-08-17-10:12:52.315805,253.60528160026297,253.91931879986078,253.60528160026297,None,None,253.60528160026297,None,254.41958193001338,None,,,,22001,0001,2021_Aug_17_1008,localizer,2021.1.3,59.9819934220857,
block,scenes,scenes041.bmp,,,,,0,69,69,69,,,,,,,,,,,,,,,,,,,,,,,,,,,,,,,,,,,,None,,254.41958193001338,None,254.41958193001338,None,2021-08-17-10:12:53.142133,254.43857990019023,254.7526825000532,254.43857990019023,None,None,254.43857990019023,None,255.2360683300998,None,,,,22001,0001,2021_Aug_17_1008,localizer,2021.1.3,59.9819934220857,
block,scenes,scenes088.bmp,,,,,0,70,70,70,,,,,,,,,,,,,,,,,,,,,,,,,,,,,,,,,,,,None,,255.2360683300998,None,255.2360683300998,None,2021-08-17-10:12:53.959614,255.2574980002828,255.5692758001387,255.2574980002828,None,None,255.2574980002828,None,256.0527395301964,None,,,,22001,0001,2021_Aug_17_1008,localizer,2021.1.3,59.9819934220857,
block,scenes,scenes061.bmp,,,,,0,71,71,71,,,,,,,,,,,,,,,,,,,,,,,,,,,,,,,,,,,,None,,256.0527395301964,None,256.0527395301964,None,2021-08-17-10:12:54.775275,256.0878147999756,256.4029492000118,256.0878147999756,None,None,256.0878147999756,None,256.86950412984004,None,,,,22001,0001,2021_Aug_17_1008,localizer,2021.1.3,59.9819934220857,
block,scenes,scenes019.bmp,,,,,0,72,72,72,,,,,,,,,,,,,,,,,,,,,,,,,,,,,,,,,,,,None,,256.86950412984004,None,256.86950412984004,None,2021-08-17-10:12:55.592038,256.8797583002597,257.18587590008974,256.8797583002597,None,None,256.8797583002597,None,257.6861832298804,None,,,,22001,0001,2021_Aug_17_1008,localizer,2021.1.3,59.9819934220857,
block,scenes,scenes052.bmp,,,,,0,73,73,73,,,,,,,,,,,,,,,,,,,,,,,,,,,,,,,,,,,,None,,257.6861832298804,None,257.6861832298804,None,2021-08-17-10:12:56.410597,257.71498910011724,258.0194316999987,257.71498910011724,None,None,257.71498910011724,None,258.50286872996946,None,,,,22001,0001,2021_Aug_17_1008,localizer,2021.1.3,59.9819934220857,
block,scenes,scenes008.bmp,,,,,0,74,74,74,,,,,,,,,,,,,,,,,,,,,,,,,,,,,,,,,,,,None,,258.50286872996946,None,258.50286872996946,None,2021-08-17-10:12:57.225217,258.5131663000211,258.81934170005843,258.5131663000211,None,None,258.5131663000211,None,259.31929902997797,None,,,,22001,0001,2021_Aug_17_1008,localizer,2021.1.3,59.9819934220857,
block,scenes,scenes009.bmp,,,,,0,75,75,75,,,,,,,,,,,,,,,,,,,,,,,,,,,,,,,,,,,,None,,259.31929902997797,None,259.31929902997797,None,2021-08-17-10:12:58.037693,259.3409279002808,259.65259950002655,259.3409279002808,None,None,259.3409279002808,None,260.1360907301772,None,,,,22001,0001,2021_Aug_17_1008,localizer,2021.1.3,59.9819934220857,
block_end,scenes,scenes092.bmp,,,,,0,76,76,76,,,,,,,,,,,,,,,,,,,,,,,,,,,,,,,,,,,,None,,260.1360907301772,None,260.1360907301772,None,2021-08-17-10:12:58.859431,260.1569595001638,260.4694210998714,260.1569595001638,None,None,260.1569595001638,None,260.95216213013043,None,,,,22001,0001,2021_Aug_17_1008,localizer,2021.1.3,59.9819934220857,
block_start,scrambled,scrambled041.bmp,,,,,0,77,77,77,,,,,,,,,,,,,,,,,,,,,,,,,,,,,,,,,,,,t,13.702020100317895,260.95231069996953,None,260.95231069996953,None,2021-08-17-10:13:13.384841,274.67236390011385,274.98629180015996,274.67236390011385,None,None,274.67236390011385,None,275.4863593302201,None,,,,22001,0001,2021_Aug_17_1008,localizer,2021.1.3,59.9819934220857,
block,scrambled,scrambled027.bmp,,,,,0,78,78,78,,,,,,,,,,,,,,,,,,,,,,,,,,,,,,,,,,,,None,,275.4863593302201,None,275.4863593302201,None,2021-08-17-10:13:14.209613,275.4961186000146,275.80285490024835,275.4961186000146,None,None,275.4961186000146,None,276.3029865299817,None,,,,22001,0001,2021_Aug_17_1008,localizer,2021.1.3,59.9819934220857,
block,scrambled,scrambled044.bmp,,,,,0,79,79,79,,,,,,,,,,,,,,,,,,,,,,,,,,,,,,,,,,,,None,,276.3029865299817,None,276.3029865299817,None,2021-08-17-10:13:15.025527,276.3217684002593,276.63630260014907,276.3217684002593,None,None,276.3217684002593,None,277.1196925298776,None,,,,22001,0001,2021_Aug_17_1008,localizer,2021.1.3,59.9819934220857,
block,scrambled,scrambled031.bmp,,,,,0,80,80,80,,,,,,,,,,,,,,,,,,,,,,,,,,,,,,,,,,,,None,,277.1196925298776,None,277.1196925298776,None,2021-08-17-10:13:15.842244,277.1389314001426,277.45293550007045,277.1389314001426,None,None,277.1389314001426,None,277.93601072984745,None,,,,22001,0001,2021_Aug_17_1008,localizer,2021.1.3,59.9819934220857,
block,scrambled,scrambled022.bmp,,,,,0,81,81,81,,,,,,,,,,,,,,,,,,,,,,,,,,,,,,,,,,,,None,,277.93601072984745,None,277.93601072984745,None,2021-08-17-10:13:16.649450,277.9367424999364,278.2361929998733,277.9367424999364,None,None,277.9367424999364,None,278.7361099299509,None,,,,22001,0001,2021_Aug_17_1008,localizer,2021.1.3,59.9819934220857,
block,scrambled,scrambled060.bmp,,,,,0,82,82,82,,,,,,,,,,,,,,,,,,,,,,,,,,,,,,,,,,,,None,,278.7361099299509,None,278.7361099299509,None,2021-08-17-10:13:17.457662,278.74297619983554,279.05298649985343,278.74297619983554,278.74297619983554,None,278.74297619983554,278.74297619983554,279.55295192995106,None,,,,22001,0001,2021_Aug_17_1008,localizer,2021.1.3,59.9819934220857,
block,scrambled,scrambled068.bmp,,,,,0,83,83,83,,,,,,,,,,,,,,,,,,,,,,,,,,,,,,,,,,,,None,,279.55295192995106,None,279.55295192995106,None,2021-08-17-10:13:18.275346,279.58616029983386,279.88617140008137,279.58616029983386,None,None,279.58616029983386,None,280.36970083029007,None,,,,22001,0001,2021_Aug_17_1008,localizer,2021.1.3,59.9819934220857,
block,scrambled,scrambled082.bmp,,,,,0,84,84,84,,,,,,,,,,,,,,,,,,,,,,,,,,,,,,,,,,,,None,,280.36970083029007,None,280.36970083029007,None,2021-08-17-10:13:19.094110,280.39185310015455,280.70300139999017,280.39185310015455,None,None,280.39185310015455,None,281.1861814300995,None,,,,22001,0001,2021_Aug_17_1008,localizer,2021.1.3,59.9819934220857,
block,scrambled,scrambled087.bmp,,,,,0,85,85,85,,,,,,,,,,,,,,,,,,,,,,,,,,,,,,,,,,,,None,,281.1861814300995,None,281.1861814300995,None,2021-08-17-10:13:19.899620,281.18676410010085,281.48621710017323,281.18676410010085,None,None,281.18676410010085,None,281.9864099299069,None,,,,22001,0001,2021_Aug_17_1008,localizer,2021.1.3,59.9819934220857,
block,scrambled,scrambled067.bmp,,,,,0,86,86,86,,,,,,,,,,,,,,,,,,,,,,,,,,,,,,,,,,,,None,,281.9864099299069,None,281.9864099299069,None,2021-08-17-10:13:20.712815,282.0096682999283,282.3194265002385,282.0096682999283,282.0096682999283,y,282.0096682999283,282.0096682999283,282.8029306301381,None,0.6215710998512805,,,22001,0001,2021_Aug_17_1008,localizer,2021.1.3,59.9819934220857,
block,scrambled,scrambled019.bmp,,,,,0,87,87,87,,,,,,,,,,,,,,,,,,,,,,,,,,,,,,,,,,,,None,,282.8029306301381,None,282.8029306301381,None,2021-08-17-10:13:21.516371,282.8032010002062,283.1030572000891,282.8032010002062,None,None,282.8032010002062,None,283.60309453015213,None,,,,22001,0001,2021_Aug_17_1008,localizer,2021.1.3,59.9819934220857,
block,scrambled,scrambled007.bmp,,,,,0,88,88,88,,,,,,,,,,,,,,,,,,,,,,,,,,,,,,,,,,,,None,,283.60309453015213,None,283.60309453015213,None,2021-08-17-10:13:22.329424,283.6355988001451,283.93635990004987,283.6355988001451,283.6355988001451,None,283.6355988001451,283.6355988001451,284.41939363009294,None,,,,22001,0001,2021_Aug_17_1008,localizer,2021.1.3,59.9819934220857,
block,scrambled,scrambled079.bmp,,,,,0,89,89,89,,,,,,,,,,,,,,,,,,,,,,,,,,,,,,,,,,,,None,,284.41939363009294,None,284.41939363009294,None,2021-08-17-10:13:23.135804,284.43066360009834,284.73634759988636,284.43066360009834,None,None,284.43066360009834,None,285.23608033019116,None,,,,22001,0001,2021_Aug_17_1008,localizer,2021.1.3,59.9819934220857,
block,scrambled,scrambled020.bmp,,,,,0,90,90,90,,,,,,,,,,,,,,,,,,,,,,,,,,,,,,,,,,,,None,,285.23608033019116,None,285.23608033019116,None,2021-08-17-10:13:23.955669,285.2553310999647,285.56966029992327,285.2553310999647,None,None,285.2553310999647,None,286.05305583016013,None,,,,22001,0001,2021_Aug_17_1008,localizer,2021.1.3,59.9819934220857,
block_end,scrambled,scrambled062.bmp,,,,,0,91,91,91,,,,,,,,,,,,,,,,,,,,,,,,,,,,,,,,,,,,None,,286.05305583016013,None,286.05305583016013,None,2021-08-17-10:13:24.777611,286.0641274000518,286.3693367000669,286.0641274000518,None,None,286.0641274000518,None,286.86955413022076,None,,,,22001,0001,2021_Aug_17_1008,localizer,2021.1.3,59.9819934220857,
block_start,faces,faces052.bmp,,,,,0,92,92,92,,,,,,,,,,,,,,,,,,,,,,,,,,,,,,,,,,,,t,12.192952500190586,286.8694386999123,None,286.8694386999123,None,2021-08-17-10:13:37.806797,299.1074323998764,299.4194800001569,299.1074323998764,None,None,299.1074323998764,None,299.90318573019465,None,,,,22001,0001,2021_Aug_17_1008,localizer,2021.1.3,59.9819934220857,
block,faces,faces006.bmp,,,,,0,93,93,93,,,,,,,,,,,,,,,,,,,,,,,,,,,,,,,,,,,,None,,299.90318573019465,None,299.90318573019465,None,2021-08-17-10:13:38.624528,299.9123178999871,300.2197198001668,299.9123178999871,None,None,299.9123178999871,None,300.71955993012523,None,,,,22001,0001,2021_Aug_17_1008,localizer,2021.1.3,59.9819934220857,
block,faces,faces062.bmp,,,,,0,94,94,94,,,,,,,,,,,,,,,,,,,,,,,,,,,,,,,,,,,,None,,300.71955993012523,None,300.71955993012523,None,2021-08-17-10:13:39.433986,300.72664149990305,301.0365192000754,300.72664149990305,None,None,300.72664149990305,None,301.5364523300435,None,,,,22001,0001,2021_Aug_17_1008,localizer,2021.1.3,59.9819934220857,
block,faces,faces057.bmp,,,,,0,95,95,95,,,,,,,,,,,,,,,,,,,,,,,,,,,,,,,,,,,,None,,301.5364523300435,None,301.5364523300435,None,2021-08-17-10:13:40.258959,301.55791520001367,301.86980880005285,301.55791520001367,None,None,301.55791520001367,None,302.35259823021477,None,,,,22001,0001,2021_Aug_17_1008,localizer,2021.1.3,59.9819934220857,
block,faces,faces018.bmp,,,,,0,96,96,96,,,,,,,,,,,,,,,,,,,,,,,,,,,,,,,,,,,,None,,302.35259823021477,None,302.35259823021477,None,2021-08-17-10:13:41.067907,302.3569919001311,302.6697706999257,302.3569919001311,None,None,302.3569919001311,None,303.1698739299085,None,,,,22001,0001,2021_Aug_17_1008,localizer,2021.1.3,59.9819934220857,
block,faces,faces069.bmp,,,,,0,97,97,97,,,,,,,,,,,,,,,,,,,,,,,,,,,,,,,,,,,,None,,303.1698739299085,None,303.1698739299085,None,2021-08-17-10:13:41.894177,303.19330210005865,303.5031527001411,303.19330210005865,None,None,303.19330210005865,None,303.9865702300798,None,,,,22001,0001,2021_Aug_17_1008,localizer,2021.1.3,59.9819934220857,
block,faces,faces045.bmp,,,,,0,98,98,98,,,,,,,,,,,,,,,,,,,,,,,,,,,,,,,,,,,,None,,303.9865702300798,None,303.9865702300798,None,2021-08-17-10:13:42.709722,304.0063602998853,304.3196443002671,304.0063602998853,None,None,304.0063602998853,None,304.80304562984963,None,,,,22001,0001,2021_Aug_17_1008,localizer,2021.1.3,59.9819934220857,
block,faces,faces071.bmp,,,,,0,99,99,99,,,,,,,,,,,,,,,,,,,,,,,,,,,,,,,,,,,,None,,304.80304562984963,None,304.80304562984963,None,2021-08-17-10:13:43.527395,304.8245852002874,305.1364907999523,304.8245852002874,None,None,304.8245852002874,None,305.6199246298987,None,,,,22001,0001,2021_Aug_17_1008,localizer,2021.1.3,59.9819934220857,
block,faces,faces017.bmp,,,,,0,100,100,100,,,,,,,,,,,,,,,,,,,,,,,,,,,,,,,,,,,,None,,305.6199246298987,None,305.6199246298987,None,2021-08-17-10:13:44.343472,305.63941830024123,305.95299170026556,305.63941830024123,None,None,305.63941830024123,None,306.43638503025284,None,,,,22001,0001,2021_Aug_17_1008,localizer,2021.1.3,59.9819934220857,
block,faces,faces061.bmp,,,,,0,101,101,101,,,,,,,,,,,,,,,,,,,,,,,,,,,,,,,,,,,,None,,306.43638503025284,None,306.43638503025284,None,2021-08-17-10:13:45.155239,306.45088390028104,306.75314470008016,306.45088390028104,None,None,306.45088390028104,None,307.25321362991815,None,,,,22001,0001,2021_Aug_17_1008,localizer,2021.1.3,59.9819934220857,
block,faces,faces033.bmp,,,,,0,102,102,102,,,,,,,,,,,,,,,,,,,,,,,,,,,,,,,,,,,,None,,307.25321362991815,None,307.25321362991815,None,2021-08-17-10:13:45.973814,307.27255639992654,307.5865076002665,307.27255639992654,None,None,307.27255639992654,None,308.06986122983506,None,,,,22001,0001,2021_Aug_17_1008,localizer,2021.1.3,59.9819934220857,
block,faces,faces089.bmp,,,,,0,103,103,103,,,,,,,,,,,,,,,,,,,,,,,,,,,,,,,,,,,,None,,308.06986122983506,None,308.06986122983506,None,2021-08-17-10:13:46.793216,308.09073129994795,308.4032523999922,308.09073129994795,None,None,308.09073129994795,None,308.8858423301484,None,,,,22001,0001,2021_Aug_17_1008,localizer,2021.1.3,59.9819934220857,
block,faces,faces035.bmp,,,,,0,104,104,104,,,,,,,,,,,,,,,,,,,,,,,,,,,,,,,,,,,,None,,308.8858423301484,None,308.8858423301484,None,2021-08-17-10:13:47.601186,308.8886444000527,309.2030521002598,308.8886444000527,None,None,308.8886444000527,None,309.7031179301906,None,,,,22001,0001,2021_Aug_17_1008,localizer,2021.1.3,59.9819934220857,
block,faces,faces031.bmp,,,,,0,105,105,105,,,,,,,,,,,,,,,,,,,,,,,,,,,,,,,,,,,,None,,309.7031179301906,None,309.7031179301906,None,2021-08-17-10:13:48.425475,309.7361047999002,310.03635120019317,309.7361047999002,None,None,309.7361047999002,None,310.51968733021056,None,,,,22001,0001,2021_Aug_17_1008,localizer,2021.1.3,59.9819934220857,
block_end,faces,faces027.bmp,,,,,0,106,106,106,,,,,,,,,,,,,,,,,,,,,,,,,,,,,,,,,,,,None,,310.51968733021056,None,310.51968733021056,None,2021-08-17-10:13:49.232999,310.52026619995013,310.81961139990017,310.52026619995013,None,None,310.52026619995013,None,311.3199207301717,None,,,,22001,0001,2021_Aug_17_1008,localizer,2021.1.3,59.9819934220857,
block_start,objects,objects001.bmp,,,,,0,107,107,107,,,,,,,,,,,,,,,,,,,,,,,,,,,,,,,,,,,,t,12.234278499614447,311.3197520999238,None,311.3197520999238,None,2021-08-17-10:14:02.292360,323.58406809996814,323.8866448998451,323.58406809996814,None,None,323.58406809996814,None,324.3866842299234,None,,,,22001,0001,2021_Aug_17_1008,localizer,2021.1.3,59.9819934220857,
block,objects,objects010.bmp,,,,,0,108,108,108,,,,,,,,,,,,,,,,,,,,,,,,,,,,,,,,,,,,None,,324.3866842299234,None,324.3866842299234,None,2021-08-17-10:14:03.111031,324.40744409989566,324.7198819001205,324.40744409989566,None,None,324.40744409989566,None,325.2032110298518,None,,,,22001,0001,2021_Aug_17_1008,localizer,2021.1.3,59.9819934220857,
block,objects,objects014.bmp,,,,,0,109,109,109,,,,,,,,,,,,,,,,,,,,,,,,,,,,,,,,,,,,None,,325.2032110298518,None,325.2032110298518,None,2021-08-17-10:14:03.916910,325.204524199944,325.5031586000696,325.204524199944,None,None,325.204524199944,None,326.01988913011735,None,,,,22001,0001,2021_Aug_17_1008,localizer,2021.1.3,59.9819934220857,
block,objects,objects076.bmp,,,,,0,110,110,110,,,,,,,,,,,,,,,,,,,,,,,,,,,,,,,,,,,,None,,326.01988913011735,None,326.01988913011735,None,2021-08-17-10:14:04.739326,326.025027600117,326.3364563998766,326.025027600117,None,None,326.025027600117,None,326.83659653025677,None,,,,22001,0001,2021_Aug_17_1008,localizer,2021.1.3,59.9819934220857,
block,objects,objects055.bmp,,,,,0,111,111,111,,,,,,,,,,,,,,,,,,,,,,,,,,,,,,,,,,,,None,,326.83659653025677,None,326.83659653025677,None,2021-08-17-10:14:05.549371,326.83724710019305,327.1365958000533,326.83724710019305,None,None,326.83724710019305,None,327.63660423024555,None,,,,22001,0001,2021_Aug_17_1008,localizer,2021.1.3,59.9819934220857,
block,objects,objects030.bmp,,,,,0,112,112,112,,,,,,,,,,,,,,,,,,,,,,,,,,,,,,,,,,,,None,,327.63660423024555,None,327.63660423024555,None,2021-08-17-10:14:06.361968,327.67279470013455,327.9865532000549,327.67279470013455,327.67279470013455,None,327.67279470013455,327.67279470013455,328.45306343012487,None,,,,22001,0001,2021_Aug_17_1008,localizer,2021.1.3,59.9819934220857,
block,objects,objects085.bmp,,,,,0,113,113,113,,,,,,,,,,,,,,,,,,,,,,,,,,,,,,,,,,,,None,,328.45306343012487,None,328.45306343012487,None,2021-08-17-10:14:07.167512,328.462537500076,328.76998879993334,328.462537500076,None,None,328.462537500076,None,329.26942033027296,None,,,,22001,0001,2021_Aug_17_1008,localizer,2021.1.3,59.9819934220857,
block,objects,objects038.bmp,,,,,0,114,114,114,,,,,,,,,,,,,,,,,,,,,,,,,,,,,,,,,,,,None,,329.26942033027296,None,329.26942033027296,None,2021-08-17-10:14:07.983162,329.27041799994186,329.56978180026636,329.27041799994186,None,None,329.27041799994186,None,330.0699150300119,None,,,,22001,0001,2021_Aug_17_1008,localizer,2021.1.3,59.9819934220857,
block,objects,objects026.bmp,,,,,0,115,115,115,,,,,,,,,,,,,,,,,,,,,,,,,,,,,,,,,,,,None,,330.0699150300119,None,330.0699150300119,None,2021-08-17-10:14:08.793272,330.0933007001877,330.40333640016615,330.0933007001877,330.0933007001877,None,330.0933007001877,330.0933007001877,330.88632422997614,None,,,,22001,0001,2021_Aug_17_1008,localizer,2021.1.3,59.9819934220857,
block,objects,objects061.bmp,,,,,0,116,116,116,,,,,,,,,,,,,,,,,,,,,,,,,,,,,,,,,,,,None,,330.88632422997614,None,330.88632422997614,None,2021-08-17-10:14:09.599551,330.88837729999796,331.2033156999387,330.88837729999796,None,None,330.88837729999796,None,331.7034168302547,None,,,,22001,0001,2021_Aug_17_1008,localizer,2021.1.3,59.9819934220857,
block,objects,objects048.bmp,,,,,0,117,117,117,,,,,,,,,,,,,,,,,,,,,,,,,,,,,,,,,,,,None,,331.7034168302547,None,331.7034168302547,None,2021-08-17-10:14:10.424968,331.71733550028875,332.0193441999145,331.71733550028875,None,None,331.71733550028875,None,332.51995563027447,None,,,,22001,0001,2021_Aug_17_1008,localizer,2021.1.3,59.9819934220857,
block,objects,objects077.bmp,,,,,0,118,118,118,,,,,,,,,,,,,,,,,,,,,,,,,,,,,,,,,,,,None,,332.51995563027447,None,332.51995563027447,None,2021-08-17-10:14:11.239392,332.5480626001954,332.8533316999674,332.5480626001954,None,None,332.5480626001954,None,333.3365542300511,None,,,,22001,0001,2021_Aug_17_1008,localizer,2021.1.3,59.9819934220857,
block,objects,objects077.bmp,,,,,0,119,119,119,,,,,,,,,,,,,,,,,,,,,,,,,,,,,,,,,,,,None,,333.3365542300511,None,333.3365542300511,None,2021-08-17-10:14:12.056153,333.3439509002492,333.6533722002059,333.3439509002492,None,None,333.3439509002492,None,334.15342213013207,None,,,,22001,0001,2021_Aug_17_1008,localizer,2021.1.3,59.9819934220857,
block,objects,objects009.bmp,,,,,0,120,120,120,,,,,,,,,,,,,,,,,,,,,,,,,,,,,,,,,,,,None,,334.15342213013207,None,334.15342213013207,None,2021-08-17-10:14:12.874994,334.18302359990776,334.4866839000024,334.18302359990776,None,None,334.18302359990776,None,334.97003953005185,None,,,,22001,0001,2021_Aug_17_1008,localizer,2021.1.3,59.9819934220857,
block_end,objects,objects008.bmp,,,,,0,121,121,121,,,,,,,,,,,,,,,,,,,,,,,,,,,,,,,,,,,,None,,334.97003953005185,None,334.97003953005185,None,2021-08-17-10:14:13.691406,334.9842437002808,335.28647249983624,334.9842437002808,None,None,334.9842437002808,None,335.7867802300956,None,,,,22001,0001,2021_Aug_17_1008,localizer,2021.1.3,59.9819934220857,
block_start,scrambled,scrambled051.bmp,,,,,0,122,122,122,,,,,,,,,,,,,,,,,,,,,,,,,,,,,,,,,,,,t,11.80203799996525,335.78652840014547,None,335.78652840014547,None,2021-08-17-10:14:26.338470,347.6301545999013,347.9367257999256,347.6301545999013,None,None,347.6301545999013,None,348.43672922984695,None,,,,22001,0001,2021_Aug_17_1008,localizer,2021.1.3,59.9819934220857,
block,scrambled,scrambled059.bmp,,,,,0,123,123,123,,,,,,,,,,,,,,,,,,,,,,,,,,,,,,,,,,,,None,,348.43672922984695,None,348.43672922984695,None,2021-08-17-10:14:27.157310,348.4541654000059,348.75325830001384,348.4541654000059,None,None,348.4541654000059,None,349.253413230041,None,,,,22001,0001,2021_Aug_17_1008,localizer,2021.1.3,59.9819934220857,
block,scrambled,scrambled059.bmp,,,,,0,124,124,124,,,,,,,,,,,,,,,,,,,,,,,,,,,,,,,,,,,,None,,349.253413230041,None,349.253413230041,None,2021-08-17-10:14:27.973839,349.2598441001028,349.5701196002774,349.2598441001028,None,y,349.2598441001028,None,350.06995912999844,None,0.6957590002566576,,,22001,0001,2021_Aug_17_1008,localizer,2021.1.3,59.9819934220857,
block,scrambled,scrambled025.bmp,,,,,0,125,125,125,,,,,,,,,,,,,,,,,,,,,,,,,,,,,,,,,,,,None,,350.06995912999844,None,350.06995912999844,None,2021-08-17-10:14:28.786390,350.08188650012016,350.3869725000113,350.08188650012016,None,None,350.08188650012016,None,350.8865387298632,None,,,,22001,0001,2021_Aug_17_1008,localizer,2021.1.3,59.9819934220857,
block,scrambled,scrambled078.bmp,,,,,0,126,126,126,,,,,,,,,,,,,,,,,,,,,,,,,,,,,,,,,,,,None,,350.8865387298632,None,350.8865387298632,None,2021-08-17-10:14:29.600057,350.89268950000405,351.2033680002205,350.89268950000405,None,None,350.89268950000405,None,351.7033562300261,None,,,,22001,0001,2021_Aug_17_1008,localizer,2021.1.3,59.9819934220857,
block,scrambled,scrambled070.bmp,,,,,0,127,127,127,,,,,,,,,,,,,,,,,,,,,,,,,,,,,,,,,,,,None,,351.7033562300261,None,351.7033562300261,None,2021-08-17-10:14:30.415738,351.70371120003983,352.00342050008476,351.70371120003983,None,None,351.70371120003983,None,352.50362873016854,None,,,,22001,0001,2021_Aug_17_1008,localizer,2021.1.3,59.9819934220857,
block,scrambled,scrambled055.bmp,,,,,0,128,128,128,,,,,,,,,,,,,,,,,,,,,,,,,,,,,,,,,,,,None,,352.50362873016854,None,352.50362873016854,None,2021-08-17-10:14:31.227006,352.5234917998314,352.83623650018126,352.5234917998314,352.5234917998314,None,352.5234917998314,352.5234917998314,353.32002793005665,None,,,,22001,0001,2021_Aug_17_1008,localizer,2021.1.3,59.9819934220857,
block,scrambled,scrambled020.bmp,,,,,0,129,129,129,,,,,,,,,,,,,,,,,,,,,,,,,,,,,,,,,,,,None,,353.32002793005665,None,353.32002793005665,None,2021-08-17-10:14:32.040496,353.3260157001205,353.6367509001866,353.3260157001205,None,None,353.3260157001205,None,354.1368428299669,None,,,,22001,0001,2021_Aug_17_1008,localizer,2021.1.3,59.9819934220857,
block,scrambled,scrambled084.bmp,,,,,0,130,130,130,,,,,,,,,,,,,,,,,,,,,,,,,,,,,,,,,,,,None,,354.1368428299669,None,354.1368428299669,None,2021-08-17-10:14:32.859410,354.17137200012803,354.47021540021524,354.17137200012803,None,None,354.17137200012803,None,354.95352342990225,None,,,,22001,0001,2021_Aug_17_1008,localizer,2021.1.3,59.9819934220857,
block,scrambled,scrambled072.bmp,,,,,0,131,131,131,,,,,,,,,,,,,,,,,,,,,,,,,,,,,,,,,,,,None,,354.95352342990225,None,354.95352342990225,None,2021-08-17-10:14:33.674116,354.96119529986754,355.2700040000491,354.96119529986754,None,None,354.96119529986754,None,355.77005392997523,None,,,,22001,0001,2021_Aug_17_1008,localizer,2021.1.3,59.9819934220857,
block,scrambled,scrambled044.bmp,,,,,0,132,132,132,,,,,,,,,,,,,,,,,,,,,,,,,,,,,,,,,,,,None,,355.77005392997523,None,355.77005392997523,None,2021-08-17-10:14:34.487476,355.77076040022075,356.0700648999773,355.77076040022075,None,None,355.77076040022075,None,356.57014803015625,None,,,,22001,0001,2021_Aug_17_1008,localizer,2021.1.3,59.9819934220857,
block,scrambled,scrambled026.bmp,,,,,0,133,133,133,,,,,,,,,,,,,,,,,,,,,,,,,,,,,,,,,,,,None,,356.57014803015625,None,356.57014803015625,None,2021-08-17-10:14:35.293708,356.59791130013764,356.90342260012403,356.59791130013764,356.59791130013764,None,356.59791130013764,356.59791130013764,357.3869257302489,None,,,,22001,0001,2021_Aug_17_1008,localizer,2021.1.3,59.9819934220857,
block,scrambled,scrambled014.bmp,,,,,0,134,134,134,,,,,,,,,,,,,,,,,,,,,,,,,,,,,,,,,,,,None,,357.3869257302489,None,357.3869257302489,None,2021-08-17-10:14:36.108289,357.40828850027174,357.7202063999139,357.40828850027174,None,None,357.40828850027174,None,358.2032899301033,None,,,,22001,0001,2021_Aug_17_1008,localizer,2021.1.3,59.9819934220857,
block,scrambled,scrambled076.bmp,,,,,0,135,135,135,,,,,,,,,,,,,,,,,,,,,,,,,,,,,,,,,,,,None,,358.2032899301033,None,358.2032899301033,None,2021-08-17-10:14:36.918732,358.2101730001159,358.52018660027534,358.2101730001159,None,None,358.2101730001159,None,359.0201558301691,None,,,,22001,0001,2021_Aug_17_1008,localizer,2021.1.3,59.9819934220857,
block_end,scrambled,scrambled006.bmp,,,,,0,136,136,136,,,,,,,,,,,,,,,,,,,,,,,,,,,,,,,,,,,,None,,359.0201558301691,None,359.0201558301691,None,2021-08-17-10:14:37.742728,359.0289990999736,359.33668689988554,359.0289990999736,None,None,359.0289990999736,None,359.8368329301942,None,,,,22001,0001,2021_Aug_17_1008,localizer,2021.1.3,59.9819934220857,
block_start,scenes,scenes028.bmp,,,,,0,137,137,137,,,,,,,,,,,,,,,,,,,,,,,,,,,,,,,,,,,,t,8.056905100122094,359.83687790017575,None,359.83687790017575,None,2021-08-17-10:14:46.638576,367.9510735999793,368.2535684001632,367.9510735999793,None,None,367.9510735999793,None,368.7367241302039,None,,,,22001,0001,2021_Aug_17_1008,localizer,2021.1.3,59.9819934220857,
block,scenes,scenes017.bmp,,,,,0,138,138,138,,,,,,,,,,,,,,,,,,,,,,,,,,,,,,,,,,,,None,,368.7367241302039,None,368.7367241302039,None,2021-08-17-10:14:47.453158,368.7440299000591,369.0536436000839,368.7440299000591,None,None,368.7440299000591,None,369.55335593023335,None,,,,22001,0001,2021_Aug_17_1008,localizer,2021.1.3,59.9819934220857,
block,scenes,scenes090.bmp,,,,,0,139,139,139,,,,,,,,,,,,,,,,,,,,,,,,,,,,,,,,,,,,None,,369.55335593023335,None,369.55335593023335,None,2021-08-17-10:14:48.265826,369.5540848001838,369.8534451001324,369.5540848001838,None,None,369.5540848001838,None,370.35356223010456,None,,,,22001,0001,2021_Aug_17_1008,localizer,2021.1.3,59.9819934220857,
block,scenes,scenes058.bmp,,,,,0,140,140,140,,,,,,,,,,,,,,,,,,,,,,,,,,,,,,,,,,,,None,,370.35356223010456,None,370.35356223010456,None,2021-08-17-10:14:49.076584,370.37504180008546,370.68637500004843,370.37504180008546,370.37504180008546,None,370.37504180008546,370.37504180008546,371.1701628298964,None,,,,22001,0001,2021_Aug_17_1008,localizer,2021.1.3,59.9819934220857,
block,scenes,scenes022.bmp,,,,,0,141,141,141,,,,,,,,,,,,,,,,,,,,,,,,,,,,,,,,,,,,None,,371.1701628298964,None,371.1701628298964,None,2021-08-17-10:14:49.882910,371.17083580000326,371.47028960008174,371.17083580000326,None,None,371.17083580000326,None,371.9702862299513,None,,,,22001,0001,2021_Aug_17_1008,localizer,2021.1.3,59.9819934220857,
block,scenes,scenes067.bmp,,,,,0,142,142,142,,,,,,,,,,,,,,,,,,,,,,,,,,,,,,,,,,,,None,,371.9702862299513,None,371.9702862299513,None,2021-08-17-10:14:50.684032,371.97191329998896,372.2868491001427,371.97191329998896,371.97191329998896,None,371.97191329998896,371.97191329998896,372.78701102999037,None,,,,22001,0001,2021_Aug_17_1008,localizer,2021.1.3,59.9819934220857,
block,scenes,scenes089.bmp,,,,,0,143,143,143,,,,,,,,,,,,,,,,,,,,,,,,,,,,,,,,,,,,None,,372.78701102999037,None,372.78701102999037,None,2021-08-17-10:14:51.508423,372.8019162998535,373.10313520021737,372.8019162998535,None,None,372.8019162998535,None,373.6037344302516,None,,,,22001,0001,2021_Aug_17_1008,localizer,2021.1.3,59.9819934220857,
block,scenes,scenes084.bmp,,,,,0,144,144,144,,,,,,,,,,,,,,,,,,,,,,,,,,,,,,,,,,,,None,,373.6037344302516,None,373.6037344302516,None,2021-08-17-10:14:52.326190,373.6133083002642,373.9202963998541,373.6133083002642,None,None,373.6133083002642,None,374.4202532301191,None,,,,22001,0001,2021_Aug_17_1008,localizer,2021.1.3,59.9819934220857,
block,scenes,scenes087.bmp,,,,,0,145,145,145,,,,,,,,,,,,,,,,,,,,,,,,,,,,,,,,,,,,None,,374.4202532301191,None,374.4202532301191,None,2021-08-17-10:14:53.141831,374.42755099991336,374.7368208998814,374.42755099991336,None,None,374.42755099991336,None,375.23688122988676,None,,,,22001,0001,2021_Aug_17_1008,localizer,2021.1.3,59.9819934220857,
block,scenes,scenes042.bmp,,,,,0,146,146,146,,,,,,,,,,,,,,,,,,,,,,,,,,,,,,,,,,,,None,,375.23688122988676,None,375.23688122988676,None,2021-08-17-10:14:53.957471,375.25043540028855,375.55367729999125,375.25043540028855,None,None,375.25043540028855,None,376.0534329301212,None,,,,22001,0001,2021_Aug_17_1008,localizer,2021.1.3,59.9819934220857,
block,scenes,scenes008.bmp,,,,,0,147,147,147,,,,,,,,,,,,,,,,,,,,,,,,,,,,,,,,,,,,None,,376.0534329301212,None,376.0534329301212,None,2021-08-17-10:14:54.765902,376.0540638999082,376.3535708002746,376.0540638999082,None,None,376.0540638999082,None,376.8536177299451,None,,,,22001,0001,2021_Aug_17_1008,localizer,2021.1.3,59.9819934220857,
block,scenes,scenes018.bmp,,,,,0,148,148,148,,,,,,,,,,,,,,,,,,,,,,,,,,,,,,,,,,,,None,,376.8536177299451,None,376.8536177299451,None,2021-08-17-10:14:55.569966,376.85410080011934,377.15364840021357,376.85410080011934,376.85410080011934,None,376.85410080011934,376.85410080011934,377.6536873302888,None,,,,22001,0001,2021_Aug_17_1008,localizer,2021.1.3,59.9819934220857,
block,scenes,scenes039.bmp,,,,,0,149,149,149,,,,,,,,,,,,,,,,,,,,,,,,,,,,,,,,,,,,None,,377.6536873302888,None,377.6536873302888,None,2021-08-17-10:14:56.377053,377.6740295998752,377.98706459999084,377.6740295998752,377.6740295998752,None,377.6740295998752,377.6740295998752,378.47021003006955,None,,,,22001,0001,2021_Aug_17_1008,localizer,2021.1.3,59.9819934220857,
block,scenes,scenes073.bmp,,,,,0,150,150,150,,,,,,,,,,,,,,,,,,,,,,,,,,,,,,,,,,,,None,,378.47021003006955,None,378.47021003006955,None,2021-08-17-10:14:57.182929,378.47140449984,378.77012500027195,378.47140449984,None,None,378.47140449984,None,379.2870693298522,None,,,,22001,0001,2021_Aug_17_1008,localizer,2021.1.3,59.9819934220857,
block_end,scenes,scenes034.bmp,,,,,0,151,151,151,,,,,,,,,,,,,,,,,,,,,,,,,,,,,,,,,,,,None,,379.2870693298522,None,379.2870693298522,None,2021-08-17-10:14:58.008634,379.3058976000175,379.6202028999105,379.3058976000175,None,None,379.3058976000175,None,380.1036732302513,None,,,,22001,0001,2021_Aug_17_1008,localizer,2021.1.3,59.9819934220857,
null_block,null_block,null_block.bmp,,,,,0,152,152,152,,,,,,,,,,,,,,,,,,,,,,,,,,,,,,,,,,,,t,12.388809700030833,380.10328220017254,None,380.10328220017254,None,2021-08-17-10:15:11.240928,392.5203461301047,None,392.5203461301047,None,None,392.5203461301047,None,392.5246653999202,None,,,,22001,0001,2021_Aug_17_1008,localizer,2021.1.3,59.9819934220857,
block_start,faces,faces001.bmp,,,,,0,153,153,153,,,,,,,,,,,,,,,,,,,,,,,,,,,,,,,,,,,,t,12.634290299843997,404.53716639988124,None,404.53716639988124,None,2021-08-17-10:15:35.907875,417.19607720011845,417.50368470000103,417.19607720011845,None,None,417.19607720011845,None,418.00393143002873,None,,,,22001,0001,2021_Aug_17_1008,localizer,2021.1.3,59.9819934220857,
block,faces,faces060.bmp,,,,,0,154,154,154,,,,,,,,,,,,,,,,,,,,,,,,,,,,,,,,,,,,None,,418.00393143002873,None,418.00393143002873,None,2021-08-17-10:15:36.722334,418.01265730010346,418.3203867999837,418.01265730010346,None,None,418.01265730010346,None,418.82054333002304,None,,,,22001,0001,2021_Aug_17_1008,localizer,2021.1.3,59.9819934220857,
block,faces,faces058.bmp,,,,,0,155,155,155,,,,,,,,,,,,,,,,,,,,,,,,,,,,,,,,,,,,None,,418.82054333002304,None,418.82054333002304,None,2021-08-17-10:15:37.542919,418.8405983000994,419.15389630012214,418.8405983000994,None,None,418.8405983000994,None,419.637264330266,None,,,,22001,0001,2021_Aug_17_1008,localizer,2021.1.3,59.9819934220857,
block,faces,faces039.bmp,,,,,0,156,156,156,,,,,,,,,,,,,,,,,,,,,,,,,,,,,,,,,,,,None,,419.637264330266,None,419.637264330266,None,2021-08-17-10:15:38.357866,419.6439586998895,419.953807100188,419.6439586998895,None,None,419.6439586998895,None,420.453845530143,None,,,,22001,0001,2021_Aug_17_1008,localizer,2021.1.3,59.9819934220857,
block,faces,faces043.bmp,,,,,0,157,157,157,,,,,,,,,,,,,,,,,,,,,,,,,,,,,,,,,,,,None,,420.453845530143,None,420.453845530143,None,2021-08-17-10:15:39.166324,420.4546588002704,420.7537396000698,420.4546588002704,None,None,420.4546588002704,None,421.2540147298481,None,,,,22001,0001,2021_Aug_17_1008,localizer,2021.1.3,59.9819934220857,
block,faces,faces037.bmp,,,,,0,158,158,158,,,,,,,,,,,,,,,,,,,,,,,,,,,,,,,,,,,,None,,421.2540147298481,None,421.2540147298481,None,2021-08-17-10:15:39.978387,421.27391090011224,421.5873528998345,421.27391090011224,421.27391090011224,None,421.27391090011224,421.27391090011224,422.07075312999075,None,,,,22001,0001,2021_Aug_17_1008,localizer,2021.1.3,59.9819934220857,
block,faces,faces089.bmp,,,,,0,159,159,159,,,,,,,,,,,,,,,,,,,,,,,,,,,,,,,,,,,,None,,422.07075312999075,None,422.07075312999075,None,2021-08-17-10:15:40.793079,422.0794468000531,422.3873745999299,422.0794468000531,None,None,422.0794468000531,None,422.8874175300356,None,,,,22001,0001,2021_Aug_17_1008,localizer,2021.1.3,59.9819934220857,
block,faces,faces061.bmp,,,,,0,160,160,160,,,,,,,,,,,,,,,,,,,,,,,,,,,,,,,,,,,,None,,422.8874175300356,None,422.8874175300356,None,2021-08-17-10:15:41.609004,422.896149400156,423.2039232002571,422.896149400156,None,None,422.896149400156,None,423.7040454301517,None,,,,22001,0001,2021_Aug_17_1008,localizer,2021.1.3,59.9819934220857,
block,faces,faces042.bmp,,,,,0,161,161,161,,,,,,,,,,,,,,,,,,,,,,,,,,,,,,,,,,,,None,,423.7040454301517,None,423.7040454301517,None,2021-08-17-10:15:42.426632,423.72459289990366,424.0371489999816,423.72459289990366,None,None,423.72459289990366,None,424.5205484301317,None,,,,22001,0001,2021_Aug_17_1008,localizer,2021.1.3,59.9819934220857,
block,faces,faces019.bmp,,,,,0,162,162,162,,,,,,,,,,,,,,,,,,,,,,,,,,,,,,,,,,,,None,,424.5205484301317,None,424.5205484301317,None,2021-08-17-10:15:43.235980,424.5337443999015,424.8373350999318,424.5337443999015,None,None,424.5337443999015,None,425.3373428302351,None,,,,22001,0001,2021_Aug_17_1008,localizer,2021.1.3,59.9819934220857,
block,faces,faces080.bmp,,,,,0,163,163,163,,,,,,,,,,,,,,,,,,,,,,,,,,,,,,,,,,,,None,,425.3373428302351,None,425.3373428302351,None,2021-08-17-10:15:44.059720,425.37639949982986,425.6872765002772,425.37639949982986,None,None,425.37639949982986,None,426.1539470300544,None,,,,22001,0001,2021_Aug_17_1008,localizer,2021.1.3,59.9819934220857,
block,faces,faces053.bmp,,,,,0,164,164,164,,,,,,,,,,,,,,,,,,,,,,,,,,,,,,,,,,,,None,,426.1539470300544,None,426.1539470300544,None,2021-08-17-10:15:44.878330,426.1757733002305,426.48738310020417,426.1757733002305,None,None,426.1757733002305,None,426.9705582301598,None,,,,22001,0001,2021_Aug_17_1008,localizer,2021.1.3,59.9819934220857,
block,faces,faces032.bmp,,,,,0,165,165,165,,,,,,,,,,,,,,,,,,,,,,,,,,,,,,,,,,,,None,,426.9705582301598,None,426.9705582301598,None,2021-08-17-10:15:45.683969,426.9711827998981,427.2705056001432,426.9711827998981,None,None,426.9711827998981,None,427.770724130189,None,,,,22001,0001,2021_Aug_17_1008,localizer,2021.1.3,59.9819934220857,
block,faces,faces063.bmp,,,,,0,166,166,166,,,,,,,,,,,,,,,,,,,,,,,,,,,,,,,,,,,,None,,427.770724130189,None,427.770724130189,None,2021-08-17-10:15:46.496088,427.78270490001887,428.0873336000368,427.78270490001887,427.78270490001887,None,427.78270490001887,427.78270490001887,428.58744803010484,None,,,,22001,0001,2021_Aug_17_1008,localizer,2021.1.3,59.9819934220857,
block_end,faces,faces049.bmp,,,,,0,167,167,167,,,,,,,,,,,,,,,,,,,,,,,,,,,,,,,,,,,,None,,428.58744803010484,None,428.58744803010484,None,2021-08-17-10:15:47.311499,428.59844439988956,428.90393349993974,428.59844439988956,None,None,428.59844439988956,None,429.4038489301223,None,,,,22001,0001,2021_Aug_17_1008,localizer,2021.1.3,59.9819934220857,
block_start,objects,objects015.bmp,,,,,0,168,168,168,,,,,,,,,,,,,,,,,,,,,,,,,,,,,,,,,,,,t,25.512852299958467,429.403812199831,None,429.403812199831,None,2021-08-17-10:16:13.660122,454.95160990022123,455.2541831000708,454.95160990022123,None,None,454.95160990022123,None,455.75410782997494,None,,,,22001,0001,2021_Aug_17_1008,localizer,2021.1.3,59.9819934220857,
block,objects,objects020.bmp,,,,,0,169,169,169,,,,,,,,,,,,,,,,,,,,,,,,,,,,,,,,,,,,None,,455.75410782997494,None,455.75410782997494,None,2021-08-17-10:16:14.473755,455.77010500011966,456.0707906000316,455.77010500011966,None,None,455.77010500011966,None,456.5700742302928,None,,,,22001,0001,2021_Aug_17_1008,localizer,2021.1.3,59.9819934220857,
block,objects,objects023.bmp,,,,,0,170,170,170,,,,,,,,,,,,,,,,,,,,,,,,,,,,,,,,,,,,None,,456.5700742302928,None,456.5700742302928,None,2021-08-17-10:16:15.283892,456.5714771999046,456.87084610015154,456.5714771999046,None,None,456.5714771999046,None,457.3707290299702,None,,,,22001,0001,2021_Aug_17_1008,localizer,2021.1.3,59.9819934220857,
block,objects,objects049.bmp,,,,,0,171,171,171,,,,,,,,,,,,,,,,,,,,,,,,,,,,,,,,,,,,None,,457.3707290299702,None,457.3707290299702,None,2021-08-17-10:16:16.094845,457.3913559000939,457.70416040020064,457.3913559000939,457.3913559000939,None,457.3913559000939,457.3913559000939,458.1876383301336,None,,,,22001,0001,2021_Aug_17_1008,localizer,2021.1.3,59.9819934220857,
block,objects,objects038.bmp,,,,,0,172,172,172,,,,,,,,,,,,,,,,,,,,,,,,,,,,,,,,,,,,None,,458.1876383301336,None,458.1876383301336,None,2021-08-17-10:16:16.911234,458.1979498998262,458.50418419996276,458.1979498998262,None,None,458.1979498998262,None,459.00387263004666,None,,,,22001,0001,2021_Aug_17_1008,localizer,2021.1.3,59.9819934220857,
block,objects,objects027.bmp,,,,,0,173,173,173,,,,,,,,,,,,,,,,,,,,,,,,,,,,,,,,,,,,None,,459.00387263004666,None,459.00387263004666,None,2021-08-17-10:16:17.717351,459.00477370014414,459.3041957002133,459.00477370014414,None,None,459.00477370014414,None,459.8041696300264,None,,,,22001,0001,2021_Aug_17_1008,localizer,2021.1.3,59.9819934220857,
block,objects,objects083.bmp,,,,,0,174,174,174,,,,,,,,,,,,,,,,,,,,,,,,,,,,,,,,,,,,None,,459.8041696300264,None,459.8041696300264,None,2021-08-17-10:16:18.529543,459.8276539002545,460.13715919991955,459.8276539002545,459.8276539002545,None,459.8276539002545,459.8276539002545,460.6209212302696,None,,,,22001,0001,2021_Aug_17_1008,localizer,2021.1.3,59.9819934220857,
block,objects,objects088.bmp,,,,,0,175,175,175,,,,,,,,,,,,,,,,,,,,,,,,,,,,,,,,,,,,None,,460.6209212302696,None,460.6209212302696,None,2021-08-17-10:16:19.344303,460.6309167002328,460.937594700139,460.6309167002328,None,None,460.6309167002328,None,461.4373788301367,None,,,,22001,0001,2021_Aug_17_1008,localizer,2021.1.3,59.9819934220857,
block,objects,objects055.bmp,,,,,0,176,176,176,,,,,,,,,,,,,,,,,,,,,,,,,,,,,,,,,,,,None,,461.4373788301367,None,461.4373788301367,None,2021-08-17-10:16:20.154569,461.4392667999491,461.75429400010034,461.4392667999491,None,None,461.4392667999491,None,462.25409133019855,None,,,,22001,0001,2021_Aug_17_1008,localizer,2021.1.3,59.9819934220857,
block,objects,objects041.bmp,,,,,0,177,177,177,,,,,,,,,,,,,,,,,,,,,,,,,,,,,,,,,,,,None,,462.25409133019855,None,462.25409133019855,None,2021-08-17-10:16:20.967881,462.25949370022863,462.57093789987266,462.25949370022863,None,None,462.25949370022863,None,463.07097333003765,None,,,,22001,0001,2021_Aug_17_1008,localizer,2021.1.3,59.9819934220857,
block,objects,objects069.bmp,,,,,0,178,178,178,,,,,,,,,,,,,,,,,,,,,,,,,,,,,,,,,,,,None,,463.07097333003765,None,463.07097333003765,None,2021-08-17-10:16:21.794421,463.08691299986094,463.3874218002893,463.08691299986094,None,None,463.08691299986094,None,463.88775002988984,None,,,,22001,0001,2021_Aug_17_1008,localizer,2021.1.3,59.9819934220857,
block,objects,objects062.bmp,,,,,0,179,179,179,,,,,,,,,,,,,,,,,,,,,,,,,,,,,,,,,,,,None,,463.88775002988984,None,463.88775002988984,None,2021-08-17-10:16:22.611333,463.9206011998467,464.22087970003486,463.9206011998467,None,None,463.9206011998467,None,464.7039522299077,None,,,,22001,0001,2021_Aug_17_1008,localizer,2021.1.3,59.9819934220857,
block,objects,objects029.bmp,,,,,0,180,180,180,,,,,,,,,,,,,,,,,,,,,,,,,,,,,,,,,,,,None,,464.7039522299077,None,464.7039522299077,None,2021-08-17-10:16:23.419411,464.71391970012337,465.0207298002206,464.71391970012337,None,None,464.71391970012337,None,465.52093252991324,None,,,,22001,0001,2021_Aug_17_1008,localizer,2021.1.3,59.9819934220857,
block,objects,objects066.bmp,,,,,0,181,181,181,,,,,,,,,,,,,,,,,,,,,,,,,,,,,,,,,,,,None,,465.52093252991324,None,465.52093252991324,None,2021-08-17-10:16:24.242506,465.53112420020625,465.8374552000314,465.53112420020625,None,None,465.53112420020625,None,466.3376349302474,None,,,,22001,0001,2021_Aug_17_1008,localizer,2021.1.3,59.9819934220857,
block_end,objects,objects040.bmp,,,,,0,182,182,182,,,,,,,,,,,,,,,,,,,,,,,,,,,,,,,,,,,,None,,466.3376349302474,None,466.3376349302474,None,2021-08-17-10:16:25.061539,466.3480302998796,466.6542584998533,466.3480302998796,None,None,466.3480302998796,None,467.1543280299287,None,,,,22001,0001,2021_Aug_17_1008,localizer,2021.1.3,59.9819934220857,
block_start,scrambled,scrambled051.bmp,,,,,0,183,183,183,,,,,,,,,,,,,,,,,,,,,,,,,,,,,,,,,,,,t,25.5359589997679,467.1543168001808,None,467.1543168001808,None,2021-08-17-10:16:51.443744,492.72600510017946,493.0376234999858,492.72600510017946,None,None,492.72600510017946,None,493.53765093008985,None,,,,22001,0001,2021_Aug_17_1008,localizer,2021.1.3,59.9819934220857,
block,scrambled,scrambled083.bmp,,,,,0,184,184,184,,,,,,,,,,,,,,,,,,,,,,,,,,,,,,,,,,,,None,,493.53765093008985,None,493.53765093008985,None,2021-08-17-10:16:52.255072,493.5549337998964,493.8545065000653,493.5549337998964,None,None,493.5549337998964,None,494.3544534299057,None,,,,22001,0001,2021_Aug_17_1008,localizer,2021.1.3,59.9819934220857,
block,scrambled,scrambled054.bmp,,,,,0,185,185,185,,,,,,,,,,,,,,,,,,,,,,,,,,,,,,,,,,,,None,,494.3544534299057,None,494.3544534299057,None,2021-08-17-10:16:53.075486,494.37241209996864,494.67105960007757,494.37241209996864,None,None,494.37241209996864,None,495.17116942987775,None,,,,22001,0001,2021_Aug_17_1008,localizer,2021.1.3,59.9819934220857,
block,scrambled,scrambled081.bmp,,,,,0,186,186,186,,,,,,,,,,,,,,,,,,,,,,,,,,,,,,,,,,,,None,,495.17116942987775,None,495.17116942987775,None,2021-08-17-10:16:53.892751,495.1919537000358,495.50419080024585,495.1919537000358,None,None,495.1919537000358,None,495.9878607302438,None,,,,22001,0001,2021_Aug_17_1008,localizer,2021.1.3,59.9819934220857,
block,scrambled,scrambled010.bmp,,,,,0,187,187,187,,,,,,,,,,,,,,,,,,,,,,,,,,,,,,,,,,,,None,,495.9878607302438,None,495.9878607302438,None,2021-08-17-10:16:54.711246,496.01042350009084,496.3210916998796,496.01042350009084,None,None,496.01042350009084,None,496.80440303017383,None,,,,22001,0001,2021_Aug_17_1008,localizer,2021.1.3,59.9819934220857,
block,scrambled,scrambled053.bmp,,,,,0,188,188,188,,,,,,,,,,,,,,,,,,,,,,,,,,,,,,,,,,,,None,,496.80440303017383,None,496.80440303017383,None,2021-08-17-10:16:55.521690,496.80500070005655,497.10446610022336,496.80500070005655,None,None,496.80500070005655,None,497.6040133301634,None,,,,22001,0001,2021_Aug_17_1008,localizer,2021.1.3,59.9819934220857,
block,scrambled,scrambled001.bmp,,,,,0,189,189,189,,,,,,,,,,,,,,,,,,,,,,,,,,,,,,,,,,,,None,,497.6040133301634,None,497.6040133301634,None,2021-08-17-10:16:56.319017,497.60791030013934,497.9211409999989,497.60791030013934,497.60791030013934,None,497.60791030013934,497.60791030013934,498.42117653028106,None,,,,22001,0001,2021_Aug_17_1008,localizer,2021.1.3,59.9819934220857,
block,scrambled,scrambled047.bmp,,,,,0,190,190,190,,,,,,,,,,,,,,,,,,,,,,,,,,,,,,,,,,,,None,,498.42117653028106,None,498.42117653028106,None,2021-08-17-10:16:57.144569,498.43248530011624,498.737834200263,498.43248530011624,None,None,498.43248530011624,None,499.2378460302483,None,,,,22001,0001,2021_Aug_17_1008,localizer,2021.1.3,59.9819934220857,
block,scrambled,scrambled035.bmp,,,,,0,191,191,191,,,,,,,,,,,,,,,,,,,,,,,,,,,,,,,,,,,,None,,499.2378460302483,None,499.2378460302483,None,2021-08-17-10:16:57.961444,499.2577316998504,499.5709945000708,499.2577316998504,None,None,499.2577316998504,None,500.05428573009556,None,,,,22001,0001,2021_Aug_17_1008,localizer,2021.1.3,59.9819934220857,
block,scrambled,scrambled044.bmp,,,,,0,192,192,192,,,,,,,,,,,,,,,,,,,,,,,,,,,,,,,,,,,,None,,500.05428573009556,None,500.05428573009556,None,2021-08-17-10:16:58.767771,500.05490430025384,500.3543400000781,500.05490430025384,None,None,500.05490430025384,None,500.85446623000314,None,,,,22001,0001,2021_Aug_17_1008,localizer,2021.1.3,59.9819934220857,
block,scrambled,scrambled063.bmp,,,,,0,193,193,193,,,,,,,,,,,,,,,,,,,,,,,,,,,,,,,,,,,,None,,500.85446623000314,None,500.85446623000314,None,2021-08-17-10:16:59.569245,500.86071059992537,501.1711641000584,500.86071059992537,500.86071059992537,None,500.86071059992537,500.86071059992537,501.67089633024295,None,,,,22001,0001,2021_Aug_17_1008,localizer,2021.1.3,59.9819934220857,
block,scrambled,scrambled002.bmp,,,,,0,194,194,194,,,,,,,,,,,,,,,,,,,,,,,,,,,,,,,,,,,,None,,501.67089633024295,None,501.67089633024295,None,2021-08-17-10:17:00.384046,501.6725357999094,501.9710825998336,501.6725357999094,None,None,501.6725357999094,None,502.4878090301994,None,,,,22001,0001,2021_Aug_17_1008,localizer,2021.1.3,59.9819934220857,
block,scrambled,scrambled077.bmp,,,,,0,195,195,195,,,,,,,,,,,,,,,,,,,,,,,,,,,,,,,,,,,,None,,502.4878090301994,None,502.4878090301994,None,2021-08-17-10:17:01.206236,502.4933417001739,502.80451720021665,502.4933417001739,None,None,502.4933417001739,None,503.30431572985833,None,,,,22001,0001,2021_Aug_17_1008,localizer,2021.1.3,59.9819934220857,
block,scrambled,scrambled059.bmp,,,,,0,196,196,196,,,,,,,,,,,,,,,,,,,,,,,,,,,,,,,,,,,,None,,503.30431572985833,None,503.30431572985833,None,2021-08-17-10:17:02.018793,503.3048343001865,503.60429499996826,503.3048343001865,None,None,503.3048343001865,None,504.10441642985677,None,,,,22001,0001,2021_Aug_17_1008,localizer,2021.1.3,59.9819934220857,
block_end,scrambled,scrambled007.bmp,,,,,0,197,197,197,,,,,,,,,,,,,,,,,,,,,,,,,,,,,,,,,,,,None,,504.10441642985677,None,504.10441642985677,None,2021-08-17-10:17:02.829851,504.1163436002098,504.42116959998384,504.1163436002098,504.1163436002098,None,504.1163436002098,504.1163436002098,504.92118412987327,None,,,,22001,0001,2021_Aug_17_1008,localizer,2021.1.3,59.9819934220857,
block_start,objects,objects042.bmp,,,,,0,198,198,198,,,,,,,,,,,,,,,,,,,,,,,,,,,,,,,,,,,,t,14.155087300110608,504.92115310020745,None,504.92115310020745,None,2021-08-17-10:17:17.826174,519.1179391001351,519.4211184000596,519.1179391001351,None,None,519.1179391001351,None,519.9210381301585,None,,,,22001,0001,2021_Aug_17_1008,localizer,2021.1.3,59.9819934220857,
block,objects,objects001.bmp,,,,,0,199,199,199,,,,,,,,,,,,,,,,,,,,,,,,,,,,,,,,,,,,None,,519.9210381301585,None,519.9210381301585,None,2021-08-17-10:17:18.635511,519.9216277999803,520.2211393001489,519.9216277999803,None,None,519.9216277999803,None,520.721294530062,None,,,,22001,0001,2021_Aug_17_1008,localizer,2021.1.3,59.9819934220857,
block,objects,objects010.bmp,,,,,0,200,200,200,,,,,,,,,,,,,,,,,,,,,,,,,,,,,,,,,,,,None,,520.721294530062,None,520.721294530062,None,2021-08-17-10:17:19.440701,520.7223936002702,521.0212734001689,520.7223936002702,520.7223936002702,None,520.7223936002702,520.7223936002702,521.5379888302181,None,,,,22001,0001,2021_Aug_17_1008,localizer,2021.1.3,59.9819934220857,
block,objects,objects015.bmp,,,,,0,201,201,201,,,,,,,,,,,,,,,,,,,,,,,,,,,,,,,,,,,,None,,521.5379888302181,None,521.5379888302181,None,2021-08-17-10:17:20.260390,521.5482319998555,521.8546746000648,521.5482319998555,None,None,521.5482319998555,None,522.3547122300137,None,,,,22001,0001,2021_Aug_17_1008,localizer,2021.1.3,59.9819934220857,
block,objects,objects088.bmp,,,,,0,202,202,202,,,,,,,,,,,,,,,,,,,,,,,,,,,,,,,,,,,,None,,522.3547122300137,None,522.3547122300137,None,2021-08-17-10:17:21.077810,522.3646652000025,522.6713252002373,522.3646652000025,None,None,522.3646652000025,None,523.1712063302751,None,,,,22001,0001,2021_Aug_17_1008,localizer,2021.1.3,59.9819934220857,
block,objects,objects047.bmp,,,,,0,203,203,203,,,,,,,,,,,,,,,,,,,,,,,,,,,,,,,,,,,,None,,523.1712063302751,None,523.1712063302751,None,2021-08-17-10:17:21.885680,523.1784115000628,523.4878789000213,523.1784115000628,None,None,523.1784115000628,None,523.9879201299976,None,,,,22001,0001,2021_Aug_17_1008,localizer,2021.1.3,59.9819934220857,
block,objects,objects062.bmp,,,,,0,204,204,204,,,,,,,,,,,,,,,,,,,,,,,,,,,,,,,,,,,,None,,523.9879201299976,None,523.9879201299976,None,2021-08-17-10:17:22.708996,523.9946977999061,524.3044447000138,523.9946977999061,None,None,523.9946977999061,None,524.8047464302275,None,,,,22001,0001,2021_Aug_17_1008,localizer,2021.1.3,59.9819934220857,
block,objects,objects064.bmp,,,,,0,205,205,205,,,,,,,,,,,,,,,,,,,,,,,,,,,,,,,,,,,,None,,524.8047464302275,None,524.8047464302275,None,2021-08-17-10:17:23.528141,524.8249320001341,525.1379872001708,524.8249320001341,None,None,524.8249320001341,None,525.6213721300941,None,,,,22001,0001,2021_Aug_17_1008,localizer,2021.1.3,59.9819934220857,
block,objects,objects071.bmp,,,,,0,206,206,206,,,,,,,,,,,,,,,,,,,,,,,,,,,,,,,,,,,,None,,525.6213721300941,None,525.6213721300941,None,2021-08-17-10:17:24.344972,525.6305319000967,525.9380282000639,525.6305319000967,None,None,525.6305319000967,None,526.4380641298834,None,,,,22001,0001,2021_Aug_17_1008,localizer,2021.1.3,59.9819934220857,
block,objects,objects080.bmp,,,,,0,207,207,207,,,,,,,,,,,,,,,,,,,,,,,,,,,,,,,,,,,,None,,526.4380641298834,None,526.4380641298834,None,2021-08-17-10:17:25.161548,526.4600439998321,526.7714030002244,526.4600439998321,None,None,526.4600439998321,None,527.2542714302894,None,,,,22001,0001,2021_Aug_17_1008,localizer,2021.1.3,59.9819934220857,
block,objects,objects077.bmp,,,,,0,208,208,208,,,,,,,,,,,,,,,,,,,,,,,,,,,,,,,,,,,,None,,527.2542714302894,None,527.2542714302894,None,2021-08-17-10:17:25.966714,527.2551372000016,527.5545624000952,527.2551372000016,None,None,527.2551372000016,None,528.0547604298685,None,,,,22001,0001,2021_Aug_17_1008,localizer,2021.1.3,59.9819934220857,
block,objects,objects021.bmp,,,,,0,209,209,209,,,,,,,,,,,,,,,,,,,,,,,,,,,,,,,,,,,,None,,528.0547604298685,None,528.0547604298685,None,2021-08-17-10:17:26.780107,528.0834236000665,528.387945999857,528.0834236000665,528.0834236000665,None,528.0834236000665,528.0834236000665,528.8713120299857,None,,,,22001,0001,2021_Aug_17_1008,localizer,2021.1.3,59.9819934220857,
block,objects,objects063.bmp,,,,,0,210,210,210,,,,,,,,,,,,,,,,,,,,,,,,,,,,,,,,,,,,None,,528.8713120299857,None,528.8713120299857,None,2021-08-17-10:17:27.585086,528.8720682999119,529.1711670998484,528.8720682999119,None,None,528.8720682999119,None,529.6712679302785,None,,,,22001,0001,2021_Aug_17_1008,localizer,2021.1.3,59.9819934220857,
block,objects,objects052.bmp,,,,,0,211,211,211,,,,,,,,,,,,,,,,,,,,,,,,,,,,,,,,,,,,None,,529.6712679302785,None,529.6712679302785,None,2021-08-17-10:17:28.385760,529.6796152000315,529.987932600081,529.6796152000315,529.6796152000315,None,529.6796152000315,529.6796152000315,530.4878707298543,None,,,,22001,0001,2021_Aug_17_1008,localizer,2021.1.3,59.9819934220857,
block_end,objects,objects066.bmp,,,,,0,212,212,212,,,,,,,,,,,,,,,,,,,,,,,,,,,,,,,,,,,,None,,530.4878707298543,None,530.4878707298543,None,2021-08-17-10:17:29.201360,530.4885048000142,530.787971300073,530.4885048000142,None,None,530.4885048000142,None,531.2881081298459,None,,,,22001,0001,2021_Aug_17_1008,localizer,2021.1.3,59.9819934220857,
block_start,scenes,scenes089.bmp,,,,,0,213,213,213,,,,,,,,,,,,,,,,,,,,,,,,,,,,,,,,,,,,t,16.160408600233495,531.2879960001446,None,531.2879960001446,None,2021-08-17-10:17:46.191658,547.4752821000293,547.7878457000479,547.4752821000293,None,None,547.4752821000293,None,548.2880584302824,None,,,,22001,0001,2021_Aug_17_1008,localizer,2021.1.3,59.9819934220857,
block,scenes,scenes024.bmp,,,,,0,214,214,214,,,,,,,,,,,,,,,,,,,,,,,,,,,,,,,,,,,,None,,548.2880584302824,None,548.2880584302824,None,2021-08-17-10:17:47.010680,548.3078173999675,548.6213098000735,548.3078173999675,None,None,548.3078173999675,None,549.1047586299013,None,,,,22001,0001,2021_Aug_17_1008,localizer,2021.1.3,59.9819934220857,
block,scenes,scenes033.bmp,,,,,0,215,215,215,,,,,,,,,,,,,,,,,,,,,,,,,,,,,,,,,,,,None,,549.1047586299013,None,549.1047586299013,None,2021-08-17-10:17:47.828366,549.1373385000043,549.4381208000705,549.1373385000043,None,None,549.1373385000043,None,549.9214146298822,None,,,,22001,0001,2021_Aug_17_1008,localizer,2021.1.3,59.9819934220857,
block,scenes,scenes056.bmp,,,,,0,216,216,216,,,,,,,,,,,,,,,,,,,,,,,,,,,,,,,,,,,,None,,549.9214146298822,None,549.9214146298822,None,2021-08-17-10:17:48.640864,549.9337754002772,550.2379785999656,549.9337754002772,None,None,549.9337754002772,None,550.7381671302486,None,,,,22001,0001,2021_Aug_17_1008,localizer,2021.1.3,59.9819934220857,
block,scenes,scenes056.bmp,,,,,0,217,217,217,,,,,,,,,,,,,,,,,,,,,,,,,,,,,,,,,,,,None,,550.7381671302486,None,550.7381671302486,None,2021-08-17-10:17:49.453296,550.7391649000347,551.037962500006,550.7391649000347,None,y,550.7391649000347,None,551.5382458300795,None,0.7110513001680374,,,22001,0001,2021_Aug_17_1008,localizer,2021.1.3,59.9819934220857,
block,scenes,scenes038.bmp,,,,,0,218,218,218,,,,,,,,,,,,,,,,,,,,,,,,,,,,,,,,,,,,None,,551.5382458300795,None,551.5382458300795,None,2021-08-17-10:17:50.263855,551.5697821001522,551.8713956000283,551.5697821001522,551.5697821001522,None,551.5697821001522,551.5697821001522,552.3549765300471,None,,,,22001,0001,2021_Aug_17_1008,localizer,2021.1.3,59.9819934220857,
block,scenes,scenes081.bmp,,,,,0,219,219,219,,,,,,,,,,,,,,,,,,,,,,,,,,,,,,,,,,,,None,,552.3549765300471,None,552.3549765300471,None,2021-08-17-10:17:51.078372,552.3754684999585,552.687953799963,552.3754684999585,None,None,552.3754684999585,None,553.1714470301289,None,,,,22001,0001,2021_Aug_17_1008,localizer,2021.1.3,59.9819934220857,
block,scenes,scenes051.bmp,,,,,0,220,220,220,,,,,,,,,,,,,,,,,,,,,,,,,,,,,,,,,,,,None,,553.1714470301289,None,553.1714470301289,None,2021-08-17-10:17:51.885181,553.1775397998281,553.4881560001522,553.1775397998281,None,None,553.1775397998281,None,553.9880644300487,None,,,,22001,0001,2021_Aug_17_1008,localizer,2021.1.3,59.9819934220857,
block,scenes,scenes036.bmp,,,,,0,221,221,221,,,,,,,,,,,,,,,,,,,,,,,,,,,,,,,,,,,,None,,553.9880644300487,None,553.9880644300487,None,2021-08-17-10:17:52.709459,553.9957046001218,554.3047001999803,553.9957046001218,None,None,553.9957046001218,None,554.804704230139,None,,,,22001,0001,2021_Aug_17_1008,localizer,2021.1.3,59.9819934220857,
block,scenes,scenes037.bmp,,,,,0,222,222,222,,,,,,,,,,,,,,,,,,,,,,,,,,,,,,,,,,,,None,,554.804704230139,None,554.804704230139,None,2021-08-17-10:17:53.522165,554.8066124999896,555.1215372998267,554.8066124999896,None,None,554.8066124999896,None,555.62158433008,None,,,,22001,0001,2021_Aug_17_1008,localizer,2021.1.3,59.9819934220857,
block,scenes,scenes032.bmp,,,,,0,223,223,223,,,,,,,,,,,,,,,,,,,,,,,,,,,,,,,,,,,,None,,555.62158433008,None,555.62158433008,None,2021-08-17-10:17:54.345398,555.64947139984,555.9549513999373,555.64947139984,None,None,555.64947139984,None,556.4378200302366,None,,,,22001,0001,2021_Aug_17_1008,localizer,2021.1.3,59.9819934220857,
block,scenes,scenes067.bmp,,,,,0,224,224,224,,,,,,,,,,,,,,,,,,,,,,,,,,,,,,,,,,,,None,,556.4378200302366,None,556.4378200302366,None,2021-08-17-10:17:55.151962,556.438809600193,556.7379549001344,556.438809600193,None,None,556.438809600193,None,557.2382823301945,None,,,,22001,0001,2021_Aug_17_1008,localizer,2021.1.3,59.9819934220857,
block,scenes,scenes075.bmp,,,,,0,225,225,225,,,,,,,,,,,,,,,,,,,,,,,,,,,,,,,,,,,,None,,557.2382823301945,None,557.2382823301945,None,2021-08-17-10:17:55.963897,557.2505799001083,557.5549667002633,557.2505799001083,557.2505799001083,None,557.2505799001083,557.2505799001083,558.054977429891,None,,,,22001,0001,2021_Aug_17_1008,localizer,2021.1.3,59.9819934220857,
block,scenes,scenes006.bmp,,,,,0,226,226,226,,,,,,,,,,,,,,,,,,,,,,,,,,,,,,,,,,,,None,,558.054977429891,None,558.054977429891,None,2021-08-17-10:17:56.778378,558.0775866000913,558.3881836002693,558.0775866000913,None,None,558.0775866000913,None,558.8713840300683,None,,,,22001,0001,2021_Aug_17_1008,localizer,2021.1.3,59.9819934220857,
block_end,scenes,scenes072.bmp,,,,,0,227,227,227,,,,,,,,,,,,,,,,,,,,,,,,,,,,,,,,,,,,None,,558.8713840300683,None,558.8713840300683,None,2021-08-17-10:17:57.584863,558.8727214001119,559.1715859002434,558.8727214001119,None,None,558.8727214001119,None,559.6882262298371,None,,,,22001,0001,2021_Aug_17_1008,localizer,2021.1.3,59.9819934220857,
block_start,faces,faces030.bmp,,,,,0,228,228,228,,,,,,,,,,,,,,,,,,,,,,,,,,,,,,,,,,,,t,9.841991599649191,559.6882994002663,None,559.6882994002663,None,2021-08-17-10:18:08.275666,569.5782447000965,569.8881399999373,569.5782447000965,None,None,569.5782447000965,None,570.3716356301214,None,,,,22001,0001,2021_Aug_17_1008,localizer,2021.1.3,59.9819934220857,
block,faces,faces060.bmp,,,,,0,229,229,229,,,,,,,,,,,,,,,,,,,,,,,,,,,,,,,,,,,,None,,570.3716356301214,None,570.3716356301214,None,2021-08-17-10:18:09.095728,570.382579300087,570.6881106002256,570.382579300087,None,None,570.382579300087,None,571.1882202302571,None,,,,22001,0001,2021_Aug_17_1008,localizer,2021.1.3,59.9819934220857,
block,faces,faces079.bmp,,,,,0,230,230,230,,,,,,,,,,,,,,,,,,,,,,,,,,,,,,,,,,,,None,,571.1882202302571,None,571.1882202302571,None,2021-08-17-10:18:09.907341,571.2015459998511,571.5049630999565,571.2015459998511,None,None,571.2015459998511,None,572.0048317302484,None,,,,22001,0001,2021_Aug_17_1008,localizer,2021.1.3,59.9819934220857,
block,faces,faces023.bmp,,,,,0,231,231,231,,,,,,,,,,,,,,,,,,,,,,,,,,,,,,,,,,,,None,,572.0048317302484,None,572.0048317302484,None,2021-08-17-10:18:10.725146,572.0120748002082,572.3216555998661,572.0120748002082,None,None,572.0120748002082,None,572.8214811299462,None,,,,22001,0001,2021_Aug_17_1008,localizer,2021.1.3,59.9819934220857,
block,faces,faces002.bmp,,,,,0,232,232,232,,,,,,,,,,,,,,,,,,,,,,,,,,,,,,,,,,,,None,,572.8214811299462,None,572.8214811299462,None,2021-08-17-10:18:11.534982,572.8242140999064,573.1383386002854,572.8242140999064,None,None,572.8242140999064,None,573.6384192298632,None,,,,22001,0001,2021_Aug_17_1008,localizer,2021.1.3,59.9819934220857,
block,faces,faces017.bmp,,,,,0,233,233,233,,,,,,,,,,,,,,,,,,,,,,,,,,,,,,,,,,,,None,,573.6384192298632,None,573.6384192298632,None,2021-08-17-10:18:12.360802,573.6490261000581,573.9551023999229,573.6490261000581,None,None,573.6490261000581,None,574.455110729998,None,,,,22001,0001,2021_Aug_17_1008,localizer,2021.1.3,59.9819934220857,
block,faces,faces071.bmp,,,,,0,234,234,234,,,,,,,,,,,,,,,,,,,,,,,,,,,,,,,,,,,,None,,574.455110729998,None,574.455110729998,None,2021-08-17-10:18:13.178707,574.4653763999231,574.7715512001887,574.4653763999231,None,None,574.4653763999231,None,575.2716142300982,None,,,,22001,0001,2021_Aug_17_1008,localizer,2021.1.3,59.9819934220857,
block,faces,faces051.bmp,,,,,0,235,235,235,,,,,,,,,,,,,,,,,,,,,,,,,,,,,,,,,,,,None,,575.2716142300982,None,575.2716142300982,None,2021-08-17-10:18:13.990249,575.2761305999011,575.5883395001292,575.2761305999011,None,None,575.2761305999011,None,576.0881008299533,None,,,,22001,0001,2021_Aug_17_1008,localizer,2021.1.3,59.9819934220857,
block,faces,faces022.bmp,,,,,0,236,236,236,,,,,,,,,,,,,,,,,,,,,,,,,,,,,,,,,,,,None,,576.0881008299533,None,576.0881008299533,None,2021-08-17-10:18:14.800891,576.0898275002837,576.4050103998743,576.0898275002837,None,None,576.0898275002837,None,576.9049301299732,None,,,,22001,0001,2021_Aug_17_1008,localizer,2021.1.3,59.9819934220857,
block,faces,faces084.bmp,,,,,0,237,237,237,,,,,,,,,,,,,,,,,,,,,,,,,,,,,,,,,,,,None,,576.9049301299732,None,576.9049301299732,None,2021-08-17-10:18:15.618693,576.9122938001528,577.2213079999201,576.9122938001528,None,None,576.9122938001528,None,577.7219207299407,None,,,,22001,0001,2021_Aug_17_1008,localizer,2021.1.3,59.9819934220857,
block,faces,faces006.bmp,,,,,0,238,238,238,,,,,,,,,,,,,,,,,,,,,,,,,,,,,,,,,,,,None,,577.7219207299407,None,577.7219207299407,None,2021-08-17-10:18:16.445274,577.7321664998308,578.0386088001542,577.7321664998308,None,None,577.7321664998308,None,578.5382295300718,None,,,,22001,0001,2021_Aug_17_1008,localizer,2021.1.3,59.9819934220857,
block,faces,faces054.bmp,,,,,0,239,239,239,,,,,,,,,,,,,,,,,,,,,,,,,,,,,,,,,,,,None,,578.5382295300718,None,578.5382295300718,None,2021-08-17-10:18:17.252011,578.5460564000532,578.8550456999801,578.5460564000532,None,None,578.5460564000532,None,579.3550670299213,None,,,,22001,0001,2021_Aug_17_1008,localizer,2021.1.3,59.9819934220857,
block,faces,faces085.bmp,,,,,0,240,240,240,,,,,,,,,,,,,,,,,,,,,,,,,,,,,,,,,,,,None,,579.3550670299213,None,579.3550670299213,None,2021-08-17-10:18:18.077493,579.3643364999443,579.6714015002362,579.3643364999443,None,None,579.3643364999443,None,580.1717880301643,None,,,,22001,0001,2021_Aug_17_1008,localizer,2021.1.3,59.9819934220857,
block,faces,faces046.bmp,,,,,0,241,241,241,,,,,,,,,,,,,,,,,,,,,,,,,,,,,,,,,,,,None,,580.1717880301643,None,580.1717880301643,None,2021-08-17-10:18:18.893420,580.1923038000241,580.5051196999848,580.1923038000241,None,None,580.1923038000241,None,580.9882261299994,None,,,,22001,0001,2021_Aug_17_1008,localizer,2021.1.3,59.9819934220857,
block_end,faces,faces039.bmp,,,,,0,242,242,242,,,,,,,,,,,,,,,,,,,,,,,,,,,,,,,,,,,,None,,580.9882261299994,None,580.9882261299994,None,2021-08-17-10:18:19.706839,580.9929307000712,581.3050305000506,580.9929307000712,None,None,580.9929307000712,None,581.8049326300155,None,,,,22001,0001,2021_Aug_17_1008,localizer,2021.1.3,59.9819934220857,
null_block,null_block,null_block.bmp,,,,,0,243,243,243,,,,,,,,,,,,,,,,,,,,,,,,,,,,,,,,,,,,t,7.397075599990785,581.8049646001309,None,581.8049646001309,None,2021-08-17-10:18:27.942579,589.238703360036,None,589.238703360036,None,None,589.238703360036,None,589.2335705999285,None,,,,22001,0001,2021_Aug_17_1008,localizer,2021.1.3,59.9819934220857,
,,,,,,,,,,,,,,,,,,,,,,,,,,,,,,,,,,,,,,,,,,,,,,,,,,,,,,,,,,,,,,,601.2386007001624,None,,,,,,,
