block_type,condition,img_name,Button.thisRepN,Button.thisTrialN,Button.thisN,Button.thisIndex,trials.thisRepN,trials.thisTrialN,trials.thisN,trials.thisIndex,Ready_experimenter_text.started,Ready_experimenter_text.stopped,Ready_experimenter_resp.keys,Ready_experimenter_resp.rt,Ready_experimenter_resp.started,Ready_experimenter_resp.stopped,Alignment_background.started,Alignment_background.stopped,Alignment_image.started,Alignment_image.stopped,Alignment_resp.keys,Alignment_resp.rt,Alignment_resp.started,Alignment_resp.stopped,Button_text.started,Button_text.stopped,Index_text.started,Index_text.stopped,Index_resp.keys,Index_resp.rt,Index_resp.started,Index_resp.stopped,Middle_text.started,Middle_text.stopped,Middle_resp.keys,Middle_resp.rt,Middle_resp.started,Middle_resp.stopped,Repeat_text.started,Repeat_text.stopped,Repeat_resp.keys,Repeat_resp.corr,Repeat_resp.rt,Repeat_resp.started,Repeat_resp.stopped,instruction_text.started,instruction_text.stopped,key_resp.keys,key_resp.rt,key_resp.started,key_resp.stopped,scanner_t.keys,scanner_t.rt,scanner_t.started,scanner_t.stopped,fixation_wait_for_t.started,fixation_wait_for_t.stopped,real_timestamp_trial_start,image.started,image.stopped,fixation.started,fixation.stopped,repeat_response.keys,repeat_response.started,repeat_response.stopped,fixation_null.started,fixation_null.stopped,repeat_response.rt,end_text.started,end_text.stopped,participant,run,date,expName,psychopyVersion,frameRate,
,,,,,,,,,,,12.725452200043947,None,return,464.47389960009605,12.725452200043947,None,,,,,,,,,,,,,,,,,,,,,,,,,,,,,,,,,,,,,,,,,,,,,,,,,,,,,,,21006,0002,2022_Jul_18_1235,localizer,2021.1.3,59.38545554582773,
,,,,,,,,,,,,,,,,,477.2447293000296,None,477.2447293000296,None,return,1.1145307002589107,477.2447293000296,None,,,,,,,,,,,,,,,,,,,,,,,,,,,,,,,,,,,,,,,,,,,,,,,21006,0002,2022_Jul_18_1235,localizer,2021.1.3,59.38545554582773,
,,,0,0,0,0,,,,,,,,,,,,,,,,,,,478.383987700101,None,479.3993767998181,None,y,5.627312600146979,479.3993767998181,None,485.04977519996464,None,b,2.52376989973709,485.04977519996464,None,487.5998625000939,None,n,0,1.9292109999805689,487.5998625000939,None,,,,,,,,,,,,,,,,,,,,,,,,,,21006,0002,2022_Jul_18_1235,localizer,2021.1.3,59.38545554582773,
,,,,,,,,,,,,,,,,,,,,,,,,,,,,,,,,,,,,,,,,,,,,,,489.54897810006514,None,y,27.280416199937463,489.54897810006514,None,,,,,,,,,,,,,,,,,,,,21006,0002,2022_Jul_18_1235,localizer,2021.1.3,59.38545554582773,
block_start,faces,faces043.bmp,,,,,0,0,0,0,,,,,,,,,,,,,,,,,,,,,,,,,,,,,,,,,,,,,,,,,,t,15.811949099879712,516.8818594999611,None,516.8818594999611,None,2022-07-18-12:44:20.386102,532.7283065998927,533.0325601999648,532.7283065998927,None,None,532.7283065998927,None,533.5326206996572,None,,,,21006,0002,2022_Jul_18_1235,localizer,2021.1.3,59.38545554582773,
block,faces,faces007.bmp,,,,,0,1,1,1,,,,,,,,,,,,,,,,,,,,,,,,,,,,,,,,,,,,,,,,,,None,,533.5326206996572,None,533.5326206996572,None,2022-07-18-12:44:21.207096,533.548170699738,533.8492000000551,533.548170699738,None,None,533.548170699738,None,534.3502015998122,None,,,,21006,0002,2022_Jul_18_1235,localizer,2021.1.3,59.38545554582773,
block,faces,faces081.bmp,,,,,0,2,2,2,,,,,,,,,,,,,,,,,,,,,,,,,,,,,,,,,,,,,,,,,,None,,534.3502015998122,None,534.3502015998122,None,2022-07-18-12:44:22.024510,534.3535640998743,534.6660396996886,534.3535640998743,None,None,534.3535640998743,None,535.1659824997653,None,,,,21006,0002,2022_Jul_18_1235,localizer,2021.1.3,59.38545554582773,
block,faces,faces021.bmp,,,,,0,3,3,3,,,,,,,,,,,,,,,,,,,,,,,,,,,,,,,,,,,,,,,,,,None,,535.1659824997653,None,535.1659824997653,None,2022-07-18-12:44:22.838546,535.177365699783,535.4822964998893,535.177365699783,None,None,535.177365699783,None,535.982548399875,None,,,,21006,0002,2022_Jul_18_1235,localizer,2021.1.3,59.38545554582773,
block,faces,faces075.bmp,,,,,0,4,4,4,,,,,,,,,,,,,,,,,,,,,,,,,,,,,,,,,,,,,,,,,,None,,535.982548399875,None,535.982548399875,None,2022-07-18-12:44:23.655512,535.9943039999343,536.3014899999835,535.9943039999343,None,None,535.9943039999343,None,536.7988946997095,None,,,,21006,0002,2022_Jul_18_1235,localizer,2021.1.3,59.38545554582773,
block,faces,faces052.bmp,,,,,0,5,5,5,,,,,,,,,,,,,,,,,,,,,,,,,,,,,,,,,,,,,,,,,,None,,536.7988946997095,None,536.7988946997095,None,2022-07-18-12:44:24.471251,536.7999861999415,537.116000100039,536.7999861999415,None,None,536.7999861999415,None,537.5990668996703,None,,,,21006,0002,2022_Jul_18_1235,localizer,2021.1.3,59.38545554582773,
block,faces,faces045.bmp,,,,,0,6,6,6,,,,,,,,,,,,,,,,,,,,,,,,,,,,,,,,,,,,,,,,,,None,,537.5990668996703,None,537.5990668996703,None,2022-07-18-12:44:25.272686,537.6097392998636,537.9157928000204,537.6097392998636,537.6097392998636,None,537.6097392998636,537.6097392998636,538.416415199684,None,,,,21006,0002,2022_Jul_18_1235,localizer,2021.1.3,59.38545554582773,
block,faces,faces080.bmp,,,,,0,7,7,7,,,,,,,,,,,,,,,,,,,,,,,,,,,,,,,,,,,,,,,,,,None,,538.416415199684,None,538.416415199684,None,2022-07-18-12:44:26.089752,538.4271209998988,538.7323841000907,538.4271209998988,None,None,538.4271209998988,None,539.2321644998622,None,,,,21006,0002,2022_Jul_18_1235,localizer,2021.1.3,59.38545554582773,
block,faces,faces033.bmp,,,,,0,8,8,8,,,,,,,,,,,,,,,,,,,,,,,,,,,,,,,,,,,,,,,,,,None,,539.2321644998622,None,539.2321644998622,None,2022-07-18-12:44:26.904955,539.246681000106,539.5494057000615,539.246681000106,None,None,539.246681000106,None,540.0486866999884,None,,,,21006,0002,2022_Jul_18_1235,localizer,2021.1.3,59.38545554582773,
block,faces,faces008.bmp,,,,,0,9,9,9,,,,,,,,,,,,,,,,,,,,,,,,,,,,,,,,,,,,,,,,,,None,,540.0486866999884,None,540.0486866999884,None,2022-07-18-12:44:27.720044,540.0505117001012,540.3658976997249,540.0505117001012,None,None,540.0505117001012,None,540.8656365001109,None,,,,21006,0002,2022_Jul_18_1235,localizer,2021.1.3,59.38545554582773,
block,faces,faces005.bmp,,,,,0,10,10,10,,,,,,,,,,,,,,,,,,,,,,,,,,,,,,,,,,,,,,,,,,None,,540.8656365001109,None,540.8656365001109,None,2022-07-18-12:44:28.538264,540.8667815998197,541.1826308998279,540.8667815998197,None,None,540.8667815998197,None,541.6657842998859,None,,,,21006,0002,2022_Jul_18_1235,localizer,2021.1.3,59.38545554582773,
block,faces,faces014.bmp,,,,,0,11,11,11,,,,,,,,,,,,,,,,,,,,,,,,,,,,,,,,,,,,,,,,,,None,,541.6657842998859,None,541.6657842998859,None,2022-07-18-12:44:29.339132,541.6669037998654,541.9826229996979,541.6669037998654,541.6669037998654,None,541.6669037998654,541.6669037998654,542.4826028999407,None,,,,21006,0002,2022_Jul_18_1235,localizer,2021.1.3,59.38545554582773,
block,faces,faces029.bmp,,,,,0,12,12,12,,,,,,,,,,,,,,,,,,,,,,,,,,,,,,,,,,,,,,,,,,None,,542.4826028999407,None,542.4826028999407,None,2022-07-18-12:44:30.155083,542.4950671996921,542.8019833997823,542.4950671996921,None,None,542.4950671996921,None,543.2891906998586,None,,,,21006,0002,2022_Jul_18_1235,localizer,2021.1.3,59.38545554582773,
block,faces,faces072.bmp,,,,,0,13,13,13,,,,,,,,,,,,,,,,,,,,,,,,,,,,,,,,,,,,,,,,,,None,,543.2891906998586,None,543.2891906998586,None,2022-07-18-12:44:30.966459,543.2957691000775,543.5997854997404,543.2957691000775,None,None,543.2957691000775,None,544.0988952997607,None,,,,21006,0002,2022_Jul_18_1235,localizer,2021.1.3,59.38545554582773,
block_end,faces,faces050.bmp,,,,,0,14,14,14,,,,,,,,,,,,,,,,,,,,,,,,,,,,,,,,,,,,,,,,,,None,,544.0988952997607,None,544.0988952997607,None,2022-07-18-12:44:31.771252,544.1075733001344,544.4166902001016,544.1075733001344,None,None,544.1075733001344,None,544.9165004999843,None,,,,21006,0002,2022_Jul_18_1235,localizer,2021.1.3,59.38545554582773,
block_start,scenes,scenes028.bmp,,,,,0,15,15,15,,,,,,,,,,,,,,,,,,,,,,,,,,,,,,,,,,,,,,,,,,t,1.7768323998898268,544.9164255000651,None,544.9164255000651,None,2022-07-18-12:44:34.391894,546.7287663999014,547.0322038996965,546.7287663999014,None,None,546.7287663999014,None,547.5324483998586,None,,,,21006,0002,2022_Jul_18_1235,localizer,2021.1.3,59.38545554582773,
block,scenes,scenes064.bmp,,,,,0,16,16,16,,,,,,,,,,,,,,,,,,,,,,,,,,,,,,,,,,,,,,,,,,None,,547.5324483998586,None,547.5324483998586,None,2022-07-18-12:44:35.204999,547.5334175997414,547.8329890999012,547.5334175997414,None,None,547.5334175997414,None,548.3347779000644,None,,,,21006,0002,2022_Jul_18_1235,localizer,2021.1.3,59.38545554582773,
block,scenes,scenes016.bmp,,,,,0,17,17,17,,,,,,,,,,,,,,,,,,,,,,,,,,,,,,,,,,,,,,,,,,None,,548.3347779000644,None,548.3347779000644,None,2022-07-18-12:44:36.009324,548.3535362998955,548.6661690999754,548.3535362998955,548.3535362998955,None,548.3535362998955,548.3535362998955,549.1497763996479,None,,,,21006,0002,2022_Jul_18_1235,localizer,2021.1.3,59.38545554582773,
block,scenes,scenes090.bmp,,,,,0,18,18,18,,,,,,,,,,,,,,,,,,,,,,,,,,,,,,,,,,,,,,,,,,None,,549.1497763996479,None,549.1497763996479,None,2022-07-18-12:44:36.823110,549.1506177997217,549.465811399743,549.1506177997217,None,None,549.1506177997217,None,549.9661256000866,None,,,,21006,0002,2022_Jul_18_1235,localizer,2021.1.3,59.38545554582773,
block,scenes,scenes077.bmp,,,,,0,19,19,19,,,,,,,,,,,,,,,,,,,,,,,,,,,,,,,,,,,,,,,,,,None,,549.9661256000866,None,549.9661256000866,None,2022-07-18-12:44:37.638472,549.9667373998091,550.272119499743,549.9667373998091,None,None,549.9667373998091,None,550.7659266996664,None,,,,21006,0002,2022_Jul_18_1235,localizer,2021.1.3,59.38545554582773,
block,scenes,scenes018.bmp,,,,,0,20,20,20,,,,,,,,,,,,,,,,,,,,,,,,,,,,,,,,,,,,,,,,,,None,,550.7659266996664,None,550.7659266996664,None,2022-07-18-12:44:38.439577,550.767159299925,551.0827659997158,550.767159299925,550.767159299925,None,550.767159299925,550.767159299925,551.5824986999389,None,,,,21006,0002,2022_Jul_18_1235,localizer,2021.1.3,59.38545554582773,
block,scenes,scenes008.bmp,,,,,0,21,21,21,,,,,,,,,,,,,,,,,,,,,,,,,,,,,,,,,,,,,,,,,,None,,551.5824986999389,None,551.5824986999389,None,2022-07-18-12:44:39.254917,551.5834734998643,551.8886052998714,551.5834734998643,None,None,551.5834734998643,None,552.3836629996542,None,,,,21006,0002,2022_Jul_18_1235,localizer,2021.1.3,59.38545554582773,
block,scenes,scenes009.bmp,,,,,0,22,22,22,,,,,,,,,,,,,,,,,,,,,,,,,,,,,,,,,,,,,,,,,,None,,552.3836629996542,None,552.3836629996542,None,2022-07-18-12:44:40.060981,552.4009336996824,552.7160300998949,552.4009336996824,552.4009336996824,None,552.4009336996824,552.4009336996824,553.1992776999716,None,,,,21006,0002,2022_Jul_18_1235,localizer,2021.1.3,59.38545554582773,
block,scenes,scenes085.bmp,,,,,0,23,23,23,,,,,,,,,,,,,,,,,,,,,,,,,,,,,,,,,,,,,,,,,,None,,553.1992776999716,None,553.1992776999716,None,2022-07-18-12:44:40.871691,553.2093830998056,553.5158607000485,553.2093830998056,None,None,553.2093830998056,None,554.0160682998132,None,,,,21006,0002,2022_Jul_18_1235,localizer,2021.1.3,59.38545554582773,
block,scenes,scenes085.bmp,,,,,0,24,24,24,,,,,,,,,,,,,,,,,,,,,,,,,,,,,,,,,,,,,,,,,,None,,554.0160682998132,None,554.0160682998132,None,2022-07-18-12:44:41.688415,554.0169425001368,554.3169304998592,554.0169425001368,None,y,554.0169425001368,None,554.8326413999778,None,0.6887906002812088,,,21006,0002,2022_Jul_18_1235,localizer,2021.1.3,59.38545554582773,
block,scenes,scenes003.bmp,,,,,0,25,25,25,,,,,,,,,,,,,,,,,,,,,,,,,,,,,,,,,,,,,,,,,,None,,554.8326413999778,None,554.8326413999778,None,2022-07-18-12:44:42.504992,554.8335482999682,555.1493345997296,554.8335482999682,None,None,554.8335482999682,None,555.6328244000208,None,,,,21006,0002,2022_Jul_18_1235,localizer,2021.1.3,59.38545554582773,
block,scenes,scenes056.bmp,,,,,0,26,26,26,,,,,,,,,,,,,,,,,,,,,,,,,,,,,,,,,,,,,,,,,,None,,555.6328244000208,None,555.6328244000208,None,2022-07-18-12:44:43.307167,555.6346569997258,555.9494241001084,555.6346569997258,555.6346569997258,None,555.6346569997258,555.6346569997258,556.4497385998723,None,,,,21006,0002,2022_Jul_18_1235,localizer,2021.1.3,59.38545554582773,
block,scenes,scenes005.bmp,,,,,0,27,27,27,,,,,,,,,,,,,,,,,,,,,,,,,,,,,,,,,,,,,,,,,,None,,556.4497385998723,None,556.4497385998723,None,2022-07-18-12:44:44.121589,556.4499995997176,556.749998100102,556.4499995997176,None,None,556.4499995997176,None,557.2492284998764,None,,,,21006,0002,2022_Jul_18_1235,localizer,2021.1.3,59.38545554582773,
block,scenes,scenes068.bmp,,,,,0,28,28,28,,,,,,,,,,,,,,,,,,,,,,,,,,,,,,,,,,,,,,,,,,None,,557.2492284998764,None,557.2492284998764,None,2022-07-18-12:44:44.923590,557.2507438999601,557.5660258997232,557.2507438999601,557.2507438999601,None,557.2507438999601,557.2507438999601,558.0500844996889,None,,,,21006,0002,2022_Jul_18_1235,localizer,2021.1.3,59.38545554582773,
block_end,scenes,scenes021.bmp,,,,,0,29,29,29,,,,,,,,,,,,,,,,,,,,,,,,,,,,,,,,,,,,,,,,,,None,,558.0500844996889,None,558.0500844996889,None,2022-07-18-12:44:45.725606,558.0535287996754,558.3662795997225,558.0535287996754,558.0535287996754,None,558.0535287996754,558.0535287996754,558.8660629997496,None,,,,21006,0002,2022_Jul_18_1235,localizer,2021.1.3,59.38545554582773,
null_block,null_block,null_block.bmp,,,,,0,30,30,30,,,,,,,,,,,,,,,,,,,,,,,,,,,,,,,,,,,,,,,,,,t,1.8272061999887228,558.8663538997062,None,558.8663538997062,None,2022-07-18-12:44:48.390529,560.7170036999044,None,560.7170036999044,None,None,560.7170036999044,None,560.7241923999973,None,,,,21006,0002,2022_Jul_18_1235,localizer,2021.1.3,59.38545554582773,
block_start,scrambled,scrambled069.bmp,,,,,0,31,31,31,,,,,,,,,,,,,,,,,,,,,,,,,,,,,,,,,,,,,,,,,,t,1.9590547000989318,572.734192899894,None,572.734192899894,None,2022-07-18-12:45:02.388076,574.7266846997663,575.032717899885,574.7266846997663,None,None,574.7266846997663,None,575.5326421997045,None,,,,21006,0002,2022_Jul_18_1235,localizer,2021.1.3,59.38545554582773,
block,scrambled,scrambled075.bmp,,,,,0,32,32,32,,,,,,,,,,,,,,,,,,,,,,,,,,,,,,,,,,,,,,,,,,None,,575.5326421997045,None,575.5326421997045,None,2022-07-18-12:45:03.205292,575.5415559997782,575.8491825000383,575.5415559997782,None,None,575.5415559997782,None,576.3489540000912,None,,,,21006,0002,2022_Jul_18_1235,localizer,2021.1.3,59.38545554582773,
block,scrambled,scrambled019.bmp,,,,,0,33,33,33,,,,,,,,,,,,,,,,,,,,,,,,,,,,,,,,,,,,,,,,,,None,,576.3489540000912,None,576.3489540000912,None,2022-07-18-12:45:04.021406,576.3501077000983,576.6656106999144,576.3501077000983,None,None,576.3501077000983,None,577.1555867996533,None,,,,21006,0002,2022_Jul_18_1235,localizer,2021.1.3,59.38545554582773,
block,scrambled,scrambled084.bmp,,,,,0,34,34,34,,,,,,,,,,,,,,,,,,,,,,,,,,,,,,,,,,,,,,,,,,None,,577.1555867996533,None,577.1555867996533,None,2022-07-18-12:45:04.831970,577.1712551997043,577.4827550998889,577.1712551997043,None,None,577.1712551997043,None,577.9659536998254,None,,,,21006,0002,2022_Jul_18_1235,localizer,2021.1.3,59.38545554582773,
block,scrambled,scrambled041.bmp,,,,,0,35,35,35,,,,,,,,,,,,,,,,,,,,,,,,,,,,,,,,,,,,,,,,,,None,,577.9659536998254,None,577.9659536998254,None,2022-07-18-12:45:05.638846,577.9669542997144,578.266100899782,577.9669542997144,None,None,577.9669542997144,None,578.7819288997446,None,,,,21006,0002,2022_Jul_18_1235,localizer,2021.1.3,59.38545554582773,
block,scrambled,scrambled010.bmp,,,,,0,36,36,36,,,,,,,,,,,,,,,,,,,,,,,,,,,,,,,,,,,,,,,,,,None,,578.7819288997446,None,578.7819288997446,None,2022-07-18-12:45:06.453286,578.7901449999772,579.0994289000519,578.7901449999772,None,None,578.7901449999772,None,579.5992657999043,None,,,,21006,0002,2022_Jul_18_1235,localizer,2021.1.3,59.38545554582773,
block,scrambled,scrambled036.bmp,,,,,0,37,37,37,,,,,,,,,,,,,,,,,,,,,,,,,,,,,,,,,,,,,,,,,,None,,579.5992657999043,None,579.5992657999043,None,2022-07-18-12:45:07.271615,579.6003926997073,579.8999823997729,579.6003926997073,None,None,579.6003926997073,None,580.4053337998223,None,,,,21006,0002,2022_Jul_18_1235,localizer,2021.1.3,59.38545554582773,
block,scrambled,scrambled053.bmp,,,,,0,38,38,38,,,,,,,,,,,,,,,,,,,,,,,,,,,,,,,,,,,,,,,,,,None,,580.4053337998223,None,580.4053337998223,None,2022-07-18-12:45:08.085492,580.4122490999289,580.7180693000555,580.4122490999289,None,None,580.4122490999289,None,581.2171972999815,None,,,,21006,0002,2022_Jul_18_1235,localizer,2021.1.3,59.38545554582773,
block,scrambled,scrambled050.bmp,,,,,0,39,39,39,,,,,,,,,,,,,,,,,,,,,,,,,,,,,,,,,,,,,,,,,,None,,581.2171972999815,None,581.2171972999815,None,2022-07-18-12:45:08.891502,581.2312857001089,581.5328486999497,581.2312857001089,None,None,581.2312857001089,None,582.0328513999004,None,,,,21006,0002,2022_Jul_18_1235,localizer,2021.1.3,59.38545554582773,
block,scrambled,scrambled063.bmp,,,,,0,40,40,40,,,,,,,,,,,,,,,,,,,,,,,,,,,,,,,,,,,,,,,,,,None,,582.0328513999004,None,582.0328513999004,None,2022-07-18-12:45:09.705158,582.0336712999269,582.3329694997519,582.0336712999269,None,None,582.0336712999269,None,582.8328522998374,None,,,,21006,0002,2022_Jul_18_1235,localizer,2021.1.3,59.38545554582773,
block,scrambled,scrambled067.bmp,,,,,0,41,41,41,,,,,,,,,,,,,,,,,,,,,,,,,,,,,,,,,,,,,,,,,,None,,582.8328522998374,None,582.8328522998374,None,2022-07-18-12:45:10.507173,582.8462443999015,583.1500172996894,582.8462443999015,582.8462443999015,None,582.8462443999015,582.8462443999015,583.649863099726,None,,,,21006,0002,2022_Jul_18_1235,localizer,2021.1.3,59.38545554582773,
block,scrambled,scrambled022.bmp,,,,,0,42,42,42,,,,,,,,,,,,,,,,,,,,,,,,,,,,,,,,,,,,,,,,,,None,,583.649863099726,None,583.649863099726,None,2022-07-18-12:45:11.323178,583.6506928997114,583.9500297997147,583.6506928997114,None,None,583.6506928997114,None,584.4498596997466,None,,,,21006,0002,2022_Jul_18_1235,localizer,2021.1.3,59.38545554582773,
block,scrambled,scrambled080.bmp,,,,,0,43,43,43,,,,,,,,,,,,,,,,,,,,,,,,,,,,,,,,,,,,,,,,,,None,,584.4498596997466,None,584.4498596997466,None,2022-07-18-12:45:12.125388,584.4635808998719,584.7658327999525,584.4635808998719,584.4635808998719,None,584.4635808998719,584.4635808998719,585.2661345000845,None,,,,21006,0002,2022_Jul_18_1235,localizer,2021.1.3,59.38545554582773,
block,scrambled,scrambled025.bmp,,,,,0,44,44,44,,,,,,,,,,,,,,,,,,,,,,,,,,,,,,,,,,,,,,,,,,None,,585.2661345000845,None,585.2661345000845,None,2022-07-18-12:45:12.937466,585.2752239000984,585.5827040998265,585.2752239000984,None,None,585.2752239000984,None,586.083249900071,None,,,,21006,0002,2022_Jul_18_1235,localizer,2021.1.3,59.38545554582773,
block_end,scrambled,scrambled073.bmp,,,,,0,45,45,45,,,,,,,,,,,,,,,,,,,,,,,,,,,,,,,,,,,,,,,,,,None,,586.083249900071,None,586.083249900071,None,2022-07-18-12:45:13.756585,586.0951975998469,586.3988950997591,586.0951975998469,None,None,586.0951975998469,None,586.8993150000927,None,,,,21006,0002,2022_Jul_18_1235,localizer,2021.1.3,59.38545554582773,
block_start,objects,objects005.bmp,,,,,0,46,46,46,,,,,,,,,,,,,,,,,,,,,,,,,,,,,,,,,,,,,,,,,,t,1.7938528000377119,586.8993607000448,None,586.8993607000448,None,2022-07-18-12:45:16.389206,588.7293543997221,589.0325818997808,588.7293543997221,None,None,588.7293543997221,None,589.5325547997375,None,,,,21006,0002,2022_Jul_18_1235,localizer,2021.1.3,59.38545554582773,
block,objects,objects067.bmp,,,,,0,47,47,47,,,,,,,,,,,,,,,,,,,,,,,,,,,,,,,,,,,,,,,,,,None,,589.5325547997375,None,589.5325547997375,None,2022-07-18-12:45:17.204910,589.5422459999099,589.8495167000219,589.5422459999099,None,None,589.5422459999099,None,590.3494119998534,None,,,,21006,0002,2022_Jul_18_1235,localizer,2021.1.3,59.38545554582773,
block,objects,objects008.bmp,,,,,0,48,48,48,,,,,,,,,,,,,,,,,,,,,,,,,,,,,,,,,,,,,,,,,,None,,590.3494119998534,None,590.3494119998534,None,2022-07-18-12:45:18.021762,590.3597613000311,590.6699047000147,590.3597613000311,None,None,590.3597613000311,None,591.1679902999197,None,,,,21006,0002,2022_Jul_18_1235,localizer,2021.1.3,59.38545554582773,
block,objects,objects040.bmp,,,,,0,49,49,49,,,,,,,,,,,,,,,,,,,,,,,,,,,,,,,,,,,,,,,,,,None,,591.1679902999197,None,591.1679902999197,None,2022-07-18-12:45:18.843294,591.1830198997632,591.4826091998257,591.1830198997632,None,None,591.1830198997632,None,591.9837807999459,None,,,,21006,0002,2022_Jul_18_1235,localizer,2021.1.3,59.38545554582773,
block,objects,objects032.bmp,,,,,0,50,50,50,,,,,,,,,,,,,,,,,,,,,,,,,,,,,,,,,,,,,,,,,,None,,591.9837807999459,None,591.9837807999459,None,2022-07-18-12:45:19.658034,591.9863108997233,592.2993654999882,591.9863108997233,None,None,591.9863108997233,None,592.7991231997032,None,,,,21006,0002,2022_Jul_18_1235,localizer,2021.1.3,59.38545554582773,
block,objects,objects065.bmp,,,,,0,51,51,51,,,,,,,,,,,,,,,,,,,,,,,,,,,,,,,,,,,,,,,,,,None,,592.7991231997032,None,592.7991231997032,None,2022-07-18-12:45:20.471476,592.8081105998717,593.116019600071,592.8081105998717,None,None,592.8081105998717,None,593.6158554000315,None,,,,21006,0002,2022_Jul_18_1235,localizer,2021.1.3,59.38545554582773,
block,objects,objects071.bmp,,,,,0,52,52,52,,,,,,,,,,,,,,,,,,,,,,,,,,,,,,,,,,,,,,,,,,None,,593.6158554000315,None,593.6158554000315,None,2022-07-18-12:45:21.288208,593.6255155000836,593.9325939998962,593.6255155000836,None,None,593.6255155000836,None,594.432855899958,None,,,,21006,0002,2022_Jul_18_1235,localizer,2021.1.3,59.38545554582773,
block,objects,objects054.bmp,,,,,0,53,53,53,,,,,,,,,,,,,,,,,,,,,,,,,,,,,,,,,,,,,,,,,,None,,594.432855899958,None,594.432855899958,None,2022-07-18-12:45:22.105396,594.4336959999055,594.7387292999774,594.4336959999055,None,None,594.4336959999055,None,595.233896900015,None,,,,21006,0002,2022_Jul_18_1235,localizer,2021.1.3,59.38545554582773,
block,objects,objects050.bmp,,,,,0,54,54,54,,,,,,,,,,,,,,,,,,,,,,,,,,,,,,,,,,,,,,,,,,None,,595.233896900015,None,595.233896900015,None,2022-07-18-12:45:22.909404,595.2383010000922,595.5491337999701,595.2383010000922,595.2383010000922,None,595.2383010000922,595.2383010000922,596.049370099837,None,,,,21006,0002,2022_Jul_18_1235,localizer,2021.1.3,59.38545554582773,
block,objects,objects018.bmp,,,,,0,55,55,55,,,,,,,,,,,,,,,,,,,,,,,,,,,,,,,,,,,,,,,,,,None,,596.049370099837,None,596.049370099837,None,2022-07-18-12:45:23.721723,596.0506406999193,596.3501492999494,596.0506406999193,None,None,596.0506406999193,None,596.8658415996936,None,,,,21006,0002,2022_Jul_18_1235,localizer,2021.1.3,59.38545554582773,
block,objects,objects001.bmp,,,,,0,56,56,56,,,,,,,,,,,,,,,,,,,,,,,,,,,,,,,,,,,,,,,,,,None,,596.8658415996936,None,596.8658415996936,None,2022-07-18-12:45:24.538195,596.8672537999228,597.1826836001128,596.8672537999228,None,None,596.8672537999228,None,597.6671763998922,None,,,,21006,0002,2022_Jul_18_1235,localizer,2021.1.3,59.38545554582773,
block,objects,objects003.bmp,,,,,0,57,57,57,,,,,,,,,,,,,,,,,,,,,,,,,,,,,,,,,,,,,,,,,,None,,597.6671763998922,None,597.6671763998922,None,2022-07-18-12:45:25.342563,597.6712408997118,597.9833912998438,597.6712408997118,597.6712408997118,None,597.6712408997118,597.6712408997118,598.4834723999259,None,,,,21006,0002,2022_Jul_18_1235,localizer,2021.1.3,59.38545554582773,
block,objects,objects073.bmp,,,,,0,58,58,58,,,,,,,,,,,,,,,,,,,,,,,,,,,,,,,,,,,,,,,,,,None,,598.4834723999259,None,598.4834723999259,None,2022-07-18-12:45:26.157578,598.4959562998265,598.7995172999799,598.4959562998265,None,None,598.4959562998265,None,599.2993321996648,None,,,,21006,0002,2022_Jul_18_1235,localizer,2021.1.3,59.38545554582773,
block,objects,objects070.bmp,,,,,0,59,59,59,,,,,,,,,,,,,,,,,,,,,,,,,,,,,,,,,,,,,,,,,,None,,599.2993321996648,None,599.2993321996648,None,2022-07-18-12:45:26.971685,599.3007811000571,599.6160543998703,599.3007811000571,None,None,599.3007811000571,None,600.116047099745,None,,,,21006,0002,2022_Jul_18_1235,localizer,2021.1.3,59.38545554582773,
block_end,objects,objects058.bmp,,,,,0,60,60,60,,,,,,,,,,,,,,,,,,,,,,,,,,,,,,,,,,,,,,,,,,None,,600.116047099745,None,600.116047099745,None,2022-07-18-12:45:27.788417,600.1170437000692,600.4161483999342,600.1170437000692,None,None,600.1170437000692,None,600.932595599955,None,,,,21006,0002,2022_Jul_18_1235,localizer,2021.1.3,59.38545554582773,
block_start,faces,faces018.bmp,,,,,0,61,61,61,,,,,,,,,,,,,,,,,,,,,,,,,,,,,,,,,,,,,,,,,,t,1.7605074001476169,600.9327360996976,None,600.9327360996976,None,2022-07-18-12:45:30.386659,602.7198724998161,603.0328914998099,602.7198724998161,None,None,602.7198724998161,None,603.5330737997313,None,,,,21006,0002,2022_Jul_18_1235,localizer,2021.1.3,59.38545554582773,
block,faces,faces022.bmp,,,,,0,62,62,62,,,,,,,,,,,,,,,,,,,,,,,,,,,,,,,,,,,,,,,,,,None,,603.5330737997313,None,603.5330737997313,None,2022-07-18-12:45:31.205519,603.5338420998305,603.8494003997184,603.5338420998305,None,None,603.5338420998305,None,604.3495636997279,None,,,,21006,0002,2022_Jul_18_1235,localizer,2021.1.3,59.38545554582773,
block,faces,faces032.bmp,,,,,0,63,63,63,,,,,,,,,,,,,,,,,,,,,,,,,,,,,,,,,,,,,,,,,,None,,604.3495636997279,None,604.3495636997279,None,2022-07-18-12:45:32.022118,604.3607950001024,604.6663273000158,604.3607950001024,None,None,604.3607950001024,None,605.166129800072,None,,,,21006,0002,2022_Jul_18_1235,localizer,2021.1.3,59.38545554582773,
block,faces,faces032.bmp,,,,,0,64,64,64,,,,,,,,,,,,,,,,,,,,,,,,,,,,,,,,,,,,,,,,,,None,,605.166129800072,None,605.166129800072,None,2022-07-18-12:45:32.838479,605.1670985999517,605.4828435997479,605.1670985999517,None,y,605.1670985999517,None,605.9662194997538,None,0.7419779999181628,,,21006,0002,2022_Jul_18_1235,localizer,2021.1.3,59.38545554582773,
block,faces,faces019.bmp,,,,,0,65,65,65,,,,,,,,,,,,,,,,,,,,,,,,,,,,,,,,,,,,,,,,,,None,,605.9662194997538,None,605.9662194997538,None,2022-07-18-12:45:33.640560,605.9862286997959,606.2993946000934,605.9862286997959,605.9862286997959,None,605.9862286997959,605.9862286997959,606.7828695998062,None,,,,21006,0002,2022_Jul_18_1235,localizer,2021.1.3,59.38545554582773,
block,faces,faces046.bmp,,,,,0,66,66,66,,,,,,,,,,,,,,,,,,,,,,,,,,,,,,,,,,,,,,,,,,None,,606.7828695998062,None,606.7828695998062,None,2022-07-18-12:45:34.455224,606.7838822999038,607.0989160998724,606.7838822999038,None,None,606.7838822999038,None,607.5991401998792,None,,,,21006,0002,2022_Jul_18_1235,localizer,2021.1.3,59.38545554582773,
block,faces,faces009.bmp,,,,,0,67,67,67,,,,,,,,,,,,,,,,,,,,,,,,,,,,,,,,,,,,,,,,,,None,,607.5991401998792,None,607.5991401998792,None,2022-07-18-12:45:35.270498,607.6079830001108,607.9160937000997,607.6079830001108,None,None,607.6079830001108,None,608.416104199877,None,,,,21006,0002,2022_Jul_18_1235,localizer,2021.1.3,59.38545554582773,
block,faces,faces067.bmp,,,,,0,68,68,68,,,,,,,,,,,,,,,,,,,,,,,,,,,,,,,,,,,,,,,,,,None,,608.416104199877,None,608.416104199877,None,2022-07-18-12:45:36.088436,608.417131899856,608.7163219996728,608.417131899856,None,None,608.417131899856,None,609.2168987999205,None,,,,21006,0002,2022_Jul_18_1235,localizer,2021.1.3,59.38545554582773,
block,faces,faces062.bmp,,,,,0,69,69,69,,,,,,,,,,,,,,,,,,,,,,,,,,,,,,,,,,,,,,,,,,None,,609.2168987999205,None,609.2168987999205,None,2022-07-18-12:45:36.891474,609.2180055999197,609.5328421001323,609.2180055999197,609.2180055999197,None,609.2180055999197,609.2180055999197,610.0329588996713,None,,,,21006,0002,2022_Jul_18_1235,localizer,2021.1.3,59.38545554582773,
block,faces,faces048.bmp,,,,,0,70,70,70,,,,,,,,,,,,,,,,,,,,,,,,,,,,,,,,,,,,,,,,,,None,,610.0329588996713,None,610.0329588996713,None,2022-07-18-12:45:37.705816,610.04548420012,610.3496018000878,610.04548420012,None,None,610.04548420012,None,610.8500953000505,None,,,,21006,0002,2022_Jul_18_1235,localizer,2021.1.3,59.38545554582773,
block,faces,faces066.bmp,,,,,0,71,71,71,,,,,,,,,,,,,,,,,,,,,,,,,,,,,,,,,,,,,,,,,,None,,610.8500953000505,None,610.8500953000505,None,2022-07-18-12:45:38.523491,610.8625447996892,611.1663573998958,610.8625447996892,None,None,610.8625447996892,None,611.6662570001092,None,,,,21006,0002,2022_Jul_18_1235,localizer,2021.1.3,59.38545554582773,
block,faces,faces056.bmp,,,,,0,72,72,72,,,,,,,,,,,,,,,,,,,,,,,,,,,,,,,,,,,,,,,,,,None,,611.6662570001092,None,611.6662570001092,None,2022-07-18-12:45:39.338604,611.6773473001085,611.9825110998936,611.6773473001085,None,None,611.6773473001085,None,612.48282819991,None,,,,21006,0002,2022_Jul_18_1235,localizer,2021.1.3,59.38545554582773,
block,faces,faces026.bmp,,,,,0,73,73,73,,,,,,,,,,,,,,,,,,,,,,,,,,,,,,,,,,,,,,,,,,None,,612.48282819991,None,612.48282819991,None,2022-07-18-12:45:40.155195,612.4836993999779,612.7992759998888,612.4836993999779,None,None,612.4836993999779,None,613.2991481996607,None,,,,21006,0002,2022_Jul_18_1235,localizer,2021.1.3,59.38545554582773,
block,faces,faces057.bmp,,,,,0,74,74,74,,,,,,,,,,,,,,,,,,,,,,,,,,,,,,,,,,,,,,,,,,None,,613.2991481996607,None,613.2991481996607,None,2022-07-18-12:45:40.971505,613.3010451998562,613.6162697998807,613.3010451998562,None,None,613.3010451998562,None,614.1162914000918,None,,,,21006,0002,2022_Jul_18_1235,localizer,2021.1.3,59.38545554582773,
block_end,faces,faces015.bmp,,,,,0,75,75,75,,,,,,,,,,,,,,,,,,,,,,,,,,,,,,,,,,,,,,,,,,None,,614.1162914000918,None,614.1162914000918,None,2022-07-18-12:45:41.788637,614.1172684999183,614.4330512001179,614.1172684999183,None,None,614.1172684999183,None,614.9162738998887,None,,,,21006,0002,2022_Jul_18_1235,localizer,2021.1.3,59.38545554582773,
null_block,null_block,null_block.bmp,,,,,0,76,76,76,,,,,,,,,,,,,,,,,,,,,,,,,,,,,,,,,,,,,,,,,,t,1.7769937999546528,614.916222400032,None,614.916222400032,None,2022-07-18-12:45:44.387545,616.7161923996639,None,616.7161923996639,None,None,616.7161923996639,None,616.7265065000392,None,,,,21006,0002,2022_Jul_18_1235,localizer,2021.1.3,59.38545554582773,
block_start,scrambled,scrambled086.bmp,,,,,0,77,77,77,,,,,,,,,,,,,,,,,,,,,,,,,,,,,,,,,,,,,,,,,,t,1.959017800167203,628.7340615000576,None,628.7340615000576,None,2022-07-18-12:45:58.393285,630.7209572000429,631.0327996998094,630.7209572000429,None,None,630.7209572000429,None,631.533061099751,None,,,,21006,0002,2022_Jul_18_1235,localizer,2021.1.3,59.38545554582773,
block,scrambled,scrambled074.bmp,,,,,0,78,78,78,,,,,,,,,,,,,,,,,,,,,,,,,,,,,,,,,,,,,,,,,,None,,631.533061099751,None,631.533061099751,None,2022-07-18-12:45:59.205403,631.5339385000989,631.8495534998365,631.5339385000989,None,None,631.5339385000989,None,632.3502849997487,None,,,,21006,0002,2022_Jul_18_1235,localizer,2021.1.3,59.38545554582773,
block,scrambled,scrambled075.bmp,,,,,0,79,79,79,,,,,,,,,,,,,,,,,,,,,,,,,,,,,,,,,,,,,,,,,,None,,632.3502849997487,None,632.3502849997487,None,2022-07-18-12:46:00.022181,632.3505973997526,632.6664563999511,632.3505973997526,None,None,632.3505973997526,None,633.1496692998801,None,,,,21006,0002,2022_Jul_18_1235,localizer,2021.1.3,59.38545554582773,
block,scrambled,scrambled033.bmp,,,,,0,80,80,80,,,,,,,,,,,,,,,,,,,,,,,,,,,,,,,,,,,,,,,,,,None,,633.1496692998801,None,633.1496692998801,None,2022-07-18-12:46:00.824039,633.1618337999098,633.4663327001035,633.1618337999098,633.1618337999098,None,633.1618337999098,633.1618337999098,633.9664914999623,None,,,,21006,0002,2022_Jul_18_1235,localizer,2021.1.3,59.38545554582773,
block,scrambled,scrambled070.bmp,,,,,0,81,81,81,,,,,,,,,,,,,,,,,,,,,,,,,,,,,,,,,,,,,,,,,,None,,633.9664914999623,None,633.9664914999623,None,2022-07-18-12:46:01.639065,633.9673403999768,634.2830286999233,633.9673403999768,None,None,633.9673403999768,None,634.7830029996578,None,,,,21006,0002,2022_Jul_18_1235,localizer,2021.1.3,59.38545554582773,
block,scrambled,scrambled053.bmp,,,,,0,82,82,82,,,,,,,,,,,,,,,,,,,,,,,,,,,,,,,,,,,,,,,,,,None,,634.7830029996578,None,634.7830029996578,None,2022-07-18-12:46:02.455350,634.7837718999945,635.0830895998515,634.7837718999945,None,None,634.7837718999945,None,635.583434599964,None,,,,21006,0002,2022_Jul_18_1235,localizer,2021.1.3,59.38545554582773,
block,scrambled,scrambled029.bmp,,,,,0,83,83,83,,,,,,,,,,,,,,,,,,,,,,,,,,,,,,,,,,,,,,,,,,None,,635.583434599964,None,635.583434599964,None,2022-07-18-12:46:03.258746,635.5969360000454,635.899806600064,635.5969360000454,635.5969360000454,None,635.5969360000454,635.5969360000454,636.3996234001127,None,,,,21006,0002,2022_Jul_18_1235,localizer,2021.1.3,59.38545554582773,
block,scrambled,scrambled001.bmp,,,,,0,84,84,84,,,,,,,,,,,,,,,,,,,,,,,,,,,,,,,,,,,,,,,,,,None,,636.3996234001127,None,636.3996234001127,None,2022-07-18-12:46:04.072393,636.4103957000189,636.716166399885,636.4103957000189,None,None,636.4103957000189,None,637.2164170998615,None,,,,21006,0002,2022_Jul_18_1235,localizer,2021.1.3,59.38545554582773,
block,scrambled,scrambled003.bmp,,,,,0,85,85,85,,,,,,,,,,,,,,,,,,,,,,,,,,,,,,,,,,,,,,,,,,None,,637.2164170998615,None,637.2164170998615,None,2022-07-18-12:46:04.888763,637.2265514000319,637.5336592998356,637.2265514000319,None,None,637.2265514000319,None,638.0331198000815,None,,,,21006,0002,2022_Jul_18_1235,localizer,2021.1.3,59.38545554582773,
block,scrambled,scrambled081.bmp,,,,,0,86,86,86,,,,,,,,,,,,,,,,,,,,,,,,,,,,,,,,,,,,,,,,,,None,,638.0331198000815,None,638.0331198000815,None,2022-07-18-12:46:05.705471,638.0339433001354,638.3497874001041,638.0339433001354,None,None,638.0339433001354,None,638.833021599846,None,,,,21006,0002,2022_Jul_18_1235,localizer,2021.1.3,59.38545554582773,
block,scrambled,scrambled016.bmp,,,,,0,87,87,87,,,,,,,,,,,,,,,,,,,,,,,,,,,,,,,,,,,,,,,,,,None,,638.833021599846,None,638.833021599846,None,2022-07-18-12:46:06.506352,638.84370449977,639.1497069997713,638.84370449977,638.84370449977,None,638.84370449977,638.84370449977,639.6499354998116,None,,,,21006,0002,2022_Jul_18_1235,localizer,2021.1.3,59.38545554582773,
block,scrambled,scrambled080.bmp,,,,,0,88,88,88,,,,,,,,,,,,,,,,,,,,,,,,,,,,,,,,,,,,,,,,,,None,,639.6499354998116,None,639.6499354998116,None,2022-07-18-12:46:07.322376,639.6506826998666,639.9501171000302,639.6506826998666,None,None,639.6506826998666,None,640.4516463997309,None,,,,21006,0002,2022_Jul_18_1235,localizer,2021.1.3,59.38545554582773,
block,scrambled,scrambled027.bmp,,,,,0,89,89,89,,,,,,,,,,,,,,,,,,,,,,,,,,,,,,,,,,,,,,,,,,None,,640.4516463997309,None,640.4516463997309,None,2022-07-18-12:46:08.130126,640.4581419001333,640.766860099975,640.4581419001333,640.4581419001333,None,640.4581419001333,640.4581419001333,641.2663714997936,None,,,,21006,0002,2022_Jul_18_1235,localizer,2021.1.3,59.38545554582773,
block,scrambled,scrambled031.bmp,,,,,0,90,90,90,,,,,,,,,,,,,,,,,,,,,,,,,,,,,,,,,,,,,,,,,,None,,641.2663714997936,None,641.2663714997936,None,2022-07-18-12:46:08.938942,641.2671511997469,641.5664924001321,641.2671511997469,None,None,641.2671511997469,None,642.0827198001091,None,,,,21006,0002,2022_Jul_18_1235,localizer,2021.1.3,59.38545554582773,
block_end,scrambled,scrambled042.bmp,,,,,0,91,91,91,,,,,,,,,,,,,,,,,,,,,,,,,,,,,,,,,,,,,,,,,,None,,642.0827198001091,None,642.0827198001091,None,2022-07-18-12:46:09.753595,642.0848321998492,642.3997132997029,642.0848321998492,None,None,642.0848321998492,None,642.8996250997764,None,,,,21006,0002,2022_Jul_18_1235,localizer,2021.1.3,59.38545554582773,
block_start,objects,objects019.bmp,,,,,0,92,92,92,,,,,,,,,,,,,,,,,,,,,,,,,,,,,,,,,,,,,,,,,,t,1.7925671003758907,642.899758100044,None,642.899758100044,None,2022-07-18-12:46:12.386821,644.7181028998457,645.0329757998697,644.7181028998457,None,None,644.7181028998457,None,645.5173812997994,None,,,,21006,0002,2022_Jul_18_1235,localizer,2021.1.3,59.38545554582773,
block,objects,objects025.bmp,,,,,0,93,93,93,,,,,,,,,,,,,,,,,,,,,,,,,,,,,,,,,,,,,,,,,,None,,645.5173812997994,None,645.5173812997994,None,2022-07-18-12:46:13.193893,645.5322345998138,645.832900499925,645.5322345998138,645.5322345998138,None,645.5322345998138,645.5322345998138,646.332749899989,None,,,,21006,0002,2022_Jul_18_1235,localizer,2021.1.3,59.38545554582773,
block,objects,objects087.bmp,,,,,0,94,94,94,,,,,,,,,,,,,,,,,,,,,,,,,,,,,,,,,,,,,,,,,,None,,646.332749899989,None,646.332749899989,None,2022-07-18-12:46:14.005050,646.3370050000958,646.649971799925,646.3370050000958,None,None,646.3370050000958,None,647.1497293999885,None,,,,21006,0002,2022_Jul_18_1235,localizer,2021.1.3,59.38545554582773,
block,objects,objects076.bmp,,,,,0,95,95,95,,,,,,,,,,,,,,,,,,,,,,,,,,,,,,,,,,,,,,,,,,None,,647.1497293999885,None,647.1497293999885,None,2022-07-18-12:46:14.822294,647.1604078998789,647.4670283999294,647.1604078998789,None,None,647.1604078998789,None,647.966845199978,None,,,,21006,0002,2022_Jul_18_1235,localizer,2021.1.3,59.38545554582773,
block,objects,objects085.bmp,,,,,0,96,96,96,,,,,,,,,,,,,,,,,,,,,,,,,,,,,,,,,,,,,,,,,,None,,647.966845199978,None,647.966845199978,None,2022-07-18-12:46:15.640379,647.9785500997677,648.283055299893,647.9785500997677,None,None,647.9785500997677,None,648.7831391999964,None,,,,21006,0002,2022_Jul_18_1235,localizer,2021.1.3,59.38545554582773,
block,objects,objects049.bmp,,,,,0,97,97,97,,,,,,,,,,,,,,,,,,,,,,,,,,,,,,,,,,,,,,,,,,None,,648.7831391999964,None,648.7831391999964,None,2022-07-18-12:46:16.455609,648.7839818000793,649.0996866999194,648.7839818000793,None,None,648.7839818000793,None,649.5849337000866,None,,,,21006,0002,2022_Jul_18_1235,localizer,2021.1.3,59.38545554582773,
block,objects,objects079.bmp,,,,,0,98,98,98,,,,,,,,,,,,,,,,,,,,,,,,,,,,,,,,,,,,,,,,,,None,,649.5849337000866,None,649.5849337000866,None,2022-07-18-12:46:17.263462,649.6008275998756,649.9164853999391,649.6008275998756,649.6008275998756,None,649.6008275998756,649.6008275998756,650.4008481000085,None,,,,21006,0002,2022_Jul_18_1235,localizer,2021.1.3,59.38545554582773,
block,objects,objects018.bmp,,,,,0,99,99,99,,,,,,,,,,,,,,,,,,,,,,,,,,,,,,,,,,,,,,,,,,None,,650.4008481000085,None,650.4008481000085,None,2022-07-18-12:46:18.074178,650.4028985998593,650.7170246001333,650.4028985998593,None,None,650.4028985998593,None,651.2162370998878,None,,,,21006,0002,2022_Jul_18_1235,localizer,2021.1.3,59.38545554582773,
block,objects,objects015.bmp,,,,,0,100,100,100,,,,,,,,,,,,,,,,,,,,,,,,,,,,,,,,,,,,,,,,,,None,,651.2162370998878,None,651.2162370998878,None,2022-07-18-12:46:18.888932,651.2173060998321,651.5164407999255,651.2173060998321,None,None,651.2173060998321,None,652.0174370999914,None,,,,21006,0002,2022_Jul_18_1235,localizer,2021.1.3,59.38545554582773,
block,objects,objects050.bmp,,,,,0,101,101,101,,,,,,,,,,,,,,,,,,,,,,,,,,,,,,,,,,,,,,,,,,None,,652.0174370999914,None,652.0174370999914,None,2022-07-18-12:46:19.693835,652.0230918996967,652.3211691998877,652.0230918996967,652.0230918996967,None,652.0230918996967,652.0230918996967,652.8332030997146,None,,,,21006,0002,2022_Jul_18_1235,localizer,2021.1.3,59.38545554582773,
block,objects,objects071.bmp,,,,,0,102,102,102,,,,,,,,,,,,,,,,,,,,,,,,,,,,,,,,,,,,,,,,,,None,,652.8332030997146,None,652.8332030997146,None,2022-07-18-12:46:20.505546,652.8340648999438,653.1497438000515,652.8340648999438,None,None,652.8340648999438,None,653.6496239998844,None,,,,21006,0002,2022_Jul_18_1235,localizer,2021.1.3,59.38545554582773,
block,objects,objects010.bmp,,,,,0,103,103,103,,,,,,,,,,,,,,,,,,,,,,,,,,,,,,,,,,,,,,,,,,None,,653.6496239998844,None,653.6496239998844,None,2022-07-18-12:46:21.321977,653.6589452000335,653.9664385998622,653.6589452000335,None,None,653.6589452000335,None,654.4664718998131,None,,,,21006,0002,2022_Jul_18_1235,localizer,2021.1.3,59.38545554582773,
block,objects,objects024.bmp,,,,,0,104,104,104,,,,,,,,,,,,,,,,,,,,,,,,,,,,,,,,,,,,,,,,,,None,,654.4664718998131,None,654.4664718998131,None,2022-07-18-12:46:22.139052,654.4673991999589,654.7665750999004,654.4673991999589,None,None,654.4673991999589,None,655.2666380000767,None,,,,21006,0002,2022_Jul_18_1235,localizer,2021.1.3,59.38545554582773,
block,objects,objects055.bmp,,,,,0,105,105,105,,,,,,,,,,,,,,,,,,,,,,,,,,,,,,,,,,,,,,,,,,None,,655.2666380000767,None,655.2666380000767,None,2022-07-18-12:46:22.941084,655.2796044000424,655.5832666000351,655.2796044000424,655.2796044000424,None,655.2796044000424,655.2796044000424,656.0841278997716,None,,,,21006,0002,2022_Jul_18_1235,localizer,2021.1.3,59.38545554582773,
block_end,objects,objects060.bmp,,,,,0,106,106,106,,,,,,,,,,,,,,,,,,,,,,,,,,,,,,,,,,,,,,,,,,None,,656.0841278997716,None,656.0841278997716,None,2022-07-18-12:46:23.757640,656.0867729997262,656.4009651998058,656.0867729997262,None,None,656.0867729997262,None,656.9008376999293,None,,,,21006,0002,2022_Jul_18_1235,localizer,2021.1.3,59.38545554582773,
block_start,scenes,scenes060.bmp,,,,,0,107,107,107,,,,,,,,,,,,,,,,,,,,,,,,,,,,,,,,,,,,,,,,,,t,1.791064899880439,656.9009940000251,None,656.9009940000251,None,2022-07-18-12:46:26.393022,658.7347927000374,659.0498893000185,658.7347927000374,None,None,658.7347927000374,None,659.5332378000487,None,,,,21006,0002,2022_Jul_18_1235,localizer,2021.1.3,59.38545554582773,
block,scenes,scenes008.bmp,,,,,0,108,108,108,,,,,,,,,,,,,,,,,,,,,,,,,,,,,,,,,,,,,,,,,,None,,659.5332378000487,None,659.5332378000487,None,2022-07-18-12:46:27.205802,659.5340867000632,659.8354042000137,659.5340867000632,None,None,659.5340867000632,None,660.3395066997502,None,,,,21006,0002,2022_Jul_18_1235,localizer,2021.1.3,59.38545554582773,
block,scenes,scenes043.bmp,,,,,0,109,109,109,,,,,,,,,,,,,,,,,,,,,,,,,,,,,,,,,,,,,,,,,,None,,660.3395066997502,None,660.3395066997502,None,2022-07-18-12:46:28.015889,660.3542963997461,660.6665614000522,660.3542963997461,None,None,660.3542963997461,None,661.1502494998742,None,,,,21006,0002,2022_Jul_18_1235,localizer,2021.1.3,59.38545554582773,
block,scenes,scenes058.bmp,,,,,0,110,110,110,,,,,,,,,,,,,,,,,,,,,,,,,,,,,,,,,,,,,,,,,,None,,661.1502494998742,None,661.1502494998742,None,2022-07-18-12:46:28.823370,661.151222600136,661.4502773997374,661.151222600136,None,None,661.151222600136,None,661.9661625000183,None,,,,21006,0002,2022_Jul_18_1235,localizer,2021.1.3,59.38545554582773,
block,scenes,scenes048.bmp,,,,,0,111,111,111,,,,,,,,,,,,,,,,,,,,,,,,,,,,,,,,,,,,,,,,,,None,,661.9661625000183,None,661.9661625000183,None,2022-07-18-12:46:29.638513,661.9767367998138,662.2832324998453,661.9767367998138,None,None,661.9767367998138,None,662.7831788999495,None,,,,21006,0002,2022_Jul_18_1235,localizer,2021.1.3,59.38545554582773,
block,scenes,scenes067.bmp,,,,,0,112,112,112,,,,,,,,,,,,,,,,,,,,,,,,,,,,,,,,,,,,,,,,,,None,,662.7831788999495,None,662.7831788999495,None,2022-07-18-12:46:30.455526,662.7893296997063,663.1000084998086,662.7893296997063,None,None,662.7893296997063,None,663.5996129997541,None,,,,21006,0002,2022_Jul_18_1235,localizer,2021.1.3,59.38545554582773,
block,scenes,scenes016.bmp,,,,,0,113,113,113,,,,,,,,,,,,,,,,,,,,,,,,,,,,,,,,,,,,,,,,,,None,,663.5996129997541,None,663.5996129997541,None,2022-07-18-12:46:31.272212,663.6008632997982,663.900299299974,663.6008632997982,None,None,663.6008632997982,None,664.4002479999792,None,,,,21006,0002,2022_Jul_18_1235,localizer,2021.1.3,59.38545554582773,
block,scenes,scenes087.bmp,,,,,0,114,114,114,,,,,,,,,,,,,,,,,,,,,,,,,,,,,,,,,,,,,,,,,,None,,664.4002479999792,None,664.4002479999792,None,2022-07-18-12:46:32.074878,664.4024696997367,664.7163682999089,664.4024696997367,664.4024696997367,None,664.4024696997367,664.4024696997367,665.2165130000096,None,,,,21006,0002,2022_Jul_18_1235,localizer,2021.1.3,59.38545554582773,
block,scenes,scenes046.bmp,,,,,0,115,115,115,,,,,,,,,,,,,,,,,,,,,,,,,,,,,,,,,,,,,,,,,,None,,665.2165130000096,None,665.2165130000096,None,2022-07-18-12:46:32.889075,665.2276365999132,665.5327694998123,665.2276365999132,None,None,665.2276365999132,None,666.0351705998648,None,,,,21006,0002,2022_Jul_18_1235,localizer,2021.1.3,59.38545554582773,
block,scenes,scenes049.bmp,,,,,0,116,116,116,,,,,,,,,,,,,,,,,,,,,,,,,,,,,,,,,,,,,,,,,,None,,666.0351705998648,None,666.0351705998648,None,2022-07-18-12:46:33.710653,666.0385385998525,666.3505148999393,666.0385385998525,None,None,666.0385385998525,None,666.8499053000007,None,,,,21006,0002,2022_Jul_18_1235,localizer,2021.1.3,59.38545554582773,
block,scenes,scenes051.bmp,,,,,0,117,117,117,,,,,,,,,,,,,,,,,,,,,,,,,,,,,,,,,,,,,,,,,,None,,666.8499053000007,None,666.8499053000007,None,2022-07-18-12:46:34.522253,666.8592833997682,667.1663580001332,666.8592833997682,None,None,666.8592833997682,None,667.6571136001032,None,,,,21006,0002,2022_Jul_18_1235,localizer,2021.1.3,59.38545554582773,
block,scenes,scenes015.bmp,,,,,0,118,118,118,,,,,,,,,,,,,,,,,,,,,,,,,,,,,,,,,,,,,,,,,,None,,667.6571136001032,None,667.6571136001032,None,2022-07-18-12:46:35.335195,667.6634045001119,667.9662517998368,667.6634045001119,None,None,667.6634045001119,None,668.4668274997268,None,,,,21006,0002,2022_Jul_18_1235,localizer,2021.1.3,59.38545554582773,
block,scenes,scenes032.bmp,,,,,0,119,119,119,,,,,,,,,,,,,,,,,,,,,,,,,,,,,,,,,,,,,,,,,,None,,668.4668274997268,None,668.4668274997268,None,2022-07-18-12:46:36.139370,668.4676252999343,668.7692549997009,668.4676252999343,None,None,668.4676252999343,None,669.2831808999647,None,,,,21006,0002,2022_Jul_18_1235,localizer,2021.1.3,59.38545554582773,
block,scenes,scenes078.bmp,,,,,0,120,120,120,,,,,,,,,,,,,,,,,,,,,,,,,,,,,,,,,,,,,,,,,,None,,669.2831808999647,None,669.2831808999647,None,2022-07-18-12:46:36.955737,669.2839774000458,669.5832747998647,669.2839774000458,None,None,669.2839774000458,None,670.0833063996863,None,,,,21006,0002,2022_Jul_18_1235,localizer,2021.1.3,59.38545554582773,
block_end,scenes,scenes073.bmp,,,,,0,121,121,121,,,,,,,,,,,,,,,,,,,,,,,,,,,,,,,,,,,,,,,,,,None,,670.0833063996863,None,670.0833063996863,None,2022-07-18-12:46:37.757862,670.0934604997747,670.3998153000139,670.0934604997747,670.0934604997747,None,670.0934604997747,670.0934604997747,670.8998965998646,None,,,,21006,0002,2022_Jul_18_1235,localizer,2021.1.3,59.38545554582773,
null_block,null_block,null_block.bmp,,,,,0,122,122,122,,,,,,,,,,,,,,,,,,,,,,,,,,,,,,,,,,,,,,,,,,t,1.7921059997752309,670.8998815999366,None,670.8998815999366,None,2022-07-18-12:46:40.387057,672.716507399967,None,672.716507399967,None,None,672.716507399967,None,672.7173105999827,None,,,,21006,0002,2022_Jul_18_1235,localizer,2021.1.3,59.38545554582773,
block_start,faces,faces016.bmp,,,,,0,123,123,123,,,,,,,,,,,,,,,,,,,,,,,,,,,,,,,,,,,,,,,,,,t,1.9749476998113096,684.7169518996961,None,684.7169518996961,None,2022-07-18-12:46:54.388761,686.7177149998024,687.0332844001241,686.7177149998024,None,None,686.7177149998024,None,687.5184966996778,None,,,,21006,0002,2022_Jul_18_1235,localizer,2021.1.3,59.38545554582773,
block,faces,faces001.bmp,,,,,0,124,124,124,,,,,,,,,,,,,,,,,,,,,,,,,,,,,,,,,,,,,,,,,,None,,687.5184966996778,None,687.5184966996778,None,2022-07-18-12:46:55.195770,687.5226281001233,687.8229819000699,687.5226281001233,687.5226281001233,None,687.5226281001233,687.5226281001233,688.3224196997937,None,,,,21006,0002,2022_Jul_18_1235,localizer,2021.1.3,59.38545554582773,
block,faces,faces080.bmp,,,,,0,125,125,125,,,,,,,,,,,,,,,,,,,,,,,,,,,,,,,,,,,,,,,,,,None,,688.3224196997937,None,688.3224196997937,None,2022-07-18-12:46:56.003728,688.3327887998894,688.633738799952,688.3327887998894,688.3327887998894,None,688.3327887998894,688.3327887998894,689.1338880998549,None,,,,21006,0002,2022_Jul_18_1235,localizer,2021.1.3,59.38545554582773,
block,faces,faces023.bmp,,,,,0,126,126,126,,,,,,,,,,,,,,,,,,,,,,,,,,,,,,,,,,,,,,,,,,None,,689.1338880998549,None,689.1338880998549,None,2022-07-18-12:46:56.807420,689.1368978996761,689.4505445999093,689.1368978996761,None,None,689.1368978996761,None,689.9505007998553,None,,,,21006,0002,2022_Jul_18_1235,localizer,2021.1.3,59.38545554582773,
block,faces,faces007.bmp,,,,,0,127,127,127,,,,,,,,,,,,,,,,,,,,,,,,,,,,,,,,,,,,,,,,,,None,,689.9505007998553,None,689.9505007998553,None,2022-07-18-12:46:57.624029,689.951262800023,690.2665114998817,689.951262800023,None,None,689.951262800023,None,690.7666286998895,None,,,,21006,0002,2022_Jul_18_1235,localizer,2021.1.3,59.38545554582773,
block,faces,faces045.bmp,,,,,0,128,128,128,,,,,,,,,,,,,,,,,,,,,,,,,,,,,,,,,,,,,,,,,,None,,690.7666286998895,None,690.7666286998895,None,2022-07-18-12:46:58.438975,690.767410099972,691.0667131999508,690.767410099972,None,None,690.767410099972,None,691.5709000998643,None,,,,21006,0002,2022_Jul_18_1235,localizer,2021.1.3,59.38545554582773,
block,faces,faces033.bmp,,,,,0,129,129,129,,,,,,,,,,,,,,,,,,,,,,,,,,,,,,,,,,,,,,,,,,None,,691.5709000998643,None,691.5709000998643,None,2022-07-18-12:46:59.247400,691.5744620999321,691.8832070999779,691.5744620999321,691.5744620999321,None,691.5744620999321,691.5744620999321,692.3893358996604,None,,,,21006,0002,2022_Jul_18_1235,localizer,2021.1.3,59.38545554582773,
block,faces,faces070.bmp,,,,,0,130,130,130,,,,,,,,,,,,,,,,,,,,,,,,,,,,,,,,,,,,,,,,,,None,,692.3893358996604,None,692.3893358996604,None,2022-07-18-12:47:00.069915,692.4036070001312,692.7172395000234,692.4036070001312,None,None,692.4036070001312,None,693.2000356996898,None,,,,21006,0002,2022_Jul_18_1235,localizer,2021.1.3,59.38545554582773,
block,faces,faces038.bmp,,,,,0,131,131,131,,,,,,,,,,,,,,,,,,,,,,,,,,,,,,,,,,,,,,,,,,None,,693.2000356996898,None,693.2000356996898,None,2022-07-18-12:47:00.872379,693.2171696997248,693.5166468997486,693.2171696997248,None,None,693.2171696997248,None,694.0165991997812,None,,,,21006,0002,2022_Jul_18_1235,localizer,2021.1.3,59.38545554582773,
block,faces,faces012.bmp,,,,,0,132,132,132,,,,,,,,,,,,,,,,,,,,,,,,,,,,,,,,,,,,,,,,,,None,,694.0165991997812,None,694.0165991997812,None,2022-07-18-12:47:01.689257,694.0280283996835,694.3346265000291,694.0280283996835,None,None,694.0280283996835,None,694.8345112000127,None,,,,21006,0002,2022_Jul_18_1235,localizer,2021.1.3,59.38545554582773,
block,faces,faces058.bmp,,,,,0,133,133,133,,,,,,,,,,,,,,,,,,,,,,,,,,,,,,,,,,,,,,,,,,None,,694.8345112000127,None,694.8345112000127,None,2022-07-18-12:47:02.508836,694.8492793999612,695.1510028997436,694.8492793999612,None,None,694.8492793999612,None,695.6510230997112,None,,,,21006,0002,2022_Jul_18_1235,localizer,2021.1.3,59.38545554582773,
block,faces,faces057.bmp,,,,,0,134,134,134,,,,,,,,,,,,,,,,,,,,,,,,,,,,,,,,,,,,,,,,,,None,,695.6510230997112,None,695.6510230997112,None,2022-07-18-12:47:03.324535,695.6534211998805,695.9669669000432,695.6534211998805,None,None,695.6534211998805,None,696.4666243000422,None,,,,21006,0002,2022_Jul_18_1235,localizer,2021.1.3,59.38545554582773,
block,faces,faces053.bmp,,,,,0,135,135,135,,,,,,,,,,,,,,,,,,,,,,,,,,,,,,,,,,,,,,,,,,None,,696.4666243000422,None,696.4666243000422,None,2022-07-18-12:47:04.138972,696.4676942997612,696.7667809999548,696.4676942997612,None,None,696.4676942997612,None,697.2666992997285,None,,,,21006,0002,2022_Jul_18_1235,localizer,2021.1.3,59.38545554582773,
block,faces,faces018.bmp,,,,,0,136,136,136,,,,,,,,,,,,,,,,,,,,,,,,,,,,,,,,,,,,,,,,,,None,,697.2666992997285,None,697.2666992997285,None,2022-07-18-12:47:04.941042,697.2682777997106,697.5837797001004,697.2682777997106,697.2682777997106,None,697.2682777997106,697.2682777997106,698.08357119984,None,,,,21006,0002,2022_Jul_18_1235,localizer,2021.1.3,59.38545554582773,
block_end,faces,faces064.bmp,,,,,0,137,137,137,,,,,,,,,,,,,,,,,,,,,,,,,,,,,,,,,,,,,,,,,,None,,698.08357119984,None,698.08357119984,None,2022-07-18-12:47:05.756124,698.0843492001295,698.4000117001124,698.0843492001295,None,None,698.0843492001295,None,698.8833772000391,None,,,,21006,0002,2022_Jul_18_1235,localizer,2021.1.3,59.38545554582773,
block_start,scenes,scenes023.bmp,,,,,0,138,138,138,,,,,,,,,,,,,,,,,,,,,,,,,,,,,,,,,,,,,,,,,,t,1.8086671000346541,698.8833277998492,None,698.8833277998492,None,2022-07-18-12:47:08.389599,700.7279551001266,701.0333567000926,700.7279551001266,None,None,700.7279551001266,None,701.5225201999303,None,,,,21006,0002,2022_Jul_18_1235,localizer,2021.1.3,59.38545554582773,
block,scenes,scenes020.bmp,,,,,0,139,139,139,,,,,,,,,,,,,,,,,,,,,,,,,,,,,,,,,,,,,,,,,,None,,701.5225201999303,None,701.5225201999303,None,2022-07-18-12:47:09.202812,701.5408076001331,701.8504256997257,701.5408076001331,None,None,701.5408076001331,None,702.3331342000049,None,,,,21006,0002,2022_Jul_18_1235,localizer,2021.1.3,59.38545554582773,
block,scenes,scenes079.bmp,,,,,0,140,140,140,,,,,,,,,,,,,,,,,,,,,,,,,,,,,,,,,,,,,,,,,,None,,702.3331342000049,None,702.3331342000049,None,2022-07-18-12:47:10.005461,702.341714899987,702.6500425999984,702.341714899987,None,None,702.341714899987,None,703.1502038999927,None,,,,21006,0002,2022_Jul_18_1235,localizer,2021.1.3,59.38545554582773,
block,scenes,scenes030.bmp,,,,,0,141,141,141,,,,,,,,,,,,,,,,,,,,,,,,,,,,,,,,,,,,,,,,,,None,,703.1502038999927,None,703.1502038999927,None,2022-07-18-12:47:10.822549,703.1610600999556,703.4668678999878,703.1610600999556,None,None,703.1610600999556,None,703.9663441996556,None,,,,21006,0002,2022_Jul_18_1235,localizer,2021.1.3,59.38545554582773,
block,scenes,scenes003.bmp,,,,,0,142,142,142,,,,,,,,,,,,,,,,,,,,,,,,,,,,,,,,,,,,,,,,,,None,,703.9663441996556,None,703.9663441996556,None,2022-07-18-12:47:11.638690,703.9677657997236,704.2833150997758,703.9677657997236,None,None,703.9677657997236,None,704.7831357000862,None,,,,21006,0002,2022_Jul_18_1235,localizer,2021.1.3,59.38545554582773,
block,scenes,scenes012.bmp,,,,,0,143,143,143,,,,,,,,,,,,,,,,,,,,,,,,,,,,,,,,,,,,,,,,,,None,,704.7831357000862,None,704.7831357000862,None,2022-07-18-12:47:12.455484,704.7842812999152,705.099962099921,704.7842812999152,None,None,704.7842812999152,None,705.5842316998635,None,,,,21006,0002,2022_Jul_18_1235,localizer,2021.1.3,59.38545554582773,
block,scenes,scenes046.bmp,,,,,0,144,144,144,,,,,,,,,,,,,,,,,,,,,,,,,,,,,,,,,,,,,,,,,,None,,705.5842316998635,None,705.5842316998635,None,2022-07-18-12:47:13.259731,705.5876544998027,705.9009960000403,705.5876544998027,705.5876544998027,None,705.5876544998027,705.5876544998027,706.3998472998385,None,,,,21006,0002,2022_Jul_18_1235,localizer,2021.1.3,59.38545554582773,
block,scenes,scenes081.bmp,,,,,0,145,145,145,,,,,,,,,,,,,,,,,,,,,,,,,,,,,,,,,,,,,,,,,,None,,706.3998472998385,None,706.3998472998385,None,2022-07-18-12:47:14.072200,706.4096635999158,706.7169031999074,706.4096635999158,None,None,706.4096635999158,None,707.217108499771,None,,,,21006,0002,2022_Jul_18_1235,localizer,2021.1.3,59.38545554582773,
block,scenes,scenes033.bmp,,,,,0,146,146,146,,,,,,,,,,,,,,,,,,,,,,,,,,,,,,,,,,,,,,,,,,None,,707.217108499771,None,707.217108499771,None,2022-07-18-12:47:14.890537,707.2181862001307,707.533697700128,707.2181862001307,None,None,707.2181862001307,None,708.0336691998411,None,,,,21006,0002,2022_Jul_18_1235,localizer,2021.1.3,59.38545554582773,
block,scenes,scenes041.bmp,,,,,0,147,147,147,,,,,,,,,,,,,,,,,,,,,,,,,,,,,,,,,,,,,,,,,,None,,708.0336691998411,None,708.0336691998411,None,2022-07-18-12:47:15.706118,708.04549639998,708.3516389997676,708.04549639998,None,None,708.04549639998,None,708.8498342996929,None,,,,21006,0002,2022_Jul_18_1235,localizer,2021.1.3,59.38545554582773,
block,scenes,scenes056.bmp,,,,,0,148,148,148,,,,,,,,,,,,,,,,,,,,,,,,,,,,,,,,,,,,,,,,,,None,,708.8498342996929,None,708.8498342996929,None,2022-07-18-12:47:16.522188,708.8510217997245,709.1667361999862,708.8510217997245,None,None,708.8510217997245,None,709.655127599882,None,,,,21006,0002,2022_Jul_18_1235,localizer,2021.1.3,59.38545554582773,
block,scenes,scenes014.bmp,,,,,0,149,149,149,,,,,,,,,,,,,,,,,,,,,,,,,,,,,,,,,,,,,,,,,,None,,709.655127599882,None,709.655127599882,None,2022-07-18-12:47:17.331493,709.670668900013,709.9832290997729,709.670668900013,None,None,709.670668900013,None,710.4667076999788,None,,,,21006,0002,2022_Jul_18_1235,localizer,2021.1.3,59.38545554582773,
block,scenes,scenes048.bmp,,,,,0,150,150,150,,,,,,,,,,,,,,,,,,,,,,,,,,,,,,,,,,,,,,,,,,None,,710.4667076999788,None,710.4667076999788,None,2022-07-18-12:47:18.139058,710.4675473999232,710.7671264000237,710.4675473999232,None,None,710.4675473999232,None,711.2670811000746,None,,,,21006,0002,2022_Jul_18_1235,localizer,2021.1.3,59.38545554582773,
block,scenes,scenes073.bmp,,,,,0,151,151,151,,,,,,,,,,,,,,,,,,,,,,,,,,,,,,,,,,,,,,,,,,None,,711.2670811000746,None,711.2670811000746,None,2022-07-18-12:47:18.941583,711.2715622996911,711.5834931000136,711.2715622996911,711.2715622996911,None,711.2715622996911,711.2715622996911,712.0838822997641,None,,,,21006,0002,2022_Jul_18_1235,localizer,2021.1.3,59.38545554582773,
block_end,scenes,scenes075.bmp,,,,,0,152,152,152,,,,,,,,,,,,,,,,,,,,,,,,,,,,,,,,,,,,,,,,,,None,,712.0838822997641,None,712.0838822997641,None,2022-07-18-12:47:19.757409,712.0977002000436,712.3999789999798,712.0977002000436,None,None,712.0977002000436,None,712.8999998998363,None,,,,21006,0002,2022_Jul_18_1235,localizer,2021.1.3,59.38545554582773,
block_start,scrambled,scrambled008.bmp,,,,,0,153,153,153,,,,,,,,,,,,,,,,,,,,,,,,,,,,,,,,,,,,,,,,,,t,1.7919369000010192,712.9000459997915,None,712.9000459997915,None,2022-07-18-12:47:22.388347,714.7177915000357,715.0331326997839,714.7177915000357,None,None,714.7177915000357,None,715.5186683997047,None,,,,21006,0002,2022_Jul_18_1235,localizer,2021.1.3,59.38545554582773,
block,scrambled,scrambled056.bmp,,,,,0,154,154,154,,,,,,,,,,,,,,,,,,,,,,,,,,,,,,,,,,,,,,,,,,None,,715.5186683997047,None,715.5186683997047,None,2022-07-18-12:47:23.197024,715.5236470000818,715.8376444000751,715.5236470000818,715.5236470000818,None,715.5236470000818,715.5236470000818,716.3328342997004,None,,,,21006,0002,2022_Jul_18_1235,localizer,2021.1.3,59.38545554582773,
block,scrambled,scrambled036.bmp,,,,,0,155,155,155,,,,,,,,,,,,,,,,,,,,,,,,,,,,,,,,,,,,,,,,,,None,,716.3328342997004,None,716.3328342997004,None,2022-07-18-12:47:24.004976,716.3349632997997,716.6502141999081,716.3349632997997,None,None,716.3349632997997,None,717.1496556997765,None,,,,21006,0002,2022_Jul_18_1235,localizer,2021.1.3,59.38545554582773,
block,scrambled,scrambled068.bmp,,,,,0,156,156,156,,,,,,,,,,,,,,,,,,,,,,,,,,,,,,,,,,,,,,,,,,None,,717.1496556997765,None,717.1496556997765,None,2022-07-18-12:47:24.822054,717.1509477999061,717.4504388999194,717.1509477999061,None,None,717.1509477999061,None,717.9504225999583,None,,,,21006,0002,2022_Jul_18_1235,localizer,2021.1.3,59.38545554582773,
block,scrambled,scrambled034.bmp,,,,,0,157,157,157,,,,,,,,,,,,,,,,,,,,,,,,,,,,,,,,,,,,,,,,,,None,,717.9504225999583,None,717.9504225999583,None,2022-07-18-12:47:25.625947,717.9535926999524,718.266929899808,717.9535926999524,717.9535926999524,None,717.9535926999524,717.9535926999524,718.7673430997413,None,,,,21006,0002,2022_Jul_18_1235,localizer,2021.1.3,59.38545554582773,
block,scrambled,scrambled027.bmp,,,,,0,158,158,158,,,,,,,,,,,,,,,,,,,,,,,,,,,,,,,,,,,,,,,,,,None,,718.7673430997413,None,718.7673430997413,None,2022-07-18-12:47:26.440678,718.7678650999442,719.0834685000591,718.7678650999442,None,None,718.7678650999442,None,719.5686083999929,None,,,,21006,0002,2022_Jul_18_1235,localizer,2021.1.3,59.38545554582773,
block,scrambled,scrambled052.bmp,,,,,0,159,159,159,,,,,,,,,,,,,,,,,,,,,,,,,,,,,,,,,,,,,,,,,,None,,719.5686083999929,None,719.5686083999929,None,2022-07-18-12:47:27.247106,719.5869066999294,719.9002072000876,719.5869066999294,719.5869066999294,None,719.5869066999294,719.5869066999294,720.3833750999067,None,,,,21006,0002,2022_Jul_18_1235,localizer,2021.1.3,59.38545554582773,
block,scrambled,scrambled083.bmp,,,,,0,160,160,160,,,,,,,,,,,,,,,,,,,,,,,,,,,,,,,,,,,,,,,,,,None,,720.3833750999067,None,720.3833750999067,None,2022-07-18-12:47:28.055948,720.3842213000171,720.6835431000218,720.3842213000171,None,None,720.3842213000171,None,721.1835071999114,None,,,,21006,0002,2022_Jul_18_1235,localizer,2021.1.3,59.38545554582773,
block,scrambled,scrambled084.bmp,,,,,0,161,161,161,,,,,,,,,,,,,,,,,,,,,,,,,,,,,,,,,,,,,,,,,,None,,721.1835071999114,None,721.1835071999114,None,2022-07-18-12:47:28.857851,721.1853231997229,721.5000479998998,721.1853231997229,721.1853231997229,None,721.1853231997229,721.1853231997229,721.9999817000237,None,,,,21006,0002,2022_Jul_18_1235,localizer,2021.1.3,59.38545554582773,
block,scrambled,scrambled054.bmp,,,,,0,162,162,162,,,,,,,,,,,,,,,,,,,,,,,,,,,,,,,,,,,,,,,,,,None,,721.9999817000237,None,721.9999817000237,None,2022-07-18-12:47:29.672552,722.0010015997104,722.3163526998833,722.0010015997104,None,None,722.0010015997104,None,722.8166664001067,None,,,,21006,0002,2022_Jul_18_1235,localizer,2021.1.3,59.38545554582773,
block,scrambled,scrambled060.bmp,,,,,0,163,163,163,,,,,,,,,,,,,,,,,,,,,,,,,,,,,,,,,,,,,,,,,,None,,722.8166664001067,None,722.8166664001067,None,2022-07-18-12:47:30.489249,722.8262725998648,723.1336122998036,722.8262725998648,None,None,722.8262725998648,None,723.6333756996785,None,,,,21006,0002,2022_Jul_18_1235,localizer,2021.1.3,59.38545554582773,
block,scrambled,scrambled081.bmp,,,,,0,164,164,164,,,,,,,,,,,,,,,,,,,,,,,,,,,,,,,,,,,,,,,,,,None,,723.6333756996785,None,723.6333756996785,None,2022-07-18-12:47:31.305723,723.6341931996867,723.9336260999553,723.6341931996867,None,None,723.6341931996867,None,724.4496142999735,None,,,,21006,0002,2022_Jul_18_1235,localizer,2021.1.3,59.38545554582773,
block,scrambled,scrambled024.bmp,,,,,0,165,165,165,,,,,,,,,,,,,,,,,,,,,,,,,,,,,,,,,,,,,,,,,,None,,724.4496142999735,None,724.4496142999735,None,2022-07-18-12:47:32.122233,724.4545903000981,724.7668034001254,724.4545903000981,None,None,724.4545903000981,None,725.2669032998849,None,,,,21006,0002,2022_Jul_18_1235,localizer,2021.1.3,59.38545554582773,
block,scrambled,scrambled075.bmp,,,,,0,166,166,166,,,,,,,,,,,,,,,,,,,,,,,,,,,,,,,,,,,,,,,,,,None,,725.2669032998849,None,725.2669032998849,None,2022-07-18-12:47:32.939463,725.2675902000628,725.5672400998883,725.2675902000628,None,None,725.2675902000628,None,726.0679414999206,None,,,,21006,0002,2022_Jul_18_1235,localizer,2021.1.3,59.38545554582773,
block_end,scrambled,scrambled066.bmp,,,,,0,167,167,167,,,,,,,,,,,,,,,,,,,,,,,,,,,,,,,,,,,,,,,,,,None,,726.0679414999206,None,726.0679414999206,None,2022-07-18-12:47:33.744488,726.0721601997502,726.3836574996822,726.0721601997502,726.0721601997502,None,726.0721601997502,726.0721601997502,726.8831525999587,None,,,,21006,0002,2022_Jul_18_1235,localizer,2021.1.3,59.38545554582773,
block_start,objects,objects065.bmp,,,,,0,168,168,168,,,,,,,,,,,,,,,,,,,,,,,,,,,,,,,,,,,,,,,,,,t,1.8086842000484467,726.8833484998904,None,726.8833484998904,None,2022-07-18-12:47:36.388262,728.7179473000579,729.0171179999597,728.7179473000579,None,None,728.7179473000579,None,729.5333197000903,None,,,,21006,0002,2022_Jul_18_1235,localizer,2021.1.3,59.38545554582773,
block,objects,objects030.bmp,,,,,0,169,169,169,,,,,,,,,,,,,,,,,,,,,,,,,,,,,,,,,,,,,,,,,,None,,729.5333197000903,None,729.5333197000903,None,2022-07-18-12:47:37.205673,729.5344861000776,729.8500807997771,729.5344861000776,None,None,729.5344861000776,None,730.3403241998051,None,,,,21006,0002,2022_Jul_18_1235,localizer,2021.1.3,59.38545554582773,
block,objects,objects025.bmp,,,,,0,170,170,170,,,,,,,,,,,,,,,,,,,,,,,,,,,,,,,,,,,,,,,,,,None,,730.3403241998051,None,730.3403241998051,None,2022-07-18-12:47:38.018638,730.3466773997061,730.6501013999805,730.3466773997061,None,None,730.3466773997061,None,731.1500748997089,None,,,,21006,0002,2022_Jul_18_1235,localizer,2021.1.3,59.38545554582773,
block,objects,objects040.bmp,,,,,0,171,171,171,,,,,,,,,,,,,,,,,,,,,,,,,,,,,,,,,,,,,,,,,,None,,731.1500748997089,None,731.1500748997089,None,2022-07-18-12:47:38.822427,731.1509302998893,731.4502135999501,731.1509302998893,None,None,731.1509302998893,None,731.9502904997673,None,,,,21006,0002,2022_Jul_18_1235,localizer,2021.1.3,59.38545554582773,
block,objects,objects008.bmp,,,,,0,172,172,172,,,,,,,,,,,,,,,,,,,,,,,,,,,,,,,,,,,,,,,,,,None,,731.9502904997673,None,731.9502904997673,None,2022-07-18-12:47:39.624627,731.9517894997261,732.2667882000096,731.9517894997261,731.9517894997261,None,731.9517894997261,731.9517894997261,732.7525716997218,None,,,,21006,0002,2022_Jul_18_1235,localizer,2021.1.3,59.38545554582773,
block,objects,objects007.bmp,,,,,0,173,173,173,,,,,,,,,,,,,,,,,,,,,,,,,,,,,,,,,,,,,,,,,,None,,732.7525716997218,None,732.7525716997218,None,2022-07-18-12:47:40.430949,732.7590393996798,733.066850299947,732.7590393996798,732.7590393996798,None,732.7590393996798,732.7590393996798,733.5668397997972,None,,,,21006,0002,2022_Jul_18_1235,localizer,2021.1.3,59.38545554582773,
block,objects,objects071.bmp,,,,,0,174,174,174,,,,,,,,,,,,,,,,,,,,,,,,,,,,,,,,,,,,,,,,,,None,,733.5668397997972,None,733.5668397997972,None,2022-07-18-12:47:41.239186,733.567701399792,733.8835239000618,733.567701399792,None,None,733.567701399792,None,734.383340799762,None,,,,21006,0002,2022_Jul_18_1235,localizer,2021.1.3,59.38545554582773,
block,objects,objects029.bmp,,,,,0,175,175,175,,,,,,,,,,,,,,,,,,,,,,,,,,,,,,,,,,,,,,,,,,None,,734.383340799762,None,734.383340799762,None,2022-07-18-12:47:42.055691,734.3841324998066,734.6835818998516,734.3841324998066,None,None,734.3841324998066,None,735.1874040998985,None,,,,21006,0002,2022_Jul_18_1235,localizer,2021.1.3,59.38545554582773,
block,objects,objects005.bmp,,,,,0,176,176,176,,,,,,,,,,,,,,,,,,,,,,,,,,,,,,,,,,,,,,,,,,None,,735.1874040998985,None,735.1874040998985,None,2022-07-18-12:47:42.865693,735.1951271998696,735.5002282997593,735.1951271998696,735.1951271998696,None,735.1951271998696,735.1951271998696,736.0007527000737,None,,,,21006,0002,2022_Jul_18_1235,localizer,2021.1.3,59.38545554582773,
block,objects,objects005.bmp,,,,,0,177,177,177,,,,,,,,,,,,,,,,,,,,,,,,,,,,,,,,,,,,,,,,,,None,,736.0007527000737,None,736.0007527000737,None,2022-07-18-12:47:43.674088,736.0012864000164,736.317265599966,736.0012864000164,None,y,736.0012864000164,None,736.8167122998741,None,0.5684285997413099,,,21006,0002,2022_Jul_18_1235,localizer,2021.1.3,59.38545554582773,
block,objects,objects047.bmp,,,,,0,178,178,178,,,,,,,,,,,,,,,,,,,,,,,,,,,,,,,,,,,,,,,,,,None,,736.8167122998741,None,736.8167122998741,None,2022-07-18-12:47:44.489166,736.8175869998522,737.133381200023,736.8175869998522,None,None,736.8175869998522,None,737.6173520000186,None,,,,21006,0002,2022_Jul_18_1235,localizer,2021.1.3,59.38545554582773,
block,objects,objects045.bmp,,,,,0,179,179,179,,,,,,,,,,,,,,,,,,,,,,,,,,,,,,,,,,,,,,,,,,None,,737.6173520000186,None,737.6173520000186,None,2022-07-18-12:47:45.292681,737.6203121999279,737.934201200027,737.6203121999279,737.6203121999279,None,737.6203121999279,737.6203121999279,738.4332420998719,None,,,,21006,0002,2022_Jul_18_1235,localizer,2021.1.3,59.38545554582773,
block,objects,objects050.bmp,,,,,0,180,180,180,,,,,,,,,,,,,,,,,,,,,,,,,,,,,,,,,,,,,,,,,,None,,738.4332420998719,None,738.4332420998719,None,2022-07-18-12:47:46.104931,738.4348506000824,738.7501395000145,738.4348506000824,None,None,738.4348506000824,None,739.2364650997799,None,,,,21006,0002,2022_Jul_18_1235,localizer,2021.1.3,59.38545554582773,
block,objects,objects044.bmp,,,,,0,181,181,181,,,,,,,,,,,,,,,,,,,,,,,,,,,,,,,,,,,,,,,,,,None,,739.2364650997799,None,739.2364650997799,None,2022-07-18-12:47:46.912946,739.2510998998769,739.5507477996871,739.2510998998769,739.2510998998769,None,739.2510998998769,739.2510998998769,740.0561265000608,None,,,,21006,0002,2022_Jul_18_1235,localizer,2021.1.3,59.38545554582773,
block_end,objects,objects036.bmp,,,,,0,182,182,182,,,,,,,,,,,,,,,,,,,,,,,,,,,,,,,,,,,,,,,,,,None,,740.0561265000608,None,740.0561265000608,None,2022-07-18-12:47:47.734353,740.0732943001203,740.3842619000934,740.0732943001203,None,None,740.0732943001203,None,740.8672368000728,None,,,,21006,0002,2022_Jul_18_1235,localizer,2021.1.3,59.38545554582773,
null_block,null_block,null_block.bmp,,,,,0,183,183,183,,,,,,,,,,,,,,,,,,,,,,,,,,,,,,,,,,,,,,,,,,t,1.824781300034374,740.8672806997783,None,740.8672806997783,None,2022-07-18-12:47:50.388327,742.7168695000466,None,742.7168695000466,None,None,742.7168695000466,None,742.7191821997985,None,,,,21006,0002,2022_Jul_18_1235,localizer,2021.1.3,59.38545554582773,
block_start,scenes,scenes003.bmp,,,,,0,184,184,184,,,,,,,,,,,,,,,,,,,,,,,,,,,,,,,,,,,,,,,,,,t,1.9585544997826219,754.7334972997196,None,754.7334972997196,None,2022-07-18-12:48:04.389914,756.718028599862,757.0338193997741,756.718028599862,None,None,756.718028599862,None,757.5332089998294,None,,,,21006,0002,2022_Jul_18_1235,localizer,2021.1.3,59.38545554582773,
block,scenes,scenes018.bmp,,,,,0,185,185,185,,,,,,,,,,,,,,,,,,,,,,,,,,,,,,,,,,,,,,,,,,None,,757.5332089998294,None,757.5332089998294,None,2022-07-18-12:48:05.205827,757.5346282999963,757.8503980999812,757.5346282999963,None,None,757.5346282999963,None,758.3500871998724,None,,,,21006,0002,2022_Jul_18_1235,localizer,2021.1.3,59.38545554582773,
block,scenes,scenes025.bmp,,,,,0,186,186,186,,,,,,,,,,,,,,,,,,,,,,,,,,,,,,,,,,,,,,,,,,None,,758.3500871998724,None,758.3500871998724,None,2022-07-18-12:48:06.022441,758.3636082997546,758.6666278000921,758.3636082997546,None,None,758.3636082997546,None,759.1666171998252,None,,,,21006,0002,2022_Jul_18_1235,localizer,2021.1.3,59.38545554582773,
block,scenes,scenes008.bmp,,,,,0,187,187,187,,,,,,,,,,,,,,,,,,,,,,,,,,,,,,,,,,,,,,,,,,None,,759.1666171998252,None,759.1666171998252,None,2022-07-18-12:48:06.838971,759.1681061997078,759.489853200037,759.1681061997078,None,None,759.1681061997078,None,759.9672106998507,None,,,,21006,0002,2022_Jul_18_1235,localizer,2021.1.3,59.38545554582773,
block,scenes,scenes015.bmp,,,,,0,188,188,188,,,,,,,,,,,,,,,,,,,,,,,,,,,,,,,,,,,,,,,,,,None,,759.9672106998507,None,759.9672106998507,None,2022-07-18-12:48:07.641754,759.9701943998225,760.2841745000333,759.9701943998225,759.9701943998225,None,759.9701943998225,759.9701943998225,760.7835855000187,None,,,,21006,0002,2022_Jul_18_1235,localizer,2021.1.3,59.38545554582773,
block,scenes,scenes089.bmp,,,,,0,189,189,189,,,,,,,,,,,,,,,,,,,,,,,,,,,,,,,,,,,,,,,,,,None,,760.7835855000187,None,760.7835855000187,None,2022-07-18-12:48:08.456127,760.794224999845,761.1003640997224,760.794224999845,None,None,760.794224999845,None,761.6000215998386,None,,,,21006,0002,2022_Jul_18_1235,localizer,2021.1.3,59.38545554582773,
block,scenes,scenes087.bmp,,,,,0,190,190,190,,,,,,,,,,,,,,,,,,,,,,,,,,,,,,,,,,,,,,,,,,None,,761.6000215998386,None,761.6000215998386,None,2022-07-18-12:48:09.272376,761.6011362997815,761.9169302997179,761.6011362997815,None,None,761.6011362997815,None,762.4003010998015,None,,,,21006,0002,2022_Jul_18_1235,localizer,2021.1.3,59.38545554582773,
block,scenes,scenes052.bmp,,,,,0,191,191,191,,,,,,,,,,,,,,,,,,,,,,,,,,,,,,,,,,,,,,,,,,None,,762.4003010998015,None,762.4003010998015,None,2022-07-18-12:48:10.074840,762.412993399892,762.7171326000243,762.412993399892,762.412993399892,None,762.412993399892,762.412993399892,763.218881799886,None,,,,21006,0002,2022_Jul_18_1235,localizer,2021.1.3,59.38545554582773,
block,scenes,scenes073.bmp,,,,,0,192,192,192,,,,,,,,,,,,,,,,,,,,,,,,,,,,,,,,,,,,,,,,,,None,,763.218881799886,None,763.218881799886,None,2022-07-18-12:48:10.894232,763.2241262998432,763.534335500095,763.2241262998432,None,None,763.2241262998432,None,764.0334168998991,None,,,,21006,0002,2022_Jul_18_1235,localizer,2021.1.3,59.38545554582773,
block,scenes,scenes012.bmp,,,,,0,193,193,193,,,,,,,,,,,,,,,,,,,,,,,,,,,,,,,,,,,,,,,,,,None,,764.0334168998991,None,764.0334168998991,None,2022-07-18-12:48:11.705506,764.0350036998279,764.3502361997962,764.0350036998279,None,None,764.0350036998279,None,764.8500103001018,None,,,,21006,0002,2022_Jul_18_1235,localizer,2021.1.3,59.38545554582773,
block,scenes,scenes081.bmp,,,,,0,194,194,194,,,,,,,,,,,,,,,,,,,,,,,,,,,,,,,,,,,,,,,,,,None,,764.8500103001018,None,764.8500103001018,None,2022-07-18-12:48:12.522363,764.8513270998374,765.1671553999186,764.8513270998374,None,None,764.8513270998374,None,765.6510513998103,None,,,,21006,0002,2022_Jul_18_1235,localizer,2021.1.3,59.38545554582773,
block,scenes,scenes024.bmp,,,,,0,195,195,195,,,,,,,,,,,,,,,,,,,,,,,,,,,,,,,,,,,,,,,,,,None,,765.6510513998103,None,765.6510513998103,None,2022-07-18-12:48:13.325029,765.6615972998552,765.9672420998104,765.6615972998552,765.6615972998552,None,765.6615972998552,765.6615972998552,766.4672284001019,None,,,,21006,0002,2022_Jul_18_1235,localizer,2021.1.3,59.38545554582773,
block,scenes,scenes009.bmp,,,,,0,196,196,196,,,,,,,,,,,,,,,,,,,,,,,,,,,,,,,,,,,,,,,,,,None,,766.4672284001019,None,766.4672284001019,None,2022-07-18-12:48:14.139771,766.4682423998602,766.7835702998564,766.4682423998602,None,None,766.4682423998602,None,767.283529900061,None,,,,21006,0002,2022_Jul_18_1235,localizer,2021.1.3,59.38545554582773,
block,scenes,scenes026.bmp,,,,,0,197,197,197,,,,,,,,,,,,,,,,,,,,,,,,,,,,,,,,,,,,,,,,,,None,,767.283529900061,None,767.283529900061,None,2022-07-18-12:48:14.955880,767.2944050999358,767.6005762997083,767.2944050999358,None,None,767.2944050999358,None,768.1003652997781,None,,,,21006,0002,2022_Jul_18_1235,localizer,2021.1.3,59.38545554582773,
block_end,scenes,scenes065.bmp,,,,,0,198,198,198,,,,,,,,,,,,,,,,,,,,,,,,,,,,,,,,,,,,,,,,,,None,,768.1003652997781,None,768.1003652997781,None,2022-07-18-12:48:15.772712,768.106663200073,768.417074599769,768.106663200073,None,None,768.106663200073,None,768.9168054997456,None,,,,21006,0002,2022_Jul_18_1235,localizer,2021.1.3,59.38545554582773,
block_start,scrambled,scrambled023.bmp,,,,,0,199,199,199,,,,,,,,,,,,,,,,,,,,,,,,,,,,,,,,,,,,,,,,,,t,1.774121900089085,768.9168269000947,None,768.9168269000947,None,2022-07-18-12:48:18.387664,770.7181484000757,771.03459989978,770.7181484000757,None,None,770.7181484000757,None,771.5332088000607,None,,,,21006,0002,2022_Jul_18_1235,localizer,2021.1.3,59.38545554582773,
block,scrambled,scrambled082.bmp,,,,,0,200,200,200,,,,,,,,,,,,,,,,,,,,,,,,,,,,,,,,,,,,,,,,,,None,,771.5332088000607,None,771.5332088000607,None,2022-07-18-12:48:19.205558,771.5411113998853,771.8501355000772,771.5411113998853,None,None,771.5411113998853,None,772.3504666998517,None,,,,21006,0002,2022_Jul_18_1235,localizer,2021.1.3,59.38545554582773,
block,scrambled,scrambled049.bmp,,,,,0,201,201,201,,,,,,,,,,,,,,,,,,,,,,,,,,,,,,,,,,,,,,,,,,None,,772.3504666998517,None,772.3504666998517,None,2022-07-18-12:48:20.023027,772.3615091000684,772.6695463000797,772.3615091000684,None,None,772.3615091000684,None,773.1666770996992,None,,,,21006,0002,2022_Jul_18_1235,localizer,2021.1.3,59.38545554582773,
block,scrambled,scrambled075.bmp,,,,,0,202,202,202,,,,,,,,,,,,,,,,,,,,,,,,,,,,,,,,,,,,,,,,,,None,,773.1666770996992,None,773.1666770996992,None,2022-07-18-12:48:20.839029,773.1680553997867,773.4834811999463,773.1680553997867,None,None,773.1680553997867,None,773.983674400067,None,,,,21006,0002,2022_Jul_18_1235,localizer,2021.1.3,59.38545554582773,
block,scrambled,scrambled004.bmp,,,,,0,203,203,203,,,,,,,,,,,,,,,,,,,,,,,,,,,,,,,,,,,,,,,,,,None,,773.983674400067,None,773.983674400067,None,2022-07-18-12:48:21.656665,773.9845682000741,774.30044549983,773.9845682000741,None,None,773.9845682000741,None,774.7837426998187,None,,,,21006,0002,2022_Jul_18_1235,localizer,2021.1.3,59.38545554582773,
block,scrambled,scrambled048.bmp,,,,,0,204,204,204,,,,,,,,,,,,,,,,,,,,,,,,,,,,,,,,,,,,,,,,,,None,,774.7837426998187,None,774.7837426998187,None,2022-07-18-12:48:22.458302,774.7973988000304,775.1002953997813,774.7973988000304,774.7973988000304,None,774.7973988000304,774.7973988000304,775.6013867999893,None,,,,21006,0002,2022_Jul_18_1235,localizer,2021.1.3,59.38545554582773,
block,scrambled,scrambled070.bmp,,,,,0,205,205,205,,,,,,,,,,,,,,,,,,,,,,,,,,,,,,,,,,,,,,,,,,None,,775.6013867999893,None,775.6013867999893,None,2022-07-18-12:48:23.274894,775.6039148001,775.9166562999599,775.6039148001,None,None,775.6039148001,None,776.41704769996,None,,,,21006,0002,2022_Jul_18_1235,localizer,2021.1.3,59.38545554582773,
block,scrambled,scrambled067.bmp,,,,,0,206,206,206,,,,,,,,,,,,,,,,,,,,,,,,,,,,,,,,,,,,,,,,,,None,,776.41704769996,None,776.41704769996,None,2022-07-18-12:48:24.089394,776.4179213996977,776.7174074999057,776.4179213996977,None,None,776.4179213996977,None,777.2336162999738,None,,,,21006,0002,2022_Jul_18_1235,localizer,2021.1.3,59.38545554582773,
block,scrambled,scrambled036.bmp,,,,,0,207,207,207,,,,,,,,,,,,,,,,,,,,,,,,,,,,,,,,,,,,,,,,,,None,,777.2336162999738,None,777.2336162999738,None,2022-07-18-12:48:24.906103,777.2345724999905,777.5339402998798,777.2345724999905,None,None,777.2345724999905,None,778.0336250998546,None,,,,21006,0002,2022_Jul_18_1235,localizer,2021.1.3,59.38545554582773,
block,scrambled,scrambled036.bmp,,,,,0,208,208,208,,,,,,,,,,,,,,,,,,,,,,,,,,,,,,,,,,,,,,,,,,None,,778.0336250998546,None,778.0336250998546,None,2022-07-18-12:48:25.707069,778.0348229999654,778.3504781997763,778.0348229999654,778.0348229999654,y,778.0348229999654,778.0348229999654,778.8401993997861,None,0.6857519000768661,,,21006,0002,2022_Jul_18_1235,localizer,2021.1.3,59.38545554582773,
block,scrambled,scrambled079.bmp,,,,,0,209,209,209,,,,,,,,,,,,,,,,,,,,,,,,,,,,,,,,,,,,,,,,,,None,,778.8401993997861,None,778.8401993997861,None,2022-07-18-12:48:26.517388,778.8558825999498,779.1668754997663,778.8558825999498,None,None,778.8558825999498,None,779.6506117000711,None,,,,21006,0002,2022_Jul_18_1235,localizer,2021.1.3,59.38545554582773,
block,scrambled,scrambled034.bmp,,,,,0,210,210,210,,,,,,,,,,,,,,,,,,,,,,,,,,,,,,,,,,,,,,,,,,None,,779.6506117000711,None,779.6506117000711,None,2022-07-18-12:48:27.323156,779.6515246997587,779.9671354996972,779.6515246997587,None,None,779.6515246997587,None,780.4530305997935,None,,,,21006,0002,2022_Jul_18_1235,localizer,2021.1.3,59.38545554582773,
block,scrambled,scrambled043.bmp,,,,,0,211,211,211,,,,,,,,,,,,,,,,,,,,,,,,,,,,,,,,,,,,,,,,,,None,,780.4530305997935,None,780.4530305997935,None,2022-07-18-12:48:28.131516,780.4608724000864,780.7676761001348,780.4608724000864,780.4608724000864,None,780.4608724000864,780.4608724000864,781.2669335999992,None,,,,21006,0002,2022_Jul_18_1235,localizer,2021.1.3,59.38545554582773,
block,scrambled,scrambled064.bmp,,,,,0,212,212,212,,,,,,,,,,,,,,,,,,,,,,,,,,,,,,,,,,,,,,,,,,None,,781.2669335999992,None,781.2669335999992,None,2022-07-18-12:48:28.939195,781.2681379998103,781.5676722996868,781.2681379998103,None,None,781.2681379998103,None,782.083712100098,None,,,,21006,0002,2022_Jul_18_1235,localizer,2021.1.3,59.38545554582773,
block_end,scrambled,scrambled021.bmp,,,,,0,213,213,213,,,,,,,,,,,,,,,,,,,,,,,,,,,,,,,,,,,,,,,,,,None,,782.083712100098,None,782.083712100098,None,2022-07-18-12:48:29.756058,782.0846750997007,782.400407299865,782.0846750997007,None,None,782.0846750997007,None,782.9002820998896,None,,,,21006,0002,2022_Jul_18_1235,localizer,2021.1.3,59.38545554582773,
block_start,faces,faces048.bmp,,,,,0,214,214,214,,,,,,,,,,,,,,,,,,,,,,,,,,,,,,,,,,,,,,,,,,t,1.7904731002636254,782.9004701999947,None,782.9004701999947,None,2022-07-18-12:48:32.391609,784.7211230997927,785.0336102000438,784.7211230997927,None,None,784.7211230997927,None,785.5341180996504,None,,,,21006,0002,2022_Jul_18_1235,localizer,2021.1.3,59.38545554582773,
block,faces,faces014.bmp,,,,,0,215,215,215,,,,,,,,,,,,,,,,,,,,,,,,,,,,,,,,,,,,,,,,,,None,,785.5341180996504,None,785.5341180996504,None,2022-07-18-12:48:33.207656,785.5351602998562,785.8504288997501,785.5351602998562,None,None,785.5351602998562,None,786.3502431996633,None,,,,21006,0002,2022_Jul_18_1235,localizer,2021.1.3,59.38545554582773,
block,faces,faces082.bmp,,,,,0,216,216,216,,,,,,,,,,,,,,,,,,,,,,,,,,,,,,,,,,,,,,,,,,None,,786.3502431996633,None,786.3502431996633,None,2022-07-18-12:48:34.022594,786.351629700046,786.6671389997937,786.351629700046,None,None,786.351629700046,None,787.1667522998061,None,,,,21006,0002,2022_Jul_18_1235,localizer,2021.1.3,59.38545554582773,
block,faces,faces062.bmp,,,,,0,217,217,217,,,,,,,,,,,,,,,,,,,,,,,,,,,,,,,,,,,,,,,,,,None,,787.1667522998061,None,787.1667522998061,None,2022-07-18-12:48:34.838109,787.168159800116,787.4839522996917,787.168159800116,None,None,787.168159800116,None,787.9837587997783,None,,,,21006,0002,2022_Jul_18_1235,localizer,2021.1.3,59.38545554582773,
block,faces,faces083.bmp,,,,,0,218,218,218,,,,,,,,,,,,,,,,,,,,,,,,,,,,,,,,,,,,,,,,,,None,,787.9837587997783,None,787.9837587997783,None,2022-07-18-12:48:35.656290,787.9951789998449,788.3007956999354,787.9951789998449,None,None,787.9951789998449,None,788.8013770999853,None,,,,21006,0002,2022_Jul_18_1235,localizer,2021.1.3,59.38545554582773,
block,faces,faces047.bmp,,,,,0,219,219,219,,,,,,,,,,,,,,,,,,,,,,,,,,,,,,,,,,,,,,,,,,None,,788.8013770999853,None,788.8013770999853,None,2022-07-18-12:48:36.472682,788.8145865998231,789.1165579999797,788.8145865998231,None,None,788.8145865998231,None,789.6170433997643,None,,,,21006,0002,2022_Jul_18_1235,localizer,2021.1.3,59.38545554582773,
block,faces,faces085.bmp,,,,,0,220,220,220,,,,,,,,,,,,,,,,,,,,,,,,,,,,,,,,,,,,,,,,,,None,,789.6170433997643,None,789.6170433997643,None,2022-07-18-12:48:37.289644,789.6181457000785,789.916996399872,789.6181457000785,None,None,789.6181457000785,None,790.4335236996878,None,,,,21006,0002,2022_Jul_18_1235,localizer,2021.1.3,59.38545554582773,
block,faces,faces068.bmp,,,,,0,221,221,221,,,,,,,,,,,,,,,,,,,,,,,,,,,,,,,,,,,,,,,,,,None,,790.4335236996878,None,790.4335236996878,None,2022-07-18-12:48:38.106401,790.4451607000083,790.7506125001237,790.4451607000083,None,None,790.4451607000083,None,791.2502247998957,None,,,,21006,0002,2022_Jul_18_1235,localizer,2021.1.3,59.38545554582773,
block,faces,faces051.bmp,,,,,0,222,222,222,,,,,,,,,,,,,,,,,,,,,,,,,,,,,,,,,,,,,,,,,,None,,791.2502247998957,None,791.2502247998957,None,2022-07-18-12:48:38.922820,791.2514206999913,791.5535447997972,791.2514206999913,None,None,791.2514206999913,None,792.0669797999319,None,,,,21006,0002,2022_Jul_18_1235,localizer,2021.1.3,59.38545554582773,
block,faces,faces027.bmp,,,,,0,223,223,223,,,,,,,,,,,,,,,,,,,,,,,,,,,,,,,,,,,,,,,,,,None,,792.0669797999319,None,792.0669797999319,None,2022-07-18-12:48:39.739537,792.0682001998648,792.3837053999305,792.0682001998648,None,None,792.0682001998648,None,792.8672258998733,None,,,,21006,0002,2022_Jul_18_1235,localizer,2021.1.3,59.38545554582773,
block,faces,faces060.bmp,,,,,0,224,224,224,,,,,,,,,,,,,,,,,,,,,,,,,,,,,,,,,,,,,,,,,,None,,792.8672258998733,None,792.8672258998733,None,2022-07-18-12:48:40.541563,792.8703437997028,793.1840812996961,792.8703437997028,792.8703437997028,None,792.8703437997028,792.8703437997028,793.6838711998892,None,,,,21006,0002,2022_Jul_18_1235,localizer,2021.1.3,59.38545554582773,
block,faces,faces054.bmp,,,,,0,225,225,225,,,,,,,,,,,,,,,,,,,,,,,,,,,,,,,,,,,,,,,,,,None,,793.6838711998892,None,793.6838711998892,None,2022-07-18-12:48:41.356372,793.6948134996928,794.0004503997043,793.6948134996928,None,None,793.6948134996928,None,794.500293300068,None,,,,21006,0002,2022_Jul_18_1235,localizer,2021.1.3,59.38545554582773,
block,faces,faces063.bmp,,,,,0,226,226,226,,,,,,,,,,,,,,,,,,,,,,,,,,,,,,,,,,,,,,,,,,None,,794.500293300068,None,794.500293300068,None,2022-07-18-12:48:42.172643,794.5116367000155,794.8172289999202,794.5116367000155,None,None,794.5116367000155,None,795.3229163000826,None,,,,21006,0002,2022_Jul_18_1235,localizer,2021.1.3,59.38545554582773,
block,faces,faces080.bmp,,,,,0,227,227,227,,,,,,,,,,,,,,,,,,,,,,,,,,,,,,,,,,,,,,,,,,None,,795.3229163000826,None,795.3229163000826,None,2022-07-18-12:48:43.003243,795.332245499827,795.6341180996969,795.332245499827,None,None,795.332245499827,None,796.1342181996908,None,,,,21006,0002,2022_Jul_18_1235,localizer,2021.1.3,59.38545554582773,
block_end,faces,faces045.bmp,,,,,0,228,228,228,,,,,,,,,,,,,,,,,,,,,,,,,,,,,,,,,,,,,,,,,,None,,796.1342181996908,None,796.1342181996908,None,2022-07-18-12:48:43.807553,796.1354569997638,796.45050359983,796.1354569997638,None,None,796.1354569997638,None,796.950730099855,None,,,,21006,0002,2022_Jul_18_1235,localizer,2021.1.3,59.38545554582773,
block_start,objects,objects005.bmp,,,,,0,229,229,229,,,,,,,,,,,,,,,,,,,,,,,,,,,,,,,,,,,,,,,,,,t,1.7399213998578489,796.9509994997643,None,796.9509994997643,None,2022-07-18-12:48:46.387493,798.7186384000815,799.0339383999817,798.7186384000815,None,None,798.7186384000815,None,799.5335570998025,None,,,,21006,0002,2022_Jul_18_1235,localizer,2021.1.3,59.38545554582773,
block,objects,objects020.bmp,,,,,0,230,230,230,,,,,,,,,,,,,,,,,,,,,,,,,,,,,,,,,,,,,,,,,,None,,799.5335570998025,None,799.5335570998025,None,2022-07-18-12:48:47.205910,799.5346480999142,799.8506285999902,799.5346480999142,None,None,799.5346480999142,None,800.3342374000233,None,,,,21006,0002,2022_Jul_18_1235,localizer,2021.1.3,59.38545554582773,
block,objects,objects003.bmp,,,,,0,231,231,231,,,,,,,,,,,,,,,,,,,,,,,,,,,,,,,,,,,,,,,,,,None,,800.3342374000233,None,800.3342374000233,None,2022-07-18-12:48:48.009658,800.3443967998028,800.6493965000845,800.3443967998028,800.3443967998028,None,800.3443967998028,800.3443967998028,801.1500498997514,None,,,,21006,0002,2022_Jul_18_1235,localizer,2021.1.3,59.38545554582773,
block,objects,objects001.bmp,,,,,0,232,232,232,,,,,,,,,,,,,,,,,,,,,,,,,,,,,,,,,,,,,,,,,,None,,801.1500498997514,None,801.1500498997514,None,2022-07-18-12:48:48.822405,801.15193239972,801.4668557997793,801.15193239972,None,None,801.15193239972,None,801.9672341999133,None,,,,21006,0002,2022_Jul_18_1235,localizer,2021.1.3,59.38545554582773,
block,objects,objects048.bmp,,,,,0,233,233,233,,,,,,,,,,,,,,,,,,,,,,,,,,,,,,,,,,,,,,,,,,None,,801.9672341999133,None,801.9672341999133,None,2022-07-18-12:48:49.639800,801.9777981000952,802.2901445999742,801.9777981000952,None,None,801.9777981000952,None,802.7836201997009,None,,,,21006,0002,2022_Jul_18_1235,localizer,2021.1.3,59.38545554582773,
block,objects,objects051.bmp,,,,,0,234,234,234,,,,,,,,,,,,,,,,,,,,,,,,,,,,,,,,,,,,,,,,,,None,,802.7836201997009,None,802.7836201997009,None,2022-07-18-12:48:50.455975,802.7922849999741,803.1005632998422,802.7922849999741,None,None,802.7922849999741,None,803.6003238996957,None,,,,21006,0002,2022_Jul_18_1235,localizer,2021.1.3,59.38545554582773,
block,objects,objects026.bmp,,,,,0,235,235,235,,,,,,,,,,,,,,,,,,,,,,,,,,,,,,,,,,,,,,,,,,None,,803.6003238996957,None,803.6003238996957,None,2022-07-18-12:48:51.272675,803.6103003998287,803.9179356000386,803.6103003998287,None,None,803.6103003998287,None,804.4170244997833,None,,,,21006,0002,2022_Jul_18_1235,localizer,2021.1.3,59.38545554582773,
block,objects,objects014.bmp,,,,,0,236,236,236,,,,,,,,,,,,,,,,,,,,,,,,,,,,,,,,,,,,,,,,,,None,,804.4170244997833,None,804.4170244997833,None,2022-07-18-12:48:52.089370,804.426653499715,804.7338836998679,804.426653499715,None,None,804.426653499715,None,805.2338859998156,None,,,,21006,0002,2022_Jul_18_1235,localizer,2021.1.3,59.38545554582773,
block,objects,objects054.bmp,,,,,0,237,237,237,,,,,,,,,,,,,,,,,,,,,,,,,,,,,,,,,,,,,,,,,,None,,805.2338859998156,None,805.2338859998156,None,2022-07-18-12:48:52.906243,805.234782199841,805.550317700021,805.234782199841,None,None,805.234782199841,None,806.0342039000709,None,,,,21006,0002,2022_Jul_18_1235,localizer,2021.1.3,59.38545554582773,
block,objects,objects031.bmp,,,,,0,238,238,238,,,,,,,,,,,,,,,,,,,,,,,,,,,,,,,,,,,,,,,,,,None,,806.0342039000709,None,806.0342039000709,None,2022-07-18-12:48:53.709596,806.0371898999438,806.3385175997391,806.0371898999438,806.0371898999438,None,806.0371898999438,806.0371898999438,806.8501212997828,None,,,,21006,0002,2022_Jul_18_1235,localizer,2021.1.3,59.38545554582773,
block,objects,objects045.bmp,,,,,0,239,239,239,,,,,,,,,,,,,,,,,,,,,,,,,,,,,,,,,,,,,,,,,,None,,806.8501212997828,None,806.8501212997828,None,2022-07-18-12:48:54.522348,806.8519826997072,807.1674039000645,806.8519826997072,None,None,806.8519826997072,None,807.6670303997118,None,,,,21006,0002,2022_Jul_18_1235,localizer,2021.1.3,59.38545554582773,
block,objects,objects086.bmp,,,,,0,240,240,240,,,,,,,,,,,,,,,,,,,,,,,,,,,,,,,,,,,,,,,,,,None,,807.6670303997118,None,807.6670303997118,None,2022-07-18-12:48:55.339381,807.6765378997661,807.9840814000927,807.6765378997661,None,None,807.6765378997661,None,808.4843937000726,None,,,,21006,0002,2022_Jul_18_1235,localizer,2021.1.3,59.38545554582773,
block,objects,objects055.bmp,,,,,0,241,241,241,,,,,,,,,,,,,,,,,,,,,,,,,,,,,,,,,,,,,,,,,,None,,808.4843937000726,None,808.4843937000726,None,2022-07-18-12:48:56.157927,808.48491619993,808.8003305001184,808.48491619993,None,None,808.48491619993,None,809.2847432997544,None,,,,21006,0002,2022_Jul_18_1235,localizer,2021.1.3,59.38545554582773,
block,objects,objects004.bmp,,,,,0,242,242,242,,,,,,,,,,,,,,,,,,,,,,,,,,,,,,,,,,,,,,,,,,None,,809.2847432997544,None,809.2847432997544,None,2022-07-18-12:48:56.959999,809.2992376997136,809.6003708997741,809.2992376997136,809.2992376997136,None,809.2992376997136,809.2992376997136,810.1012281999458,None,,,,21006,0002,2022_Jul_18_1235,localizer,2021.1.3,59.38545554582773,
block_end,objects,objects073.bmp,,,,,0,243,243,243,,,,,,,,,,,,,,,,,,,,,,,,,,,,,,,,,,,,,,,,,,None,,810.1012281999458,None,810.1012281999458,None,2022-07-18-12:48:57.774541,810.1033381000161,810.4180215997621,810.1033381000161,None,None,810.1033381000161,None,810.9171928996686,None,,,,21006,0002,2022_Jul_18_1235,localizer,2021.1.3,59.38545554582773,
,,,,,,,,,,,,,,,,,,,,,,,,,,,,,,,,,,,,,,,,,,,,,,,,,,,,,,,,,,,,,,,,,,,,,810.9171096999198,None,,,,,,,
