block_type,condition,img_name,Button.thisRepN,Button.thisTrialN,Button.thisN,Button.thisIndex,trials.thisRepN,trials.thisTrialN,trials.thisN,trials.thisIndex,Ready_experimenter_text.started,Ready_experimenter_text.stopped,Ready_experimenter_resp.keys,Ready_experimenter_resp.rt,Ready_experimenter_resp.started,Ready_experimenter_resp.stopped,Alignment_background.started,Alignment_background.stopped,Alignment_image.started,Alignment_image.stopped,Alignment_resp.keys,Alignment_resp.rt,Alignment_resp.started,Alignment_resp.stopped,Button_text.started,Button_text.stopped,Index_text.started,Index_text.stopped,Index_resp.keys,Index_resp.rt,Index_resp.started,Index_resp.stopped,Middle_text.started,Middle_text.stopped,Middle_resp.keys,Middle_resp.rt,Middle_resp.started,Middle_resp.stopped,Repeat_text.started,Repeat_text.stopped,Repeat_resp.keys,Repeat_resp.corr,Repeat_resp.rt,Repeat_resp.started,Repeat_resp.stopped,instruction_text.started,instruction_text.stopped,key_resp.keys,key_resp.rt,key_resp.started,key_resp.stopped,scanner_t.keys,scanner_t.rt,scanner_t.started,scanner_t.stopped,fixation_wait_for_t.started,fixation_wait_for_t.stopped,real_timestamp_trial_start,image.started,image.stopped,fixation.started,fixation.stopped,repeat_response.keys,repeat_response.started,repeat_response.stopped,fixation_null.started,fixation_null.stopped,repeat_response.rt,end_text.started,end_text.stopped,participant,run,date,expName,psychopyVersion,frameRate,
,,,,,,,,,,,10.772024400066584,None,return,482.4175863999408,10.772024400066584,None,,,,,,,,,,,,,,,,,,,,,,,,,,,,,,,,,,,,,,,,,,,,,,,,,,,,,,,21004,0002,2022_Jun_06_1315,localizer,2021.1.3,59.93554531220059,
,,,,,,,,,,,,,,,,,493.2315937001258,None,493.2315937001258,None,return,1.152278200024739,493.2315937001258,None,,,,,,,,,,,,,,,,,,,,,,,,,,,,,,,,,,,,,,,,,,,,,,,21004,0002,2022_Jun_06_1315,localizer,2021.1.3,59.93554531220059,
,,,0,0,0,0,,,,,,,,,,,,,,,,,,,494.3962590000592,None,495.41762530012056,None,y,1.14938519988209,495.41762530012056,None,496.59491079999134,None,b,1.3139855000190437,496.59491079999134,None,497.92834690003656,None,n,0,1.44880779995583,497.92834690003656,None,,,,,,,,,,,,,,,,,,,,,,,,,,21004,0002,2022_Jun_06_1315,localizer,2021.1.3,59.93554531220059,
,,,,,,,,,,,,,,,,,,,,,,,,,,,,,,,,,,,,,,,,,,,,,,499.39522120007314,None,y,18.406693800119683,499.39522120007314,None,,,,,,,,,,,,,,,,,,,,21004,0002,2022_Jun_06_1315,localizer,2021.1.3,59.93554531220059,
block_start,scrambled,scrambled055.bmp,,,,,0,0,0,0,,,,,,,,,,,,,,,,,,,,,,,,,,,,,,,,,,,,,,,,,,t,15.553941499907523,517.8590973000973,None,517.8590973000973,None,2022-06-06-13:23:50.268470,533.4302773999516,533.7485553999431,533.4302773999516,None,None,533.4302773999516,None,534.2450963901589,None,,,,21004,0002,2022_Jun_06_1315,localizer,2021.1.3,59.93554531220059,
block,scrambled,scrambled012.bmp,,,,,0,1,1,1,,,,,,,,,,,,,,,,,,,,,,,,,,,,,,,,,,,,,,,,,,None,,534.2450963901589,None,534.2450963901589,None,2022-06-06-13:23:51.088441,534.262485000072,534.5779325000476,534.262485000072,None,None,534.262485000072,None,535.0619591900846,None,,,,21004,0002,2022_Jun_06_1315,localizer,2021.1.3,59.93554531220059,
block,scrambled,scrambled010.bmp,,,,,0,2,2,2,,,,,,,,,,,,,,,,,,,,,,,,,,,,,,,,,,,,,,,,,,None,,535.0619591900846,None,535.0619591900846,None,2022-06-06-13:23:51.903330,535.0739349001087,535.3780149000231,535.0739349001087,None,None,535.0739349001087,None,535.8839737901232,None,,,,21004,0002,2022_Jun_06_1315,localizer,2021.1.3,59.93554531220059,
block,scrambled,scrambled060.bmp,,,,,0,3,3,3,,,,,,,,,,,,,,,,,,,,,,,,,,,,,,,,,,,,,,,,,,None,,535.8839737901232,None,535.8839737901232,None,2022-06-06-13:23:52.728409,535.896892900113,536.2122311999556,535.896892900113,None,None,535.896892900113,None,536.6952016900992,None,,,,21004,0002,2022_Jun_06_1315,localizer,2021.1.3,59.93554531220059,
block,scrambled,scrambled049.bmp,,,,,0,4,4,4,,,,,,,,,,,,,,,,,,,,,,,,,,,,,,,,,,,,,,,,,,None,,536.6952016900992,None,536.6952016900992,None,2022-06-06-13:23:53.536573,536.7071756001096,537.0120677000377,536.7071756001096,None,None,536.7071756001096,None,537.5125113900518,None,,,,21004,0002,2022_Jun_06_1315,localizer,2021.1.3,59.93554531220059,
block,scrambled,scrambled045.bmp,,,,,0,5,5,5,,,,,,,,,,,,,,,,,,,,,,,,,,,,,,,,,,,,,,,,,,None,,537.5125113900518,None,537.5125113900518,None,2022-06-06-13:23:54.353874,537.514818900032,537.8285986001138,537.514818900032,None,None,537.514818900032,None,538.3278150900966,None,,,,21004,0002,2022_Jun_06_1315,localizer,2021.1.3,59.93554531220059,
block,scrambled,scrambled074.bmp,,,,,0,6,6,6,,,,,,,,,,,,,,,,,,,,,,,,,,,,,,,,,,,,,,,,,,None,,538.3278150900966,None,538.3278150900966,None,2022-06-06-13:23:55.168200,538.3290804999415,538.6449138000607,538.3290804999415,None,None,538.3290804999415,None,539.1447335900972,None,,,,21004,0002,2022_Jun_06_1315,localizer,2021.1.3,59.93554531220059,
block,scrambled,scrambled062.bmp,,,,,0,7,7,7,,,,,,,,,,,,,,,,,,,,,,,,,,,,,,,,,,,,,,,,,,None,,539.1447335900972,None,539.1447335900972,None,2022-06-06-13:23:55.985116,539.1548862999771,539.4613564000465,539.1548862999771,None,None,539.1548862999771,None,539.9612510900712,None,,,,21004,0002,2022_Jun_06_1315,localizer,2021.1.3,59.93554531220059,
block,scrambled,scrambled041.bmp,,,,,0,8,8,8,,,,,,,,,,,,,,,,,,,,,,,,,,,,,,,,,,,,,,,,,,None,,539.9612510900712,None,539.9612510900712,None,2022-06-06-13:23:56.801831,539.9716142001562,540.2783910001162,539.9716142001562,None,None,539.9716142001562,None,540.777723090048,None,,,,21004,0002,2022_Jun_06_1315,localizer,2021.1.3,59.93554531220059,
block,scrambled,scrambled087.bmp,,,,,0,9,9,9,,,,,,,,,,,,,,,,,,,,,,,,,,,,,,,,,,,,,,,,,,None,,540.777723090048,None,540.777723090048,None,2022-06-06-13:23:57.617116,540.7857753999997,541.0949997000862,540.7857753999997,None,None,540.7857753999997,None,541.5941948900232,None,,,,21004,0002,2022_Jun_06_1315,localizer,2021.1.3,59.93554531220059,
block,scrambled,scrambled020.bmp,,,,,0,10,10,10,,,,,,,,,,,,,,,,,,,,,,,,,,,,,,,,,,,,,,,,,,None,,541.5941948900232,None,541.5941948900232,None,2022-06-06-13:23:58.434364,541.6036809000652,541.91544110002,541.6036809000652,None,None,541.6036809000652,None,542.4124739901396,None,,,,21004,0002,2022_Jun_06_1315,localizer,2021.1.3,59.93554531220059,
block,scrambled,scrambled009.bmp,,,,,0,11,11,11,,,,,,,,,,,,,,,,,,,,,,,,,,,,,,,,,,,,,,,,,,None,,542.4124739901396,None,542.4124739901396,None,2022-06-06-13:23:59.254004,542.4251807001419,542.7279783000704,542.4251807001419,None,None,542.4251807001419,None,543.2277421900304,None,,,,21004,0002,2022_Jun_06_1315,localizer,2021.1.3,59.93554531220059,
block,scrambled,scrambled015.bmp,,,,,0,12,12,12,,,,,,,,,,,,,,,,,,,,,,,,,,,,,,,,,,,,,,,,,,None,,543.2277421900304,None,543.2277421900304,None,2022-06-06-13:24:00.069384,543.2291683000512,543.5448015001602,543.2291683000512,None,None,543.2291683000512,None,544.0445962900063,None,,,,21004,0002,2022_Jun_06_1315,localizer,2021.1.3,59.93554531220059,
block,scrambled,scrambled008.bmp,,,,,0,13,13,13,,,,,,,,,,,,,,,,,,,,,,,,,,,,,,,,,,,,,,,,,,None,,544.0445962900063,None,544.0445962900063,None,2022-06-06-13:24:00.885564,544.0456316000782,544.3461827000137,544.0456316000782,None,None,544.0456316000782,None,544.8608883901267,None,,,,21004,0002,2022_Jun_06_1315,localizer,2021.1.3,59.93554531220059,
block_end,scrambled,scrambled057.bmp,,,,,0,14,14,14,,,,,,,,,,,,,,,,,,,,,,,,,,,,,,,,,,,,,,,,,,None,,544.8608883901267,None,544.8608883901267,None,2022-06-06-13:24:01.701274,544.8700056001544,545.1781560000964,544.8700056001544,None,None,544.8700056001544,None,545.6779149901355,None,,,,21004,0002,2022_Jun_06_1315,localizer,2021.1.3,59.93554531220059,
block_start,faces,faces038.bmp,,,,,0,15,15,15,,,,,,,,,,,,,,,,,,,,,,,,,,,,,,,,,,,,,,,,,,t,1.7347503998316824,545.6784063000232,None,545.6784063000232,None,2022-06-06-13:24:04.268655,547.4303339000326,547.7447939000558,547.4303339000326,None,None,547.4303339000326,None,548.245152890007,None,,,,21004,0002,2022_Jun_06_1315,localizer,2021.1.3,59.93554531220059,
block,faces,faces046.bmp,,,,,0,16,16,16,,,,,,,,,,,,,,,,,,,,,,,,,,,,,,,,,,,,,,,,,,None,,548.245152890007,None,548.245152890007,None,2022-06-06-13:24:05.086525,548.2583357000258,548.5615201999899,548.2583357000258,None,None,548.2583357000258,None,549.0613671900006,None,,,,21004,0002,2022_Jun_06_1315,localizer,2021.1.3,59.93554531220059,
block,faces,faces068.bmp,,,,,0,17,17,17,,,,,,,,,,,,,,,,,,,,,,,,,,,,,,,,,,,,,,,,,,None,,549.0613671900006,None,549.0613671900006,None,2022-06-06-13:24:05.902202,549.0739430999383,549.3782202999573,549.0739430999383,None,None,549.0739430999383,None,549.8778705899837,None,,,,21004,0002,2022_Jun_06_1315,localizer,2021.1.3,59.93554531220059,
block,faces,faces088.bmp,,,,,0,18,18,18,,,,,,,,,,,,,,,,,,,,,,,,,,,,,,,,,,,,,,,,,,None,,549.8778705899837,None,549.8778705899837,None,2022-06-06-13:24:06.718255,549.8790967001114,550.1949360000435,549.8790967001114,None,None,549.8790967001114,None,550.6781909901416,None,,,,21004,0002,2022_Jun_06_1315,localizer,2021.1.3,59.93554531220059,
block,faces,faces009.bmp,,,,,0,19,19,19,,,,,,,,,,,,,,,,,,,,,,,,,,,,,,,,,,,,,,,,,,None,,550.6781909901416,None,550.6781909901416,None,2022-06-06-13:24:07.520443,550.6797877999488,550.9952841999475,550.6797877999488,550.6797877999488,None,550.6797877999488,550.6797877999488,551.4848791901255,None,,,,21004,0002,2022_Jun_06_1315,localizer,2021.1.3,59.93554531220059,
block,faces,faces067.bmp,,,,,0,20,20,20,,,,,,,,,,,,,,,,,,,,,,,,,,,,,,,,,,,,,,,,,,None,,551.4848791901255,None,551.4848791901255,None,2022-06-06-13:24:08.330246,551.490634100046,551.7954204000998,551.490634100046,None,None,551.490634100046,None,552.2948897900293,None,,,,21004,0002,2022_Jun_06_1315,localizer,2021.1.3,59.93554531220059,
block,faces,faces014.bmp,,,,,0,21,21,21,,,,,,,,,,,,,,,,,,,,,,,,,,,,,,,,,,,,,,,,,,None,,552.2948897900293,None,552.2948897900293,None,2022-06-06-13:24:09.136259,552.2968194000423,552.6126332001295,552.2968194000423,None,None,552.2968194000423,None,553.1116354901111,None,,,,21004,0002,2022_Jun_06_1315,localizer,2021.1.3,59.93554531220059,
block,faces,faces071.bmp,,,,,0,22,22,22,,,,,,,,,,,,,,,,,,,,,,,,,,,,,,,,,,,,,,,,,,None,,553.1116354901111,None,553.1116354901111,None,2022-06-06-13:24:09.952015,553.1229129000567,553.4285117001273,553.1229129000567,None,None,553.1229129000567,None,553.9279903900111,None,,,,21004,0002,2022_Jun_06_1315,localizer,2021.1.3,59.93554531220059,
block,faces,faces069.bmp,,,,,0,23,23,23,,,,,,,,,,,,,,,,,,,,,,,,,,,,,,,,,,,,,,,,,,None,,553.9279903900111,None,553.9279903900111,None,2022-06-06-13:24:10.768922,553.9394786001649,554.2448917999864,553.9394786001649,None,None,553.9394786001649,None,554.7457611900987,None,,,,21004,0002,2022_Jun_06_1315,localizer,2021.1.3,59.93554531220059,
block,faces,faces072.bmp,,,,,0,24,24,24,,,,,,,,,,,,,,,,,,,,,,,,,,,,,,,,,,,,,,,,,,None,,554.7457611900987,None,554.7457611900987,None,2022-06-06-13:24:11.588100,554.7604742001276,555.0618819000665,554.7604742001276,None,None,554.7604742001276,None,555.5612506901613,None,,,,21004,0002,2022_Jun_06_1315,localizer,2021.1.3,59.93554531220059,
block,faces,faces025.bmp,,,,,0,25,25,25,,,,,,,,,,,,,,,,,,,,,,,,,,,,,,,,,,,,,,,,,,None,,555.5612506901613,None,555.5612506901613,None,2022-06-06-13:24:12.401643,555.5705824999604,555.8791402000934,555.5705824999604,None,None,555.5705824999604,None,556.3786606900627,None,,,,21004,0002,2022_Jun_06_1315,localizer,2021.1.3,59.93554531220059,
block,faces,faces025.bmp,,,,,0,26,26,26,,,,,,,,,,,,,,,,,,,,,,,,,,,,,,,,,,,,,,,,,,None,,556.3786606900627,None,556.3786606900627,None,2022-06-06-13:24:13.220223,556.379677799996,556.6952823000029,556.379677799996,None,y,556.379677799996,None,557.1945023900131,None,0.5832474001217633,,,21004,0002,2022_Jun_06_1315,localizer,2021.1.3,59.93554531220059,
block,faces,faces023.bmp,,,,,0,27,27,27,,,,,,,,,,,,,,,,,,,,,,,,,,,,,,,,,,,,,,,,,,None,,557.1945023900131,None,557.1945023900131,None,2022-06-06-13:24:14.033558,557.1960700000636,557.5116048001219,557.1960700000636,None,None,557.1960700000636,None,558.0114931899822,None,,,,21004,0002,2022_Jun_06_1315,localizer,2021.1.3,59.93554531220059,
block,faces,faces073.bmp,,,,,0,28,28,28,,,,,,,,,,,,,,,,,,,,,,,,,,,,,,,,,,,,,,,,,,None,,558.0114931899822,None,558.0114931899822,None,2022-06-06-13:24:14.851760,558.0210588001646,558.3285523999948,558.0210588001646,None,None,558.0210588001646,None,558.8279994901037,None,,,,21004,0002,2022_Jun_06_1315,localizer,2021.1.3,59.93554531220059,
block_end,faces,faces020.bmp,,,,,0,29,29,29,,,,,,,,,,,,,,,,,,,,,,,,,,,,,,,,,,,,,,,,,,None,,558.8279994901037,None,558.8279994901037,None,2022-06-06-13:24:15.668510,558.8397288001142,559.1451437999494,558.8397288001142,None,None,558.8397288001142,None,559.6448045901722,None,,,,21004,0002,2022_Jun_06_1315,localizer,2021.1.3,59.93554531220059,
block_start,scenes,scenes037.bmp,,,,,0,30,30,30,,,,,,,,,,,,,,,,,,,,,,,,,,,,,,,,,,,,,,,,,,t,1.767838700208813,559.6451586999465,None,559.6451586999465,None,2022-06-06-13:24:18.268085,561.4389705001377,561.7459595000837,561.4389705001377,None,None,561.4389705001377,None,562.2451121900464,None,,,,21004,0002,2022_Jun_06_1315,localizer,2021.1.3,59.93554531220059,
block,scenes,scenes060.bmp,,,,,0,31,31,31,,,,,,,,,,,,,,,,,,,,,,,,,,,,,,,,,,,,,,,,,,None,,562.2451121900464,None,562.2451121900464,None,2022-06-06-13:24:19.085698,562.256403400097,562.5617907000706,562.256403400097,None,None,562.256403400097,None,563.0613309899578,None,,,,21004,0002,2022_Jun_06_1315,localizer,2021.1.3,59.93554531220059,
block,scenes,scenes061.bmp,,,,,0,32,32,32,,,,,,,,,,,,,,,,,,,,,,,,,,,,,,,,,,,,,,,,,,None,,563.0613309899578,None,563.0613309899578,None,2022-06-06-13:24:19.901640,563.0730129999574,563.378359900089,563.0730129999574,None,None,563.0730129999574,None,563.8781114900718,None,,,,21004,0002,2022_Jun_06_1315,localizer,2021.1.3,59.93554531220059,
block,scenes,scenes024.bmp,,,,,0,33,33,33,,,,,,,,,,,,,,,,,,,,,,,,,,,,,,,,,,,,,,,,,,None,,563.8781114900718,None,563.8781114900718,None,2022-06-06-13:24:20.718550,563.879237400135,564.1951278999913,563.879237400135,None,None,563.879237400135,None,564.6788667901652,None,,,,21004,0002,2022_Jun_06_1315,localizer,2021.1.3,59.93554531220059,
block,scenes,scenes015.bmp,,,,,0,34,34,34,,,,,,,,,,,,,,,,,,,,,,,,,,,,,,,,,,,,,,,,,,None,,564.6788667901652,None,564.6788667901652,None,2022-06-06-13:24:21.522043,564.6890299001243,564.9951822001021,564.6890299001243,564.6890299001243,None,564.6890299001243,564.6890299001243,565.4947119900258,None,,,,21004,0002,2022_Jun_06_1315,localizer,2021.1.3,59.93554531220059,
block,scenes,scenes089.bmp,,,,,0,35,35,35,,,,,,,,,,,,,,,,,,,,,,,,,,,,,,,,,,,,,,,,,,None,,565.4947119900258,None,565.4947119900258,None,2022-06-06-13:24:22.335104,565.4964940000791,565.8117973001208,565.4964940000791,None,None,565.4964940000791,None,566.3012124900939,None,,,,21004,0002,2022_Jun_06_1315,localizer,2021.1.3,59.93554531220059,
block,scenes,scenes076.bmp,,,,,0,36,36,36,,,,,,,,,,,,,,,,,,,,,,,,,,,,,,,,,,,,,,,,,,None,,566.3012124900939,None,566.3012124900939,None,2022-06-06-13:24:23.148545,566.3204445000738,566.6293174000457,566.3204445000738,None,None,566.3204445000738,None,567.1121509899618,None,,,,21004,0002,2022_Jun_06_1315,localizer,2021.1.3,59.93554531220059,
block,scenes,scenes007.bmp,,,,,0,37,37,37,,,,,,,,,,,,,,,,,,,,,,,,,,,,,,,,,,,,,,,,,,None,,567.1121509899618,None,567.1121509899618,None,2022-06-06-13:24:23.953522,567.113400900038,567.4287119000219,567.113400900038,None,None,567.113400900038,None,567.9279324901523,None,,,,21004,0002,2022_Jun_06_1315,localizer,2021.1.3,59.93554531220059,
block,scenes,scenes016.bmp,,,,,0,38,38,38,,,,,,,,,,,,,,,,,,,,,,,,,,,,,,,,,,,,,,,,,,None,,567.9279324901523,None,567.9279324901523,None,2022-06-06-13:24:24.768319,567.9427039001603,568.2450322001241,567.9427039001603,None,None,567.9427039001603,None,568.7344052901259,None,,,,21004,0002,2022_Jun_06_1315,localizer,2021.1.3,59.93554531220059,
block,scenes,scenes010.bmp,,,,,0,39,39,39,,,,,,,,,,,,,,,,,,,,,,,,,,,,,,,,,,,,,,,,,,None,,568.7344052901259,None,568.7344052901259,None,2022-06-06-13:24:25.582138,568.7439306001179,569.0457262999844,568.7439306001179,None,None,568.7439306001179,None,569.5454775900813,None,,,,21004,0002,2022_Jun_06_1315,localizer,2021.1.3,59.93554531220059,
block,scenes,scenes018.bmp,,,,,0,40,40,40,,,,,,,,,,,,,,,,,,,,,,,,,,,,,,,,,,,,,,,,,,None,,569.5454775900813,None,569.5454775900813,None,2022-06-06-13:24:26.386804,569.5467549001332,569.8617612000089,569.5467549001332,None,None,569.5467549001332,None,570.3612592900405,None,,,,21004,0002,2022_Jun_06_1315,localizer,2021.1.3,59.93554531220059,
block,scenes,scenes042.bmp,,,,,0,41,41,41,,,,,,,,,,,,,,,,,,,,,,,,,,,,,,,,,,,,,,,,,,None,,570.3612592900405,None,570.3612592900405,None,2022-06-06-13:24:27.201643,570.3707425999455,570.6781999999657,570.3707425999455,None,None,570.3707425999455,None,571.17793959009,None,,,,21004,0002,2022_Jun_06_1315,localizer,2021.1.3,59.93554531220059,
block,scenes,scenes059.bmp,,,,,0,42,42,42,,,,,,,,,,,,,,,,,,,,,,,,,,,,,,,,,,,,,,,,,,None,,571.17793959009,None,571.17793959009,None,2022-06-06-13:24:28.018386,571.179338700138,571.4949701000005,571.179338700138,None,None,571.179338700138,None,571.9946425899631,None,,,,21004,0002,2022_Jun_06_1315,localizer,2021.1.3,59.93554531220059,
block,scenes,scenes053.bmp,,,,,0,43,43,43,,,,,,,,,,,,,,,,,,,,,,,,,,,,,,,,,,,,,,,,,,None,,571.9946425899631,None,571.9946425899631,None,2022-06-06-13:24:28.835100,572.0044852001593,572.3146029000636,572.0044852001593,None,None,572.0044852001593,None,572.8116176901618,None,,,,21004,0002,2022_Jun_06_1315,localizer,2021.1.3,59.93554531220059,
block_end,scenes,scenes086.bmp,,,,,0,44,44,44,,,,,,,,,,,,,,,,,,,,,,,,,,,,,,,,,,,,,,,,,,None,,572.8116176901618,None,572.8116176901618,None,2022-06-06-13:24:29.651997,572.8231480999384,573.1283372000325,572.8231480999384,None,None,572.8231480999384,None,573.6279559901683,None,,,,21004,0002,2022_Jun_06_1315,localizer,2021.1.3,59.93554531220059,
block_start,objects,objects008.bmp,,,,,0,45,45,45,,,,,,,,,,,,,,,,,,,,,,,,,,,,,,,,,,,,,,,,,,t,1.7846189001575112,573.6282790999394,None,573.6282790999394,None,2022-06-06-13:24:32.269721,575.4306338001043,575.7449638999533,575.4306338001043,None,None,575.4306338001043,None,576.2449560901383,None,,,,21004,0002,2022_Jun_06_1315,localizer,2021.1.3,59.93554531220059,
block,objects,objects042.bmp,,,,,0,46,46,46,,,,,,,,,,,,,,,,,,,,,,,,,,,,,,,,,,,,,,,,,,None,,576.2449560901383,None,576.2449560901383,None,2022-06-06-13:24:33.085335,576.2460078001022,576.5454977001064,576.2460078001022,None,None,576.2460078001022,None,577.0608556901803,None,,,,21004,0002,2022_Jun_06_1315,localizer,2021.1.3,59.93554531220059,
block,objects,objects079.bmp,,,,,0,47,47,47,,,,,,,,,,,,,,,,,,,,,,,,,,,,,,,,,,,,,,,,,,None,,577.0608556901803,None,577.0608556901803,None,2022-06-06-13:24:33.900246,577.0627905000001,577.3794532001484,577.0627905000001,None,None,577.0627905000001,None,577.8780670899665,None,,,,21004,0002,2022_Jun_06_1315,localizer,2021.1.3,59.93554531220059,
block,objects,objects025.bmp,,,,,0,48,48,48,,,,,,,,,,,,,,,,,,,,,,,,,,,,,,,,,,,,,,,,,,None,,577.8780670899665,None,577.8780670899665,None,2022-06-06-13:24:34.718643,577.8884421000257,578.1950493999757,577.8884421000257,None,None,577.8884421000257,None,578.6948877901538,None,,,,21004,0002,2022_Jun_06_1315,localizer,2021.1.3,59.93554531220059,
block,objects,objects040.bmp,,,,,0,49,49,49,,,,,,,,,,,,,,,,,,,,,,,,,,,,,,,,,,,,,,,,,,None,,578.6948877901538,None,578.6948877901538,None,2022-06-06-13:24:35.535253,578.6958731999621,579.0116057000123,578.6958731999621,None,None,578.6958731999621,None,579.5108362899861,None,,,,21004,0002,2022_Jun_06_1315,localizer,2021.1.3,59.93554531220059,
block,objects,objects076.bmp,,,,,0,50,50,50,,,,,,,,,,,,,,,,,,,,,,,,,,,,,,,,,,,,,,,,,,None,,579.5108362899861,None,579.5108362899861,None,2022-06-06-13:24:36.350226,579.5127883001696,579.8280392000452,579.5127883001696,None,None,579.5127883001696,None,580.3128549901536,None,,,,21004,0002,2022_Jun_06_1315,localizer,2021.1.3,59.93554531220059,
block,objects,objects088.bmp,,,,,0,51,51,51,,,,,,,,,,,,,,,,,,,,,,,,,,,,,,,,,,,,,,,,,,None,,580.3128549901536,None,580.3128549901536,None,2022-06-06-13:24:37.157393,580.3288442001212,580.6281757999677,580.3288442001212,580.3288442001212,None,580.3288442001212,580.3288442001212,581.1281405901769,None,,,,21004,0002,2022_Jun_06_1315,localizer,2021.1.3,59.93554531220059,
block,objects,objects033.bmp,,,,,0,52,52,52,,,,,,,,,,,,,,,,,,,,,,,,,,,,,,,,,,,,,,,,,,None,,581.1281405901769,None,581.1281405901769,None,2022-06-06-13:24:37.968833,581.1293361000717,581.444997300161,581.1293361000717,None,None,581.1293361000717,None,581.9294168900466,None,,,,21004,0002,2022_Jun_06_1315,localizer,2021.1.3,59.93554531220059,
block,objects,objects077.bmp,,,,,0,53,53,53,,,,,,,,,,,,,,,,,,,,,,,,,,,,,,,,,,,,,,,,,,None,,581.9294168900466,None,581.9294168900466,None,2022-06-06-13:24:38.774753,581.9464861999732,582.2617800000589,581.9464861999732,581.9464861999732,None,581.9464861999732,581.9464861999732,582.7452977900626,None,,,,21004,0002,2022_Jun_06_1315,localizer,2021.1.3,59.93554531220059,
block,objects,objects062.bmp,,,,,0,54,54,54,,,,,,,,,,,,,,,,,,,,,,,,,,,,,,,,,,,,,,,,,,None,,582.7452977900626,None,582.7452977900626,None,2022-06-06-13:24:39.586649,582.7464997000061,583.0615364001133,582.7464997000061,None,None,582.7464997000061,None,583.5613432901679,None,,,,21004,0002,2022_Jun_06_1315,localizer,2021.1.3,59.93554531220059,
block,objects,objects031.bmp,,,,,0,55,55,55,,,,,,,,,,,,,,,,,,,,,,,,,,,,,,,,,,,,,,,,,,None,,583.5613432901679,None,583.5613432901679,None,2022-06-06-13:24:40.401729,583.5626249001361,583.8625797000714,583.5626249001361,None,None,583.5626249001361,None,584.3782253901242,None,,,,21004,0002,2022_Jun_06_1315,localizer,2021.1.3,59.93554531220059,
block,objects,objects032.bmp,,,,,0,56,56,56,,,,,,,,,,,,,,,,,,,,,,,,,,,,,,,,,,,,,,,,,,None,,584.3782253901242,None,584.3782253901242,None,2022-06-06-13:24:41.218608,584.3884994001128,584.694661000045,584.3884994001128,None,None,584.3884994001128,None,585.1963642901043,None,,,,21004,0002,2022_Jun_06_1315,localizer,2021.1.3,59.93554531220059,
block,objects,objects013.bmp,,,,,0,57,57,57,,,,,,,,,,,,,,,,,,,,,,,,,,,,,,,,,,,,,,,,,,None,,585.1963642901043,None,585.1963642901043,None,2022-06-06-13:24:42.038010,585.2055540999863,585.5115100999828,585.2055540999863,None,None,585.2055540999863,None,586.0137917900225,None,,,,21004,0002,2022_Jun_06_1315,localizer,2021.1.3,59.93554531220059,
block,objects,objects065.bmp,,,,,0,58,58,58,,,,,,,,,,,,,,,,,,,,,,,,,,,,,,,,,,,,,,,,,,None,,586.0137917900225,None,586.0137917900225,None,2022-06-06-13:24:42.857384,586.0186781999655,586.3279854999855,586.0186781999655,None,None,586.0186781999655,None,586.8274937900948,None,,,,21004,0002,2022_Jun_06_1315,localizer,2021.1.3,59.93554531220059,
block_end,objects,objects064.bmp,,,,,0,59,59,59,,,,,,,,,,,,,,,,,,,,,,,,,,,,,,,,,,,,,,,,,,None,,586.8274937900948,None,586.8274937900948,None,2022-06-06-13:24:43.666883,586.8372382000089,587.1451720001642,586.8372382000089,None,None,586.8372382000089,None,587.6471726901597,None,,,,21004,0002,2022_Jun_06_1315,localizer,2021.1.3,59.93554531220059,
null_block,null_block,null_block.bmp,,,,,0,60,60,60,,,,,,,,,,,,,,,,,,,,,,,,,,,,,,,,,,,,,,,,,,t,1.7634303998202085,587.6484310999513,None,587.6484310999513,None,2022-06-06-13:24:46.270709,589.4293467900949,None,589.4293467900949,None,None,589.4293467900949,None,589.4372564000078,None,,,,21004,0002,2022_Jun_06_1315,localizer,2021.1.3,59.93554531220059,
block_start,faces,faces019.bmp,,,,,0,61,61,61,,,,,,,,,,,,,,,,,,,,,,,,,,,,,,,,,,,,,,,,,,t,1.965901599964127,601.4461016999558,None,601.4461016999558,None,2022-06-06-13:25:00.269479,603.4463987001218,603.7615825000685,603.4463987001218,None,None,603.4463987001218,None,604.2446951901308,None,,,,21004,0002,2022_Jun_06_1315,localizer,2021.1.3,59.93554531220059,
block,faces,faces082.bmp,,,,,0,62,62,62,,,,,,,,,,,,,,,,,,,,,,,,,,,,,,,,,,,,,,,,,,None,,604.2446951901308,None,604.2446951901308,None,2022-06-06-13:25:01.085082,604.2570299999788,604.5623847001698,604.2570299999788,None,None,604.2570299999788,None,605.0615465899697,None,,,,21004,0002,2022_Jun_06_1315,localizer,2021.1.3,59.93554531220059,
block,faces,faces013.bmp,,,,,0,63,63,63,,,,,,,,,,,,,,,,,,,,,,,,,,,,,,,,,,,,,,,,,,None,,605.0615465899697,None,605.0615465899697,None,2022-06-06-13:25:01.901933,605.0721001001075,605.3783333001193,605.0721001001075,None,None,605.0721001001075,None,605.8782212899765,None,,,,21004,0002,2022_Jun_06_1315,localizer,2021.1.3,59.93554531220059,
block,faces,faces047.bmp,,,,,0,64,64,64,,,,,,,,,,,,,,,,,,,,,,,,,,,,,,,,,,,,,,,,,,None,,605.8782212899765,None,605.8782212899765,None,2022-06-06-13:25:02.718907,605.8794342000037,606.1953285001218,605.8794342000037,None,None,605.8794342000037,None,606.6942451901501,None,,,,21004,0002,2022_Jun_06_1315,localizer,2021.1.3,59.93554531220059,
block,faces,faces044.bmp,,,,,0,65,65,65,,,,,,,,,,,,,,,,,,,,,,,,,,,,,,,,,,,,,,,,,,None,,606.6942451901501,None,606.6942451901501,None,2022-06-06-13:25:03.533637,606.6961678001098,606.9956706999801,606.6961678001098,None,None,606.6961678001098,None,607.4956079900963,None,,,,21004,0002,2022_Jun_06_1315,localizer,2021.1.3,59.93554531220059,
block,faces,faces059.bmp,,,,,0,66,66,66,,,,,,,,,,,,,,,,,,,,,,,,,,,,,,,,,,,,,,,,,,None,,607.4956079900963,None,607.4956079900963,None,2022-06-06-13:25:04.339111,607.5057960001286,607.81199810002,607.5057960001286,607.5057960001286,None,607.5057960001286,607.5057960001286,608.3170485899551,None,,,,21004,0002,2022_Jun_06_1315,localizer,2021.1.3,59.93554531220059,
block,faces,faces061.bmp,,,,,0,67,67,67,,,,,,,,,,,,,,,,,,,,,,,,,,,,,,,,,,,,,,,,,,None,,608.3170485899551,None,608.3170485899551,None,2022-06-06-13:25:05.160394,608.3332766001113,608.6451177001,608.3332766001113,None,None,608.3332766001113,None,609.1280268901261,None,,,,21004,0002,2022_Jun_06_1315,localizer,2021.1.3,59.93554531220059,
block,faces,faces011.bmp,,,,,0,68,68,68,,,,,,,,,,,,,,,,,,,,,,,,,,,,,,,,,,,,,,,,,,None,,609.1280268901261,None,609.1280268901261,None,2022-06-06-13:25:05.968428,609.1378248000983,609.4451083000749,609.1378248000983,None,None,609.1378248000983,None,609.9448559901444,None,,,,21004,0002,2022_Jun_06_1315,localizer,2021.1.3,59.93554531220059,
block,faces,faces005.bmp,,,,,0,69,69,69,,,,,,,,,,,,,,,,,,,,,,,,,,,,,,,,,,,,,,,,,,None,,609.9448559901444,None,609.9448559901444,None,2022-06-06-13:25:06.785239,609.9555126000196,610.2616437999532,609.9555126000196,None,None,609.9555126000196,None,610.7611109900987,None,,,,21004,0002,2022_Jun_06_1315,localizer,2021.1.3,59.93554531220059,
block,faces,faces057.bmp,,,,,0,70,70,70,,,,,,,,,,,,,,,,,,,,,,,,,,,,,,,,,,,,,,,,,,None,,610.7611109900987,None,610.7611109900987,None,2022-06-06-13:25:07.600333,610.7715435000136,611.0785075000022,610.7715435000136,None,None,610.7715435000136,None,611.5803999901051,None,,,,21004,0002,2022_Jun_06_1315,localizer,2021.1.3,59.93554531220059,
block,faces,faces036.bmp,,,,,0,71,71,71,,,,,,,,,,,,,,,,,,,,,,,,,,,,,,,,,,,,,,,,,,None,,611.5803999901051,None,611.5803999901051,None,2022-06-06-13:25:08.424748,611.596822099993,611.9118467001244,611.596822099993,None,None,611.596822099993,None,612.3956587901572,None,,,,21004,0002,2022_Jun_06_1315,localizer,2021.1.3,59.93554531220059,
block,faces,faces045.bmp,,,,,0,72,72,72,,,,,,,,,,,,,,,,,,,,,,,,,,,,,,,,,,,,,,,,,,None,,612.3956587901572,None,612.3956587901572,None,2022-06-06-13:25:09.237013,612.3968086000532,612.7123360999394,612.3968086000532,None,None,612.3968086000532,None,613.2117988900515,None,,,,21004,0002,2022_Jun_06_1315,localizer,2021.1.3,59.93554531220059,
block,faces,faces008.bmp,,,,,0,73,73,73,,,,,,,,,,,,,,,,,,,,,,,,,,,,,,,,,,,,,,,,,,None,,613.2117988900515,None,613.2117988900515,None,2022-06-06-13:25:10.052408,613.2131533999927,613.5126954000443,613.2131533999927,None,None,613.2131533999927,None,614.0136916900752,None,,,,21004,0002,2022_Jun_06_1315,localizer,2021.1.3,59.93554531220059,
block,faces,faces021.bmp,,,,,0,74,74,74,,,,,,,,,,,,,,,,,,,,,,,,,,,,,,,,,,,,,,,,,,None,,614.0136916900752,None,614.0136916900752,None,2022-06-06-13:25:10.860067,614.0334334999789,614.3302305000834,614.0334334999789,614.0334334999789,None,614.0334334999789,614.0334334999789,614.8286776901456,None,,,,21004,0002,2022_Jun_06_1315,localizer,2021.1.3,59.93554531220059,
block_end,faces,faces032.bmp,,,,,0,75,75,75,,,,,,,,,,,,,,,,,,,,,,,,,,,,,,,,,,,,,,,,,,None,,614.8286776901456,None,614.8286776901456,None,2022-06-06-13:25:11.669057,614.8390010001604,615.1455767001025,614.8390010001604,None,None,614.8390010001604,None,615.6457089900738,None,,,,21004,0002,2022_Jun_06_1315,localizer,2021.1.3,59.93554531220059,
block_start,objects,objects020.bmp,,,,,0,76,76,76,,,,,,,,,,,,,,,,,,,,,,,,,,,,,,,,,,,,,,,,,,t,1.7660383998882025,615.6458982001059,None,615.6458982001059,None,2022-06-06-13:25:14.267524,617.4294339001644,617.7454093000852,617.4294339001644,None,None,617.4294339001644,None,618.2451083900174,None,,,,21004,0002,2022_Jun_06_1315,localizer,2021.1.3,59.93554531220059,
block,objects,objects019.bmp,,,,,0,77,77,77,,,,,,,,,,,,,,,,,,,,,,,,,,,,,,,,,,,,,,,,,,None,,618.2451083900174,None,618.2451083900174,None,2022-06-06-13:25:15.085472,618.2563039001543,618.5616206999402,618.2563039001543,None,None,618.2563039001543,None,619.0618925900432,None,,,,21004,0002,2022_Jun_06_1315,localizer,2021.1.3,59.93554531220059,
block,objects,objects040.bmp,,,,,0,78,78,78,,,,,,,,,,,,,,,,,,,,,,,,,,,,,,,,,,,,,,,,,,None,,619.0618925900432,None,619.0618925900432,None,2022-06-06-13:25:15.902497,619.0629100000951,619.3788330000825,619.0629100000951,None,None,619.0629100000951,None,619.878273390024,None,,,,21004,0002,2022_Jun_06_1315,localizer,2021.1.3,59.93554531220059,
block,objects,objects052.bmp,,,,,0,79,79,79,,,,,,,,,,,,,,,,,,,,,,,,,,,,,,,,,,,,,,,,,,None,,619.878273390024,None,619.878273390024,None,2022-06-06-13:25:16.718859,619.8879982000217,620.1953843000811,619.8879982000217,None,None,619.8879982000217,None,620.6956381900469,None,,,,21004,0002,2022_Jun_06_1315,localizer,2021.1.3,59.93554531220059,
block,objects,objects074.bmp,,,,,0,80,80,80,,,,,,,,,,,,,,,,,,,,,,,,,,,,,,,,,,,,,,,,,,None,,620.6956381900469,None,620.6956381900469,None,2022-06-06-13:25:17.537207,620.7077606001403,621.0123054001015,620.7077606001403,None,None,620.7077606001403,None,621.5129864900606,None,,,,21004,0002,2022_Jun_06_1315,localizer,2021.1.3,59.93554531220059,
block,objects,objects075.bmp,,,,,0,81,81,81,,,,,,,,,,,,,,,,,,,,,,,,,,,,,,,,,,,,,,,,,,None,,621.5129864900606,None,621.5129864900606,None,2022-06-06-13:25:18.354533,621.5255667001475,621.8285988999996,621.5255667001475,None,None,621.5255667001475,None,622.3282799900277,None,,,,21004,0002,2022_Jun_06_1315,localizer,2021.1.3,59.93554531220059,
block,objects,objects065.bmp,,,,,0,82,82,82,,,,,,,,,,,,,,,,,,,,,,,,,,,,,,,,,,,,,,,,,,None,,622.3282799900277,None,622.3282799900277,None,2022-06-06-13:25:19.168665,622.3294247000013,622.6453931001015,622.3294247000013,None,None,622.3294247000013,None,623.1450699900976,None,,,,21004,0002,2022_Jun_06_1315,localizer,2021.1.3,59.93554531220059,
block,objects,objects059.bmp,,,,,0,83,83,83,,,,,,,,,,,,,,,,,,,,,,,,,,,,,,,,,,,,,,,,,,None,,623.1450699900976,None,623.1450699900976,None,2022-06-06-13:25:19.985647,623.1555389000569,623.4660116999876,623.1555389000569,None,None,623.1555389000569,None,623.9616855900036,None,,,,21004,0002,2022_Jun_06_1315,localizer,2021.1.3,59.93554531220059,
block,objects,objects008.bmp,,,,,0,84,84,84,,,,,,,,,,,,,,,,,,,,,,,,,,,,,,,,,,,,,,,,,,None,,623.9616855900036,None,623.9616855900036,None,2022-06-06-13:25:20.802069,623.9628258999437,624.2850756000262,623.9628258999437,None,None,623.9628258999437,None,624.7624013901456,None,,,,21004,0002,2022_Jun_06_1315,localizer,2021.1.3,59.93554531220059,
block,objects,objects071.bmp,,,,,0,85,85,85,,,,,,,,,,,,,,,,,,,,,,,,,,,,,,,,,,,,,,,,,,None,,624.7624013901456,None,624.7624013901456,None,2022-06-06-13:25:21.605737,624.7654909000266,625.0793902000878,624.7654909000266,624.7654909000266,None,624.7654909000266,624.7654909000266,625.5795871899696,None,,,,21004,0002,2022_Jun_06_1315,localizer,2021.1.3,59.93554531220059,
block,objects,objects017.bmp,,,,,0,86,86,86,,,,,,,,,,,,,,,,,,,,,,,,,,,,,,,,,,,,,,,,,,None,,625.5795871899696,None,625.5795871899696,None,2022-06-06-13:25:22.421928,625.5828156999778,625.8950199999381,625.5828156999778,None,None,625.5828156999778,None,626.3947263900424,None,,,,21004,0002,2022_Jun_06_1315,localizer,2021.1.3,59.93554531220059,
block,objects,objects005.bmp,,,,,0,87,87,87,,,,,,,,,,,,,,,,,,,,,,,,,,,,,,,,,,,,,,,,,,None,,626.3947263900424,None,626.3947263900424,None,2022-06-06-13:25:23.235342,626.396314300131,626.7119708999526,626.396314300131,None,None,626.396314300131,None,627.2117268899689,None,,,,21004,0002,2022_Jun_06_1315,localizer,2021.1.3,59.93554531220059,
block,objects,objects049.bmp,,,,,0,88,88,88,,,,,,,,,,,,,,,,,,,,,,,,,,,,,,,,,,,,,,,,,,None,,627.2117268899689,None,627.2117268899689,None,2022-06-06-13:25:24.052120,627.2129260001238,627.5287026001606,627.2129260001238,None,None,627.2129260001238,None,628.0281796900323,None,,,,21004,0002,2022_Jun_06_1315,localizer,2021.1.3,59.93554531220059,
block,objects,objects049.bmp,,,,,0,89,89,89,,,,,,,,,,,,,,,,,,,,,,,,,,,,,,,,,,,,,,,,,,None,,628.0281796900323,None,628.0281796900323,None,2022-06-06-13:25:24.868731,628.0294166000094,628.3453212000895,628.0294166000094,None,y,628.0294166000094,None,628.8296320899623,None,0.5792231999803334,,,21004,0002,2022_Jun_06_1315,localizer,2021.1.3,59.93554531220059,
block_end,objects,objects041.bmp,,,,,0,90,90,90,,,,,,,,,,,,,,,,,,,,,,,,,,,,,,,,,,,,,,,,,,None,,628.8296320899623,None,628.8296320899623,None,2022-06-06-13:25:25.674966,628.8353806999512,629.1459854999557,628.8353806999512,628.8353806999512,None,628.8353806999512,628.8353806999512,629.6456693900051,None,,,,21004,0002,2022_Jun_06_1315,localizer,2021.1.3,59.93554531220059,
block_start,scrambled,scrambled006.bmp,,,,,0,91,91,91,,,,,,,,,,,,,,,,,,,,,,,,,,,,,,,,,,,,,,,,,,t,1.7657948997803032,629.6461481000297,None,629.6461481000297,None,2022-06-06-13:25:28.274271,631.442216699943,631.7451885000337,631.442216699943,None,None,631.442216699943,None,632.2453460900812,None,,,,21004,0002,2022_Jun_06_1315,localizer,2021.1.3,59.93554531220059,
block,scrambled,scrambled030.bmp,,,,,0,92,92,92,,,,,,,,,,,,,,,,,,,,,,,,,,,,,,,,,,,,,,,,,,None,,632.2453460900812,None,632.2453460900812,None,2022-06-06-13:25:29.085928,632.246301200008,632.5619556000456,632.246301200008,None,None,632.246301200008,None,633.0619523900328,None,,,,21004,0002,2022_Jun_06_1315,localizer,2021.1.3,59.93554531220059,
block,scrambled,scrambled027.bmp,,,,,0,93,93,93,,,,,,,,,,,,,,,,,,,,,,,,,,,,,,,,,,,,,,,,,,None,,633.0619523900328,None,633.0619523900328,None,2022-06-06-13:25:29.902335,633.0630105000455,633.37907250016,633.0630105000455,None,None,633.0630105000455,None,633.8780005900422,None,,,,21004,0002,2022_Jun_06_1315,localizer,2021.1.3,59.93554531220059,
block,scrambled,scrambled038.bmp,,,,,0,94,94,94,,,,,,,,,,,,,,,,,,,,,,,,,,,,,,,,,,,,,,,,,,None,,633.8780005900422,None,633.8780005900422,None,2022-06-06-13:25:30.717391,633.8797269000206,634.1952879000455,633.8797269000206,None,None,633.8797269000206,None,634.6951961901738,None,,,,21004,0002,2022_Jun_06_1315,localizer,2021.1.3,59.93554531220059,
block,scrambled,scrambled088.bmp,,,,,0,95,95,95,,,,,,,,,,,,,,,,,,,,,,,,,,,,,,,,,,,,,,,,,,None,,634.6951961901738,None,634.6951961901738,None,2022-06-06-13:25:31.535581,634.7057709000073,635.0122171000112,634.7057709000073,None,None,634.7057709000073,None,635.5120917901164,None,,,,21004,0002,2022_Jun_06_1315,localizer,2021.1.3,59.93554531220059,
block,scrambled,scrambled079.bmp,,,,,0,96,96,96,,,,,,,,,,,,,,,,,,,,,,,,,,,,,,,,,,,,,,,,,,None,,635.5120917901164,None,635.5120917901164,None,2022-06-06-13:25:32.352690,635.5131097999401,635.8291732000653,635.5131097999401,None,None,635.5131097999401,None,636.3286570899887,None,,,,21004,0002,2022_Jun_06_1315,localizer,2021.1.3,59.93554531220059,
block,scrambled,scrambled029.bmp,,,,,0,97,97,97,,,,,,,,,,,,,,,,,,,,,,,,,,,,,,,,,,,,,,,,,,None,,636.3286570899887,None,636.3286570899887,None,2022-06-06-13:25:33.169084,636.340087100165,636.6466612999793,636.340087100165,None,None,636.340087100165,None,637.1463340900606,None,,,,21004,0002,2022_Jun_06_1315,localizer,2021.1.3,59.93554531220059,
block,scrambled,scrambled002.bmp,,,,,0,98,98,98,,,,,,,,,,,,,,,,,,,,,,,,,,,,,,,,,,,,,,,,,,None,,637.1463340900606,None,637.1463340900606,None,2022-06-06-13:25:33.988612,637.1488811001182,637.4617137000896,637.1488811001182,None,None,637.1488811001182,None,637.9616878901376,None,,,,21004,0002,2022_Jun_06_1315,localizer,2021.1.3,59.93554531220059,
block,scrambled,scrambled004.bmp,,,,,0,99,99,99,,,,,,,,,,,,,,,,,,,,,,,,,,,,,,,,,,,,,,,,,,None,,637.9616878901376,None,637.9616878901376,None,2022-06-06-13:25:34.802075,637.9629775001667,638.2787185001653,637.9629775001667,None,None,637.9629775001667,None,638.7783103899798,None,,,,21004,0002,2022_Jun_06_1315,localizer,2021.1.3,59.93554531220059,
block,scrambled,scrambled043.bmp,,,,,0,100,100,100,,,,,,,,,,,,,,,,,,,,,,,,,,,,,,,,,,,,,,,,,,None,,638.7783103899798,None,638.7783103899798,None,2022-06-06-13:25:35.618695,638.7880007999483,639.0951630000491,638.7880007999483,None,None,638.7880007999483,None,639.5951635900652,None,,,,21004,0002,2022_Jun_06_1315,localizer,2021.1.3,59.93554531220059,
block,scrambled,scrambled036.bmp,,,,,0,101,101,101,,,,,,,,,,,,,,,,,,,,,,,,,,,,,,,,,,,,,,,,,,None,,639.5951635900652,None,639.5951635900652,None,2022-06-06-13:25:36.435550,639.5963795001153,639.918782700086,639.5963795001153,None,None,639.5963795001153,None,640.3957436899888,None,,,,21004,0002,2022_Jun_06_1315,localizer,2021.1.3,59.93554531220059,
block,scrambled,scrambled026.bmp,,,,,0,102,102,102,,,,,,,,,,,,,,,,,,,,,,,,,,,,,,,,,,,,,,,,,,None,,640.3957436899888,None,640.3957436899888,None,2022-06-06-13:25:37.237126,640.3962928000838,640.6966649999376,640.3962928000838,640.3962928000838,None,640.3962928000838,640.3962928000838,641.2117956900271,None,,,,21004,0002,2022_Jun_06_1315,localizer,2021.1.3,59.93554531220059,
block,scrambled,scrambled032.bmp,,,,,0,103,103,103,,,,,,,,,,,,,,,,,,,,,,,,,,,,,,,,,,,,,,,,,,None,,641.2117956900271,None,641.2117956900271,None,2022-06-06-13:25:38.052390,641.2198222000152,641.5285309001338,641.2198222000152,None,None,641.2198222000152,None,642.0284084901447,None,,,,21004,0002,2022_Jun_06_1315,localizer,2021.1.3,59.93554531220059,
block,scrambled,scrambled073.bmp,,,,,0,104,104,104,,,,,,,,,,,,,,,,,,,,,,,,,,,,,,,,,,,,,,,,,,None,,642.0284084901447,None,642.0284084901447,None,2022-06-06-13:25:38.868984,642.0296350000426,642.3286262000911,642.0296350000426,None,None,642.0296350000426,None,642.8314547899878,None,,,,21004,0002,2022_Jun_06_1315,localizer,2021.1.3,59.93554531220059,
block_end,scrambled,scrambled021.bmp,,,,,0,105,105,105,,,,,,,,,,,,,,,,,,,,,,,,,,,,,,,,,,,,,,,,,,None,,642.8314547899878,None,642.8314547899878,None,2022-06-06-13:25:39.676907,642.8360401999671,643.1454072999768,642.8360401999671,642.8360401999671,None,642.8360401999671,642.8360401999671,643.6448703899747,None,,,,21004,0002,2022_Jun_06_1315,localizer,2021.1.3,59.93554531220059,
block_start,scenes,scenes051.bmp,,,,,0,106,106,106,,,,,,,,,,,,,,,,,,,,,,,,,,,,,,,,,,,,,,,,,,t,1.766562500037253,643.6452562001068,None,643.6452562001068,None,2022-06-06-13:25:42.272932,645.4344836999662,645.7454699999653,645.4344836999662,None,None,645.4344836999662,None,646.2451970901108,None,,,,21004,0002,2022_Jun_06_1315,localizer,2021.1.3,59.93554531220059,
block,scenes,scenes068.bmp,,,,,0,107,107,107,,,,,,,,,,,,,,,,,,,,,,,,,,,,,,,,,,,,,,,,,,None,,646.2451970901108,None,646.2451970901108,None,2022-06-06-13:25:43.085582,646.2464219999965,646.5620383999776,646.2464219999965,None,None,646.2464219999965,None,647.0472068900941,None,,,,21004,0002,2022_Jun_06_1315,localizer,2021.1.3,59.93554531220059,
block,scenes,scenes045.bmp,,,,,0,108,108,108,,,,,,,,,,,,,,,,,,,,,,,,,,,,,,,,,,,,,,,,,,None,,647.0472068900941,None,647.0472068900941,None,2022-06-06-13:25:43.893713,647.054166899994,647.3621733000036,647.054166899994,647.054166899994,None,647.054166899994,647.054166899994,647.8639707900817,None,,,,21004,0002,2022_Jun_06_1315,localizer,2021.1.3,59.93554531220059,
block,scenes,scenes016.bmp,,,,,0,109,109,109,,,,,,,,,,,,,,,,,,,,,,,,,,,,,,,,,,,,,,,,,,None,,647.8639707900817,None,647.8639707900817,None,2022-06-06-13:25:44.705517,647.8656401000917,648.1790457000025,647.8656401000917,None,None,647.8656401000917,None,648.678600290115,None,,,,21004,0002,2022_Jun_06_1315,localizer,2021.1.3,59.93554531220059,
block,scenes,scenes055.bmp,,,,,0,110,110,110,,,,,,,,,,,,,,,,,,,,,,,,,,,,,,,,,,,,,,,,,,None,,648.678600290115,None,648.678600290115,None,2022-06-06-13:25:45.518981,648.6908412999474,648.9955317000858,648.6908412999474,None,None,648.6908412999474,None,649.4950530901784,None,,,,21004,0002,2022_Jun_06_1315,localizer,2021.1.3,59.93554531220059,
block,scenes,scenes088.bmp,,,,,0,111,111,111,,,,,,,,,,,,,,,,,,,,,,,,,,,,,,,,,,,,,,,,,,None,,649.4950530901784,None,649.4950530901784,None,2022-06-06-13:25:46.335611,649.4963365001604,649.8122272000182,649.4963365001604,None,None,649.4963365001604,None,650.311853589979,None,,,,21004,0002,2022_Jun_06_1315,localizer,2021.1.3,59.93554531220059,
block,scenes,scenes067.bmp,,,,,0,112,112,112,,,,,,,,,,,,,,,,,,,,,,,,,,,,,,,,,,,,,,,,,,None,,650.311853589979,None,650.311853589979,None,2022-06-06-13:25:47.152279,650.3234049000312,650.6287333001383,650.3234049000312,None,None,650.3234049000312,None,651.1285016900162,None,,,,21004,0002,2022_Jun_06_1315,localizer,2021.1.3,59.93554531220059,
block,scenes,scenes080.bmp,,,,,0,113,113,113,,,,,,,,,,,,,,,,,,,,,,,,,,,,,,,,,,,,,,,,,,None,,651.1285016900162,None,651.1285016900162,None,2022-06-06-13:25:47.968886,651.1390885999426,651.445360200014,651.1390885999426,None,None,651.1390885999426,None,651.9454575900687,None,,,,21004,0002,2022_Jun_06_1315,localizer,2021.1.3,59.93554531220059,
block,scenes,scenes071.bmp,,,,,0,114,114,114,,,,,,,,,,,,,,,,,,,,,,,,,,,,,,,,,,,,,,,,,,None,,651.9454575900687,None,651.9454575900687,None,2022-06-06-13:25:48.786953,651.9567966000177,652.2660707000177,651.9567966000177,None,None,651.9567966000177,None,652.7632159900619,None,,,,21004,0002,2022_Jun_06_1315,localizer,2021.1.3,59.93554531220059,
block,scenes,scenes011.bmp,,,,,0,115,115,115,,,,,,,,,,,,,,,,,,,,,,,,,,,,,,,,,,,,,,,,,,None,,652.7632159900619,None,652.7632159900619,None,2022-06-06-13:25:49.605754,652.7657429999672,653.0791917000897,652.7657429999672,None,None,652.7657429999672,None,653.579304890032,None,,,,21004,0002,2022_Jun_06_1315,localizer,2021.1.3,59.93554531220059,
block,scenes,scenes053.bmp,,,,,0,116,116,116,,,,,,,,,,,,,,,,,,,,,,,,,,,,,,,,,,,,,,,,,,None,,653.579304890032,None,653.579304890032,None,2022-06-06-13:25:50.420794,653.5799702000804,653.8953331999946,653.5799702000804,None,None,653.5799702000804,None,654.3952503900742,None,,,,21004,0002,2022_Jun_06_1315,localizer,2021.1.3,59.93554531220059,
block,scenes,scenes057.bmp,,,,,0,117,117,117,,,,,,,,,,,,,,,,,,,,,,,,,,,,,,,,,,,,,,,,,,None,,654.3952503900742,None,654.3952503900742,None,2022-06-06-13:25:51.236076,654.3963975999504,654.7122595000546,654.3963975999504,None,None,654.3963975999504,None,655.2120470900787,None,,,,21004,0002,2022_Jun_06_1315,localizer,2021.1.3,59.93554531220059,
block,scenes,scenes012.bmp,,,,,0,118,118,118,,,,,,,,,,,,,,,,,,,,,,,,,,,,,,,,,,,,,,,,,,None,,655.2120470900787,None,655.2120470900787,None,2022-06-06-13:25:52.052428,655.2131980999839,655.5286701000296,655.2131980999839,None,None,655.2131980999839,None,656.028107490181,None,,,,21004,0002,2022_Jun_06_1315,localizer,2021.1.3,59.93554531220059,
block,scenes,scenes079.bmp,,,,,0,119,119,119,,,,,,,,,,,,,,,,,,,,,,,,,,,,,,,,,,,,,,,,,,None,,656.028107490181,None,656.028107490181,None,2022-06-06-13:25:52.868627,656.037956800079,656.3460926001426,656.037956800079,None,None,656.037956800079,None,656.8458633900387,None,,,,21004,0002,2022_Jun_06_1315,localizer,2021.1.3,59.93554531220059,
block_end,scenes,scenes047.bmp,,,,,0,120,120,120,,,,,,,,,,,,,,,,,,,,,,,,,,,,,,,,,,,,,,,,,,None,,656.8458633900387,None,656.8458633900387,None,2022-06-06-13:25:53.687425,656.8588423000183,657.1622097000945,656.8588423000183,None,None,656.8588423000183,None,657.6618192901602,None,,,,21004,0002,2022_Jun_06_1315,localizer,2021.1.3,59.93554531220059,
null_block,null_block,null_block.bmp,,,,,0,121,121,121,,,,,,,,,,,,,,,,,,,,,,,,,,,,,,,,,,,,,,,,,,t,1.7496793000027537,657.6621888000518,None,657.6621888000518,None,2022-06-06-13:25:56.268440,659.4281824899605,None,659.4281824899605,None,None,659.4281824899605,None,659.4309722001199,None,,,,21004,0002,2022_Jun_06_1315,localizer,2021.1.3,59.93554531220059,
block_start,scenes,scenes031.bmp,,,,,0,122,122,122,,,,,,,,,,,,,,,,,,,,,,,,,,,,,,,,,,,,,,,,,,t,1.9662335000466555,671.4456575999502,None,671.4456575999502,None,2022-06-06-13:26:10.274580,673.4447678001598,673.7463597001042,673.4447678001598,None,None,673.4447678001598,None,674.2451533901273,None,,,,21004,0002,2022_Jun_06_1315,localizer,2021.1.3,59.93554531220059,
block,scenes,scenes064.bmp,,,,,0,123,123,123,,,,,,,,,,,,,,,,,,,,,,,,,,,,,,,,,,,,,,,,,,None,,674.2451533901273,None,674.2451533901273,None,2022-06-06-13:26:11.085104,674.254286200041,674.5622817999683,674.254286200041,None,None,674.254286200041,None,675.06187079011,None,,,,21004,0002,2022_Jun_06_1315,localizer,2021.1.3,59.93554531220059,
block,scenes,scenes035.bmp,,,,,0,124,124,124,,,,,,,,,,,,,,,,,,,,,,,,,,,,,,,,,,,,,,,,,,None,,675.06187079011,None,675.06187079011,None,2022-06-06-13:26:11.903253,675.06303820014,675.3790238001384,675.06303820014,None,None,675.06303820014,None,675.8786521901144,None,,,,21004,0002,2022_Jun_06_1315,localizer,2021.1.3,59.93554531220059,
block,scenes,scenes054.bmp,,,,,0,125,125,125,,,,,,,,,,,,,,,,,,,,,,,,,,,,,,,,,,,,,,,,,,None,,675.8786521901144,None,675.8786521901144,None,2022-06-06-13:26:12.719037,675.8798625001218,676.1956537000369,675.8798625001218,None,None,675.8798625001218,None,676.6798283900367,None,,,,21004,0002,2022_Jun_06_1315,localizer,2021.1.3,59.93554531220059,
block,scenes,scenes023.bmp,,,,,0,126,126,126,,,,,,,,,,,,,,,,,,,,,,,,,,,,,,,,,,,,,,,,,,None,,676.6798283900367,None,676.6798283900367,None,2022-06-06-13:26:13.525208,676.6857217999641,676.9962906001601,676.6857217999641,676.6857217999641,None,676.6857217999641,676.6857217999641,677.4953755899566,None,,,,21004,0002,2022_Jun_06_1315,localizer,2021.1.3,59.93554531220059,
block,scenes,scenes077.bmp,,,,,0,127,127,127,,,,,,,,,,,,,,,,,,,,,,,,,,,,,,,,,,,,,,,,,,None,,677.4953755899566,None,677.4953755899566,None,2022-06-06-13:26:14.335981,677.496503100032,677.8123230000492,677.496503100032,None,None,677.496503100032,None,678.3116590900114,None,,,,21004,0002,2022_Jun_06_1315,localizer,2021.1.3,59.93554531220059,
block,scenes,scenes065.bmp,,,,,0,128,128,128,,,,,,,,,,,,,,,,,,,,,,,,,,,,,,,,,,,,,,,,,,None,,678.3116590900114,None,678.3116590900114,None,2022-06-06-13:26:15.150769,678.314156500157,678.6287879000884,678.314156500157,None,None,678.314156500157,None,679.1289156901418,None,,,,21004,0002,2022_Jun_06_1315,localizer,2021.1.3,59.93554531220059,
block,scenes,scenes021.bmp,,,,,0,129,129,129,,,,,,,,,,,,,,,,,,,,,,,,,,,,,,,,,,,,,,,,,,None,,679.1289156901418,None,679.1289156901418,None,2022-06-06-13:26:15.970272,679.130201100139,679.4458057000302,679.130201100139,None,None,679.130201100139,None,679.929279690166,None,,,,21004,0002,2022_Jun_06_1315,localizer,2021.1.3,59.93554531220059,
block,scenes,scenes044.bmp,,,,,0,130,130,130,,,,,,,,,,,,,,,,,,,,,,,,,,,,,,,,,,,,,,,,,,None,,679.929279690166,None,679.929279690166,None,2022-06-06-13:26:16.772836,679.9397534001619,680.2455949999858,679.9397534001619,679.9397534001619,None,679.9397534001619,679.9397534001619,680.7453042899957,None,,,,21004,0002,2022_Jun_06_1315,localizer,2021.1.3,59.93554531220059,
block,scenes,scenes086.bmp,,,,,0,131,131,131,,,,,,,,,,,,,,,,,,,,,,,,,,,,,,,,,,,,,,,,,,None,,680.7453042899957,None,680.7453042899957,None,2022-06-06-13:26:17.585691,680.7464708001353,681.0624234999996,680.7464708001353,None,None,680.7464708001353,None,681.5455065900693,None,,,,21004,0002,2022_Jun_06_1315,localizer,2021.1.3,59.93554531220059,
block,scenes,scenes005.bmp,,,,,0,132,132,132,,,,,,,,,,,,,,,,,,,,,,,,,,,,,,,,,,,,,,,,,,None,,681.5455065900693,None,681.5455065900693,None,2022-06-06-13:26:18.388109,681.5580835000146,681.8620206001215,681.5580835000146,681.5580835000146,None,681.5580835000146,681.5580835000146,682.3621400899953,None,,,,21004,0002,2022_Jun_06_1315,localizer,2021.1.3,59.93554531220059,
block,scenes,scenes069.bmp,,,,,0,133,133,133,,,,,,,,,,,,,,,,,,,,,,,,,,,,,,,,,,,,,,,,,,None,,682.3621400899953,None,682.3621400899953,None,2022-06-06-13:26:19.202523,682.3632940000389,682.6789367001038,682.3632940000389,None,None,682.3632940000389,None,683.1789944900898,None,,,,21004,0002,2022_Jun_06_1315,localizer,2021.1.3,59.93554531220059,
block,scenes,scenes037.bmp,,,,,0,134,134,134,,,,,,,,,,,,,,,,,,,,,,,,,,,,,,,,,,,,,,,,,,None,,683.1789944900898,None,683.1789944900898,None,2022-06-06-13:26:20.019591,683.1798823999707,683.4857110001612,683.1798823999707,None,None,683.1798823999707,None,683.9798756900942,None,,,,21004,0002,2022_Jun_06_1315,localizer,2021.1.3,59.93554531220059,
block,scenes,scenes030.bmp,,,,,0,135,135,135,,,,,,,,,,,,,,,,,,,,,,,,,,,,,,,,,,,,,,,,,,None,,683.9798756900942,None,683.9798756900942,None,2022-06-06-13:26:20.825251,683.9857453000732,684.2963954999577,683.9857453000732,683.9857453000732,None,683.9857453000732,683.9857453000732,684.7960856901715,None,,,,21004,0002,2022_Jun_06_1315,localizer,2021.1.3,59.93554531220059,
block_end,scenes,scenes006.bmp,,,,,0,136,136,136,,,,,,,,,,,,,,,,,,,,,,,,,,,,,,,,,,,,,,,,,,None,,684.7960856901715,None,684.7960856901715,None,2022-06-06-13:26:21.637439,684.809220300056,685.1121158001479,684.809220300056,None,None,684.809220300056,None,685.6121143901488,None,,,,21004,0002,2022_Jun_06_1315,localizer,2021.1.3,59.93554531220059,
block_start,objects,objects003.bmp,,,,,0,137,137,137,,,,,,,,,,,,,,,,,,,,,,,,,,,,,,,,,,,,,,,,,,t,1.7995265000499785,685.6123967000749,None,685.6123967000749,None,2022-06-06-13:26:24.270723,687.4318594001234,687.7463196001481,687.4318594001234,None,None,687.4318594001234,None,688.2466245901538,None,,,,21004,0002,2022_Jun_06_1315,localizer,2021.1.3,59.93554531220059,
block,objects,objects020.bmp,,,,,0,138,138,138,,,,,,,,,,,,,,,,,,,,,,,,,,,,,,,,,,,,,,,,,,None,,688.2466245901538,None,688.2466245901538,None,2022-06-06-13:26:25.088591,688.2562415001448,688.5627479001414,688.2562415001448,None,None,688.2562415001448,None,689.0632896900876,None,,,,21004,0002,2022_Jun_06_1315,localizer,2021.1.3,59.93554531220059,
block,objects,objects028.bmp,,,,,0,139,139,139,,,,,,,,,,,,,,,,,,,,,,,,,,,,,,,,,,,,,,,,,,None,,689.0632896900876,None,689.0632896900876,None,2022-06-06-13:26:25.905748,689.0664286999963,689.3792999000289,689.0664286999963,None,None,689.0664286999963,None,689.8790038901149,None,,,,21004,0002,2022_Jun_06_1315,localizer,2021.1.3,59.93554531220059,
block,objects,objects032.bmp,,,,,0,140,140,140,,,,,,,,,,,,,,,,,,,,,,,,,,,,,,,,,,,,,,,,,,None,,689.8790038901149,None,689.8790038901149,None,2022-06-06-13:26:26.720565,689.8798690000549,690.1793694000226,689.8798690000549,None,None,689.8798690000549,None,690.6788721899735,None,,,,21004,0002,2022_Jun_06_1315,localizer,2021.1.3,59.93554531220059,
block,objects,objects046.bmp,,,,,0,141,141,141,,,,,,,,,,,,,,,,,,,,,,,,,,,,,,,,,,,,,,,,,,None,,690.6788721899735,None,690.6788721899735,None,2022-06-06-13:26:27.521655,690.6806884999387,690.9954240000807,690.6806884999387,690.6806884999387,None,690.6806884999387,690.6806884999387,691.4798899900867,None,,,,21004,0002,2022_Jun_06_1315,localizer,2021.1.3,59.93554531220059,
block,objects,objects069.bmp,,,,,0,142,142,142,,,,,,,,,,,,,,,,,,,,,,,,,,,,,,,,,,,,,,,,,,None,,691.4798899900867,None,691.4798899900867,None,2022-06-06-13:26:28.326597,691.4969753001351,691.8123805001378,691.4969753001351,691.4969753001351,None,691.4969753001351,691.4969753001351,692.2955734899966,None,,,,21004,0002,2022_Jun_06_1315,localizer,2021.1.3,59.93554531220059,
block,objects,objects021.bmp,,,,,0,143,143,143,,,,,,,,,,,,,,,,,,,,,,,,,,,,,,,,,,,,,,,,,,None,,692.2955734899966,None,692.2955734899966,None,2022-06-06-13:26:29.136398,692.3059320000466,692.6124863000587,692.3059320000466,None,None,692.3059320000466,None,693.1120468899841,None,,,,21004,0002,2022_Jun_06_1315,localizer,2021.1.3,59.93554531220059,
block,objects,objects030.bmp,,,,,0,144,144,144,,,,,,,,,,,,,,,,,,,,,,,,,,,,,,,,,,,,,,,,,,None,,693.1120468899841,None,693.1120468899841,None,2022-06-06-13:26:29.953399,693.123481699964,693.4291026000865,693.123481699964,None,None,693.123481699964,None,693.9288558899658,None,,,,21004,0002,2022_Jun_06_1315,localizer,2021.1.3,59.93554531220059,
block,objects,objects063.bmp,,,,,0,145,145,145,,,,,,,,,,,,,,,,,,,,,,,,,,,,,,,,,,,,,,,,,,None,,693.9288558899658,None,693.9288558899658,None,2022-06-06-13:26:30.769855,693.9299068001565,694.2458248001058,693.9299068001565,None,None,693.9299068001565,None,694.7452826900641,None,,,,21004,0002,2022_Jun_06_1315,localizer,2021.1.3,59.93554531220059,
block,objects,objects061.bmp,,,,,0,146,146,146,,,,,,,,,,,,,,,,,,,,,,,,,,,,,,,,,,,,,,,,,,None,,694.7452826900641,None,694.7452826900641,None,2022-06-06-13:26:31.586346,694.7553516000044,695.0624238001183,694.7553516000044,None,None,694.7553516000044,None,695.5620399900014,None,,,,21004,0002,2022_Jun_06_1315,localizer,2021.1.3,59.93554531220059,
block,objects,objects039.bmp,,,,,0,147,147,147,,,,,,,,,,,,,,,,,,,,,,,,,,,,,,,,,,,,,,,,,,None,,695.5620399900014,None,695.5620399900014,None,2022-06-06-13:26:32.403218,695.5710295999888,695.8789925000165,695.5710295999888,None,None,695.5710295999888,None,696.3790173901012,None,,,,21004,0002,2022_Jun_06_1315,localizer,2021.1.3,59.93554531220059,
block,objects,objects001.bmp,,,,,0,148,148,148,,,,,,,,,,,,,,,,,,,,,,,,,,,,,,,,,,,,,,,,,,None,,696.3790173901012,None,696.3790173901012,None,2022-06-06-13:26:33.220576,696.3900948001537,696.6958264000714,696.3900948001537,None,None,696.3900948001537,None,697.1966756901471,None,,,,21004,0002,2022_Jun_06_1315,localizer,2021.1.3,59.93554531220059,
block,objects,objects027.bmp,,,,,0,149,149,149,,,,,,,,,,,,,,,,,,,,,,,,,,,,,,,,,,,,,,,,,,None,,697.1966756901471,None,697.1966756901471,None,2022-06-06-13:26:34.040000,697.2000015000813,697.5127702001482,697.2000015000813,None,None,697.2000015000813,None,698.0124519900652,None,,,,21004,0002,2022_Jun_06_1315,localizer,2021.1.3,59.93554531220059,
block,objects,objects075.bmp,,,,,0,150,150,150,,,,,,,,,,,,,,,,,,,,,,,,,,,,,,,,,,,,,,,,,,None,,698.0124519900652,None,698.0124519900652,None,2022-06-06-13:26:34.854939,698.0134181000758,698.3288810001686,698.0134181000758,None,None,698.0134181000758,None,698.8126032899833,None,,,,21004,0002,2022_Jun_06_1315,localizer,2021.1.3,59.93554531220059,
block_end,objects,objects015.bmp,,,,,0,151,151,151,,,,,,,,,,,,,,,,,,,,,,,,,,,,,,,,,,,,,,,,,,None,,698.8126032899833,None,698.8126032899833,None,2022-06-06-13:26:35.657313,698.8161341000814,699.1298199000303,698.8161341000814,698.8161341000814,None,698.8161341000814,698.8161341000814,699.6288599900669,None,,,,21004,0002,2022_Jun_06_1315,localizer,2021.1.3,59.93554531220059,
null_block,null_block,null_block.bmp,,,,,0,152,152,152,,,,,,,,,,,,,,,,,,,,,,,,,,,,,,,,,,,,,,,,,,t,1.7828127001412213,699.6290854001418,None,699.6290854001418,None,2022-06-06-13:26:38.269179,701.4283697901061,None,701.4283697901061,None,None,701.4283697901061,None,701.4306505999994,None,,,,21004,0002,2022_Jun_06_1315,localizer,2021.1.3,59.93554531220059,
block_start,scrambled,scrambled023.bmp,,,,,0,153,153,153,,,,,,,,,,,,,,,,,,,,,,,,,,,,,,,,,,,,,,,,,,t,1.9661674001254141,713.4456166001037,None,713.4456166001037,None,2022-06-06-13:26:52.272467,715.4399278999772,715.7459291999694,715.4399278999772,None,None,715.4399278999772,None,716.2444438899635,None,,,,21004,0002,2022_Jun_06_1315,localizer,2021.1.3,59.93554531220059,
block,scrambled,scrambled058.bmp,,,,,0,154,154,154,,,,,,,,,,,,,,,,,,,,,,,,,,,,,,,,,,,,,,,,,,None,,716.2444438899635,None,716.2444438899635,None,2022-06-06-13:26:53.086787,716.2469883000012,716.5464188000187,716.2469883000012,None,None,716.2469883000012,None,717.0461500899634,None,,,,21004,0002,2022_Jun_06_1315,localizer,2021.1.3,59.93554531220059,
block,scrambled,scrambled063.bmp,,,,,0,155,155,155,,,,,,,,,,,,,,,,,,,,,,,,,,,,,,,,,,,,,,,,,,None,,717.0461500899634,None,717.0461500899634,None,2022-06-06-13:26:53.892782,717.0496610000264,717.3631874001585,717.0496610000264,717.0496610000264,None,717.0496610000264,717.0496610000264,717.8626382900635,None,,,,21004,0002,2022_Jun_06_1315,localizer,2021.1.3,59.93554531220059,
block,scrambled,scrambled021.bmp,,,,,0,156,156,156,,,,,,,,,,,,,,,,,,,,,,,,,,,,,,,,,,,,,,,,,,None,,717.8626382900635,None,717.8626382900635,None,2022-06-06-13:26:54.707177,717.863786400063,718.1796151001472,717.863786400063,None,None,717.863786400063,None,718.6790511901723,None,,,,21004,0002,2022_Jun_06_1315,localizer,2021.1.3,59.93554531220059,
block,scrambled,scrambled057.bmp,,,,,0,157,157,157,,,,,,,,,,,,,,,,,,,,,,,,,,,,,,,,,,,,,,,,,,None,,718.6790511901723,None,718.6790511901723,None,2022-06-06-13:26:55.522902,718.6801907999907,718.9962395001203,718.6801907999907,None,None,718.6801907999907,None,719.4851231901208,None,,,,21004,0002,2022_Jun_06_1315,localizer,2021.1.3,59.93554531220059,
block,scrambled,scrambled042.bmp,,,,,0,158,158,158,,,,,,,,,,,,,,,,,,,,,,,,,,,,,,,,,,,,,,,,,,None,,719.4851231901208,None,719.4851231901208,None,2022-06-06-13:26:56.336559,719.5048783000093,719.8124267000239,719.5048783000093,None,None,719.5048783000093,None,720.3020428901306,None,,,,21004,0002,2022_Jun_06_1315,localizer,2021.1.3,59.93554531220059,
block,scrambled,scrambled053.bmp,,,,,0,159,159,159,,,,,,,,,,,,,,,,,,,,,,,,,,,,,,,,,,,,,,,,,,None,,720.3020428901306,None,720.3020428901306,None,2022-06-06-13:26:57.151716,720.3088281999808,720.6129091000184,720.3088281999808,None,None,720.3088281999808,None,721.1122387901647,None,,,,21004,0002,2022_Jun_06_1315,localizer,2021.1.3,59.93554531220059,
block,scrambled,scrambled084.bmp,,,,,0,160,160,160,,,,,,,,,,,,,,,,,,,,,,,,,,,,,,,,,,,,,,,,,,None,,721.1122387901647,None,721.1122387901647,None,2022-06-06-13:26:57.956130,721.1246086000465,721.4289961999748,721.1246086000465,None,None,721.1246086000465,None,721.9289817901096,None,,,,21004,0002,2022_Jun_06_1315,localizer,2021.1.3,59.93554531220059,
block,scrambled,scrambled015.bmp,,,,,0,161,161,161,,,,,,,,,,,,,,,,,,,,,,,,,,,,,,,,,,,,,,,,,,None,,721.9289817901096,None,721.9289817901096,None,2022-06-06-13:26:58.772964,721.930116500007,722.245870700106,721.930116500007,None,None,721.930116500007,None,722.7292188899825,None,,,,21004,0002,2022_Jun_06_1315,localizer,2021.1.3,59.93554531220059,
block,scrambled,scrambled015.bmp,,,,,0,162,162,162,,,,,,,,,,,,,,,,,,,,,,,,,,,,,,,,,,,,,,,,,,None,,722.7292188899825,None,722.7292188899825,None,2022-06-06-13:26:59.575754,722.7317952001467,723.0461985999718,722.7317952001467,722.7317952001467,y,722.7317952001467,722.7317952001467,723.5454936900875,None,0.6707673000637442,,,21004,0002,2022_Jun_06_1315,localizer,2021.1.3,59.93554531220059,
block,scrambled,scrambled043.bmp,,,,,0,163,163,163,,,,,,,,,,,,,,,,,,,,,,,,,,,,,,,,,,,,,,,,,,None,,723.5454936900875,None,723.5454936900875,None,2022-06-06-13:27:00.389648,723.5466746999882,723.8626693000551,723.5466746999882,None,None,723.5466746999882,None,724.3619449900231,None,,,,21004,0002,2022_Jun_06_1315,localizer,2021.1.3,59.93554531220059,
block,scrambled,scrambled071.bmp,,,,,0,164,164,164,,,,,,,,,,,,,,,,,,,,,,,,,,,,,,,,,,,,,,,,,,None,,724.3619449900231,None,724.3619449900231,None,2022-06-06-13:27:01.206190,724.3705603999551,724.6793231000192,724.3705603999551,None,None,724.3705603999551,None,725.1788622900145,None,,,,21004,0002,2022_Jun_06_1315,localizer,2021.1.3,59.93554531220059,
block,scrambled,scrambled011.bmp,,,,,0,165,165,165,,,,,,,,,,,,,,,,,,,,,,,,,,,,,,,,,,,,,,,,,,None,,725.1788622900145,None,725.1788622900145,None,2022-06-06-13:27:02.023013,725.1887002999429,725.495732099982,725.1887002999429,None,None,725.1887002999429,None,725.9956413901178,None,,,,21004,0002,2022_Jun_06_1315,localizer,2021.1.3,59.93554531220059,
block,scrambled,scrambled035.bmp,,,,,0,166,166,166,,,,,,,,,,,,,,,,,,,,,,,,,,,,,,,,,,,,,,,,,,None,,725.9956413901178,None,725.9956413901178,None,2022-06-06-13:27:02.840279,726.0061302999966,726.3127616001293,726.0061302999966,None,None,726.0061302999966,None,726.8121305899928,None,,,,21004,0002,2022_Jun_06_1315,localizer,2021.1.3,59.93554531220059,
block_end,scrambled,scrambled059.bmp,,,,,0,167,167,167,,,,,,,,,,,,,,,,,,,,,,,,,,,,,,,,,,,,,,,,,,None,,726.8121305899928,None,726.8121305899928,None,2022-06-06-13:27:03.656638,726.8138354001567,727.1291376999579,726.8138354001567,None,None,726.8138354001567,None,727.6129333900986,None,,,,21004,0002,2022_Jun_06_1315,localizer,2021.1.3,59.93554531220059,
block_start,faces,faces031.bmp,,,,,0,168,168,168,,,,,,,,,,,,,,,,,,,,,,,,,,,,,,,,,,,,,,,,,,t,1.797368299914524,727.613388299942,None,727.613388299942,None,2022-06-06-13:27:06.273149,729.4304055001121,729.7460636999458,729.4304055001121,None,None,729.4304055001121,None,730.2351721900283,None,,,,21004,0002,2022_Jun_06_1315,localizer,2021.1.3,59.93554531220059,
block,faces,faces048.bmp,,,,,0,169,169,169,,,,,,,,,,,,,,,,,,,,,,,,,,,,,,,,,,,,,,,,,,None,,730.2351721900283,None,730.2351721900283,None,2022-06-06-13:27:07.087943,730.2450644001365,730.5466424999759,730.2450644001365,None,None,730.2450644001365,None,731.0455939900363,None,,,,21004,0002,2022_Jun_06_1315,localizer,2021.1.3,59.93554531220059,
block,faces,faces012.bmp,,,,,0,170,170,170,,,,,,,,,,,,,,,,,,,,,,,,,,,,,,,,,,,,,,,,,,None,,731.0455939900363,None,731.0455939900363,None,2022-06-06-13:27:07.890548,731.0530604000669,731.3625898000319,731.0530604000669,None,None,731.0530604000669,None,731.8628047900507,None,,,,21004,0002,2022_Jun_06_1315,localizer,2021.1.3,59.93554531220059,
block,faces,faces081.bmp,,,,,0,171,171,171,,,,,,,,,,,,,,,,,,,,,,,,,,,,,,,,,,,,,,,,,,None,,731.8628047900507,None,731.8628047900507,None,2022-06-06-13:27:08.708812,731.874881700147,732.179701599991,731.874881700147,None,None,731.874881700147,None,732.6789286900545,None,,,,21004,0002,2022_Jun_06_1315,localizer,2021.1.3,59.93554531220059,
block,faces,faces088.bmp,,,,,0,172,172,172,,,,,,,,,,,,,,,,,,,,,,,,,,,,,,,,,,,,,,,,,,None,,732.6789286900545,None,732.6789286900545,None,2022-06-06-13:27:09.524060,732.680160399992,732.9959192001261,732.680160399992,None,None,732.680160399992,None,733.4952748900047,None,,,,21004,0002,2022_Jun_06_1315,localizer,2021.1.3,59.93554531220059,
block,faces,faces052.bmp,,,,,0,173,173,173,,,,,,,,,,,,,,,,,,,,,,,,,,,,,,,,,,,,,,,,,,None,,733.4952748900047,None,733.4952748900047,None,2022-06-06-13:27:10.340493,733.4970543000381,733.8126328999642,733.4970543000381,None,None,733.4970543000381,None,734.3123480901355,None,,,,21004,0002,2022_Jun_06_1315,localizer,2021.1.3,59.93554531220059,
block,faces,faces073.bmp,,,,,0,174,174,174,,,,,,,,,,,,,,,,,,,,,,,,,,,,,,,,,,,,,,,,,,None,,734.3123480901355,None,734.3123480901355,None,2022-06-06-13:27:11.157650,734.3134350001346,734.629315600032,734.3134350001346,None,None,734.3134350001346,None,735.1291566901142,None,,,,21004,0002,2022_Jun_06_1315,localizer,2021.1.3,59.93554531220059,
block,faces,faces043.bmp,,,,,0,175,175,175,,,,,,,,,,,,,,,,,,,,,,,,,,,,,,,,,,,,,,,,,,None,,735.1291566901142,None,735.1291566901142,None,2022-06-06-13:27:11.974749,735.1432209999766,735.4456668000203,735.1432209999766,None,None,735.1432209999766,None,735.9477391899796,None,,,,21004,0002,2022_Jun_06_1315,localizer,2021.1.3,59.93554531220059,
block,faces,faces032.bmp,,,,,0,176,176,176,,,,,,,,,,,,,,,,,,,,,,,,,,,,,,,,,,,,,,,,,,None,,735.9477391899796,None,735.9477391899796,None,2022-06-06-13:27:12.797538,735.9529761001468,736.2630686999764,735.9529761001468,None,None,735.9529761001468,None,736.7621641899692,None,,,,21004,0002,2022_Jun_06_1315,localizer,2021.1.3,59.93554531220059,
block,faces,faces037.bmp,,,,,0,177,177,177,,,,,,,,,,,,,,,,,,,,,,,,,,,,,,,,,,,,,,,,,,None,,736.7621641899692,None,736.7621641899692,None,2022-06-06-13:27:13.607729,736.7717663000803,737.079888400156,736.7717663000803,None,None,736.7717663000803,None,737.5789956900059,None,,,,21004,0002,2022_Jun_06_1315,localizer,2021.1.3,59.93554531220059,
block,faces,faces083.bmp,,,,,0,178,178,178,,,,,,,,,,,,,,,,,,,,,,,,,,,,,,,,,,,,,,,,,,None,,737.5789956900059,None,737.5789956900059,None,2022-06-06-13:27:14.424645,737.5896650000941,737.8960788999684,737.5896650000941,None,None,737.5896650000941,None,738.3956917901756,None,,,,21004,0002,2022_Jun_06_1315,localizer,2021.1.3,59.93554531220059,
block,faces,faces086.bmp,,,,,0,179,179,179,,,,,,,,,,,,,,,,,,,,,,,,,,,,,,,,,,,,,,,,,,None,,738.3956917901756,None,738.3956917901756,None,2022-06-06-13:27:15.241460,738.3969026000705,738.7126678000204,738.3969026000705,None,None,738.3969026000705,None,739.1962508901721,None,,,,21004,0002,2022_Jun_06_1315,localizer,2021.1.3,59.93554531220059,
block,faces,faces064.bmp,,,,,0,180,180,180,,,,,,,,,,,,,,,,,,,,,,,,,,,,,,,,,,,,,,,,,,None,,739.1962508901721,None,739.1962508901721,None,2022-06-06-13:27:16.044315,739.2099947000388,739.5129097001627,739.2099947000388,739.2099947000388,None,739.2099947000388,739.2099947000388,740.01275839007,None,,,,21004,0002,2022_Jun_06_1315,localizer,2021.1.3,59.93554531220059,
block,faces,faces074.bmp,,,,,0,181,181,181,,,,,,,,,,,,,,,,,,,,,,,,,,,,,,,,,,,,,,,,,,None,,740.01275839007,None,740.01275839007,None,2022-06-06-13:27:16.859806,740.0145883001387,740.3291466000956,740.0145883001387,None,None,740.0145883001387,None,740.8291621899931,None,,,,21004,0002,2022_Jun_06_1315,localizer,2021.1.3,59.93554531220059,
block_end,faces,faces068.bmp,,,,,0,182,182,182,,,,,,,,,,,,,,,,,,,,,,,,,,,,,,,,,,,,,,,,,,None,,740.8291621899931,None,740.8291621899931,None,2022-06-06-13:27:17.676150,740.8305711001158,741.1458207000978,740.8305711001158,None,None,740.8305711001158,None,741.64554378998,None,,,,21004,0002,2022_Jun_06_1315,localizer,2021.1.3,59.93554531220059,
block_start,scrambled,scrambled030.bmp,,,,,0,183,183,183,,,,,,,,,,,,,,,,,,,,,,,,,,,,,,,,,,,,,,,,,,t,1.7648593001067638,741.645984099945,None,741.645984099945,None,2022-06-06-13:27:20.278732,743.4333246001042,743.7458595000207,743.4333246001042,None,None,743.4333246001042,None,744.2470622901106,None,,,,21004,0002,2022_Jun_06_1315,localizer,2021.1.3,59.93554531220059,
block,scrambled,scrambled005.bmp,,,,,0,184,184,184,,,,,,,,,,,,,,,,,,,,,,,,,,,,,,,,,,,,,,,,,,None,,744.2470622901106,None,744.2470622901106,None,2022-06-06-13:27:21.094580,744.2606216000859,744.5625016000122,744.2606216000859,None,None,744.2606216000859,None,745.0636418899754,None,,,,21004,0002,2022_Jun_06_1315,localizer,2021.1.3,59.93554531220059,
block,scrambled,scrambled078.bmp,,,,,0,185,185,185,,,,,,,,,,,,,,,,,,,,,,,,,,,,,,,,,,,,,,,,,,None,,745.0636418899754,None,745.0636418899754,None,2022-06-06-13:27:21.911241,745.0661573000252,745.3797514000908,745.0661573000252,None,None,745.0661573000252,None,745.8790885901777,None,,,,21004,0002,2022_Jun_06_1315,localizer,2021.1.3,59.93554531220059,
block,scrambled,scrambled040.bmp,,,,,0,186,186,186,,,,,,,,,,,,,,,,,,,,,,,,,,,,,,,,,,,,,,,,,,None,,745.8790885901777,None,745.8790885901777,None,2022-06-06-13:27:22.725834,745.8893322001677,746.1959101001266,745.8893322001677,None,None,745.8893322001677,None,746.6958987901686,None,,,,21004,0002,2022_Jun_06_1315,localizer,2021.1.3,59.93554531220059,
block,scrambled,scrambled033.bmp,,,,,0,187,187,187,,,,,,,,,,,,,,,,,,,,,,,,,,,,,,,,,,,,,,,,,,None,,746.6958987901686,None,746.6958987901686,None,2022-06-06-13:27:23.542516,746.6969240000471,747.0125738000497,746.6969240000471,None,None,746.6969240000471,None,747.5018828900298,None,,,,21004,0002,2022_Jun_06_1315,localizer,2021.1.3,59.93554531220059,
block,scrambled,scrambled023.bmp,,,,,0,188,188,188,,,,,,,,,,,,,,,,,,,,,,,,,,,,,,,,,,,,,,,,,,None,,747.5018828900298,None,747.5018828900298,None,2022-06-06-13:27:24.355503,747.5105957000051,747.8133872000035,747.5105957000051,None,None,747.5105957000051,None,748.3123314900091,None,,,,21004,0002,2022_Jun_06_1315,localizer,2021.1.3,59.93554531220059,
block,scrambled,scrambled031.bmp,,,,,0,189,189,189,,,,,,,,,,,,,,,,,,,,,,,,,,,,,,,,,,,,,,,,,,None,,748.3123314900091,None,748.3123314900091,None,2022-06-06-13:27:25.159126,748.3135033000726,748.6291749000084,748.3135033000726,None,None,748.3135033000726,None,749.1130357901799,None,,,,21004,0002,2022_Jun_06_1315,localizer,2021.1.3,59.93554531220059,
block,scrambled,scrambled063.bmp,,,,,0,190,190,190,,,,,,,,,,,,,,,,,,,,,,,,,,,,,,,,,,,,,,,,,,None,,749.1130357901799,None,749.1130357901799,None,2022-06-06-13:27:25.962938,749.1163606001064,749.4296665999573,749.1163606001064,749.1163606001064,None,749.1163606001064,749.1163606001064,749.9304226900218,None,,,,21004,0002,2022_Jun_06_1315,localizer,2021.1.3,59.93554531220059,
block,scrambled,scrambled053.bmp,,,,,0,191,191,191,,,,,,,,,,,,,,,,,,,,,,,,,,,,,,,,,,,,,,,,,,None,,749.9304226900218,None,749.9304226900218,None,2022-06-06-13:27:26.779366,749.9329719999805,750.246449300088,749.9329719999805,None,None,749.9329719999805,None,750.7460908901645,None,,,,21004,0002,2022_Jun_06_1315,localizer,2021.1.3,59.93554531220059,
block,scrambled,scrambled025.bmp,,,,,0,192,192,192,,,,,,,,,,,,,,,,,,,,,,,,,,,,,,,,,,,,,,,,,,None,,750.7460908901645,None,750.7460908901645,None,2022-06-06-13:27:27.593354,750.7470083001535,751.0464004001115,750.7470083001535,None,None,750.7470083001535,None,751.5469572900562,None,,,,21004,0002,2022_Jun_06_1315,localizer,2021.1.3,59.93554531220059,
block,scrambled,scrambled011.bmp,,,,,0,193,193,193,,,,,,,,,,,,,,,,,,,,,,,,,,,,,,,,,,,,,,,,,,None,,751.5469572900562,None,751.5469572900562,None,2022-06-06-13:27:28.400055,751.5533813000657,751.8630955000408,751.5533813000657,751.5533813000657,None,751.5533813000657,751.5533813000657,752.3627248900244,None,,,,21004,0002,2022_Jun_06_1315,localizer,2021.1.3,59.93554531220059,
block,scrambled,scrambled055.bmp,,,,,0,194,194,194,,,,,,,,,,,,,,,,,,,,,,,,,,,,,,,,,,,,,,,,,,None,,752.3627248900244,None,752.3627248900244,None,2022-06-06-13:27:29.210058,752.3637598999776,752.6791179000866,752.3637598999776,None,None,752.3637598999776,None,753.1791539900238,None,,,,21004,0002,2022_Jun_06_1315,localizer,2021.1.3,59.93554531220059,
block,scrambled,scrambled007.bmp,,,,,0,195,195,195,,,,,,,,,,,,,,,,,,,,,,,,,,,,,,,,,,,,,,,,,,None,,753.1791539900238,None,753.1791539900238,None,2022-06-06-13:27:30.026465,753.1803336001467,753.4960449000355,753.1803336001467,None,None,753.1803336001467,None,753.9956228900934,None,,,,21004,0002,2022_Jun_06_1315,localizer,2021.1.3,59.93554531220059,
block,scrambled,scrambled032.bmp,,,,,0,196,196,196,,,,,,,,,,,,,,,,,,,,,,,,,,,,,,,,,,,,,,,,,,None,,753.9956228900934,None,753.9956228900934,None,2022-06-06-13:27:30.843021,753.9971128001343,754.3128849000204,753.9971128001343,None,None,753.9971128001343,None,754.8124562900281,None,,,,21004,0002,2022_Jun_06_1315,localizer,2021.1.3,59.93554531220059,
block_end,scrambled,scrambled021.bmp,,,,,0,197,197,197,,,,,,,,,,,,,,,,,,,,,,,,,,,,,,,,,,,,,,,,,,None,,754.8124562900281,None,754.8124562900281,None,2022-06-06-13:27:31.659941,754.8135800999589,755.129454200156,754.8135800999589,None,None,754.8135800999589,None,755.6290138899582,None,,,,21004,0002,2022_Jun_06_1315,localizer,2021.1.3,59.93554531220059,
block_start,scenes,scenes007.bmp,,,,,0,198,198,198,,,,,,,,,,,,,,,,,,,,,,,,,,,,,,,,,,,,,,,,,,t,1.7812914999667555,755.6295831999741,None,755.6295831999741,None,2022-06-06-13:27:34.280282,757.4334336000029,757.746142799966,757.4334336000029,None,None,757.4334336000029,None,758.2458685899852,None,,,,21004,0002,2022_Jun_06_1315,localizer,2021.1.3,59.93554531220059,
block,scenes,scenes044.bmp,,,,,0,199,199,199,,,,,,,,,,,,,,,,,,,,,,,,,,,,,,,,,,,,,,,,,,None,,758.2458685899852,None,758.2458685899852,None,2022-06-06-13:27:35.093719,758.2469206000678,758.5629372000694,758.2469206000678,None,None,758.2469206000678,None,759.0470662899548,None,,,,21004,0002,2022_Jun_06_1315,localizer,2021.1.3,59.93554531220059,
block,scenes,scenes013.bmp,,,,,0,200,200,200,,,,,,,,,,,,,,,,,,,,,,,,,,,,,,,,,,,,,,,,,,None,,759.0470662899548,None,759.0470662899548,None,2022-06-06-13:27:35.900191,759.0614525999408,759.3628092000727,759.0614525999408,759.0614525999408,None,759.0614525999408,759.0614525999408,759.8662660899805,None,,,,21004,0002,2022_Jun_06_1315,localizer,2021.1.3,59.93554531220059,
block,scenes,scenes013.bmp,,,,,0,201,201,201,,,,,,,,,,,,,,,,,,,,,,,,,,,,,,,,,,,,,,,,,,None,,759.8662660899805,None,759.8662660899805,None,2022-06-06-13:27:36.718076,759.8717339001596,760.1795155999716,759.8717339001596,None,y,759.8717339001596,None,760.6790399900871,None,0.42681370000354946,,,21004,0002,2022_Jun_06_1315,localizer,2021.1.3,59.93554531220059,
block,scenes,scenes060.bmp,,,,,0,202,202,202,,,,,,,,,,,,,,,,,,,,,,,,,,,,,,,,,,,,,,,,,,None,,760.6790399900871,None,760.6790399900871,None,2022-06-06-13:27:37.527367,760.6803497001529,760.9963790001348,760.6803497001529,None,None,760.6803497001529,None,761.5020210901508,None,,,,21004,0002,2022_Jun_06_1315,localizer,2021.1.3,59.93554531220059,
block,scenes,scenes063.bmp,,,,,0,203,203,203,,,,,,,,,,,,,,,,,,,,,,,,,,,,,,,,,,,,,,,,,,None,,761.5020210901508,None,761.5020210901508,None,2022-06-06-13:27:38.358011,761.5235530999489,761.8291522001382,761.5235530999489,None,None,761.5235530999489,None,762.3123340900289,None,,,,21004,0002,2022_Jun_06_1315,localizer,2021.1.3,59.93554531220059,
block,scenes,scenes055.bmp,,,,,0,204,204,204,,,,,,,,,,,,,,,,,,,,,,,,,,,,,,,,,,,,,,,,,,None,,762.3123340900289,None,762.3123340900289,None,2022-06-06-13:27:39.160624,762.3138176000211,762.629526700126,762.3138176000211,None,None,762.3138176000211,None,763.1292915900937,None,,,,21004,0002,2022_Jun_06_1315,localizer,2021.1.3,59.93554531220059,
block,scenes,scenes076.bmp,,,,,0,205,205,205,,,,,,,,,,,,,,,,,,,,,,,,,,,,,,,,,,,,,,,,,,None,,763.1292915900937,None,763.1292915900937,None,2022-06-06-13:27:39.977691,763.130428200122,763.4296486999374,763.130428200122,None,None,763.130428200122,None,763.9297488900135,None,,,,21004,0002,2022_Jun_06_1315,localizer,2021.1.3,59.93554531220059,
block,scenes,scenes029.bmp,,,,,0,206,206,206,,,,,,,,,,,,,,,,,,,,,,,,,,,,,,,,,,,,,,,,,,None,,763.9297488900135,None,763.9297488900135,None,2022-06-06-13:27:40.781374,763.9443487999961,764.2458403999917,763.9443487999961,763.9443487999961,None,763.9443487999961,763.9443487999961,764.7471143901581,None,,,,21004,0002,2022_Jun_06_1315,localizer,2021.1.3,59.93554531220059,
block,scenes,scenes026.bmp,,,,,0,207,207,207,,,,,,,,,,,,,,,,,,,,,,,,,,,,,,,,,,,,,,,,,,None,,764.7471143901581,None,764.7471143901581,None,2022-06-06-13:27:41.597634,764.7584617999382,765.0635890001431,764.7584617999382,None,None,764.7584617999382,None,765.5623398900731,None,,,,21004,0002,2022_Jun_06_1315,localizer,2021.1.3,59.93554531220059,
block,scenes,scenes048.bmp,,,,,0,208,208,208,,,,,,,,,,,,,,,,,,,,,,,,,,,,,,,,,,,,,,,,,,None,,765.5623398900731,None,765.5623398900731,None,2022-06-06-13:27:42.410796,765.5781432001386,765.8817402001005,765.5781432001386,None,None,765.5781432001386,None,766.3786827901146,None,,,,21004,0002,2022_Jun_06_1315,localizer,2021.1.3,59.93554531220059,
block,scenes,scenes037.bmp,,,,,0,209,209,209,,,,,,,,,,,,,,,,,,,,,,,,,,,,,,,,,,,,,,,,,,None,,766.3786827901146,None,766.3786827901146,None,2022-06-06-13:27:43.227649,766.3804375999607,766.6960448001046,766.3804375999607,None,None,766.3804375999607,None,767.1958549900679,None,,,,21004,0002,2022_Jun_06_1315,localizer,2021.1.3,59.93554531220059,
block,scenes,scenes073.bmp,,,,,0,210,210,210,,,,,,,,,,,,,,,,,,,,,,,,,,,,,,,,,,,,,,,,,,None,,767.1958549900679,None,767.1958549900679,None,2022-06-06-13:27:44.044659,767.2087938000914,767.5128544999752,767.2087938000914,None,None,767.2087938000914,None,768.0125123900594,None,,,,21004,0002,2022_Jun_06_1315,localizer,2021.1.3,59.93554531220059,
block,scenes,scenes016.bmp,,,,,0,211,211,211,,,,,,,,,,,,,,,,,,,,,,,,,,,,,,,,,,,,,,,,,,None,,768.0125123900594,None,768.0125123900594,None,2022-06-06-13:27:44.862315,768.0140862001572,768.3296012000646,768.0140862001572,None,None,768.0140862001572,None,768.8133208900923,None,,,,21004,0002,2022_Jun_06_1315,localizer,2021.1.3,59.93554531220059,
block_end,scenes,scenes075.bmp,,,,,0,212,212,212,,,,,,,,,,,,,,,,,,,,,,,,,,,,,,,,,,,,,,,,,,None,,768.8133208900923,None,768.8133208900923,None,2022-06-06-13:27:45.665473,768.8170124001335,769.1304306001402,768.8170124001335,768.8170124001335,None,768.8170124001335,768.8170124001335,769.6299647900975,None,,,,21004,0002,2022_Jun_06_1315,localizer,2021.1.3,59.93554531220059,
block_start,objects,objects032.bmp,,,,,0,213,213,213,,,,,,,,,,,,,,,,,,,,,,,,,,,,,,,,,,,,,,,,,,t,1.7801878999453038,769.630510300165,None,769.630510300165,None,2022-06-06-13:27:48.277413,771.4302870000247,771.7461135999765,771.4302870000247,None,None,771.4302870000247,None,772.229392790026,None,,,,21004,0002,2022_Jun_06_1315,localizer,2021.1.3,59.93554531220059,
block,objects,objects076.bmp,,,,,0,214,214,214,,,,,,,,,,,,,,,,,,,,,,,,,,,,,,,,,,,,,,,,,,None,,772.229392790026,None,772.229392790026,None,2022-06-06-13:27:49.081720,772.2326198001392,772.5460391000379,772.2326198001392,772.2326198001392,None,772.2326198001392,772.2326198001392,773.0470587900141,None,,,,21004,0002,2022_Jun_06_1315,localizer,2021.1.3,59.93554531220059,
block,objects,objects086.bmp,,,,,0,215,215,215,,,,,,,,,,,,,,,,,,,,,,,,,,,,,,,,,,,,,,,,,,None,,773.0470587900141,None,773.0470587900141,None,2022-06-06-13:27:49.897656,773.0498025000561,773.3621622000355,773.0498025000561,None,None,773.0498025000561,None,773.8621765901568,None,,,,21004,0002,2022_Jun_06_1315,localizer,2021.1.3,59.93554531220059,
block,objects,objects010.bmp,,,,,0,216,216,216,,,,,,,,,,,,,,,,,,,,,,,,,,,,,,,,,,,,,,,,,,None,,773.8621765901568,None,773.8621765901568,None,2022-06-06-13:27:50.711697,773.8639373001643,774.1796240999829,773.8639373001643,None,None,773.8639373001643,None,774.6794077900937,None,,,,21004,0002,2022_Jun_06_1315,localizer,2021.1.3,59.93554531220059,
block,objects,objects049.bmp,,,,,0,217,217,217,,,,,,,,,,,,,,,,,,,,,,,,,,,,,,,,,,,,,,,,,,None,,774.6794077900937,None,774.6794077900937,None,2022-06-06-13:27:51.529247,774.6804532001261,774.9962063001003,774.6804532001261,None,None,774.6804532001261,None,775.495590290078,None,,,,21004,0002,2022_Jun_06_1315,localizer,2021.1.3,59.93554531220059,
block,objects,objects001.bmp,,,,,0,218,218,218,,,,,,,,,,,,,,,,,,,,,,,,,,,,,,,,,,,,,,,,,,None,,775.495590290078,None,775.495590290078,None,2022-06-06-13:27:52.345534,775.4970400000457,775.8126589001622,775.4970400000457,None,None,775.4970400000457,None,776.3125674901763,None,,,,21004,0002,2022_Jun_06_1315,localizer,2021.1.3,59.93554531220059,
block,objects,objects083.bmp,,,,,0,219,219,219,,,,,,,,,,,,,,,,,,,,,,,,,,,,,,,,,,,,,,,,,,None,,776.3125674901763,None,776.3125674901763,None,2022-06-06-13:27:53.162344,776.3225402000826,776.6301535000093,776.3225402000826,None,None,776.3225402000826,None,777.1293710901169,None,,,,21004,0002,2022_Jun_06_1315,localizer,2021.1.3,59.93554531220059,
block,objects,objects087.bmp,,,,,0,220,220,220,,,,,,,,,,,,,,,,,,,,,,,,,,,,,,,,,,,,,,,,,,None,,777.1293710901169,None,777.1293710901169,None,2022-06-06-13:27:53.980266,777.138893000083,777.4474890001584,777.138893000083,None,None,777.138893000083,None,777.9479293900309,None,,,,21004,0002,2022_Jun_06_1315,localizer,2021.1.3,59.93554531220059,
block,objects,objects045.bmp,,,,,0,221,221,221,,,,,,,,,,,,,,,,,,,,,,,,,,,,,,,,,,,,,,,,,,None,,777.9479293900309,None,777.9479293900309,None,2022-06-06-13:27:54.802858,777.962258500047,778.2627577001695,777.962258500047,None,None,777.962258500047,None,778.763027890143,None,,,,21004,0002,2022_Jun_06_1315,localizer,2021.1.3,59.93554531220059,
block,objects,objects070.bmp,,,,,0,222,222,222,,,,,,,,,,,,,,,,,,,,,,,,,,,,,,,,,,,,,,,,,,None,,778.763027890143,None,778.763027890143,None,2022-06-06-13:27:55.614180,778.7638177999761,779.079338400159,778.7638177999761,None,None,778.7638177999761,None,779.5794242900098,None,,,,21004,0002,2022_Jun_06_1315,localizer,2021.1.3,59.93554531220059,
block,objects,objects003.bmp,,,,,0,223,223,223,,,,,,,,,,,,,,,,,,,,,,,,,,,,,,,,,,,,,,,,,,None,,779.5794242900098,None,779.5794242900098,None,2022-06-06-13:27:56.429889,779.5803884000052,779.8962759000715,779.5803884000052,None,None,779.5803884000052,None,780.395807190123,None,,,,21004,0002,2022_Jun_06_1315,localizer,2021.1.3,59.93554531220059,
block,objects,objects077.bmp,,,,,0,224,224,224,,,,,,,,,,,,,,,,,,,,,,,,,,,,,,,,,,,,,,,,,,None,,780.395807190123,None,780.395807190123,None,2022-06-06-13:27:57.247012,780.3970938001294,780.7130313001107,780.3970938001294,None,None,780.3970938001294,None,781.2129431900336,None,,,,21004,0002,2022_Jun_06_1315,localizer,2021.1.3,59.93554531220059,
block,objects,objects033.bmp,,,,,0,225,225,225,,,,,,,,,,,,,,,,,,,,,,,,,,,,,,,,,,,,,,,,,,None,,781.2129431900336,None,781.2129431900336,None,2022-06-06-13:27:58.063237,781.2139127999544,781.5298491001595,781.2139127999544,None,None,781.2139127999544,None,782.0131100900704,None,,,,21004,0002,2022_Jun_06_1315,localizer,2021.1.3,59.93554531220059,
block,objects,objects015.bmp,,,,,0,226,226,226,,,,,,,,,,,,,,,,,,,,,,,,,,,,,,,,,,,,,,,,,,None,,782.0131100900704,None,782.0131100900704,None,2022-06-06-13:27:58.866672,782.0166482001077,782.329825400142,782.0166482001077,782.0166482001077,None,782.0166482001077,782.0166482001077,782.8290704901098,None,,,,21004,0002,2022_Jun_06_1315,localizer,2021.1.3,59.93554531220059,
block_end,objects,objects043.bmp,,,,,0,227,227,227,,,,,,,,,,,,,,,,,,,,,,,,,,,,,,,,,,,,,,,,,,None,,782.8290704901098,None,782.8290704901098,None,2022-06-06-13:27:59.679545,782.8379418000113,783.1532430001535,782.8379418000113,None,None,782.8379418000113,None,783.6458602901781,None,,,,21004,0002,2022_Jun_06_1315,localizer,2021.1.3,59.93554531220059,
null_block,null_block,null_block.bmp,,,,,0,228,228,228,,,,,,,,,,,,,,,,,,,,,,,,,,,,,,,,,,,,,,,,,,t,1.7643836000934243,783.646258899942,None,783.646258899942,None,2022-06-06-13:28:02.282349,785.4304336901056,None,785.4304336901056,None,None,785.4304336901056,None,785.438614499988,None,,,,21004,0002,2022_Jun_06_1315,localizer,2021.1.3,59.93554531220059,
block_start,faces,faces008.bmp,,,,,0,229,229,229,,,,,,,,,,,,,,,,,,,,,,,,,,,,,,,,,,,,,,,,,,t,1.9640005000401288,797.4466578001156,None,797.4466578001156,None,2022-06-06-13:28:16.287007,799.4338617001195,799.7463917999994,799.4338617001195,None,None,799.4338617001195,None,800.2471899900353,None,,,,21004,0002,2022_Jun_06_1315,localizer,2021.1.3,59.93554531220059,
block,faces,faces045.bmp,,,,,0,230,230,230,,,,,,,,,,,,,,,,,,,,,,,,,,,,,,,,,,,,,,,,,,None,,800.2471899900353,None,800.2471899900353,None,2022-06-06-13:28:17.101509,800.2504486001562,800.5638639000244,800.2504486001562,None,None,800.2504486001562,None,801.064180290117,None,,,,21004,0002,2022_Jun_06_1315,localizer,2021.1.3,59.93554531220059,
block,faces,faces011.bmp,,,,,0,231,231,231,,,,,,,,,,,,,,,,,,,,,,,,,,,,,,,,,,,,,,,,,,None,,801.064180290117,None,801.064180290117,None,2022-06-06-13:28:17.919564,801.0685823999811,801.3801349001005,801.0685823999811,None,None,801.0685823999811,None,801.8792048900156,None,,,,21004,0002,2022_Jun_06_1315,localizer,2021.1.3,59.93554531220059,
block,faces,faces013.bmp,,,,,0,232,232,232,,,,,,,,,,,,,,,,,,,,,,,,,,,,,,,,,,,,,,,,,,None,,801.8792048900156,None,801.8792048900156,None,2022-06-06-13:28:18.731702,801.880573600065,802.1963814001065,801.880573600065,None,None,801.880573600065,None,802.6959662901005,None,,,,21004,0002,2022_Jun_06_1315,localizer,2021.1.3,59.93554531220059,
block,faces,faces050.bmp,,,,,0,233,233,233,,,,,,,,,,,,,,,,,,,,,,,,,,,,,,,,,,,,,,,,,,None,,802.6959662901005,None,802.6959662901005,None,2022-06-06-13:28:19.548550,802.6971331001259,803.013054799987,802.6971331001259,None,None,802.6971331001259,None,803.5127651901217,None,,,,21004,0002,2022_Jun_06_1315,localizer,2021.1.3,59.93554531220059,
block,faces,faces080.bmp,,,,,0,234,234,234,,,,,,,,,,,,,,,,,,,,,,,,,,,,,,,,,,,,,,,,,,None,,803.5127651901217,None,803.5127651901217,None,2022-06-06-13:28:20.365646,803.5159442001022,803.8296487000771,803.5159442001022,None,None,803.5159442001022,None,804.329018690181,None,,,,21004,0002,2022_Jun_06_1315,localizer,2021.1.3,59.93554531220059,
block,faces,faces029.bmp,,,,,0,235,235,235,,,,,,,,,,,,,,,,,,,,,,,,,,,,,,,,,,,,,,,,,,None,,804.329018690181,None,804.329018690181,None,2022-06-06-13:28:21.182026,804.3414046999533,804.6463456000201,804.3414046999533,None,None,804.3414046999533,None,805.1460115900496,None,,,,21004,0002,2022_Jun_06_1315,localizer,2021.1.3,59.93554531220059,
block,faces,faces085.bmp,,,,,0,236,236,236,,,,,,,,,,,,,,,,,,,,,,,,,,,,,,,,,,,,,,,,,,None,,805.1460115900496,None,805.1460115900496,None,2022-06-06-13:28:21.998732,805.147196700098,805.4632159001194,805.147196700098,None,None,805.147196700098,None,805.9627371900948,None,,,,21004,0002,2022_Jun_06_1315,localizer,2021.1.3,59.93554531220059,
block,faces,faces002.bmp,,,,,0,237,237,237,,,,,,,,,,,,,,,,,,,,,,,,,,,,,,,,,,,,,,,,,,None,,805.9627371900948,None,805.9627371900948,None,2022-06-06-13:28:22.816861,805.9636423001066,806.2793998999987,805.9636423001066,None,None,805.9636423001066,None,806.7628511900781,None,,,,21004,0002,2022_Jun_06_1315,localizer,2021.1.3,59.93554531220059,
block,faces,faces074.bmp,,,,,0,238,238,238,,,,,,,,,,,,,,,,,,,,,,,,,,,,,,,,,,,,,,,,,,None,,806.7628511900781,None,806.7628511900781,None,2022-06-06-13:28:23.617862,806.7660068999976,807.079672700027,806.7660068999976,806.7660068999976,None,806.7660068999976,806.7660068999976,807.5792759901611,None,,,,21004,0002,2022_Jun_06_1315,localizer,2021.1.3,59.93554531220059,
block,faces,faces048.bmp,,,,,0,239,239,239,,,,,,,,,,,,,,,,,,,,,,,,,,,,,,,,,,,,,,,,,,None,,807.5792759901611,None,807.5792759901611,None,2022-06-06-13:28:24.432385,807.58055900014,807.8963012001477,807.58055900014,None,None,807.58055900014,None,808.3962555900449,None,,,,21004,0002,2022_Jun_06_1315,localizer,2021.1.3,59.93554531220059,
block,faces,faces084.bmp,,,,,0,240,240,240,,,,,,,,,,,,,,,,,,,,,,,,,,,,,,,,,,,,,,,,,,None,,808.3962555900449,None,808.3962555900449,None,2022-06-06-13:28:25.249446,808.4080878000241,808.7131767000537,808.4080878000241,None,None,808.4080878000241,None,809.2128378900467,None,,,,21004,0002,2022_Jun_06_1315,localizer,2021.1.3,59.93554531220059,
block,faces,faces025.bmp,,,,,0,241,241,241,,,,,,,,,,,,,,,,,,,,,,,,,,,,,,,,,,,,,,,,,,None,,809.2128378900467,None,809.2128378900467,None,2022-06-06-13:28:26.066326,809.214096599957,809.5292750999797,809.214096599957,None,None,809.214096599957,None,810.0296160900267,None,,,,21004,0002,2022_Jun_06_1315,localizer,2021.1.3,59.93554531220059,
block,faces,faces038.bmp,,,,,0,242,242,242,,,,,,,,,,,,,,,,,,,,,,,,,,,,,,,,,,,,,,,,,,None,,810.0296160900267,None,810.0296160900267,None,2022-06-06-13:28:26.883506,810.0306923999451,810.3465795000084,810.0306923999451,None,None,810.0306923999451,None,810.8458754900145,None,,,,21004,0002,2022_Jun_06_1315,localizer,2021.1.3,59.93554531220059,
block_end,faces,faces069.bmp,,,,,0,243,243,243,,,,,,,,,,,,,,,,,,,,,,,,,,,,,,,,,,,,,,,,,,None,,810.8458754900145,None,810.8458754900145,None,2022-06-06-13:28:27.699333,810.8476013999898,811.1631835999433,810.8476013999898,None,None,810.8476013999898,None,811.6626204899745,None,,,,21004,0002,2022_Jun_06_1315,localizer,2021.1.3,59.93554531220059,
,,,,,,,,,,,,,,,,,,,,,,,,,,,,,,,,,,,,,,,,,,,,,,,,,,,,,,,,,,,,,,,,,,,,,811.6627527000383,None,,,,,,,
