block_type,condition,img_name,Button.thisRepN,Button.thisTrialN,Button.thisN,Button.thisIndex,trials.thisRepN,trials.thisTrialN,trials.thisN,trials.thisIndex,Ready_experimenter_text.started,Ready_experimenter_text.stopped,Ready_experimenter_resp.keys,Ready_experimenter_resp.rt,Ready_experimenter_resp.started,Ready_experimenter_resp.stopped,Alignment_background.started,Alignment_background.stopped,Alignment_image.started,Alignment_image.stopped,Alignment_resp.keys,Alignment_resp.rt,Alignment_resp.started,Alignment_resp.stopped,Button_text.started,Button_text.stopped,Index_text.started,Index_text.stopped,Index_resp.keys,Index_resp.rt,Index_resp.started,Index_resp.stopped,Middle_text.started,Middle_text.stopped,Middle_resp.keys,Middle_resp.rt,Middle_resp.started,Middle_resp.stopped,Repeat_text.started,Repeat_text.stopped,Repeat_resp.keys,Repeat_resp.corr,Repeat_resp.rt,Repeat_resp.started,Repeat_resp.stopped,instruction_text.started,instruction_text.stopped,key_resp.keys,key_resp.rt,key_resp.started,key_resp.stopped,scanner_t.keys,scanner_t.rt,scanner_t.started,scanner_t.stopped,fixation_wait_for_t.started,fixation_wait_for_t.stopped,real_timestamp_trial_start,image.started,image.stopped,fixation.started,fixation.stopped,repeat_response.keys,repeat_response.started,repeat_response.stopped,fixation_null.started,fixation_null.stopped,end_text.started,end_text.stopped,participant,run,date,expName,psychopyVersion,frameRate,
,,,,,,,,,,,11.247721999883652,None,return,469.775737100048,11.247721999883652,None,,,,,,,,,,,,,,,,,,,,,,,,,,,,,,,,,,,,,,,,,,,,,,,,,,,,,,22011,0002,2022_Aug_12_1242,localizer,2021.1.3,60.03640613023816,
,,,,,,,,,,,,,,,,,481.0707493999507,None,481.0707493999507,None,return,1.2532276001293212,481.0707493999507,None,,,,,,,,,,,,,,,,,,,,,,,,,,,,,,,,,,,,,,,,,,,,,,22011,0002,2022_Aug_12_1242,localizer,2021.1.3,60.03640613023816,
,,,0,0,0,0,,,,,,,,,,,,,,,,,,,482.34920579986647,None,483.3494817998726,None,y,13.500579499872401,483.3494817998726,None,496.8820411998313,None,b,2.186774799833074,496.8820411998313,None,499.102074699942,None,n,0,2.4125424998346716,499.102074699942,None,,,,,,,,,,,,,,,,,,,,,,,,,22011,0002,2022_Aug_12_1242,localizer,2021.1.3,60.03640613023816,
,,,,,,,,,,,,,,,,,,,,,,,,,,,,,,,,,,,,,,,,,,,,,,501.53129219985567,None,y,46.104507100069895,501.53129219985567,None,,,,,,,,,,,,,,,,,,,22011,0002,2022_Aug_12_1242,localizer,2021.1.3,60.03640613023816,
block_start,objects,objects033.bmp,,,,,0,0,0,0,,,,,,,,,,,,,,,,,,,,,,,,,,,,,,,,,,,,,,,,,,t,17.16698900004849,547.6908459998667,None,547.6908459998667,None,2022-08-12-12:51:19.571431,564.8821390999947,565.1810897998512,564.8821390999947,None,None,564.8821390999947,None,565.6816283699125,None,,,22011,0002,2022_Aug_12_1242,localizer,2021.1.3,60.03640613023816,
block,objects,objects083.bmp,,,,,0,1,1,1,,,,,,,,,,,,,,,,,,,,,,,,,,,,,,,,,,,,,,,,,,None,,565.6816283699125,None,565.6816283699125,None,2022-08-12-12:51:20.375993,565.6953402999789,565.9979786998592,565.6953402999789,565.6953402999789,None,565.6953402999789,565.6953402999789,566.4983629697933,None,,,22011,0002,2022_Aug_12_1242,localizer,2021.1.3,60.03640613023816,
block,objects,objects077.bmp,,,,,0,2,2,2,,,,,,,,,,,,,,,,,,,,,,,,,,,,,,,,,,,,,,,,,,None,,566.4983629697933,None,566.4983629697933,None,2022-08-12-12:51:21.190730,566.4989608000033,566.7980231998954,566.4989608000033,None,None,566.4989608000033,None,567.298246269999,None,,,22011,0002,2022_Aug_12_1242,localizer,2021.1.3,60.03640613023816,
block,objects,objects082.bmp,,,,,0,3,3,3,,,,,,,,,,,,,,,,,,,,,,,,,,,,,,,,,,,,,,,,,,None,,567.298246269999,None,567.298246269999,None,2022-08-12-12:51:21.991614,567.2989769999404,567.5979878997896,567.2989769999404,567.2989769999404,None,567.2989769999404,567.2989769999404,568.0990018699783,None,,,22011,0002,2022_Aug_12_1242,localizer,2021.1.3,60.03640613023816,
block,objects,objects076.bmp,,,,,0,4,4,4,,,,,,,,,,,,,,,,,,,,,,,,,,,,,,,,,,,,,,,,,,None,,568.0990018699783,None,568.0990018699783,None,2022-08-12-12:51:22.794531,568.101914400002,568.4149134999607,568.101914400002,568.101914400002,None,568.101914400002,568.101914400002,568.9149254699703,None,,,22011,0002,2022_Aug_12_1242,localizer,2021.1.3,60.03640613023816,
block,objects,objects040.bmp,,,,,0,5,5,5,,,,,,,,,,,,,,,,,,,,,,,,,,,,,,,,,,,,,,,,,,None,,568.9149254699703,None,568.9149254699703,None,2022-08-12-12:51:23.607296,568.9232677998953,569.2311031999998,568.9232677998953,None,None,568.9232677998953,None,569.7315476699266,None,,,22011,0002,2022_Aug_12_1242,localizer,2021.1.3,60.03640613023816,
block,objects,objects087.bmp,,,,,0,6,6,6,,,,,,,,,,,,,,,,,,,,,,,,,,,,,,,,,,,,,,,,,,None,,569.7315476699266,None,569.7315476699266,None,2022-08-12-12:51:24.423918,569.7412776998244,570.0478893998079,569.7412776998244,None,None,569.7412776998244,None,570.5482799699064,None,,,22011,0002,2022_Aug_12_1242,localizer,2021.1.3,60.03640613023816,
block,objects,objects044.bmp,,,,,0,7,7,7,,,,,,,,,,,,,,,,,,,,,,,,,,,,,,,,,,,,,,,,,,None,,570.5482799699064,None,570.5482799699064,None,2022-08-12-12:51:25.241210,570.5578712997958,570.8644755999558,570.5578712997958,None,None,570.5578712997958,None,571.3649696697946,None,,,22011,0002,2022_Aug_12_1242,localizer,2021.1.3,60.03640613023816,
block,objects,objects063.bmp,,,,,0,8,8,8,,,,,,,,,,,,,,,,,,,,,,,,,,,,,,,,,,,,,,,,,,None,,571.3649696697946,None,571.3649696697946,None,2022-08-12-12:51:26.057338,571.3739864998497,571.6816729998682,571.3739864998497,None,None,571.3739864998497,None,572.1814838698599,None,,,22011,0002,2022_Aug_12_1242,localizer,2021.1.3,60.03640613023816,
block,objects,objects009.bmp,,,,,0,9,9,9,,,,,,,,,,,,,,,,,,,,,,,,,,,,,,,,,,,,,,,,,,None,,572.1814838698599,None,572.1814838698599,None,2022-08-12-12:51:26.873896,572.1903401999734,572.4979365998879,572.1903401999734,None,None,572.1903401999734,None,572.9982935699634,None,,,22011,0002,2022_Aug_12_1242,localizer,2021.1.3,60.03640613023816,
block,objects,objects034.bmp,,,,,0,10,10,10,,,,,,,,,,,,,,,,,,,,,,,,,,,,,,,,,,,,,,,,,,None,,572.9982935699634,None,572.9982935699634,None,2022-08-12-12:51:27.690910,572.9988985999953,573.2978811999783,572.9988985999953,None,None,572.9988985999953,None,573.7986835699528,None,,,22011,0002,2022_Aug_12_1242,localizer,2021.1.3,60.03640613023816,
block,objects,objects007.bmp,,,,,0,11,11,11,,,,,,,,,,,,,,,,,,,,,,,,,,,,,,,,,,,,,,,,,,None,,573.7986835699528,None,573.7986835699528,None,2022-08-12-12:51:28.494004,573.8012818999123,574.1151288999245,573.8012818999123,573.8012818999123,None,573.8012818999123,573.8012818999123,574.6149569698143,None,,,22011,0002,2022_Aug_12_1242,localizer,2021.1.3,60.03640613023816,
block,objects,objects031.bmp,,,,,0,12,12,12,,,,,,,,,,,,,,,,,,,,,,,,,,,,,,,,,,,,,,,,,,None,,574.6149569698143,None,574.6149569698143,None,2022-08-12-12:51:29.307327,574.6155951998662,574.9146950999275,574.6155951998662,None,None,574.6155951998662,None,575.4149247698485,None,,,22011,0002,2022_Aug_12_1242,localizer,2021.1.3,60.03640613023816,
block,objects,objects003.bmp,,,,,0,13,13,13,,,,,,,,,,,,,,,,,,,,,,,,,,,,,,,,,,,,,,,,,,None,,575.4149247698485,None,575.4149247698485,None,2022-08-12-12:51:30.108294,575.4155894999858,575.7143420998473,575.4155894999858,575.4155894999858,None,575.4155894999858,575.4155894999858,576.214657969959,None,,,22011,0002,2022_Aug_12_1242,localizer,2021.1.3,60.03640613023816,
block_end,objects,objects055.bmp,,,,,0,14,14,14,,,,,,,,,,,,,,,,,,,,,,,,,,,,,,,,,,,,,,,,,,None,,576.214657969959,None,576.214657969959,None,2022-08-12-12:51:30.908284,576.2213443999644,576.517019599909,576.2213443999644,576.2213443999644,None,576.2213443999644,576.2213443999644,577.0323333700187,None,,,22011,0002,2022_Aug_12_1242,localizer,2021.1.3,60.03640613023816,
null_block,null_block,null_block.bmp,,,,,0,15,15,15,,,,,,,,,,,,,,,,,,,,,,,,,,,,,,,,,,,,,,,,,,t,1.8258173998910934,577.0319161999505,None,577.0319161999505,None,2022-08-12-12:51:33.574335,578.88197266981,None,578.88197266981,None,None,578.88197266981,None,578.8852503998205,None,,,22011,0002,2022_Aug_12_1242,localizer,2021.1.3,60.03640613023816,
block_start,scenes,scenes037.bmp,,,,,0,16,16,16,,,,,,,,,,,,,,,,,,,,,,,,,,,,,,,,,,,,,,,,,,t,1.9598657998722047,590.8979056999087,None,590.8979056999087,None,2022-08-12-12:51:47.574456,592.9222596997861,593.2315752999857,592.9222596997861,None,None,592.9222596997861,None,593.6982899698894,None,,,22011,0002,2022_Aug_12_1242,localizer,2021.1.3,60.03640613023816,
block,scenes,scenes057.bmp,,,,,0,17,17,17,,,,,,,,,,,,,,,,,,,,,,,,,,,,,,,,,,,,,,,,,,None,,593.6982899698894,None,593.6982899698894,None,2022-08-12-12:51:48.390971,593.7072984999977,594.014918499859,593.7072984999977,None,None,593.7072984999977,None,594.5149629699997,None,,,22011,0002,2022_Aug_12_1242,localizer,2021.1.3,60.03640613023816,
block,scenes,scenes038.bmp,,,,,0,18,18,18,,,,,,,,,,,,,,,,,,,,,,,,,,,,,,,,,,,,,,,,,,None,,594.5149629699997,None,594.5149629699997,None,2022-08-12-12:51:49.207336,594.5157528999262,594.8147691998165,594.5157528999262,None,None,594.5157528999262,None,595.3162838699761,None,,,22011,0002,2022_Aug_12_1242,localizer,2021.1.3,60.03640613023816,
block,scenes,scenes068.bmp,,,,,0,19,19,19,,,,,,,,,,,,,,,,,,,,,,,,,,,,,,,,,,,,,,,,,,None,,595.3162838699761,None,595.3162838699761,None,2022-08-12-12:51:50.012807,595.3314671998378,595.6316629999783,595.3314671998378,595.3314671998378,None,595.3314671998378,595.3314671998378,596.1320873698685,None,,,22011,0002,2022_Aug_12_1242,localizer,2021.1.3,60.03640613023816,
block,scenes,scenes084.bmp,,,,,0,20,20,20,,,,,,,,,,,,,,,,,,,,,,,,,,,,,,,,,,,,,,,,,,None,,596.1320873698685,None,596.1320873698685,None,2022-08-12-12:51:50.824450,596.1422170998994,596.4480614999775,596.1422170998994,None,None,596.1422170998994,None,596.9485374697949,None,,,22011,0002,2022_Aug_12_1242,localizer,2021.1.3,60.03640613023816,
block,scenes,scenes054.bmp,,,,,0,21,21,21,,,,,,,,,,,,,,,,,,,,,,,,,,,,,,,,,,,,,,,,,,None,,596.9485374697949,None,596.9485374697949,None,2022-08-12-12:51:51.640904,596.9491399999242,597.2479391999077,596.9491399999242,None,None,596.9491399999242,None,597.7482207698747,None,,,22011,0002,2022_Aug_12_1242,localizer,2021.1.3,60.03640613023816,
block,scenes,scenes023.bmp,,,,,0,22,22,22,,,,,,,,,,,,,,,,,,,,,,,,,,,,,,,,,,,,,,,,,,None,,597.7482207698747,None,597.7482207698747,None,2022-08-12-12:51:52.441592,597.7490006999578,598.0482731999364,597.7490006999578,597.7490006999578,None,597.7490006999578,597.7490006999578,598.5483597698155,None,,,22011,0002,2022_Aug_12_1242,localizer,2021.1.3,60.03640613023816,
block,scenes,scenes063.bmp,,,,,0,23,23,23,,,,,,,,,,,,,,,,,,,,,,,,,,,,,,,,,,,,,,,,,,None,,598.5483597698155,None,598.5483597698155,None,2022-08-12-12:51:53.241727,598.5491216999944,598.8480054999236,598.5491216999944,598.5491216999944,None,598.5491216999944,598.5491216999944,599.3546825698111,None,,,22011,0002,2022_Aug_12_1242,localizer,2021.1.3,60.03640613023816,
block,scenes,scenes064.bmp,,,,,0,24,24,24,,,,,,,,,,,,,,,,,,,,,,,,,,,,,,,,,,,,,,,,,,None,,599.3546825698111,None,599.3546825698111,None,2022-08-12-12:51:54.054795,599.3636607998051,599.6655564999674,599.3636607998051,None,None,599.3636607998051,None,600.1716527698561,None,,,22011,0002,2022_Aug_12_1242,localizer,2021.1.3,60.03640613023816,
block,scenes,scenes069.bmp,,,,,0,25,25,25,,,,,,,,,,,,,,,,,,,,,,,,,,,,,,,,,,,,,,,,,,None,,600.1716527698561,None,600.1716527698561,None,2022-08-12-12:51:54.871962,600.1809046999551,600.4821799998172,600.1809046999551,None,None,600.1809046999551,None,600.9822412698529,None,,,22011,0002,2022_Aug_12_1242,localizer,2021.1.3,60.03640613023816,
block,scenes,scenes081.bmp,,,,,0,26,26,26,,,,,,,,,,,,,,,,,,,,,,,,,,,,,,,,,,,,,,,,,,None,,600.9822412698529,None,600.9822412698529,None,2022-08-12-12:51:55.674789,600.9824114998337,601.2814851999283,600.9824114998337,None,None,600.9824114998337,None,601.7817986700218,None,,,22011,0002,2022_Aug_12_1242,localizer,2021.1.3,60.03640613023816,
block,scenes,scenes077.bmp,,,,,0,27,27,27,,,,,,,,,,,,,,,,,,,,,,,,,,,,,,,,,,,,,,,,,,None,,601.7817986700218,None,601.7817986700218,None,2022-08-12-12:51:56.475165,601.7926745999139,602.0981710997876,601.7926745999139,601.7926745999139,None,601.7926745999139,601.7926745999139,602.598888769932,None,,,22011,0002,2022_Aug_12_1242,localizer,2021.1.3,60.03640613023816,
block,scenes,scenes036.bmp,,,,,0,28,28,28,,,,,,,,,,,,,,,,,,,,,,,,,,,,,,,,,,,,,,,,,,None,,602.598888769932,None,602.598888769932,None,2022-08-12-12:51:57.291253,602.6096110998187,602.9145519000012,602.6096110998187,None,None,602.6096110998187,None,603.4151763699017,None,,,22011,0002,2022_Aug_12_1242,localizer,2021.1.3,60.03640613023816,
block,scenes,scenes083.bmp,,,,,0,29,29,29,,,,,,,,,,,,,,,,,,,,,,,,,,,,,,,,,,,,,,,,,,None,,603.4151763699017,None,603.4151763699017,None,2022-08-12-12:51:58.107546,603.4251941000111,603.7314951999579,603.4251941000111,None,None,603.4251941000111,None,604.2389945699367,None,,,22011,0002,2022_Aug_12_1242,localizer,2021.1.3,60.03640613023816,
block_end,scenes,scenes086.bmp,,,,,0,30,30,30,,,,,,,,,,,,,,,,,,,,,,,,,,,,,,,,,,,,,,,,,,None,,604.2389945699367,None,604.2389945699367,None,2022-08-12-12:51:58.937005,604.2448307999875,604.5487090998795,604.2448307999875,None,None,604.2448307999875,None,605.0485046698711,None,,,22011,0002,2022_Aug_12_1242,localizer,2021.1.3,60.03640613023816,
block_start,scrambled,scrambled046.bmp,,,,,0,31,31,31,,,,,,,,,,,,,,,,,,,,,,,,,,,,,,,,,,,,,,,,,,t,1.8086639000102878,605.0481727998704,None,605.0481727998704,None,2022-08-12-12:52:01.575764,606.8906967998482,607.1982563999481,606.8906967998482,None,None,606.8906967998482,None,607.6987491698935,None,,,22011,0002,2022_Aug_12_1242,localizer,2021.1.3,60.03640613023816,
block,scrambled,scrambled012.bmp,,,,,0,32,32,32,,,,,,,,,,,,,,,,,,,,,,,,,,,,,,,,,,,,,,,,,,None,,607.6987491698935,None,607.6987491698935,None,2022-08-12-12:52:02.392139,607.6994288999122,607.9982193999458,607.6994288999122,None,None,607.6994288999122,None,608.4984613698441,None,,,22011,0002,2022_Aug_12_1242,localizer,2021.1.3,60.03640613023816,
block,scrambled,scrambled058.bmp,,,,,0,33,33,33,,,,,,,,,,,,,,,,,,,,,,,,,,,,,,,,,,,,,,,,,,None,,608.4984613698441,None,608.4984613698441,None,2022-08-12-12:52:03.193029,608.5106639999431,608.8151648999192,608.5106639999431,608.5106639999431,None,608.5106639999431,608.5106639999431,609.3163582698442,None,,,22011,0002,2022_Aug_12_1242,localizer,2021.1.3,60.03640613023816,
block,scrambled,scrambled021.bmp,,,,,0,34,34,34,,,,,,,,,,,,,,,,,,,,,,,,,,,,,,,,,,,,,,,,,,None,,609.3163582698442,None,609.3163582698442,None,2022-08-12-12:52:04.009840,609.3179893998895,609.6316558998078,609.3179893998895,None,None,609.3179893998895,None,610.1316997699439,None,,,22011,0002,2022_Aug_12_1242,localizer,2021.1.3,60.03640613023816,
block,scrambled,scrambled047.bmp,,,,,0,35,35,35,,,,,,,,,,,,,,,,,,,,,,,,,,,,,,,,,,,,,,,,,,None,,610.1316997699439,None,610.1316997699439,None,2022-08-12-12:52:04.824320,610.1324400999583,610.4314032997936,610.1324400999583,None,None,610.1324400999583,None,610.9323876699898,None,,,22011,0002,2022_Aug_12_1242,localizer,2021.1.3,60.03640613023816,
block,scrambled,scrambled025.bmp,,,,,0,36,36,36,,,,,,,,,,,,,,,,,,,,,,,,,,,,,,,,,,,,,,,,,,None,,610.9323876699898,None,610.9323876699898,None,2022-08-12-12:52:05.627976,610.9455936998129,611.2500528998207,610.9455936998129,610.9455936998129,None,610.9455936998129,610.9455936998129,611.7552575699053,None,,,22011,0002,2022_Aug_12_1242,localizer,2021.1.3,60.03640613023816,
block,scrambled,scrambled060.bmp,,,,,0,37,37,37,,,,,,,,,,,,,,,,,,,,,,,,,,,,,,,,,,,,,,,,,,None,,611.7552575699053,None,611.7552575699053,None,2022-08-12-12:52:06.455578,611.7649960999843,612.0656957000028,611.7649960999843,None,None,611.7649960999843,None,612.5650618699844,None,,,22011,0002,2022_Aug_12_1242,localizer,2021.1.3,60.03640613023816,
block,scrambled,scrambled004.bmp,,,,,0,38,38,38,,,,,,,,,,,,,,,,,,,,,,,,,,,,,,,,,,,,,,,,,,None,,612.5650618699844,None,612.5650618699844,None,2022-08-12-12:52:07.257436,612.5659582999069,612.8650230998173,612.5659582999069,None,None,612.5659582999069,None,613.3655505699105,None,,,22011,0002,2022_Aug_12_1242,localizer,2021.1.3,60.03640613023816,
block,scrambled,scrambled082.bmp,,,,,0,39,39,39,,,,,,,,,,,,,,,,,,,,,,,,,,,,,,,,,,,,,,,,,,None,,613.3655505699105,None,613.3655505699105,None,2022-08-12-12:52:08.060136,613.3679008998442,613.6820745998994,613.3679008998442,613.3679008998442,None,613.3679008998442,613.3679008998442,614.1816960698459,None,,,22011,0002,2022_Aug_12_1242,localizer,2021.1.3,60.03640613023816,
block,scrambled,scrambled043.bmp,,,,,0,40,40,40,,,,,,,,,,,,,,,,,,,,,,,,,,,,,,,,,,,,,,,,,,None,,614.1816960698459,None,614.1816960698459,None,2022-08-12-12:52:08.874068,614.1826136999298,614.4818563999142,614.1826136999298,None,None,614.1826136999298,None,614.9819347699638,None,,,22011,0002,2022_Aug_12_1242,localizer,2021.1.3,60.03640613023816,
block,scrambled,scrambled077.bmp,,,,,0,41,41,41,,,,,,,,,,,,,,,,,,,,,,,,,,,,,,,,,,,,,,,,,,None,,614.9819347699638,None,614.9819347699638,None,2022-08-12-12:52:09.676298,614.9829877999146,615.2981271999888,614.9829877999146,614.9829877999146,None,614.9829877999146,614.9829877999146,615.7984667699318,None,,,22011,0002,2022_Aug_12_1242,localizer,2021.1.3,60.03640613023816,
block,scrambled,scrambled048.bmp,,,,,0,42,42,42,,,,,,,,,,,,,,,,,,,,,,,,,,,,,,,,,,,,,,,,,,None,,615.7984667699318,None,615.7984667699318,None,2022-08-12-12:52:10.491325,615.8066690999549,616.1154002000112,615.8066690999549,None,None,615.8066690999549,None,616.6156881697941,None,,,22011,0002,2022_Aug_12_1242,localizer,2021.1.3,60.03640613023816,
block,scrambled,scrambled042.bmp,,,,,0,43,43,43,,,,,,,,,,,,,,,,,,,,,,,,,,,,,,,,,,,,,,,,,,None,,616.6156881697941,None,616.6156881697941,None,2022-08-12-12:52:11.309072,616.6161254998296,616.9150184998289,616.6161254998296,None,None,616.6161254998296,None,617.4154704699292,None,,,22011,0002,2022_Aug_12_1242,localizer,2021.1.3,60.03640613023816,
block,scrambled,scrambled051.bmp,,,,,0,44,44,44,,,,,,,,,,,,,,,,,,,,,,,,,,,,,,,,,,,,,,,,,,None,,617.4154704699292,None,617.4154704699292,None,2022-08-12-12:52:12.109831,617.4179157998879,617.7384066998493,617.4179157998879,617.4179157998879,None,617.4179157998879,617.4179157998879,618.2315083699766,None,,,22011,0002,2022_Aug_12_1242,localizer,2021.1.3,60.03640613023816,
block_end,scrambled,scrambled020.bmp,,,,,0,45,45,45,,,,,,,,,,,,,,,,,,,,,,,,,,,,,,,,,,,,,,,,,,None,,618.2315083699766,None,618.2315083699766,None,2022-08-12-12:52:12.923344,618.2394953998737,618.5490146998782,618.2394953998737,None,None,618.2394953998737,None,619.0497787699103,None,,,22011,0002,2022_Aug_12_1242,localizer,2021.1.3,60.03640613023816,
block_start,faces,faces075.bmp,,,,,0,46,46,46,,,,,,,,,,,,,,,,,,,,,,,,,,,,,,,,,,,,,,,,,,t,1.807364899897948,619.0495774999727,None,619.0495774999727,None,2022-08-12-12:52:15.579344,620.899108499987,621.1986389998347,620.899108499987,None,None,620.899108499987,None,621.6988052699714,None,,,22011,0002,2022_Aug_12_1242,localizer,2021.1.3,60.03640613023816,
block,faces,faces075.bmp,,,,,0,47,47,47,,,,,,,,,,,,,,,,,,,,,,,,,,,,,,,,,,,,,,,,,,None,,621.6988052699714,None,621.6988052699714,None,2022-08-12-12:52:16.391170,621.6995618999936,621.998922099825,621.6995618999936,None,None,621.6995618999936,None,622.4986252698116,None,,,22011,0002,2022_Aug_12_1242,localizer,2021.1.3,60.03640613023816,
block,faces,faces062.bmp,,,,,0,48,48,48,,,,,,,,,,,,,,,,,,,,,,,,,,,,,,,,,,,,,,,,,,None,,622.4986252698116,None,622.4986252698116,None,2022-08-12-12:52:17.191993,622.4992857999168,622.7984312998597,622.4992857999168,622.4992857999168,None,622.4992857999168,622.4992857999168,623.315246769879,None,,,22011,0002,2022_Aug_12_1242,localizer,2021.1.3,60.03640613023816,
block,faces,faces072.bmp,,,,,0,49,49,49,,,,,,,,,,,,,,,,,,,,,,,,,,,,,,,,,,,,,,,,,,None,,623.315246769879,None,623.315246769879,None,2022-08-12-12:52:18.007836,623.3251361998264,623.631756799994,623.3251361998264,None,None,623.3251361998264,None,624.1323544699233,None,,,22011,0002,2022_Aug_12_1242,localizer,2021.1.3,60.03640613023816,
block,faces,faces019.bmp,,,,,0,50,50,50,,,,,,,,,,,,,,,,,,,,,,,,,,,,,,,,,,,,,,,,,,None,,624.1323544699233,None,624.1323544699233,None,2022-08-12-12:52:18.825897,624.1332124997862,624.4482468999922,624.1332124997862,None,None,624.1332124997862,None,624.9322388700209,None,,,22011,0002,2022_Aug_12_1242,localizer,2021.1.3,60.03640613023816,
block,faces,faces040.bmp,,,,,0,51,51,51,,,,,,,,,,,,,,,,,,,,,,,,,,,,,,,,,,,,,,,,,,None,,624.9322388700209,None,624.9322388700209,None,2022-08-12-12:52:19.626806,624.9348389999941,625.2482284998987,624.9348389999941,624.9348389999941,None,624.9348389999941,624.9348389999941,625.7487902699038,None,,,22011,0002,2022_Aug_12_1242,localizer,2021.1.3,60.03640613023816,
block,faces,faces029.bmp,,,,,0,52,52,52,,,,,,,,,,,,,,,,,,,,,,,,,,,,,,,,,,,,,,,,,,None,,625.7487902699038,None,625.7487902699038,None,2022-08-12-12:52:20.441370,625.7606054998469,626.0651707998477,625.7606054998469,None,None,625.7606054998469,None,626.5655916698277,None,,,22011,0002,2022_Aug_12_1242,localizer,2021.1.3,60.03640613023816,
block,faces,faces057.bmp,,,,,0,53,53,53,,,,,,,,,,,,,,,,,,,,,,,,,,,,,,,,,,,,,,,,,,None,,626.5655916698277,None,626.5655916698277,None,2022-08-12-12:52:21.257959,626.5780211999081,626.8817495999392,626.5780211999081,None,None,626.5780211999081,None,627.3824763698037,None,,,22011,0002,2022_Aug_12_1242,localizer,2021.1.3,60.03640613023816,
block,faces,faces053.bmp,,,,,0,54,54,54,,,,,,,,,,,,,,,,,,,,,,,,,,,,,,,,,,,,,,,,,,None,,627.3824763698037,None,627.3824763698037,None,2022-08-12-12:52:22.075040,627.3938755998388,627.6986880998593,627.3938755998388,None,None,627.3938755998388,None,628.1990112699102,None,,,22011,0002,2022_Aug_12_1242,localizer,2021.1.3,60.03640613023816,
block,faces,faces046.bmp,,,,,0,55,55,55,,,,,,,,,,,,,,,,,,,,,,,,,,,,,,,,,,,,,,,,,,None,,628.1990112699102,None,628.1990112699102,None,2022-08-12-12:52:22.892575,628.2142122997902,628.5148429998662,628.2142122997902,None,None,628.2142122997902,None,629.0154453699477,None,,,22011,0002,2022_Aug_12_1242,localizer,2021.1.3,60.03640613023816,
block,faces,faces054.bmp,,,,,0,56,56,56,,,,,,,,,,,,,,,,,,,,,,,,,,,,,,,,,,,,,,,,,,None,,629.0154453699477,None,629.0154453699477,None,2022-08-12-12:52:23.707811,629.0160193999764,629.3150526999962,629.0160193999764,None,None,629.0160193999764,None,629.8152581699658,None,,,22011,0002,2022_Aug_12_1242,localizer,2021.1.3,60.03640613023816,
block,faces,faces010.bmp,,,,,0,57,57,57,,,,,,,,,,,,,,,,,,,,,,,,,,,,,,,,,,,,,,,,,,None,,629.8152581699658,None,629.8152581699658,None,2022-08-12-12:52:24.508626,629.8160847998224,630.1149601999205,629.8160847998224,629.8160847998224,None,629.8160847998224,629.8160847998224,630.631710869912,None,,,22011,0002,2022_Aug_12_1242,localizer,2021.1.3,60.03640613023816,
block,faces,faces031.bmp,,,,,0,58,58,58,,,,,,,,,,,,,,,,,,,,,,,,,,,,,,,,,,,,,,,,,,None,,630.631710869912,None,630.631710869912,None,2022-08-12-12:52:25.324307,630.6407294999808,630.9484096998349,630.6407294999808,None,None,630.6407294999808,None,631.4488906699232,None,,,22011,0002,2022_Aug_12_1242,localizer,2021.1.3,60.03640613023816,
block,faces,faces025.bmp,,,,,0,59,59,59,,,,,,,,,,,,,,,,,,,,,,,,,,,,,,,,,,,,,,,,,,None,,631.4488906699232,None,631.4488906699232,None,2022-08-12-12:52:26.141238,631.4493326998781,631.7483782998752,631.4493326998781,None,None,631.4493326998781,None,632.2487780698109,None,,,22011,0002,2022_Aug_12_1242,localizer,2021.1.3,60.03640613023816,
block_end,faces,faces089.bmp,,,,,0,60,60,60,,,,,,,,,,,,,,,,,,,,,,,,,,,,,,,,,,,,,,,,,,None,,632.2487780698109,None,632.2487780698109,None,2022-08-12-12:52:26.943263,632.2503272998147,632.5649728998542,632.2503272998147,632.2503272998147,None,632.2503272998147,632.2503272998147,633.0655663699843,None,,,22011,0002,2022_Aug_12_1242,localizer,2021.1.3,60.03640613023816,
block_start,objects,objects046.bmp,,,,,0,61,61,61,,,,,,,,,,,,,,,,,,,,,,,,,,,,,,,,,,,,,,,,,,t,1.7915620999410748,633.0652526000049,None,633.0652526000049,None,2022-08-12-12:52:29.575909,634.894233699888,635.1981420998927,634.894233699888,None,None,634.894233699888,None,635.6997960698325,None,,,22011,0002,2022_Aug_12_1242,localizer,2021.1.3,60.03640613023816,
block,objects,objects065.bmp,,,,,0,62,62,62,,,,,,,,,,,,,,,,,,,,,,,,,,,,,,,,,,,,,,,,,,None,,635.6997960698325,None,635.6997960698325,None,2022-08-12-12:52:30.393152,635.7106997999363,636.0154383999761,635.7106997999363,None,None,635.7106997999363,None,636.5151970698032,None,,,22011,0002,2022_Aug_12_1242,localizer,2021.1.3,60.03640613023816,
block,objects,objects056.bmp,,,,,0,63,63,63,,,,,,,,,,,,,,,,,,,,,,,,,,,,,,,,,,,,,,,,,,None,,636.5151970698032,None,636.5151970698032,None,2022-08-12-12:52:31.207567,636.5245109999087,636.8324225000106,636.5245109999087,None,None,636.5245109999087,None,637.3333601699676,None,,,22011,0002,2022_Aug_12_1242,localizer,2021.1.3,60.03640613023816,
block,objects,objects028.bmp,,,,,0,64,64,64,,,,,,,,,,,,,,,,,,,,,,,,,,,,,,,,,,,,,,,,,,None,,637.3333601699676,None,637.3333601699676,None,2022-08-12-12:52:32.028873,637.3469314998947,637.6481929000001,637.3469314998947,None,None,637.3469314998947,None,638.1488222698215,None,,,22011,0002,2022_Aug_12_1242,localizer,2021.1.3,60.03640613023816,
block,objects,objects015.bmp,,,,,0,65,65,65,,,,,,,,,,,,,,,,,,,,,,,,,,,,,,,,,,,,,,,,,,None,,638.1488222698215,None,638.1488222698215,None,2022-08-12-12:52:32.841188,638.1493251998909,638.448421199806,638.1493251998909,None,None,638.1493251998909,None,638.9491384699475,None,,,22011,0002,2022_Aug_12_1242,localizer,2021.1.3,60.03640613023816,
block,objects,objects044.bmp,,,,,0,66,66,66,,,,,,,,,,,,,,,,,,,,,,,,,,,,,,,,,,,,,,,,,,None,,638.9491384699475,None,638.9491384699475,None,2022-08-12-12:52:33.644691,638.951921899803,639.2496436999645,638.951921899803,638.951921899803,None,638.951921899803,638.951921899803,639.7559246699791,None,,,22011,0002,2022_Aug_12_1242,localizer,2021.1.3,60.03640613023816,
block,objects,objects052.bmp,,,,,0,67,67,67,,,,,,,,,,,,,,,,,,,,,,,,,,,,,,,,,,,,,,,,,,None,,639.7559246699791,None,639.7559246699791,None,2022-08-12-12:52:34.454194,639.7628522999585,640.0658056999091,639.7628522999585,None,None,639.7628522999585,None,640.5652427698485,None,,,22011,0002,2022_Aug_12_1242,localizer,2021.1.3,60.03640613023816,
block,objects,objects048.bmp,,,,,0,68,68,68,,,,,,,,,,,,,,,,,,,,,,,,,,,,,,,,,,,,,,,,,,None,,640.5652427698485,None,640.5652427698485,None,2022-08-12-12:52:35.257645,640.566117099952,640.8651556000113,640.566117099952,None,None,640.566117099952,None,641.3666579699609,None,,,22011,0002,2022_Aug_12_1242,localizer,2021.1.3,60.03640613023816,
block,objects,objects062.bmp,,,,,0,69,69,69,,,,,,,,,,,,,,,,,,,,,,,,,,,,,,,,,,,,,,,,,,None,,641.3666579699609,None,641.3666579699609,None,2022-08-12-12:52:36.064978,641.3830889998935,641.6985173998401,641.3830889998935,641.3830889998935,None,641.3830889998935,641.3830889998935,642.1824771698564,None,,,22011,0002,2022_Aug_12_1242,localizer,2021.1.3,60.03640613023816,
block,objects,objects076.bmp,,,,,0,70,70,70,,,,,,,,,,,,,,,,,,,,,,,,,,,,,,,,,,,,,,,,,,None,,642.1824771698564,None,642.1824771698564,None,2022-08-12-12:52:36.876027,642.1826813998632,642.4816869997885,642.1826813998632,None,None,642.1826813998632,None,642.9825537700206,None,,,22011,0002,2022_Aug_12_1242,localizer,2021.1.3,60.03640613023816,
block,objects,objects059.bmp,,,,,0,71,71,71,,,,,,,,,,,,,,,,,,,,,,,,,,,,,,,,,,,,,,,,,,None,,642.9825537700206,None,642.9825537700206,None,2022-08-12-12:52:37.677907,642.9851027999539,643.2991199998651,642.9851027999539,642.9851027999539,None,642.9851027999539,642.9851027999539,643.7987045698799,None,,,22011,0002,2022_Aug_12_1242,localizer,2021.1.3,60.03640613023816,
block,objects,objects070.bmp,,,,,0,72,72,72,,,,,,,,,,,,,,,,,,,,,,,,,,,,,,,,,,,,,,,,,,None,,643.7987045698799,None,643.7987045698799,None,2022-08-12-12:52:38.491076,643.7993553997949,644.0984364999458,643.7993553997949,None,None,643.7993553997949,None,644.5994182698894,None,,,22011,0002,2022_Aug_12_1242,localizer,2021.1.3,60.03640613023816,
block,objects,objects002.bmp,,,,,0,73,73,73,,,,,,,,,,,,,,,,,,,,,,,,,,,,,,,,,,,,,,,,,,None,,644.5994182698894,None,644.5994182698894,None,2022-08-12-12:52:39.294693,644.6130971999373,644.9151922999881,644.6130971999373,644.6130971999373,None,644.6130971999373,644.6130971999373,645.4152189699932,None,,,22011,0002,2022_Aug_12_1242,localizer,2021.1.3,60.03640613023816,
block,objects,objects024.bmp,,,,,0,74,74,74,,,,,,,,,,,,,,,,,,,,,,,,,,,,,,,,,,,,,,,,,,None,,645.4152189699932,None,645.4152189699932,None,2022-08-12-12:52:40.107593,645.4161435000133,645.7317464998923,645.4161435000133,None,None,645.4161435000133,None,646.2155079699121,None,,,22011,0002,2022_Aug_12_1242,localizer,2021.1.3,60.03640613023816,
block_end,objects,objects001.bmp,,,,,0,75,75,75,,,,,,,,,,,,,,,,,,,,,,,,,,,,,,,,,,,,,,,,,,None,,646.2155079699121,None,646.2155079699121,None,2022-08-12-12:52:40.909450,646.2162430000026,646.5150878999848,646.2162430000026,646.2162430000026,None,646.2162430000026,646.2162430000026,647.0155388698447,None,,,22011,0002,2022_Aug_12_1242,localizer,2021.1.3,60.03640613023816,
block_start,scrambled,scrambled037.bmp,,,,,0,76,76,76,,,,,,,,,,,,,,,,,,,,,,,,,,,,,,,,,,,,,,,,,,t,1.8417410999536514,647.0151920998469,None,647.0151920998469,None,2022-08-12-12:52:43.573693,648.8831762999762,649.1831021998078,648.8831762999762,None,None,648.8831762999762,None,649.6821896698791,None,,,22011,0002,2022_Aug_12_1242,localizer,2021.1.3,60.03640613023816,
block,scrambled,scrambled020.bmp,,,,,0,77,77,77,,,,,,,,,,,,,,,,,,,,,,,,,,,,,,,,,,,,,,,,,,None,,649.6821896698791,None,649.6821896698791,None,2022-08-12-12:52:44.375555,649.6827748999931,649.9820425999351,649.6827748999931,649.6827748999931,None,649.6827748999931,649.6827748999931,650.4832770698238,None,,,22011,0002,2022_Aug_12_1242,localizer,2021.1.3,60.03640613023816,
block,scrambled,scrambled065.bmp,,,,,0,78,78,78,,,,,,,,,,,,,,,,,,,,,,,,,,,,,,,,,,,,,,,,,,None,,650.4832770698238,None,650.4832770698238,None,2022-08-12-12:52:45.181782,650.4959805000108,650.7983927999157,650.4959805000108,650.4959805000108,None,650.4959805000108,650.4959805000108,651.2986808698158,None,,,22011,0002,2022_Aug_12_1242,localizer,2021.1.3,60.03640613023816,
block,scrambled,scrambled054.bmp,,,,,0,79,79,79,,,,,,,,,,,,,,,,,,,,,,,,,,,,,,,,,,,,,,,,,,None,,651.2986808698158,None,651.2986808698158,None,2022-08-12-12:52:45.991054,651.2993801999837,651.5984824998304,651.2993801999837,None,None,651.2993801999837,None,652.0989630699157,None,,,22011,0002,2022_Aug_12_1242,localizer,2021.1.3,60.03640613023816,
block,scrambled,scrambled010.bmp,,,,,0,80,80,80,,,,,,,,,,,,,,,,,,,,,,,,,,,,,,,,,,,,,,,,,,None,,652.0989630699157,None,652.0989630699157,None,2022-08-12-12:52:46.793518,652.1110855999868,652.415438799886,652.1110855999868,652.1110855999868,None,652.1110855999868,652.1110855999868,652.9152915698476,None,,,22011,0002,2022_Aug_12_1242,localizer,2021.1.3,60.03640613023816,
block,scrambled,scrambled046.bmp,,,,,0,81,81,81,,,,,,,,,,,,,,,,,,,,,,,,,,,,,,,,,,,,,,,,,,None,,652.9152915698476,None,652.9152915698476,None,2022-08-12-12:52:47.607876,652.9164884998463,653.221504499903,652.9164884998463,None,None,652.9164884998463,None,653.7186961699742,None,,,22011,0002,2022_Aug_12_1242,localizer,2021.1.3,60.03640613023816,
block,scrambled,scrambled060.bmp,,,,,0,82,82,82,,,,,,,,,,,,,,,,,,,,,,,,,,,,,,,,,,,,,,,,,,None,,653.7186961699742,None,653.7186961699742,None,2022-08-12-12:52:48.417049,653.7247665999457,654.031695399899,653.7247665999457,653.7247665999457,None,653.7247665999457,653.7247665999457,654.5387212698813,None,,,22011,0002,2022_Aug_12_1242,localizer,2021.1.3,60.03640613023816,
block,scrambled,scrambled007.bmp,,,,,0,83,83,83,,,,,,,,,,,,,,,,,,,,,,,,,,,,,,,,,,,,,,,,,,None,,654.5387212698813,None,654.5387212698813,None,2022-08-12-12:52:49.238872,654.5452285998035,654.8486600997858,654.5452285998035,None,None,654.5452285998035,None,655.3495172699447,None,,,22011,0002,2022_Aug_12_1242,localizer,2021.1.3,60.03640613023816,
block,scrambled,scrambled035.bmp,,,,,0,84,84,84,,,,,,,,,,,,,,,,,,,,,,,,,,,,,,,,,,,,,,,,,,None,,655.3495172699447,None,655.3495172699447,None,2022-08-12-12:52:50.042874,655.3512114000041,655.6662664997857,655.3512114000041,None,None,655.3512114000041,None,656.1652885698247,None,,,22011,0002,2022_Aug_12_1242,localizer,2021.1.3,60.03640613023816,
block,scrambled,scrambled073.bmp,,,,,0,85,85,85,,,,,,,,,,,,,,,,,,,,,,,,,,,,,,,,,,,,,,,,,,None,,656.1652885698247,None,656.1652885698247,None,2022-08-12-12:52:50.857658,656.1661389998626,656.4650703999214,656.1661389998626,None,None,656.1661389998626,None,656.9667989699635,None,,,22011,0002,2022_Aug_12_1242,localizer,2021.1.3,60.03640613023816,
block,scrambled,scrambled083.bmp,,,,,0,86,86,86,,,,,,,,,,,,,,,,,,,,,,,,,,,,,,,,,,,,,,,,,,None,,656.9667989699635,None,656.9667989699635,None,2022-08-12-12:52:51.665134,656.972598399967,657.2826158998068,656.972598399967,656.972598399967,None,656.972598399967,656.972598399967,657.7832496698945,None,,,22011,0002,2022_Aug_12_1242,localizer,2021.1.3,60.03640613023816,
block,scrambled,scrambled068.bmp,,,,,0,87,87,87,,,,,,,,,,,,,,,,,,,,,,,,,,,,,,,,,,,,,,,,,,None,,657.7832496698945,None,657.7832496698945,None,2022-08-12-12:52:52.474656,657.7828404998872,658.0820987999905,657.7828404998872,None,None,657.7828404998872,None,658.5835585698485,None,,,22011,0002,2022_Aug_12_1242,localizer,2021.1.3,60.03640613023816,
block,scrambled,scrambled053.bmp,,,,,0,88,88,88,,,,,,,,,,,,,,,,,,,,,,,,,,,,,,,,,,,,,,,,,,None,,658.5835585698485,None,658.5835585698485,None,2022-08-12-12:52:53.281894,658.6004210999236,658.9152171998285,658.6004210999236,658.6004210999236,None,658.6004210999236,658.6004210999236,659.3988502698019,None,,,22011,0002,2022_Aug_12_1242,localizer,2021.1.3,60.03640613023816,
block,scrambled,scrambled087.bmp,,,,,0,89,89,89,,,,,,,,,,,,,,,,,,,,,,,,,,,,,,,,,,,,,,,,,,None,,659.3988502698019,None,659.3988502698019,None,2022-08-12-12:52:54.091219,659.3994237999432,659.6986786997877,659.3994237999432,None,None,659.3994237999432,None,660.2177706697955,None,,,22011,0002,2022_Aug_12_1242,localizer,2021.1.3,60.03640613023816,
block_end,scrambled,scrambled002.bmp,,,,,0,90,90,90,,,,,,,,,,,,,,,,,,,,,,,,,,,,,,,,,,,,,,,,,,None,,660.2177706697955,None,660.2177706697955,None,2022-08-12-12:52:54.909083,660.2162666998338,660.5318578998558,660.2162666998338,None,None,660.2162666998338,None,661.0153201699256,None,,,22011,0002,2022_Aug_12_1242,localizer,2021.1.3,60.03640613023816,
block_start,scenes,scenes050.bmp,,,,,0,91,91,91,,,,,,,,,,,,,,,,,,,,,,,,,,,,,,,,,,,,,,,,,,t,1.8423140000086278,661.014815799892,None,661.014815799892,None,2022-08-12-12:52:57.572626,662.8838915999513,663.1983126997948,662.8838915999513,None,None,662.8838915999513,None,663.6833860699087,None,,,22011,0002,2022_Aug_12_1242,localizer,2021.1.3,60.03640613023816,
block,scenes,scenes012.bmp,,,,,0,92,92,92,,,,,,,,,,,,,,,,,,,,,,,,,,,,,,,,,,,,,,,,,,None,,663.6833860699087,None,663.6833860699087,None,2022-08-12-12:52:58.379759,663.6944483998232,664.0012947998475,663.6944483998232,663.6944483998232,None,663.6944483998232,663.6944483998232,664.4990931699983,None,,,22011,0002,2022_Aug_12_1242,localizer,2021.1.3,60.03640613023816,
block,scenes,scenes080.bmp,,,,,0,93,93,93,,,,,,,,,,,,,,,,,,,,,,,,,,,,,,,,,,,,,,,,,,None,,664.4990931699983,None,664.4990931699983,None,2022-08-12-12:52:59.191686,664.5096993998159,664.815912499791,664.5096993998159,None,None,664.5096993998159,None,665.3154329698998,None,,,22011,0002,2022_Aug_12_1242,localizer,2021.1.3,60.03640613023816,
block,scenes,scenes065.bmp,,,,,0,94,94,94,,,,,,,,,,,,,,,,,,,,,,,,,,,,,,,,,,,,,,,,,,None,,665.3154329698998,None,665.3154329698998,None,2022-08-12-12:53:00.008217,665.3243435998447,665.6323069999926,665.3243435998447,None,None,665.3243435998447,None,666.1328918698243,None,,,22011,0002,2022_Aug_12_1242,localizer,2021.1.3,60.03640613023816,
block,scenes,scenes068.bmp,,,,,0,95,95,95,,,,,,,,,,,,,,,,,,,,,,,,,,,,,,,,,,,,,,,,,,None,,666.1328918698243,None,666.1328918698243,None,2022-08-12-12:53:00.826364,666.1333353999071,666.4325577998534,666.1333353999071,None,None,666.1333353999071,None,666.9323379699606,None,,,22011,0002,2022_Aug_12_1242,localizer,2021.1.3,60.03640613023816,
block,scenes,scenes016.bmp,,,,,0,96,96,96,,,,,,,,,,,,,,,,,,,,,,,,,,,,,,,,,,,,,,,,,,None,,666.9323379699606,None,666.9323379699606,None,2022-08-12-12:53:01.626700,666.934995399788,667.2375854998827,666.934995399788,666.934995399788,None,666.934995399788,666.934995399788,667.7491261700168,None,,,22011,0002,2022_Aug_12_1242,localizer,2021.1.3,60.03640613023816,
block,scenes,scenes004.bmp,,,,,0,97,97,97,,,,,,,,,,,,,,,,,,,,,,,,,,,,,,,,,,,,,,,,,,None,,667.7491261700168,None,667.7491261700168,None,2022-08-12-12:53:02.441060,667.7645339998417,668.06538119982,667.7645339998417,None,None,667.7645339998417,None,668.5660317698027,None,,,22011,0002,2022_Aug_12_1242,localizer,2021.1.3,60.03640613023816,
block,scenes,scenes003.bmp,,,,,0,98,98,98,,,,,,,,,,,,,,,,,,,,,,,,,,,,,,,,,,,,,,,,,,None,,668.5660317698027,None,668.5660317698027,None,2022-08-12-12:53:03.259392,668.5665089997929,668.8683435998391,668.5665089997929,None,None,668.5665089997929,None,669.3818034699186,None,,,22011,0002,2022_Aug_12_1242,localizer,2021.1.3,60.03640613023816,
block,scenes,scenes003.bmp,,,,,0,99,99,99,,,,,,,,,,,,,,,,,,,,,,,,,,,,,,,,,,,,,,,,,,None,,669.3818034699186,None,669.3818034699186,None,2022-08-12-12:53:04.074179,669.3830573998857,669.6818023999222,669.3830573998857,None,None,669.3830573998857,None,670.1881218698807,None,,,22011,0002,2022_Aug_12_1242,localizer,2021.1.3,60.03640613023816,
block,scenes,scenes076.bmp,,,,,0,100,100,100,,,,,,,,,,,,,,,,,,,,,,,,,,,,,,,,,,,,,,,,,,None,,670.1881218698807,None,670.1881218698807,None,2022-08-12-12:53:04.884539,670.2027244998608,670.5151564998087,670.2027244998608,None,None,670.2027244998608,None,670.9986675700172,None,,,22011,0002,2022_Aug_12_1242,localizer,2021.1.3,60.03640613023816,
block,scenes,scenes038.bmp,,,,,0,101,101,101,,,,,,,,,,,,,,,,,,,,,,,,,,,,,,,,,,,,,,,,,,None,,670.9986675700172,None,670.9986675700172,None,2022-08-12-12:53:05.691043,670.9999104999006,671.3152673998848,670.9999104999006,None,None,670.9999104999006,None,671.7990904699079,None,,,22011,0002,2022_Aug_12_1242,localizer,2021.1.3,60.03640613023816,
block,scenes,scenes047.bmp,,,,,0,102,102,102,,,,,,,,,,,,,,,,,,,,,,,,,,,,,,,,,,,,,,,,,,None,,671.7990904699079,None,671.7990904699079,None,2022-08-12-12:53:06.493311,671.8016381999478,672.1153591999318,671.8016381999478,671.8016381999478,None,671.8016381999478,671.8016381999478,672.6009835698176,None,,,22011,0002,2022_Aug_12_1242,localizer,2021.1.3,60.03640613023816,
block,scenes,scenes088.bmp,,,,,0,103,103,103,,,,,,,,,,,,,,,,,,,,,,,,,,,,,,,,,,,,,,,,,,None,,672.6009835698176,None,672.6009835698176,None,2022-08-12-12:53:07.299483,672.6147625998128,672.9159714998677,672.6147625998128,672.6147625998128,None,672.6147625998128,672.6147625998128,673.4158527699299,None,,,22011,0002,2022_Aug_12_1242,localizer,2021.1.3,60.03640613023816,
block,scenes,scenes025.bmp,,,,,0,104,104,104,,,,,,,,,,,,,,,,,,,,,,,,,,,,,,,,,,,,,,,,,,None,,673.4158527699299,None,673.4158527699299,None,2022-08-12-12:53:08.108219,673.4160926998593,673.715031699976,673.4160926998593,None,None,673.4160926998593,None,674.2157717698253,None,,,22011,0002,2022_Aug_12_1242,localizer,2021.1.3,60.03640613023816,
block_end,scenes,scenes032.bmp,,,,,0,105,105,105,,,,,,,,,,,,,,,,,,,,,,,,,,,,,,,,,,,,,,,,,,None,,674.2157717698253,None,674.2157717698253,None,2022-08-12-12:53:08.909423,674.2175886000041,674.5318203999195,674.2175886000041,674.2175886000041,None,674.2175886000041,674.2175886000041,675.0327027698047,None,,,22011,0002,2022_Aug_12_1242,localizer,2021.1.3,60.03640613023816,
null_block,null_block,null_block.bmp,,,,,0,106,106,106,,,,,,,,,,,,,,,,,,,,,,,,,,,,,,,,,,,,,,,,,,t,1.8243856998160481,675.0324377999641,None,675.0324377999641,None,2022-08-12-12:53:11.573283,676.881907470012,None,676.881907470012,None,None,676.881907470012,None,676.8829085999168,None,,,22011,0002,2022_Aug_12_1242,localizer,2021.1.3,60.03640613023816,
block_start,faces,faces044.bmp,,,,,0,107,107,107,,,,,,,,,,,,,,,,,,,,,,,,,,,,,,,,,,,,,,,,,,t,1.973805099958554,688.883219699841,None,688.883219699841,None,2022-08-12-12:53:25.575575,690.882895699935,691.182061099913,690.882895699935,None,None,690.882895699935,None,691.6830977699253,None,,,22011,0002,2022_Aug_12_1242,localizer,2021.1.3,60.03640613023816,
block,faces,faces041.bmp,,,,,0,108,108,108,,,,,,,,,,,,,,,,,,,,,,,,,,,,,,,,,,,,,,,,,,None,,691.6830977699253,None,691.6830977699253,None,2022-08-12-12:53:26.378473,691.6974482999649,691.9987780000083,691.6974482999649,691.6974482999649,None,691.6974482999649,691.6974482999649,692.5011150699108,None,,,22011,0002,2022_Aug_12_1242,localizer,2021.1.3,60.03640613023816,
block,faces,faces020.bmp,,,,,0,109,109,109,,,,,,,,,,,,,,,,,,,,,,,,,,,,,,,,,,,,,,,,,,None,,692.5011150699108,None,692.5011150699108,None,2022-08-12-12:53:27.196626,692.5161692998372,692.8158368999138,692.5161692998372,None,None,692.5161692998372,None,693.3169730698689,None,,,22011,0002,2022_Aug_12_1242,localizer,2021.1.3,60.03640613023816,
block,faces,faces072.bmp,,,,,0,110,110,110,,,,,,,,,,,,,,,,,,,,,,,,,,,,,,,,,,,,,,,,,,None,,693.3169730698689,None,693.3169730698689,None,2022-08-12-12:53:28.011502,693.319035799941,693.6328772997949,693.319035799941,None,None,693.319035799941,None,694.1323817700147,None,,,22011,0002,2022_Aug_12_1242,localizer,2021.1.3,60.03640613023816,
block,faces,faces029.bmp,,,,,0,111,111,111,,,,,,,,,,,,,,,,,,,,,,,,,,,,,,,,,,,,,,,,,,None,,694.1323817700147,None,694.1323817700147,None,2022-08-12-12:53:28.824809,694.1330344998278,694.4327572998591,694.1330344998278,None,None,694.1330344998278,None,694.9323889698833,None,,,22011,0002,2022_Aug_12_1242,localizer,2021.1.3,60.03640613023816,
block,faces,faces038.bmp,,,,,0,112,112,112,,,,,,,,,,,,,,,,,,,,,,,,,,,,,,,,,,,,,,,,,,None,,694.9323889698833,None,694.9323889698833,None,2022-08-12-12:53:29.626748,694.952060099924,695.2653407999314,694.952060099924,694.952060099924,None,694.952060099924,694.952060099924,695.7491159699391,None,,,22011,0002,2022_Aug_12_1242,localizer,2021.1.3,60.03640613023816,
block,faces,faces021.bmp,,,,,0,113,113,113,,,,,,,,,,,,,,,,,,,,,,,,,,,,,,,,,,,,,,,,,,None,,695.7491159699391,None,695.7491159699391,None,2022-08-12-12:53:30.441482,695.7609637998976,696.0655604999047,695.7609637998976,None,None,695.7609637998976,None,696.5652666699141,None,,,22011,0002,2022_Aug_12_1242,localizer,2021.1.3,60.03640613023816,
block,faces,faces007.bmp,,,,,0,114,114,114,,,,,,,,,,,,,,,,,,,,,,,,,,,,,,,,,,,,,,,,,,None,,696.5652666699141,None,696.5652666699141,None,2022-08-12-12:53:31.257642,696.5667457999662,696.8820636000019,696.5667457999662,None,None,696.5667457999662,None,697.3822803699411,None,,,22011,0002,2022_Aug_12_1242,localizer,2021.1.3,60.03640613023816,
block,faces,faces087.bmp,,,,,0,115,115,115,,,,,,,,,,,,,,,,,,,,,,,,,,,,,,,,,,,,,,,,,,None,,697.3822803699411,None,697.3822803699411,None,2022-08-12-12:53:32.074652,697.3940914999694,697.6988136,697.3940914999694,None,None,697.3940914999694,None,698.1993447700049,None,,,22011,0002,2022_Aug_12_1242,localizer,2021.1.3,60.03640613023816,
block,faces,faces055.bmp,,,,,0,116,116,116,,,,,,,,,,,,,,,,,,,,,,,,,,,,,,,,,,,,,,,,,,None,,698.1993447700049,None,698.1993447700049,None,2022-08-12-12:53:32.891711,698.2100634998642,698.515412400011,698.2100634998642,None,None,698.2100634998642,None,699.0157462697941,None,,,22011,0002,2022_Aug_12_1242,localizer,2021.1.3,60.03640613023816,
block,faces,faces030.bmp,,,,,0,117,117,117,,,,,,,,,,,,,,,,,,,,,,,,,,,,,,,,,,,,,,,,,,None,,699.0157462697941,None,699.0157462697941,None,2022-08-12-12:53:33.708114,699.0162308998406,699.3160776000004,699.0162308998406,None,None,699.0162308998406,None,699.8164699698798,None,,,22011,0002,2022_Aug_12_1242,localizer,2021.1.3,60.03640613023816,
block,faces,faces022.bmp,,,,,0,118,118,118,,,,,,,,,,,,,,,,,,,,,,,,,,,,,,,,,,,,,,,,,,None,,699.8164699698798,None,699.8164699698798,None,2022-08-12-12:53:34.511821,699.832052799873,700.1321935998276,699.832052799873,699.832052799873,None,699.832052799873,699.832052799873,700.6324804699514,None,,,22011,0002,2022_Aug_12_1242,localizer,2021.1.3,60.03640613023816,
block,faces,faces059.bmp,,,,,0,119,119,119,,,,,,,,,,,,,,,,,,,,,,,,,,,,,,,,,,,,,,,,,,None,,700.6324804699514,None,700.6324804699514,None,2022-08-12-12:53:35.325268,700.6431907999795,700.9486816998105,700.6431907999795,None,None,700.6431907999795,None,701.4496759699657,None,,,22011,0002,2022_Aug_12_1242,localizer,2021.1.3,60.03640613023816,
block,faces,faces082.bmp,,,,,0,120,120,120,,,,,,,,,,,,,,,,,,,,,,,,,,,,,,,,,,,,,,,,,,None,,701.4496759699657,None,701.4496759699657,None,2022-08-12-12:53:36.143247,701.450000599958,701.7508637998253,701.450000599958,None,None,701.450000599958,None,702.2498615697957,None,,,22011,0002,2022_Aug_12_1242,localizer,2021.1.3,60.03640613023816,
block_end,faces,faces048.bmp,,,,,0,121,121,121,,,,,,,,,,,,,,,,,,,,,,,,,,,,,,,,,,,,,,,,,,None,,702.2498615697957,None,702.2498615697957,None,2022-08-12-12:53:36.945211,702.2527121999301,702.5663301998284,702.2527121999301,702.2527121999301,None,702.2527121999301,702.2527121999301,703.0665069699287,None,,,22011,0002,2022_Aug_12_1242,localizer,2021.1.3,60.03640613023816,
block_start,objects,objects032.bmp,,,,,0,122,122,122,,,,,,,,,,,,,,,,,,,,,,,,,,,,,,,,,,,,,,,,,,t,1.791017800103873,703.0662178997882,None,703.0662178997882,None,2022-08-12-12:53:39.581730,704.9008470999543,705.1997490997892,704.9008470999543,None,None,704.9008470999543,None,705.6997533698566,None,,,22011,0002,2022_Aug_12_1242,localizer,2021.1.3,60.03640613023816,
block,objects,objects043.bmp,,,,,0,123,123,123,,,,,,,,,,,,,,,,,,,,,,,,,,,,,,,,,,,,,,,,,,None,,705.6997533698566,None,705.6997533698566,None,2022-08-12-12:53:40.393108,705.7111502999905,706.0161662998144,705.7111502999905,None,None,705.7111502999905,None,706.5158648699987,None,,,22011,0002,2022_Aug_12_1242,localizer,2021.1.3,60.03640613023816,
block,objects,objects088.bmp,,,,,0,124,124,124,,,,,,,,,,,,,,,,,,,,,,,,,,,,,,,,,,,,,,,,,,None,,706.5158648699987,None,706.5158648699987,None,2022-08-12-12:53:41.208233,706.5165012998041,706.815652199788,706.5165012998041,None,None,706.5165012998041,None,707.3160100699868,None,,,22011,0002,2022_Aug_12_1242,localizer,2021.1.3,60.03640613023816,
block,objects,objects014.bmp,,,,,0,125,125,125,,,,,,,,,,,,,,,,,,,,,,,,,,,,,,,,,,,,,,,,,,None,,707.3160100699868,None,707.3160100699868,None,2022-08-12-12:53:42.010556,707.3186172998976,707.6334743998013,707.3186172998976,707.3186172998976,None,707.3186172998976,707.3186172998976,708.1327172698918,None,,,22011,0002,2022_Aug_12_1242,localizer,2021.1.3,60.03640613023816,
block,objects,objects066.bmp,,,,,0,126,126,126,,,,,,,,,,,,,,,,,,,,,,,,,,,,,,,,,,,,,,,,,,None,,708.1327172698918,None,708.1327172698918,None,2022-08-12-12:53:42.825083,708.1430414998904,708.4489311999641,708.1430414998904,None,None,708.1430414998904,None,708.9492533700075,None,,,22011,0002,2022_Aug_12_1242,localizer,2021.1.3,60.03640613023816,
block,objects,objects078.bmp,,,,,0,127,127,127,,,,,,,,,,,,,,,,,,,,,,,,,,,,,,,,,,,,,,,,,,None,,708.9492533700075,None,708.9492533700075,None,2022-08-12-12:53:43.641164,708.9497799999081,709.2645780998282,708.9497799999081,None,None,708.9497799999081,None,709.7494750699959,None,,,22011,0002,2022_Aug_12_1242,localizer,2021.1.3,60.03640613023816,
block,objects,objects048.bmp,,,,,0,128,128,128,,,,,,,,,,,,,,,,,,,,,,,,,,,,,,,,,,,,,,,,,,None,,709.7494750699959,None,709.7494750699959,None,2022-08-12-12:53:44.443836,709.7519189999439,710.0667600999586,709.7519189999439,709.7519189999439,None,709.7519189999439,709.7519189999439,710.5663424699567,None,,,22011,0002,2022_Aug_12_1242,localizer,2021.1.3,60.03640613023816,
block,objects,objects079.bmp,,,,,0,129,129,129,,,,,,,,,,,,,,,,,,,,,,,,,,,,,,,,,,,,,,,,,,None,,710.5663424699567,None,710.5663424699567,None,2022-08-12-12:53:45.259820,710.5777900000103,710.8822482000105,710.5777900000103,None,None,710.5777900000103,None,711.3814555699471,None,,,22011,0002,2022_Aug_12_1242,localizer,2021.1.3,60.03640613023816,
block,objects,objects017.bmp,,,,,0,130,130,130,,,,,,,,,,,,,,,,,,,,,,,,,,,,,,,,,,,,,,,,,,None,,711.3814555699471,None,711.3814555699471,None,2022-08-12-12:53:46.072499,711.3836544000078,711.6989842997864,711.3836544000078,None,None,711.3836544000078,None,712.1832870698533,None,,,22011,0002,2022_Aug_12_1242,localizer,2021.1.3,60.03640613023816,
block,objects,objects031.bmp,,,,,0,131,131,131,,,,,,,,,,,,,,,,,,,,,,,,,,,,,,,,,,,,,,,,,,None,,712.1832870698533,None,712.1832870698533,None,2022-08-12-12:53:46.878631,712.1860499000177,712.4995746999048,712.1860499000177,712.1860499000177,None,712.1860499000177,712.1860499000177,712.9998135698959,None,,,22011,0002,2022_Aug_12_1242,localizer,2021.1.3,60.03640613023816,
block,objects,objects012.bmp,,,,,0,132,132,132,,,,,,,,,,,,,,,,,,,,,,,,,,,,,,,,,,,,,,,,,,None,,712.9998135698959,None,712.9998135698959,None,2022-08-12-12:53:47.693167,713.001326699974,713.3162759998813,713.001326699974,None,None,713.001326699974,None,713.8163564698305,None,,,22011,0002,2022_Aug_12_1242,localizer,2021.1.3,60.03640613023816,
block,objects,objects006.bmp,,,,,0,133,133,133,,,,,,,,,,,,,,,,,,,,,,,,,,,,,,,,,,,,,,,,,,None,,713.8163564698305,None,713.8163564698305,None,2022-08-12-12:53:48.509926,713.8164803998079,714.1161522998009,713.8164803998079,None,None,713.8164803998079,None,714.6162771698553,None,,,22011,0002,2022_Aug_12_1242,localizer,2021.1.3,60.03640613023816,
block,objects,objects068.bmp,,,,,0,134,134,134,,,,,,,,,,,,,,,,,,,,,,,,,,,,,,,,,,,,,,,,,,None,,714.6162771698553,None,714.6162771698553,None,2022-08-12-12:53:49.310634,714.6185605998617,714.9321621998679,714.6185605998617,714.6185605998617,None,714.6185605998617,714.6185605998617,715.4388777699321,None,,,22011,0002,2022_Aug_12_1242,localizer,2021.1.3,60.03640613023816,
block,objects,objects008.bmp,,,,,0,135,135,135,,,,,,,,,,,,,,,,,,,,,,,,,,,,,,,,,,,,,,,,,,None,,715.4388777699321,None,715.4388777699321,None,2022-08-12-12:53:50.139217,715.4544941999484,715.7656482998282,715.4544941999484,None,None,715.4544941999484,None,716.2488481699954,None,,,22011,0002,2022_Aug_12_1242,localizer,2021.1.3,60.03640613023816,
block_end,objects,objects037.bmp,,,,,0,136,136,136,,,,,,,,,,,,,,,,,,,,,,,,,,,,,,,,,,,,,,,,,,None,,716.2488481699954,None,716.2488481699954,None,2022-08-12-12:53:50.941486,716.2570757998619,716.5657944998238,716.2570757998619,None,None,716.2570757998619,None,717.0722766699735,None,,,22011,0002,2022_Aug_12_1242,localizer,2021.1.3,60.03640613023816,
null_block,null_block,null_block.bmp,,,,,0,137,137,137,,,,,,,,,,,,,,,,,,,,,,,,,,,,,,,,,,,,,,,,,,t,1.7850577000062913,717.0718317998108,None,717.0718317998108,None,2022-08-12-12:53:53.573261,718.8825757698621,None,718.8825757698621,None,None,718.8825757698621,None,718.8841849998571,None,,,22011,0002,2022_Aug_12_1242,localizer,2021.1.3,60.03640613023816,
block_start,faces,faces086.bmp,,,,,0,138,138,138,,,,,,,,,,,,,,,,,,,,,,,,,,,,,,,,,,,,,,,,,,t,1.9700674000196159,730.8856522999704,None,730.8856522999704,None,2022-08-12-12:54:07.578939,732.8963395999745,733.1990960999392,732.8963395999745,None,None,732.8963395999745,None,733.6994805698748,None,,,22011,0002,2022_Aug_12_1242,localizer,2021.1.3,60.03640613023816,
block,faces,faces057.bmp,,,,,0,139,139,139,,,,,,,,,,,,,,,,,,,,,,,,,,,,,,,,,,,,,,,,,,None,,733.6994805698748,None,733.6994805698748,None,2022-08-12-12:54:08.392093,733.7000321999658,733.9989447998814,733.7000321999658,None,None,733.7000321999658,None,734.499814369902,None,,,22011,0002,2022_Aug_12_1242,localizer,2021.1.3,60.03640613023816,
block,faces,faces063.bmp,,,,,0,140,140,140,,,,,,,,,,,,,,,,,,,,,,,,,,,,,,,,,,,,,,,,,,None,,734.499814369902,None,734.499814369902,None,2022-08-12-12:54:09.195220,734.5023824998643,734.8223432998639,734.5023824998643,734.5023824998643,None,734.5023824998643,734.5023824998643,735.3163004698697,None,,,22011,0002,2022_Aug_12_1242,localizer,2021.1.3,60.03640613023816,
block,faces,faces002.bmp,,,,,0,141,141,141,,,,,,,,,,,,,,,,,,,,,,,,,,,,,,,,,,,,,,,,,,None,,735.3163004698697,None,735.3163004698697,None,2022-08-12-12:54:10.008842,735.3167564999312,735.6159056997858,735.3167564999312,None,None,735.3167564999312,None,736.1160753699485,None,,,22011,0002,2022_Aug_12_1242,localizer,2021.1.3,60.03640613023816,
block,faces,faces013.bmp,,,,,0,142,142,142,,,,,,,,,,,,,,,,,,,,,,,,,,,,,,,,,,,,,,,,,,None,,736.1160753699485,None,736.1160753699485,None,2022-08-12-12:54:10.810436,736.1278760000132,736.4323819999117,736.1278760000132,736.1278760000132,None,736.1278760000132,736.1278760000132,736.9347517699468,None,,,22011,0002,2022_Aug_12_1242,localizer,2021.1.3,60.03640613023816,
block,faces,faces047.bmp,,,,,0,143,143,143,,,,,,,,,,,,,,,,,,,,,,,,,,,,,,,,,,,,,,,,,,None,,736.9347517699468,None,736.9347517699468,None,2022-08-12-12:54:11.631065,736.9386020000093,737.2493026999291,736.9386020000093,None,None,736.9386020000093,None,737.7495280699338,None,,,22011,0002,2022_Aug_12_1242,localizer,2021.1.3,60.03640613023816,
block,faces,faces035.bmp,,,,,0,144,144,144,,,,,,,,,,,,,,,,,,,,,,,,,,,,,,,,,,,,,,,,,,None,,737.7495280699338,None,737.7495280699338,None,2022-08-12-12:54:12.441895,737.7572445999831,738.0659060999751,737.7572445999831,None,None,737.7572445999831,None,738.5660683698486,None,,,22011,0002,2022_Aug_12_1242,localizer,2021.1.3,60.03640613023816,
block,faces,faces065.bmp,,,,,0,145,145,145,,,,,,,,,,,,,,,,,,,,,,,,,,,,,,,,,,,,,,,,,,None,,738.5660683698486,None,738.5660683698486,None,2022-08-12-12:54:13.258437,738.566557899816,738.8657360998914,738.566557899816,None,None,738.566557899816,None,739.3660231700167,None,,,22011,0002,2022_Aug_12_1242,localizer,2021.1.3,60.03640613023816,
block,faces,faces077.bmp,,,,,0,146,146,146,,,,,,,,,,,,,,,,,,,,,,,,,,,,,,,,,,,,,,,,,,None,,739.3660231700167,None,739.3660231700167,None,2022-08-12-12:54:14.060483,739.3799207999837,739.6819565999322,739.3799207999837,739.3799207999837,None,739.3799207999837,739.3799207999837,740.1830287698656,None,,,22011,0002,2022_Aug_12_1242,localizer,2021.1.3,60.03640613023816,
block,faces,faces018.bmp,,,,,0,147,147,147,,,,,,,,,,,,,,,,,,,,,,,,,,,,,,,,,,,,,,,,,,None,,740.1830287698656,None,740.1830287698656,None,2022-08-12-12:54:14.875611,740.1832651998848,740.4820869998075,740.1832651998848,None,None,740.1832651998848,None,740.9826884699985,None,,,22011,0002,2022_Aug_12_1242,localizer,2021.1.3,60.03640613023816,
block,faces,faces004.bmp,,,,,0,148,148,148,,,,,,,,,,,,,,,,,,,,,,,,,,,,,,,,,,,,,,,,,,None,,740.9826884699985,None,740.9826884699985,None,2022-08-12-12:54:15.677276,740.9840235998854,741.2990402998403,740.9840235998854,740.9840235998854,None,740.9840235998854,740.9840235998854,741.7831338699441,None,,,22011,0002,2022_Aug_12_1242,localizer,2021.1.3,60.03640613023816,
block,faces,faces006.bmp,,,,,0,149,149,149,,,,,,,,,,,,,,,,,,,,,,,,,,,,,,,,,,,,,,,,,,None,,741.7831338699441,None,741.7831338699441,None,2022-08-12-12:54:16.478701,741.78570639994,742.099406399997,741.78570639994,741.78570639994,None,741.78570639994,741.78570639994,742.600770769827,None,,,22011,0002,2022_Aug_12_1242,localizer,2021.1.3,60.03640613023816,
block,faces,faces064.bmp,,,,,0,150,150,150,,,,,,,,,,,,,,,,,,,,,,,,,,,,,,,,,,,,,,,,,,None,,742.600770769827,None,742.600770769827,None,2022-08-12-12:54:17.296492,742.6039585999679,742.9159089999739,742.6039585999679,None,None,742.6039585999679,None,743.4160566699691,None,,,22011,0002,2022_Aug_12_1242,localizer,2021.1.3,60.03640613023816,
block,faces,faces053.bmp,,,,,0,151,151,151,,,,,,,,,,,,,,,,,,,,,,,,,,,,,,,,,,,,,,,,,,None,,743.4160566699691,None,743.4160566699691,None,2022-08-12-12:54:18.108427,743.4167280998081,743.7156286998652,743.4167280998081,None,None,743.4167280998081,None,744.2170666700229,None,,,22011,0002,2022_Aug_12_1242,localizer,2021.1.3,60.03640613023816,
block_end,faces,faces068.bmp,,,,,0,152,152,152,,,,,,,,,,,,,,,,,,,,,,,,,,,,,,,,,,,,,,,,,,None,,744.2170666700229,None,744.2170666700229,None,2022-08-12-12:54:18.911526,744.2175769999158,744.5323459999636,744.2175769999158,744.2175769999158,None,744.2175769999158,744.2175769999158,745.0327908698935,None,,,22011,0002,2022_Aug_12_1242,localizer,2021.1.3,60.03640613023816,
block_start,scenes,scenes070.bmp,,,,,0,153,153,153,,,,,,,,,,,,,,,,,,,,,,,,,,,,,,,,,,,,,,,,,,t,1.8231546999886632,745.0326020999346,None,745.0326020999346,None,2022-08-12-12:54:21.573680,746.8836244998965,747.1843820000067,746.8836244998965,None,None,746.8836244998965,None,747.6830114698503,None,,,22011,0002,2022_Aug_12_1242,localizer,2021.1.3,60.03640613023816,
block,scenes,scenes075.bmp,,,,,0,154,154,154,,,,,,,,,,,,,,,,,,,,,,,,,,,,,,,,,,,,,,,,,,None,,747.6830114698503,None,747.6830114698503,None,2022-08-12-12:54:22.377579,747.6954363998957,747.9994632999878,747.6954363998957,747.6954363998957,None,747.6954363998957,747.6954363998957,748.5001701698172,None,,,22011,0002,2022_Aug_12_1242,localizer,2021.1.3,60.03640613023816,
block,scenes,scenes012.bmp,,,,,0,155,155,155,,,,,,,,,,,,,,,,,,,,,,,,,,,,,,,,,,,,,,,,,,None,,748.5001701698172,None,748.5001701698172,None,2022-08-12-12:54:23.193526,748.5018542998005,748.8164095999673,748.5018542998005,None,None,748.5018542998005,None,749.3166549698915,None,,,22011,0002,2022_Aug_12_1242,localizer,2021.1.3,60.03640613023816,
block,scenes,scenes050.bmp,,,,,0,156,156,156,,,,,,,,,,,,,,,,,,,,,,,,,,,,,,,,,,,,,,,,,,None,,749.3166549698915,None,749.3166549698915,None,2022-08-12-12:54:24.009971,749.3180338998791,749.6332060999703,749.3180338998791,None,None,749.3180338998791,None,750.1330667698755,None,,,22011,0002,2022_Aug_12_1242,localizer,2021.1.3,60.03640613023816,
block,scenes,scenes087.bmp,,,,,0,157,157,157,,,,,,,,,,,,,,,,,,,,,,,,,,,,,,,,,,,,,,,,,,None,,750.1330667698755,None,750.1330667698755,None,2022-08-12-12:54:24.825644,750.1334056998603,750.4324674999807,750.1334056998603,None,None,750.1334056998603,None,750.9328734699636,None,,,22011,0002,2022_Aug_12_1242,localizer,2021.1.3,60.03640613023816,
block,scenes,scenes037.bmp,,,,,0,158,158,158,,,,,,,,,,,,,,,,,,,,,,,,,,,,,,,,,,,,,,,,,,None,,750.9328734699636,None,750.9328734699636,None,2022-08-12-12:54:25.627235,750.9353733998723,751.2395362998359,750.9353733998723,750.9353733998723,None,750.9353733998723,750.9353733998723,751.7365012699272,None,,,22011,0002,2022_Aug_12_1242,localizer,2021.1.3,60.03640613023816,
block,scenes,scenes064.bmp,,,,,0,159,159,159,,,,,,,,,,,,,,,,,,,,,,,,,,,,,,,,,,,,,,,,,,None,,751.7365012699272,None,751.7365012699272,None,2022-08-12-12:54:26.437914,751.7468122998253,752.0487917999271,751.7468122998253,751.7468122998253,None,751.7468122998253,751.7468122998253,752.5514908697921,None,,,22011,0002,2022_Aug_12_1242,localizer,2021.1.3,60.03640613023816,
block,scenes,scenes027.bmp,,,,,0,160,160,160,,,,,,,,,,,,,,,,,,,,,,,,,,,,,,,,,,,,,,,,,,None,,752.5514908697921,None,752.5514908697921,None,2022-08-12-12:54:27.247845,752.5566189999226,752.8657724999357,752.5566189999226,None,None,752.5566189999226,None,753.3662759698461,None,,,22011,0002,2022_Aug_12_1242,localizer,2021.1.3,60.03640613023816,
block,scenes,scenes080.bmp,,,,,0,161,161,161,,,,,,,,,,,,,,,,,,,,,,,,,,,,,,,,,,,,,,,,,,None,,753.3662759698461,None,753.3662759698461,None,2022-08-12-12:54:28.058643,753.3667212999426,753.6659295998979,753.3667212999426,None,None,753.3667212999426,None,754.1723045699298,None,,,22011,0002,2022_Aug_12_1242,localizer,2021.1.3,60.03640613023816,
block,scenes,scenes090.bmp,,,,,0,162,162,162,,,,,,,,,,,,,,,,,,,,,,,,,,,,,,,,,,,,,,,,,,None,,754.1723045699298,None,754.1723045699298,None,2022-08-12-12:54:28.870559,754.1796083999798,754.4827916999348,754.1796083999798,None,None,754.1796083999798,None,754.9848796699196,None,,,22011,0002,2022_Aug_12_1242,localizer,2021.1.3,60.03640613023816,
block,scenes,scenes004.bmp,,,,,0,163,163,163,,,,,,,,,,,,,,,,,,,,,,,,,,,,,,,,,,,,,,,,,,None,,754.9848796699196,None,754.9848796699196,None,2022-08-12-12:54:29.681241,754.9900310998783,755.2989333998412,754.9900310998783,None,None,754.9900310998783,None,755.7996669699903,None,,,22011,0002,2022_Aug_12_1242,localizer,2021.1.3,60.03640613023816,
block,scenes,scenes082.bmp,,,,,0,164,164,164,,,,,,,,,,,,,,,,,,,,,,,,,,,,,,,,,,,,,,,,,,None,,755.7996669699903,None,755.7996669699903,None,2022-08-12-12:54:30.492011,755.8103962999303,756.115731399972,755.8103962999303,None,None,755.8103962999303,None,756.6167086699977,None,,,22011,0002,2022_Aug_12_1242,localizer,2021.1.3,60.03640613023816,
block,scenes,scenes036.bmp,,,,,0,165,165,165,,,,,,,,,,,,,,,,,,,,,,,,,,,,,,,,,,,,,,,,,,None,,756.6167086699977,None,756.6167086699977,None,2022-08-12-12:54:31.310249,756.6172646998893,756.9165186998434,756.6172646998893,None,None,756.6172646998893,None,757.4166869699955,None,,,22011,0002,2022_Aug_12_1242,localizer,2021.1.3,60.03640613023816,
block,scenes,scenes014.bmp,,,,,0,166,166,166,,,,,,,,,,,,,,,,,,,,,,,,,,,,,,,,,,,,,,,,,,None,,757.4166869699955,None,757.4166869699955,None,2022-08-12-12:54:32.113035,757.4204434999265,757.732803599909,757.4204434999265,757.4204434999265,None,757.4204434999265,757.4204434999265,758.2324012699071,None,,,22011,0002,2022_Aug_12_1242,localizer,2021.1.3,60.03640613023816,
block_end,scenes,scenes055.bmp,,,,,0,167,167,167,,,,,,,,,,,,,,,,,,,,,,,,,,,,,,,,,,,,,,,,,,None,,758.2324012699071,None,758.2324012699071,None,2022-08-12-12:54:32.924775,758.2338107000105,758.5331784000155,758.2338107000105,None,None,758.2338107000105,None,759.0334001699928,None,,,22011,0002,2022_Aug_12_1242,localizer,2021.1.3,60.03640613023816,
block_start,scrambled,scrambled043.bmp,,,,,0,168,168,168,,,,,,,,,,,,,,,,,,,,,,,,,,,,,,,,,,,,,,,,,,t,1.8225181000307202,759.0332506999839,None,759.0332506999839,None,2022-08-12-12:54:35.574098,760.8836123999208,761.1824993998744,760.8836123999208,None,None,760.8836123999208,None,761.6841505697928,None,,,22011,0002,2022_Aug_12_1242,localizer,2021.1.3,60.03640613023816,
block,scrambled,scrambled061.bmp,,,,,0,169,169,169,,,,,,,,,,,,,,,,,,,,,,,,,,,,,,,,,,,,,,,,,,None,,761.6841505697928,None,761.6841505697928,None,2022-08-12-12:54:36.380556,761.6988332998008,761.9999479998369,761.6988332998008,761.6988332998008,None,761.6988332998008,761.6988332998008,762.4996846699621,None,,,22011,0002,2022_Aug_12_1242,localizer,2021.1.3,60.03640613023816,
block,scrambled,scrambled069.bmp,,,,,0,170,170,170,,,,,,,,,,,,,,,,,,,,,,,,,,,,,,,,,,,,,,,,,,None,,762.4996846699621,None,762.4996846699621,None,2022-08-12-12:54:37.193264,762.5103249999229,762.8222377998754,762.5103249999229,None,None,762.5103249999229,None,763.3183458698447,None,,,22011,0002,2022_Aug_12_1242,localizer,2021.1.3,60.03640613023816,
block,scrambled,scrambled060.bmp,,,,,0,171,171,171,,,,,,,,,,,,,,,,,,,,,,,,,,,,,,,,,,,,,,,,,,None,,763.3183458698447,None,763.3183458698447,None,2022-08-12-12:54:38.014659,763.3228717998136,763.6324902998749,763.3228717998136,None,None,763.3228717998136,None,764.1328395700082,None,,,22011,0002,2022_Aug_12_1242,localizer,2021.1.3,60.03640613023816,
block,scrambled,scrambled046.bmp,,,,,0,172,172,172,,,,,,,,,,,,,,,,,,,,,,,,,,,,,,,,,,,,,,,,,,None,,764.1328395700082,None,764.1328395700082,None,2022-08-12-12:54:38.825208,764.1332978999708,764.4327747998759,764.1332978999708,None,None,764.1332978999708,None,764.9330784698948,None,,,22011,0002,2022_Aug_12_1242,localizer,2021.1.3,60.03640613023816,
block,scrambled,scrambled068.bmp,,,,,0,173,173,173,,,,,,,,,,,,,,,,,,,,,,,,,,,,,,,,,,,,,,,,,,None,,764.9330784698948,None,764.9330784698948,None,2022-08-12-12:54:39.627439,764.9353788997978,765.2391994998325,764.9353788997978,764.9353788997978,None,764.9353788997978,764.9353788997978,765.7497747698333,None,,,22011,0002,2022_Aug_12_1242,localizer,2021.1.3,60.03640613023816,
block,scrambled,scrambled068.bmp,,,,,0,174,174,174,,,,,,,,,,,,,,,,,,,,,,,,,,,,,,,,,,,,,,,,,,None,,765.7497747698333,None,765.7497747698333,None,2022-08-12-12:54:40.443134,765.7501967998687,766.0492965998128,765.7501967998687,None,None,765.7501967998687,None,766.550023669796,None,,,22011,0002,2022_Aug_12_1242,localizer,2021.1.3,60.03640613023816,
block,scrambled,scrambled005.bmp,,,,,0,175,175,175,,,,,,,,,,,,,,,,,,,,,,,,,,,,,,,,,,,,,,,,,,None,,766.550023669796,None,766.550023669796,None,2022-08-12-12:54:41.245416,766.5524930998217,766.8663749999832,766.5524930998217,766.5524930998217,None,766.5524930998217,766.5524930998217,767.3668618700001,None,,,22011,0002,2022_Aug_12_1242,localizer,2021.1.3,60.03640613023816,
block,scrambled,scrambled006.bmp,,,,,0,176,176,176,,,,,,,,,,,,,,,,,,,,,,,,,,,,,,,,,,,,,,,,,,None,,767.3668618700001,None,767.3668618700001,None,2022-08-12-12:54:42.060279,767.378430099925,767.6826046998613,767.378430099925,None,None,767.378430099925,None,768.1830374698154,None,,,22011,0002,2022_Aug_12_1242,localizer,2021.1.3,60.03640613023816,
block,scrambled,scrambled048.bmp,,,,,0,177,177,177,,,,,,,,,,,,,,,,,,,,,,,,,,,,,,,,,,,,,,,,,,None,,768.1830374698154,None,768.1830374698154,None,2022-08-12-12:54:42.875823,768.1836257998366,768.4826238998212,768.1836257998366,None,None,768.1836257998366,None,768.9991772698238,None,,,22011,0002,2022_Aug_12_1242,localizer,2021.1.3,60.03640613023816,
block,scrambled,scrambled023.bmp,,,,,0,178,178,178,,,,,,,,,,,,,,,,,,,,,,,,,,,,,,,,,,,,,,,,,,None,,768.9991772698238,None,768.9991772698238,None,2022-08-12-12:54:43.690777,769.008382699918,769.314932399895,769.008382699918,None,None,769.008382699918,None,769.8166156699415,None,,,22011,0002,2022_Aug_12_1242,localizer,2021.1.3,60.03640613023816,
block,scrambled,scrambled035.bmp,,,,,0,179,179,179,,,,,,,,,,,,,,,,,,,,,,,,,,,,,,,,,,,,,,,,,,None,,769.8166156699415,None,769.8166156699415,None,2022-08-12-12:54:44.509154,769.8169799000025,770.1162010999396,769.8169799000025,None,None,769.8169799000025,None,770.6169970698654,None,,,22011,0002,2022_Aug_12_1242,localizer,2021.1.3,60.03640613023816,
block,scrambled,scrambled084.bmp,,,,,0,180,180,180,,,,,,,,,,,,,,,,,,,,,,,,,,,,,,,,,,,,,,,,,,None,,770.6169970698654,None,770.6169970698654,None,2022-08-12-12:54:45.312372,770.619815699989,770.9326475998387,770.619815699989,770.619815699989,None,770.619815699989,770.619815699989,771.432868269924,None,,,22011,0002,2022_Aug_12_1242,localizer,2021.1.3,60.03640613023816,
block,scrambled,scrambled017.bmp,,,,,0,181,181,181,,,,,,,,,,,,,,,,,,,,,,,,,,,,,,,,,,,,,,,,,,None,,771.432868269924,None,771.432868269924,None,2022-08-12-12:54:46.125237,771.4332187999971,771.7323683998547,771.4332187999971,None,None,771.4332187999971,None,772.2325288699474,None,,,22011,0002,2022_Aug_12_1242,localizer,2021.1.3,60.03640613023816,
block_end,scrambled,scrambled051.bmp,,,,,0,182,182,182,,,,,,,,,,,,,,,,,,,,,,,,,,,,,,,,,,,,,,,,,,None,,772.2325288699474,None,772.2325288699474,None,2022-08-12-12:54:46.926336,772.2334471999202,772.5327072998043,772.2334471999202,772.2334471999202,None,772.2334471999202,772.2334471999202,773.0328823700081,None,,,22011,0002,2022_Aug_12_1242,localizer,2021.1.3,60.03640613023816,
block_start,faces,faces079.bmp,,,,,0,183,183,183,,,,,,,,,,,,,,,,,,,,,,,,,,,,,,,,,,,,,,,,,,t,1.8234249001834542,773.0324471998028,None,773.0324471998028,None,2022-08-12-12:54:49.578691,774.8986187998671,775.199277699925,774.8986187998671,None,None,774.8986187998671,None,775.69981807,None,,,22011,0002,2022_Aug_12_1242,localizer,2021.1.3,60.03640613023816,
block,faces,faces075.bmp,,,,,0,184,184,184,,,,,,,,,,,,,,,,,,,,,,,,,,,,,,,,,,,,,,,,,,None,,775.69981807,None,775.69981807,None,2022-08-12-12:54:50.392363,775.7003599999007,775.9996935999952,775.7003599999007,None,None,775.7003599999007,None,776.4995974699966,None,,,22011,0002,2022_Aug_12_1242,localizer,2021.1.3,60.03640613023816,
block,faces,faces081.bmp,,,,,0,185,185,185,,,,,,,,,,,,,,,,,,,,,,,,,,,,,,,,,,,,,,,,,,None,,776.4995974699966,None,776.4995974699966,None,2022-08-12-12:54:51.193961,776.5132924998179,776.8169688999187,776.5132924998179,776.5132924998179,None,776.5132924998179,776.5132924998179,777.3175387698691,None,,,22011,0002,2022_Aug_12_1242,localizer,2021.1.3,60.03640613023816,
block,faces,faces085.bmp,,,,,0,186,186,186,,,,,,,,,,,,,,,,,,,,,,,,,,,,,,,,,,,,,,,,,,None,,777.3175387698691,None,777.3175387698691,None,2022-08-12-12:54:52.011883,777.3261101997923,777.632634599926,777.3261101997923,None,None,777.3261101997923,None,778.1341136698145,None,,,22011,0002,2022_Aug_12_1242,localizer,2021.1.3,60.03640613023816,
block,faces,faces060.bmp,,,,,0,187,187,187,,,,,,,,,,,,,,,,,,,,,,,,,,,,,,,,,,,,,,,,,,None,,778.1341136698145,None,778.1341136698145,None,2022-08-12-12:54:52.827647,778.146451999899,778.4492048998363,778.146451999899,None,None,778.146451999899,None,778.9497472699265,None,,,22011,0002,2022_Aug_12_1242,localizer,2021.1.3,60.03640613023816,
block,faces,faces042.bmp,,,,,0,188,188,188,,,,,,,,,,,,,,,,,,,,,,,,,,,,,,,,,,,,,,,,,,None,,778.9497472699265,None,778.9497472699265,None,2022-08-12-12:54:53.642116,778.9502743999474,779.2516317998525,778.9502743999474,None,None,778.9502743999474,None,779.7501291699707,None,,,22011,0002,2022_Aug_12_1242,localizer,2021.1.3,60.03640613023816,
block,faces,faces034.bmp,,,,,0,189,189,189,,,,,,,,,,,,,,,,,,,,,,,,,,,,,,,,,,,,,,,,,,None,,779.7501291699707,None,779.7501291699707,None,2022-08-12-12:54:54.445529,779.7635084998328,780.0661702998914,779.7635084998328,779.7635084998328,None,779.7635084998328,779.7635084998328,780.5669363699387,None,,,22011,0002,2022_Aug_12_1242,localizer,2021.1.3,60.03640613023816,
block,faces,faces051.bmp,,,,,0,190,190,190,,,,,,,,,,,,,,,,,,,,,,,,,,,,,,,,,,,,,,,,,,None,,780.5669363699387,None,780.5669363699387,None,2022-08-12-12:54:55.260462,780.5799519999418,780.8825768998358,780.5799519999418,None,None,780.5799519999418,None,781.3830233700107,None,,,22011,0002,2022_Aug_12_1242,localizer,2021.1.3,60.03640613023816,
block,faces,faces021.bmp,,,,,0,191,191,191,,,,,,,,,,,,,,,,,,,,,,,,,,,,,,,,,,,,,,,,,,None,,781.3830233700107,None,781.3830233700107,None,2022-08-12-12:54:56.075375,781.3835561999585,781.6827290998772,781.3835561999585,None,None,781.3835561999585,None,782.1829983698669,None,,,22011,0002,2022_Aug_12_1242,localizer,2021.1.3,60.03640613023816,
block,faces,faces010.bmp,,,,,0,192,192,192,,,,,,,,,,,,,,,,,,,,,,,,,,,,,,,,,,,,,,,,,,None,,782.1829983698669,None,782.1829983698669,None,2022-08-12-12:54:56.877376,782.1840560999699,782.4997619998176,782.1840560999699,782.1840560999699,None,782.1840560999699,782.1840560999699,782.9997771698515,None,,,22011,0002,2022_Aug_12_1242,localizer,2021.1.3,60.03640613023816,
block,faces,faces017.bmp,,,,,0,193,193,193,,,,,,,,,,,,,,,,,,,,,,,,,,,,,,,,,,,,,,,,,,None,,782.9997771698515,None,782.9997771698515,None,2022-08-12-12:54:57.692141,783.0104002999142,783.3162359998096,783.0104002999142,None,None,783.0104002999142,None,783.8166962698567,None,,,22011,0002,2022_Aug_12_1242,localizer,2021.1.3,60.03640613023816,
block,faces,faces007.bmp,,,,,0,194,194,194,,,,,,,,,,,,,,,,,,,,,,,,,,,,,,,,,,,,,,,,,,None,,783.8166962698567,None,783.8166962698567,None,2022-08-12-12:54:58.510079,783.8170125999022,784.1159163999837,783.8170125999022,None,None,783.8170125999022,None,784.6170467698946,None,,,22011,0002,2022_Aug_12_1242,localizer,2021.1.3,60.03640613023816,
block,faces,faces056.bmp,,,,,0,195,195,195,,,,,,,,,,,,,,,,,,,,,,,,,,,,,,,,,,,,,,,,,,None,,784.6170467698946,None,784.6170467698946,None,2022-08-12-12:54:59.312577,784.6312197998632,784.9325780000072,784.6312197998632,784.6312197998632,None,784.6312197998632,784.6312197998632,785.4328685698099,None,,,22011,0002,2022_Aug_12_1242,localizer,2021.1.3,60.03640613023816,
block,faces,faces057.bmp,,,,,0,196,196,196,,,,,,,,,,,,,,,,,,,,,,,,,,,,,,,,,,,,,,,,,,None,,785.4328685698099,None,785.4328685698099,None,2022-08-12-12:55:00.125735,785.4336240999401,785.7329171998426,785.4336240999401,None,None,785.4336240999401,None,786.233211869793,None,,,22011,0002,2022_Aug_12_1242,localizer,2021.1.3,60.03640613023816,
block_end,faces,faces045.bmp,,,,,0,197,197,197,,,,,,,,,,,,,,,,,,,,,,,,,,,,,,,,,,,,,,,,,,None,,786.233211869793,None,786.233211869793,None,2022-08-12-12:55:00.927731,786.2422882998362,786.5492486997973,786.2422882998362,786.2422882998362,None,786.2422882998362,786.2422882998362,787.0498070700094,None,,,22011,0002,2022_Aug_12_1242,localizer,2021.1.3,60.03640613023816,
block_start,scenes,scenes024.bmp,,,,,0,198,198,198,,,,,,,,,,,,,,,,,,,,,,,,,,,,,,,,,,,,,,,,,,t,1.8063428001478314,787.049433699809,None,787.049433699809,None,2022-08-12-12:55:03.574506,788.8846113998443,789.1993573999498,788.8846113998443,None,None,788.8846113998443,None,789.6998274698387,None,,,22011,0002,2022_Aug_12_1242,localizer,2021.1.3,60.03640613023816,
block,scenes,scenes057.bmp,,,,,0,199,199,199,,,,,,,,,,,,,,,,,,,,,,,,,,,,,,,,,,,,,,,,,,None,,789.6998274698387,None,789.6998274698387,None,2022-08-12-12:55:04.392391,789.7002692997921,789.9995200999547,789.7002692997921,None,None,789.7002692997921,None,790.5003390698228,None,,,22011,0002,2022_Aug_12_1242,localizer,2021.1.3,60.03640613023816,
block,scenes,scenes087.bmp,,,,,0,200,200,200,,,,,,,,,,,,,,,,,,,,,,,,,,,,,,,,,,,,,,,,,,None,,790.5003390698228,None,790.5003390698228,None,2022-08-12-12:55:05.195876,790.503323999932,790.816084299935,790.503323999932,790.503323999932,None,790.503323999932,790.503323999932,791.3166684698779,None,,,22011,0002,2022_Aug_12_1242,localizer,2021.1.3,60.03640613023816,
block,scenes,scenes074.bmp,,,,,0,201,201,201,,,,,,,,,,,,,,,,,,,,,,,,,,,,,,,,,,,,,,,,,,None,,791.3166684698779,None,791.3166684698779,None,2022-08-12-12:55:06.009033,791.3271974998061,791.6324603999965,791.3271974998061,None,None,791.3271974998061,None,792.1334195700008,None,,,22011,0002,2022_Aug_12_1242,localizer,2021.1.3,60.03640613023816,
block,scenes,scenes006.bmp,,,,,0,202,202,202,,,,,,,,,,,,,,,,,,,,,,,,,,,,,,,,,,,,,,,,,,None,,792.1334195700008,None,792.1334195700008,None,2022-08-12-12:55:06.825995,792.1440409999341,792.4495951998979,792.1440409999341,None,None,792.1440409999341,None,792.9493486699182,None,,,22011,0002,2022_Aug_12_1242,localizer,2021.1.3,60.03640613023816,
block,scenes,scenes034.bmp,,,,,0,203,203,203,,,,,,,,,,,,,,,,,,,,,,,,,,,,,,,,,,,,,,,,,,None,,792.9493486699182,None,792.9493486699182,None,2022-08-12-12:55:07.641723,792.9581881999038,793.2658744999208,792.9581881999038,None,None,792.9581881999038,None,793.7665227700024,None,,,22011,0002,2022_Aug_12_1242,localizer,2021.1.3,60.03640613023816,
block,scenes,scenes051.bmp,,,,,0,204,204,204,,,,,,,,,,,,,,,,,,,,,,,,,,,,,,,,,,,,,,,,,,None,,793.7665227700024,None,793.7665227700024,None,2022-08-12-12:55:08.458888,793.7784040998667,794.0891449998599,793.7784040998667,None,None,793.7784040998667,None,794.5837383698206,None,,,22011,0002,2022_Aug_12_1242,localizer,2021.1.3,60.03640613023816,
block,scenes,scenes015.bmp,,,,,0,205,205,205,,,,,,,,,,,,,,,,,,,,,,,,,,,,,,,,,,,,,,,,,,None,,794.5837383698206,None,794.5837383698206,None,2022-08-12-12:55:09.277286,794.5857505998574,794.8992452998646,794.5857505998574,None,None,794.5857505998574,None,795.3999599699862,None,,,22011,0002,2022_Aug_12_1242,localizer,2021.1.3,60.03640613023816,
block,scenes,scenes035.bmp,,,,,0,206,206,206,,,,,,,,,,,,,,,,,,,,,,,,,,,,,,,,,,,,,,,,,,None,,795.3999599699862,None,795.3999599699862,None,2022-08-12-12:55:10.092324,795.4105389998294,795.7158036998007,795.4105389998294,None,None,795.4105389998294,None,796.215892269928,None,,,22011,0002,2022_Aug_12_1242,localizer,2021.1.3,60.03640613023816,
block,scenes,scenes002.bmp,,,,,0,207,207,207,,,,,,,,,,,,,,,,,,,,,,,,,,,,,,,,,,,,,,,,,,None,,796.215892269928,None,796.215892269928,None,2022-08-12-12:55:10.907272,796.2243670998141,796.5331298999954,796.2243670998141,None,None,796.2243670998141,None,797.0334687698166,None,,,22011,0002,2022_Aug_12_1242,localizer,2021.1.3,60.03640613023816,
block,scenes,scenes091.bmp,,,,,0,208,208,208,,,,,,,,,,,,,,,,,,,,,,,,,,,,,,,,,,,,,,,,,,None,,797.0334687698166,None,797.0334687698166,None,2022-08-12-12:55:11.726929,797.0450190999545,797.3494260997977,797.0450190999545,None,None,797.0450190999545,None,797.8499400699045,None,,,22011,0002,2022_Aug_12_1242,localizer,2021.1.3,60.03640613023816,
block,scenes,scenes014.bmp,,,,,0,209,209,209,,,,,,,,,,,,,,,,,,,,,,,,,,,,,,,,,,,,,,,,,,None,,797.8499400699045,None,797.8499400699045,None,2022-08-12-12:55:12.542308,797.8502504997887,798.149551599985,797.8502504997887,None,None,797.8502504997887,None,798.6499624698888,None,,,22011,0002,2022_Aug_12_1242,localizer,2021.1.3,60.03640613023816,
block,scenes,scenes004.bmp,,,,,0,210,210,210,,,,,,,,,,,,,,,,,,,,,,,,,,,,,,,,,,,,,,,,,,None,,798.6499624698888,None,798.6499624698888,None,2022-08-12-12:55:13.345517,798.6525837997906,798.9662652998231,798.6525837997906,798.6525837997906,None,798.6525837997906,798.6525837997906,799.4665744700003,None,,,22011,0002,2022_Aug_12_1242,localizer,2021.1.3,60.03640613023816,
block,scenes,scenes013.bmp,,,,,0,211,211,211,,,,,,,,,,,,,,,,,,,,,,,,,,,,,,,,,,,,,,,,,,None,,799.4665744700003,None,799.4665744700003,None,2022-08-12-12:55:14.158909,799.4772069000173,799.7827895998489,799.4772069000173,None,None,799.4772069000173,None,800.2858919698745,None,,,22011,0002,2022_Aug_12_1242,localizer,2021.1.3,60.03640613023816,
block_end,scenes,scenes059.bmp,,,,,0,212,212,212,,,,,,,,,,,,,,,,,,,,,,,,,,,,,,,,,,,,,,,,,,None,,800.2858919698745,None,800.2858919698745,None,2022-08-12-12:55:14.982388,800.2900564998854,800.6001041999552,800.2900564998854,None,None,800.2900564998854,None,801.1003908698447,None,,,22011,0002,2022_Aug_12_1242,localizer,2021.1.3,60.03640613023816,
block_start,objects,objects029.bmp,,,,,0,213,213,213,,,,,,,,,,,,,,,,,,,,,,,,,,,,,,,,,,,,,,,,,,t,1.7557682001497597,801.1000236999243,None,801.1000236999243,None,2022-08-12-12:55:17.574601,802.8837208999321,803.183103099931,802.8837208999321,None,None,802.8837208999321,None,803.6838592700194,None,,,22011,0002,2022_Aug_12_1242,localizer,2021.1.3,60.03640613023816,
block,objects,objects053.bmp,,,,,0,214,214,214,,,,,,,,,,,,,,,,,,,,,,,,,,,,,,,,,,,,,,,,,,None,,803.6838592700194,None,803.6838592700194,None,2022-08-12-12:55:18.379401,803.686821699841,804.0002316997852,803.686821699841,803.686821699841,None,803.686821699841,803.686821699841,804.4998493699356,None,,,22011,0002,2022_Aug_12_1242,localizer,2021.1.3,60.03640613023816,
block,objects,objects043.bmp,,,,,0,215,215,215,,,,,,,,,,,,,,,,,,,,,,,,,,,,,,,,,,,,,,,,,,None,,804.4998493699356,None,804.4998493699356,None,2022-08-12-12:55:19.192839,804.5004615997896,804.799331399845,804.5004615997896,None,None,804.5004615997896,None,805.2995535698253,None,,,22011,0002,2022_Aug_12_1242,localizer,2021.1.3,60.03640613023816,
block,objects,objects083.bmp,,,,,0,216,216,216,,,,,,,,,,,,,,,,,,,,,,,,,,,,,,,,,,,,,,,,,,None,,805.2995535698253,None,805.2995535698253,None,2022-08-12-12:55:19.993919,805.3004491999745,805.599391900003,805.3004491999745,805.3004491999745,None,805.3004491999745,805.3004491999745,806.1004776698071,None,,,22011,0002,2022_Aug_12_1242,localizer,2021.1.3,60.03640613023816,
block,objects,objects007.bmp,,,,,0,217,217,217,,,,,,,,,,,,,,,,,,,,,,,,,,,,,,,,,,,,,,,,,,None,,806.1004776698071,None,806.1004776698071,None,2022-08-12-12:55:20.795818,806.1031762999482,806.4162382998038,806.1031762999482,806.1031762999482,None,806.1031762999482,806.1031762999482,806.9175686698406,None,,,22011,0002,2022_Aug_12_1242,localizer,2021.1.3,60.03640613023816,
block,objects,objects067.bmp,,,,,0,218,218,218,,,,,,,,,,,,,,,,,,,,,,,,,,,,,,,,,,,,,,,,,,None,,806.9175686698406,None,806.9175686698406,None,2022-08-12-12:55:21.612097,806.9297622998711,807.232707099989,806.9297622998711,None,None,806.9297622998711,None,807.7330117700155,None,,,22011,0002,2022_Aug_12_1242,localizer,2021.1.3,60.03640613023816,
block,objects,objects052.bmp,,,,,0,219,219,219,,,,,,,,,,,,,,,,,,,,,,,,,,,,,,,,,,,,,,,,,,None,,807.7330117700155,None,807.7330117700155,None,2022-08-12-12:55:22.425381,807.7342128998134,808.0495499998797,807.7342128998134,None,None,807.7342128998134,None,808.5369315698742,None,,,22011,0002,2022_Aug_12_1242,localizer,2021.1.3,60.03640613023816,
block,objects,objects085.bmp,,,,,0,220,220,220,,,,,,,,,,,,,,,,,,,,,,,,,,,,,,,,,,,,,,,,,,None,,808.5369315698742,None,808.5369315698742,None,2022-08-12-12:55:23.239178,808.5491078998893,808.8561106999405,808.5491078998893,808.5491078998893,None,808.5491078998893,808.5491078998893,809.3495491698384,None,,,22011,0002,2022_Aug_12_1242,localizer,2021.1.3,60.03640613023816,
block,objects,objects060.bmp,,,,,0,221,221,221,,,,,,,,,,,,,,,,,,,,,,,,,,,,,,,,,,,,,,,,,,None,,809.3495491698384,None,809.3495491698384,None,2022-08-12-12:55:24.041920,809.3504347999115,809.6494524998125,809.3504347999115,None,None,809.3504347999115,None,810.1504929698538,None,,,22011,0002,2022_Aug_12_1242,localizer,2021.1.3,60.03640613023816,
block,objects,objects040.bmp,,,,,0,222,222,222,,,,,,,,,,,,,,,,,,,,,,,,,,,,,,,,,,,,,,,,,,None,,810.1504929698538,None,810.1504929698538,None,2022-08-12-12:55:24.845026,810.1507895998657,810.4497779000085,810.1507895998657,810.1507895998657,None,810.1507895998657,810.1507895998657,810.9501855698879,None,,,22011,0002,2022_Aug_12_1242,localizer,2021.1.3,60.03640613023816,
block,objects,objects069.bmp,,,,,0,223,223,223,,,,,,,,,,,,,,,,,,,,,,,,,,,,,,,,,,,,,,,,,,None,,810.9501855698879,None,810.9501855698879,None,2022-08-12-12:55:25.644742,810.962517599808,811.2659736999776,810.962517599808,810.962517599808,None,810.962517599808,810.962517599808,811.7673470698762,None,,,22011,0002,2022_Aug_12_1242,localizer,2021.1.3,60.03640613023816,
block,objects,objects074.bmp,,,,,0,224,224,224,,,,,,,,,,,,,,,,,,,,,,,,,,,,,,,,,,,,,,,,,,None,,811.7673470698762,None,811.7673470698762,None,2022-08-12-12:55:26.460914,811.7796294,812.0835323999636,811.7796294,None,None,811.7796294,None,812.5835273698438,None,,,22011,0002,2022_Aug_12_1242,localizer,2021.1.3,60.03640613023816,
block,objects,objects065.bmp,,,,,0,225,225,225,,,,,,,,,,,,,,,,,,,,,,,,,,,,,,,,,,,,,,,,,,None,,812.5835273698438,None,812.5835273698438,None,2022-08-12-12:55:27.275869,812.583734799875,812.8830436000135,812.583734799875,None,None,812.583734799875,None,813.3833318699151,None,,,22011,0002,2022_Aug_12_1242,localizer,2021.1.3,60.03640613023816,
block,objects,objects028.bmp,,,,,0,226,226,226,,,,,,,,,,,,,,,,,,,,,,,,,,,,,,,,,,,,,,,,,,None,,813.3833318699151,None,813.3833318699151,None,2022-08-12-12:55:28.077692,813.3858634999488,813.7008080999367,813.3858634999488,813.3858634999488,None,813.3858634999488,813.3858634999488,814.1901763698086,None,,,22011,0002,2022_Aug_12_1242,localizer,2021.1.3,60.03640613023816,
block_end,objects,objects028.bmp,,,,,0,227,227,227,,,,,,,,,,,,,,,,,,,,,,,,,,,,,,,,,,,,,,,,,,None,,814.1901763698086,None,814.1901763698086,None,2022-08-12-12:55:28.887469,814.1951812999323,814.5000241999514,814.1951812999323,None,None,814.1951812999323,None,815.0005498697981,None,,,22011,0002,2022_Aug_12_1242,localizer,2021.1.3,60.03640613023816,
block_start,scrambled,scrambled070.bmp,,,,,0,228,228,228,,,,,,,,,,,,,,,,,,,,,,,,,,,,,,,,,,,,,,,,,,t,1.8555348999798298,815.0000934000127,None,815.0000934000127,None,2022-08-12-12:55:31.574582,816.8936677998863,817.1991731999442,816.8936677998863,None,None,816.8936677998863,None,817.6895359698217,None,,,22011,0002,2022_Aug_12_1242,localizer,2021.1.3,60.03640613023816,
block,scrambled,scrambled009.bmp,,,,,0,229,229,229,,,,,,,,,,,,,,,,,,,,,,,,,,,,,,,,,,,,,,,,,,None,,817.6895359698217,None,817.6895359698217,None,2022-08-12-12:55:32.389695,817.7055583999027,818.016782599967,817.7055583999027,None,None,817.7055583999027,None,818.4999928699806,None,,,22011,0002,2022_Aug_12_1242,localizer,2021.1.3,60.03640613023816,
block,scrambled,scrambled046.bmp,,,,,0,230,230,230,,,,,,,,,,,,,,,,,,,,,,,,,,,,,,,,,,,,,,,,,,None,,818.4999928699806,None,818.4999928699806,None,2022-08-12-12:55:33.192413,818.5006234999746,818.79984399979,818.5006234999746,None,None,818.5006234999746,None,819.3035853697918,None,,,22011,0002,2022_Aug_12_1242,localizer,2021.1.3,60.03640613023816,
block,scrambled,scrambled043.bmp,,,,,0,231,231,231,,,,,,,,,,,,,,,,,,,,,,,,,,,,,,,,,,,,,,,,,,None,,819.3035853697918,None,819.3035853697918,None,2022-08-12-12:55:34.001916,819.3097369999159,819.6165765998885,819.3097369999159,819.3097369999159,None,819.3097369999159,819.3097369999159,820.1167906699236,None,,,22011,0002,2022_Aug_12_1242,localizer,2021.1.3,60.03640613023816,
block,scrambled,scrambled025.bmp,,,,,0,232,232,232,,,,,,,,,,,,,,,,,,,,,,,,,,,,,,,,,,,,,,,,,,None,,820.1167906699236,None,820.1167906699236,None,2022-08-12-12:55:34.810358,820.1171470999252,820.4168140999973,820.1171470999252,None,None,820.1171470999252,None,820.9164653699379,None,,,22011,0002,2022_Aug_12_1242,localizer,2021.1.3,60.03640613023816,
block,scrambled,scrambled056.bmp,,,,,0,233,233,233,,,,,,,,,,,,,,,,,,,,,,,,,,,,,,,,,,,,,,,,,,None,,820.9164653699379,None,820.9164653699379,None,2022-08-12-12:55:35.610366,820.9176050999667,821.2388137998059,820.9176050999667,820.9176050999667,None,820.9176050999667,820.9176050999667,821.7173072699923,None,,,22011,0002,2022_Aug_12_1242,localizer,2021.1.3,60.03640613023816,
block,scrambled,scrambled024.bmp,,,,,0,234,234,234,,,,,,,,,,,,,,,,,,,,,,,,,,,,,,,,,,,,,,,,,,None,,821.7173072699923,None,821.7173072699923,None,2022-08-12-12:55:36.411631,821.7311003999785,822.033222099999,821.7311003999785,821.7311003999785,None,821.7311003999785,821.7311003999785,822.5352476699743,None,,,22011,0002,2022_Aug_12_1242,localizer,2021.1.3,60.03640613023816,
block,scrambled,scrambled069.bmp,,,,,0,235,235,235,,,,,,,,,,,,,,,,,,,,,,,,,,,,,,,,,,,,,,,,,,None,,822.5352476699743,None,822.5352476699743,None,2022-08-12-12:55:37.231633,822.5404013998341,822.8495096999686,822.5404013998341,None,None,822.5404013998341,None,823.3499232700094,None,,,22011,0002,2022_Aug_12_1242,localizer,2021.1.3,60.03640613023816,
block,scrambled,scrambled034.bmp,,,,,0,236,236,236,,,,,,,,,,,,,,,,,,,,,,,,,,,,,,,,,,,,,,,,,,None,,823.3499232700094,None,823.3499232700094,None,2022-08-12-12:55:38.042292,823.3505285999272,823.6493535998743,823.3505285999272,None,None,823.3505285999272,None,824.1499240698292,None,,,22011,0002,2022_Aug_12_1242,localizer,2021.1.3,60.03640613023816,
block,scrambled,scrambled007.bmp,,,,,0,237,237,237,,,,,,,,,,,,,,,,,,,,,,,,,,,,,,,,,,,,,,,,,,None,,824.1499240698292,None,824.1499240698292,None,2022-08-12-12:55:38.843689,824.1505273999646,824.449658999918,824.1505273999646,824.1505273999646,None,824.1505273999646,824.1505273999646,824.9498658698983,None,,,22011,0002,2022_Aug_12_1242,localizer,2021.1.3,60.03640613023816,
block,scrambled,scrambled060.bmp,,,,,0,238,238,238,,,,,,,,,,,,,,,,,,,,,,,,,,,,,,,,,,,,,,,,,,None,,824.9498658698983,None,824.9498658698983,None,2022-08-12-12:55:39.644229,824.9508695998229,825.2495901999064,824.9508695998229,824.9508695998229,None,824.9508695998229,824.9508695998229,825.7500698698684,None,,,22011,0002,2022_Aug_12_1242,localizer,2021.1.3,60.03640613023816,
block,scrambled,scrambled044.bmp,,,,,0,239,239,239,,,,,,,,,,,,,,,,,,,,,,,,,,,,,,,,,,,,,,,,,,None,,825.7500698698684,None,825.7500698698684,None,2022-08-12-12:55:40.444426,825.7624670998193,826.0661898998078,825.7624670998193,825.7624670998193,None,825.7624670998193,825.7624670998193,826.5671293700113,None,,,22011,0002,2022_Aug_12_1242,localizer,2021.1.3,60.03640613023816,
block,scrambled,scrambled004.bmp,,,,,0,240,240,240,,,,,,,,,,,,,,,,,,,,,,,,,,,,,,,,,,,,,,,,,,None,,826.5671293700113,None,826.5671293700113,None,2022-08-12-12:55:41.260509,826.5684601999819,826.8836588999256,826.5684601999819,None,None,826.5684601999819,None,827.383351669833,None,,,22011,0002,2022_Aug_12_1242,localizer,2021.1.3,60.03640613023816,
block,scrambled,scrambled026.bmp,,,,,0,241,241,241,,,,,,,,,,,,,,,,,,,,,,,,,,,,,,,,,,,,,,,,,,None,,827.383351669833,None,827.383351669833,None,2022-08-12-12:55:42.075691,827.38388569979,827.6830789998639,827.38388569979,None,None,827.38388569979,None,828.1833957698661,None,,,22011,0002,2022_Aug_12_1242,localizer,2021.1.3,60.03640613023816,
block_end,scrambled,scrambled030.bmp,,,,,0,242,242,242,,,,,,,,,,,,,,,,,,,,,,,,,,,,,,,,,,,,,,,,,,None,,828.1833957698661,None,828.1833957698661,None,2022-08-12-12:55:42.877938,828.1860650999006,828.4997939998284,828.1860650999006,828.1860650999006,None,828.1860650999006,828.1860650999006,829.000179270003,None,,,22011,0002,2022_Aug_12_1242,localizer,2021.1.3,60.03640613023816,
null_block,null_block,null_block.bmp,,,,,0,243,243,243,,,,,,,,,,,,,,,,,,,,,,,,,,,,,,,,,,,,,,,,,,t,1.8559557001572102,828.9998824999202,None,828.9998824999202,None,2022-08-12-12:55:45.574477,830.8830996700096,None,830.8830996700096,None,None,830.8830996700096,None,830.8853163998574,None,,,22011,0002,2022_Aug_12_1242,localizer,2021.1.3,60.03640613023816,
,,,,,,,,,,,,,,,,,,,,,,,,,,,,,,,,,,,,,,,,,,,,,,,,,,,,,,,,,,,,,,,,,,,,842.8997294998262,None,,,,,,,
