block_type,condition,img_name,Button.thisRepN,Button.thisTrialN,Button.thisN,Button.thisIndex,trials.thisRepN,trials.thisTrialN,trials.thisN,trials.thisIndex,Ready_experimenter_text.started,Ready_experimenter_text.stopped,Ready_experimenter_resp.keys,Ready_experimenter_resp.rt,Ready_experimenter_resp.started,Ready_experimenter_resp.stopped,Alignment_background.started,Alignment_background.stopped,Alignment_image.started,Alignment_image.stopped,Alignment_resp.keys,Alignment_resp.rt,Alignment_resp.started,Alignment_resp.stopped,Button_text.started,Button_text.stopped,Index_text.started,Index_text.stopped,Index_resp.keys,Index_resp.rt,Index_resp.started,Index_resp.stopped,Middle_text.started,Middle_text.stopped,Middle_resp.keys,Middle_resp.rt,Middle_resp.started,Middle_resp.stopped,Repeat_text.started,Repeat_text.stopped,Repeat_resp.keys,Repeat_resp.corr,Repeat_resp.rt,Repeat_resp.started,Repeat_resp.stopped,instruction_text.started,instruction_text.stopped,key_resp.keys,key_resp.rt,key_resp.started,key_resp.stopped,scanner_t.keys,scanner_t.rt,scanner_t.started,scanner_t.stopped,fixation_wait_for_t.started,fixation_wait_for_t.stopped,real_timestamp_trial_start,image.started,image.stopped,fixation.started,fixation.stopped,repeat_response.keys,repeat_response.started,repeat_response.stopped,fixation_null.started,fixation_null.stopped,repeat_response.rt,end_text.started,end_text.stopped,participant,run,date,expName,psychopyVersion,frameRate,
,,,,,,,,,,,13.491104700602591,None,return,67.75641559995711,13.491104700602591,None,,,,,,,,,,,,,,,,,,,,,,,,,,,,,,,,,,,,,,,,,,,,,,,,,,,,,,,12008,0002,2021_Dec_16_1441,localizer,2021.1.3,59.97206528799478,
,,,,,,,,,,,,,,,,,81.28710919991136,None,81.28710919991136,None,return,0.8832672005519271,81.28710919991136,None,,,,,,,,,,,,,,,,,,,,,,,,,,,,,,,,,,,,,,,,,,,,,,,12008,0002,2021_Dec_16_1441,localizer,2021.1.3,59.97206528799478,
,,,0,0,0,0,,,,,,,,,,,,,,,,,,,82.18393489997834,None,83.18354350049049,None,y,11.880412899889052,83.18354350049049,None,95.08372420072556,None,b,1.2154816007241607,95.08372420072556,None,96.31718070060015,None,n,0,1.949078000150621,96.31718070060015,None,,,,,,,,,,,,,,,,,,,,,,,,,,12008,0002,2021_Dec_16_1441,localizer,2021.1.3,59.97206528799478,
,,,,,,,,,,,,,,,,,,,,,,,,,,,,,,,,,,,,,,,,,,,,,,98.2836728002876,None,y,8.422151600010693,98.2836728002876,None,,,,,,,,,,,,,,,,,,,,12008,0002,2021_Dec_16_1441,localizer,2021.1.3,59.97206528799478,
block_start,scrambled,scrambled004.bmp,,,,,0,0,0,0,,,,,,,,,,,,,,,,,,,,,,,,,,,,,,,,,,,,,,,,,,t,16.840454099699855,106.76314900070429,None,106.76314900070429,None,2021-12-16-14:43:39.897737,123.62057830020785,123.93372610025108,123.62057830020785,None,None,123.62057830020785,None,124.43371911998838,None,,,,12008,0002,2021_Dec_16_1441,localizer,2021.1.3,59.97206528799478,
block,scrambled,scrambled034.bmp,,,,,0,1,1,1,,,,,,,,,,,,,,,,,,,,,,,,,,,,,,,,,,,,,,,,,,None,,124.43371911998838,None,124.43371911998838,None,2021-12-16-14:43:40.714147,124.43621790036559,124.75053570047021,124.43621790036559,None,None,124.43621790036559,None,125.25030962005258,None,,,,12008,0002,2021_Dec_16_1441,localizer,2021.1.3,59.97206528799478,
block,scrambled,scrambled075.bmp,,,,,0,2,2,2,,,,,,,,,,,,,,,,,,,,,,,,,,,,,,,,,,,,,,,,,,None,,125.25030962005258,None,125.25030962005258,None,2021-12-16-14:43:41.529744,125.25135789997876,125.56702370010316,125.25135789997876,None,None,125.25135789997876,None,126.06692322064191,None,,,,12008,0002,2021_Dec_16_1441,localizer,2021.1.3,59.97206528799478,
block,scrambled,scrambled054.bmp,,,,,0,3,3,3,,,,,,,,,,,,,,,,,,,,,,,,,,,,,,,,,,,,,,,,,,None,,126.06692322064191,None,126.06692322064191,None,2021-12-16-14:43:42.352340,126.07835950050503,126.38372830022126,126.07835950050503,None,None,126.07835950050503,None,126.88377522025257,None,,,,12008,0002,2021_Dec_16_1441,localizer,2021.1.3,59.97206528799478,
block,scrambled,scrambled077.bmp,,,,,0,4,4,4,,,,,,,,,,,,,,,,,,,,,,,,,,,,,,,,,,,,,,,,,,None,,126.88377522025257,None,126.88377522025257,None,2021-12-16-14:43:43.163417,126.88477190025151,127.20030990056694,126.88477190025151,None,None,126.88477190025151,None,127.69994272012264,None,,,,12008,0002,2021_Dec_16_1441,localizer,2021.1.3,59.97206528799478,
block,scrambled,scrambled052.bmp,,,,,0,5,5,5,,,,,,,,,,,,,,,,,,,,,,,,,,,,,,,,,,,,,,,,,,None,,127.69994272012264,None,127.69994272012264,None,2021-12-16-14:43:43.978381,127.71104370057583,128.01728999987245,127.71104370057583,None,None,127.71104370057583,None,128.51700702030212,None,,,,12008,0002,2021_Dec_16_1441,localizer,2021.1.3,59.97206528799478,
block,scrambled,scrambled025.bmp,,,,,0,6,6,6,,,,,,,,,,,,,,,,,,,,,,,,,,,,,,,,,,,,,,,,,,None,,128.51700702030212,None,128.51700702030212,None,2021-12-16-14:43:44.796761,128.5180737003684,128.8333776006475,128.5180737003684,None,None,128.5180737003684,None,129.33361222036183,None,,,,12008,0002,2021_Dec_16_1441,localizer,2021.1.3,59.97206528799478,
block,scrambled,scrambled049.bmp,,,,,0,7,7,7,,,,,,,,,,,,,,,,,,,,,,,,,,,,,,,,,,,,,,,,,,None,,129.33361222036183,None,129.33361222036183,None,2021-12-16-14:43:45.613047,129.33458080049604,129.63390320073813,129.33458080049604,None,None,129.33458080049604,None,130.13423932064325,None,,,,12008,0002,2021_Dec_16_1441,localizer,2021.1.3,59.97206528799478,
block,scrambled,scrambled084.bmp,,,,,0,8,8,8,,,,,,,,,,,,,,,,,,,,,,,,,,,,,,,,,,,,,,,,,,None,,130.13423932064325,None,130.13423932064325,None,2021-12-16-14:43:46.416811,130.13765620067716,130.45117750018835,130.13765620067716,130.13765620067716,None,130.13765620067716,130.13765620067716,130.95091421995312,None,,,,12008,0002,2021_Dec_16_1441,localizer,2021.1.3,59.97206528799478,
block,scrambled,scrambled039.bmp,,,,,0,9,9,9,,,,,,,,,,,,,,,,,,,,,,,,,,,,,,,,,,,,,,,,,,None,,130.95091421995312,None,130.95091421995312,None,2021-12-16-14:43:47.231532,130.96281060017645,131.2676603998989,130.96281060017645,None,None,130.96281060017645,None,131.76730962004513,None,,,,12008,0002,2021_Dec_16_1441,localizer,2021.1.3,59.97206528799478,
block,scrambled,scrambled074.bmp,,,,,0,10,10,10,,,,,,,,,,,,,,,,,,,,,,,,,,,,,,,,,,,,,,,,,,None,,131.76730962004513,None,131.76730962004513,None,2021-12-16-14:43:48.047733,131.76835510041565,132.06786840036511,131.76835510041565,None,None,131.76835510041565,None,132.58370602037758,None,,,,12008,0002,2021_Dec_16_1441,localizer,2021.1.3,59.97206528799478,
block,scrambled,scrambled028.bmp,,,,,0,11,11,11,,,,,,,,,,,,,,,,,,,,,,,,,,,,,,,,,,,,,,,,,,None,,132.58370602037758,None,132.58370602037758,None,2021-12-16-14:43:48.863137,132.5938214007765,132.90053210034966,132.5938214007765,None,None,132.5938214007765,None,133.40022912062705,None,,,,12008,0002,2021_Dec_16_1441,localizer,2021.1.3,59.97206528799478,
block,scrambled,scrambled083.bmp,,,,,0,12,12,12,,,,,,,,,,,,,,,,,,,,,,,,,,,,,,,,,,,,,,,,,,None,,133.40022912062705,None,133.40022912062705,None,2021-12-16-14:43:49.680192,133.40145920030773,133.70094399992377,133.40145920030773,None,None,133.40145920030773,None,134.20055622048676,None,,,,12008,0002,2021_Dec_16_1441,localizer,2021.1.3,59.97206528799478,
block,scrambled,scrambled007.bmp,,,,,0,13,13,13,,,,,,,,,,,,,,,,,,,,,,,,,,,,,,,,,,,,,,,,,,None,,134.20055622048676,None,134.20055622048676,None,2021-12-16-14:43:50.482973,134.21327480021864,134.51714610029012,134.21327480021864,134.21327480021864,None,134.21327480021864,134.21327480021864,135.0170708205551,None,,,,12008,0002,2021_Dec_16_1441,localizer,2021.1.3,59.97206528799478,
block_end,scrambled,scrambled030.bmp,,,,,0,14,14,14,,,,,,,,,,,,,,,,,,,,,,,,,,,,,,,,,,,,,,,,,,None,,135.0170708205551,None,135.0170708205551,None,2021-12-16-14:43:51.296627,135.01810490060598,135.33392340037972,135.01810490060598,None,None,135.01810490060598,None,135.8173218201846,None,,,,12008,0002,2021_Dec_16_1441,localizer,2021.1.3,59.97206528799478,
null_block,null_block,null_block.bmp,,,,,0,15,15,15,,,,,,,,,,,,,,,,,,,,,,,,,,,,,,,,,,,,,,,,,,t,1.7844902006909251,135.81745269987732,None,135.81745269987732,None,2021-12-16-14:43:53.896631,137.61720072012395,None,137.61720072012395,None,None,137.61720072012395,None,137.6220510005951,None,,,,12008,0002,2021_Dec_16_1441,localizer,2021.1.3,59.97206528799478,
block_start,scenes,scenes002.bmp,,,,,0,16,16,16,,,,,,,,,,,,,,,,,,,,,,,,,,,,,,,,,,,,,,,,,,t,1.982702000066638,149.6191485002637,None,149.6191485002637,None,2021-12-16-14:44:07.898042,151.62591909989715,151.9346467005089,151.62591909989715,None,None,151.62591909989715,None,152.43453322071582,None,,,,12008,0002,2021_Dec_16_1441,localizer,2021.1.3,59.97206528799478,
block,scenes,scenes086.bmp,,,,,0,17,17,17,,,,,,,,,,,,,,,,,,,,,,,,,,,,,,,,,,,,,,,,,,None,,152.43453322071582,None,152.43453322071582,None,2021-12-16-14:44:08.715741,152.43753390014172,152.75131850037724,152.43753390014172,None,None,152.43753390014172,None,153.25105882063508,None,,,,12008,0002,2021_Dec_16_1441,localizer,2021.1.3,59.97206528799478,
block,scenes,scenes029.bmp,,,,,0,18,18,18,,,,,,,,,,,,,,,,,,,,,,,,,,,,,,,,,,,,,,,,,,None,,153.25105882063508,None,153.25105882063508,None,2021-12-16-14:44:09.531477,153.26282250043005,153.56768599990755,153.26282250043005,None,None,153.26282250043005,None,154.06754952017218,None,,,,12008,0002,2021_Dec_16_1441,localizer,2021.1.3,59.97206528799478,
block,scenes,scenes030.bmp,,,,,0,19,19,19,,,,,,,,,,,,,,,,,,,,,,,,,,,,,,,,,,,,,,,,,,None,,154.06754952017218,None,154.06754952017218,None,2021-12-16-14:44:10.348089,154.06847020052373,154.38429490011185,154.06847020052373,None,None,154.06847020052373,None,154.86769092082977,None,,,,12008,0002,2021_Dec_16_1441,localizer,2021.1.3,59.97206528799478,
block,scenes,scenes019.bmp,,,,,0,20,20,20,,,,,,,,,,,,,,,,,,,,,,,,,,,,,,,,,,,,,,,,,,None,,154.86769092082977,None,154.86769092082977,None,2021-12-16-14:44:11.150259,154.87113950029016,155.1847244007513,154.87113950029016,154.87113950029016,None,154.87113950029016,154.87113950029016,155.68514342047274,None,,,,12008,0002,2021_Dec_16_1441,localizer,2021.1.3,59.97206528799478,
block,scenes,scenes055.bmp,,,,,0,21,21,21,,,,,,,,,,,,,,,,,,,,,,,,,,,,,,,,,,,,,,,,,,None,,155.68514342047274,None,155.68514342047274,None,2021-12-16-14:44:11.965698,155.69873950071633,156.00065959990025,155.69873950071633,None,None,155.69873950071633,None,156.50072862021625,None,,,,12008,0002,2021_Dec_16_1441,localizer,2021.1.3,59.97206528799478,
block,scenes,scenes072.bmp,,,,,0,22,22,22,,,,,,,,,,,,,,,,,,,,,,,,,,,,,,,,,,,,,,,,,,None,,156.50072862021625,None,156.50072862021625,None,2021-12-16-14:44:12.780158,156.51092569995672,156.81732410006225,156.51092569995672,None,None,156.51092569995672,None,157.31703442055732,None,,,,12008,0002,2021_Dec_16_1441,localizer,2021.1.3,59.97206528799478,
block,scenes,scenes091.bmp,,,,,0,23,23,23,,,,,,,,,,,,,,,,,,,,,,,,,,,,,,,,,,,,,,,,,,None,,157.31703442055732,None,157.31703442055732,None,2021-12-16-14:44:13.596966,157.32764700055122,157.6335931001231,157.32764700055122,None,None,157.32764700055122,None,158.1349086202681,None,,,,12008,0002,2021_Dec_16_1441,localizer,2021.1.3,59.97206528799478,
block,scenes,scenes051.bmp,,,,,0,24,24,24,,,,,,,,,,,,,,,,,,,,,,,,,,,,,,,,,,,,,,,,,,None,,158.1349086202681,None,158.1349086202681,None,2021-12-16-14:44:14.416340,158.147925500758,158.4504936002195,158.147925500758,None,None,158.147925500758,None,158.95058532059193,None,,,,12008,0002,2021_Dec_16_1441,localizer,2021.1.3,59.97206528799478,
block,scenes,scenes063.bmp,,,,,0,25,25,25,,,,,,,,,,,,,,,,,,,,,,,,,,,,,,,,,,,,,,,,,,None,,158.95058532059193,None,158.95058532059193,None,2021-12-16-14:44:15.230013,158.96238599997014,159.26727820001543,158.96238599997014,None,None,158.96238599997014,None,159.76752131991088,None,,,,12008,0002,2021_Dec_16_1441,localizer,2021.1.3,59.97206528799478,
block,scenes,scenes039.bmp,,,,,0,26,26,26,,,,,,,,,,,,,,,,,,,,,,,,,,,,,,,,,,,,,,,,,,None,,159.76752131991088,None,159.76752131991088,None,2021-12-16-14:44:16.048151,159.76860130019486,160.06731910072267,159.76860130019486,None,None,159.76860130019486,None,160.56823222059757,None,,,,12008,0002,2021_Dec_16_1441,localizer,2021.1.3,59.97206528799478,
block,scenes,scenes018.bmp,,,,,0,27,27,27,,,,,,,,,,,,,,,,,,,,,,,,,,,,,,,,,,,,,,,,,,None,,160.56823222059757,None,160.56823222059757,None,2021-12-16-14:44:16.848667,160.57401970028877,160.8839595001191,160.57401970028877,160.57401970028877,None,160.57401970028877,160.57401970028877,161.38401122018695,None,,,,12008,0002,2021_Dec_16_1441,localizer,2021.1.3,59.97206528799478,
block,scenes,scenes017.bmp,,,,,0,28,28,28,,,,,,,,,,,,,,,,,,,,,,,,,,,,,,,,,,,,,,,,,,None,,161.38401122018695,None,161.38401122018695,None,2021-12-16-14:44:17.663335,161.39374280069023,161.70083530060947,161.39374280069023,None,None,161.39374280069023,None,162.20027012005448,None,,,,12008,0002,2021_Dec_16_1441,localizer,2021.1.3,59.97206528799478,
block,scenes,scenes062.bmp,,,,,0,29,29,29,,,,,,,,,,,,,,,,,,,,,,,,,,,,,,,,,,,,,,,,,,None,,162.20027012005448,None,162.20027012005448,None,2021-12-16-14:44:18.479870,162.21101840026677,162.51734270062298,162.21101840026677,None,None,162.21101840026677,None,163.01720182038844,None,,,,12008,0002,2021_Dec_16_1441,localizer,2021.1.3,59.97206528799478,
block_end,scenes,scenes077.bmp,,,,,0,30,30,30,,,,,,,,,,,,,,,,,,,,,,,,,,,,,,,,,,,,,,,,,,None,,163.01720182038844,None,163.01720182038844,None,2021-12-16-14:44:19.296635,163.02716760057956,163.34038800001144,163.02716760057956,None,None,163.02716760057956,None,163.8340111207217,None,,,,12008,0002,2021_Dec_16_1441,localizer,2021.1.3,59.97206528799478,
block_start,faces,faces027.bmp,,,,,0,31,31,31,,,,,,,,,,,,,,,,,,,,,,,,,,,,,,,,,,,,,,,,,,t,1.7677914006635547,163.83418960031122,None,163.83418960031122,None,2021-12-16-14:44:21.896032,165.6184686999768,165.93400180060416,165.6184686999768,None,None,165.6184686999768,None,166.4339351207018,None,,,,12008,0002,2021_Dec_16_1441,localizer,2021.1.3,59.97206528799478,
block,faces,faces083.bmp,,,,,0,32,32,32,,,,,,,,,,,,,,,,,,,,,,,,,,,,,,,,,,,,,,,,,,None,,166.4339351207018,None,166.4339351207018,None,2021-12-16-14:44:22.713366,166.44498939998448,166.7508796006441,166.44498939998448,None,None,166.44498939998448,None,167.2505333200097,None,,,,12008,0002,2021_Dec_16_1441,localizer,2021.1.3,59.97206528799478,
block,faces,faces071.bmp,,,,,0,33,33,33,,,,,,,,,,,,,,,,,,,,,,,,,,,,,,,,,,,,,,,,,,None,,167.2505333200097,None,167.2505333200097,None,2021-12-16-14:44:23.530184,167.25164900068194,167.56743020005524,167.25164900068194,None,None,167.25164900068194,None,168.06724192015827,None,,,,12008,0002,2021_Dec_16_1441,localizer,2021.1.3,59.97206528799478,
block,faces,faces019.bmp,,,,,0,34,34,34,,,,,,,,,,,,,,,,,,,,,,,,,,,,,,,,,,,,,,,,,,None,,168.06724192015827,None,168.06724192015827,None,2021-12-16-14:44:24.346674,168.08318820036948,168.38426800072193,168.08318820036948,None,None,168.08318820036948,None,168.88454192038625,None,,,,12008,0002,2021_Dec_16_1441,localizer,2021.1.3,59.97206528799478,
block,faces,faces033.bmp,,,,,0,35,35,35,,,,,,,,,,,,,,,,,,,,,,,,,,,,,,,,,,,,,,,,,,None,,168.88454192038625,None,168.88454192038625,None,2021-12-16-14:44:25.164961,168.88690520077944,169.20150090008974,168.88690520077944,None,None,168.88690520077944,None,169.70053262077272,None,,,,12008,0002,2021_Dec_16_1441,localizer,2021.1.3,59.97206528799478,
block,faces,faces086.bmp,,,,,0,36,36,36,,,,,,,,,,,,,,,,,,,,,,,,,,,,,,,,,,,,,,,,,,None,,169.70053262077272,None,169.70053262077272,None,2021-12-16-14:44:25.979963,169.70167060010135,170.00106780044734,169.70167060010135,None,None,169.70167060010135,None,170.50072932057083,None,,,,12008,0002,2021_Dec_16_1441,localizer,2021.1.3,59.97206528799478,
block,faces,faces024.bmp,,,,,0,37,37,37,,,,,,,,,,,,,,,,,,,,,,,,,,,,,,,,,,,,,,,,,,None,,170.50072932057083,None,170.50072932057083,None,2021-12-16-14:44:26.781451,170.51286480017006,170.8174183005467,170.51286480017006,170.51286480017006,None,170.51286480017006,170.51286480017006,171.3171844203025,None,,,,12008,0002,2021_Dec_16_1441,localizer,2021.1.3,59.97206528799478,
block,faces,faces065.bmp,,,,,0,38,38,38,,,,,,,,,,,,,,,,,,,,,,,,,,,,,,,,,,,,,,,,,,None,,171.3171844203025,None,171.3171844203025,None,2021-12-16-14:44:27.596616,171.318424500525,171.63411240000278,171.318424500525,None,None,171.318424500525,None,172.13401092030108,None,,,,12008,0002,2021_Dec_16_1441,localizer,2021.1.3,59.97206528799478,
block,faces,faces036.bmp,,,,,0,39,39,39,,,,,,,,,,,,,,,,,,,,,,,,,,,,,,,,,,,,,,,,,,None,,172.13401092030108,None,172.13401092030108,None,2021-12-16-14:44:28.413443,172.14402090013027,172.4508405001834,172.14402090013027,None,None,172.14402090013027,None,172.95050102006644,None,,,,12008,0002,2021_Dec_16_1441,localizer,2021.1.3,59.97206528799478,
block,faces,faces014.bmp,,,,,0,40,40,40,,,,,,,,,,,,,,,,,,,,,,,,,,,,,,,,,,,,,,,,,,None,,172.95050102006644,None,172.95050102006644,None,2021-12-16-14:44:29.230155,172.96099030040205,173.2677098000422,172.96099030040205,None,None,172.96099030040205,None,173.7670747200027,None,,,,12008,0002,2021_Dec_16_1441,localizer,2021.1.3,59.97206528799478,
block,faces,faces088.bmp,,,,,0,41,41,41,,,,,,,,,,,,,,,,,,,,,,,,,,,,,,,,,,,,,,,,,,None,,173.7670747200027,None,173.7670747200027,None,2021-12-16-14:44:30.046510,173.77730370033532,174.08394020050764,173.77730370033532,None,None,173.77730370033532,None,174.5875673200935,None,,,,12008,0002,2021_Dec_16_1441,localizer,2021.1.3,59.97206528799478,
block,faces,faces050.bmp,,,,,0,42,42,42,,,,,,,,,,,,,,,,,,,,,,,,,,,,,,,,,,,,,,,,,,None,,174.5875673200935,None,174.5875673200935,None,2021-12-16-14:44:30.874891,174.6078058006242,174.91788450069726,174.6078058006242,None,None,174.6078058006242,None,175.40099682006985,None,,,,12008,0002,2021_Dec_16_1441,localizer,2021.1.3,59.97206528799478,
block,faces,faces089.bmp,,,,,0,43,43,43,,,,,,,,,,,,,,,,,,,,,,,,,,,,,,,,,,,,,,,,,,None,,175.40099682006985,None,175.40099682006985,None,2021-12-16-14:44:31.681624,175.41200670041144,175.7176874000579,175.41200670041144,None,None,175.41200670041144,None,176.21748901996762,None,,,,12008,0002,2021_Dec_16_1441,localizer,2021.1.3,59.97206528799478,
block,faces,faces089.bmp,,,,,0,44,44,44,,,,,,,,,,,,,,,,,,,,,,,,,,,,,,,,,,,,,,,,,,None,,176.21748901996762,None,176.21748901996762,None,2021-12-16-14:44:32.497115,176.21835560072213,176.51765490043908,176.21835560072213,None,y,176.21835560072213,None,177.017832220532,None,0.5575177995488048,,,12008,0002,2021_Dec_16_1441,localizer,2021.1.3,59.97206528799478,
block_end,faces,faces016.bmp,,,,,0,45,45,45,,,,,,,,,,,,,,,,,,,,,,,,,,,,,,,,,,,,,,,,,,None,,177.017832220532,None,177.017832220532,None,2021-12-16-14:44:33.301243,177.0331738004461,177.33449700009078,177.0331738004461,177.0331738004461,None,177.0331738004461,177.0331738004461,177.83382742013782,None,,,,12008,0002,2021_Dec_16_1441,localizer,2021.1.3,59.97206528799478,
block_start,objects,objects053.bmp,,,,,0,46,46,46,,,,,,,,,,,,,,,,,,,,,,,,,,,,,,,,,,,,,,,,,,t,1.767862900160253,177.83403270039707,None,177.83403270039707,None,2021-12-16-14:44:35.896717,179.61828029993922,179.9342335006222,179.61828029993922,None,None,179.61828029993922,None,180.43411382008344,None,,,,12008,0002,2021_Dec_16_1441,localizer,2021.1.3,59.97206528799478,
block,objects,objects083.bmp,,,,,0,47,47,47,,,,,,,,,,,,,,,,,,,,,,,,,,,,,,,,,,,,,,,,,,None,,180.43411382008344,None,180.43411382008344,None,2021-12-16-14:44:36.713543,180.44533820077777,180.75085860025138,180.44533820077777,None,None,180.44533820077777,None,181.25071282032877,None,,,,12008,0002,2021_Dec_16_1441,localizer,2021.1.3,59.97206528799478,
block,objects,objects046.bmp,,,,,0,48,48,48,,,,,,,,,,,,,,,,,,,,,,,,,,,,,,,,,,,,,,,,,,None,,181.25071282032877,None,181.25071282032877,None,2021-12-16-14:44:37.530363,181.25178659986705,181.56751520000398,181.25178659986705,None,None,181.25178659986705,None,182.05091322027147,None,,,,12008,0002,2021_Dec_16_1441,localizer,2021.1.3,59.97206528799478,
block,objects,objects006.bmp,,,,,0,49,49,49,,,,,,,,,,,,,,,,,,,,,,,,,,,,,,,,,,,,,,,,,,None,,182.05091322027147,None,182.05091322027147,None,2021-12-16-14:44:38.331518,182.05307340063155,182.36747740022838,182.05307340063155,182.05307340063155,None,182.05307340063155,182.05307340063155,182.86842792015523,None,,,,12008,0002,2021_Dec_16_1441,localizer,2021.1.3,59.97206528799478,
block,objects,objects034.bmp,,,,,0,50,50,50,,,,,,,,,,,,,,,,,,,,,,,,,,,,,,,,,,,,,,,,,,None,,182.86842792015523,None,182.86842792015523,None,2021-12-16-14:44:39.151762,182.8739264998585,183.184553200379,182.8739264998585,None,None,182.8739264998585,None,183.6855682199821,None,,,,12008,0002,2021_Dec_16_1441,localizer,2021.1.3,59.97206528799478,
block,objects,objects007.bmp,,,,,0,51,51,51,,,,,,,,,,,,,,,,,,,,,,,,,,,,,,,,,,,,,,,,,,None,,183.6855682199821,None,183.6855682199821,None,2021-12-16-14:44:39.964050,183.68898150045425,184.0009995000437,183.68898150045425,None,None,183.68898150045425,None,184.5012967204675,None,,,,12008,0002,2021_Dec_16_1441,localizer,2021.1.3,59.97206528799478,
block,objects,objects076.bmp,,,,,0,52,52,52,,,,,,,,,,,,,,,,,,,,,,,,,,,,,,,,,,,,,,,,,,None,,184.5012967204675,None,184.5012967204675,None,2021-12-16-14:44:40.781903,184.50207750033587,184.8173235002905,184.50207750033587,None,None,184.50207750033587,None,185.31732161995023,None,,,,12008,0002,2021_Dec_16_1441,localizer,2021.1.3,59.97206528799478,
block,objects,objects067.bmp,,,,,0,53,53,53,,,,,,,,,,,,,,,,,,,,,,,,,,,,,,,,,,,,,,,,,,None,,185.31732161995023,None,185.31732161995023,None,2021-12-16-14:44:41.596591,185.31841260008514,185.6342712007463,185.31841260008514,None,None,185.31841260008514,None,186.13397472072393,None,,,,12008,0002,2021_Dec_16_1441,localizer,2021.1.3,59.97206528799478,
block,objects,objects060.bmp,,,,,0,54,54,54,,,,,,,,,,,,,,,,,,,,,,,,,,,,,,,,,,,,,,,,,,None,,186.13397472072393,None,186.13397472072393,None,2021-12-16-14:44:42.413407,186.14394799992442,186.45072619989514,186.14394799992442,None,None,186.14394799992442,None,186.95276811998338,None,,,,12008,0002,2021_Dec_16_1441,localizer,2021.1.3,59.97206528799478,
block,objects,objects040.bmp,,,,,0,55,55,55,,,,,,,,,,,,,,,,,,,,,,,,,,,,,,,,,,,,,,,,,,None,,186.95276811998338,None,186.95276811998338,None,2021-12-16-14:44:43.236295,186.9584812000394,187.26814820058644,186.9584812000394,None,None,186.9584812000394,None,187.7672543199733,None,,,,12008,0002,2021_Dec_16_1441,localizer,2021.1.3,59.97206528799478,
block,objects,objects014.bmp,,,,,0,56,56,56,,,,,,,,,,,,,,,,,,,,,,,,,,,,,,,,,,,,,,,,,,None,,187.7672543199733,None,187.7672543199733,None,2021-12-16-14:44:44.046838,187.7773846006021,188.09076800011098,187.7773846006021,None,None,187.7773846006021,None,188.5852706199512,None,,,,12008,0002,2021_Dec_16_1441,localizer,2021.1.3,59.97206528799478,
block,objects,objects072.bmp,,,,,0,57,57,57,,,,,,,,,,,,,,,,,,,,,,,,,,,,,,,,,,,,,,,,,,None,,188.5852706199512,None,188.5852706199512,None,2021-12-16-14:44:44.865819,188.5977849001065,188.90092620067298,188.5977849001065,None,None,188.5977849001065,None,189.40045912005007,None,,,,12008,0002,2021_Dec_16_1441,localizer,2021.1.3,59.97206528799478,
block,objects,objects011.bmp,,,,,0,58,58,58,,,,,,,,,,,,,,,,,,,,,,,,,,,,,,,,,,,,,,,,,,None,,189.40045912005007,None,189.40045912005007,None,2021-12-16-14:44:45.679894,189.40169580001384,189.7175658000633,189.40169580001384,None,None,189.40169580001384,None,190.2011944204569,None,,,,12008,0002,2021_Dec_16_1441,localizer,2021.1.3,59.97206528799478,
block,objects,objects065.bmp,,,,,0,59,59,59,,,,,,,,,,,,,,,,,,,,,,,,,,,,,,,,,,,,,,,,,,None,,190.2011944204569,None,190.2011944204569,None,2021-12-16-14:44:46.483611,190.21527360007167,190.51754060015082,190.21527360007167,190.21527360007167,None,190.21527360007167,190.21527360007167,191.01741202082485,None,,,,12008,0002,2021_Dec_16_1441,localizer,2021.1.3,59.97206528799478,
block_end,objects,objects071.bmp,,,,,0,60,60,60,,,,,,,,,,,,,,,,,,,,,,,,,,,,,,,,,,,,,,,,,,None,,191.01741202082485,None,191.01741202082485,None,2021-12-16-14:44:47.296937,191.02771829999983,191.33430280070752,191.02771829999983,None,None,191.02771829999983,None,191.83417522069067,None,,,,12008,0002,2021_Dec_16_1441,localizer,2021.1.3,59.97206528799478,
block_start,scrambled,scrambled067.bmp,,,,,0,61,61,61,,,,,,,,,,,,,,,,,,,,,,,,,,,,,,,,,,,,,,,,,,t,1.767358100041747,191.83430809993297,None,191.83430809993297,None,2021-12-16-14:44:49.895969,193.6184841003269,193.91775550041348,193.6184841003269,None,None,193.6184841003269,None,194.41751282010227,None,,,,12008,0002,2021_Dec_16_1441,localizer,2021.1.3,59.97206528799478,
block,scrambled,scrambled024.bmp,,,,,0,62,62,62,,,,,,,,,,,,,,,,,,,,,,,,,,,,,,,,,,,,,,,,,,None,,194.41751282010227,None,194.41751282010227,None,2021-12-16-14:44:50.698292,194.42000230029225,194.73429650068283,194.42000230029225,194.42000230029225,None,194.42000230029225,194.42000230029225,195.23379152081907,None,,,,12008,0002,2021_Dec_16_1441,localizer,2021.1.3,59.97206528799478,
block,scrambled,scrambled047.bmp,,,,,0,63,63,63,,,,,,,,,,,,,,,,,,,,,,,,,,,,,,,,,,,,,,,,,,None,,195.23379152081907,None,195.23379152081907,None,2021-12-16-14:44:51.513230,195.24221320077777,195.55130890011787,195.24221320077777,None,None,195.24221320077777,None,196.05072502046824,None,,,,12008,0002,2021_Dec_16_1441,localizer,2021.1.3,59.97206528799478,
block,scrambled,scrambled055.bmp,,,,,0,64,64,64,,,,,,,,,,,,,,,,,,,,,,,,,,,,,,,,,,,,,,,,,,None,,196.05072502046824,None,196.05072502046824,None,2021-12-16-14:44:52.330283,196.05168520007282,196.36643599998206,196.05168520007282,None,None,196.05168520007282,None,196.85091742035002,None,,,,12008,0002,2021_Dec_16_1441,localizer,2021.1.3,59.97206528799478,
block,scrambled,scrambled004.bmp,,,,,0,65,65,65,,,,,,,,,,,,,,,,,,,,,,,,,,,,,,,,,,,,,,,,,,None,,196.85091742035002,None,196.85091742035002,None,2021-12-16-14:44:53.132546,196.8539823004976,197.16740940045565,196.8539823004976,196.8539823004976,None,196.8539823004976,196.8539823004976,197.66719302069396,None,,,,12008,0002,2021_Dec_16_1441,localizer,2021.1.3,59.97206528799478,
block,scrambled,scrambled033.bmp,,,,,0,66,66,66,,,,,,,,,,,,,,,,,,,,,,,,,,,,,,,,,,,,,,,,,,None,,197.66719302069396,None,197.66719302069396,None,2021-12-16-14:44:53.946641,197.66841070074588,197.98438150063157,197.66841070074588,None,None,197.66841070074588,None,198.4677083203569,None,,,,12008,0002,2021_Dec_16_1441,localizer,2021.1.3,59.97206528799478,
block,scrambled,scrambled037.bmp,,,,,0,67,67,67,,,,,,,,,,,,,,,,,,,,,,,,,,,,,,,,,,,,,,,,,,None,,198.4677083203569,None,198.4677083203569,None,2021-12-16-14:44:54.750331,198.48185280058533,198.78468899987638,198.48185280058533,198.48185280058533,None,198.48185280058533,198.48185280058533,199.28859012015164,None,,,,12008,0002,2021_Dec_16_1441,localizer,2021.1.3,59.97206528799478,
block,scrambled,scrambled043.bmp,,,,,0,68,68,68,,,,,,,,,,,,,,,,,,,,,,,,,,,,,,,,,,,,,,,,,,None,,199.28859012015164,None,199.28859012015164,None,2021-12-16-14:44:55.569974,199.30106690060347,199.60101330000907,199.30106690060347,None,None,199.30106690060347,None,200.10063682030886,None,,,,12008,0002,2021_Dec_16_1441,localizer,2021.1.3,59.97206528799478,
block,scrambled,scrambled064.bmp,,,,,0,69,69,69,,,,,,,,,,,,,,,,,,,,,,,,,,,,,,,,,,,,,,,,,,None,,200.10063682030886,None,200.10063682030886,None,2021-12-16-14:44:56.380109,200.10167960077524,200.400959700346,200.10167960077524,None,None,200.10167960077524,None,200.90072362031788,None,,,,12008,0002,2021_Dec_16_1441,localizer,2021.1.3,59.97206528799478,
block,scrambled,scrambled022.bmp,,,,,0,70,70,70,,,,,,,,,,,,,,,,,,,,,,,,,,,,,,,,,,,,,,,,,,None,,200.90072362031788,None,200.90072362031788,None,2021-12-16-14:44:57.182358,200.90913850069046,201.21767840068787,200.90913850069046,200.90913850069046,None,200.90913850069046,200.90913850069046,201.71858192048967,None,,,,12008,0002,2021_Dec_16_1441,localizer,2021.1.3,59.97206528799478,
block,scrambled,scrambled077.bmp,,,,,0,71,71,71,,,,,,,,,,,,,,,,,,,,,,,,,,,,,,,,,,,,,,,,,,None,,201.71858192048967,None,201.71858192048967,None,2021-12-16-14:44:57.999135,201.72088930010796,202.03462420031428,201.72088930010796,None,None,201.72088930010796,None,202.53446712065488,None,,,,12008,0002,2021_Dec_16_1441,localizer,2021.1.3,59.97206528799478,
block,scrambled,scrambled058.bmp,,,,,0,72,72,72,,,,,,,,,,,,,,,,,,,,,,,,,,,,,,,,,,,,,,,,,,None,,202.53446712065488,None,202.53446712065488,None,2021-12-16-14:44:58.815085,202.54443720076233,202.85086400061846,202.54443720076233,None,None,202.54443720076233,None,203.35091972071677,None,,,,12008,0002,2021_Dec_16_1441,localizer,2021.1.3,59.97206528799478,
block,scrambled,scrambled049.bmp,,,,,0,73,73,73,,,,,,,,,,,,,,,,,,,,,,,,,,,,,,,,,,,,,,,,,,None,,203.35091972071677,None,203.35091972071677,None,2021-12-16-14:44:59.631343,203.35202240012586,203.6507905004546,203.35202240012586,None,None,203.35202240012586,None,204.15438782051206,None,,,,12008,0002,2021_Dec_16_1441,localizer,2021.1.3,59.97206528799478,
block,scrambled,scrambled087.bmp,,,,,0,74,74,74,,,,,,,,,,,,,,,,,,,,,,,,,,,,,,,,,,,,,,,,,,None,,204.15438782051206,None,204.15438782051206,None,2021-12-16-14:45:00.439813,204.16202430054545,204.46820980031043,204.16202430054545,204.16202430054545,None,204.16202430054545,204.16202430054545,204.96726432070136,None,,,,12008,0002,2021_Dec_16_1441,localizer,2021.1.3,59.97206528799478,
block_end,scrambled,scrambled030.bmp,,,,,0,75,75,75,,,,,,,,,,,,,,,,,,,,,,,,,,,,,,,,,,,,,,,,,,None,,204.96726432070136,None,204.96726432070136,None,2021-12-16-14:45:01.246702,204.96846890076995,205.26771000027657,204.96846890076995,None,None,204.96846890076995,None,205.78415152058005,None,,,,12008,0002,2021_Dec_16_1441,localizer,2021.1.3,59.97206528799478,
block_start,objects,objects023.bmp,,,,,0,76,76,76,,,,,,,,,,,,,,,,,,,,,,,,,,,,,,,,,,,,,,,,,,t,1.8175940001383424,205.78433790057898,None,205.78433790057898,None,2021-12-16-14:45:03.898506,207.63017460051924,207.9340387005359,207.63017460051924,None,None,207.63017460051924,None,208.4348554201424,None,,,,12008,0002,2021_Dec_16_1441,localizer,2021.1.3,59.97206528799478,
block,objects,objects033.bmp,,,,,0,77,77,77,,,,,,,,,,,,,,,,,,,,,,,,,,,,,,,,,,,,,,,,,,None,,208.4348554201424,None,208.4348554201424,None,2021-12-16-14:45:04.715273,208.437018500641,208.7508022999391,208.437018500641,None,None,208.437018500641,None,209.25086032040417,None,,,,12008,0002,2021_Dec_16_1441,localizer,2021.1.3,59.97206528799478,
block,objects,objects034.bmp,,,,,0,78,78,78,,,,,,,,,,,,,,,,,,,,,,,,,,,,,,,,,,,,,,,,,,None,,209.25086032040417,None,209.25086032040417,None,2021-12-16-14:45:05.530526,209.25188610050827,209.56752720009536,209.25188610050827,None,None,209.25188610050827,None,210.05098552070558,None,,,,12008,0002,2021_Dec_16_1441,localizer,2021.1.3,59.97206528799478,
block,objects,objects003.bmp,,,,,0,79,79,79,,,,,,,,,,,,,,,,,,,,,,,,,,,,,,,,,,,,,,,,,,None,,210.05098552070558,None,210.05098552070558,None,2021-12-16-14:45:06.332626,210.05394040048122,210.36771170049906,210.05394040048122,210.05394040048122,None,210.05394040048122,210.05394040048122,210.8671829206869,None,,,,12008,0002,2021_Dec_16_1441,localizer,2021.1.3,59.97206528799478,
block,objects,objects046.bmp,,,,,0,80,80,80,,,,,,,,,,,,,,,,,,,,,,,,,,,,,,,,,,,,,,,,,,None,,210.8671829206869,None,210.8671829206869,None,2021-12-16-14:45:07.146883,210.8683152999729,211.167655300349,210.8683152999729,None,None,210.8683152999729,None,211.66736282035708,None,,,,12008,0002,2021_Dec_16_1441,localizer,2021.1.3,59.97206528799478,
block,objects,objects035.bmp,,,,,0,81,81,81,,,,,,,,,,,,,,,,,,,,,,,,,,,,,,,,,,,,,,,,,,None,,211.66736282035708,None,211.66736282035708,None,2021-12-16-14:45:07.947792,211.67864350043237,211.98471200000495,211.67864350043237,211.67864350043237,None,211.67864350043237,211.67864350043237,212.48410622030497,None,,,,12008,0002,2021_Dec_16_1441,localizer,2021.1.3,59.97206528799478,
block,objects,objects058.bmp,,,,,0,82,82,82,,,,,,,,,,,,,,,,,,,,,,,,,,,,,,,,,,,,,,,,,,None,,212.48410622030497,None,212.48410622030497,None,2021-12-16-14:45:08.763779,212.48504000063986,212.80116590019315,212.48504000063986,None,None,212.48504000063986,None,213.2843159204349,None,,,,12008,0002,2021_Dec_16_1441,localizer,2021.1.3,59.97206528799478,
block,objects,objects060.bmp,,,,,0,83,83,83,,,,,,,,,,,,,,,,,,,,,,,,,,,,,,,,,,,,,,,,,,None,,213.2843159204349,None,213.2843159204349,None,2021-12-16-14:45:09.564982,213.285360599868,213.5909652998671,213.285360599868,213.285360599868,None,213.285360599868,213.285360599868,214.08468362037092,None,,,,12008,0002,2021_Dec_16_1441,localizer,2021.1.3,59.97206528799478,
block,objects,objects025.bmp,,,,,0,84,84,84,,,,,,,,,,,,,,,,,,,,,,,,,,,,,,,,,,,,,,,,,,None,,214.08468362037092,None,214.08468362037092,None,2021-12-16-14:45:10.367097,214.09968820028007,214.40091930050403,214.09968820028007,214.09968820028007,None,214.09968820028007,214.09968820028007,214.90091612003744,None,,,,12008,0002,2021_Dec_16_1441,localizer,2021.1.3,59.97206528799478,
block,objects,objects074.bmp,,,,,0,85,85,85,,,,,,,,,,,,,,,,,,,,,,,,,,,,,,,,,,,,,,,,,,None,,214.90091612003744,None,214.90091612003744,None,2021-12-16-14:45:11.180348,214.91041460074484,215.21763530001044,214.91041460074484,None,None,214.91041460074484,None,215.7176443208009,None,,,,12008,0002,2021_Dec_16_1441,localizer,2021.1.3,59.97206528799478,
block,objects,objects053.bmp,,,,,0,86,86,86,,,,,,,,,,,,,,,,,,,,,,,,,,,,,,,,,,,,,,,,,,None,,215.7176443208009,None,215.7176443208009,None,2021-12-16-14:45:11.997072,215.71858840063214,216.0344647001475,215.71858840063214,None,None,215.71858840063214,None,216.51767692063004,None,,,,12008,0002,2021_Dec_16_1441,localizer,2021.1.3,59.97206528799478,
block,objects,objects053.bmp,,,,,0,87,87,87,,,,,,,,,,,,,,,,,,,,,,,,,,,,,,,,,,,,,,,,,,None,,216.51767692063004,None,216.51767692063004,None,2021-12-16-14:45:12.800096,216.52074120007455,216.83466120064259,216.52074120007455,216.52074120007455,y,216.52074120007455,216.52074120007455,217.33476522006094,None,0.5069049997255206,,,12008,0002,2021_Dec_16_1441,localizer,2021.1.3,59.97206528799478,
block,objects,objects075.bmp,,,,,0,88,88,88,,,,,,,,,,,,,,,,,,,,,,,,,,,,,,,,,,,,,,,,,,None,,217.33476522006094,None,217.33476522006094,None,2021-12-16-14:45:13.615183,217.34575020056218,217.65082290023565,217.34575020056218,None,None,217.34575020056218,None,218.15146382059902,None,,,,12008,0002,2021_Dec_16_1441,localizer,2021.1.3,59.97206528799478,
block,objects,objects038.bmp,,,,,0,89,89,89,,,,,,,,,,,,,,,,,,,,,,,,,,,,,,,,,,,,,,,,,,None,,218.15146382059902,None,218.15146382059902,None,2021-12-16-14:45:14.432019,218.1534518999979,218.46783810015768,218.1534518999979,None,None,218.1534518999979,None,218.9676845204085,None,,,,12008,0002,2021_Dec_16_1441,localizer,2021.1.3,59.97206528799478,
block_end,objects,objects082.bmp,,,,,0,90,90,90,,,,,,,,,,,,,,,,,,,,,,,,,,,,,,,,,,,,,,,,,,None,,218.9676845204085,None,218.9676845204085,None,2021-12-16-14:45:15.247112,218.9686346007511,219.284289999865,218.9686346007511,None,None,218.9686346007511,None,219.7687582205981,None,,,,12008,0002,2021_Dec_16_1441,localizer,2021.1.3,59.97206528799478,
null_block,null_block,null_block.bmp,,,,,0,91,91,91,,,,,,,,,,,,,,,,,,,,,,,,,,,,,,,,,,,,,,,,,,t,1.8327326998114586,219.76951710041612,None,219.76951710041612,None,2021-12-16-14:45:17.896936,221.61763531994075,None,221.61763531994075,None,None,221.61763531994075,None,221.62017210014164,None,,,,12008,0002,2021_Dec_16_1441,localizer,2021.1.3,59.97206528799478,
block_start,faces,faces034.bmp,,,,,0,92,92,92,,,,,,,,,,,,,,,,,,,,,,,,,,,,,,,,,,,,,,,,,,t,1.9674495002254844,233.63411349989474,None,233.63411349989474,None,2021-12-16-14:45:31.899104,235.6247705006972,235.93486450053751,235.6247705006972,None,None,235.6247705006972,None,236.4343025200069,None,,,,12008,0002,2021_Dec_16_1441,localizer,2021.1.3,59.97206528799478,
block,faces,faces046.bmp,,,,,0,93,93,93,,,,,,,,,,,,,,,,,,,,,,,,,,,,,,,,,,,,,,,,,,None,,236.4343025200069,None,236.4343025200069,None,2021-12-16-14:45:32.713936,236.4352355003357,236.75113090034574,236.4352355003357,None,None,236.4352355003357,None,237.23449842073023,None,,,,12008,0002,2021_Dec_16_1441,localizer,2021.1.3,59.97206528799478,
block,faces,faces061.bmp,,,,,0,94,94,94,,,,,,,,,,,,,,,,,,,,,,,,,,,,,,,,,,,,,,,,,,None,,237.23449842073023,None,237.23449842073023,None,2021-12-16-14:45:33.516140,237.2365838000551,237.55086110066622,237.2365838000551,237.2365838000551,None,237.2365838000551,237.2365838000551,238.051051620394,None,,,,12008,0002,2021_Dec_16_1441,localizer,2021.1.3,59.97206528799478,
block,faces,faces069.bmp,,,,,0,95,95,95,,,,,,,,,,,,,,,,,,,,,,,,,,,,,,,,,,,,,,,,,,None,,238.051051620394,None,238.051051620394,None,2021-12-16-14:45:34.330697,238.06130200065672,238.36781030055135,238.06130200065672,None,None,238.06130200065672,None,238.86881252005696,None,,,,12008,0002,2021_Dec_16_1441,localizer,2021.1.3,59.97206528799478,
block,faces,faces067.bmp,,,,,0,96,96,96,,,,,,,,,,,,,,,,,,,,,,,,,,,,,,,,,,,,,,,,,,None,,238.86881252005696,None,238.86881252005696,None,2021-12-16-14:45:35.149225,238.87164309993386,239.184826400131,238.87164309993386,None,None,238.87164309993386,None,239.68422112055123,None,,,,12008,0002,2021_Dec_16_1441,localizer,2021.1.3,59.97206528799478,
block,faces,faces057.bmp,,,,,0,97,97,97,,,,,,,,,,,,,,,,,,,,,,,,,,,,,,,,,,,,,,,,,,None,,239.68422112055123,None,239.68422112055123,None,2021-12-16-14:45:35.963654,239.6954805003479,240.0010772999376,239.6954805003479,None,None,239.6954805003479,None,240.5010572206229,None,,,,12008,0002,2021_Dec_16_1441,localizer,2021.1.3,59.97206528799478,
block,faces,faces032.bmp,,,,,0,98,98,98,,,,,,,,,,,,,,,,,,,,,,,,,,,,,,,,,,,,,,,,,,None,,240.5010572206229,None,240.5010572206229,None,2021-12-16-14:45:36.780677,240.51124719996005,240.8176690004766,240.51124719996005,None,None,240.51124719996005,None,241.31774172000587,None,,,,12008,0002,2021_Dec_16_1441,localizer,2021.1.3,59.97206528799478,
block,faces,faces036.bmp,,,,,0,99,99,99,,,,,,,,,,,,,,,,,,,,,,,,,,,,,,,,,,,,,,,,,,None,,241.31774172000587,None,241.31774172000587,None,2021-12-16-14:45:37.597172,241.3187132999301,241.63454989995807,241.3187132999301,None,None,241.3187132999301,None,242.1178336199373,None,,,,12008,0002,2021_Dec_16_1441,localizer,2021.1.3,59.97206528799478,
block,faces,faces011.bmp,,,,,0,100,100,100,,,,,,,,,,,,,,,,,,,,,,,,,,,,,,,,,,,,,,,,,,None,,242.1178336199373,None,242.1178336199373,None,2021-12-16-14:45:38.399472,242.13067159987986,242.43449950031936,242.13067159987986,242.13067159987986,None,242.13067159987986,242.13067159987986,242.9342999206856,None,,,,12008,0002,2021_Dec_16_1441,localizer,2021.1.3,59.97206528799478,
block,faces,faces015.bmp,,,,,0,101,101,101,,,,,,,,,,,,,,,,,,,,,,,,,,,,,,,,,,,,,,,,,,None,,242.9342999206856,None,242.9342999206856,None,2021-12-16-14:45:39.213728,242.93544480018318,243.25124720018357,242.93544480018318,None,None,242.93544480018318,None,243.73484022077173,None,,,,12008,0002,2021_Dec_16_1441,localizer,2021.1.3,59.97206528799478,
block,faces,faces089.bmp,,,,,0,102,102,102,,,,,,,,,,,,,,,,,,,,,,,,,,,,,,,,,,,,,,,,,,None,,243.73484022077173,None,243.73484022077173,None,2021-12-16-14:45:40.018250,243.73905660025775,244.05150779988617,243.73905660025775,243.73905660025775,None,243.73905660025775,243.73905660025775,244.55093552079052,None,,,,12008,0002,2021_Dec_16_1441,localizer,2021.1.3,59.97206528799478,
block,faces,faces088.bmp,,,,,0,103,103,103,,,,,,,,,,,,,,,,,,,,,,,,,,,,,,,,,,,,,,,,,,None,,244.55093552079052,None,244.55093552079052,None,2021-12-16-14:45:40.830368,244.55233130045235,244.86773210018873,244.55233130045235,None,None,244.55233130045235,None,245.36779242008924,None,,,,12008,0002,2021_Dec_16_1441,localizer,2021.1.3,59.97206528799478,
block,faces,faces005.bmp,,,,,0,104,104,104,,,,,,,,,,,,,,,,,,,,,,,,,,,,,,,,,,,,,,,,,,None,,245.36779242008924,None,245.36779242008924,None,2021-12-16-14:45:41.647438,245.36877400055528,245.6843095002696,245.36877400055528,None,None,245.36877400055528,None,246.16888522077352,None,,,,12008,0002,2021_Dec_16_1441,localizer,2021.1.3,59.97206528799478,
block,faces,faces022.bmp,,,,,0,105,105,105,,,,,,,,,,,,,,,,,,,,,,,,,,,,,,,,,,,,,,,,,,None,,246.16888522077352,None,246.16888522077352,None,2021-12-16-14:45:42.452428,246.1733400998637,246.48448310047388,246.1733400998637,246.1733400998637,None,246.1733400998637,246.1733400998637,246.98559792060405,None,,,,12008,0002,2021_Dec_16_1441,localizer,2021.1.3,59.97206528799478,
block_end,faces,faces049.bmp,,,,,0,106,106,106,,,,,,,,,,,,,,,,,,,,,,,,,,,,,,,,,,,,,,,,,,None,,246.98559792060405,None,246.98559792060405,None,2021-12-16-14:45:43.267140,246.99917860049754,247.30125030037016,246.99917860049754,None,None,246.99917860049754,None,247.8013249207288,None,,,,12008,0002,2021_Dec_16_1441,localizer,2021.1.3,59.97206528799478,
block_start,scenes,scenes092.bmp,,,,,0,107,107,107,,,,,,,,,,,,,,,,,,,,,,,,,,,,,,,,,,,,,,,,,,t,1.8003444001078606,247.80123900063336,None,247.80123900063336,None,2021-12-16-14:45:45.895987,249.6188489999622,249.9345569005236,249.6188489999622,None,None,249.6188489999622,None,250.4341976204887,None,,,,12008,0002,2021_Dec_16_1441,localizer,2021.1.3,59.97206528799478,
block,scenes,scenes003.bmp,,,,,0,108,108,108,,,,,,,,,,,,,,,,,,,,,,,,,,,,,,,,,,,,,,,,,,None,,250.4341976204887,None,250.4341976204887,None,2021-12-16-14:45:46.713630,250.44512710068375,250.75134730059654,250.44512710068375,None,None,250.44512710068375,None,251.25107622053474,None,,,,12008,0002,2021_Dec_16_1441,localizer,2021.1.3,59.97206528799478,
block,scenes,scenes019.bmp,,,,,0,109,109,109,,,,,,,,,,,,,,,,,,,,,,,,,,,,,,,,,,,,,,,,,,None,,251.25107622053474,None,251.25107622053474,None,2021-12-16-14:45:47.530734,251.2521537002176,251.56784860044718,251.2521537002176,None,None,251.2521537002176,None,252.05378891993314,None,,,,12008,0002,2021_Dec_16_1441,localizer,2021.1.3,59.97206528799478,
block,scenes,scenes025.bmp,,,,,0,110,110,110,,,,,,,,,,,,,,,,,,,,,,,,,,,,,,,,,,,,,,,,,,None,,252.05378891993314,None,252.05378891993314,None,2021-12-16-14:45:48.339363,252.07721390016377,252.38454860076308,252.07721390016377,252.07721390016377,None,252.07721390016377,252.07721390016377,252.86788812000304,None,,,,12008,0002,2021_Dec_16_1441,localizer,2021.1.3,59.97206528799478,
block,scenes,scenes086.bmp,,,,,0,111,111,111,,,,,,,,,,,,,,,,,,,,,,,,,,,,,,,,,,,,,,,,,,None,,252.86788812000304,None,252.86788812000304,None,2021-12-16-14:45:49.147536,252.86885820049793,253.16824010014534,252.86885820049793,None,None,252.86885820049793,None,253.66790091991425,None,,,,12008,0002,2021_Dec_16_1441,localizer,2021.1.3,59.97206528799478,
block,scenes,scenes016.bmp,,,,,0,112,112,112,,,,,,,,,,,,,,,,,,,,,,,,,,,,,,,,,,,,,,,,,,None,,253.66790091991425,None,253.66790091991425,None,2021-12-16-14:45:49.950318,253.68620780017227,254.00749520026147,253.68620780017227,253.68620780017227,None,253.68620780017227,253.68620780017227,254.48565612081438,None,,,,12008,0002,2021_Dec_16_1441,localizer,2021.1.3,59.97206528799478,
block,scenes,scenes058.bmp,,,,,0,113,113,113,,,,,,,,,,,,,,,,,,,,,,,,,,,,,,,,,,,,,,,,,,None,,254.48565612081438,None,254.48565612081438,None,2021-12-16-14:45:50.767156,254.50026100035757,254.80119470041245,254.50026100035757,None,None,254.50026100035757,None,255.30113072041422,None,,,,12008,0002,2021_Dec_16_1441,localizer,2021.1.3,59.97206528799478,
block,scenes,scenes064.bmp,,,,,0,114,114,114,,,,,,,,,,,,,,,,,,,,,,,,,,,,,,,,,,,,,,,,,,None,,255.30113072041422,None,255.30113072041422,None,2021-12-16-14:45:51.580793,255.31175009999424,255.61776630021632,255.31175009999424,None,None,255.31175009999424,None,256.118581620045,None,,,,12008,0002,2021_Dec_16_1441,localizer,2021.1.3,59.97206528799478,
block,scenes,scenes015.bmp,,,,,0,115,115,115,,,,,,,,,,,,,,,,,,,,,,,,,,,,,,,,,,,,,,,,,,None,,256.118581620045,None,256.118581620045,None,2021-12-16-14:45:52.399873,256.1216962998733,256.4350588005036,256.1216962998733,None,None,256.1216962998733,None,256.934432820417,None,,,,12008,0002,2021_Dec_16_1441,localizer,2021.1.3,59.97206528799478,
block,scenes,scenes077.bmp,,,,,0,116,116,116,,,,,,,,,,,,,,,,,,,,,,,,,,,,,,,,,,,,,,,,,,None,,256.934432820417,None,256.934432820417,None,2021-12-16-14:45:53.213863,256.9356388002634,257.251367200166,256.9356388002634,None,None,256.9356388002634,None,257.75093501992524,None,,,,12008,0002,2021_Dec_16_1441,localizer,2021.1.3,59.97206528799478,
block,scenes,scenes091.bmp,,,,,0,117,117,117,,,,,,,,,,,,,,,,,,,,,,,,,,,,,,,,,,,,,,,,,,None,,257.75093501992524,None,257.75093501992524,None,2021-12-16-14:45:54.030369,257.7521035000682,258.0679002003744,257.7521035000682,None,None,257.7521035000682,None,258.56776871997863,None,,,,12008,0002,2021_Dec_16_1441,localizer,2021.1.3,59.97206528799478,
block,scenes,scenes062.bmp,,,,,0,118,118,118,,,,,,,,,,,,,,,,,,,,,,,,,,,,,,,,,,,,,,,,,,None,,258.56776871997863,None,258.56776871997863,None,2021-12-16-14:45:54.847200,258.5689652003348,258.8846535999328,258.5689652003348,None,None,258.5689652003348,None,259.38437901996076,None,,,,12008,0002,2021_Dec_16_1441,localizer,2021.1.3,59.97206528799478,
block,scenes,scenes074.bmp,,,,,0,119,119,119,,,,,,,,,,,,,,,,,,,,,,,,,,,,,,,,,,,,,,,,,,None,,259.38437901996076,None,259.38437901996076,None,2021-12-16-14:45:55.664426,259.3944300999865,259.70114160049707,259.3944300999865,None,None,259.3944300999865,None,260.2012959206477,None,,,,12008,0002,2021_Dec_16_1441,localizer,2021.1.3,59.97206528799478,
block,scenes,scenes061.bmp,,,,,0,120,120,120,,,,,,,,,,,,,,,,,,,,,,,,,,,,,,,,,,,,,,,,,,None,,260.2012959206477,None,260.2012959206477,None,2021-12-16-14:45:56.480705,260.20221330039203,260.51800000015646,260.20221330039203,None,None,260.20221330039203,None,261.01798871997744,None,,,,12008,0002,2021_Dec_16_1441,localizer,2021.1.3,59.97206528799478,
block_end,scenes,scenes041.bmp,,,,,0,121,121,121,,,,,,,,,,,,,,,,,,,,,,,,,,,,,,,,,,,,,,,,,,None,,261.01798871997744,None,261.01798871997744,None,2021-12-16-14:45:57.297418,261.01888089999557,261.31855130009353,261.01888089999557,None,None,261.01888089999557,None,261.81822052039206,None,,,,12008,0002,2021_Dec_16_1441,localizer,2021.1.3,59.97206528799478,
null_block,null_block,null_block.bmp,,,,,0,122,122,122,,,,,,,,,,,,,,,,,,,,,,,,,,,,,,,,,,,,,,,,,,t,1.7832975005730987,261.81874310038984,None,261.81874310038984,None,2021-12-16-14:45:59.896164,263.61785012017936,None,263.61785012017936,None,None,263.61785012017936,None,263.62058460060507,None,,,,12008,0002,2021_Dec_16_1441,localizer,2021.1.3,59.97206528799478,
block_start,faces,faces070.bmp,,,,,0,123,123,123,,,,,,,,,,,,,,,,,,,,,,,,,,,,,,,,,,,,,,,,,,t,1.96741299983114,275.6344544002786,None,275.6344544002786,None,2021-12-16-14:46:13.899843,277.63159710075706,277.934711500071,277.63159710075706,None,None,277.63159710075706,None,278.43474522046745,None,,,,12008,0002,2021_Dec_16_1441,localizer,2021.1.3,59.97206528799478,
block,faces,faces081.bmp,,,,,0,124,124,124,,,,,,,,,,,,,,,,,,,,,,,,,,,,,,,,,,,,,,,,,,None,,278.43474522046745,None,278.43474522046745,None,2021-12-16-14:46:14.714408,278.4355586003512,278.73500240035355,278.4355586003512,None,None,278.4355586003512,None,279.234731820412,None,,,,12008,0002,2021_Dec_16_1441,localizer,2021.1.3,59.97206528799478,
block,faces,faces039.bmp,,,,,0,125,125,125,,,,,,,,,,,,,,,,,,,,,,,,,,,,,,,,,,,,,,,,,,None,,279.234731820412,None,279.234731820412,None,2021-12-16-14:46:15.516341,279.23669140040874,279.55506250075996,279.23669140040874,279.23669140040874,None,279.23669140040874,279.23669140040874,280.0517114205286,None,,,,12008,0002,2021_Dec_16_1441,localizer,2021.1.3,59.97206528799478,
block,faces,faces011.bmp,,,,,0,126,126,126,,,,,,,,,,,,,,,,,,,,,,,,,,,,,,,,,,,,,,,,,,None,,280.0517114205286,None,280.0517114205286,None,2021-12-16-14:46:16.331224,280.05289509985596,280.36802429985255,280.05289509985596,None,None,280.05289509985596,None,280.8678728202358,None,,,,12008,0002,2021_Dec_16_1441,localizer,2021.1.3,59.97206528799478,
block,faces,faces080.bmp,,,,,0,127,127,127,,,,,,,,,,,,,,,,,,,,,,,,,,,,,,,,,,,,,,,,,,None,,280.8678728202358,None,280.8678728202358,None,2021-12-16-14:46:17.147304,280.86981020029634,281.18468170054257,280.86981020029634,None,None,280.86981020029634,None,281.68429942056537,None,,,,12008,0002,2021_Dec_16_1441,localizer,2021.1.3,59.97206528799478,
block,faces,faces003.bmp,,,,,0,128,128,128,,,,,,,,,,,,,,,,,,,,,,,,,,,,,,,,,,,,,,,,,,None,,281.68429942056537,None,281.68429942056537,None,2021-12-16-14:46:17.963736,281.6863696007058,282.00116220023483,281.6863696007058,None,None,281.6863696007058,None,282.5011796206236,None,,,,12008,0002,2021_Dec_16_1441,localizer,2021.1.3,59.97206528799478,
block,faces,faces051.bmp,,,,,0,129,129,129,,,,,,,,,,,,,,,,,,,,,,,,,,,,,,,,,,,,,,,,,,None,,282.5011796206236,None,282.5011796206236,None,2021-12-16-14:46:18.780610,282.5024140998721,282.81814180035144,282.5024140998721,None,None,282.5024140998721,None,283.317870920524,None,,,,12008,0002,2021_Dec_16_1441,localizer,2021.1.3,59.97206528799478,
block,faces,faces060.bmp,,,,,0,130,130,130,,,,,,,,,,,,,,,,,,,,,,,,,,,,,,,,,,,,,,,,,,None,,283.317870920524,None,283.317870920524,None,2021-12-16-14:46:19.597304,283.3191750003025,283.63471940066665,283.3191750003025,None,None,283.3191750003025,None,284.1208276199177,None,,,,12008,0002,2021_Dec_16_1441,localizer,2021.1.3,59.97206528799478,
block,faces,faces067.bmp,,,,,0,131,131,131,,,,,,,,,,,,,,,,,,,,,,,,,,,,,,,,,,,,,,,,,,None,,284.1208276199177,None,284.1208276199177,None,2021-12-16-14:46:20.404324,284.1243246002123,284.4351460998878,284.1243246002123,284.1243246002123,None,284.1243246002123,284.1243246002123,284.93472882080823,None,,,,12008,0002,2021_Dec_16_1441,localizer,2021.1.3,59.97206528799478,
block,faces,faces016.bmp,,,,,0,132,132,132,,,,,,,,,,,,,,,,,,,,,,,,,,,,,,,,,,,,,,,,,,None,,284.93472882080823,None,284.93472882080823,None,2021-12-16-14:46:21.214355,284.9358686003834,285.2512766001746,284.9358686003834,None,None,284.9358686003834,None,285.75113342050463,None,,,,12008,0002,2021_Dec_16_1441,localizer,2021.1.3,59.97206528799478,
block,faces,faces024.bmp,,,,,0,133,133,133,,,,,,,,,,,,,,,,,,,,,,,,,,,,,,,,,,,,,,,,,,None,,285.75113342050463,None,285.75113342050463,None,2021-12-16-14:46:22.030615,285.7524479003623,286.0751250004396,285.7524479003623,None,None,285.7524479003623,None,286.5680925203487,None,,,,12008,0002,2021_Dec_16_1441,localizer,2021.1.3,59.97206528799478,
block,faces,faces085.bmp,,,,,0,134,134,134,,,,,,,,,,,,,,,,,,,,,,,,,,,,,,,,,,,,,,,,,,None,,286.5680925203487,None,286.5680925203487,None,2021-12-16-14:46:22.847535,286.57717150077224,286.88495300058275,286.57717150077224,None,None,286.57717150077224,None,287.3847105205059,None,,,,12008,0002,2021_Dec_16_1441,localizer,2021.1.3,59.97206528799478,
block,faces,faces041.bmp,,,,,0,135,135,135,,,,,,,,,,,,,,,,,,,,,,,,,,,,,,,,,,,,,,,,,,None,,287.3847105205059,None,287.3847105205059,None,2021-12-16-14:46:23.664139,287.3951113000512,287.7013749005273,287.3951113000512,None,None,287.3951113000512,None,288.2011816203594,None,,,,12008,0002,2021_Dec_16_1441,localizer,2021.1.3,59.97206528799478,
block,faces,faces025.bmp,,,,,0,136,136,136,,,,,,,,,,,,,,,,,,,,,,,,,,,,,,,,,,,,,,,,,,None,,288.2011816203594,None,288.2011816203594,None,2021-12-16-14:46:24.480613,288.20244699995965,288.51810060068965,288.20244699995965,None,None,288.20244699995965,None,289.0179437203333,None,,,,12008,0002,2021_Dec_16_1441,localizer,2021.1.3,59.97206528799478,
block_end,faces,faces018.bmp,,,,,0,137,137,137,,,,,,,,,,,,,,,,,,,,,,,,,,,,,,,,,,,,,,,,,,None,,289.0179437203333,None,289.0179437203333,None,2021-12-16-14:46:25.297569,289.01912770047784,289.3349103005603,289.01912770047784,None,None,289.01912770047784,None,289.8345643207431,None,,,,12008,0002,2021_Dec_16_1441,localizer,2021.1.3,59.97206528799478,
block_start,scenes,scenes032.bmp,,,,,0,138,138,138,,,,,,,,,,,,,,,,,,,,,,,,,,,,,,,,,,,,,,,,,,t,1.7661785995587707,289.83476340025663,None,289.83476340025663,None,2021-12-16-14:46:27.896874,291.61932890024036,291.91851059999317,291.61932890024036,None,None,291.61932890024036,None,292.4185776207596,None,,,,12008,0002,2021_Dec_16_1441,localizer,2021.1.3,59.97206528799478,
block,scenes,scenes003.bmp,,,,,0,139,139,139,,,,,,,,,,,,,,,,,,,,,,,,,,,,,,,,,,,,,,,,,,None,,292.4185776207596,None,292.4185776207596,None,2021-12-16-14:46:28.700075,292.42094000056386,292.7355596004054,292.42094000056386,292.42094000056386,None,292.42094000056386,292.42094000056386,293.23442242015153,None,,,,12008,0002,2021_Dec_16_1441,localizer,2021.1.3,59.97206528799478,
block,scenes,scenes041.bmp,,,,,0,140,140,140,,,,,,,,,,,,,,,,,,,,,,,,,,,,,,,,,,,,,,,,,,None,,293.23442242015153,None,293.23442242015153,None,2021-12-16-14:46:29.513520,293.23564890027046,293.5349908005446,293.23564890027046,None,None,293.23564890027046,None,294.0347012206912,None,,,,12008,0002,2021_Dec_16_1441,localizer,2021.1.3,59.97206528799478,
block,scenes,scenes066.bmp,,,,,0,141,141,141,,,,,,,,,,,,,,,,,,,,,,,,,,,,,,,,,,,,,,,,,,None,,294.0347012206912,None,294.0347012206912,None,2021-12-16-14:46:30.316325,294.03577660024166,294.3351180003956,294.03577660024166,294.03577660024166,None,294.03577660024166,294.03577660024166,294.83547762036324,None,,,,12008,0002,2021_Dec_16_1441,localizer,2021.1.3,59.97206528799478,
block,scenes,scenes057.bmp,,,,,0,142,142,142,,,,,,,,,,,,,,,,,,,,,,,,,,,,,,,,,,,,,,,,,,None,,294.83547762036324,None,294.83547762036324,None,2021-12-16-14:46:31.119042,294.83904420025647,295.15133140049875,294.83904420025647,294.83904420025647,None,294.83904420025647,294.83904420025647,295.65121022053063,None,,,,12008,0002,2021_Dec_16_1441,localizer,2021.1.3,59.97206528799478,
block,scenes,scenes071.bmp,,,,,0,143,143,143,,,,,,,,,,,,,,,,,,,,,,,,,,,,,,,,,,,,,,,,,,None,,295.65121022053063,None,295.65121022053063,None,2021-12-16-14:46:31.930642,295.6607304001227,295.9681329000741,295.6607304001227,None,None,295.6607304001227,None,296.4715268202126,None,,,,12008,0002,2021_Dec_16_1441,localizer,2021.1.3,59.97206528799478,
block,scenes,scenes017.bmp,,,,,0,144,144,144,,,,,,,,,,,,,,,,,,,,,,,,,,,,,,,,,,,,,,,,,,None,,296.4715268202126,None,296.4715268202126,None,2021-12-16-14:46:32.753958,296.47508930042386,296.7850914001465,296.47508930042386,None,None,296.47508930042386,None,297.2848154203966,None,,,,12008,0002,2021_Dec_16_1441,localizer,2021.1.3,59.97206528799478,
block,scenes,scenes046.bmp,,,,,0,145,145,145,,,,,,,,,,,,,,,,,,,,,,,,,,,,,,,,,,,,,,,,,,None,,297.2848154203966,None,297.2848154203966,None,2021-12-16-14:46:33.564839,297.29133130051196,297.601357200183,297.29133130051196,None,None,297.29133130051196,None,298.10136252082884,None,,,,12008,0002,2021_Dec_16_1441,localizer,2021.1.3,59.97206528799478,
block,scenes,scenes061.bmp,,,,,0,146,146,146,,,,,,,,,,,,,,,,,,,,,,,,,,,,,,,,,,,,,,,,,,None,,298.10136252082884,None,298.10136252082884,None,2021-12-16-14:46:34.380984,298.1024844003841,298.41820580046624,298.1024844003841,None,None,298.1024844003841,None,298.91785252001137,None,,,,12008,0002,2021_Dec_16_1441,localizer,2021.1.3,59.97206528799478,
block,scenes,scenes061.bmp,,,,,0,147,147,147,,,,,,,,,,,,,,,,,,,,,,,,,,,,,,,,,,,,,,,,,,None,,298.91785252001137,None,298.91785252001137,None,2021-12-16-14:46:35.197283,298.9191083004698,299.21860270015895,298.9191083004698,None,y,298.9191083004698,None,299.7345614200458,None,0.6085341004654765,,,12008,0002,2021_Dec_16_1441,localizer,2021.1.3,59.97206528799478,
block,scenes,scenes023.bmp,,,,,0,148,148,148,,,,,,,,,,,,,,,,,,,,,,,,,,,,,,,,,,,,,,,,,,None,,299.7345614200458,None,299.7345614200458,None,2021-12-16-14:46:36.013994,299.7442794004455,300.05157459992915,299.7442794004455,None,None,299.7442794004455,None,300.5524624204263,None,,,,12008,0002,2021_Dec_16_1441,localizer,2021.1.3,59.97206528799478,
block,scenes,scenes076.bmp,,,,,0,149,149,149,,,,,,,,,,,,,,,,,,,,,,,,,,,,,,,,,,,,,,,,,,None,,300.5524624204263,None,300.5524624204263,None,2021-12-16-14:46:36.832874,300.55231580045074,300.868105600588,300.55231580045074,None,None,300.55231580045074,None,301.3517916202545,None,,,,12008,0002,2021_Dec_16_1441,localizer,2021.1.3,59.97206528799478,
block,scenes,scenes087.bmp,,,,,0,150,150,150,,,,,,,,,,,,,,,,,,,,,,,,,,,,,,,,,,,,,,,,,,None,,301.3517916202545,None,301.3517916202545,None,2021-12-16-14:46:37.633396,301.354156200774,301.654177300632,301.354156200774,301.354156200774,None,301.354156200774,301.354156200774,302.16862122062594,None,,,,12008,0002,2021_Dec_16_1441,localizer,2021.1.3,59.97206528799478,
block,scenes,scenes002.bmp,,,,,0,151,151,151,,,,,,,,,,,,,,,,,,,,,,,,,,,,,,,,,,,,,,,,,,None,,302.16862122062594,None,302.16862122062594,None,2021-12-16-14:46:38.448666,302.16972730029374,302.46884210035205,302.16972730029374,None,None,302.16972730029374,None,302.9854286201298,None,,,,12008,0002,2021_Dec_16_1441,localizer,2021.1.3,59.97206528799478,
block_end,scenes,scenes016.bmp,,,,,0,152,152,152,,,,,,,,,,,,,,,,,,,,,,,,,,,,,,,,,,,,,,,,,,None,,302.9854286201298,None,302.9854286201298,None,2021-12-16-14:46:39.264832,302.98647799994797,303.30220980010927,302.98647799994797,None,None,302.98647799994797,None,303.8013363201171,None,,,,12008,0002,2021_Dec_16_1441,localizer,2021.1.3,59.97206528799478,
block_start,scrambled,scrambled002.bmp,,,,,0,153,153,153,,,,,,,,,,,,,,,,,,,,,,,,,,,,,,,,,,,,,,,,,,t,1.799073800444603,303.80155620072037,None,303.80155620072037,None,2021-12-16-14:46:41.895725,305.6203126003966,305.93539280071855,305.6203126003966,None,None,305.6203126003966,None,306.4345938200131,None,,,,12008,0002,2021_Dec_16_1441,localizer,2021.1.3,59.97206528799478,
block,scrambled,scrambled031.bmp,,,,,0,154,154,154,,,,,,,,,,,,,,,,,,,,,,,,,,,,,,,,,,,,,,,,,,None,,306.4345938200131,None,306.4345938200131,None,2021-12-16-14:46:42.714025,306.4366274001077,306.7514174999669,306.4366274001077,None,None,306.4366274001077,None,307.2519268207252,None,,,,12008,0002,2021_Dec_16_1441,localizer,2021.1.3,59.97206528799478,
block,scrambled,scrambled023.bmp,,,,,0,155,155,155,,,,,,,,,,,,,,,,,,,,,,,,,,,,,,,,,,,,,,,,,,None,,307.2519268207252,None,307.2519268207252,None,2021-12-16-14:46:43.531415,307.26289989985526,307.5685264999047,307.26289989985526,None,None,307.26289989985526,None,308.06828522030264,None,,,,12008,0002,2021_Dec_16_1441,localizer,2021.1.3,59.97206528799478,
block,scrambled,scrambled012.bmp,,,,,0,156,156,156,,,,,,,,,,,,,,,,,,,,,,,,,,,,,,,,,,,,,,,,,,None,,308.06828522030264,None,308.06828522030264,None,2021-12-16-14:46:44.346726,308.0693893004209,308.38473950047046,308.0693893004209,None,None,308.0693893004209,None,308.8687194203958,None,,,,12008,0002,2021_Dec_16_1441,localizer,2021.1.3,59.97206528799478,
block,scrambled,scrambled048.bmp,,,,,0,157,157,157,,,,,,,,,,,,,,,,,,,,,,,,,,,,,,,,,,,,,,,,,,None,,308.8687194203958,None,308.8687194203958,None,2021-12-16-14:46:45.150086,308.87079139985144,309.18480570055544,308.87079139985144,308.87079139985144,None,308.87079139985144,308.87079139985144,309.68452042061836,None,,,,12008,0002,2021_Dec_16_1441,localizer,2021.1.3,59.97206528799478,
block,scrambled,scrambled018.bmp,,,,,0,158,158,158,,,,,,,,,,,,,,,,,,,,,,,,,,,,,,,,,,,,,,,,,,None,,309.68452042061836,None,309.68452042061836,None,2021-12-16-14:46:45.963298,309.6867828005925,310.00159180071205,309.6867828005925,None,None,309.6867828005925,None,310.50153602007776,None,,,,12008,0002,2021_Dec_16_1441,localizer,2021.1.3,59.97206528799478,
block,scrambled,scrambled075.bmp,,,,,0,159,159,159,,,,,,,,,,,,,,,,,,,,,,,,,,,,,,,,,,,,,,,,,,None,,310.50153602007776,None,310.50153602007776,None,2021-12-16-14:46:46.780965,310.50263950042427,310.8182427007705,310.50263950042427,None,None,310.50263950042427,None,311.30266862083226,None,,,,12008,0002,2021_Dec_16_1441,localizer,2021.1.3,59.97206528799478,
block,scrambled,scrambled039.bmp,,,,,0,160,160,160,,,,,,,,,,,,,,,,,,,,,,,,,,,,,,,,,,,,,,,,,,None,,311.30266862083226,None,311.30266862083226,None,2021-12-16-14:46:47.585193,311.30519490037113,311.6181093007326,311.30519490037113,311.30519490037113,None,311.30519490037113,311.30519490037113,312.11811202019453,None,,,,12008,0002,2021_Dec_16_1441,localizer,2021.1.3,59.97206528799478,
block,scrambled,scrambled010.bmp,,,,,0,161,161,161,,,,,,,,,,,,,,,,,,,,,,,,,,,,,,,,,,,,,,,,,,None,,312.11811202019453,None,312.11811202019453,None,2021-12-16-14:46:48.397918,312.11902500037104,312.41846150066704,312.11902500037104,None,None,312.11902500037104,None,312.9349243203178,None,,,,12008,0002,2021_Dec_16_1441,localizer,2021.1.3,59.97206528799478,
block,scrambled,scrambled064.bmp,,,,,0,162,162,162,,,,,,,,,,,,,,,,,,,,,,,,,,,,,,,,,,,,,,,,,,None,,312.9349243203178,None,312.9349243203178,None,2021-12-16-14:46:49.214556,312.93577900063246,313.23516200017184,312.93577900063246,None,None,312.93577900063246,None,313.7522736201063,None,,,,12008,0002,2021_Dec_16_1441,localizer,2021.1.3,59.97206528799478,
block,scrambled,scrambled029.bmp,,,,,0,163,163,163,,,,,,,,,,,,,,,,,,,,,,,,,,,,,,,,,,,,,,,,,,None,,313.7522736201063,None,313.7522736201063,None,2021-12-16-14:46:50.031692,313.75307770073414,314.06824420019984,313.75307770073414,None,None,313.75307770073414,None,314.5684756208211,None,,,,12008,0002,2021_Dec_16_1441,localizer,2021.1.3,59.97206528799478,
block,scrambled,scrambled011.bmp,,,,,0,164,164,164,,,,,,,,,,,,,,,,,,,,,,,,,,,,,,,,,,,,,,,,,,None,,314.5684756208211,None,314.5684756208211,None,2021-12-16-14:46:50.848082,314.6066939001903,314.91856360062957,314.6066939001903,None,None,314.6066939001903,None,315.3850314207375,None,,,,12008,0002,2021_Dec_16_1441,localizer,2021.1.3,59.97206528799478,
block,scrambled,scrambled066.bmp,,,,,0,165,165,165,,,,,,,,,,,,,,,,,,,,,,,,,,,,,,,,,,,,,,,,,,None,,315.3850314207375,None,315.3850314207375,None,2021-12-16-14:46:51.664633,315.39509260002524,315.7017711000517,315.39509260002524,None,None,315.39509260002524,None,316.2013528207317,None,,,,12008,0002,2021_Dec_16_1441,localizer,2021.1.3,59.97206528799478,
block,scrambled,scrambled027.bmp,,,,,0,166,166,166,,,,,,,,,,,,,,,,,,,,,,,,,,,,,,,,,,,,,,,,,,None,,316.2013528207317,None,316.2013528207317,None,2021-12-16-14:46:52.480785,316.2099003000185,316.51827780064195,316.2099003000185,None,None,316.2099003000185,None,317.0187536207959,None,,,,12008,0002,2021_Dec_16_1441,localizer,2021.1.3,59.97206528799478,
block_end,scrambled,scrambled058.bmp,,,,,0,167,167,167,,,,,,,,,,,,,,,,,,,,,,,,,,,,,,,,,,,,,,,,,,None,,317.0187536207959,None,317.0187536207959,None,2021-12-16-14:46:53.298156,317.0194874005392,317.3189783003181,317.0194874005392,None,None,317.0194874005392,None,317.8347047204152,None,,,,12008,0002,2021_Dec_16_1441,localizer,2021.1.3,59.97206528799478,
block_start,objects,objects028.bmp,,,,,0,168,168,168,,,,,,,,,,,,,,,,,,,,,,,,,,,,,,,,,,,,,,,,,,t,1.765968699939549,317.83502000011504,None,317.83502000011504,None,2021-12-16-14:46:55.898196,319.62887920066714,319.93497040029615,319.62887920066714,None,None,319.62887920066714,None,320.43474902026355,None,,,,12008,0002,2021_Dec_16_1441,localizer,2021.1.3,59.97206528799478,
block,objects,objects034.bmp,,,,,0,169,169,169,,,,,,,,,,,,,,,,,,,,,,,,,,,,,,,,,,,,,,,,,,None,,320.43474902026355,None,320.43474902026355,None,2021-12-16-14:46:56.714383,320.4359913999215,320.751705000177,320.4359913999215,None,None,320.4359913999215,None,321.2511900207028,None,,,,12008,0002,2021_Dec_16_1441,localizer,2021.1.3,59.97206528799478,
block,objects,objects043.bmp,,,,,0,170,170,170,,,,,,,,,,,,,,,,,,,,,,,,,,,,,,,,,,,,,,,,,,None,,321.2511900207028,None,321.2511900207028,None,2021-12-16-14:46:57.529630,321.2591721005738,321.5755986003205,321.2591721005738,None,None,321.2591721005738,None,322.06933452002704,None,,,,12008,0002,2021_Dec_16_1441,localizer,2021.1.3,59.97206528799478,
block,objects,objects052.bmp,,,,,0,171,171,171,,,,,,,,,,,,,,,,,,,,,,,,,,,,,,,,,,,,,,,,,,None,,322.06933452002704,None,322.06933452002704,None,2021-12-16-14:46:58.347643,322.0693097002804,322.38489150069654,322.0693097002804,None,None,322.0693097002804,None,322.8849492203444,None,,,,12008,0002,2021_Dec_16_1441,localizer,2021.1.3,59.97206528799478,
block,objects,objects053.bmp,,,,,0,172,172,172,,,,,,,,,,,,,,,,,,,,,,,,,,,,,,,,,,,,,,,,,,None,,322.8849492203444,None,322.8849492203444,None,2021-12-16-14:46:59.164599,322.8858956005424,323.20195259992033,322.8858956005424,None,None,322.8858956005424,None,323.7018376206979,None,,,,12008,0002,2021_Dec_16_1441,localizer,2021.1.3,59.97206528799478,
block,objects,objects003.bmp,,,,,0,173,173,173,,,,,,,,,,,,,,,,,,,,,,,,,,,,,,,,,,,,,,,,,,None,,323.7018376206979,None,323.7018376206979,None,2021-12-16-14:46:59.981247,323.7025421001017,324.01834420021623,323.7025421001017,None,None,323.7025421001017,None,324.5017944201827,None,,,,12008,0002,2021_Dec_16_1441,localizer,2021.1.3,59.97206528799478,
block,objects,objects086.bmp,,,,,0,174,174,174,,,,,,,,,,,,,,,,,,,,,,,,,,,,,,,,,,,,,,,,,,None,,324.5017944201827,None,324.5017944201827,None,2021-12-16-14:47:00.782414,324.51135610044,324.8193717999384,324.51135610044,324.51135610044,None,324.51135610044,324.51135610044,325.31788902077824,None,,,,12008,0002,2021_Dec_16_1441,localizer,2021.1.3,59.97206528799478,
block,objects,objects020.bmp,,,,,0,175,175,175,,,,,,,,,,,,,,,,,,,,,,,,,,,,,,,,,,,,,,,,,,None,,325.31788902077824,None,325.31788902077824,None,2021-12-16-14:47:01.597321,325.31917100027204,325.6348667005077,325.31917100027204,None,None,325.31917100027204,None,326.1181909199804,None,,,,12008,0002,2021_Dec_16_1441,localizer,2021.1.3,59.97206528799478,
block,objects,objects029.bmp,,,,,0,176,176,176,,,,,,,,,,,,,,,,,,,,,,,,,,,,,,,,,,,,,,,,,,None,,326.1181909199804,None,326.1181909199804,None,2021-12-16-14:47:02.399804,326.11921020038426,326.4351075999439,326.11921020038426,326.11921020038426,None,326.11921020038426,326.11921020038426,326.9186638202518,None,,,,12008,0002,2021_Dec_16_1441,localizer,2021.1.3,59.97206528799478,
block,objects,objects050.bmp,,,,,0,177,177,177,,,,,,,,,,,,,,,,,,,,,,,,,,,,,,,,,,,,,,,,,,None,,326.9186638202518,None,326.9186638202518,None,2021-12-16-14:47:03.201211,326.931686299853,327.23484660033137,326.931686299853,326.931686299853,None,326.931686299853,326.931686299853,327.7347044199705,None,,,,12008,0002,2021_Dec_16_1441,localizer,2021.1.3,59.97206528799478,
block,objects,objects035.bmp,,,,,0,178,178,178,,,,,,,,,,,,,,,,,,,,,,,,,,,,,,,,,,,,,,,,,,None,,327.7347044199705,None,327.7347044199705,None,2021-12-16-14:47:04.014326,327.73601280059665,328.0524973003194,327.73601280059665,None,None,327.73601280059665,None,328.5354792205617,None,,,,12008,0002,2021_Dec_16_1441,localizer,2021.1.3,59.97206528799478,
block,objects,objects023.bmp,,,,,0,179,179,179,,,,,,,,,,,,,,,,,,,,,,,,,,,,,,,,,,,,,,,,,,None,,328.5354792205617,None,328.5354792205617,None,2021-12-16-14:47:04.816919,328.53753740061074,328.85238170064986,328.53753740061074,328.53753740061074,None,328.53753740061074,328.53753740061074,329.3517241207883,None,,,,12008,0002,2021_Dec_16_1441,localizer,2021.1.3,59.97206528799478,
block,objects,objects059.bmp,,,,,0,180,180,180,,,,,,,,,,,,,,,,,,,,,,,,,,,,,,,,,,,,,,,,,,None,,329.3517241207883,None,329.3517241207883,None,2021-12-16-14:47:05.631410,329.3622195003554,329.667969699949,329.3622195003554,None,None,329.3622195003554,None,330.1686704205349,None,,,,12008,0002,2021_Dec_16_1441,localizer,2021.1.3,59.97206528799478,
block,objects,objects018.bmp,,,,,0,181,181,181,,,,,,,,,,,,,,,,,,,,,,,,,,,,,,,,,,,,,,,,,,None,,330.1686704205349,None,330.1686704205349,None,2021-12-16-14:47:06.448075,330.1780678005889,330.48490330018103,330.1780678005889,None,None,330.1780678005889,None,330.9860307201743,None,,,,12008,0002,2021_Dec_16_1441,localizer,2021.1.3,59.97206528799478,
block_end,objects,objects024.bmp,,,,,0,182,182,182,,,,,,,,,,,,,,,,,,,,,,,,,,,,,,,,,,,,,,,,,,None,,330.9860307201743,None,330.9860307201743,None,2021-12-16-14:47:07.266596,330.99863300006837,331.30160330049694,330.99863300006837,None,None,330.99863300006837,None,331.8017274206504,None,,,,12008,0002,2021_Dec_16_1441,localizer,2021.1.3,59.97206528799478,
null_block,null_block,null_block.bmp,,,,,0,183,183,183,,,,,,,,,,,,,,,,,,,,,,,,,,,,,,,,,,,,,,,,,,t,1.7987401001155376,331.80204130057245,None,331.80204130057245,None,2021-12-16-14:47:09.895067,333.6176180206239,None,333.6176180206239,None,None,333.6176180206239,None,333.61920090019703,None,,,,12008,0002,2021_Dec_16_1441,localizer,2021.1.3,59.97206528799478,
block_start,scrambled,scrambled026.bmp,,,,,0,184,184,184,,,,,,,,,,,,,,,,,,,,,,,,,,,,,,,,,,,,,,,,,,t,1.978960799984634,345.62186919990927,None,345.62186919990927,None,2021-12-16-14:47:23.901621,347.6219830000773,347.9349926998839,347.6219830000773,None,None,347.6219830000773,None,348.4347622208297,None,,,,12008,0002,2021_Dec_16_1441,localizer,2021.1.3,59.97206528799478,
block,scrambled,scrambled075.bmp,,,,,0,185,185,185,,,,,,,,,,,,,,,,,,,,,,,,,,,,,,,,,,,,,,,,,,None,,348.4347622208297,None,348.4347622208297,None,2021-12-16-14:47:24.714463,348.43600120022893,348.7518311003223,348.43600120022893,None,None,348.43600120022893,None,349.2514234203845,None,,,,12008,0002,2021_Dec_16_1441,localizer,2021.1.3,59.97206528799478,
block,scrambled,scrambled010.bmp,,,,,0,186,186,186,,,,,,,,,,,,,,,,,,,,,,,,,,,,,,,,,,,,,,,,,,None,,349.2514234203845,None,349.2514234203845,None,2021-12-16-14:47:25.530857,349.2526141004637,349.56800989992917,349.2526141004637,None,None,349.2526141004637,None,350.06828272063285,None,,,,12008,0002,2021_Dec_16_1441,localizer,2021.1.3,59.97206528799478,
block,scrambled,scrambled086.bmp,,,,,0,187,187,187,,,,,,,,,,,,,,,,,,,,,,,,,,,,,,,,,,,,,,,,,,None,,350.06828272063285,None,350.06828272063285,None,2021-12-16-14:47:26.347734,350.07457530032843,350.39178230054677,350.07457530032843,None,None,350.07457530032843,None,350.8850144203752,None,,,,12008,0002,2021_Dec_16_1441,localizer,2021.1.3,59.97206528799478,
block,scrambled,scrambled018.bmp,,,,,0,188,188,188,,,,,,,,,,,,,,,,,,,,,,,,,,,,,,,,,,,,,,,,,,None,,350.8850144203752,None,350.8850144203752,None,2021-12-16-14:47:27.165552,350.88601350039244,351.20188450068235,350.88601350039244,None,None,350.88601350039244,None,351.6851917207241,None,,,,12008,0002,2021_Dec_16_1441,localizer,2021.1.3,59.97206528799478,
block,scrambled,scrambled029.bmp,,,,,0,189,189,189,,,,,,,,,,,,,,,,,,,,,,,,,,,,,,,,,,,,,,,,,,None,,351.6851917207241,None,351.6851917207241,None,2021-12-16-14:47:27.966634,351.6882831007242,352.0023790001869,351.6882831007242,351.6882831007242,None,351.6882831007242,351.6882831007242,352.5020404206589,None,,,,12008,0002,2021_Dec_16_1441,localizer,2021.1.3,59.97206528799478,
block,scrambled,scrambled029.bmp,,,,,0,190,190,190,,,,,,,,,,,,,,,,,,,,,,,,,,,,,,,,,,,,,,,,,,None,,352.5020404206589,None,352.5020404206589,None,2021-12-16-14:47:28.782638,352.50322409998626,352.8186001004651,352.50322409998626,None,y,352.50322409998626,None,353.3189920205623,None,0.5414045006036758,,,12008,0002,2021_Dec_16_1441,localizer,2021.1.3,59.97206528799478,
block,scrambled,scrambled084.bmp,,,,,0,191,191,191,,,,,,,,,,,,,,,,,,,,,,,,,,,,,,,,,,,,,,,,,,None,,353.3189920205623,None,353.3189920205623,None,2021-12-16-14:47:29.599598,353.3199000004679,353.63524960074574,353.3199000004679,None,None,353.3199000004679,None,354.1350794201717,None,,,,12008,0002,2021_Dec_16_1441,localizer,2021.1.3,59.97206528799478,
block,scrambled,scrambled044.bmp,,,,,0,192,192,192,,,,,,,,,,,,,,,,,,,,,,,,,,,,,,,,,,,,,,,,,,None,,354.1350794201717,None,354.1350794201717,None,2021-12-16-14:47:30.414845,354.13599560037255,354.4515599999577,354.13599560037255,None,None,354.13599560037255,None,354.9353794204071,None,,,,12008,0002,2021_Dec_16_1441,localizer,2021.1.3,59.97206528799478,
block,scrambled,scrambled007.bmp,,,,,0,193,193,193,,,,,,,,,,,,,,,,,,,,,,,,,,,,,,,,,,,,,,,,,,None,,354.9353794204071,None,354.9353794204071,None,2021-12-16-14:47:31.217982,354.9385692002252,355.25243759993464,354.9385692002252,354.9385692002252,None,354.9385692002252,354.9385692002252,355.75216972082853,None,,,,12008,0002,2021_Dec_16_1441,localizer,2021.1.3,59.97206528799478,
block,scrambled,scrambled017.bmp,,,,,0,194,194,194,,,,,,,,,,,,,,,,,,,,,,,,,,,,,,,,,,,,,,,,,,None,,355.75216972082853,None,355.75216972082853,None,2021-12-16-14:47:32.032775,355.7627769000828,356.0754084000364,355.7627769000828,None,None,355.7627769000828,None,356.5685024205595,None,,,,12008,0002,2021_Dec_16_1441,localizer,2021.1.3,59.97206528799478,
block,scrambled,scrambled047.bmp,,,,,0,195,195,195,,,,,,,,,,,,,,,,,,,,,,,,,,,,,,,,,,,,,,,,,,None,,356.5685024205595,None,356.5685024205595,None,2021-12-16-14:47:32.846921,356.569791899994,356.88494089990854,356.569791899994,None,None,356.569791899994,None,357.384686820209,None,,,,12008,0002,2021_Dec_16_1441,localizer,2021.1.3,59.97206528799478,
block,scrambled,scrambled059.bmp,,,,,0,196,196,196,,,,,,,,,,,,,,,,,,,,,,,,,,,,,,,,,,,,,,,,,,None,,357.384686820209,None,357.384686820209,None,2021-12-16-14:47:33.664122,357.38585420046,357.7017856007442,357.38585420046,None,None,357.38585420046,None,358.18494412023574,None,,,,12008,0002,2021_Dec_16_1441,localizer,2021.1.3,59.97206528799478,
block,scrambled,scrambled088.bmp,,,,,0,197,197,197,,,,,,,,,,,,,,,,,,,,,,,,,,,,,,,,,,,,,,,,,,None,,358.18494412023574,None,358.18494412023574,None,2021-12-16-14:47:34.466328,358.1864387001842,358.501901300624,358.1864387001842,358.1864387001842,None,358.1864387001842,358.1864387001842,359.0017819199711,None,,,,12008,0002,2021_Dec_16_1441,localizer,2021.1.3,59.97206528799478,
block_end,scrambled,scrambled077.bmp,,,,,0,198,198,198,,,,,,,,,,,,,,,,,,,,,,,,,,,,,,,,,,,,,,,,,,None,,359.0017819199711,None,359.0017819199711,None,2021-12-16-14:47:35.281211,359.00268130004406,359.3027549004182,359.00268130004406,None,None,359.00268130004406,None,359.81789532024413,None,,,,12008,0002,2021_Dec_16_1441,localizer,2021.1.3,59.97206528799478,
block_start,scenes,scenes074.bmp,,,,,0,199,199,199,,,,,,,,,,,,,,,,,,,,,,,,,,,,,,,,,,,,,,,,,,t,1.7824969999492168,359.8180878004059,None,359.8180878004059,None,2021-12-16-14:47:37.896379,361.6203680001199,361.93515130039304,361.6203680001199,None,None,361.6203680001199,None,362.43525712005794,None,,,,12008,0002,2021_Dec_16_1441,localizer,2021.1.3,59.97206528799478,
block,scenes,scenes026.bmp,,,,,0,200,200,200,,,,,,,,,,,,,,,,,,,,,,,,,,,,,,,,,,,,,,,,,,None,,362.43525712005794,None,362.43525712005794,None,2021-12-16-14:47:38.714683,362.43621310032904,362.7357317004353,362.43621310032904,None,None,362.43621310032904,None,363.2353858202696,None,,,,12008,0002,2021_Dec_16_1441,localizer,2021.1.3,59.97206528799478,
block,scenes,scenes023.bmp,,,,,0,201,201,201,,,,,,,,,,,,,,,,,,,,,,,,,,,,,,,,,,,,,,,,,,None,,363.2353858202696,None,363.2353858202696,None,2021-12-16-14:47:39.516807,363.2383886007592,363.5516607007012,363.2383886007592,363.2383886007592,None,363.2383886007592,363.2383886007592,364.05169752053916,None,,,,12008,0002,2021_Dec_16_1441,localizer,2021.1.3,59.97206528799478,
block,scenes,scenes010.bmp,,,,,0,202,202,202,,,,,,,,,,,,,,,,,,,,,,,,,,,,,,,,,,,,,,,,,,None,,364.05169752053916,None,364.05169752053916,None,2021-12-16-14:47:40.331303,364.06483770068735,364.36856169998646,364.06483770068735,None,None,364.06483770068735,None,364.8690877202898,None,,,,12008,0002,2021_Dec_16_1441,localizer,2021.1.3,59.97206528799478,
block,scenes,scenes053.bmp,,,,,0,203,203,203,,,,,,,,,,,,,,,,,,,,,,,,,,,,,,,,,,,,,,,,,,None,,364.8690877202898,None,364.8690877202898,None,2021-12-16-14:47:41.148728,364.8789747003466,365.1848511006683,364.8789747003466,None,None,364.8789747003466,None,365.6849827207625,None,,,,12008,0002,2021_Dec_16_1441,localizer,2021.1.3,59.97206528799478,
block,scenes,scenes038.bmp,,,,,0,204,204,204,,,,,,,,,,,,,,,,,,,,,,,,,,,,,,,,,,,,,,,,,,None,,365.6849827207625,None,365.6849827207625,None,2021-12-16-14:47:41.964411,365.6939472006634,366.0019598007202,365.6939472006634,None,None,365.6939472006634,None,366.5014608204365,None,,,,12008,0002,2021_Dec_16_1441,localizer,2021.1.3,59.97206528799478,
block,scenes,scenes027.bmp,,,,,0,205,205,205,,,,,,,,,,,,,,,,,,,,,,,,,,,,,,,,,,,,,,,,,,None,,366.5014608204365,None,366.5014608204365,None,2021-12-16-14:47:42.779900,366.5102395005524,366.8185515999794,366.5102395005524,None,None,366.5102395005524,None,367.3188111204654,None,,,,12008,0002,2021_Dec_16_1441,localizer,2021.1.3,59.97206528799478,
block,scenes,scenes035.bmp,,,,,0,206,206,206,,,,,,,,,,,,,,,,,,,,,,,,,,,,,,,,,,,,,,,,,,None,,367.3188111204654,None,367.3188111204654,None,2021-12-16-14:47:43.598426,367.31980080064386,367.63480299990624,367.31980080064386,None,None,367.31980080064386,None,368.1346361199394,None,,,,12008,0002,2021_Dec_16_1441,localizer,2021.1.3,59.97206528799478,
block,scenes,scenes024.bmp,,,,,0,207,207,207,,,,,,,,,,,,,,,,,,,,,,,,,,,,,,,,,,,,,,,,,,None,,368.1346361199394,None,368.1346361199394,None,2021-12-16-14:47:44.413115,368.13621410075575,368.4521969007328,368.13621410075575,None,None,368.13621410075575,None,368.9353061206639,None,,,,12008,0002,2021_Dec_16_1441,localizer,2021.1.3,59.97206528799478,
block,scenes,scenes049.bmp,,,,,0,208,208,208,,,,,,,,,,,,,,,,,,,,,,,,,,,,,,,,,,,,,,,,,,None,,368.9353061206639,None,368.9353061206639,None,2021-12-16-14:47:45.216813,368.93841159995645,369.25219270028174,368.93841159995645,368.93841159995645,None,368.93841159995645,368.93841159995645,369.75297042075545,None,,,,12008,0002,2021_Dec_16_1441,localizer,2021.1.3,59.97206528799478,
block,scenes,scenes065.bmp,,,,,0,209,209,209,,,,,,,,,,,,,,,,,,,,,,,,,,,,,,,,,,,,,,,,,,None,,369.75297042075545,None,369.75297042075545,None,2021-12-16-14:47:46.031884,369.7606756007299,370.0684981001541,369.7606756007299,None,None,369.7606756007299,None,370.56852342002094,None,,,,12008,0002,2021_Dec_16_1441,localizer,2021.1.3,59.97206528799478,
block,scenes,scenes012.bmp,,,,,0,210,210,210,,,,,,,,,,,,,,,,,,,,,,,,,,,,,,,,,,,,,,,,,,None,,370.56852342002094,None,370.56852342002094,None,2021-12-16-14:47:46.848007,370.5695184003562,370.8857952998951,370.5695184003562,None,None,370.5695184003562,None,371.36853882018477,None,,,,12008,0002,2021_Dec_16_1441,localizer,2021.1.3,59.97206528799478,
block,scenes,scenes066.bmp,,,,,0,211,211,211,,,,,,,,,,,,,,,,,,,,,,,,,,,,,,,,,,,,,,,,,,None,,371.36853882018477,None,371.36853882018477,None,2021-12-16-14:47:47.649963,371.3702940000221,371.68536570016295,371.3702940000221,371.3702940000221,None,371.3702940000221,371.3702940000221,372.18523212056607,None,,,,12008,0002,2021_Dec_16_1441,localizer,2021.1.3,59.97206528799478,
block,scenes,scenes004.bmp,,,,,0,212,212,212,,,,,,,,,,,,,,,,,,,,,,,,,,,,,,,,,,,,,,,,,,None,,372.18523212056607,None,372.18523212056607,None,2021-12-16-14:47:48.464644,372.20101280044764,372.501765999943,372.20101280044764,None,None,372.20101280044764,None,373.00292752031237,None,,,,12008,0002,2021_Dec_16_1441,localizer,2021.1.3,59.97206528799478,
block_end,scenes,scenes036.bmp,,,,,0,213,213,213,,,,,,,,,,,,,,,,,,,,,,,,,,,,,,,,,,,,,,,,,,None,,373.00292752031237,None,373.00292752031237,None,2021-12-16-14:47:49.284486,373.00532670039684,373.3185694999993,373.00532670039684,None,None,373.00532670039684,None,373.81831832043827,None,,,,12008,0002,2021_Dec_16_1441,localizer,2021.1.3,59.97206528799478,
block_start,faces,faces020.bmp,,,,,0,214,214,214,,,,,,,,,,,,,,,,,,,,,,,,,,,,,,,,,,,,,,,,,,t,1.7822321001440287,373.8184338007122,None,373.8184338007122,None,2021-12-16-14:47:51.899305,375.6198869999498,375.9358243001625,375.6198869999498,None,None,375.6198869999498,None,376.41960712056607,None,,,,12008,0002,2021_Dec_16_1441,localizer,2021.1.3,59.97206528799478,
block,faces,faces003.bmp,,,,,0,215,215,215,,,,,,,,,,,,,,,,,,,,,,,,,,,,,,,,,,,,,,,,,,None,,376.41960712056607,None,376.41960712056607,None,2021-12-16-14:47:52.704008,376.4252141006291,376.73499289993197,376.4252141006291,376.4252141006291,None,376.4252141006291,376.4252141006291,377.2355676200241,None,,,,12008,0002,2021_Dec_16_1441,localizer,2021.1.3,59.97206528799478,
block,faces,faces078.bmp,,,,,0,216,216,216,,,,,,,,,,,,,,,,,,,,,,,,,,,,,,,,,,,,,,,,,,None,,377.2355676200241,None,377.2355676200241,None,2021-12-16-14:47:53.516191,377.2365405000746,377.5359208006412,377.2365405000746,None,None,377.2365405000746,None,378.0355661204085,None,,,,12008,0002,2021_Dec_16_1441,localizer,2021.1.3,59.97206528799478,
block,faces,faces068.bmp,,,,,0,217,217,217,,,,,,,,,,,,,,,,,,,,,,,,,,,,,,,,,,,,,,,,,,None,,378.0355661204085,None,378.0355661204085,None,2021-12-16-14:47:54.318059,378.05068410001695,378.35185649991035,378.05068410001695,378.05068410001695,None,378.05068410001695,378.05068410001695,378.8527260199189,None,,,,12008,0002,2021_Dec_16_1441,localizer,2021.1.3,59.97206528799478,
block,faces,faces049.bmp,,,,,0,218,218,218,,,,,,,,,,,,,,,,,,,,,,,,,,,,,,,,,,,,,,,,,,None,,378.8527260199189,None,378.8527260199189,None,2021-12-16-14:47:55.133284,378.85536330007017,379.1686002006754,378.85536330007017,None,None,378.85536330007017,None,379.6688400199637,None,,,,12008,0002,2021_Dec_16_1441,localizer,2021.1.3,59.97206528799478,
block,faces,faces051.bmp,,,,,0,219,219,219,,,,,,,,,,,,,,,,,,,,,,,,,,,,,,,,,,,,,,,,,,None,,379.6688400199637,None,379.6688400199637,None,2021-12-16-14:47:55.949452,379.67024590075016,379.98498070053756,379.67024590075016,None,None,379.67024590075016,None,380.485194420442,None,,,,12008,0002,2021_Dec_16_1441,localizer,2021.1.3,59.97206528799478,
block,faces,faces025.bmp,,,,,0,220,220,220,,,,,,,,,,,,,,,,,,,,,,,,,,,,,,,,,,,,,,,,,,None,,380.485194420442,None,380.485194420442,None,2021-12-16-14:47:56.764816,380.4861814007163,380.78534940071404,380.4861814007163,None,None,380.4861814007163,None,381.30179532058537,None,,,,12008,0002,2021_Dec_16_1441,localizer,2021.1.3,59.97206528799478,
block,faces,faces002.bmp,,,,,0,221,221,221,,,,,,,,,,,,,,,,,,,,,,,,,,,,,,,,,,,,,,,,,,None,,381.30179532058537,None,381.30179532058537,None,2021-12-16-14:47:57.581225,381.30301420018077,381.6184940999374,381.30301420018077,None,None,381.30301420018077,None,382.1063581202179,None,,,,12008,0002,2021_Dec_16_1441,localizer,2021.1.3,59.97206528799478,
block,faces,faces046.bmp,,,,,0,222,222,222,,,,,,,,,,,,,,,,,,,,,,,,,,,,,,,,,,,,,,,,,,None,,382.1063581202179,None,382.1063581202179,None,2021-12-16-14:47:58.388968,382.11232160031796,382.4185628006235,382.11232160031796,None,None,382.11232160031796,None,382.918631920591,None,,,,12008,0002,2021_Dec_16_1441,localizer,2021.1.3,59.97206528799478,
block,faces,faces011.bmp,,,,,0,223,223,223,,,,,,,,,,,,,,,,,,,,,,,,,,,,,,,,,,,,,,,,,,None,,382.918631920591,None,382.918631920591,None,2021-12-16-14:47:59.198060,382.91962990071625,383.235509400256,382.91962990071625,None,None,382.91962990071625,None,383.7350984206423,None,,,,12008,0002,2021_Dec_16_1441,localizer,2021.1.3,59.97206528799478,
block,faces,faces059.bmp,,,,,0,224,224,224,,,,,,,,,,,,,,,,,,,,,,,,,,,,,,,,,,,,,,,,,,None,,383.7350984206423,None,383.7350984206423,None,2021-12-16-14:48:00.013915,383.73900320008397,384.05186700075865,383.73900320008397,None,None,383.73900320008397,None,384.55179562047124,None,,,,12008,0002,2021_Dec_16_1441,localizer,2021.1.3,59.97206528799478,
block,faces,faces057.bmp,,,,,0,225,225,225,,,,,,,,,,,,,,,,,,,,,,,,,,,,,,,,,,,,,,,,,,None,,384.55179562047124,None,384.55179562047124,None,2021-12-16-14:48:00.831433,384.5529658002779,384.8688632007688,384.5529658002779,None,None,384.5529658002779,None,385.3686045203358,None,,,,12008,0002,2021_Dec_16_1441,localizer,2021.1.3,59.97206528799478,
block,faces,faces021.bmp,,,,,0,226,226,226,,,,,,,,,,,,,,,,,,,,,,,,,,,,,,,,,,,,,,,,,,None,,385.3686045203358,None,385.3686045203358,None,2021-12-16-14:48:01.648243,385.3696651002392,385.67052590008825,385.3696651002392,None,None,385.3696651002392,None,386.1852365201339,None,,,,12008,0002,2021_Dec_16_1441,localizer,2021.1.3,59.97206528799478,
block,faces,faces074.bmp,,,,,0,227,227,227,,,,,,,,,,,,,,,,,,,,,,,,,,,,,,,,,,,,,,,,,,None,,386.1852365201339,None,386.1852365201339,None,2021-12-16-14:48:02.464860,386.1862748004496,386.5019310005009,386.1862748004496,None,None,386.1862748004496,None,386.98565142042935,None,,,,12008,0002,2021_Dec_16_1441,localizer,2021.1.3,59.97206528799478,
block_end,faces,faces033.bmp,,,,,0,228,228,228,,,,,,,,,,,,,,,,,,,,,,,,,,,,,,,,,,,,,,,,,,None,,386.98565142042935,None,386.98565142042935,None,2021-12-16-14:48:03.268168,386.98881250061095,387.30185240041465,386.98881250061095,386.98881250061095,None,386.98881250061095,386.98881250061095,387.8019438199699,None,,,,12008,0002,2021_Dec_16_1441,localizer,2021.1.3,59.97206528799478,
block_start,objects,objects043.bmp,,,,,0,229,229,229,,,,,,,,,,,,,,,,,,,,,,,,,,,,,,,,,,,,,,,,,,t,1.798509799875319,387.8022817000747,None,387.8022817000747,None,2021-12-16-14:48:05.896115,389.62076130043715,389.9350094003603,389.62076130043715,None,None,389.62076130043715,None,390.43531472049654,None,,,,12008,0002,2021_Dec_16_1441,localizer,2021.1.3,59.97206528799478,
block,objects,objects013.bmp,,,,,0,230,230,230,,,,,,,,,,,,,,,,,,,,,,,,,,,,,,,,,,,,,,,,,,None,,390.43531472049654,None,390.43531472049654,None,2021-12-16-14:48:06.714934,390.4362964006141,390.7356750005856,390.4362964006141,None,None,390.4362964006141,None,391.2356051206589,None,,,,12008,0002,2021_Dec_16_1441,localizer,2021.1.3,59.97206528799478,
block,objects,objects014.bmp,,,,,0,231,231,231,,,,,,,,,,,,,,,,,,,,,,,,,,,,,,,,,,,,,,,,,,None,,391.2356051206589,None,391.2356051206589,None,2021-12-16-14:48:07.518029,391.23878070060164,391.55185070075095,391.23878070060164,391.23878070060164,None,391.23878070060164,391.23878070060164,392.0517344204709,None,,,,12008,0002,2021_Dec_16_1441,localizer,2021.1.3,59.97206528799478,
block,objects,objects044.bmp,,,,,0,232,232,232,,,,,,,,,,,,,,,,,,,,,,,,,,,,,,,,,,,,,,,,,,None,,392.0517344204709,None,392.0517344204709,None,2021-12-16-14:48:08.331332,392.05286910012364,392.36866110004485,392.05286910012364,None,None,392.05286910012364,None,392.8520593205467,None,,,,12008,0002,2021_Dec_16_1441,localizer,2021.1.3,59.97206528799478,
block,objects,objects016.bmp,,,,,0,233,233,233,,,,,,,,,,,,,,,,,,,,,,,,,,,,,,,,,,,,,,,,,,None,,392.8520593205467,None,392.8520593205467,None,2021-12-16-14:48:09.133485,392.853993200697,393.16840970050544,392.853993200697,392.853993200697,None,392.853993200697,392.853993200697,393.6685070199892,None,,,,12008,0002,2021_Dec_16_1441,localizer,2021.1.3,59.97206528799478,
block,objects,objects041.bmp,,,,,0,234,234,234,,,,,,,,,,,,,,,,,,,,,,,,,,,,,,,,,,,,,,,,,,None,,393.6685070199892,None,393.6685070199892,None,2021-12-16-14:48:09.947780,393.669476300478,393.9859277000651,393.669476300478,None,None,393.669476300478,None,394.4847088204697,None,,,,12008,0002,2021_Dec_16_1441,localizer,2021.1.3,59.97206528799478,
block,objects,objects020.bmp,,,,,0,235,235,235,,,,,,,,,,,,,,,,,,,,,,,,,,,,,,,,,,,,,,,,,,None,,394.4847088204697,None,394.4847088204697,None,2021-12-16-14:48:10.763145,394.48628940060735,394.8018978005275,394.48628940060735,None,None,394.48628940060735,None,395.30174802057445,None,,,,12008,0002,2021_Dec_16_1441,localizer,2021.1.3,59.97206528799478,
block,objects,objects012.bmp,,,,,0,236,236,236,,,,,,,,,,,,,,,,,,,,,,,,,,,,,,,,,,,,,,,,,,None,,395.30174802057445,None,395.30174802057445,None,2021-12-16-14:48:11.581182,395.302824200131,395.61796900071204,395.302824200131,None,None,395.302824200131,None,396.118182820268,None,,,,12008,0002,2021_Dec_16_1441,localizer,2021.1.3,59.97206528799478,
block,objects,objects011.bmp,,,,,0,237,237,237,,,,,,,,,,,,,,,,,,,,,,,,,,,,,,,,,,,,,,,,,,None,,396.118182820268,None,396.118182820268,None,2021-12-16-14:48:12.397619,396.1194583000615,396.43524200003594,396.1194583000615,None,None,396.1194583000615,None,396.91856792010367,None,,,,12008,0002,2021_Dec_16_1441,localizer,2021.1.3,59.97206528799478,
block,objects,objects021.bmp,,,,,0,238,238,238,,,,,,,,,,,,,,,,,,,,,,,,,,,,,,,,,,,,,,,,,,None,,396.91856792010367,None,396.91856792010367,None,2021-12-16-14:48:13.199974,396.93083429988474,397.23522350005805,396.93083429988474,396.93083429988474,None,396.93083429988474,396.93083429988474,397.7352170199156,None,,,,12008,0002,2021_Dec_16_1441,localizer,2021.1.3,59.97206528799478,
block,objects,objects060.bmp,,,,,0,239,239,239,,,,,,,,,,,,,,,,,,,,,,,,,,,,,,,,,,,,,,,,,,None,,397.7352170199156,None,397.7352170199156,None,2021-12-16-14:48:14.015015,397.73619710002095,398.0520820999518,397.73619710002095,None,None,397.73619710002095,None,398.5352403204888,None,,,,12008,0002,2021_Dec_16_1441,localizer,2021.1.3,59.97206528799478,
block,objects,objects002.bmp,,,,,0,240,240,240,,,,,,,,,,,,,,,,,,,,,,,,,,,,,,,,,,,,,,,,,,None,,398.5352403204888,None,398.5352403204888,None,2021-12-16-14:48:14.816907,398.54778240062296,398.85213389992714,398.54778240062296,398.54778240062296,None,398.54778240062296,398.54778240062296,399.3520230203867,None,,,,12008,0002,2021_Dec_16_1441,localizer,2021.1.3,59.97206528799478,
block,objects,objects026.bmp,,,,,0,241,241,241,,,,,,,,,,,,,,,,,,,,,,,,,,,,,,,,,,,,,,,,,,None,,399.3520230203867,None,399.3520230203867,None,2021-12-16-14:48:15.631725,399.352931400761,399.6522769005969,399.352931400761,None,None,399.352931400761,None,400.1521666208282,None,,,,12008,0002,2021_Dec_16_1441,localizer,2021.1.3,59.97206528799478,
block,objects,objects023.bmp,,,,,0,242,242,242,,,,,,,,,,,,,,,,,,,,,,,,,,,,,,,,,,,,,,,,,,None,,400.1521666208282,None,400.1521666208282,None,2021-12-16-14:48:16.433791,400.15531450044364,400.4689969001338,400.15531450044364,400.15531450044364,None,400.15531450044364,400.15531450044364,400.96842352021486,None,,,,12008,0002,2021_Dec_16_1441,localizer,2021.1.3,59.97206528799478,
block_end,objects,objects078.bmp,,,,,0,243,243,243,,,,,,,,,,,,,,,,,,,,,,,,,,,,,,,,,,,,,,,,,,None,,400.96842352021486,None,400.96842352021486,None,2021-12-16-14:48:17.248127,400.97228460013866,401.2852527005598,400.97228460013866,None,None,400.97228460013866,None,401.7848998205736,None,,,,12008,0002,2021_Dec_16_1441,localizer,2021.1.3,59.97206528799478,
,,,,,,,,,,,,,,,,,,,,,,,,,,,,,,,,,,,,,,,,,,,,,,,,,,,,,,,,,,,,,,,,,,,,,401.7849409999326,None,,,,,,,
