block_type,condition,img_name,Button.thisRepN,Button.thisTrialN,Button.thisN,Button.thisIndex,trials.thisRepN,trials.thisTrialN,trials.thisN,trials.thisIndex,Ready_experimenter_text.started,Ready_experimenter_text.stopped,Ready_experimenter_resp.keys,Ready_experimenter_resp.rt,Ready_experimenter_resp.started,Ready_experimenter_resp.stopped,Alignment_background.started,Alignment_background.stopped,Alignment_image.started,Alignment_image.stopped,Alignment_resp.keys,Alignment_resp.rt,Alignment_resp.started,Alignment_resp.stopped,Button_text.started,Button_text.stopped,Index_text.started,Index_text.stopped,Index_resp.keys,Index_resp.rt,Index_resp.started,Index_resp.stopped,Middle_text.started,Middle_text.stopped,Middle_resp.keys,Middle_resp.rt,Middle_resp.started,Middle_resp.stopped,Repeat_text.started,Repeat_text.stopped,Repeat_resp.keys,Repeat_resp.corr,Repeat_resp.rt,Repeat_resp.started,Repeat_resp.stopped,instruction_text.started,instruction_text.stopped,key_resp.keys,key_resp.rt,key_resp.started,key_resp.stopped,scanner_t.keys,scanner_t.rt,scanner_t.started,scanner_t.stopped,fixation_wait_for_t.started,fixation_wait_for_t.stopped,real_timestamp_trial_start,image.started,image.stopped,fixation.started,fixation.stopped,repeat_response.keys,repeat_response.started,repeat_response.stopped,fixation_null.started,fixation_null.stopped,repeat_response.rt,end_text.started,end_text.stopped,participant,run,date,expName,psychopyVersion,frameRate,
,,,,,,,,,,,13.576081399999566,None,return,442.35054450000007,13.576081399999566,None,,,,,,,,,,,,,,,,,,,,,,,,,,,,,,,,,,,,,,,,,,,,,,,,,,,,,,,22014,0002,2022_Sep_12_1100,localizer,2021.1.3,59.58644622856366,
,,,,,,,,,,,,,,,,,455.97151099999974,None,455.97151099999974,None,return,0.6280683999993926,455.97151099999974,None,,,,,,,,,,,,,,,,,,,,,,,,,,,,,,,,,,,,,,,,,,,,,,,22014,0002,2022_Sep_12_1100,localizer,2021.1.3,59.58644622856366,
,,,0,0,0,0,,,,,,,,,,,,,,,,,,,456.6172606,None,457.6157962999996,None,y,1.9940714000003936,457.6157962999996,None,459.6330092999997,None,b,1.0058624000002965,459.6330092999997,None,460.6672031999997,None,n,0,1.3459853999993356,460.6672031999997,None,,,,,,,,,,,,,,,,,,,,,,,,,,22014,0002,2022_Sep_12_1100,localizer,2021.1.3,59.58644622856366,
,,,,,,,,,,,,,,,,,,,,,,,,,,,,,,,,,,,,,,,,,,,,,,462.0325640000001,None,y,23.22430929999973,462.0325640000001,None,,,,,,,,,,,,,,,,,,,,22014,0002,2022_Sep_12_1100,localizer,2021.1.3,59.58644622856366,
block_start,scenes,scenes043.bmp,,,,,0,0,0,0,,,,,,,,,,,,,,,,,,,,,,,,,,,,,,,,,,,,,,,,,,t,18.326925100000153,485.3099702999998,None,485.3099702999998,None,2022-09-12-11:08:57.834468,503.6693021000001,503.98305749999963,503.6693021000001,None,None,503.6693021000001,None,504.48299927999943,None,,,,22014,0002,2022_Sep_12_1100,localizer,2021.1.3,59.58644622856366,
block,scenes,scenes076.bmp,,,,,0,1,1,1,,,,,,,,,,,,,,,,,,,,,,,,,,,,,,,,,,,,,,,,,,None,,504.48299927999943,None,504.48299927999943,None,2022-09-12-11:08:58.651174,504.4852332999999,504.80026069999985,504.4852332999999,None,None,504.4852332999999,None,505.3002834799998,None,,,,22014,0002,2022_Sep_12_1100,localizer,2021.1.3,59.58644622856366,
block,scenes,scenes076.bmp,,,,,0,2,2,2,,,,,,,,,,,,,,,,,,,,,,,,,,,,,,,,,,,,,,,,,,None,,505.3002834799998,None,505.3002834799998,None,2022-09-12-11:08:59.467434,505.30102499999975,505.60028710000006,505.30102499999975,None,y,505.30102499999975,None,506.1002470800002,None,0.6517831999999544,,,22014,0002,2022_Sep_12_1100,localizer,2021.1.3,59.58644622856366,
block,scenes,scenes047.bmp,,,,,0,3,3,3,,,,,,,,,,,,,,,,,,,,,,,,,,,,,,,,,,,,,,,,,,None,,506.1002470800002,None,506.1002470800002,None,2022-09-12-11:09:00.269435,506.1017198999998,506.41687529999945,506.1017198999998,506.1017198999998,None,506.1017198999998,506.1017198999998,506.91662788000014,None,,,,22014,0002,2022_Sep_12_1100,localizer,2021.1.3,59.58644622856366,
block,scenes,scenes071.bmp,,,,,0,4,4,4,,,,,,,,,,,,,,,,,,,,,,,,,,,,,,,,,,,,,,,,,,None,,506.91662788000014,None,506.91662788000014,None,2022-09-12-11:09:01.083806,506.91762860000017,507.23304800000005,506.91762860000017,None,None,506.91762860000017,None,507.7332461799995,None,,,,22014,0002,2022_Sep_12_1100,localizer,2021.1.3,59.58644622856366,
block,scenes,scenes053.bmp,,,,,0,5,5,5,,,,,,,,,,,,,,,,,,,,,,,,,,,,,,,,,,,,,,,,,,None,,507.7332461799995,None,507.7332461799995,None,2022-09-12-11:09:01.900421,507.74166220000006,508.0496857999997,507.74166220000006,None,None,507.74166220000006,None,508.54994007999977,None,,,,22014,0002,2022_Sep_12_1100,localizer,2021.1.3,59.58644622856366,
block,scenes,scenes070.bmp,,,,,0,6,6,6,,,,,,,,,,,,,,,,,,,,,,,,,,,,,,,,,,,,,,,,,,None,,508.54994007999977,None,508.54994007999977,None,2022-09-12-11:09:02.717118,508.55835509999997,508.8669356999999,508.55835509999997,None,None,508.55835509999997,None,509.36708827999956,None,,,,22014,0002,2022_Sep_12_1100,localizer,2021.1.3,59.58644622856366,
block,scenes,scenes088.bmp,,,,,0,7,7,7,,,,,,,,,,,,,,,,,,,,,,,,,,,,,,,,,,,,,,,,,,None,,509.36708827999956,None,509.36708827999956,None,2022-09-12-11:09:03.534340,509.3678565,509.6831691999996,509.3678565,None,None,509.3678565,None,510.16690267999985,None,,,,22014,0002,2022_Sep_12_1100,localizer,2021.1.3,59.58644622856366,
block,scenes,scenes024.bmp,,,,,0,8,8,8,,,,,,,,,,,,,,,,,,,,,,,,,,,,,,,,,,,,,,,,,,None,,510.16690267999985,None,510.16690267999985,None,2022-09-12-11:09:04.336069,510.16841939999995,510.4835559000003,510.16841939999995,510.16841939999995,None,510.16841939999995,510.16841939999995,510.98348718000017,None,,,,22014,0002,2022_Sep_12_1100,localizer,2021.1.3,59.58644622856366,
block,scenes,scenes019.bmp,,,,,0,9,9,9,,,,,,,,,,,,,,,,,,,,,,,,,,,,,,,,,,,,,,,,,,None,,510.98348718000017,None,510.98348718000017,None,2022-09-12-11:09:05.150931,510.9927097,511.2999643000003,510.9927097,None,None,510.9927097,None,511.8001526799997,None,,,,22014,0002,2022_Sep_12_1100,localizer,2021.1.3,59.58644622856366,
block,scenes,scenes091.bmp,,,,,0,10,10,10,,,,,,,,,,,,,,,,,,,,,,,,,,,,,,,,,,,,,,,,,,None,,511.8001526799997,None,511.8001526799997,None,2022-09-12-11:09:05.967176,511.80104779999965,512.1165918999995,511.80104779999965,None,None,511.80104779999965,None,512.6002601799999,None,,,,22014,0002,2022_Sep_12_1100,localizer,2021.1.3,59.58644622856366,
block,scenes,scenes087.bmp,,,,,0,11,11,11,,,,,,,,,,,,,,,,,,,,,,,,,,,,,,,,,,,,,,,,,,None,,512.6002601799999,None,512.6002601799999,None,2022-09-12-11:09:06.769310,512.6069564999998,512.9166059999998,512.6069564999998,512.6069564999998,None,512.6069564999998,512.6069564999998,513.4168370799996,None,,,,22014,0002,2022_Sep_12_1100,localizer,2021.1.3,59.58644622856366,
block,scenes,scenes041.bmp,,,,,0,12,12,12,,,,,,,,,,,,,,,,,,,,,,,,,,,,,,,,,,,,,,,,,,None,,513.4168370799996,None,513.4168370799996,None,2022-09-12-11:09:07.584915,513.4263137999997,513.7330477999994,513.4263137999997,None,None,513.4263137999997,None,514.2340936799999,None,,,,22014,0002,2022_Sep_12_1100,localizer,2021.1.3,59.58644622856366,
block,scenes,scenes067.bmp,,,,,0,13,13,13,,,,,,,,,,,,,,,,,,,,,,,,,,,,,,,,,,,,,,,,,,None,,514.2340936799999,None,514.2340936799999,None,2022-09-12-11:09:08.401229,514.24424,514.5497962,514.24424,None,None,514.24424,None,515.0501664800001,None,,,,22014,0002,2022_Sep_12_1100,localizer,2021.1.3,59.58644622856366,
block_end,scenes,scenes011.bmp,,,,,0,14,14,14,,,,,,,,,,,,,,,,,,,,,,,,,,,,,,,,,,,,,,,,,,None,,515.0501664800001,None,515.0501664800001,None,2022-09-12-11:09:09.217204,515.0510145999997,515.3663453999998,515.0510145999997,None,None,515.0510145999997,None,515.8502375799997,None,,,,22014,0002,2022_Sep_12_1100,localizer,2021.1.3,59.58644622856366,
block_start,scrambled,scrambled026.bmp,,,,,0,15,15,15,,,,,,,,,,,,,,,,,,,,,,,,,,,,,,,,,,,,,,,,,,t,1.7866497999993953,515.8501618999999,None,515.8501618999999,None,2022-09-12-11:09:11.836039,517.6800102999996,517.9838325999999,517.6800102999996,None,None,517.6800102999996,None,518.4839892799998,None,,,,22014,0002,2022_Sep_12_1100,localizer,2021.1.3,59.58644622856366,
block,scrambled,scrambled077.bmp,,,,,0,16,16,16,,,,,,,,,,,,,,,,,,,,,,,,,,,,,,,,,,,,,,,,,,None,,518.4839892799998,None,518.4839892799998,None,2022-09-12-11:09:12.652366,518.4947728999996,518.8002264999996,518.4947728999996,None,None,518.4947728999996,None,519.3001790799997,None,,,,22014,0002,2022_Sep_12_1100,localizer,2021.1.3,59.58644622856366,
block,scrambled,scrambled010.bmp,,,,,0,17,17,17,,,,,,,,,,,,,,,,,,,,,,,,,,,,,,,,,,,,,,,,,,None,,519.3001790799997,None,519.3001790799997,None,2022-09-12-11:09:13.467463,519.3086851999997,519.6169191999998,519.3086851999997,None,None,519.3086851999997,None,520.1171073799994,None,,,,22014,0002,2022_Sep_12_1100,localizer,2021.1.3,59.58644622856366,
block,scrambled,scrambled047.bmp,,,,,0,18,18,18,,,,,,,,,,,,,,,,,,,,,,,,,,,,,,,,,,,,,,,,,,None,,520.1171073799994,None,520.1171073799994,None,2022-09-12-11:09:14.284288,520.1176356999995,520.4168831999996,520.1176356999995,None,None,520.1176356999995,None,520.9169351799999,None,,,,22014,0002,2022_Sep_12_1100,localizer,2021.1.3,59.58644622856366,
block,scrambled,scrambled023.bmp,,,,,0,19,19,19,,,,,,,,,,,,,,,,,,,,,,,,,,,,,,,,,,,,,,,,,,None,,520.9169351799999,None,520.9169351799999,None,2022-09-12-11:09:15.085110,520.9179019000003,521.2168598999997,520.9179019000003,520.9179019000003,None,520.9179019000003,520.9179019000003,521.7170372799999,None,,,,22014,0002,2022_Sep_12_1100,localizer,2021.1.3,59.58644622856366,
block,scrambled,scrambled001.bmp,,,,,0,20,20,20,,,,,,,,,,,,,,,,,,,,,,,,,,,,,,,,,,,,,,,,,,None,,521.7170372799999,None,521.7170372799999,None,2022-09-12-11:09:15.886360,521.7279437999996,522.0334383,521.7279437999996,521.7279437999996,None,521.7279437999996,521.7279437999996,522.5334914799994,None,,,,22014,0002,2022_Sep_12_1100,localizer,2021.1.3,59.58644622856366,
block,scrambled,scrambled050.bmp,,,,,0,21,21,21,,,,,,,,,,,,,,,,,,,,,,,,,,,,,,,,,,,,,,,,,,None,,522.5334914799994,None,522.5334914799994,None,2022-09-12-11:09:16.700671,522.5343795999997,522.8333997999998,522.5343795999997,None,None,522.5343795999997,None,523.3337794799997,None,,,,22014,0002,2022_Sep_12_1100,localizer,2021.1.3,59.58644622856366,
block,scrambled,scrambled052.bmp,,,,,0,22,22,22,,,,,,,,,,,,,,,,,,,,,,,,,,,,,,,,,,,,,,,,,,None,,523.3337794799997,None,523.3337794799997,None,2022-09-12-11:09:17.502947,523.3460383000001,523.6503487999998,523.3460383000001,523.3460383000001,None,523.3460383000001,523.3460383000001,524.1504767799995,None,,,,22014,0002,2022_Sep_12_1100,localizer,2021.1.3,59.58644622856366,
block,scrambled,scrambled021.bmp,,,,,0,23,23,23,,,,,,,,,,,,,,,,,,,,,,,,,,,,,,,,,,,,,,,,,,None,,524.1504767799995,None,524.1504767799995,None,2022-09-12-11:09:18.317651,524.1512420999998,524.4666177999998,524.1512420999998,None,None,524.1512420999998,None,524.9667278799996,None,,,,22014,0002,2022_Sep_12_1100,localizer,2021.1.3,59.58644622856366,
block,scrambled,scrambled044.bmp,,,,,0,24,24,24,,,,,,,,,,,,,,,,,,,,,,,,,,,,,,,,,,,,,,,,,,None,,524.9667278799996,None,524.9667278799996,None,2022-09-12-11:09:19.134019,524.9753584,525.2833677999997,524.9753584,None,None,524.9753584,None,525.7836635800002,None,,,,22014,0002,2022_Sep_12_1100,localizer,2021.1.3,59.58644622856366,
block,scrambled,scrambled032.bmp,,,,,0,25,25,25,,,,,,,,,,,,,,,,,,,,,,,,,,,,,,,,,,,,,,,,,,None,,525.7836635800002,None,525.7836635800002,None,2022-09-12-11:09:19.950842,525.7921252999995,526.1002343999999,525.7921252999995,None,None,525.7921252999995,None,526.6002290799995,None,,,,22014,0002,2022_Sep_12_1100,localizer,2021.1.3,59.58644622856366,
block,scrambled,scrambled007.bmp,,,,,0,26,26,26,,,,,,,,,,,,,,,,,,,,,,,,,,,,,,,,,,,,,,,,,,None,,526.6002290799995,None,526.6002290799995,None,2022-09-12-11:09:20.767438,526.6094145999996,526.9170589999994,526.6094145999996,None,None,526.6094145999996,None,527.4173929799997,None,,,,22014,0002,2022_Sep_12_1100,localizer,2021.1.3,59.58644622856366,
block,scrambled,scrambled070.bmp,,,,,0,27,27,27,,,,,,,,,,,,,,,,,,,,,,,,,,,,,,,,,,,,,,,,,,None,,527.4173929799997,None,527.4173929799997,None,2022-09-12-11:09:21.584591,527.4282066999995,527.7338002999995,527.4282066999995,None,None,527.4282066999995,None,528.2334209799999,None,,,,22014,0002,2022_Sep_12_1100,localizer,2021.1.3,59.58644622856366,
block,scrambled,scrambled020.bmp,,,,,0,28,28,28,,,,,,,,,,,,,,,,,,,,,,,,,,,,,,,,,,,,,,,,,,None,,528.2334209799999,None,528.2334209799999,None,2022-09-12-11:09:22.400601,528.2345063000002,528.5500219999994,528.2345063000002,None,None,528.2345063000002,None,529.0341452800001,None,,,,22014,0002,2022_Sep_12_1100,localizer,2021.1.3,59.58644622856366,
block_end,scrambled,scrambled073.bmp,,,,,0,29,29,29,,,,,,,,,,,,,,,,,,,,,,,,,,,,,,,,,,,,,,,,,,None,,529.0341452800001,None,529.0341452800001,None,2022-09-12-11:09:23.204332,529.0369126999994,529.3506550000002,529.0369126999994,529.0369126999994,None,529.0369126999994,529.0369126999994,529.8501429799996,None,,,,22014,0002,2022_Sep_12_1100,localizer,2021.1.3,59.58644622856366,
block_start,objects,objects029.bmp,,,,,0,30,30,30,,,,,,,,,,,,,,,,,,,,,,,,,,,,,,,,,,,,,,,,,,t,1.7867855000004056,529.8500795,None,529.8500795,None,2022-09-12-11:09:25.833082,531.6746211999998,531.9834811000001,531.6746211999998,None,None,531.6746211999998,None,532.4841462800002,None,,,,22014,0002,2022_Sep_12_1100,localizer,2021.1.3,59.58644622856366,
block,objects,objects079.bmp,,,,,0,31,31,31,,,,,,,,,,,,,,,,,,,,,,,,,,,,,,,,,,,,,,,,,,None,,532.4841462800002,None,532.4841462800002,None,2022-09-12-11:09:26.651341,532.4848418000001,532.7839932999996,532.4848418000001,None,None,532.4848418000001,None,533.28411458,None,,,,22014,0002,2022_Sep_12_1100,localizer,2021.1.3,59.58644622856366,
block,objects,objects084.bmp,,,,,0,32,32,32,,,,,,,,,,,,,,,,,,,,,,,,,,,,,,,,,,,,,,,,,,None,,533.28411458,None,533.28411458,None,2022-09-12-11:09:27.454277,533.2869700000001,533.6007160999998,533.2869700000001,533.2869700000001,None,533.2869700000001,533.2869700000001,534.0901057799999,None,,,,22014,0002,2022_Sep_12_1100,localizer,2021.1.3,59.58644622856366,
block,objects,objects083.bmp,,,,,0,33,33,33,,,,,,,,,,,,,,,,,,,,,,,,,,,,,,,,,,,,,,,,,,None,,534.0901057799999,None,534.0901057799999,None,2022-09-12-11:09:28.265128,534.1024029999999,534.4165840999995,534.1024029999999,534.1024029999999,None,534.1024029999999,534.1024029999999,534.9169963800002,None,,,,22014,0002,2022_Sep_12_1100,localizer,2021.1.3,59.58644622856366,
block,objects,objects027.bmp,,,,,0,34,34,34,,,,,,,,,,,,,,,,,,,,,,,,,,,,,,,,,,,,,,,,,,None,,534.9169963800002,None,534.9169963800002,None,2022-09-12-11:09:29.084177,534.9256869999999,535.2335616,534.9256869999999,None,None,534.9256869999999,None,535.7344365799997,None,,,,22014,0002,2022_Sep_12_1100,localizer,2021.1.3,59.58644622856366,
block,objects,objects044.bmp,,,,,0,35,35,35,,,,,,,,,,,,,,,,,,,,,,,,,,,,,,,,,,,,,,,,,,None,,535.7344365799997,None,535.7344365799997,None,2022-09-12-11:09:29.902581,535.7349936,536.0342174999996,535.7349936,None,None,535.7349936,None,536.5345214799997,None,,,,22014,0002,2022_Sep_12_1100,localizer,2021.1.3,59.58644622856366,
block,objects,objects068.bmp,,,,,0,36,36,36,,,,,,,,,,,,,,,,,,,,,,,,,,,,,,,,,,,,,,,,,,None,,536.5345214799997,None,536.5345214799997,None,2022-09-12-11:09:30.704720,536.5375699999995,536.8508534000002,536.5375699999995,536.5375699999995,None,536.5375699999995,536.5375699999995,537.3508475799997,None,,,,22014,0002,2022_Sep_12_1100,localizer,2021.1.3,59.58644622856366,
block,objects,objects058.bmp,,,,,0,37,37,37,,,,,,,,,,,,,,,,,,,,,,,,,,,,,,,,,,,,,,,,,,None,,537.3508475799997,None,537.3508475799997,None,2022-09-12-11:09:31.518569,537.3535000000002,537.6667750999995,537.3535000000002,None,None,537.3535000000002,None,538.1670531799998,None,,,,22014,0002,2022_Sep_12_1100,localizer,2021.1.3,59.58644622856366,
block,objects,objects082.bmp,,,,,0,38,38,38,,,,,,,,,,,,,,,,,,,,,,,,,,,,,,,,,,,,,,,,,,None,,538.1670531799998,None,538.1670531799998,None,2022-09-12-11:09:32.334232,538.1713129999998,538.4835679999997,538.1713129999998,None,None,538.1713129999998,None,538.9849242799999,None,,,,22014,0002,2022_Sep_12_1100,localizer,2021.1.3,59.58644622856366,
block,objects,objects073.bmp,,,,,0,39,39,39,,,,,,,,,,,,,,,,,,,,,,,,,,,,,,,,,,,,,,,,,,None,,538.9849242799999,None,538.9849242799999,None,2022-09-12-11:09:33.153266,538.9870718000002,539.3007587000002,538.9870718000002,None,None,538.9870718000002,None,539.8007134799998,None,,,,22014,0002,2022_Sep_12_1100,localizer,2021.1.3,59.58644622856366,
block,objects,objects001.bmp,,,,,0,40,40,40,,,,,,,,,,,,,,,,,,,,,,,,,,,,,,,,,,,,,,,,,,None,,539.8007134799998,None,539.8007134799998,None,2022-09-12-11:09:33.967916,539.8105457000001,540.1173352999995,539.8105457000001,None,None,539.8105457000001,None,540.6174361800001,None,,,,22014,0002,2022_Sep_12_1100,localizer,2021.1.3,59.58644622856366,
block,objects,objects066.bmp,,,,,0,41,41,41,,,,,,,,,,,,,,,,,,,,,,,,,,,,,,,,,,,,,,,,,,None,,540.6174361800001,None,540.6174361800001,None,2022-09-12-11:09:34.784790,540.6277862999996,540.933865,540.6277862999996,None,None,540.6277862999996,None,541.43405168,None,,,,22014,0002,2022_Sep_12_1100,localizer,2021.1.3,59.58644622856366,
block,objects,objects021.bmp,,,,,0,42,42,42,,,,,,,,,,,,,,,,,,,,,,,,,,,,,,,,,,,,,,,,,,None,,541.43405168,None,541.43405168,None,2022-09-12-11:09:35.601224,541.4437939999998,541.7502016999997,541.4437939999998,None,None,541.4437939999998,None,542.2504413799995,None,,,,22014,0002,2022_Sep_12_1100,localizer,2021.1.3,59.58644622856366,
block,objects,objects050.bmp,,,,,0,43,43,43,,,,,,,,,,,,,,,,,,,,,,,,,,,,,,,,,,,,,,,,,,None,,542.2504413799995,None,542.2504413799995,None,2022-09-12-11:09:36.417624,542.2546315999998,542.5669659999994,542.2546315999998,None,None,542.2546315999998,None,543.0670314799997,None,,,,22014,0002,2022_Sep_12_1100,localizer,2021.1.3,59.58644622856366,
block_end,objects,objects086.bmp,,,,,0,44,44,44,,,,,,,,,,,,,,,,,,,,,,,,,,,,,,,,,,,,,,,,,,None,,543.0670314799997,None,543.0670314799997,None,2022-09-12-11:09:37.234210,543.076,543.3837951999994,543.076,None,None,543.076,None,543.88377818,None,,,,22014,0002,2022_Sep_12_1100,localizer,2021.1.3,59.58644622856366,
null_block,null_block,null_block.bmp,,,,,0,45,45,45,,,,,,,,,,,,,,,,,,,,,,,,,,,,,,,,,,,,,,,,,,t,1.7536150000005364,543.8835202999999,None,543.8835202999999,None,2022-09-12-11:09:39.836622,545.6683069799999,None,545.6683069799999,None,None,545.6683069799999,None,545.6760538999997,None,,,,22014,0002,2022_Sep_12_1100,localizer,2021.1.3,59.58644622856366,
block_start,faces,faces047.bmp,,,,,0,46,46,46,,,,,,,,,,,,,,,,,,,,,,,,,,,,,,,,,,,,,,,,,,t,1.9528870000003735,557.6840031000002,None,557.6840031000002,None,2022-09-12-11:09:53.833339,559.6814927999994,559.9844727,559.6814927999994,None,None,559.6814927999994,None,560.4846039800002,None,,,,22014,0002,2022_Sep_12_1100,localizer,2021.1.3,59.58644622856366,
block,faces,faces043.bmp,,,,,0,47,47,47,,,,,,,,,,,,,,,,,,,,,,,,,,,,,,,,,,,,,,,,,,None,,560.4846039800002,None,560.4846039800002,None,2022-09-12-11:09:54.652961,560.4971237,560.8001508999996,560.4971237,None,None,560.4971237,None,561.3004680800002,None,,,,22014,0002,2022_Sep_12_1100,localizer,2021.1.3,59.58644622856366,
block,faces,faces015.bmp,,,,,0,48,48,48,,,,,,,,,,,,,,,,,,,,,,,,,,,,,,,,,,,,,,,,,,None,,561.3004680800002,None,561.3004680800002,None,2022-09-12-11:09:55.467877,561.3013516999999,561.6005355999996,561.3013516999999,None,None,561.3013516999999,None,562.1009077799997,None,,,,22014,0002,2022_Sep_12_1100,localizer,2021.1.3,59.58644622856366,
block,faces,faces007.bmp,,,,,0,49,49,49,,,,,,,,,,,,,,,,,,,,,,,,,,,,,,,,,,,,,,,,,,None,,562.1009077799997,None,562.1009077799997,None,2022-09-12-11:09:56.271051,562.1146190999998,562.417488,562.1146190999998,562.1146190999998,None,562.1146190999998,562.1146190999998,562.9191187799995,None,,,,22014,0002,2022_Sep_12_1100,localizer,2021.1.3,59.58644622856366,
block,faces,faces061.bmp,,,,,0,50,50,50,,,,,,,,,,,,,,,,,,,,,,,,,,,,,,,,,,,,,,,,,,None,,562.9191187799995,None,562.9191187799995,None,2022-09-12-11:09:57.090289,562.9244045999994,563.2346786999997,562.9244045999994,None,None,562.9244045999994,None,563.73454388,None,,,,22014,0002,2022_Sep_12_1100,localizer,2021.1.3,59.58644622856366,
block,faces,faces079.bmp,,,,,0,51,51,51,,,,,,,,,,,,,,,,,,,,,,,,,,,,,,,,,,,,,,,,,,None,,563.73454388,None,563.73454388,None,2022-09-12-11:09:57.902896,563.7352822000003,564.0345324999998,563.7352822000003,None,None,563.7352822000003,None,564.5344794800001,None,,,,22014,0002,2022_Sep_12_1100,localizer,2021.1.3,59.58644622856366,
block,faces,faces002.bmp,,,,,0,52,52,52,,,,,,,,,,,,,,,,,,,,,,,,,,,,,,,,,,,,,,,,,,None,,564.5344794800001,None,564.5344794800001,None,2022-09-12-11:09:58.705636,564.550612,564.8509198000002,564.550612,564.550612,None,564.550612,564.550612,565.3508034799995,None,,,,22014,0002,2022_Sep_12_1100,localizer,2021.1.3,59.58644622856366,
block,faces,faces066.bmp,,,,,0,53,53,53,,,,,,,,,,,,,,,,,,,,,,,,,,,,,,,,,,,,,,,,,,None,,565.3508034799995,None,565.3508034799995,None,2022-09-12-11:09:59.517976,565.3514770000002,565.6507498999999,565.3514770000002,None,None,565.3514770000002,None,566.1516280799995,None,,,,22014,0002,2022_Sep_12_1100,localizer,2021.1.3,59.58644622856366,
block,faces,faces071.bmp,,,,,0,54,54,54,,,,,,,,,,,,,,,,,,,,,,,,,,,,,,,,,,,,,,,,,,None,,566.1516280799995,None,566.1516280799995,None,2022-09-12-11:10:00.322995,566.1673450999997,566.4670822999997,566.1673450999997,566.1673450999997,None,566.1673450999997,566.1673450999997,566.9677494799996,None,,,,22014,0002,2022_Sep_12_1100,localizer,2021.1.3,59.58644622856366,
block,faces,faces029.bmp,,,,,0,55,55,55,,,,,,,,,,,,,,,,,,,,,,,,,,,,,,,,,,,,,,,,,,None,,566.9677494799996,None,566.9677494799996,None,2022-09-12-11:10:01.136109,566.9795162,567.2836550000002,566.9795162,None,None,566.9795162,None,567.7839206799997,None,,,,22014,0002,2022_Sep_12_1100,localizer,2021.1.3,59.58644622856366,
block,faces,faces059.bmp,,,,,0,56,56,56,,,,,,,,,,,,,,,,,,,,,,,,,,,,,,,,,,,,,,,,,,None,,567.7839206799997,None,567.7839206799997,None,2022-09-12-11:10:01.951467,567.7846801999995,568.0837530999997,567.7846801999995,None,None,567.7846801999995,None,568.5839063800001,None,,,,22014,0002,2022_Sep_12_1100,localizer,2021.1.3,59.58644622856366,
block,faces,faces006.bmp,,,,,0,57,57,57,,,,,,,,,,,,,,,,,,,,,,,,,,,,,,,,,,,,,,,,,,None,,568.5839063800001,None,568.5839063800001,None,2022-09-12-11:10:02.753299,568.5857598000002,568.9004315000002,568.5857598000002,568.5857598000002,None,568.5857598000002,568.5857598000002,569.4006254799995,None,,,,22014,0002,2022_Sep_12_1100,localizer,2021.1.3,59.58644622856366,
block,faces,faces064.bmp,,,,,0,58,58,58,,,,,,,,,,,,,,,,,,,,,,,,,,,,,,,,,,,,,,,,,,None,,569.4006254799995,None,569.4006254799995,None,2022-09-12-11:10:03.568066,569.4104219999999,569.7169807,569.4104219999999,None,None,569.4104219999999,None,570.21711888,None,,,,22014,0002,2022_Sep_12_1100,localizer,2021.1.3,59.58644622856366,
block,faces,faces073.bmp,,,,,0,59,59,59,,,,,,,,,,,,,,,,,,,,,,,,,,,,,,,,,,,,,,,,,,None,,570.21711888,None,570.21711888,None,2022-09-12-11:10:04.384296,570.2265637,570.5338222999999,570.2265637,None,None,570.2265637,None,571.03398498,None,,,,22014,0002,2022_Sep_12_1100,localizer,2021.1.3,59.58644622856366,
block_end,faces,faces068.bmp,,,,,0,60,60,60,,,,,,,,,,,,,,,,,,,,,,,,,,,,,,,,,,,,,,,,,,None,,571.03398498,None,571.03398498,None,2022-09-12-11:10:05.201163,571.0444489000001,571.3501625999997,571.0444489000001,None,None,571.0444489000001,None,571.8505083799998,None,,,,22014,0002,2022_Sep_12_1100,localizer,2021.1.3,59.58644622856366,
block_start,scrambled,scrambled027.bmp,,,,,0,61,61,61,,,,,,,,,,,,,,,,,,,,,,,,,,,,,,,,,,,,,,,,,,t,1.7865351999998893,571.8504052999997,None,571.8504052999997,None,2022-09-12-11:10:07.833412,573.6681275000001,573.9672051999996,573.6681275000001,None,None,573.6681275000001,None,574.4672313799999,None,,,,22014,0002,2022_Sep_12_1100,localizer,2021.1.3,59.58644622856366,
block,scrambled,scrambled037.bmp,,,,,0,62,62,62,,,,,,,,,,,,,,,,,,,,,,,,,,,,,,,,,,,,,,,,,,None,,574.4672313799999,None,574.4672313799999,None,2022-09-12-11:10:08.635969,574.4681072000003,574.7672364999999,574.4681072000003,574.4681072000003,None,574.4681072000003,574.4681072000003,575.2675962800001,None,,,,22014,0002,2022_Sep_12_1100,localizer,2021.1.3,59.58644622856366,
block,scrambled,scrambled057.bmp,,,,,0,63,63,63,,,,,,,,,,,,,,,,,,,,,,,,,,,,,,,,,,,,,,,,,,None,,575.2675962800001,None,575.2675962800001,None,2022-09-12-11:10:09.436765,575.2794494999998,575.5837959999999,575.2794494999998,575.2794494999998,None,575.2794494999998,575.2794494999998,576.0839659800001,None,,,,22014,0002,2022_Sep_12_1100,localizer,2021.1.3,59.58644622856366,
block,scrambled,scrambled036.bmp,,,,,0,64,64,64,,,,,,,,,,,,,,,,,,,,,,,,,,,,,,,,,,,,,,,,,,None,,576.0839659800001,None,576.0839659800001,None,2022-09-12-11:10:10.251355,576.0944745999996,576.4002979999996,576.0944745999996,None,None,576.0944745999996,None,576.90056428,None,,,,22014,0002,2022_Sep_12_1100,localizer,2021.1.3,59.58644622856366,
block,scrambled,scrambled015.bmp,,,,,0,65,65,65,,,,,,,,,,,,,,,,,,,,,,,,,,,,,,,,,,,,,,,,,,None,,576.90056428,None,576.90056428,None,2022-09-12-11:10:11.067741,576.9011929999997,577.2003614999994,576.9011929999997,None,None,576.9011929999997,None,577.7005081799996,None,,,,22014,0002,2022_Sep_12_1100,localizer,2021.1.3,59.58644622856366,
block,scrambled,scrambled071.bmp,,,,,0,66,66,66,,,,,,,,,,,,,,,,,,,,,,,,,,,,,,,,,,,,,,,,,,None,,577.7005081799996,None,577.7005081799996,None,2022-09-12-11:10:11.869682,577.7013701999995,578.0002659000002,577.7013701999995,577.7013701999995,None,577.7013701999995,577.7013701999995,578.51712638,None,,,,22014,0002,2022_Sep_12_1100,localizer,2021.1.3,59.58644622856366,
block,scrambled,scrambled019.bmp,,,,,0,67,67,67,,,,,,,,,,,,,,,,,,,,,,,,,,,,,,,,,,,,,,,,,,None,,578.51712638,None,578.51712638,None,2022-09-12-11:10:12.684307,578.5178875000001,578.8170516999999,578.5178875000001,None,None,578.5178875000001,None,579.3175639799999,None,,,,22014,0002,2022_Sep_12_1100,localizer,2021.1.3,59.58644622856366,
block,scrambled,scrambled088.bmp,,,,,0,68,68,68,,,,,,,,,,,,,,,,,,,,,,,,,,,,,,,,,,,,,,,,,,None,,579.3175639799999,None,579.3175639799999,None,2022-09-12-11:10:13.486954,579.3193492999999,579.6341764999997,579.3193492999999,579.3193492999999,None,579.3193492999999,579.3193492999999,580.1342311799997,None,,,,22014,0002,2022_Sep_12_1100,localizer,2021.1.3,59.58644622856366,
block,scrambled,scrambled039.bmp,,,,,0,69,69,69,,,,,,,,,,,,,,,,,,,,,,,,,,,,,,,,,,,,,,,,,,None,,580.1342311799997,None,580.1342311799997,None,2022-09-12-11:10:14.301607,580.1347887000002,580.4342040000001,580.1347887000002,None,None,580.1347887000002,None,580.9338852799999,None,,,,22014,0002,2022_Sep_12_1100,localizer,2021.1.3,59.58644622856366,
block,scrambled,scrambled048.bmp,,,,,0,70,70,70,,,,,,,,,,,,,,,,,,,,,,,,,,,,,,,,,,,,,,,,,,None,,580.9338852799999,None,580.9338852799999,None,2022-09-12-11:10:15.102064,580.9426875999998,581.2536463999995,580.9426875999998,580.9426875999998,None,580.9426875999998,580.9426875999998,581.7511242799999,None,,,,22014,0002,2022_Sep_12_1100,localizer,2021.1.3,59.58644622856366,
block,scrambled,scrambled016.bmp,,,,,0,71,71,71,,,,,,,,,,,,,,,,,,,,,,,,,,,,,,,,,,,,,,,,,,None,,581.7511242799999,None,581.7511242799999,None,2022-09-12-11:10:15.919497,581.7581664999998,582.0668064000001,581.7581664999998,None,None,581.7581664999998,None,582.5672397799997,None,,,,22014,0002,2022_Sep_12_1100,localizer,2021.1.3,59.58644622856366,
block,scrambled,scrambled008.bmp,,,,,0,72,72,72,,,,,,,,,,,,,,,,,,,,,,,,,,,,,,,,,,,,,,,,,,None,,582.5672397799997,None,582.5672397799997,None,2022-09-12-11:10:16.734418,582.5761506999997,582.8838595999996,582.5761506999997,None,None,582.5761506999997,None,583.3838616800001,None,,,,22014,0002,2022_Sep_12_1100,localizer,2021.1.3,59.58644622856366,
block,scrambled,scrambled063.bmp,,,,,0,73,73,73,,,,,,,,,,,,,,,,,,,,,,,,,,,,,,,,,,,,,,,,,,None,,583.3838616800001,None,583.3838616800001,None,2022-09-12-11:10:17.551040,583.3846463,583.6838183,583.3846463,None,None,583.3846463,None,584.1839087799997,None,,,,22014,0002,2022_Sep_12_1100,localizer,2021.1.3,59.58644622856366,
block,scrambled,scrambled044.bmp,,,,,0,74,74,74,,,,,,,,,,,,,,,,,,,,,,,,,,,,,,,,,,,,,,,,,,None,,584.1839087799997,None,584.1839087799997,None,2022-09-12-11:10:18.352085,584.1846482999999,584.4837783000003,584.1846482999999,584.1846482999999,None,584.1846482999999,584.1846482999999,584.9839829800001,None,,,,22014,0002,2022_Sep_12_1100,localizer,2021.1.3,59.58644622856366,
block_end,scrambled,scrambled087.bmp,,,,,0,75,75,75,,,,,,,,,,,,,,,,,,,,,,,,,,,,,,,,,,,,,,,,,,None,,584.9839829800001,None,584.9839829800001,None,2022-09-12-11:10:19.152159,584.9940559999995,585.3005477999995,584.9940559999995,584.9940559999995,None,584.9940559999995,584.9940559999995,585.8004801799996,None,,,,22014,0002,2022_Sep_12_1100,localizer,2021.1.3,59.58644622856366,
block_start,objects,objects013.bmp,,,,,0,76,76,76,,,,,,,,,,,,,,,,,,,,,,,,,,,,,,,,,,,,,,,,,,t,1.8366304999999556,585.8003306,None,585.8003306,None,2022-09-12-11:10:21.833497,587.6680648000001,587.9670717999998,587.6680648000001,None,None,587.6680648000001,None,588.4672893799996,None,,,,22014,0002,2022_Sep_12_1100,localizer,2021.1.3,59.58644622856366,
block,objects,objects082.bmp,,,,,0,77,77,77,,,,,,,,,,,,,,,,,,,,,,,,,,,,,,,,,,,,,,,,,,None,,588.4672893799996,None,588.4672893799996,None,2022-09-12-11:10:22.636631,588.4690406999998,588.7839228000003,588.4690406999998,588.4690406999998,None,588.4690406999998,588.4690406999998,589.2838873799999,None,,,,22014,0002,2022_Sep_12_1100,localizer,2021.1.3,59.58644622856366,
block,objects,objects015.bmp,,,,,0,78,78,78,,,,,,,,,,,,,,,,,,,,,,,,,,,,,,,,,,,,,,,,,,None,,589.2838873799999,None,589.2838873799999,None,2022-09-12-11:10:23.451067,589.2927602999998,589.6006523999995,589.2927602999998,None,None,589.2927602999998,None,590.1008067800001,None,,,,22014,0002,2022_Sep_12_1100,localizer,2021.1.3,59.58644622856366,
block,objects,objects077.bmp,,,,,0,79,79,79,,,,,,,,,,,,,,,,,,,,,,,,,,,,,,,,,,,,,,,,,,None,,590.1008067800001,None,590.1008067800001,None,2022-09-12-11:10:24.267988,590.1097162999995,590.4173185999998,590.1097162999995,None,None,590.1097162999995,None,590.9173789799995,None,,,,22014,0002,2022_Sep_12_1100,localizer,2021.1.3,59.58644622856366,
block,objects,objects060.bmp,,,,,0,80,80,80,,,,,,,,,,,,,,,,,,,,,,,,,,,,,,,,,,,,,,,,,,None,,590.9173789799995,None,590.9173789799995,None,2022-09-12-11:10:25.084560,590.9179561000001,591.2342589,590.9179561000001,None,None,590.9179561000001,None,591.7171245799998,None,,,,22014,0002,2022_Sep_12_1100,localizer,2021.1.3,59.58644622856366,
block,objects,objects043.bmp,,,,,0,81,81,81,,,,,,,,,,,,,,,,,,,,,,,,,,,,,,,,,,,,,,,,,,None,,591.7171245799998,None,591.7171245799998,None,2022-09-12-11:10:25.885808,591.7179116999996,592.0172290999999,591.7179116999996,591.7179116999996,None,591.7179116999996,591.7179116999996,592.5172273799997,None,,,,22014,0002,2022_Sep_12_1100,localizer,2021.1.3,59.58644622856366,
block,objects,objects020.bmp,,,,,0,82,82,82,,,,,,,,,,,,,,,,,,,,,,,,,,,,,,,,,,,,,,,,,,None,,592.5172273799997,None,592.5172273799997,None,2022-09-12-11:10:26.685405,592.5179620999997,592.8171070999997,592.5179620999997,592.5179620999997,None,592.5179620999997,592.5179620999997,593.3186122799996,None,,,,22014,0002,2022_Sep_12_1100,localizer,2021.1.3,59.58644622856366,
block,objects,objects088.bmp,,,,,0,83,83,83,,,,,,,,,,,,,,,,,,,,,,,,,,,,,,,,,,,,,,,,,,None,,593.3186122799996,None,593.3186122799996,None,2022-09-12-11:10:27.489662,593.3237576000001,593.6342579000002,593.3237576000001,593.3237576000001,None,593.3237576000001,593.3237576000001,594.1342447799996,None,,,,22014,0002,2022_Sep_12_1100,localizer,2021.1.3,59.58644622856366,
block,objects,objects006.bmp,,,,,0,84,84,84,,,,,,,,,,,,,,,,,,,,,,,,,,,,,,,,,,,,,,,,,,None,,594.1342447799996,None,594.1342447799996,None,2022-09-12-11:10:28.301625,594.1441265000003,594.4506065999994,594.1441265000003,None,None,594.1441265000003,None,594.9509745799994,None,,,,22014,0002,2022_Sep_12_1100,localizer,2021.1.3,59.58644622856366,
block,objects,objects006.bmp,,,,,0,85,85,85,,,,,,,,,,,,,,,,,,,,,,,,,,,,,,,,,,,,,,,,,,None,,594.9509745799994,None,594.9509745799994,None,2022-09-12-11:10:29.119060,594.9516105000002,595.2507077,594.9516105000002,None,y,594.9516105000002,None,595.7507947800002,None,0.6599941000004037,,,22014,0002,2022_Sep_12_1100,localizer,2021.1.3,59.58644622856366,
block,objects,objects059.bmp,,,,,0,86,86,86,,,,,,,,,,,,,,,,,,,,,,,,,,,,,,,,,,,,,,,,,,None,,595.7507947800002,None,595.7507947800002,None,2022-09-12-11:10:29.920219,595.7526939999998,596.0672335999998,595.7526939999998,595.7526939999998,None,595.7526939999998,595.7526939999998,596.56744048,None,,,,22014,0002,2022_Sep_12_1100,localizer,2021.1.3,59.58644622856366,
block,objects,objects027.bmp,,,,,0,87,87,87,,,,,,,,,,,,,,,,,,,,,,,,,,,,,,,,,,,,,,,,,,None,,596.56744048,None,596.56744048,None,2022-09-12-11:10:30.734684,596.5682115,596.8672888000001,596.5682115,None,None,596.5682115,None,597.3676916800002,None,,,,22014,0002,2022_Sep_12_1100,localizer,2021.1.3,59.58644622856366,
block,objects,objects047.bmp,,,,,0,88,88,88,,,,,,,,,,,,,,,,,,,,,,,,,,,,,,,,,,,,,,,,,,None,,597.3676916800002,None,597.3676916800002,None,2022-09-12-11:10:31.536858,597.3704450999994,597.6900378,597.3704450999994,597.3704450999994,None,597.3704450999994,597.3704450999994,598.18471028,None,,,,22014,0002,2022_Sep_12_1100,localizer,2021.1.3,59.58644622856366,
block,objects,objects001.bmp,,,,,0,89,89,89,,,,,,,,,,,,,,,,,,,,,,,,,,,,,,,,,,,,,,,,,,None,,598.21821124,None,598.21821124,None,2022-09-12-11:10:32.384973,598.2157766999999,598.5171177000002,598.2157766999999,None,None,598.2157766999999,None,599.0173284800001,None,,,,22014,0002,2022_Sep_12_1100,localizer,2021.1.3,59.58644622856366,
block_end,objects,objects005.bmp,,,,,0,90,90,90,,,,,,,,,,,,,,,,,,,,,,,,,,,,,,,,,,,,,,,,,,None,,599.0173284800001,None,599.0173284800001,None,2022-09-12-11:10:33.186625,599.0285309999999,599.3339396000001,599.0285309999999,599.0285309999999,None,599.0285309999999,599.0285309999999,599.8340442799997,None,,,,22014,0002,2022_Sep_12_1100,localizer,2021.1.3,59.58644622856366,
block_start,scenes,scenes078.bmp,,,,,0,91,91,91,,,,,,,,,,,,,,,,,,,,,,,,,,,,,,,,,,,,,,,,,,t,1.8031150999995589,599.8338543999998,None,599.8338543999998,None,2022-09-12-11:10:35.834395,601.6765859999996,601.9838792,601.6765859999996,None,None,601.6765859999996,None,602.4840833799997,None,,,,22014,0002,2022_Sep_12_1100,localizer,2021.1.3,59.58644622856366,
block,scenes,scenes006.bmp,,,,,0,92,92,92,,,,,,,,,,,,,,,,,,,,,,,,,,,,,,,,,,,,,,,,,,None,,602.4840833799997,None,602.4840833799997,None,2022-09-12-11:10:36.651259,602.4850397,602.7842082999996,602.4850397,None,None,602.4850397,None,603.2845088800002,None,,,,22014,0002,2022_Sep_12_1100,localizer,2021.1.3,59.58644622856366,
block,scenes,scenes090.bmp,,,,,0,93,93,93,,,,,,,,,,,,,,,,,,,,,,,,,,,,,,,,,,,,,,,,,,None,,603.2845088800002,None,603.2845088800002,None,2022-09-12-11:10:37.453878,603.2864703999994,603.6010901999998,603.2864703999994,603.2864703999994,None,603.2864703999994,603.2864703999994,604.1011678799994,None,,,,22014,0002,2022_Sep_12_1100,localizer,2021.1.3,59.58644622856366,
block,scenes,scenes074.bmp,,,,,0,94,94,94,,,,,,,,,,,,,,,,,,,,,,,,,,,,,,,,,,,,,,,,,,None,,604.1011678799994,None,604.1011678799994,None,2022-09-12-11:10:38.268342,604.1121351000002,604.4177270999999,604.1121351000002,None,None,604.1121351000002,None,604.9178005800002,None,,,,22014,0002,2022_Sep_12_1100,localizer,2021.1.3,59.58644622856366,
block,scenes,scenes054.bmp,,,,,0,95,95,95,,,,,,,,,,,,,,,,,,,,,,,,,,,,,,,,,,,,,,,,,,None,,604.9178005800002,None,604.9178005800002,None,2022-09-12-11:10:39.084971,604.9184986,605.2175812999994,604.9184986,None,None,604.9184986,None,605.7178496799995,None,,,,22014,0002,2022_Sep_12_1100,localizer,2021.1.3,59.58644622856366,
block,scenes,scenes017.bmp,,,,,0,96,96,96,,,,,,,,,,,,,,,,,,,,,,,,,,,,,,,,,,,,,,,,,,None,,605.7178496799995,None,605.7178496799995,None,2022-09-12-11:10:39.887066,605.720276,606.0344694999994,605.720276,605.720276,None,605.720276,605.720276,606.5345162800002,None,,,,22014,0002,2022_Sep_12_1100,localizer,2021.1.3,59.58644622856366,
block,scenes,scenes070.bmp,,,,,0,97,97,97,,,,,,,,,,,,,,,,,,,,,,,,,,,,,,,,,,,,,,,,,,None,,606.5345162800002,None,606.5345162800002,None,2022-09-12-11:10:40.701374,606.5351430000001,606.8344470000002,606.5351430000001,None,None,606.5351430000001,None,607.3341652799998,None,,,,22014,0002,2022_Sep_12_1100,localizer,2021.1.3,59.58644622856366,
block,scenes,scenes038.bmp,,,,,0,98,98,98,,,,,,,,,,,,,,,,,,,,,,,,,,,,,,,,,,,,,,,,,,None,,607.3341652799998,None,607.3341652799998,None,2022-09-12-11:10:41.502341,607.3442135999994,607.6507087,607.3442135999994,607.3442135999994,None,607.3442135999994,607.3442135999994,608.1509572799994,None,,,,22014,0002,2022_Sep_12_1100,localizer,2021.1.3,59.58644622856366,
block,scenes,scenes068.bmp,,,,,0,99,99,99,,,,,,,,,,,,,,,,,,,,,,,,,,,,,,,,,,,,,,,,,,None,,608.1509572799994,None,608.1509572799994,None,2022-09-12-11:10:42.318471,608.1516302,608.4672633999999,608.1516302,None,None,608.1516302,None,608.9509328800002,None,,,,22014,0002,2022_Sep_12_1100,localizer,2021.1.3,59.58644622856366,
block,scenes,scenes020.bmp,,,,,0,100,100,100,,,,,,,,,,,,,,,,,,,,,,,,,,,,,,,,,,,,,,,,,,None,,608.9509328800002,None,608.9509328800002,None,2022-09-12-11:10:43.120087,608.9521279999999,609.2674527999998,608.9521279999999,608.9521279999999,None,608.9521279999999,608.9521279999999,609.7519233800001,None,,,,22014,0002,2022_Sep_12_1100,localizer,2021.1.3,59.58644622856366,
block,scenes,scenes045.bmp,,,,,0,101,101,101,,,,,,,,,,,,,,,,,,,,,,,,,,,,,,,,,,,,,,,,,,None,,609.7519233800001,None,609.7519233800001,None,2022-09-12-11:10:43.923100,609.7624172999995,610.0674329000003,609.7624172999995,609.7624172999995,None,609.7624172999995,609.7624172999995,610.5675316799995,None,,,,22014,0002,2022_Sep_12_1100,localizer,2021.1.3,59.58644622856366,
block,scenes,scenes059.bmp,,,,,0,102,102,102,,,,,,,,,,,,,,,,,,,,,,,,,,,,,,,,,,,,,,,,,,None,,610.5675316799995,None,610.5675316799995,None,2022-09-12-11:10:44.734712,610.5682775999994,610.8838031999994,610.5682775999994,None,None,610.5682775999994,None,611.3692069799997,None,,,,22014,0002,2022_Sep_12_1100,localizer,2021.1.3,59.58644622856366,
block,scenes,scenes072.bmp,,,,,0,103,103,103,,,,,,,,,,,,,,,,,,,,,,,,,,,,,,,,,,,,,,,,,,None,,611.3692069799997,None,611.3692069799997,None,2022-09-12-11:10:45.540384,611.3839539,611.6840876999995,611.3839539,611.3839539,None,611.3839539,611.3839539,612.1853496800002,None,,,,22014,0002,2022_Sep_12_1100,localizer,2021.1.3,59.58644622856366,
block,scenes,scenes085.bmp,,,,,0,104,104,104,,,,,,,,,,,,,,,,,,,,,,,,,,,,,,,,,,,,,,,,,,None,,612.1853496800002,None,612.1853496800002,None,2022-09-12-11:10:46.353505,612.1966763999999,612.5006263999994,612.1966763999999,None,None,612.1966763999999,None,613.0014501799994,None,,,,22014,0002,2022_Sep_12_1100,localizer,2021.1.3,59.58644622856366,
block_end,scenes,scenes031.bmp,,,,,0,105,105,105,,,,,,,,,,,,,,,,,,,,,,,,,,,,,,,,,,,,,,,,,,None,,613.0014501799994,None,613.0014501799994,None,2022-09-12-11:10:47.169806,613.0021993,613.3010752,613.0021993,None,None,613.0021993,None,613.8176125799998,None,,,,22014,0002,2022_Sep_12_1100,localizer,2021.1.3,59.58644622856366,
null_block,null_block,null_block.bmp,,,,,0,106,106,106,,,,,,,,,,,,,,,,,,,,,,,,,,,,,,,,,,,,,,,,,,t,1.8185010000006514,613.8174283999997,None,613.8174283999997,None,2022-09-12-11:10:49.846201,615.6739210799994,None,615.6739210799994,None,None,615.6739210799994,None,615.685528,None,,,,22014,0002,2022_Sep_12_1100,localizer,2021.1.3,59.58644622856366,
block_start,faces,faces057.bmp,,,,,0,107,107,107,,,,,,,,,,,,,,,,,,,,,,,,,,,,,,,,,,,,,,,,,,t,1.9511376000000382,627.6849387000002,None,627.6849387000002,None,2022-09-12-11:11:03.827158,629.6674899999998,629.9673925999996,629.6674899999998,None,None,629.6674899999998,None,630.4675092799996,None,,,,22014,0002,2022_Sep_12_1100,localizer,2021.1.3,59.58644622856366,
block,faces,faces031.bmp,,,,,0,108,108,108,,,,,,,,,,,,,,,,,,,,,,,,,,,,,,,,,,,,,,,,,,None,,630.4675092799996,None,630.4675092799996,None,2022-09-12-11:11:04.635098,630.4684603999995,630.7841466999998,630.4684603999995,None,None,630.4684603999995,None,631.2677921800002,None,,,,22014,0002,2022_Sep_12_1100,localizer,2021.1.3,59.58644622856366,
block,faces,faces058.bmp,,,,,0,109,109,109,,,,,,,,,,,,,,,,,,,,,,,,,,,,,,,,,,,,,,,,,,None,,631.2677921800002,None,631.2677921800002,None,2022-09-12-11:11:05.436195,631.2787061999998,631.5840735000002,631.2787061999998,631.2787061999998,None,631.2787061999998,631.2787061999998,632.0841699800001,None,,,,22014,0002,2022_Sep_12_1100,localizer,2021.1.3,59.58644622856366,
block,faces,faces039.bmp,,,,,0,110,110,110,,,,,,,,,,,,,,,,,,,,,,,,,,,,,,,,,,,,,,,,,,None,,632.0841699800001,None,632.0841699800001,None,2022-09-12-11:11:06.251349,632.0852502999996,632.4006436999998,632.0852502999996,None,None,632.0852502999996,None,632.9010314799996,None,,,,22014,0002,2022_Sep_12_1100,localizer,2021.1.3,59.58644622856366,
block,faces,faces085.bmp,,,,,0,111,111,111,,,,,,,,,,,,,,,,,,,,,,,,,,,,,,,,,,,,,,,,,,None,,632.9010314799996,None,632.9010314799996,None,2022-09-12-11:11:07.068210,632.9095397000001,633.2174724999995,632.9095397000001,None,None,632.9095397000001,None,633.7173667799996,None,,,,22014,0002,2022_Sep_12_1100,localizer,2021.1.3,59.58644622856366,
block,faces,faces016.bmp,,,,,0,112,112,112,,,,,,,,,,,,,,,,,,,,,,,,,,,,,,,,,,,,,,,,,,None,,633.7173667799996,None,633.7173667799996,None,2022-09-12-11:11:07.885078,633.7185041000002,634.0341275999999,633.7185041000002,None,None,633.7185041000002,None,634.5179343799998,None,,,,22014,0002,2022_Sep_12_1100,localizer,2021.1.3,59.58644622856366,
block,faces,faces004.bmp,,,,,0,113,113,113,,,,,,,,,,,,,,,,,,,,,,,,,,,,,,,,,,,,,,,,,,None,,634.5179343799998,None,634.5179343799998,None,2022-09-12-11:11:08.687321,634.5199549999998,634.8343534999995,634.5199549999998,634.5199549999998,None,634.5199549999998,634.5199549999998,635.3345148799997,None,,,,22014,0002,2022_Sep_12_1100,localizer,2021.1.3,59.58644622856366,
block,faces,faces047.bmp,,,,,0,114,114,114,,,,,,,,,,,,,,,,,,,,,,,,,,,,,,,,,,,,,,,,,,None,,635.3345148799997,None,635.3345148799997,None,2022-09-12-11:11:09.501753,635.3364357999999,635.6509745000003,635.3364357999999,None,None,635.3364357999999,None,636.1510570799999,None,,,,22014,0002,2022_Sep_12_1100,localizer,2021.1.3,59.58644622856366,
block,faces,faces023.bmp,,,,,0,115,115,115,,,,,,,,,,,,,,,,,,,,,,,,,,,,,,,,,,,,,,,,,,None,,636.1510570799999,None,636.1510570799999,None,2022-09-12-11:11:10.318236,636.1571592999999,636.4675305999999,636.1571592999999,None,None,636.1571592999999,None,636.9681198799997,None,,,,22014,0002,2022_Sep_12_1100,localizer,2021.1.3,59.58644622856366,
block,faces,faces014.bmp,,,,,0,116,116,116,,,,,,,,,,,,,,,,,,,,,,,,,,,,,,,,,,,,,,,,,,None,,636.9681198799997,None,636.9681198799997,None,2022-09-12-11:11:11.136259,636.9787077000001,637.2845121999999,636.9787077000001,None,None,636.9787077000001,None,637.7855265799997,None,,,,22014,0002,2022_Sep_12_1100,localizer,2021.1.3,59.58644622856366,
block,faces,faces051.bmp,,,,,0,117,117,117,,,,,,,,,,,,,,,,,,,,,,,,,,,,,,,,,,,,,,,,,,None,,637.7855265799997,None,637.7855265799997,None,2022-09-12-11:11:11.954853,637.8012368,638.1009742999995,637.8012368,None,None,637.8012368,None,638.6014778799997,None,,,,22014,0002,2022_Sep_12_1100,localizer,2021.1.3,59.58644622856366,
block,faces,faces064.bmp,,,,,0,118,118,118,,,,,,,,,,,,,,,,,,,,,,,,,,,,,,,,,,,,,,,,,,None,,638.6014778799997,None,638.6014778799997,None,2022-09-12-11:11:12.768643,638.6022137999998,638.9013577999995,638.6022137999998,None,None,638.6022137999998,None,639.4177755799999,None,,,,22014,0002,2022_Sep_12_1100,localizer,2021.1.3,59.58644622856366,
block,faces,faces037.bmp,,,,,0,119,119,119,,,,,,,,,,,,,,,,,,,,,,,,,,,,,,,,,,,,,,,,,,None,,639.4177755799999,None,639.4177755799999,None,2022-09-12-11:11:13.584953,639.4185306999998,639.7178832999998,639.4185306999998,None,None,639.4185306999998,None,640.2180965799996,None,,,,22014,0002,2022_Sep_12_1100,localizer,2021.1.3,59.58644622856366,
block,faces,faces038.bmp,,,,,0,120,120,120,,,,,,,,,,,,,,,,,,,,,,,,,,,,,,,,,,,,,,,,,,None,,640.2180965799996,None,640.2180965799996,None,2022-09-12-11:11:14.387469,640.2210507999998,640.5345492999995,640.2210507999998,640.2210507999998,None,640.2210507999998,640.2210507999998,641.0346283799997,None,,,,22014,0002,2022_Sep_12_1100,localizer,2021.1.3,59.58644622856366,
block_end,faces,faces053.bmp,,,,,0,121,121,121,,,,,,,,,,,,,,,,,,,,,,,,,,,,,,,,,,,,,,,,,,None,,641.0346283799997,None,641.0346283799997,None,2022-09-12-11:11:15.201956,641.0446579,641.3511951999999,641.0446579,None,None,641.0446579,None,641.8514055799994,None,,,,22014,0002,2022_Sep_12_1100,localizer,2021.1.3,59.58644622856366,
block_start,scrambled,scrambled021.bmp,,,,,0,122,122,122,,,,,,,,,,,,,,,,,,,,,,,,,,,,,,,,,,,,,,,,,,t,1.7847208000002865,641.8511910999996,None,641.8511910999996,None,2022-09-12-11:11:17.818044,643.6518231,643.9507545999995,643.6518231,None,None,643.6518231,None,644.45110808,None,,,,22014,0002,2022_Sep_12_1100,localizer,2021.1.3,59.58644622856366,
block,scrambled,scrambled058.bmp,,,,,0,123,123,123,,,,,,,,,,,,,,,,,,,,,,,,,,,,,,,,,,,,,,,,,,None,,644.45110808,None,644.45110808,None,2022-09-12-11:11:18.619641,644.4572139000002,644.7674765000002,644.4572139000002,644.4572139000002,None,644.4572139000002,644.4572139000002,645.2677177799994,None,,,,22014,0002,2022_Sep_12_1100,localizer,2021.1.3,59.58644622856366,
block,scrambled,scrambled051.bmp,,,,,0,124,124,124,,,,,,,,,,,,,,,,,,,,,,,,,,,,,,,,,,,,,,,,,,None,,645.2677177799994,None,645.2677177799994,None,2022-09-12-11:11:19.435196,645.2685725000001,645.5842943999996,645.2685725000001,None,None,645.2685725000001,None,646.0679941799997,None,,,,22014,0002,2022_Sep_12_1100,localizer,2021.1.3,59.58644622856366,
block,scrambled,scrambled057.bmp,,,,,0,125,125,125,,,,,,,,,,,,,,,,,,,,,,,,,,,,,,,,,,,,,,,,,,None,,646.0679941799997,None,646.0679941799997,None,2022-09-12-11:11:20.237163,646.0696175000003,646.3844238000001,646.0696175000003,646.0696175000003,None,646.0696175000003,646.0696175000003,646.88460758,None,,,,22014,0002,2022_Sep_12_1100,localizer,2021.1.3,59.58644622856366,
block,scrambled,scrambled022.bmp,,,,,0,126,126,126,,,,,,,,,,,,,,,,,,,,,,,,,,,,,,,,,,,,,,,,,,None,,646.88460758,None,646.88460758,None,2022-09-12-11:11:21.051781,646.8943815000002,647.2012568999999,646.8943815000002,None,None,646.8943815000002,None,647.70068668,None,,,,22014,0002,2022_Sep_12_1100,localizer,2021.1.3,59.58644622856366,
block,scrambled,scrambled069.bmp,,,,,0,127,127,127,,,,,,,,,,,,,,,,,,,,,,,,,,,,,,,,,,,,,,,,,,None,,647.70068668,None,647.70068668,None,2022-09-12-11:11:21.868011,647.7088346999999,648.0178208999996,647.7088346999999,None,None,647.7088346999999,None,648.5179224800002,None,,,,22014,0002,2022_Sep_12_1100,localizer,2021.1.3,59.58644622856366,
block,scrambled,scrambled065.bmp,,,,,0,128,128,128,,,,,,,,,,,,,,,,,,,,,,,,,,,,,,,,,,,,,,,,,,None,,648.5179224800002,None,648.5179224800002,None,2022-09-12-11:11:22.685096,648.5185513999995,648.8175908000003,648.5185513999995,None,None,648.5185513999995,None,649.3176923799999,None,,,,22014,0002,2022_Sep_12_1100,localizer,2021.1.3,59.58644622856366,
block,scrambled,scrambled045.bmp,,,,,0,129,129,129,,,,,,,,,,,,,,,,,,,,,,,,,,,,,,,,,,,,,,,,,,None,,649.3176923799999,None,649.3176923799999,None,2022-09-12-11:11:23.486730,649.3283953999999,649.6342212,649.3283953999999,649.3283953999999,None,649.3283953999999,649.3283953999999,650.1355973799998,None,,,,22014,0002,2022_Sep_12_1100,localizer,2021.1.3,59.58644622856366,
block,scrambled,scrambled052.bmp,,,,,0,130,130,130,,,,,,,,,,,,,,,,,,,,,,,,,,,,,,,,,,,,,,,,,,None,,650.1355973799998,None,650.1355973799998,None,2022-09-12-11:11:24.303916,650.1377397999995,650.4515403999994,650.1377397999995,None,None,650.1377397999995,None,650.95087408,None,,,,22014,0002,2022_Sep_12_1100,localizer,2021.1.3,59.58644622856366,
block,scrambled,scrambled055.bmp,,,,,0,131,131,131,,,,,,,,,,,,,,,,,,,,,,,,,,,,,,,,,,,,,,,,,,None,,650.95087408,None,650.95087408,None,2022-09-12-11:11:25.118055,650.9592087999999,651.2670644999998,650.9592087999999,None,None,650.9592087999999,None,651.7677729799996,None,,,,22014,0002,2022_Sep_12_1100,localizer,2021.1.3,59.58644622856366,
block,scrambled,scrambled041.bmp,,,,,0,132,132,132,,,,,,,,,,,,,,,,,,,,,,,,,,,,,,,,,,,,,,,,,,None,,651.7677729799996,None,651.7677729799996,None,2022-09-12-11:11:25.935078,651.7685316999996,652.084347,651.7685316999996,None,None,651.7685316999996,None,652.5677673799999,None,,,,22014,0002,2022_Sep_12_1100,localizer,2021.1.3,59.58644622856366,
block,scrambled,scrambled016.bmp,,,,,0,133,133,133,,,,,,,,,,,,,,,,,,,,,,,,,,,,,,,,,,,,,,,,,,None,,652.5677673799999,None,652.5677673799999,None,2022-09-12-11:11:26.735945,652.5683939999999,652.8841353999996,652.5683939999999,652.5683939999999,None,652.5683939999999,652.5683939999999,653.3689261799998,None,,,,22014,0002,2022_Sep_12_1100,localizer,2021.1.3,59.58644622856366,
block,scrambled,scrambled007.bmp,,,,,0,134,134,134,,,,,,,,,,,,,,,,,,,,,,,,,,,,,,,,,,,,,,,,,,None,,653.3689261799998,None,653.3689261799998,None,2022-09-12-11:11:27.541072,653.3740755999997,653.6904628000002,653.3740755999997,653.3740755999997,None,653.3740755999997,653.3740755999997,654.1741191799999,None,,,,22014,0002,2022_Sep_12_1100,localizer,2021.1.3,59.58644622856366,
block,scrambled,scrambled028.bmp,,,,,0,135,135,135,,,,,,,,,,,,,,,,,,,,,,,,,,,,,,,,,,,,,,,,,,None,,654.1741191799999,None,654.1741191799999,None,2022-09-12-11:11:28.349932,654.1942518999995,654.5012074999995,654.1942518999995,654.1942518999995,None,654.1942518999995,654.1942518999995,654.9847059800002,None,,,,22014,0002,2022_Sep_12_1100,localizer,2021.1.3,59.58644622856366,
block_end,scrambled,scrambled073.bmp,,,,,0,136,136,136,,,,,,,,,,,,,,,,,,,,,,,,,,,,,,,,,,,,,,,,,,None,,654.9847059800002,None,654.9847059800002,None,2022-09-12-11:11:29.151880,654.9853252000003,655.3009878000003,654.9853252000003,None,None,654.9853252000003,None,655.7904457799993,None,,,,22014,0002,2022_Sep_12_1100,localizer,2021.1.3,59.58644622856366,
block_start,objects,objects029.bmp,,,,,0,137,137,137,,,,,,,,,,,,,,,,,,,,,,,,,,,,,,,,,,,,,,,,,,t,1.8459852000005412,655.7902383,None,655.7902383,None,2022-09-12-11:11:31.830145,657.6663174999994,657.9676307,657.6663174999994,None,None,657.6663174999994,None,658.4678166800002,None,,,,22014,0002,2022_Sep_12_1100,localizer,2021.1.3,59.58644622856366,
block,objects,objects084.bmp,,,,,0,138,138,138,,,,,,,,,,,,,,,,,,,,,,,,,,,,,,,,,,,,,,,,,,None,,658.4678166800002,None,658.4678166800002,None,2022-09-12-11:11:32.634996,658.4683103999996,658.7675214000001,658.4683103999996,None,None,658.4683103999996,None,659.2679623800002,None,,,,22014,0002,2022_Sep_12_1100,localizer,2021.1.3,59.58644622856366,
block,objects,objects034.bmp,,,,,0,139,139,139,,,,,,,,,,,,,,,,,,,,,,,,,,,,,,,,,,,,,,,,,,None,,659.2679623800002,None,659.2679623800002,None,2022-09-12-11:11:33.437130,659.2692066999998,659.5842986999996,659.2692066999998,659.2692066999998,None,659.2692066999998,659.2692066999998,660.0845904799996,None,,,,22014,0002,2022_Sep_12_1100,localizer,2021.1.3,59.58644622856366,
block,objects,objects058.bmp,,,,,0,140,140,140,,,,,,,,,,,,,,,,,,,,,,,,,,,,,,,,,,,,,,,,,,None,,660.0845904799996,None,660.0845904799996,None,2022-09-12-11:11:34.251973,660.0853483999999,660.4007191000001,660.0853483999999,None,None,660.0853483999999,None,660.8856364800001,None,,,,22014,0002,2022_Sep_12_1100,localizer,2021.1.3,59.58644622856366,
block,objects,objects049.bmp,,,,,0,141,141,141,,,,,,,,,,,,,,,,,,,,,,,,,,,,,,,,,,,,,,,,,,None,,660.8856364800001,None,660.8856364800001,None,2022-09-12-11:11:35.057963,660.8910717999997,661.1889328999996,660.8910717999997,660.8910717999997,None,660.8910717999997,660.8910717999997,661.7011006800001,None,,,,22014,0002,2022_Sep_12_1100,localizer,2021.1.3,59.58644622856366,
block,objects,objects075.bmp,,,,,0,142,142,142,,,,,,,,,,,,,,,,,,,,,,,,,,,,,,,,,,,,,,,,,,None,,661.7011006800001,None,661.7011006800001,None,2022-09-12-11:11:35.868280,661.7017801000002,662.0015985,661.7017801000002,None,None,661.7017801000002,None,662.5011540799994,None,,,,22014,0002,2022_Sep_12_1100,localizer,2021.1.3,59.58644622856366,
block,objects,objects026.bmp,,,,,0,143,143,143,,,,,,,,,,,,,,,,,,,,,,,,,,,,,,,,,,,,,,,,,,None,,662.5011540799994,None,662.5011540799994,None,2022-09-12-11:11:36.670535,662.5089255000003,662.8185039999998,662.5089255000003,662.5089255000003,None,662.5089255000003,662.5089255000003,663.3190725800002,None,,,,22014,0002,2022_Sep_12_1100,localizer,2021.1.3,59.58644622856366,
block,objects,objects021.bmp,,,,,0,144,144,144,,,,,,,,,,,,,,,,,,,,,,,,,,,,,,,,,,,,,,,,,,None,,663.3190725800002,None,663.3190725800002,None,2022-09-12-11:11:37.488067,663.3216418000002,663.6246322999996,663.3216418000002,None,None,663.3216418000002,None,664.1349070799995,None,,,,22014,0002,2022_Sep_12_1100,localizer,2021.1.3,59.58644622856366,
block,objects,objects010.bmp,,,,,0,145,145,145,,,,,,,,,,,,,,,,,,,,,,,,,,,,,,,,,,,,,,,,,,None,,664.1349070799995,None,664.1349070799995,None,2022-09-12-11:11:38.303075,664.1354513999995,664.4352005000001,664.1354513999995,None,None,664.1354513999995,None,664.9344541799999,None,,,,22014,0002,2022_Sep_12_1100,localizer,2021.1.3,59.58644622856366,
block,objects,objects088.bmp,,,,,0,146,146,146,,,,,,,,,,,,,,,,,,,,,,,,,,,,,,,,,,,,,,,,,,None,,664.9344541799999,None,664.9344541799999,None,2022-09-12-11:11:39.103633,664.9354486000002,665.2347137999996,664.9354486000002,664.9354486000002,None,664.9354486000002,664.9354486000002,665.7407347799997,None,,,,22014,0002,2022_Sep_12_1100,localizer,2021.1.3,59.58644622856366,
block,objects,objects006.bmp,,,,,0,147,147,147,,,,,,,,,,,,,,,,,,,,,,,,,,,,,,,,,,,,,,,,,,None,,665.7407347799997,None,665.7407347799997,None,2022-09-12-11:11:39.916853,665.7474995000002,666.0509052999996,665.7474995000002,665.7474995000002,None,665.7474995000002,665.7474995000002,666.5510592799999,None,,,,22014,0002,2022_Sep_12_1100,localizer,2021.1.3,59.58644622856366,
block,objects,objects062.bmp,,,,,0,148,148,148,,,,,,,,,,,,,,,,,,,,,,,,,,,,,,,,,,,,,,,,,,None,,666.5510592799999,None,666.5510592799999,None,2022-09-12-11:11:40.720477,666.5619601999997,666.8678156999995,666.5619601999997,666.5619601999997,None,666.5619601999997,666.5619601999997,667.3690024799996,None,,,,22014,0002,2022_Sep_12_1100,localizer,2021.1.3,59.58644622856366,
block,objects,objects038.bmp,,,,,0,149,149,149,,,,,,,,,,,,,,,,,,,,,,,,,,,,,,,,,,,,,,,,,,None,,667.3690024799996,None,667.3690024799996,None,2022-09-12-11:11:41.538156,667.3829348999998,667.6850204000002,667.3829348999998,None,None,667.3829348999998,None,668.18508628,None,,,,22014,0002,2022_Sep_12_1100,localizer,2021.1.3,59.58644622856366,
block,objects,objects046.bmp,,,,,0,150,150,150,,,,,,,,,,,,,,,,,,,,,,,,,,,,,,,,,,,,,,,,,,None,,668.18508628,None,668.18508628,None,2022-09-12-11:11:42.353250,668.1854247000001,668.5075716000001,668.1854247000001,None,None,668.1854247000001,None,669.0011697799998,None,,,,22014,0002,2022_Sep_12_1100,localizer,2021.1.3,59.58644622856366,
block_end,objects,objects060.bmp,,,,,0,151,151,151,,,,,,,,,,,,,,,,,,,,,,,,,,,,,,,,,,,,,,,,,,None,,669.0011697799998,None,669.0011697799998,None,2022-09-12-11:11:43.168349,669.0019891000002,669.3013179999998,669.0019891000002,None,None,669.0019891000002,None,669.8017301799998,None,,,,22014,0002,2022_Sep_12_1100,localizer,2021.1.3,59.58644622856366,
null_block,null_block,null_block.bmp,,,,,0,152,152,152,,,,,,,,,,,,,,,,,,,,,,,,,,,,,,,,,,,,,,,,,,t,1.8338824000002205,669.8018775,None,669.8018775,None,2022-09-12-11:11:45.833983,671.6677611799994,None,671.6677611799994,None,None,671.6677611799994,None,671.6680808000001,None,,,,22014,0002,2022_Sep_12_1100,localizer,2021.1.3,59.58644622856366,
block_start,scenes,scenes055.bmp,,,,,0,153,153,153,,,,,,,,,,,,,,,,,,,,,,,,,,,,,,,,,,,,,,,,,,t,1.9673296999999366,683.6684820999999,None,683.6684820999999,None,2022-09-12-11:11:59.824003,685.6569994000001,685.9525353999998,685.6569994000001,None,None,685.6569994000001,None,686.46791328,None,,,,22014,0002,2022_Sep_12_1100,localizer,2021.1.3,59.58644622856366,
block,scenes,scenes021.bmp,,,,,0,154,154,154,,,,,,,,,,,,,,,,,,,,,,,,,,,,,,,,,,,,,,,,,,None,,686.46791328,None,686.46791328,None,2022-09-12-11:12:00.635095,686.4771770999996,686.784337,686.4771770999996,None,None,686.4771770999996,None,687.2909357799997,None,,,,22014,0002,2022_Sep_12_1100,localizer,2021.1.3,59.58644622856366,
block,scenes,scenes010.bmp,,,,,0,155,155,155,,,,,,,,,,,,,,,,,,,,,,,,,,,,,,,,,,,,,,,,,,None,,687.2909357799997,None,687.2909357799997,None,2022-09-12-11:12:01.465780,687.2976561999994,687.6010730999997,687.2976561999994,None,None,687.2976561999994,None,688.1012307799999,None,,,,22014,0002,2022_Sep_12_1100,localizer,2021.1.3,59.58644622856366,
block,scenes,scenes044.bmp,,,,,0,156,156,156,,,,,,,,,,,,,,,,,,,,,,,,,,,,,,,,,,,,,,,,,,None,,688.1012307799999,None,688.1012307799999,None,2022-09-12-11:12:02.268415,688.1044198,688.4178345,688.1044198,None,None,688.1044198,None,688.91788668,None,,,,22014,0002,2022_Sep_12_1100,localizer,2021.1.3,59.58644622856366,
block,scenes,scenes085.bmp,,,,,0,157,157,157,,,,,,,,,,,,,,,,,,,,,,,,,,,,,,,,,,,,,,,,,,None,,688.91788668,None,688.91788668,None,2022-09-12-11:12:03.085266,688.9188640000002,689.2342068999997,688.9188640000002,None,None,688.9188640000002,None,689.7345458799998,None,,,,22014,0002,2022_Sep_12_1100,localizer,2021.1.3,59.58644622856366,
block,scenes,scenes064.bmp,,,,,0,158,158,158,,,,,,,,,,,,,,,,,,,,,,,,,,,,,,,,,,,,,,,,,,None,,689.7345458799998,None,689.7345458799998,None,2022-09-12-11:12:03.901729,689.7377322000002,690.0518755000003,689.7377322000002,None,None,689.7377322000002,None,690.5517802800002,None,,,,22014,0002,2022_Sep_12_1100,localizer,2021.1.3,59.58644622856366,
block,scenes,scenes041.bmp,,,,,0,159,159,159,,,,,,,,,,,,,,,,,,,,,,,,,,,,,,,,,,,,,,,,,,None,,690.5517802800002,None,690.5517802800002,None,2022-09-12-11:12:04.721293,690.5538427000001,690.8673536999995,690.5538427000001,None,None,690.5538427000001,None,691.3556341800002,None,,,,22014,0002,2022_Sep_12_1100,localizer,2021.1.3,59.58644622856366,
block,scenes,scenes067.bmp,,,,,0,160,160,160,,,,,,,,,,,,,,,,,,,,,,,,,,,,,,,,,,,,,,,,,,None,,691.3556341800002,None,691.3556341800002,None,2022-09-12-11:12:05.526700,691.3595582999997,691.6680749999996,691.3595582999997,691.3595582999997,None,691.3595582999997,691.3595582999997,692.1685831799994,None,,,,22014,0002,2022_Sep_12_1100,localizer,2021.1.3,59.58644622856366,
block,scenes,scenes025.bmp,,,,,0,161,161,161,,,,,,,,,,,,,,,,,,,,,,,,,,,,,,,,,,,,,,,,,,None,,692.1685831799994,None,692.1685831799994,None,2022-09-12-11:12:06.337193,692.1839039999995,692.4843774000001,692.1839039999995,None,None,692.1839039999995,None,692.9843470799995,None,,,,22014,0002,2022_Sep_12_1100,localizer,2021.1.3,59.58644622856366,
block,scenes,scenes020.bmp,,,,,0,162,162,162,,,,,,,,,,,,,,,,,,,,,,,,,,,,,,,,,,,,,,,,,,None,,692.9843470799995,None,692.9843470799995,None,2022-09-12-11:12:07.150183,692.9867558999995,693.3010445999998,692.9867558999995,None,None,692.9867558999995,None,693.8017907800001,None,,,,22014,0002,2022_Sep_12_1100,localizer,2021.1.3,59.58644622856366,
block,scenes,scenes004.bmp,,,,,0,163,163,163,,,,,,,,,,,,,,,,,,,,,,,,,,,,,,,,,,,,,,,,,,None,,693.8017907800001,None,693.8017907800001,None,2022-09-12-11:12:07.968909,693.8020977999995,694.1013575999996,693.8020977999995,None,None,693.8020977999995,None,694.6036393800002,None,,,,22014,0002,2022_Sep_12_1100,localizer,2021.1.3,59.58644622856366,
block,scenes,scenes045.bmp,,,,,0,164,164,164,,,,,,,,,,,,,,,,,,,,,,,,,,,,,,,,,,,,,,,,,,None,,694.6036393800002,None,694.6036393800002,None,2022-09-12-11:12:08.774805,694.6067623999998,694.9178346999997,694.6067623999998,694.6067623999998,None,694.6067623999998,694.6067623999998,695.41927018,None,,,,22014,0002,2022_Sep_12_1100,localizer,2021.1.3,59.58644622856366,
block,scenes,scenes057.bmp,,,,,0,165,165,165,,,,,,,,,,,,,,,,,,,,,,,,,,,,,,,,,,,,,,,,,,None,,695.41927018,None,695.41927018,None,2022-09-12-11:12:09.588456,695.4214793000001,695.7343421999994,695.4214793000001,None,None,695.4214793000001,None,696.2344483799995,None,,,,22014,0002,2022_Sep_12_1100,localizer,2021.1.3,59.58644622856366,
block,scenes,scenes051.bmp,,,,,0,166,166,166,,,,,,,,,,,,,,,,,,,,,,,,,,,,,,,,,,,,,,,,,,None,,696.2344483799995,None,696.2344483799995,None,2022-09-12-11:12:10.401580,696.2356502000002,696.5510487000001,696.2356502000002,None,None,696.2356502000002,None,697.0513195800002,None,,,,22014,0002,2022_Sep_12_1100,localizer,2021.1.3,59.58644622856366,
block_end,scenes,scenes082.bmp,,,,,0,167,167,167,,,,,,,,,,,,,,,,,,,,,,,,,,,,,,,,,,,,,,,,,,None,,697.0513195800002,None,697.0513195800002,None,2022-09-12-11:12:11.218498,697.0611245,697.3675130000001,697.0611245,None,None,697.0611245,None,697.8692648799995,None,,,,22014,0002,2022_Sep_12_1100,localizer,2021.1.3,59.58644622856366,
block_start,faces,faces055.bmp,,,,,0,168,168,168,,,,,,,,,,,,,,,,,,,,,,,,,,,,,,,,,,,,,,,,,,t,1.7665751000004093,697.8692111999999,None,697.8692111999999,None,2022-09-12-11:12:13.819569,699.6523535999995,699.9511634999999,699.6523535999995,None,None,699.6523535999995,None,700.4588804799994,None,,,,22014,0002,2022_Sep_12_1100,localizer,2021.1.3,59.58644622856366,
block,faces,faces029.bmp,,,,,0,169,169,169,,,,,,,,,,,,,,,,,,,,,,,,,,,,,,,,,,,,,,,,,,None,,700.4588804799994,None,700.4588804799994,None,2022-09-12-11:12:14.631052,700.4642899999999,700.7683533999998,700.4642899999999,None,None,700.4642899999999,None,701.2690331800002,None,,,,22014,0002,2022_Sep_12_1100,localizer,2021.1.3,59.58644622856366,
block,faces,faces065.bmp,,,,,0,170,170,170,,,,,,,,,,,,,,,,,,,,,,,,,,,,,,,,,,,,,,,,,,None,,701.2690331800002,None,701.2690331800002,None,2022-09-12-11:12:15.437263,701.2696479999995,701.5686874000003,701.2696479999995,None,None,701.2696479999995,None,702.0850293800002,None,,,,22014,0002,2022_Sep_12_1100,localizer,2021.1.3,59.58644622856366,
block,faces,faces043.bmp,,,,,0,171,171,171,,,,,,,,,,,,,,,,,,,,,,,,,,,,,,,,,,,,,,,,,,None,,702.0850293800002,None,702.0850293800002,None,2022-09-12-11:12:16.252761,702.0857728999999,702.4011622999997,702.0857728999999,None,None,702.0857728999999,None,702.9012889799994,None,,,,22014,0002,2022_Sep_12_1100,localizer,2021.1.3,59.58644622856366,
block,faces,faces043.bmp,,,,,0,172,172,172,,,,,,,,,,,,,,,,,,,,,,,,,,,,,,,,,,,,,,,,,,None,,702.9012889799994,None,702.9012889799994,None,2022-09-12-11:12:17.066816,702.9030101999997,703.2242266000003,702.9030101999997,None,y,702.9030101999997,None,703.7084418800002,None,0.6684795999999551,,,22014,0002,2022_Sep_12_1100,localizer,2021.1.3,59.58644622856366,
block,faces,faces069.bmp,,,,,0,173,173,173,,,,,,,,,,,,,,,,,,,,,,,,,,,,,,,,,,,,,,,,,,None,,703.7084418800002,None,703.7084418800002,None,2022-09-12-11:12:17.882371,703.7264367999996,704.0346543999995,703.7264367999996,None,None,703.7264367999996,None,704.5181306800002,None,,,,22014,0002,2022_Sep_12_1100,localizer,2021.1.3,59.58644622856366,
block,faces,faces035.bmp,,,,,0,174,174,174,,,,,,,,,,,,,,,,,,,,,,,,,,,,,,,,,,,,,,,,,,None,,704.5181306800002,None,704.5181306800002,None,2022-09-12-11:12:18.685650,704.5186289000003,704.8198302999999,704.5186289000003,None,None,704.5186289000003,None,705.3218045800002,None,,,,22014,0002,2022_Sep_12_1100,localizer,2021.1.3,59.58644622856366,
block,faces,faces010.bmp,,,,,0,175,175,175,,,,,,,,,,,,,,,,,,,,,,,,,,,,,,,,,,,,,,,,,,None,,705.3218045800002,None,705.3218045800002,None,2022-09-12-11:12:19.499669,705.3342726000001,705.6345235999997,705.3342726000001,705.3342726000001,None,705.3342726000001,705.3342726000001,706.1367047800002,None,,,,22014,0002,2022_Sep_12_1100,localizer,2021.1.3,59.58644622856366,
block,faces,faces076.bmp,,,,,0,176,176,176,,,,,,,,,,,,,,,,,,,,,,,,,,,,,,,,,,,,,,,,,,None,,706.1367047800002,None,706.1367047800002,None,2022-09-12-11:12:20.308160,706.1409163999997,706.4512525999999,706.1409163999997,None,None,706.1409163999997,None,706.9525795799998,None,,,,22014,0002,2022_Sep_12_1100,localizer,2021.1.3,59.58644622856366,
block,faces,faces013.bmp,,,,,0,177,177,177,,,,,,,,,,,,,,,,,,,,,,,,,,,,,,,,,,,,,,,,,,None,,706.9525795799998,None,706.9525795799998,None,2022-09-12-11:12:21.121446,706.9553182999998,707.2677997999999,706.9553182999998,None,None,706.9553182999998,None,707.7692809799998,None,,,,22014,0002,2022_Sep_12_1100,localizer,2021.1.3,59.58644622856366,
block,faces,faces004.bmp,,,,,0,178,178,178,,,,,,,,,,,,,,,,,,,,,,,,,,,,,,,,,,,,,,,,,,None,,707.7692809799998,None,707.7692809799998,None,2022-09-12-11:12:21.938447,707.7715229999994,708.0845659999995,707.7715229999994,None,None,707.7715229999994,None,708.5850370799997,None,,,,22014,0002,2022_Sep_12_1100,localizer,2021.1.3,59.58644622856366,
block,faces,faces026.bmp,,,,,0,179,179,179,,,,,,,,,,,,,,,,,,,,,,,,,,,,,,,,,,,,,,,,,,None,,708.5850370799997,None,708.5850370799997,None,2022-09-12-11:12:22.752358,708.5858669999998,708.8862182000003,708.5858669999998,None,None,708.5858669999998,None,709.3908229799997,None,,,,22014,0002,2022_Sep_12_1100,localizer,2021.1.3,59.58644622856366,
block,faces,faces006.bmp,,,,,0,180,180,180,,,,,,,,,,,,,,,,,,,,,,,,,,,,,,,,,,,,,,,,,,None,,709.3908229799997,None,709.3908229799997,None,2022-09-12-11:12:23.564668,709.3992637000001,709.7015289999999,709.3992637000001,None,None,709.3992637000001,None,710.2020272799998,None,,,,22014,0002,2022_Sep_12_1100,localizer,2021.1.3,59.58644622856366,
block,faces,faces011.bmp,,,,,0,181,181,181,,,,,,,,,,,,,,,,,,,,,,,,,,,,,,,,,,,,,,,,,,None,,710.2020272799998,None,710.2020272799998,None,2022-09-12-11:12:24.370137,710.2127828000002,710.5177259000002,710.2127828000002,None,None,710.2127828000002,None,711.0219257799997,None,,,,22014,0002,2022_Sep_12_1100,localizer,2021.1.3,59.58644622856366,
block_end,faces,faces062.bmp,,,,,0,182,182,182,,,,,,,,,,,,,,,,,,,,,,,,,,,,,,,,,,,,,,,,,,None,,711.0219257799997,None,711.0219257799997,None,2022-09-12-11:12:25.197008,711.0430051000003,711.3511690999994,711.0430051000003,None,None,711.0430051000003,None,711.8345566799997,None,,,,22014,0002,2022_Sep_12_1100,localizer,2021.1.3,59.58644622856366,
null_block,null_block,null_block.bmp,,,,,0,183,183,183,,,,,,,,,,,,,,,,,,,,,,,,,,,,,,,,,,,,,,,,,,t,1.8014886999999362,711.8344515999997,None,711.8344515999997,None,2022-09-12-11:12:27.820931,713.6526995800002,None,713.6526995800002,None,None,713.6526995800002,None,713.6596961999994,None,,,,22014,0002,2022_Sep_12_1100,localizer,2021.1.3,59.58644622856366,
block_start,scrambled,scrambled057.bmp,,,,,0,184,184,184,,,,,,,,,,,,,,,,,,,,,,,,,,,,,,,,,,,,,,,,,,t,1.9680629000004046,725.6678937999995,None,725.6678937999995,None,2022-09-12-11:12:41.821009,727.6541332999996,727.9679335999999,727.6541332999996,None,None,727.6541332999996,None,728.4681037799999,None,,,,22014,0002,2022_Sep_12_1100,localizer,2021.1.3,59.58644622856366,
block,scrambled,scrambled036.bmp,,,,,0,185,185,185,,,,,,,,,,,,,,,,,,,,,,,,,,,,,,,,,,,,,,,,,,None,,728.4681037799999,None,728.4681037799999,None,2022-09-12-11:12:42.635839,728.4693312999998,728.7912329000001,728.4693312999998,None,None,728.4693312999998,None,729.2849370800002,None,,,,22014,0002,2022_Sep_12_1100,localizer,2021.1.3,59.58644622856366,
block,scrambled,scrambled043.bmp,,,,,0,186,186,186,,,,,,,,,,,,,,,,,,,,,,,,,,,,,,,,,,,,,,,,,,None,,729.2849370800002,None,729.2849370800002,None,2022-09-12-11:12:43.452019,729.2856646,729.5852843000002,729.2856646,None,None,729.2856646,None,730.0852962799997,None,,,,22014,0002,2022_Sep_12_1100,localizer,2021.1.3,59.58644622856366,
block,scrambled,scrambled034.bmp,,,,,0,187,187,187,,,,,,,,,,,,,,,,,,,,,,,,,,,,,,,,,,,,,,,,,,None,,730.0852962799997,None,730.0852962799997,None,2022-09-12-11:12:44.253925,730.0971638999999,730.4083609999998,730.0971638999999,730.0971638999999,None,730.0971638999999,730.0971638999999,730.90146368,None,,,,22014,0002,2022_Sep_12_1100,localizer,2021.1.3,59.58644622856366,
block,scrambled,scrambled078.bmp,,,,,0,188,188,188,,,,,,,,,,,,,,,,,,,,,,,,,,,,,,,,,,,,,,,,,,None,,730.90146368,None,730.90146368,None,2022-09-12-11:12:45.067748,730.9024798999999,731.2182127999995,730.9024798999999,None,None,730.9024798999999,None,731.7181066800001,None,,,,22014,0002,2022_Sep_12_1100,localizer,2021.1.3,59.58644622856366,
block,scrambled,scrambled071.bmp,,,,,0,189,189,189,,,,,,,,,,,,,,,,,,,,,,,,,,,,,,,,,,,,,,,,,,None,,731.7181066800001,None,731.7181066800001,None,2022-09-12-11:12:45.885210,731.7190726999997,732.0182755999995,731.7190726999997,None,None,731.7190726999997,None,732.5181039799998,None,,,,22014,0002,2022_Sep_12_1100,localizer,2021.1.3,59.58644622856366,
block,scrambled,scrambled067.bmp,,,,,0,190,190,190,,,,,,,,,,,,,,,,,,,,,,,,,,,,,,,,,,,,,,,,,,None,,732.5181039799998,None,732.5181039799998,None,2022-09-12-11:12:46.687207,732.5281200999998,732.8353590999996,732.5281200999998,732.5281200999998,None,732.5281200999998,732.5281200999998,733.3355047799994,None,,,,22014,0002,2022_Sep_12_1100,localizer,2021.1.3,59.58644622856366,
block,scrambled,scrambled075.bmp,,,,,0,191,191,191,,,,,,,,,,,,,,,,,,,,,,,,,,,,,,,,,,,,,,,,,,None,,733.3355047799994,None,733.3355047799994,None,2022-09-12-11:12:47.503609,733.3460883999996,733.6513856000001,733.3460883999996,None,None,733.3460883999996,None,734.1513114799998,None,,,,22014,0002,2022_Sep_12_1100,localizer,2021.1.3,59.58644622856366,
block,scrambled,scrambled087.bmp,,,,,0,192,192,192,,,,,,,,,,,,,,,,,,,,,,,,,,,,,,,,,,,,,,,,,,None,,734.1513114799998,None,734.1513114799998,None,2022-09-12-11:12:48.317881,734.1525980999995,734.4678833999997,734.1525980999995,None,None,734.1525980999995,None,734.95271398,None,,,,22014,0002,2022_Sep_12_1100,localizer,2021.1.3,59.58644622856366,
block,scrambled,scrambled070.bmp,,,,,0,193,193,193,,,,,,,,,,,,,,,,,,,,,,,,,,,,,,,,,,,,,,,,,,None,,734.95271398,None,734.95271398,None,2022-09-12-11:12:49.122487,734.9563012999997,735.2684598999995,734.9563012999997,734.9563012999997,None,734.9563012999997,734.9563012999997,735.7710349799997,None,,,,22014,0002,2022_Sep_12_1100,localizer,2021.1.3,59.58644622856366,
block,scrambled,scrambled070.bmp,,,,,0,194,194,194,,,,,,,,,,,,,,,,,,,,,,,,,,,,,,,,,,,,,,,,,,None,,735.7710349799997,None,735.7710349799997,None,2022-09-12-11:12:49.941782,735.7741435999997,736.0857502999997,735.7741435999997,None,None,735.7741435999997,None,736.5744543799999,None,,,,22014,0002,2022_Sep_12_1100,localizer,2021.1.3,59.58644622856366,
block,scrambled,scrambled002.bmp,,,,,0,195,195,195,,,,,,,,,,,,,,,,,,,,,,,,,,,,,,,,,,,,,,,,,,None,,736.5744543799999,None,736.5744543799999,None,2022-09-12-11:12:50.749502,736.5811573000001,736.8853921999998,736.5811573000001,736.5811573000001,None,736.5811573000001,736.5811573000001,737.3855539799995,None,,,,22014,0002,2022_Sep_12_1100,localizer,2021.1.3,59.58644622856366,
block,scrambled,scrambled049.bmp,,,,,0,196,196,196,,,,,,,,,,,,,,,,,,,,,,,,,,,,,,,,,,,,,,,,,,None,,737.3855539799995,None,737.3855539799995,None,2022-09-12-11:12:51.554156,737.3863992999995,737.6862124999998,737.3863992999995,None,None,737.3863992999995,None,738.1861670799997,None,,,,22014,0002,2022_Sep_12_1100,localizer,2021.1.3,59.58644622856366,
block,scrambled,scrambled019.bmp,,,,,0,197,197,197,,,,,,,,,,,,,,,,,,,,,,,,,,,,,,,,,,,,,,,,,,None,,738.1861670799997,None,738.1861670799997,None,2022-09-12-11:12:52.356503,738.1902516999999,738.5047550999998,738.1902516999999,738.1902516999999,None,738.1902516999999,738.1902516999999,739.0018530799996,None,,,,22014,0002,2022_Sep_12_1100,localizer,2021.1.3,59.58644622856366,
block_end,scrambled,scrambled028.bmp,,,,,0,198,198,198,,,,,,,,,,,,,,,,,,,,,,,,,,,,,,,,,,,,,,,,,,None,,739.0018530799996,None,739.0018530799996,None,2022-09-12-11:12:53.169834,739.0025977999994,739.3179682999998,739.0025977999994,None,None,739.0025977999994,None,739.8016868799994,None,,,,22014,0002,2022_Sep_12_1100,localizer,2021.1.3,59.58644622856366,
block_start,faces,faces044.bmp,,,,,0,199,199,199,,,,,,,,,,,,,,,,,,,,,,,,,,,,,,,,,,,,,,,,,,t,1.8337934999999561,739.8011907999999,None,739.8011907999999,None,2022-09-12-11:12:55.824535,741.6621772999997,741.9683293999997,741.6621772999997,None,None,741.6621772999997,None,742.4684134799998,None,,,,22014,0002,2022_Sep_12_1100,localizer,2021.1.3,59.58644622856366,
block,faces,faces012.bmp,,,,,0,200,200,200,,,,,,,,,,,,,,,,,,,,,,,,,,,,,,,,,,,,,,,,,,None,,742.4684134799998,None,742.4684134799998,None,2022-09-12-11:12:56.635588,742.4776069999998,742.7854588999999,742.4776069999998,None,None,742.4776069999998,None,743.2855428800001,None,,,,22014,0002,2022_Sep_12_1100,localizer,2021.1.3,59.58644622856366,
block,faces,faces022.bmp,,,,,0,201,201,201,,,,,,,,,,,,,,,,,,,,,,,,,,,,,,,,,,,,,,,,,,None,,743.2855428800001,None,743.2855428800001,None,2022-09-12-11:12:57.454703,743.2871863,743.6080946000002,743.2871863,None,None,743.2871863,None,744.1030092799999,None,,,,22014,0002,2022_Sep_12_1100,localizer,2021.1.3,59.58644622856366,
block,faces,faces010.bmp,,,,,0,202,202,202,,,,,,,,,,,,,,,,,,,,,,,,,,,,,,,,,,,,,,,,,,None,,744.1030092799999,None,744.1030092799999,None,2022-09-12-11:12:58.271167,744.1051154999996,744.4027444000003,744.1051154999996,None,None,744.1051154999996,None,744.9181456799995,None,,,,22014,0002,2022_Sep_12_1100,localizer,2021.1.3,59.58644622856366,
block,faces,faces062.bmp,,,,,0,203,203,203,,,,,,,,,,,,,,,,,,,,,,,,,,,,,,,,,,,,,,,,,,None,,744.9181456799995,None,744.9181456799995,None,2022-09-12-11:12:59.084220,744.9201523000002,745.2348984999999,744.9201523000002,None,None,744.9201523000002,None,745.7350059799999,None,,,,22014,0002,2022_Sep_12_1100,localizer,2021.1.3,59.58644622856366,
block,faces,faces040.bmp,,,,,0,204,204,204,,,,,,,,,,,,,,,,,,,,,,,,,,,,,,,,,,,,,,,,,,None,,745.7350059799999,None,745.7350059799999,None,2022-09-12-11:12:59.902569,745.7358265000003,746.0515435999996,745.7358265000003,None,None,745.7358265000003,None,746.5351519799995,None,,,,22014,0002,2022_Sep_12_1100,localizer,2021.1.3,59.58644622856366,
block,faces,faces056.bmp,,,,,0,205,205,205,,,,,,,,,,,,,,,,,,,,,,,,,,,,,,,,,,,,,,,,,,None,,746.5351519799995,None,746.5351519799995,None,2022-09-12-11:13:00.704037,746.5360173999998,746.8352004999997,746.5360173999998,746.5360173999998,None,746.5360173999998,746.5360173999998,747.3515752800001,None,,,,22014,0002,2022_Sep_12_1100,localizer,2021.1.3,59.58644622856366,
block,faces,faces068.bmp,,,,,0,206,206,206,,,,,,,,,,,,,,,,,,,,,,,,,,,,,,,,,,,,,,,,,,None,,747.3515752800001,None,747.3515752800001,None,2022-09-12-11:13:01.518832,747.3526081,747.6514036999997,747.3526081,None,None,747.3526081,None,748.1516111799999,None,,,,22014,0002,2022_Sep_12_1100,localizer,2021.1.3,59.58644622856366,
block,faces,faces087.bmp,,,,,0,207,207,207,,,,,,,,,,,,,,,,,,,,,,,,,,,,,,,,,,,,,,,,,,None,,748.1516111799999,None,748.1516111799999,None,2022-09-12-11:13:02.320044,748.1626637999998,748.4720962000001,748.1626637999998,748.1626637999998,None,748.1626637999998,748.1626637999998,748.9698417799998,None,,,,22014,0002,2022_Sep_12_1100,localizer,2021.1.3,59.58644622856366,
block,faces,faces074.bmp,,,,,0,208,208,208,,,,,,,,,,,,,,,,,,,,,,,,,,,,,,,,,,,,,,,,,,None,,748.9698417799998,None,748.9698417799998,None,2022-09-12-11:13:03.139184,748.9789586999996,749.2867303000003,748.9789586999996,None,None,748.9789586999996,None,749.7863112799994,None,,,,22014,0002,2022_Sep_12_1100,localizer,2021.1.3,59.58644622856366,
block,faces,faces049.bmp,,,,,0,209,209,209,,,,,,,,,,,,,,,,,,,,,,,,,,,,,,,,,,,,,,,,,,None,,749.7863112799994,None,749.7863112799994,None,2022-09-12-11:13:03.955446,749.8010512999999,750.1022241999999,749.8010512999999,None,None,749.8010512999999,None,750.6025632799999,None,,,,22014,0002,2022_Sep_12_1100,localizer,2021.1.3,59.58644622856366,
block,faces,faces004.bmp,,,,,0,210,210,210,,,,,,,,,,,,,,,,,,,,,,,,,,,,,,,,,,,,,,,,,,None,,750.6025632799999,None,750.6025632799999,None,2022-09-12-11:13:04.770709,750.6029933999998,750.9187219999994,750.6029933999998,None,None,750.6029933999998,None,751.40290248,None,,,,22014,0002,2022_Sep_12_1100,localizer,2021.1.3,59.58644622856366,
block,faces,faces039.bmp,,,,,0,211,211,211,,,,,,,,,,,,,,,,,,,,,,,,,,,,,,,,,,,,,,,,,,None,,751.40290248,None,751.40290248,None,2022-09-12-11:13:05.575049,751.4089194999997,751.7187033,751.4089194999997,751.4089194999997,None,751.4089194999997,751.4089194999997,752.2187551799996,None,,,,22014,0002,2022_Sep_12_1100,localizer,2021.1.3,59.58644622856366,
block,faces,faces055.bmp,,,,,0,212,212,212,,,,,,,,,,,,,,,,,,,,,,,,,,,,,,,,,,,,,,,,,,None,,752.2187551799996,None,752.2187551799996,None,2022-09-12-11:13:06.385927,752.2195706000002,752.5187375999994,752.2195706000002,None,None,752.2195706000002,None,753.0348955799998,None,,,,22014,0002,2022_Sep_12_1100,localizer,2021.1.3,59.58644622856366,
block_end,faces,faces086.bmp,,,,,0,213,213,213,,,,,,,,,,,,,,,,,,,,,,,,,,,,,,,,,,,,,,,,,,None,,753.0348955799998,None,753.0348955799998,None,2022-09-12-11:13:07.202187,753.0359177,753.3514746999999,753.0359177,None,None,753.0359177,None,753.8351178800001,None,,,,22014,0002,2022_Sep_12_1100,localizer,2021.1.3,59.58644622856366,
block_start,objects,objects021.bmp,,,,,0,214,214,214,,,,,,,,,,,,,,,,,,,,,,,,,,,,,,,,,,,,,,,,,,t,1.8003775999995923,753.834812,None,753.834812,None,2022-09-12-11:13:09.817398,755.6532387999996,755.9682863999997,755.6532387999996,None,None,755.6532387999996,None,756.4684319799997,None,,,,22014,0002,2022_Sep_12_1100,localizer,2021.1.3,59.58644622856366,
block,objects,objects046.bmp,,,,,0,215,215,215,,,,,,,,,,,,,,,,,,,,,,,,,,,,,,,,,,,,,,,,,,None,,756.4684319799997,None,756.4684319799997,None,2022-09-12-11:13:10.635608,756.4693268999999,756.7849623000002,756.4693268999999,None,None,756.4693268999999,None,757.2684866799998,None,,,,22014,0002,2022_Sep_12_1100,localizer,2021.1.3,59.58644622856366,
block,objects,objects060.bmp,,,,,0,216,216,216,,,,,,,,,,,,,,,,,,,,,,,,,,,,,,,,,,,,,,,,,,None,,757.2684866799998,None,757.2684866799998,None,2022-09-12-11:13:11.437867,757.2700974999998,757.5847180999999,757.2700974999998,757.2700974999998,None,757.2700974999998,757.2700974999998,758.06960108,None,,,,22014,0002,2022_Sep_12_1100,localizer,2021.1.3,59.58644622856366,
block,objects,objects043.bmp,,,,,0,217,217,217,,,,,,,,,,,,,,,,,,,,,,,,,,,,,,,,,,,,,,,,,,None,,758.06960108,None,758.06960108,None,2022-09-12-11:13:12.239941,758.0727946999996,758.3847684000002,758.0727946999996,758.0727946999996,None,758.0727946999996,758.0727946999996,758.8863760800002,None,,,,22014,0002,2022_Sep_12_1100,localizer,2021.1.3,59.58644622856366,
block,objects,objects041.bmp,,,,,0,218,218,218,,,,,,,,,,,,,,,,,,,,,,,,,,,,,,,,,,,,,,,,,,None,,758.8863760800002,None,758.8863760800002,None,2022-09-12-11:13:13.055722,758.9017853999994,759.2017059,758.9017853999994,None,None,758.9017853999994,None,759.7016132799997,None,,,,22014,0002,2022_Sep_12_1100,localizer,2021.1.3,59.58644622856366,
block,objects,objects062.bmp,,,,,0,219,219,219,,,,,,,,,,,,,,,,,,,,,,,,,,,,,,,,,,,,,,,,,,None,,759.7016132799997,None,759.7016132799997,None,2022-09-12-11:13:13.868796,759.7024537999996,760.0248044999998,759.7024537999996,None,None,759.7024537999996,None,760.5039375799995,None,,,,22014,0002,2022_Sep_12_1100,localizer,2021.1.3,59.58644622856366,
block,objects,objects056.bmp,,,,,0,220,220,220,,,,,,,,,,,,,,,,,,,,,,,,,,,,,,,,,,,,,,,,,,None,,760.5039375799995,None,760.5039375799995,None,2022-09-12-11:13:14.677147,760.5236026000002,760.8361875,760.5236026000002,760.5236026000002,None,760.5236026000002,760.5236026000002,761.3184492799999,None,,,,22014,0002,2022_Sep_12_1100,localizer,2021.1.3,59.58644622856366,
block,objects,objects073.bmp,,,,,0,221,221,221,,,,,,,,,,,,,,,,,,,,,,,,,,,,,,,,,,,,,,,,,,None,,761.3184492799999,None,761.3184492799999,None,2022-09-12-11:13:15.485628,761.3191227999996,761.6219142,761.3191227999996,None,None,761.3191227999996,None,762.1184827799996,None,,,,22014,0002,2022_Sep_12_1100,localizer,2021.1.3,59.58644622856366,
block,objects,objects010.bmp,,,,,0,222,222,222,,,,,,,,,,,,,,,,,,,,,,,,,,,,,,,,,,,,,,,,,,None,,762.1184827799996,None,762.1184827799996,None,2022-09-12-11:13:16.287655,762.1196135999999,762.4348694999999,762.1196135999999,762.1196135999999,None,762.1196135999999,762.1196135999999,762.9351119800001,None,,,,22014,0002,2022_Sep_12_1100,localizer,2021.1.3,59.58644622856366,
block,objects,objects082.bmp,,,,,0,223,223,223,,,,,,,,,,,,,,,,,,,,,,,,,,,,,,,,,,,,,,,,,,None,,762.9351119800001,None,762.9351119800001,None,2022-09-12-11:13:17.102485,762.9358430000002,763.2515028999997,762.9358430000002,None,None,762.9358430000002,None,763.7348949799996,None,,,,22014,0002,2022_Sep_12_1100,localizer,2021.1.3,59.58644622856366,
block,objects,objects038.bmp,,,,,0,224,224,224,,,,,,,,,,,,,,,,,,,,,,,,,,,,,,,,,,,,,,,,,,None,,763.7348949799996,None,763.7348949799996,None,2022-09-12-11:13:17.903072,763.7356860999998,764.0517604999995,763.7356860999998,763.7356860999998,None,763.7356860999998,763.7356860999998,764.5350321799995,None,,,,22014,0002,2022_Sep_12_1100,localizer,2021.1.3,59.58644622856366,
block,objects,objects005.bmp,,,,,0,225,225,225,,,,,,,,,,,,,,,,,,,,,,,,,,,,,,,,,,,,,,,,,,None,,764.5350321799995,None,764.5350321799995,None,2022-09-12-11:13:18.702817,764.5357150999998,764.8349121000001,764.5357150999998,764.5357150999998,None,764.5357150999998,764.5357150999998,765.3355429800001,None,,,,22014,0002,2022_Sep_12_1100,localizer,2021.1.3,59.58644622856366,
block,objects,objects079.bmp,,,,,0,226,226,226,,,,,,,,,,,,,,,,,,,,,,,,,,,,,,,,,,,,,,,,,,None,,765.3355429800001,None,765.3355429800001,None,2022-09-12-11:13:19.505152,765.3378547000002,765.6419108,765.3378547000002,765.3378547000002,None,765.3378547000002,765.3378547000002,766.1526242799998,None,,,,22014,0002,2022_Sep_12_1100,localizer,2021.1.3,59.58644622856366,
block,objects,objects040.bmp,,,,,0,227,227,227,,,,,,,,,,,,,,,,,,,,,,,,,,,,,,,,,,,,,,,,,,None,,766.1526242799998,None,766.1526242799998,None,2022-09-12-11:13:20.320767,766.1625537,766.4684029999999,766.1625537,None,None,766.1625537,None,766.9696853799994,None,,,,22014,0002,2022_Sep_12_1100,localizer,2021.1.3,59.58644622856366,
block_end,objects,objects020.bmp,,,,,0,228,228,228,,,,,,,,,,,,,,,,,,,,,,,,,,,,,,,,,,,,,,,,,,None,,766.9696853799994,None,766.9696853799994,None,2022-09-12-11:13:21.138837,766.9718149,767.2854036999997,766.9718149,None,None,766.9718149,None,767.7851482799995,None,,,,22014,0002,2022_Sep_12_1100,localizer,2021.1.3,59.58644622856366,
block_start,scenes,scenes015.bmp,,,,,0,229,229,229,,,,,,,,,,,,,,,,,,,,,,,,,,,,,,,,,,,,,,,,,,t,1.8500535000002856,767.7849704999999,None,767.7849704999999,None,2022-09-12-11:13:23.821387,769.6657931,769.9686658,769.6657931,None,None,769.6657931,None,770.4688427799999,None,,,,22014,0002,2022_Sep_12_1100,localizer,2021.1.3,59.58644622856366,
block,scenes,scenes071.bmp,,,,,0,230,230,230,,,,,,,,,,,,,,,,,,,,,,,,,,,,,,,,,,,,,,,,,,None,,770.4688427799999,None,770.4688427799999,None,2022-09-12-11:13:24.636194,770.4695586999997,770.7848581999997,770.4695586999997,None,None,770.4695586999997,None,771.2851449799998,None,,,,22014,0002,2022_Sep_12_1100,localizer,2021.1.3,59.58644622856366,
block,scenes,scenes009.bmp,,,,,0,231,231,231,,,,,,,,,,,,,,,,,,,,,,,,,,,,,,,,,,,,,,,,,,None,,771.2851449799998,None,771.2851449799998,None,2022-09-12-11:13:25.452322,771.2902973999999,771.6017477999994,771.2902973999999,None,None,771.2902973999999,None,772.1022706800002,None,,,,22014,0002,2022_Sep_12_1100,localizer,2021.1.3,59.58644622856366,
block,scenes,scenes072.bmp,,,,,0,232,232,232,,,,,,,,,,,,,,,,,,,,,,,,,,,,,,,,,,,,,,,,,,None,,772.1022706800002,None,772.1022706800002,None,2022-09-12-11:13:26.269643,772.1029478,772.4019244000001,772.1029478,None,None,772.1029478,None,772.9024862799995,None,,,,22014,0002,2022_Sep_12_1100,localizer,2021.1.3,59.58644622856366,
block,scenes,scenes035.bmp,,,,,0,233,233,233,,,,,,,,,,,,,,,,,,,,,,,,,,,,,,,,,,,,,,,,,,None,,772.9024862799995,None,772.9024862799995,None,2022-09-12-11:13:27.072824,772.9157617000001,773.2185242999994,772.9157617000001,772.9157617000001,None,772.9157617000001,772.9157617000001,773.7191896800002,None,,,,22014,0002,2022_Sep_12_1100,localizer,2021.1.3,59.58644622856366,
block,scenes,scenes068.bmp,,,,,0,234,234,234,,,,,,,,,,,,,,,,,,,,,,,,,,,,,,,,,,,,,,,,,,None,,773.7191896800002,None,773.7191896800002,None,2022-09-12-11:13:27.888305,773.7211422999999,774.0356775999999,773.7211422999999,None,None,773.7211422999999,None,774.5355138799994,None,,,,22014,0002,2022_Sep_12_1100,localizer,2021.1.3,59.58644622856366,
block,scenes,scenes004.bmp,,,,,0,235,235,235,,,,,,,,,,,,,,,,,,,,,,,,,,,,,,,,,,,,,,,,,,None,,774.5355138799994,None,774.5355138799994,None,2022-09-12-11:13:28.702687,774.5361324999994,774.8354633999998,774.5361324999994,None,None,774.5361324999994,None,775.3362123799996,None,,,,22014,0002,2022_Sep_12_1100,localizer,2021.1.3,59.58644622856366,
block,scenes,scenes011.bmp,,,,,0,236,236,236,,,,,,,,,,,,,,,,,,,,,,,,,,,,,,,,,,,,,,,,,,None,,775.3362123799996,None,775.3362123799996,None,2022-09-12-11:13:29.506384,775.3393922999994,775.6579542999998,775.3393922999994,775.3393922999994,None,775.3393922999994,775.3393922999994,776.1517306799994,None,,,,22014,0002,2022_Sep_12_1100,localizer,2021.1.3,59.58644622856366,
block,scenes,scenes034.bmp,,,,,0,237,237,237,,,,,,,,,,,,,,,,,,,,,,,,,,,,,,,,,,,,,,,,,,None,,776.1517306799994,None,776.1517306799994,None,2022-09-12-11:13:30.318747,776.1531425000003,776.4527319999997,776.1531425000003,None,None,776.1531425000003,None,776.96863388,None,,,,22014,0002,2022_Sep_12_1100,localizer,2021.1.3,59.58644622856366,
block,scenes,scenes046.bmp,,,,,0,238,238,238,,,,,,,,,,,,,,,,,,,,,,,,,,,,,,,,,,,,,,,,,,None,,776.96863388,None,776.96863388,None,2022-09-12-11:13:31.135810,776.9780150999995,777.2857247000002,776.9780150999995,None,None,776.9780150999995,None,777.7858461799995,None,,,,22014,0002,2022_Sep_12_1100,localizer,2021.1.3,59.58644622856366,
block,scenes,scenes091.bmp,,,,,0,239,239,239,,,,,,,,,,,,,,,,,,,,,,,,,,,,,,,,,,,,,,,,,,None,,777.7858461799995,None,777.7858461799995,None,2022-09-12-11:13:31.954011,777.7867869000002,778.1013032000001,777.7867869000002,None,None,777.7867869000002,None,778.6023542800001,None,,,,22014,0002,2022_Sep_12_1100,localizer,2021.1.3,59.58644622856366,
block,scenes,scenes025.bmp,,,,,0,240,240,240,,,,,,,,,,,,,,,,,,,,,,,,,,,,,,,,,,,,,,,,,,None,,778.6023542800001,None,778.6023542800001,None,2022-09-12-11:13:32.769718,778.6031893999998,778.9188089999998,778.6031893999998,None,None,778.6031893999998,None,779.4026136800001,None,,,,22014,0002,2022_Sep_12_1100,localizer,2021.1.3,59.58644622856366,
block,scenes,scenes022.bmp,,,,,0,241,241,241,,,,,,,,,,,,,,,,,,,,,,,,,,,,,,,,,,,,,,,,,,None,,779.4026136800001,None,779.4026136800001,None,2022-09-12-11:13:33.572691,779.4111717999995,779.7184239999997,779.4111717999995,779.4111717999995,None,779.4111717999995,779.4111717999995,780.2185136799997,None,,,,22014,0002,2022_Sep_12_1100,localizer,2021.1.3,59.58644622856366,
block,scenes,scenes073.bmp,,,,,0,242,242,242,,,,,,,,,,,,,,,,,,,,,,,,,,,,,,,,,,,,,,,,,,None,,780.2185136799997,None,780.2185136799997,None,2022-09-12-11:13:34.385692,780.2287395000003,780.5353257999996,780.2287395000003,None,None,780.2287395000003,None,781.0365030800001,None,,,,22014,0002,2022_Sep_12_1100,localizer,2021.1.3,59.58644622856366,
block_end,scenes,scenes084.bmp,,,,,0,243,243,243,,,,,,,,,,,,,,,,,,,,,,,,,,,,,,,,,,,,,,,,,,None,,781.0365030800001,None,781.0365030800001,None,2022-09-12-11:13:35.204660,781.0389144000001,781.3517820999996,781.0389144000001,None,None,781.0389144000001,None,781.8523873800002,None,,,,22014,0002,2022_Sep_12_1100,localizer,2021.1.3,59.58644622856366,
,,,,,,,,,,,,,,,,,,,,,,,,,,,,,,,,,,,,,,,,,,,,,,,,,,,,,,,,,,,,,,,,,,,,,781.8524929999994,None,,,,,,,
