block_type,condition,img_name,Button.thisRepN,Button.thisTrialN,Button.thisN,Button.thisIndex,trials.thisRepN,trials.thisTrialN,trials.thisN,trials.thisIndex,Ready_experimenter_text.started,Ready_experimenter_text.stopped,Ready_experimenter_resp.keys,Ready_experimenter_resp.rt,Ready_experimenter_resp.started,Ready_experimenter_resp.stopped,Alignment_background.started,Alignment_background.stopped,Alignment_image.started,Alignment_image.stopped,Alignment_resp.keys,Alignment_resp.rt,Alignment_resp.started,Alignment_resp.stopped,Button_text.started,Button_text.stopped,Index_text.started,Index_text.stopped,Index_resp.keys,Index_resp.rt,Index_resp.started,Index_resp.stopped,Middle_text.started,Middle_text.stopped,Middle_resp.keys,Middle_resp.rt,Middle_resp.started,Middle_resp.stopped,Repeat_text.started,Repeat_text.stopped,Repeat_resp.keys,Repeat_resp.corr,Repeat_resp.rt,Repeat_resp.started,Repeat_resp.stopped,instruction_text.started,instruction_text.stopped,key_resp.keys,key_resp.rt,key_resp.started,key_resp.stopped,scanner_t.keys,scanner_t.rt,scanner_t.started,scanner_t.stopped,fixation_wait_for_t.started,fixation_wait_for_t.stopped,real_timestamp_trial_start,image.started,image.stopped,fixation.started,fixation.stopped,repeat_response.keys,repeat_response.started,repeat_response.stopped,fixation_null.started,fixation_null.stopped,repeat_response.rt,end_text.started,end_text.stopped,participant,run,date,expName,psychopyVersion,frameRate,
,,,,,,,,,,,14.602309399982914,None,return,86.42189430003054,14.602309399982914,None,,,,,,,,,,,,,,,,,,,,,,,,,,,,,,,,,,,,,,,,,,,,,,,,,,,,,,,11006,0002,2022_Feb_10_1402,localizer,2021.1.3,59.46858870184262,
,,,,,,,,,,,,,,,,,101.07909190002829,None,101.07909190002829,None,return,1.1237685999367386,101.07909190002829,None,,,,,,,,,,,,,,,,,,,,,,,,,,,,,,,,,,,,,,,,,,,,,,,11006,0002,2022_Feb_10_1402,localizer,2021.1.3,59.46858870184262,
,,,0,0,0,0,,,,,,,,,,,,,,,,,,,102.22292670002207,None,103.22199230000842,None,y,2.9324568000156432,103.22199230000842,None,106.17368369991891,None,b,1.0338854000438005,106.17368369991891,None,107.24614669999573,None,n,0,2.3804590000072494,107.24614669999573,None,,,,,,,,,,,,,,,,,,,,,,,,,,11006,0002,2022_Feb_10_1402,localizer,2021.1.3,59.46858870184262,
,,,,,,,,,,,,,,,,,,,,,,,,,,,,,,,,,,,,,,,,,,,,,,109.65659939998295,None,y,19.973919600015506,109.65659939998295,None,,,,,,,,,,,,,,,,,,,,11006,0002,2022_Feb_10_1402,localizer,2021.1.3,59.46858870184262,
block_start,faces,faces043.bmp,,,,,0,0,0,0,,,,,,,,,,,,,,,,,,,,,,,,,,,,,,,,,,,,,,,,,,t,15.950629099970683,129.68293070001528,None,129.68293070001528,None,2022-02-10-14:04:23.468534,145.66993420000654,145.97255730000325,145.66993420000654,None,None,145.66993420000654,None,146.4727760800044,None,,,,11006,0002,2022_Feb_10_1402,localizer,2021.1.3,59.46858870184262,
block,faces,faces007.bmp,,,,,0,1,1,1,,,,,,,,,,,,,,,,,,,,,,,,,,,,,,,,,,,,,,,,,,None,,146.4727760800044,None,146.4727760800044,None,2022-02-10-14:04:24.288419,146.4887732999632,146.78946849994827,146.4887732999632,None,None,146.4887732999632,None,147.2894751799642,None,,,,11006,0002,2022_Feb_10_1402,localizer,2021.1.3,59.46858870184262,
block,faces,faces081.bmp,,,,,0,2,2,2,,,,,,,,,,,,,,,,,,,,,,,,,,,,,,,,,,,,,,,,,,None,,147.2894751799642,None,147.2894751799642,None,2022-02-10-14:04:25.102005,147.2904186999658,147.60611799999606,147.2904186999658,None,None,147.2904186999658,None,148.0894929800299,None,,,,11006,0002,2022_Feb_10_1402,localizer,2021.1.3,59.46858870184262,
block,faces,faces021.bmp,,,,,0,3,3,3,,,,,,,,,,,,,,,,,,,,,,,,,,,,,,,,,,,,,,,,,,None,,148.0894929800299,None,148.0894929800299,None,2022-02-10-14:04:25.903821,148.1041088999482,148.40636120003182,148.1041088999482,148.1041088999482,None,148.1041088999482,148.1041088999482,148.90689337997463,None,,,,11006,0002,2022_Feb_10_1402,localizer,2021.1.3,59.46858870184262,
block,faces,faces075.bmp,,,,,0,4,4,4,,,,,,,,,,,,,,,,,,,,,,,,,,,,,,,,,,,,,,,,,,None,,148.90689337997463,None,148.90689337997463,None,2022-02-10-14:04:26.721207,148.9220542999683,149.22282609995455,148.9220542999683,None,None,148.9220542999683,None,149.7226171799586,None,,,,11006,0002,2022_Feb_10_1402,localizer,2021.1.3,59.46858870184262,
block,faces,faces052.bmp,,,,,0,5,5,5,,,,,,,,,,,,,,,,,,,,,,,,,,,,,,,,,,,,,,,,,,None,,149.7226171799586,None,149.7226171799586,None,2022-02-10-14:04:27.534953,149.72349370003212,150.03930239996407,149.72349370003212,None,None,149.72349370003212,None,150.52301247998838,None,,,,11006,0002,2022_Feb_10_1402,localizer,2021.1.3,59.46858870184262,
block,faces,faces045.bmp,,,,,0,6,6,6,,,,,,,,,,,,,,,,,,,,,,,,,,,,,,,,,,,,,,,,,,None,,150.52301247998838,None,150.52301247998838,None,2022-02-10-14:04:28.338333,150.5373465999728,150.83944809995592,150.5373465999728,150.5373465999728,None,150.5373465999728,150.5373465999728,151.33898227998287,None,,,,11006,0002,2022_Feb_10_1402,localizer,2021.1.3,59.46858870184262,
block,faces,faces080.bmp,,,,,0,7,7,7,,,,,,,,,,,,,,,,,,,,,,,,,,,,,,,,,,,,,,,,,,None,,151.33898227998287,None,151.33898227998287,None,2022-02-10-14:04:29.150340,151.35199719993398,151.6557989999419,151.35199719993398,None,None,151.35199719993398,None,152.15600377995287,None,,,,11006,0002,2022_Feb_10_1402,localizer,2021.1.3,59.46858870184262,
block,faces,faces033.bmp,,,,,0,8,8,8,,,,,,,,,,,,,,,,,,,,,,,,,,,,,,,,,,,,,,,,,,None,,152.15600377995287,None,152.15600377995287,None,2022-02-10-14:04:29.968462,152.1744867999805,152.4892067000037,152.1744867999805,None,None,152.1744867999805,None,152.97268378000007,None,,,,11006,0002,2022_Feb_10_1402,localizer,2021.1.3,59.46858870184262,
block,faces,faces008.bmp,,,,,0,9,9,9,,,,,,,,,,,,,,,,,,,,,,,,,,,,,,,,,,,,,,,,,,None,,152.97268378000007,None,152.97268378000007,None,2022-02-10-14:04:30.784771,152.9734103999799,153.27277649997268,152.9734103999799,None,None,152.9734103999799,None,153.77274218002566,None,,,,11006,0002,2022_Feb_10_1402,localizer,2021.1.3,59.46858870184262,
block,faces,faces005.bmp,,,,,0,10,10,10,,,,,,,,,,,,,,,,,,,,,,,,,,,,,,,,,,,,,,,,,,None,,153.77274218002566,None,153.77274218002566,None,2022-02-10-14:04:31.587280,153.7745870000217,154.08937840000726,153.7745870000217,153.7745870000217,None,153.7745870000217,153.7745870000217,154.5897565799416,None,,,,11006,0002,2022_Feb_10_1402,localizer,2021.1.3,59.46858870184262,
block,faces,faces014.bmp,,,,,0,11,11,11,,,,,,,,,,,,,,,,,,,,,,,,,,,,,,,,,,,,,,,,,,None,,154.5897565799416,None,154.5897565799416,None,2022-02-10-14:04:32.402269,154.59042030002456,154.90559789992403,154.59042030002456,None,None,154.59042030002456,None,155.3897926800302,None,,,,11006,0002,2022_Feb_10_1402,localizer,2021.1.3,59.46858870184262,
block,faces,faces029.bmp,,,,,0,12,12,12,,,,,,,,,,,,,,,,,,,,,,,,,,,,,,,,,,,,,,,,,,None,,155.3897926800302,None,155.3897926800302,None,2022-02-10-14:04:33.205223,155.40686039999127,155.70624839991797,155.40686039999127,155.40686039999127,None,155.40686039999127,155.40686039999127,156.20620608002645,None,,,,11006,0002,2022_Feb_10_1402,localizer,2021.1.3,59.46858870184262,
block,faces,faces072.bmp,,,,,0,13,13,13,,,,,,,,,,,,,,,,,,,,,,,,,,,,,,,,,,,,,,,,,,None,,156.20620608002645,None,156.20620608002645,None,2022-02-10-14:04:34.018741,156.20690540003125,156.52243509993423,156.20690540003125,None,None,156.20690540003125,None,157.0060756800114,None,,,,11006,0002,2022_Feb_10_1402,localizer,2021.1.3,59.46858870184262,
block_end,faces,faces050.bmp,,,,,0,14,14,14,,,,,,,,,,,,,,,,,,,,,,,,,,,,,,,,,,,,,,,,,,None,,157.0060756800114,None,157.0060756800114,None,2022-02-10-14:04:34.820468,157.01959629997145,157.32245209999382,157.01959629997145,157.01959629997145,None,157.01959629997145,157.01959629997145,157.82316408002515,None,,,,11006,0002,2022_Feb_10_1402,localizer,2021.1.3,59.46858870184262,
block_start,scenes,scenes028.bmp,,,,,0,15,15,15,,,,,,,,,,,,,,,,,,,,,,,,,,,,,,,,,,,,,,,,,,t,1.8105342000490054,157.82291719992645,None,157.82291719992645,None,2022-02-10-14:04:37.468512,159.6663089999929,159.97260440001264,159.6663089999929,None,None,159.6663089999929,None,160.47319977997103,None,,,,11006,0002,2022_Feb_10_1402,localizer,2021.1.3,59.46858870184262,
block,scenes,scenes064.bmp,,,,,0,16,16,16,,,,,,,,,,,,,,,,,,,,,,,,,,,,,,,,,,,,,,,,,,None,,160.47319977997103,None,160.47319977997103,None,2022-02-10-14:04:38.286530,160.47401360003278,160.77312199992593,160.47401360003278,None,None,160.47401360003278,None,161.27346497994148,None,,,,11006,0002,2022_Feb_10_1402,localizer,2021.1.3,59.46858870184262,
block,scenes,scenes016.bmp,,,,,0,17,17,17,,,,,,,,,,,,,,,,,,,,,,,,,,,,,,,,,,,,,,,,,,None,,161.27346497994148,None,161.27346497994148,None,2022-02-10-14:04:39.088972,161.29648399993312,161.6058117999928,161.29648399993312,161.29648399993312,None,161.29648399993312,161.29648399993312,162.08970807992154,None,,,,11006,0002,2022_Feb_10_1402,localizer,2021.1.3,59.46858870184262,
block,scenes,scenes090.bmp,,,,,0,18,18,18,,,,,,,,,,,,,,,,,,,,,,,,,,,,,,,,,,,,,,,,,,None,,162.08970807992154,None,162.08970807992154,None,2022-02-10-14:04:39.903083,162.09068839997053,162.38995300000533,162.09068839997053,None,None,162.09068839997053,None,162.90622037997235,None,,,,11006,0002,2022_Feb_10_1402,localizer,2021.1.3,59.46858870184262,
block,scenes,scenes077.bmp,,,,,0,19,19,19,,,,,,,,,,,,,,,,,,,,,,,,,,,,,,,,,,,,,,,,,,None,,162.90622037997235,None,162.90622037997235,None,2022-02-10-14:04:40.718551,162.90711369994096,163.20636279997416,162.90711369994096,None,None,162.90711369994096,None,163.70678478000917,None,,,,11006,0002,2022_Feb_10_1402,localizer,2021.1.3,59.46858870184262,
block,scenes,scenes018.bmp,,,,,0,20,20,20,,,,,,,,,,,,,,,,,,,,,,,,,,,,,,,,,,,,,,,,,,None,,163.70678478000917,None,163.70678478000917,None,2022-02-10-14:04:41.522104,163.70984919997863,164.02259279997088,163.70984919997863,163.70984919997863,None,163.70984919997863,163.70984919997863,164.52291937997796,None,,,,11006,0002,2022_Feb_10_1402,localizer,2021.1.3,59.46858870184262,
block,scenes,scenes008.bmp,,,,,0,21,21,21,,,,,,,,,,,,,,,,,,,,,,,,,,,,,,,,,,,,,,,,,,None,,164.52291937997796,None,164.52291937997796,None,2022-02-10-14:04:42.335251,164.52400650002528,164.82310759997927,164.52400650002528,None,None,164.52400650002528,None,165.32325117998988,None,,,,11006,0002,2022_Feb_10_1402,localizer,2021.1.3,59.46858870184262,
block,scenes,scenes009.bmp,,,,,0,22,22,22,,,,,,,,,,,,,,,,,,,,,,,,,,,,,,,,,,,,,,,,,,None,,165.32325117998988,None,165.32325117998988,None,2022-02-10-14:04:43.138573,165.33778069994878,165.63967069995124,165.33778069994878,165.33778069994878,None,165.33778069994878,165.33778069994878,166.13960778001928,None,,,,11006,0002,2022_Feb_10_1402,localizer,2021.1.3,59.46858870184262,
block,scenes,scenes085.bmp,,,,,0,23,23,23,,,,,,,,,,,,,,,,,,,,,,,,,,,,,,,,,,,,,,,,,,None,,166.13960778001928,None,166.13960778001928,None,2022-02-10-14:04:43.952141,166.14958399999887,166.45614829997066,166.14958399999887,None,None,166.14958399999887,None,166.956151879963,None,,,,11006,0002,2022_Feb_10_1402,localizer,2021.1.3,59.46858870184262,
block,scenes,scenes085.bmp,,,,,0,24,24,24,,,,,,,,,,,,,,,,,,,,,,,,,,,,,,,,,,,,,,,,,,None,,166.956151879963,None,166.956151879963,None,2022-02-10-14:04:44.768543,166.95705189998262,167.27231649996247,166.95705189998262,None,y,166.95705189998262,None,167.75675927997798,None,0.4929802999831736,,,11006,0002,2022_Feb_10_1402,localizer,2021.1.3,59.46858870184262,
block,scenes,scenes003.bmp,,,,,0,25,25,25,,,,,,,,,,,,,,,,,,,,,,,,,,,,,,,,,,,,,,,,,,None,,167.75675927997798,None,167.75675927997798,None,2022-02-10-14:04:45.572225,167.76015310001094,168.07283680001274,167.76015310001094,167.76015310001094,None,167.76015310001094,167.76015310001094,168.57269607995403,None,,,,11006,0002,2022_Feb_10_1402,localizer,2021.1.3,59.46858870184262,
block,scenes,scenes056.bmp,,,,,0,26,26,26,,,,,,,,,,,,,,,,,,,,,,,,,,,,,,,,,,,,,,,,,,None,,168.57269607995403,None,168.57269607995403,None,2022-02-10-14:04:46.385635,168.5737391000148,168.87320539995562,168.5737391000148,None,None,168.5737391000148,None,169.37390728002646,None,,,,11006,0002,2022_Feb_10_1402,localizer,2021.1.3,59.46858870184262,
block,scenes,scenes005.bmp,,,,,0,27,27,27,,,,,,,,,,,,,,,,,,,,,,,,,,,,,,,,,,,,,,,,,,None,,169.37390728002646,None,169.37390728002646,None,2022-02-10-14:04:47.189344,169.37806729995646,169.67489389993716,169.37806729995646,169.37806729995646,None,169.37806729995646,169.37806729995646,170.18984317999565,None,,,,11006,0002,2022_Feb_10_1402,localizer,2021.1.3,59.46858870184262,
block,scenes,scenes068.bmp,,,,,0,28,28,28,,,,,,,,,,,,,,,,,,,,,,,,,,,,,,,,,,,,,,,,,,None,,170.18984317999565,None,170.18984317999565,None,2022-02-10-14:04:48.003181,170.19098369998392,170.48988809995353,170.19098369998392,None,None,170.19098369998392,None,171.00656458000884,None,,,,11006,0002,2022_Feb_10_1402,localizer,2021.1.3,59.46858870184262,
block_end,scenes,scenes021.bmp,,,,,0,29,29,29,,,,,,,,,,,,,,,,,,,,,,,,,,,,,,,,,,,,,,,,,,None,,171.00656458000884,None,171.00656458000884,None,2022-02-10-14:04:48.820830,171.00810680002905,171.3223026000196,171.00810680002905,None,None,171.00810680002905,None,171.82248828000155,None,,,,11006,0002,2022_Feb_10_1402,localizer,2021.1.3,59.46858870184262,
null_block,null_block,null_block.bmp,,,,,0,30,30,30,,,,,,,,,,,,,,,,,,,,,,,,,,,,,,,,,,,,,,,,,,t,1.811276499996893,171.82226159994025,None,171.82226159994025,None,2022-02-10-14:04:51.468913,173.6564326799591,None,173.6564326799591,None,None,173.6564326799591,None,173.6613662999589,None,,,,11006,0002,2022_Feb_10_1402,localizer,2021.1.3,59.46858870184262,
block_start,scrambled,scrambled069.bmp,,,,,0,31,31,31,,,,,,,,,,,,,,,,,,,,,,,,,,,,,,,,,,,,,,,,,,t,1.9592300999211147,185.67327939998358,None,185.67327939998358,None,2022-02-10-14:05:05.469309,187.6617626999505,187.97284529998433,187.6617626999505,None,None,187.6617626999505,None,188.47252607996342,None,,,,11006,0002,2022_Feb_10_1402,localizer,2021.1.3,59.46858870184262,
block,scrambled,scrambled075.bmp,,,,,0,32,32,32,,,,,,,,,,,,,,,,,,,,,,,,,,,,,,,,,,,,,,,,,,None,,188.47252607996342,None,188.47252607996342,None,2022-02-10-14:05:06.285133,188.4811818000162,188.78974729997572,188.4811818000162,None,None,188.4811818000162,None,189.28982617995933,None,,,,11006,0002,2022_Feb_10_1402,localizer,2021.1.3,59.46858870184262,
block,scrambled,scrambled019.bmp,,,,,0,33,33,33,,,,,,,,,,,,,,,,,,,,,,,,,,,,,,,,,,,,,,,,,,None,,189.28982617995933,None,189.28982617995933,None,2022-02-10-14:05:07.102484,189.29033789993264,189.58976839995012,189.29033789993264,None,None,189.29033789993264,None,190.08965707999886,None,,,,11006,0002,2022_Feb_10_1402,localizer,2021.1.3,59.46858870184262,
block,scrambled,scrambled084.bmp,,,,,0,34,34,34,,,,,,,,,,,,,,,,,,,,,,,,,,,,,,,,,,,,,,,,,,None,,190.08965707999886,None,190.08965707999886,None,2022-02-10-14:05:07.903985,190.1007513999939,190.40622569993138,190.1007513999939,190.1007513999939,None,190.1007513999939,190.1007513999939,190.90632767997448,None,,,,11006,0002,2022_Feb_10_1402,localizer,2021.1.3,59.46858870184262,
block,scrambled,scrambled041.bmp,,,,,0,35,35,35,,,,,,,,,,,,,,,,,,,,,,,,,,,,,,,,,,,,,,,,,,None,,190.90632767997448,None,190.90632767997448,None,2022-02-10-14:05:08.718663,190.90701700001955,191.22275650000665,190.90701700001955,None,None,190.90701700001955,None,191.70628607993712,None,,,,11006,0002,2022_Feb_10_1402,localizer,2021.1.3,59.46858870184262,
block,scrambled,scrambled010.bmp,,,,,0,36,36,36,,,,,,,,,,,,,,,,,,,,,,,,,,,,,,,,,,,,,,,,,,None,,191.70628607993712,None,191.70628607993712,None,2022-02-10-14:05:09.521612,191.71874209993985,192.02320399996825,191.71874209993985,191.71874209993985,None,191.71874209993985,191.71874209993985,192.5291535799508,None,,,,11006,0002,2022_Feb_10_1402,localizer,2021.1.3,59.46858870184262,
block,scrambled,scrambled036.bmp,,,,,0,37,37,37,,,,,,,,,,,,,,,,,,,,,,,,,,,,,,,,,,,,,,,,,,None,,192.5291535799508,None,192.5291535799508,None,2022-02-10-14:05:10.345327,192.53230830002576,192.84013749996666,192.53230830002576,None,None,192.53230830002576,None,193.34009047992294,None,,,,11006,0002,2022_Feb_10_1402,localizer,2021.1.3,59.46858870184262,
block,scrambled,scrambled053.bmp,,,,,0,38,38,38,,,,,,,,,,,,,,,,,,,,,,,,,,,,,,,,,,,,,,,,,,None,,193.34009047992294,None,193.34009047992294,None,2022-02-10-14:05:11.153356,193.34101819992065,193.6400823999429,193.34101819992065,None,None,193.34101819992065,None,194.14061057997168,None,,,,11006,0002,2022_Feb_10_1402,localizer,2021.1.3,59.46858870184262,
block,scrambled,scrambled050.bmp,,,,,0,39,39,39,,,,,,,,,,,,,,,,,,,,,,,,,,,,,,,,,,,,,,,,,,None,,194.14061057997168,None,194.14061057997168,None,2022-02-10-14:05:11.957104,194.1582964999834,194.47301970003173,194.1582964999834,194.1582964999834,None,194.1582964999834,194.1582964999834,194.95721867993706,None,,,,11006,0002,2022_Feb_10_1402,localizer,2021.1.3,59.46858870184262,
block,scrambled,scrambled063.bmp,,,,,0,40,40,40,,,,,,,,,,,,,,,,,,,,,,,,,,,,,,,,,,,,,,,,,,None,,194.95721867993706,None,194.95721867993706,None,2022-02-10-14:05:12.770710,194.95969529997092,195.27234369993676,194.95969529997092,None,None,194.95969529997092,None,195.7731593799428,None,,,,11006,0002,2022_Feb_10_1402,localizer,2021.1.3,59.46858870184262,
block,scrambled,scrambled067.bmp,,,,,0,41,41,41,,,,,,,,,,,,,,,,,,,,,,,,,,,,,,,,,,,,,,,,,,None,,195.7731593799428,None,195.7731593799428,None,2022-02-10-14:05:13.585494,195.78383450000547,196.09039010002743,195.78383450000547,None,None,195.78383450000547,None,196.58978927995776,None,,,,11006,0002,2022_Feb_10_1402,localizer,2021.1.3,59.46858870184262,
block,scrambled,scrambled022.bmp,,,,,0,42,42,42,,,,,,,,,,,,,,,,,,,,,,,,,,,,,,,,,,,,,,,,,,None,,196.58978927995776,None,196.58978927995776,None,2022-02-10-14:05:14.402105,196.59060839994345,196.906327100005,196.59060839994345,None,None,196.59060839994345,None,197.38963007995625,None,,,,11006,0002,2022_Feb_10_1402,localizer,2021.1.3,59.46858870184262,
block,scrambled,scrambled080.bmp,,,,,0,43,43,43,,,,,,,,,,,,,,,,,,,,,,,,,,,,,,,,,,,,,,,,,,None,,197.38963007995625,None,197.38963007995625,None,2022-02-10-14:05:15.203961,197.40167399996426,197.7061623999616,197.40167399996426,197.40167399996426,None,197.40167399996426,197.40167399996426,198.20732038001296,None,,,,11006,0002,2022_Feb_10_1402,localizer,2021.1.3,59.46858870184262,
block,scrambled,scrambled025.bmp,,,,,0,44,44,44,,,,,,,,,,,,,,,,,,,,,,,,,,,,,,,,,,,,,,,,,,None,,198.20732038001296,None,198.20732038001296,None,2022-02-10-14:05:16.020818,198.21952679997776,198.52287739992607,198.21952679997776,None,None,198.21952679997776,None,199.02292458001756,None,,,,11006,0002,2022_Feb_10_1402,localizer,2021.1.3,59.46858870184262,
block_end,scrambled,scrambled073.bmp,,,,,0,45,45,45,,,,,,,,,,,,,,,,,,,,,,,,,,,,,,,,,,,,,,,,,,None,,199.02292458001756,None,199.02292458001756,None,2022-02-10-14:05:16.835615,199.03282939991914,199.3394372999901,199.03282939991914,None,None,199.03282939991914,None,199.8394385799649,None,,,,11006,0002,2022_Feb_10_1402,localizer,2021.1.3,59.46858870184262,
block_start,objects,objects005.bmp,,,,,0,46,46,46,,,,,,,,,,,,,,,,,,,,,,,,,,,,,,,,,,,,,,,,,,t,1.7930429000407457,199.83946449996438,None,199.83946449996438,None,2022-02-10-14:05:19.470968,201.67244430002756,201.97306919994298,201.67244430002756,None,None,201.67244430002756,None,202.47311997994547,None,,,,11006,0002,2022_Feb_10_1402,localizer,2021.1.3,59.46858870184262,
block,objects,objects067.bmp,,,,,0,47,47,47,,,,,,,,,,,,,,,,,,,,,,,,,,,,,,,,,,,,,,,,,,None,,202.47311997994547,None,202.47311997994547,None,2022-02-10-14:05:20.285646,202.48311749997083,202.78933019994292,202.48311749997083,None,None,202.48311749997083,None,203.28939168002688,None,,,,11006,0002,2022_Feb_10_1402,localizer,2021.1.3,59.46858870184262,
block,objects,objects008.bmp,,,,,0,48,48,48,,,,,,,,,,,,,,,,,,,,,,,,,,,,,,,,,,,,,,,,,,None,,203.28939168002688,None,203.28939168002688,None,2022-02-10-14:05:21.101828,203.2982099999208,203.60612070001662,203.2982099999208,None,None,203.2982099999208,None,204.10635937993646,None,,,,11006,0002,2022_Feb_10_1402,localizer,2021.1.3,59.46858870184262,
block,objects,objects040.bmp,,,,,0,49,49,49,,,,,,,,,,,,,,,,,,,,,,,,,,,,,,,,,,,,,,,,,,None,,204.10635937993646,None,204.10635937993646,None,2022-02-10-14:05:21.918695,204.1163050000323,204.42298349994235,204.1163050000323,None,None,204.1163050000323,None,204.92294957999837,None,,,,11006,0002,2022_Feb_10_1402,localizer,2021.1.3,59.46858870184262,
block,objects,objects032.bmp,,,,,0,50,50,50,,,,,,,,,,,,,,,,,,,,,,,,,,,,,,,,,,,,,,,,,,None,,204.92294957999837,None,204.92294957999837,None,2022-02-10-14:05:22.735286,204.9237262000097,205.22288379992824,204.9237262000097,None,None,204.9237262000097,None,205.72402918000006,None,,,,11006,0002,2022_Feb_10_1402,localizer,2021.1.3,59.46858870184262,
block,objects,objects065.bmp,,,,,0,51,51,51,,,,,,,,,,,,,,,,,,,,,,,,,,,,,,,,,,,,,,,,,,None,,205.72402918000006,None,205.72402918000006,None,2022-02-10-14:05:23.539534,205.74026679992676,206.03942009992898,205.74026679992676,205.74026679992676,None,205.74026679992676,205.74026679992676,206.5397514799726,None,,,,11006,0002,2022_Feb_10_1402,localizer,2021.1.3,59.46858870184262,
block,objects,objects071.bmp,,,,,0,52,52,52,,,,,,,,,,,,,,,,,,,,,,,,,,,,,,,,,,,,,,,,,,None,,206.5397514799726,None,206.5397514799726,None,2022-02-10-14:05:24.352088,206.54969549993984,206.8562174999388,206.54969549993984,None,None,206.54969549993984,None,207.356226579973,None,,,,11006,0002,2022_Feb_10_1402,localizer,2021.1.3,59.46858870184262,
block,objects,objects054.bmp,,,,,0,53,53,53,,,,,,,,,,,,,,,,,,,,,,,,,,,,,,,,,,,,,,,,,,None,,207.356226579973,None,207.356226579973,None,2022-02-10-14:05:25.168751,207.35711159999482,207.65613309992477,207.35711159999482,None,None,207.35711159999482,None,208.15613727992167,None,,,,11006,0002,2022_Feb_10_1402,localizer,2021.1.3,59.46858870184262,
block,objects,objects050.bmp,,,,,0,54,54,54,,,,,,,,,,,,,,,,,,,,,,,,,,,,,,,,,,,,,,,,,,None,,208.15613727992167,None,208.15613727992167,None,2022-02-10-14:05:25.970469,208.1574576999992,208.4728763999883,208.1574576999992,208.1574576999992,None,208.1574576999992,208.1574576999992,208.97312177995917,None,,,,11006,0002,2022_Feb_10_1402,localizer,2021.1.3,59.46858870184262,
block,objects,objects018.bmp,,,,,0,55,55,55,,,,,,,,,,,,,,,,,,,,,,,,,,,,,,,,,,,,,,,,,,None,,208.97312177995917,None,208.97312177995917,None,2022-02-10-14:05:26.785657,208.97404589992948,209.273087700014,208.97404589992948,None,None,208.97404589992948,None,209.7730786800268,None,,,,11006,0002,2022_Feb_10_1402,localizer,2021.1.3,59.46858870184262,
block,objects,objects001.bmp,,,,,0,56,56,56,,,,,,,,,,,,,,,,,,,,,,,,,,,,,,,,,,,,,,,,,,None,,209.7730786800268,None,209.7730786800268,None,2022-02-10-14:05:27.587401,209.7762316999724,210.08981389994733,209.7762316999724,209.7762316999724,None,209.7762316999724,209.7762316999724,210.5907417799928,None,,,,11006,0002,2022_Feb_10_1402,localizer,2021.1.3,59.46858870184262,
block,objects,objects003.bmp,,,,,0,57,57,57,,,,,,,,,,,,,,,,,,,,,,,,,,,,,,,,,,,,,,,,,,None,,210.5907417799928,None,210.5907417799928,None,2022-02-10-14:05:28.404239,210.59319029992912,210.90739009995013,210.59319029992912,None,None,210.59319029992912,None,211.395099179924,None,,,,11006,0002,2022_Feb_10_1402,localizer,2021.1.3,59.46858870184262,
block,objects,objects073.bmp,,,,,0,58,58,58,,,,,,,,,,,,,,,,,,,,,,,,,,,,,,,,,,,,,,,,,,None,,211.395099179924,None,211.395099179924,None,2022-02-10-14:05:29.208441,211.3993354999693,211.70698329992592,211.3993354999693,211.3993354999693,None,211.3993354999693,211.3993354999693,212.20613407994387,None,,,,11006,0002,2022_Feb_10_1402,localizer,2021.1.3,59.46858870184262,
block,objects,objects070.bmp,,,,,0,59,59,59,,,,,,,,,,,,,,,,,,,,,,,,,,,,,,,,,,,,,,,,,,None,,212.20613407994387,None,212.20613407994387,None,2022-02-10-14:05:30.018473,212.2070930999471,212.5060282999184,212.2070930999471,None,None,212.2070930999471,None,213.00644777993438,None,,,,11006,0002,2022_Feb_10_1402,localizer,2021.1.3,59.46858870184262,
block_end,objects,objects058.bmp,,,,,0,60,60,60,,,,,,,,,,,,,,,,,,,,,,,,,,,,,,,,,,,,,,,,,,None,,213.00644777993438,None,213.00644777993438,None,2022-02-10-14:05:30.820745,213.00783559994306,213.32312910002656,213.00783559994306,213.00783559994306,None,213.00783559994306,213.00783559994306,213.8226425800123,None,,,,11006,0002,2022_Feb_10_1402,localizer,2021.1.3,59.46858870184262,
block_start,faces,faces018.bmp,,,,,0,61,61,61,,,,,,,,,,,,,,,,,,,,,,,,,,,,,,,,,,,,,,,,,,t,1.8098962999647483,213.82258509995881,None,213.82258509995881,None,2022-02-10-14:05:33.470247,215.66809789999388,215.97303779993672,215.66809789999388,None,None,215.66809789999388,None,216.47415727992774,None,,,,11006,0002,2022_Feb_10_1402,localizer,2021.1.3,59.46858870184262,
block,faces,faces022.bmp,,,,,0,62,62,62,,,,,,,,,,,,,,,,,,,,,,,,,,,,,,,,,,,,,,,,,,None,,216.47415727992774,None,216.47415727992774,None,2022-02-10-14:05:34.287963,216.47701559995767,216.78899689996615,216.47701559995767,None,None,216.47701559995767,None,217.28961848000762,None,,,,11006,0002,2022_Feb_10_1402,localizer,2021.1.3,59.46858870184262,
block,faces,faces032.bmp,,,,,0,63,63,63,,,,,,,,,,,,,,,,,,,,,,,,,,,,,,,,,,,,,,,,,,None,,217.28961848000762,None,217.28961848000762,None,2022-02-10-14:05:35.101964,217.2993831000058,217.60642259998713,217.2993831000058,None,None,217.2993831000058,None,218.10642237995052,None,,,,11006,0002,2022_Feb_10_1402,localizer,2021.1.3,59.46858870184262,
block,faces,faces032.bmp,,,,,0,64,64,64,,,,,,,,,,,,,,,,,,,,,,,,,,,,,,,,,,,,,,,,,,None,,218.10642237995052,None,218.10642237995052,None,2022-02-10-14:05:35.918758,218.10746049997397,218.4125213000225,218.10746049997397,None,y,218.10746049997397,None,218.90664527994812,None,0.5177838000236079,,,11006,0002,2022_Feb_10_1402,localizer,2021.1.3,59.46858870184262,
block,faces,faces019.bmp,,,,,0,65,65,65,,,,,,,,,,,,,,,,,,,,,,,,,,,,,,,,,,,,,,,,,,None,,218.90664527994812,None,218.90664527994812,None,2022-02-10-14:05:36.720912,218.92814590001944,219.23976100003347,218.92814590001944,218.92814590001944,None,218.92814590001944,218.92814590001944,219.72342068002325,None,,,,11006,0002,2022_Feb_10_1402,localizer,2021.1.3,59.46858870184262,
block,faces,faces046.bmp,,,,,0,66,66,66,,,,,,,,,,,,,,,,,,,,,,,,,,,,,,,,,,,,,,,,,,None,,219.72342068002325,None,219.72342068002325,None,2022-02-10-14:05:37.536740,219.72434089996386,220.02346189995296,219.72434089996386,None,None,219.72434089996386,None,220.53984427998074,None,,,,11006,0002,2022_Feb_10_1402,localizer,2021.1.3,59.46858870184262,
block,faces,faces009.bmp,,,,,0,67,67,67,,,,,,,,,,,,,,,,,,,,,,,,,,,,,,,,,,,,,,,,,,None,,220.53984427998074,None,220.53984427998074,None,2022-02-10-14:05:38.352418,220.54991209995933,220.85660890000872,220.54991209995933,None,None,220.54991209995933,None,221.35712217992403,None,,,,11006,0002,2022_Feb_10_1402,localizer,2021.1.3,59.46858870184262,
block,faces,faces067.bmp,,,,,0,68,68,68,,,,,,,,,,,,,,,,,,,,,,,,,,,,,,,,,,,,,,,,,,None,,221.35712217992403,None,221.35712217992403,None,2022-02-10-14:05:39.170583,221.35965589992702,221.6738609999884,221.35965589992702,None,None,221.35965589992702,None,222.1736617799499,None,,,,11006,0002,2022_Feb_10_1402,localizer,2021.1.3,59.46858870184262,
block,faces,faces062.bmp,,,,,0,69,69,69,,,,,,,,,,,,,,,,,,,,,,,,,,,,,,,,,,,,,,,,,,None,,222.1736617799499,None,222.1736617799499,None,2022-02-10-14:05:39.986962,222.17453049996402,222.4734975999454,222.17453049996402,None,None,222.17453049996402,None,222.9741550800274,None,,,,11006,0002,2022_Feb_10_1402,localizer,2021.1.3,59.46858870184262,
block,faces,faces048.bmp,,,,,0,70,70,70,,,,,,,,,,,,,,,,,,,,,,,,,,,,,,,,,,,,,,,,,,None,,222.9741550800274,None,222.9741550800274,None,2022-02-10-14:05:40.790639,222.995831899927,223.30621800001245,222.995831899927,222.995831899927,None,222.995831899927,222.995831899927,223.7900037800311,None,,,,11006,0002,2022_Feb_10_1402,localizer,2021.1.3,59.46858870184262,
block,faces,faces066.bmp,,,,,0,71,71,71,,,,,,,,,,,,,,,,,,,,,,,,,,,,,,,,,,,,,,,,,,None,,223.7900037800311,None,223.7900037800311,None,2022-02-10-14:05:41.602318,223.8010383999208,224.106985899969,223.8010383999208,None,None,223.8010383999208,None,224.6064821799402,None,,,,11006,0002,2022_Feb_10_1402,localizer,2021.1.3,59.46858870184262,
block,faces,faces056.bmp,,,,,0,72,72,72,,,,,,,,,,,,,,,,,,,,,,,,,,,,,,,,,,,,,,,,,,None,,224.6064821799402,None,224.6064821799402,None,2022-02-10-14:05:42.419008,224.6166950999759,224.92315559997223,224.6166950999759,None,None,224.6166950999759,None,225.42299007995751,None,,,,11006,0002,2022_Feb_10_1402,localizer,2021.1.3,59.46858870184262,
block,faces,faces026.bmp,,,,,0,73,73,73,,,,,,,,,,,,,,,,,,,,,,,,,,,,,,,,,,,,,,,,,,None,,225.42299007995751,None,225.42299007995751,None,2022-02-10-14:05:43.234131,225.42422739998437,225.7396625999827,225.42422739998437,None,None,225.42422739998437,None,226.22335397998103,None,,,,11006,0002,2022_Feb_10_1402,localizer,2021.1.3,59.46858870184262,
block,faces,faces057.bmp,,,,,0,74,74,74,,,,,,,,,,,,,,,,,,,,,,,,,,,,,,,,,,,,,,,,,,None,,226.22335397998103,None,226.22335397998103,None,2022-02-10-14:05:44.037876,226.2253169999458,226.53995619993657,226.2253169999458,226.2253169999458,None,226.2253169999458,226.2253169999458,227.04064378001493,None,,,,11006,0002,2022_Feb_10_1402,localizer,2021.1.3,59.46858870184262,
block_end,faces,faces015.bmp,,,,,0,75,75,75,,,,,,,,,,,,,,,,,,,,,,,,,,,,,,,,,,,,,,,,,,None,,227.04064378001493,None,227.04064378001493,None,2022-02-10-14:05:44.854152,227.04323259997182,227.35735259996727,227.04323259997182,None,None,227.04323259997182,None,227.85618977992561,None,,,,11006,0002,2022_Feb_10_1402,localizer,2021.1.3,59.46858870184262,
null_block,null_block,null_block.bmp,,,,,0,76,76,76,,,,,,,,,,,,,,,,,,,,,,,,,,,,,,,,,,,,,,,,,,t,1.7760570000391454,227.85623319994193,None,227.85623319994193,None,2022-02-10-14:05:47.466958,229.6557850799174,None,229.6557850799174,None,None,229.6557850799174,None,229.6563565999968,None,,,,11006,0002,2022_Feb_10_1402,localizer,2021.1.3,59.46858870184262,
block_start,scrambled,scrambled086.bmp,,,,,0,77,77,77,,,,,,,,,,,,,,,,,,,,,,,,,,,,,,,,,,,,,,,,,,t,1.9753118000226095,241.65718500001822,None,241.65718500001822,None,2022-02-10-14:06:01.469144,243.65741999994498,243.97308969998267,243.65741999994498,None,None,243.65741999994498,None,244.4731273800018,None,,,,11006,0002,2022_Feb_10_1402,localizer,2021.1.3,59.46858870184262,
block,scrambled,scrambled074.bmp,,,,,0,78,78,78,,,,,,,,,,,,,,,,,,,,,,,,,,,,,,,,,,,,,,,,,,None,,244.4731273800018,None,244.4731273800018,None,2022-02-10-14:06:02.285464,244.47402319998946,244.779329199926,244.47402319998946,None,None,244.47402319998946,None,245.2738284800318,None,,,,11006,0002,2022_Feb_10_1402,localizer,2021.1.3,59.46858870184262,
block,scrambled,scrambled075.bmp,,,,,0,79,79,79,,,,,,,,,,,,,,,,,,,,,,,,,,,,,,,,,,,,,,,,,,None,,245.2738284800318,None,245.2738284800318,None,2022-02-10-14:06:03.089145,245.27681349997874,245.59016709995922,245.27681349997874,245.27681349997874,None,245.27681349997874,245.27681349997874,246.08963927997974,None,,,,11006,0002,2022_Feb_10_1402,localizer,2021.1.3,59.46858870184262,
block,scrambled,scrambled033.bmp,,,,,0,80,80,80,,,,,,,,,,,,,,,,,,,,,,,,,,,,,,,,,,,,,,,,,,None,,246.08963927997974,None,246.08963927997974,None,2022-02-10-14:06:03.901976,246.0988789999392,246.40718079998624,246.0988789999392,None,None,246.0988789999392,None,246.90713337993947,None,,,,11006,0002,2022_Feb_10_1402,localizer,2021.1.3,59.46858870184262,
block,scrambled,scrambled070.bmp,,,,,0,81,81,81,,,,,,,,,,,,,,,,,,,,,,,,,,,,,,,,,,,,,,,,,,None,,246.90713337993947,None,246.90713337993947,None,2022-02-10-14:06:04.720440,246.90796159999445,247.20709249994252,246.90796159999445,None,None,246.90796159999445,None,247.72351847995304,None,,,,11006,0002,2022_Feb_10_1402,localizer,2021.1.3,59.46858870184262,
block,scrambled,scrambled053.bmp,,,,,0,82,82,82,,,,,,,,,,,,,,,,,,,,,,,,,,,,,,,,,,,,,,,,,,None,,247.72351847995304,None,247.72351847995304,None,2022-02-10-14:06:05.535851,247.72411069995724,248.02354179997928,247.72411069995724,None,None,247.72411069995724,None,248.52346667995442,None,,,,11006,0002,2022_Feb_10_1402,localizer,2021.1.3,59.46858870184262,
block,scrambled,scrambled029.bmp,,,,,0,83,83,83,,,,,,,,,,,,,,,,,,,,,,,,,,,,,,,,,,,,,,,,,,None,,248.52346667995442,None,248.52346667995442,None,2022-02-10-14:06:06.337793,248.53585520002525,248.84028190001845,248.53585520002525,248.53585520002525,None,248.53585520002525,248.53585520002525,249.343840279954,None,,,,11006,0002,2022_Feb_10_1402,localizer,2021.1.3,59.46858870184262,
block,scrambled,scrambled001.bmp,,,,,0,84,84,84,,,,,,,,,,,,,,,,,,,,,,,,,,,,,,,,,,,,,,,,,,None,,249.343840279954,None,249.343840279954,None,2022-02-10-14:06:07.156287,249.35181279992685,249.65635860001203,249.35181279992685,None,None,249.35181279992685,None,250.1571578800096,None,,,,11006,0002,2022_Feb_10_1402,localizer,2021.1.3,59.46858870184262,
block,scrambled,scrambled003.bmp,,,,,0,85,85,85,,,,,,,,,,,,,,,,,,,,,,,,,,,,,,,,,,,,,,,,,,None,,250.1571578800096,None,250.1571578800096,None,2022-02-10-14:06:07.970675,250.16791039996315,250.47316299995873,250.16791039996315,None,None,250.16791039996315,None,250.97331478003179,None,,,,11006,0002,2022_Feb_10_1402,localizer,2021.1.3,59.46858870184262,
block,scrambled,scrambled081.bmp,,,,,0,86,86,86,,,,,,,,,,,,,,,,,,,,,,,,,,,,,,,,,,,,,,,,,,None,,250.97331478003179,None,250.97331478003179,None,2022-02-10-14:06:08.785852,250.97406779997982,251.27331219997723,250.97406779997982,None,None,250.97406779997982,None,251.77322918000863,None,,,,11006,0002,2022_Feb_10_1402,localizer,2021.1.3,59.46858870184262,
block,scrambled,scrambled016.bmp,,,,,0,87,87,87,,,,,,,,,,,,,,,,,,,,,,,,,,,,,,,,,,,,,,,,,,None,,251.77322918000863,None,251.77322918000863,None,2022-02-10-14:06:09.587780,251.78549139993265,252.09003949991893,251.78549139993265,251.78549139993265,None,251.78549139993265,251.78549139993265,252.59236157998674,None,,,,11006,0002,2022_Feb_10_1402,localizer,2021.1.3,59.46858870184262,
block,scrambled,scrambled080.bmp,,,,,0,88,88,88,,,,,,,,,,,,,,,,,,,,,,,,,,,,,,,,,,,,,,,,,,None,,252.59236157998674,None,252.59236157998674,None,2022-02-10-14:06:10.405860,252.59259469993412,252.90656629996374,252.59259469993412,None,None,252.59259469993412,None,253.40638647995655,None,,,,11006,0002,2022_Feb_10_1402,localizer,2021.1.3,59.46858870184262,
block,scrambled,scrambled027.bmp,,,,,0,89,89,89,,,,,,,,,,,,,,,,,,,,,,,,,,,,,,,,,,,,,,,,,,None,,253.40638647995655,None,253.40638647995655,None,2022-02-10-14:06:11.218750,253.4072962999344,253.70660169993062,253.4072962999344,None,None,253.4072962999344,None,254.20631657993653,None,,,,11006,0002,2022_Feb_10_1402,localizer,2021.1.3,59.46858870184262,
block,scrambled,scrambled031.bmp,,,,,0,90,90,90,,,,,,,,,,,,,,,,,,,,,,,,,,,,,,,,,,,,,,,,,,None,,254.20631657993653,None,254.20631657993653,None,2022-02-10-14:06:12.019655,254.20721589995082,254.50676329992712,254.20721589995082,254.20721589995082,None,254.20721589995082,254.20721589995082,255.0066598799196,None,,,,11006,0002,2022_Feb_10_1402,localizer,2021.1.3,59.46858870184262,
block_end,scrambled,scrambled042.bmp,,,,,0,91,91,91,,,,,,,,,,,,,,,,,,,,,,,,,,,,,,,,,,,,,,,,,,None,,255.0066598799196,None,255.0066598799196,None,2022-02-10-14:06:12.820990,255.00799389998429,255.3070814999519,255.00799389998429,255.00799389998429,None,255.00799389998429,255.00799389998429,255.8070051799179,None,,,,11006,0002,2022_Feb_10_1402,localizer,2021.1.3,59.46858870184262,
block_start,objects,objects019.bmp,,,,,0,92,92,92,,,,,,,,,,,,,,,,,,,,,,,,,,,,,,,,,,,,,,,,,,t,1.8254754999652505,255.80700609995984,None,255.80700609995984,None,2022-02-10-14:06:15.467402,257.6576954999473,257.95645099994726,257.6576954999473,None,None,257.6576954999473,None,258.4730324799777,None,,,,11006,0002,2022_Feb_10_1402,localizer,2021.1.3,59.46858870184262,
block,objects,objects025.bmp,,,,,0,93,93,93,,,,,,,,,,,,,,,,,,,,,,,,,,,,,,,,,,,,,,,,,,None,,258.4730324799777,None,258.4730324799777,None,2022-02-10-14:06:16.285575,258.4821300000185,258.7899775999831,258.4821300000185,None,None,258.4821300000185,None,259.2798189800116,None,,,,11006,0002,2022_Feb_10_1402,localizer,2021.1.3,59.46858870184262,
block,objects,objects087.bmp,,,,,0,94,94,94,,,,,,,,,,,,,,,,,,,,,,,,,,,,,,,,,,,,,,,,,,None,,259.2798189800116,None,259.2798189800116,None,2022-02-10-14:06:17.098971,259.298645199975,259.6067072999431,259.298645199975,None,None,259.298645199975,None,260.0900308799348,None,,,,11006,0002,2022_Feb_10_1402,localizer,2021.1.3,59.46858870184262,
block,objects,objects076.bmp,,,,,0,95,95,95,,,,,,,,,,,,,,,,,,,,,,,,,,,,,,,,,,,,,,,,,,None,,260.0900308799348,None,260.0900308799348,None,2022-02-10-14:06:17.902365,260.09963770001195,260.4067039999645,260.09963770001195,None,None,260.09963770001195,None,260.90690677996025,None,,,,11006,0002,2022_Feb_10_1402,localizer,2021.1.3,59.46858870184262,
block,objects,objects085.bmp,,,,,0,96,96,96,,,,,,,,,,,,,,,,,,,,,,,,,,,,,,,,,,,,,,,,,,None,,260.90690677996025,None,260.90690677996025,None,2022-02-10-14:06:18.719444,260.91789119993336,261.2236749000149,260.91789119993336,None,None,260.91789119993336,None,261.7236614799942,None,,,,11006,0002,2022_Feb_10_1402,localizer,2021.1.3,59.46858870184262,
block,objects,objects049.bmp,,,,,0,97,97,97,,,,,,,,,,,,,,,,,,,,,,,,,,,,,,,,,,,,,,,,,,None,,261.7236614799942,None,261.7236614799942,None,2022-02-10-14:06:19.536086,261.72459629992954,262.040016099927,261.72459629992954,None,None,261.72459629992954,None,262.5398205800331,None,,,,11006,0002,2022_Feb_10_1402,localizer,2021.1.3,59.46858870184262,
block,objects,objects079.bmp,,,,,0,98,98,98,,,,,,,,,,,,,,,,,,,,,,,,,,,,,,,,,,,,,,,,,,None,,262.5398205800331,None,262.5398205800331,None,2022-02-10-14:06:20.352375,262.5492468000157,262.8569093999686,262.5492468000157,None,None,262.5492468000157,None,263.36271268000127,None,,,,11006,0002,2022_Feb_10_1402,localizer,2021.1.3,59.46858870184262,
block,objects,objects018.bmp,,,,,0,99,99,99,,,,,,,,,,,,,,,,,,,,,,,,,,,,,,,,,,,,,,,,,,None,,263.36271268000127,None,263.36271268000127,None,2022-02-10-14:06:21.182816,263.36973739997484,263.67585609992966,263.36973739997484,None,None,263.36973739997484,None,264.17413018002406,None,,,,11006,0002,2022_Feb_10_1402,localizer,2021.1.3,59.46858870184262,
block,objects,objects015.bmp,,,,,0,100,100,100,,,,,,,,,,,,,,,,,,,,,,,,,,,,,,,,,,,,,,,,,,None,,264.17413018002406,None,264.17413018002406,None,2022-02-10-14:06:21.987644,264.1765367999906,264.48978149995673,264.1765367999906,None,None,264.1765367999906,None,264.99032948001985,None,,,,11006,0002,2022_Feb_10_1402,localizer,2021.1.3,59.46858870184262,
block,objects,objects050.bmp,,,,,0,101,101,101,,,,,,,,,,,,,,,,,,,,,,,,,,,,,,,,,,,,,,,,,,None,,264.99032948001985,None,264.99032948001985,None,2022-02-10-14:06:22.802658,264.9910727000097,265.2903310999973,264.9910727000097,None,None,264.9910727000097,None,265.79649768000235,None,,,,11006,0002,2022_Feb_10_1402,localizer,2021.1.3,59.46858870184262,
block,objects,objects071.bmp,,,,,0,102,102,102,,,,,,,,,,,,,,,,,,,,,,,,,,,,,,,,,,,,,,,,,,None,,265.79649768000235,None,265.79649768000235,None,2022-02-10-14:06:23.615813,265.80411449994426,266.10740079998504,265.80411449994426,None,None,265.80411449994426,None,266.60738317993236,None,,,,11006,0002,2022_Feb_10_1402,localizer,2021.1.3,59.46858870184262,
block,objects,objects010.bmp,,,,,0,103,103,103,,,,,,,,,,,,,,,,,,,,,,,,,,,,,,,,,,,,,,,,,,None,,266.60738317993236,None,266.60738317993236,None,2022-02-10-14:06:24.420995,266.6178432999877,266.9231349999318,266.6178432999877,None,None,266.6178432999877,None,267.42453457996015,None,,,,11006,0002,2022_Feb_10_1402,localizer,2021.1.3,59.46858870184262,
block,objects,objects024.bmp,,,,,0,104,104,104,,,,,,,,,,,,,,,,,,,,,,,,,,,,,,,,,,,,,,,,,,None,,267.42453457996015,None,267.42453457996015,None,2022-02-10-14:06:25.237901,267.4265632999595,267.7402802000288,267.4265632999595,None,None,267.4265632999595,None,268.2406010799925,None,,,,11006,0002,2022_Feb_10_1402,localizer,2021.1.3,59.46858870184262,
block,objects,objects055.bmp,,,,,0,105,105,105,,,,,,,,,,,,,,,,,,,,,,,,,,,,,,,,,,,,,,,,,,None,,268.2406010799925,None,268.2406010799925,None,2022-02-10-14:06:26.053909,268.2509063000325,268.556670299964,268.2509063000325,None,None,268.2509063000325,None,269.0579468799871,None,,,,11006,0002,2022_Feb_10_1402,localizer,2021.1.3,59.46858870184262,
block_end,objects,objects060.bmp,,,,,0,106,106,106,,,,,,,,,,,,,,,,,,,,,,,,,,,,,,,,,,,,,,,,,,None,,269.0579468799871,None,269.0579468799871,None,2022-02-10-14:06:26.869291,269.0573688999284,269.3561000999762,269.0573688999284,None,None,269.0573688999284,None,269.8726670800126,None,,,,11006,0002,2022_Feb_10_1402,localizer,2021.1.3,59.46858870184262,
block_start,scenes,scenes060.bmp,,,,,0,107,107,107,,,,,,,,,,,,,,,,,,,,,,,,,,,,,,,,,,,,,,,,,,t,1.7535915999906138,269.87900369998533,None,269.87900369998533,None,2022-02-10-14:06:29.468041,271.6619747999357,271.97259349992964,271.6619747999357,None,None,271.6619747999357,None,272.47257617999566,None,,,,11006,0002,2022_Feb_10_1402,localizer,2021.1.3,59.46858870184262,
block,scenes,scenes008.bmp,,,,,0,108,108,108,,,,,,,,,,,,,,,,,,,,,,,,,,,,,,,,,,,,,,,,,,None,,272.47257617999566,None,272.47257617999566,None,2022-02-10-14:06:30.284672,272.4744758999441,272.77333919995,272.4744758999441,None,None,272.4744758999441,None,273.27417367998277,None,,,,11006,0002,2022_Feb_10_1402,localizer,2021.1.3,59.46858870184262,
block,scenes,scenes043.bmp,,,,,0,109,109,109,,,,,,,,,,,,,,,,,,,,,,,,,,,,,,,,,,,,,,,,,,None,,273.27417367998277,None,273.27417367998277,None,2022-02-10-14:06:31.087796,273.28017099993303,273.58981509995647,273.28017099993303,273.28017099993303,None,273.28017099993303,273.28017099993303,274.0900491799577,None,,,,11006,0002,2022_Feb_10_1402,localizer,2021.1.3,59.46858870184262,
block,scenes,scenes058.bmp,,,,,0,110,110,110,,,,,,,,,,,,,,,,,,,,,,,,,,,,,,,,,,,,,,,,,,None,,274.0900491799577,None,274.0900491799577,None,2022-02-10-14:06:31.902565,274.09092099999543,274.4065319999354,274.09092099999543,None,None,274.09092099999543,None,274.8918751799385,None,,,,11006,0002,2022_Feb_10_1402,localizer,2021.1.3,59.46858870184262,
block,scenes,scenes048.bmp,,,,,0,111,111,111,,,,,,,,,,,,,,,,,,,,,,,,,,,,,,,,,,,,,,,,,,None,,274.8918751799385,None,274.8918751799385,None,2022-02-10-14:06:32.706577,274.90531269996427,275.20665599999484,274.90531269996427,274.90531269996427,None,274.90531269996427,274.90531269996427,275.7066930800094,None,,,,11006,0002,2022_Feb_10_1402,localizer,2021.1.3,59.46858870184262,
block,scenes,scenes067.bmp,,,,,0,112,112,112,,,,,,,,,,,,,,,,,,,,,,,,,,,,,,,,,,,,,,,,,,None,,275.7066930800094,None,275.7066930800094,None,2022-02-10-14:06:33.519225,275.7169470000081,276.02339829993434,275.7169470000081,None,None,275.7169470000081,None,276.5237001799862,None,,,,11006,0002,2022_Feb_10_1402,localizer,2021.1.3,59.46858870184262,
block,scenes,scenes016.bmp,,,,,0,113,113,113,,,,,,,,,,,,,,,,,,,,,,,,,,,,,,,,,,,,,,,,,,None,,276.5237001799862,None,276.5237001799862,None,2022-02-10-14:06:34.336138,276.52460419991985,276.8397020000266,276.52460419991985,None,None,276.52460419991985,None,277.32372447998495,None,,,,11006,0002,2022_Feb_10_1402,localizer,2021.1.3,59.46858870184262,
block,scenes,scenes087.bmp,,,,,0,114,114,114,,,,,,,,,,,,,,,,,,,,,,,,,,,,,,,,,,,,,,,,,,None,,277.32372447998495,None,277.32372447998495,None,2022-02-10-14:06:35.139043,277.32679790002294,277.63983340002596,277.32679790002294,277.32679790002294,None,277.32679790002294,277.32679790002294,278.14006708002415,None,,,,11006,0002,2022_Feb_10_1402,localizer,2021.1.3,59.46858870184262,
block,scenes,scenes046.bmp,,,,,0,115,115,115,,,,,,,,,,,,,,,,,,,,,,,,,,,,,,,,,,,,,,,,,,None,,278.14006708002415,None,278.14006708002415,None,2022-02-10-14:06:35.952405,278.1493924999377,278.4566705999896,278.1493924999377,None,None,278.1493924999377,None,278.9566403799574,None,,,,11006,0002,2022_Feb_10_1402,localizer,2021.1.3,59.46858870184262,
block,scenes,scenes049.bmp,,,,,0,116,116,116,,,,,,,,,,,,,,,,,,,,,,,,,,,,,,,,,,,,,,,,,,None,,278.9566403799574,None,278.9566403799574,None,2022-02-10-14:06:36.768982,278.9578348000068,279.27972599992063,278.9578348000068,None,None,278.9578348000068,None,279.7580024800147,None,,,,11006,0002,2022_Feb_10_1402,localizer,2021.1.3,59.46858870184262,
block,scenes,scenes051.bmp,,,,,0,117,117,117,,,,,,,,,,,,,,,,,,,,,,,,,,,,,,,,,,,,,,,,,,None,,279.7580024800147,None,279.7580024800147,None,2022-02-10-14:06:37.573463,279.77602749993093,280.090190500021,279.77602749993093,279.77602749993093,None,279.77602749993093,279.77602749993093,280.57361657997825,None,,,,11006,0002,2022_Feb_10_1402,localizer,2021.1.3,59.46858870184262,
block,scenes,scenes015.bmp,,,,,0,118,118,118,,,,,,,,,,,,,,,,,,,,,,,,,,,,,,,,,,,,,,,,,,None,,280.57361657997825,None,280.57361657997825,None,2022-02-10-14:06:38.386178,280.57461060001515,280.8904728000052,280.57461060001515,None,None,280.57461060001515,None,281.3736812799354,None,,,,11006,0002,2022_Feb_10_1402,localizer,2021.1.3,59.46858870184262,
block,scenes,scenes032.bmp,,,,,0,119,119,119,,,,,,,,,,,,,,,,,,,,,,,,,,,,,,,,,,,,,,,,,,None,,281.3736812799354,None,281.3736812799354,None,2022-02-10-14:06:39.188210,281.38397590001114,281.68986819998827,281.38397590001114,281.38397590001114,None,281.38397590001114,281.38397590001114,282.19033628002506,None,,,,11006,0002,2022_Feb_10_1402,localizer,2021.1.3,59.46858870184262,
block,scenes,scenes078.bmp,,,,,0,120,120,120,,,,,,,,,,,,,,,,,,,,,,,,,,,,,,,,,,,,,,,,,,None,,282.19033628002506,None,282.19033628002506,None,2022-02-10-14:06:40.002870,282.19104780000634,282.50673349993303,282.19104780000634,None,None,282.19104780000634,None,283.00678207991876,None,,,,11006,0002,2022_Feb_10_1402,localizer,2021.1.3,59.46858870184262,
block_end,scenes,scenes073.bmp,,,,,0,121,121,121,,,,,,,,,,,,,,,,,,,,,,,,,,,,,,,,,,,,,,,,,,None,,283.00678207991876,None,283.00678207991876,None,2022-02-10-14:06:40.819315,283.0094521000283,283.3233227999881,283.0094521000283,None,None,283.0094521000283,None,283.8229946800158,None,,,,11006,0002,2022_Feb_10_1402,localizer,2021.1.3,59.46858870184262,
null_block,null_block,null_block.bmp,,,,,0,122,122,122,,,,,,,,,,,,,,,,,,,,,,,,,,,,,,,,,,,,,,,,,,t,1.809238399961032,283.82320719992276,None,283.82320719992276,None,2022-02-10-14:06:43.469418,285.65708767994073,None,285.65708767994073,None,None,285.65708767994073,None,285.66141089994926,None,,,,11006,0002,2022_Feb_10_1402,localizer,2021.1.3,59.46858870184262,
block_start,faces,faces016.bmp,,,,,0,123,123,123,,,,,,,,,,,,,,,,,,,,,,,,,,,,,,,,,,,,,,,,,,t,1.9693951000226662,297.6631545999553,None,297.6631545999553,None,2022-02-10-14:06:57.469662,299.6577021999983,299.95691940002143,299.6577021999983,None,None,299.6577021999983,None,300.45810747995273,None,,,,11006,0002,2022_Feb_10_1402,localizer,2021.1.3,59.46858870184262,
block,faces,faces001.bmp,,,,,0,124,124,124,,,,,,,,,,,,,,,,,,,,,,,,,,,,,,,,,,,,,,,,,,None,,300.45810747995273,None,300.45810747995273,None,2022-02-10-14:06:58.274548,300.46365970000625,300.7799927999731,300.46365970000625,300.46365970000625,None,300.46365970000625,300.46365970000625,301.2776850799448,None,,,,11006,0002,2022_Feb_10_1402,localizer,2021.1.3,59.46858870184262,
block,faces,faces080.bmp,,,,,0,125,125,125,,,,,,,,,,,,,,,,,,,,,,,,,,,,,,,,,,,,,,,,,,None,,301.2776850799448,None,301.2776850799448,None,2022-02-10-14:06:59.097903,301.2907311000163,301.59009249997325,301.2907311000163,None,None,301.2907311000163,None,302.0903081799508,None,,,,11006,0002,2022_Feb_10_1402,localizer,2021.1.3,59.46858870184262,
block,faces,faces023.bmp,,,,,0,126,126,126,,,,,,,,,,,,,,,,,,,,,,,,,,,,,,,,,,,,,,,,,,None,,302.0903081799508,None,302.0903081799508,None,2022-02-10-14:06:59.902769,302.09206940000877,302.4070940000238,302.09206940000877,None,None,302.09206940000877,None,302.90755957992513,None,,,,11006,0002,2022_Feb_10_1402,localizer,2021.1.3,59.46858870184262,
block,faces,faces007.bmp,,,,,0,127,127,127,,,,,,,,,,,,,,,,,,,,,,,,,,,,,,,,,,,,,,,,,,None,,302.90755957992513,None,302.90755957992513,None,2022-02-10-14:07:00.721075,302.9085997999646,303.22417379997205,302.9085997999646,None,None,302.9085997999646,None,303.7241240800242,None,,,,11006,0002,2022_Feb_10_1402,localizer,2021.1.3,59.46858870184262,
block,faces,faces045.bmp,,,,,0,128,128,128,,,,,,,,,,,,,,,,,,,,,,,,,,,,,,,,,,,,,,,,,,None,,303.7241240800242,None,303.7241240800242,None,2022-02-10-14:07:01.538465,303.72576890001073,304.0404742999235,303.72576890001073,None,None,303.72576890001073,None,304.5414464799571,None,,,,11006,0002,2022_Feb_10_1402,localizer,2021.1.3,59.46858870184262,
block,faces,faces033.bmp,,,,,0,129,129,129,,,,,,,,,,,,,,,,,,,,,,,,,,,,,,,,,,,,,,,,,,None,,304.5414464799571,None,304.5414464799571,None,2022-02-10-14:07:02.354944,304.5437857999932,304.8574854999315,304.5437857999932,None,None,304.5437857999932,None,305.35666777995647,None,,,,11006,0002,2022_Feb_10_1402,localizer,2021.1.3,59.46858870184262,
block,faces,faces070.bmp,,,,,0,130,130,130,,,,,,,,,,,,,,,,,,,,,,,,,,,,,,,,,,,,,,,,,,None,,305.35666777995647,None,305.35666777995647,None,2022-02-10-14:07:03.169008,305.3628537999466,305.6735120000085,305.3628537999466,None,None,305.3628537999466,None,306.17490868001477,None,,,,11006,0002,2022_Feb_10_1402,localizer,2021.1.3,59.46858870184262,
block,faces,faces038.bmp,,,,,0,131,131,131,,,,,,,,,,,,,,,,,,,,,,,,,,,,,,,,,,,,,,,,,,None,,306.17490868001477,None,306.17490868001477,None,2022-02-10-14:07:03.989192,306.19987779995427,306.5068238999229,306.19987779995427,None,None,306.19987779995427,None,306.99047377995447,None,,,,11006,0002,2022_Feb_10_1402,localizer,2021.1.3,59.46858870184262,
block,faces,faces012.bmp,,,,,0,132,132,132,,,,,,,,,,,,,,,,,,,,,,,,,,,,,,,,,,,,,,,,,,None,,306.99047377995447,None,306.99047377995447,None,2022-02-10-14:07:04.803018,306.998261300032,307.306880399934,306.998261300032,None,None,306.998261300032,None,307.80714837996055,None,,,,11006,0002,2022_Feb_10_1402,localizer,2021.1.3,59.46858870184262,
block,faces,faces058.bmp,,,,,0,133,133,133,,,,,,,,,,,,,,,,,,,,,,,,,,,,,,,,,,,,,,,,,,None,,307.80714837996055,None,307.80714837996055,None,2022-02-10-14:07:05.619484,307.8183294000337,308.1237740999786,307.8183294000337,None,None,307.8183294000337,None,308.6237754799542,None,,,,11006,0002,2022_Feb_10_1402,localizer,2021.1.3,59.46858870184262,
block,faces,faces057.bmp,,,,,0,134,134,134,,,,,,,,,,,,,,,,,,,,,,,,,,,,,,,,,,,,,,,,,,None,,308.6237754799542,None,308.6237754799542,None,2022-02-10-14:07:06.436111,308.62454939994495,308.9402855000226,308.62454939994495,None,None,308.62454939994495,None,309.44001137999584,None,,,,11006,0002,2022_Feb_10_1402,localizer,2021.1.3,59.46858870184262,
block,faces,faces053.bmp,,,,,0,135,135,135,,,,,,,,,,,,,,,,,,,,,,,,,,,,,,,,,,,,,,,,,,None,,309.44001137999584,None,309.44001137999584,None,2022-02-10-14:07:07.252350,309.4412204999244,309.75695569999516,309.4412204999244,None,None,309.4412204999244,None,310.24063578002387,None,,,,11006,0002,2022_Feb_10_1402,localizer,2021.1.3,59.46858870184262,
block,faces,faces018.bmp,,,,,0,136,136,136,,,,,,,,,,,,,,,,,,,,,,,,,,,,,,,,,,,,,,,,,,None,,310.24063578002387,None,310.24063578002387,None,2022-02-10-14:07:08.054961,310.243601199938,310.55688269995153,310.243601199938,310.243601199938,None,310.243601199938,310.243601199938,311.05742207994916,None,,,,11006,0002,2022_Feb_10_1402,localizer,2021.1.3,59.46858870184262,
block_end,faces,faces064.bmp,,,,,0,137,137,137,,,,,,,,,,,,,,,,,,,,,,,,,,,,,,,,,,,,,,,,,,None,,311.05742207994916,None,311.05742207994916,None,2022-02-10-14:07:08.870746,311.0584933999926,311.3735389999347,311.0584933999926,None,None,311.0584933999926,None,311.8741249799379,None,,,,11006,0002,2022_Feb_10_1402,localizer,2021.1.3,59.46858870184262,
block_start,scenes,scenes023.bmp,,,,,0,138,138,138,,,,,,,,,,,,,,,,,,,,,,,,,,,,,,,,,,,,,,,,,,t,1.7584362000925466,311.8741749000037,None,311.8741749000037,None,2022-02-10-14:07:11.471404,313.67095920001157,313.9739070999203,313.67095920001157,None,None,313.67095920001157,None,314.4736160799977,None,,,,11006,0002,2022_Feb_10_1402,localizer,2021.1.3,59.46858870184262,
block,scenes,scenes020.bmp,,,,,0,139,139,139,,,,,,,,,,,,,,,,,,,,,,,,,,,,,,,,,,,,,,,,,,None,,314.4736160799977,None,314.4736160799977,None,2022-02-10-14:07:12.285895,314.48360879998654,314.79673800000455,314.48360879998654,None,None,314.48360879998654,None,315.2897522799787,None,,,,11006,0002,2022_Feb_10_1402,localizer,2021.1.3,59.46858870184262,
block,scenes,scenes079.bmp,,,,,0,140,140,140,,,,,,,,,,,,,,,,,,,,,,,,,,,,,,,,,,,,,,,,,,None,,315.2897522799787,None,315.2897522799787,None,2022-02-10-14:07:13.102383,315.29871459992137,315.60705019999295,315.29871459992137,None,None,315.29871459992137,None,316.1070860799984,None,,,,11006,0002,2022_Feb_10_1402,localizer,2021.1.3,59.46858870184262,
block,scenes,scenes030.bmp,,,,,0,141,141,141,,,,,,,,,,,,,,,,,,,,,,,,,,,,,,,,,,,,,,,,,,None,,316.1070860799984,None,316.1070860799984,None,2022-02-10-14:07:13.919551,316.1169884999981,316.4242257999722,316.1169884999981,None,None,316.1169884999981,None,316.924120979954,None,,,,11006,0002,2022_Feb_10_1402,localizer,2021.1.3,59.46858870184262,
block,scenes,scenes003.bmp,,,,,0,142,142,142,,,,,,,,,,,,,,,,,,,,,,,,,,,,,,,,,,,,,,,,,,None,,316.924120979954,None,316.924120979954,None,2022-02-10-14:07:14.737475,316.92514329997357,317.2402350999182,316.92514329997357,None,None,316.92514329997357,None,317.74046448000007,None,,,,11006,0002,2022_Feb_10_1402,localizer,2021.1.3,59.46858870184262,
block,scenes,scenes012.bmp,,,,,0,143,143,143,,,,,,,,,,,,,,,,,,,,,,,,,,,,,,,,,,,,,,,,,,None,,317.74046448000007,None,317.74046448000007,None,2022-02-10-14:07:15.552799,317.7412471999414,318.05698410002515,317.7412471999414,None,None,317.7412471999414,None,318.54030067996354,None,,,,11006,0002,2022_Feb_10_1402,localizer,2021.1.3,59.46858870184262,
block,scenes,scenes046.bmp,,,,,0,144,144,144,,,,,,,,,,,,,,,,,,,,,,,,,,,,,,,,,,,,,,,,,,None,,318.54030067996354,None,318.54030067996354,None,2022-02-10-14:07:16.354632,318.541700999951,318.8569672999438,318.541700999951,318.541700999951,None,318.541700999951,318.541700999951,319.3409194799489,None,,,,11006,0002,2022_Feb_10_1402,localizer,2021.1.3,59.46858870184262,
block,scenes,scenes081.bmp,,,,,0,145,145,145,,,,,,,,,,,,,,,,,,,,,,,,,,,,,,,,,,,,,,,,,,None,,319.3409194799489,None,319.3409194799489,None,2022-02-10-14:07:17.156418,319.35483419999946,319.65736599999946,319.35483419999946,319.35483419999946,None,319.35483419999946,319.35483419999946,320.1575477799517,None,,,,11006,0002,2022_Feb_10_1402,localizer,2021.1.3,59.46858870184262,
block,scenes,scenes033.bmp,,,,,0,146,146,146,,,,,,,,,,,,,,,,,,,,,,,,,,,,,,,,,,,,,,,,,,None,,320.1575477799517,None,320.1575477799517,None,2022-02-10-14:07:17.969906,320.1583730999846,320.47364829992875,320.1583730999846,None,None,320.1583730999846,None,320.9738438799861,None,,,,11006,0002,2022_Feb_10_1402,localizer,2021.1.3,59.46858870184262,
block,scenes,scenes041.bmp,,,,,0,147,147,147,,,,,,,,,,,,,,,,,,,,,,,,,,,,,,,,,,,,,,,,,,None,,320.9738438799861,None,320.9738438799861,None,2022-02-10-14:07:18.786162,320.9834707999835,321.2905584999826,320.9834707999835,None,None,320.9834707999835,None,321.7904663799447,None,,,,11006,0002,2022_Feb_10_1402,localizer,2021.1.3,59.46858870184262,
block,scenes,scenes056.bmp,,,,,0,148,148,148,,,,,,,,,,,,,,,,,,,,,,,,,,,,,,,,,,,,,,,,,,None,,321.7904663799447,None,321.7904663799447,None,2022-02-10-14:07:19.602800,321.79134919994976,322.1070860000327,321.79134919994976,None,None,321.79134919994976,None,322.5906260799267,None,,,,11006,0002,2022_Feb_10_1402,localizer,2021.1.3,59.46858870184262,
block,scenes,scenes014.bmp,,,,,0,149,149,149,,,,,,,,,,,,,,,,,,,,,,,,,,,,,,,,,,,,,,,,,,None,,322.5906260799267,None,322.5906260799267,None,2022-02-10-14:07:20.405164,322.60255299997516,322.9073140999535,322.60255299997516,322.60255299997516,None,322.60255299997516,322.60255299997516,323.40702807995257,None,,,,11006,0002,2022_Feb_10_1402,localizer,2021.1.3,59.46858870184262,
block,scenes,scenes048.bmp,,,,,0,150,150,150,,,,,,,,,,,,,,,,,,,,,,,,,,,,,,,,,,,,,,,,,,None,,323.40702807995257,None,323.40702807995257,None,2022-02-10-14:07:21.219493,323.40812739997637,323.7236352999462,323.40812739997637,None,None,323.40812739997637,None,324.2239002799499,None,,,,11006,0002,2022_Feb_10_1402,localizer,2021.1.3,59.46858870184262,
block,scenes,scenes073.bmp,,,,,0,151,151,151,,,,,,,,,,,,,,,,,,,,,,,,,,,,,,,,,,,,,,,,,,None,,324.2239002799499,None,324.2239002799499,None,2022-02-10-14:07:22.036232,324.225337699987,324.5404292999301,324.225337699987,None,None,324.225337699987,None,325.02486297999275,None,,,,11006,0002,2022_Feb_10_1402,localizer,2021.1.3,59.46858870184262,
block_end,scenes,scenes075.bmp,,,,,0,152,152,152,,,,,,,,,,,,,,,,,,,,,,,,,,,,,,,,,,,,,,,,,,None,,325.02486297999275,None,325.02486297999275,None,2022-02-10-14:07:22.840354,325.0404067999916,325.34011679992545,325.0404067999916,325.0404067999916,None,325.0404067999916,325.0404067999916,325.84083197998115,None,,,,11006,0002,2022_Feb_10_1402,localizer,2021.1.3,59.46858870184262,
block_start,scrambled,scrambled008.bmp,,,,,0,153,153,153,,,,,,,,,,,,,,,,,,,,,,,,,,,,,,,,,,,,,,,,,,t,1.7920053999405354,325.84081309998874,None,325.84081309998874,None,2022-02-10-14:07:25.481389,327.66939579998143,327.97353580000345,327.66939579998143,None,None,327.66939579998143,None,328.4740667799371,None,,,,11006,0002,2022_Feb_10_1402,localizer,2021.1.3,59.46858870184262,
block,scrambled,scrambled056.bmp,,,,,0,154,154,154,,,,,,,,,,,,,,,,,,,,,,,,,,,,,,,,,,,,,,,,,,None,,328.4740667799371,None,328.4740667799371,None,2022-02-10-14:07:26.286590,328.4747935999185,328.7741538999835,328.4747935999185,None,None,328.4747935999185,None,329.2742102800286,None,,,,11006,0002,2022_Feb_10_1402,localizer,2021.1.3,59.46858870184262,
block,scrambled,scrambled036.bmp,,,,,0,155,155,155,,,,,,,,,,,,,,,,,,,,,,,,,,,,,,,,,,,,,,,,,,None,,329.2742102800286,None,329.2742102800286,None,2022-02-10-14:07:27.089530,329.2770948000252,329.59091779997107,329.2770948000252,329.2770948000252,None,329.2770948000252,329.2770948000252,330.09089457999215,None,,,,11006,0002,2022_Feb_10_1402,localizer,2021.1.3,59.46858870184262,
block,scrambled,scrambled068.bmp,,,,,0,156,156,156,,,,,,,,,,,,,,,,,,,,,,,,,,,,,,,,,,,,,,,,,,None,,330.09089457999215,None,330.09089457999215,None,2022-02-10-14:07:27.904422,330.09166499995627,330.39090330002364,330.09166499995627,None,None,330.09166499995627,None,330.907127880014,None,,,,11006,0002,2022_Feb_10_1402,localizer,2021.1.3,59.46858870184262,
block,scrambled,scrambled034.bmp,,,,,0,157,157,157,,,,,,,,,,,,,,,,,,,,,,,,,,,,,,,,,,,,,,,,,,None,,330.907127880014,None,330.907127880014,None,2022-02-10-14:07:28.719466,330.9077972000232,331.20711259997915,330.9077972000232,None,None,330.9077972000232,None,331.7073396799271,None,,,,11006,0002,2022_Feb_10_1402,localizer,2021.1.3,59.46858870184262,
block,scrambled,scrambled027.bmp,,,,,0,158,158,158,,,,,,,,,,,,,,,,,,,,,,,,,,,,,,,,,,,,,,,,,,None,,331.7073396799271,None,331.7073396799271,None,2022-02-10-14:07:29.521653,331.7087429999374,332.02383820002433,331.7087429999374,331.7087429999374,None,331.7087429999374,331.7087429999374,332.5240371799911,None,,,,11006,0002,2022_Feb_10_1402,localizer,2021.1.3,59.46858870184262,
block,scrambled,scrambled052.bmp,,,,,0,159,159,159,,,,,,,,,,,,,,,,,,,,,,,,,,,,,,,,,,,,,,,,,,None,,332.5240371799911,None,332.5240371799911,None,2022-02-10-14:07:30.336549,332.5350790999364,332.84410410001874,332.5350790999364,None,None,332.5350790999364,None,333.34012567995813,None,,,,11006,0002,2022_Feb_10_1402,localizer,2021.1.3,59.46858870184262,
block,scrambled,scrambled083.bmp,,,,,0,160,160,160,,,,,,,,,,,,,,,,,,,,,,,,,,,,,,,,,,,,,,,,,,None,,333.34012567995813,None,333.34012567995813,None,2022-02-10-14:07:31.152469,333.34148780000396,333.65713780000806,333.34148780000396,None,None,333.34148780000396,None,334.1407403800287,None,,,,11006,0002,2022_Feb_10_1402,localizer,2021.1.3,59.46858870184262,
block,scrambled,scrambled084.bmp,,,,,0,161,161,161,,,,,,,,,,,,,,,,,,,,,,,,,,,,,,,,,,,,,,,,,,None,,334.1407403800287,None,334.1407403800287,None,2022-02-10-14:07:31.955204,334.14267660002224,334.45670719991904,334.14267660002224,334.14267660002224,None,334.14267660002224,334.14267660002224,334.95714657997013,None,,,,11006,0002,2022_Feb_10_1402,localizer,2021.1.3,59.46858870184262,
block,scrambled,scrambled054.bmp,,,,,0,162,162,162,,,,,,,,,,,,,,,,,,,,,,,,,,,,,,,,,,,,,,,,,,None,,334.95714657997013,None,334.95714657997013,None,2022-02-10-14:07:32.769894,334.95808569993824,335.2569928999292,334.95808569993824,None,None,334.95808569993824,None,335.7571829799446,None,,,,11006,0002,2022_Feb_10_1402,localizer,2021.1.3,59.46858870184262,
block,scrambled,scrambled060.bmp,,,,,0,163,163,163,,,,,,,,,,,,,,,,,,,,,,,,,,,,,,,,,,,,,,,,,,None,,335.7571829799446,None,335.7571829799446,None,2022-02-10-14:07:33.571515,335.76832829997875,336.07380569993984,335.76832829997875,335.76832829997875,None,335.76832829997875,335.76832829997875,336.5740562799503,None,,,,11006,0002,2022_Feb_10_1402,localizer,2021.1.3,59.46858870184262,
block,scrambled,scrambled081.bmp,,,,,0,164,164,164,,,,,,,,,,,,,,,,,,,,,,,,,,,,,,,,,,,,,,,,,,None,,336.5740562799503,None,336.5740562799503,None,2022-02-10-14:07:34.387546,336.57485839992296,336.8904652999481,336.57485839992296,None,None,336.57485839992296,None,337.37391607997705,None,,,,11006,0002,2022_Feb_10_1402,localizer,2021.1.3,59.46858870184262,
block,scrambled,scrambled024.bmp,,,,,0,165,165,165,,,,,,,,,,,,,,,,,,,,,,,,,,,,,,,,,,,,,,,,,,None,,337.37391607997705,None,337.37391607997705,None,2022-02-10-14:07:35.188246,337.38597319996916,337.6911606999347,337.38597319996916,337.38597319996916,None,337.38597319996916,337.38597319996916,338.1907505799201,None,,,,11006,0002,2022_Feb_10_1402,localizer,2021.1.3,59.46858870184262,
block,scrambled,scrambled075.bmp,,,,,0,166,166,166,,,,,,,,,,,,,,,,,,,,,,,,,,,,,,,,,,,,,,,,,,None,,338.1907505799201,None,338.1907505799201,None,2022-02-10-14:07:36.004077,338.19151809997857,338.5070488000056,338.19151809997857,None,None,338.19151809997857,None,338.990769979998,None,,,,11006,0002,2022_Feb_10_1402,localizer,2021.1.3,59.46858870184262,
block_end,scrambled,scrambled066.bmp,,,,,0,167,167,167,,,,,,,,,,,,,,,,,,,,,,,,,,,,,,,,,,,,,,,,,,None,,338.990769979998,None,338.990769979998,None,2022-02-10-14:07:36.805305,338.99354669998866,339.3073350000195,338.99354669998866,338.99354669998866,None,338.99354669998866,338.99354669998866,339.8074361799401,None,,,,11006,0002,2022_Feb_10_1402,localizer,2021.1.3,59.46858870184262,
block_start,objects,objects065.bmp,,,,,0,168,168,168,,,,,,,,,,,,,,,,,,,,,,,,,,,,,,,,,,,,,,,,,,t,1.8241083999164402,339.80740739998873,None,339.80740739998873,None,2022-02-10-14:07:39.471197,341.6589305999223,341.9741110999603,341.6589305999223,None,None,341.6589305999223,None,342.4744305800297,None,,,,11006,0002,2022_Feb_10_1402,localizer,2021.1.3,59.46858870184262,
block,objects,objects030.bmp,,,,,0,169,169,169,,,,,,,,,,,,,,,,,,,,,,,,,,,,,,,,,,,,,,,,,,None,,342.4744305800297,None,342.4744305800297,None,2022-02-10-14:07:40.287755,342.4750908999704,342.7743848999962,342.4750908999704,None,None,342.4750908999704,None,343.27493387995054,None,,,,11006,0002,2022_Feb_10_1402,localizer,2021.1.3,59.46858870184262,
block,objects,objects025.bmp,,,,,0,170,170,170,,,,,,,,,,,,,,,,,,,,,,,,,,,,,,,,,,,,,,,,,,None,,343.27493387995054,None,343.27493387995054,None,2022-02-10-14:07:41.091425,343.2804219999816,343.590500399936,343.2804219999816,343.2804219999816,None,343.2804219999816,343.2804219999816,344.09088007999816,None,,,,11006,0002,2022_Feb_10_1402,localizer,2021.1.3,59.46858870184262,
block,objects,objects040.bmp,,,,,0,171,171,171,,,,,,,,,,,,,,,,,,,,,,,,,,,,,,,,,,,,,,,,,,None,,344.09088007999816,None,344.09088007999816,None,2022-02-10-14:07:41.903418,344.09141869994346,344.3901534000179,344.09141869994346,None,None,344.09141869994346,None,344.8907584799337,None,,,,11006,0002,2022_Feb_10_1402,localizer,2021.1.3,59.46858870184262,
block,objects,objects008.bmp,,,,,0,172,172,172,,,,,,,,,,,,,,,,,,,,,,,,,,,,,,,,,,,,,,,,,,None,,344.8907584799337,None,344.8907584799337,None,2022-02-10-14:07:42.705298,344.8936628999654,345.2073445999995,344.8936628999654,344.8936628999654,None,344.8936628999654,344.8936628999654,345.7075111799524,None,,,,11006,0002,2022_Feb_10_1402,localizer,2021.1.3,59.46858870184262,
block,objects,objects007.bmp,,,,,0,173,173,173,,,,,,,,,,,,,,,,,,,,,,,,,,,,,,,,,,,,,,,,,,None,,345.7075111799524,None,345.7075111799524,None,2022-02-10-14:07:43.519844,345.7082599999849,346.02393309993204,345.7082599999849,None,None,345.7082599999849,None,346.52395587995414,None,,,,11006,0002,2022_Feb_10_1402,localizer,2021.1.3,59.46858870184262,
block,objects,objects071.bmp,,,,,0,174,174,174,,,,,,,,,,,,,,,,,,,,,,,,,,,,,,,,,,,,,,,,,,None,,346.52395587995414,None,346.52395587995414,None,2022-02-10-14:07:44.336292,346.5248570999829,346.82502280001063,346.5248570999829,None,None,346.5248570999829,None,347.32852828000904,None,,,,11006,0002,2022_Feb_10_1402,localizer,2021.1.3,59.46858870184262,
block,objects,objects029.bmp,,,,,0,175,175,175,,,,,,,,,,,,,,,,,,,,,,,,,,,,,,,,,,,,,,,,,,None,,347.32852828000904,None,347.32852828000904,None,2022-02-10-14:07:45.144888,347.33181380003225,347.646648599999,347.33181380003225,347.33181380003225,None,347.33181380003225,347.33181380003225,348.1403553800075,None,,,,11006,0002,2022_Feb_10_1402,localizer,2021.1.3,59.46858870184262,
block,objects,objects005.bmp,,,,,0,176,176,176,,,,,,,,,,,,,,,,,,,,,,,,,,,,,,,,,,,,,,,,,,None,,348.1403553800075,None,348.1403553800075,None,2022-02-10-14:07:45.952696,348.14149159996305,348.45691629999783,348.14149159996305,None,None,348.14149159996305,None,348.9417692799936,None,,,,11006,0002,2022_Feb_10_1402,localizer,2021.1.3,59.46858870184262,
block,objects,objects005.bmp,,,,,0,177,177,177,,,,,,,,,,,,,,,,,,,,,,,,,,,,,,,,,,,,,,,,,,None,,348.9417692799936,None,348.9417692799936,None,2022-02-10-14:07:46.758075,348.9459626999451,349.2566939999815,348.9459626999451,348.9459626999451,y,348.9459626999451,348.9459626999451,349.75708408000645,None,0.5185215000528842,,,11006,0002,2022_Feb_10_1402,localizer,2021.1.3,59.46858870184262,
block,objects,objects047.bmp,,,,,0,178,178,178,,,,,,,,,,,,,,,,,,,,,,,,,,,,,,,,,,,,,,,,,,None,,349.75708408000645,None,349.75708408000645,None,2022-02-10-14:07:47.569643,349.7583189000143,350.07303630001843,349.7583189000143,None,None,349.7583189000143,None,350.55787538002477,None,,,,11006,0002,2022_Feb_10_1402,localizer,2021.1.3,59.46858870184262,
block,objects,objects045.bmp,,,,,0,179,179,179,,,,,,,,,,,,,,,,,,,,,,,,,,,,,,,,,,,,,,,,,,None,,350.55787538002477,None,350.55787538002477,None,2022-02-10-14:07:48.373137,350.560681700008,350.8737165000057,350.560681700008,350.560681700008,None,350.560681700008,350.560681700008,351.3750744799501,None,,,,11006,0002,2022_Feb_10_1402,localizer,2021.1.3,59.46858870184262,
block,objects,objects050.bmp,,,,,0,180,180,180,,,,,,,,,,,,,,,,,,,,,,,,,,,,,,,,,,,,,,,,,,None,,351.3750744799501,None,351.3750744799501,None,2022-02-10-14:07:49.189389,351.37824410002213,351.69084289995953,351.37824410002213,None,None,351.37824410002213,None,352.1908492799732,None,,,,11006,0002,2022_Feb_10_1402,localizer,2021.1.3,59.46858870184262,
block,objects,objects044.bmp,,,,,0,181,181,181,,,,,,,,,,,,,,,,,,,,,,,,,,,,,,,,,,,,,,,,,,None,,352.1908492799732,None,352.1908492799732,None,2022-02-10-14:07:50.003182,352.20091020001564,352.5074246999575,352.20091020001564,None,None,352.20091020001564,None,353.00734328000107,None,,,,11006,0002,2022_Feb_10_1402,localizer,2021.1.3,59.46858870184262,
block_end,objects,objects036.bmp,,,,,0,182,182,182,,,,,,,,,,,,,,,,,,,,,,,,,,,,,,,,,,,,,,,,,,None,,353.00734328000107,None,353.00734328000107,None,2022-02-10-14:07:50.819678,353.0169635999482,353.3241515000118,353.0169635999482,None,None,353.0169635999482,None,353.825099679979,None,,,,11006,0002,2022_Feb_10_1402,localizer,2021.1.3,59.46858870184262,
null_block,null_block,null_block.bmp,,,,,0,183,183,183,,,,,,,,,,,,,,,,,,,,,,,,,,,,,,,,,,,,,,,,,,t,1.8077421999769285,353.8238706999691,None,353.8238706999691,None,2022-02-10-14:07:53.467705,355.6570592799573,None,355.6570592799573,None,None,355.6570592799573,None,355.65867019991856,None,,,,11006,0002,2022_Feb_10_1402,localizer,2021.1.3,59.46858870184262,
block_start,scenes,scenes003.bmp,,,,,0,184,184,184,,,,,,,,,,,,,,,,,,,,,,,,,,,,,,,,,,,,,,,,,,t,1.973961599986069,367.6576305999188,None,367.6576305999188,None,2022-02-10-14:08:07.470236,369.65828889992554,369.9574808999896,369.65828889992554,None,None,369.65828889992554,None,370.45791317998663,None,,,,11006,0002,2022_Feb_10_1402,localizer,2021.1.3,59.46858870184262,
block,scenes,scenes018.bmp,,,,,0,185,185,185,,,,,,,,,,,,,,,,,,,,,,,,,,,,,,,,,,,,,,,,,,None,,370.45791317998663,None,370.45791317998663,None,2022-02-10-14:08:08.273231,370.4607612999389,370.77464099996723,370.4607612999389,370.4607612999389,None,370.4607612999389,370.4607612999389,371.2745741800056,None,,,,11006,0002,2022_Feb_10_1402,localizer,2021.1.3,59.46858870184262,
block,scenes,scenes025.bmp,,,,,0,186,186,186,,,,,,,,,,,,,,,,,,,,,,,,,,,,,,,,,,,,,,,,,,None,,371.2745741800056,None,371.2745741800056,None,2022-02-10-14:08:09.088047,371.29134899994824,371.59082259994466,371.29134899994824,None,None,371.29134899994824,None,372.09141778001793,None,,,,11006,0002,2022_Feb_10_1402,localizer,2021.1.3,59.46858870184262,
block,scenes,scenes008.bmp,,,,,0,187,187,187,,,,,,,,,,,,,,,,,,,,,,,,,,,,,,,,,,,,,,,,,,None,,372.09141778001793,None,372.09141778001793,None,2022-02-10-14:08:09.904933,372.09218069992494,372.3912952999817,372.09218069992494,None,None,372.09218069992494,None,372.89329318002564,None,,,,11006,0002,2022_Feb_10_1402,localizer,2021.1.3,59.46858870184262,
block,scenes,scenes015.bmp,,,,,0,188,188,188,,,,,,,,,,,,,,,,,,,,,,,,,,,,,,,,,,,,,,,,,,None,,372.89329318002564,None,372.89329318002564,None,2022-02-10-14:08:10.709698,372.8979477999965,373.20783420000225,372.8979477999965,372.8979477999965,None,372.8979477999965,372.8979477999965,373.70796077999984,None,,,,11006,0002,2022_Feb_10_1402,localizer,2021.1.3,59.46858870184262,
block,scenes,scenes089.bmp,,,,,0,189,189,189,,,,,,,,,,,,,,,,,,,,,,,,,,,,,,,,,,,,,,,,,,None,,373.70796077999984,None,373.70796077999984,None,2022-02-10-14:08:11.521326,373.71886519994587,374.0241902000271,373.71886519994587,None,None,373.71886519994587,None,374.5236799799488,None,,,,11006,0002,2022_Feb_10_1402,localizer,2021.1.3,59.46858870184262,
block,scenes,scenes087.bmp,,,,,0,190,190,190,,,,,,,,,,,,,,,,,,,,,,,,,,,,,,,,,,,,,,,,,,None,,374.5236799799488,None,374.5236799799488,None,2022-02-10-14:08:12.336270,374.5247903999407,374.84043939993717,374.5247903999407,None,None,374.5247903999407,None,375.3241264800192,None,,,,11006,0002,2022_Feb_10_1402,localizer,2021.1.3,59.46858870184262,
block,scenes,scenes052.bmp,,,,,0,191,191,191,,,,,,,,,,,,,,,,,,,,,,,,,,,,,,,,,,,,,,,,,,None,,375.3241264800192,None,375.3241264800192,None,2022-02-10-14:08:13.138669,375.336460600025,375.64082329999655,375.336460600025,375.336460600025,None,375.336460600025,375.336460600025,376.1407594799413,None,,,,11006,0002,2022_Feb_10_1402,localizer,2021.1.3,59.46858870184262,
block,scenes,scenes073.bmp,,,,,0,192,192,192,,,,,,,,,,,,,,,,,,,,,,,,,,,,,,,,,,,,,,,,,,None,,376.1407594799413,None,376.1407594799413,None,2022-02-10-14:08:13.953281,376.1432863000082,376.4574577999301,376.1432863000082,None,None,376.1432863000082,None,376.95757077994057,None,,,,11006,0002,2022_Feb_10_1402,localizer,2021.1.3,59.46858870184262,
block,scenes,scenes012.bmp,,,,,0,193,193,193,,,,,,,,,,,,,,,,,,,,,,,,,,,,,,,,,,,,,,,,,,None,,376.95757077994057,None,376.95757077994057,None,2022-02-10-14:08:14.770108,376.95884710003156,377.27407879999373,376.95884710003156,None,None,376.95884710003156,None,377.7744056800031,None,,,,11006,0002,2022_Feb_10_1402,localizer,2021.1.3,59.46858870184262,
block,scenes,scenes081.bmp,,,,,0,194,194,194,,,,,,,,,,,,,,,,,,,,,,,,,,,,,,,,,,,,,,,,,,None,,377.7744056800031,None,377.7744056800031,None,2022-02-10-14:08:15.586866,377.7750174999237,378.0742614000337,377.7750174999237,None,None,377.7750174999237,None,378.57537277996306,None,,,,11006,0002,2022_Feb_10_1402,localizer,2021.1.3,59.46858870184262,
block,scenes,scenes024.bmp,,,,,0,195,195,195,,,,,,,,,,,,,,,,,,,,,,,,,,,,,,,,,,,,,,,,,,None,,378.57537277996306,None,378.57537277996306,None,2022-02-10-14:08:16.390875,378.5913885999471,378.8908893999178,378.5913885999471,378.5913885999471,None,378.5913885999471,378.5913885999471,379.391240479995,None,,,,11006,0002,2022_Feb_10_1402,localizer,2021.1.3,59.46858870184262,
block,scenes,scenes009.bmp,,,,,0,196,196,196,,,,,,,,,,,,,,,,,,,,,,,,,,,,,,,,,,,,,,,,,,None,,379.391240479995,None,379.391240479995,None,2022-02-10-14:08:17.204412,379.39221399999224,379.7074069000082,379.39221399999224,None,None,379.39221399999224,None,380.20762468000174,None,,,,11006,0002,2022_Feb_10_1402,localizer,2021.1.3,59.46858870184262,
block,scenes,scenes026.bmp,,,,,0,197,197,197,,,,,,,,,,,,,,,,,,,,,,,,,,,,,,,,,,,,,,,,,,None,,380.20762468000174,None,380.20762468000174,None,2022-02-10-14:08:18.020174,380.2205349999713,380.52458379999734,380.2205349999713,None,None,380.2205349999713,None,381.0243347799289,None,,,,11006,0002,2022_Feb_10_1402,localizer,2021.1.3,59.46858870184262,
block_end,scenes,scenes065.bmp,,,,,0,198,198,198,,,,,,,,,,,,,,,,,,,,,,,,,,,,,,,,,,,,,,,,,,None,,381.0243347799289,None,381.0243347799289,None,2022-02-10-14:08:18.836670,381.03402369993273,381.34111259994097,381.03402369993273,None,None,381.03402369993273,None,381.8410445799702,None,,,,11006,0002,2022_Feb_10_1402,localizer,2021.1.3,59.46858870184262,
block_start,scrambled,scrambled023.bmp,,,,,0,199,199,199,,,,,,,,,,,,,,,,,,,,,,,,,,,,,,,,,,,,,,,,,,t,1.7905507000396028,381.8410803999286,None,381.8410803999286,None,2022-02-10-14:08:21.468663,383.65853359992616,383.9577283000108,383.65853359992616,None,None,383.65853359992616,None,384.4738437799853,None,,,,11006,0002,2022_Feb_10_1402,localizer,2021.1.3,59.46858870184262,
block,scrambled,scrambled082.bmp,,,,,0,200,200,200,,,,,,,,,,,,,,,,,,,,,,,,,,,,,,,,,,,,,,,,,,None,,384.4738437799853,None,384.4738437799853,None,2022-02-10-14:08:22.286183,384.48213739995845,384.79066569998395,384.48213739995845,None,None,384.48213739995845,None,385.29084268001606,None,,,,11006,0002,2022_Feb_10_1402,localizer,2021.1.3,59.46858870184262,
block,scrambled,scrambled049.bmp,,,,,0,201,201,201,,,,,,,,,,,,,,,,,,,,,,,,,,,,,,,,,,,,,,,,,,None,,385.29084268001606,None,385.29084268001606,None,2022-02-10-14:08:23.103283,385.30060439999215,385.607635900029,385.30060439999215,None,None,385.30060439999215,None,386.1077610800159,None,,,,11006,0002,2022_Feb_10_1402,localizer,2021.1.3,59.46858870184262,
block,scrambled,scrambled075.bmp,,,,,0,202,202,202,,,,,,,,,,,,,,,,,,,,,,,,,,,,,,,,,,,,,,,,,,None,,386.1077610800159,None,386.1077610800159,None,2022-02-10-14:08:23.920093,386.10845790000167,386.42387659999076,386.10845790000167,None,None,386.10845790000167,None,386.9077733799233,None,,,,11006,0002,2022_Feb_10_1402,localizer,2021.1.3,59.46858870184262,
block,scrambled,scrambled004.bmp,,,,,0,203,203,203,,,,,,,,,,,,,,,,,,,,,,,,,,,,,,,,,,,,,,,,,,None,,386.9077733799233,None,386.9077733799233,None,2022-02-10-14:08:24.722334,386.90977649996057,387.2243789000204,386.90977649996057,386.90977649996057,None,386.90977649996057,386.90977649996057,387.7301738799899,None,,,,11006,0002,2022_Feb_10_1402,localizer,2021.1.3,59.46858870184262,
block,scrambled,scrambled048.bmp,,,,,0,204,204,204,,,,,,,,,,,,,,,,,,,,,,,,,,,,,,,,,,,,,,,,,,None,,387.7301738799899,None,387.7301738799899,None,2022-02-10-14:08:25.550425,387.7466952999821,388.0575308999978,387.7466952999821,None,None,387.7466952999821,None,388.5411620800034,None,,,,11006,0002,2022_Feb_10_1402,localizer,2021.1.3,59.46858870184262,
block,scrambled,scrambled070.bmp,,,,,0,205,205,205,,,,,,,,,,,,,,,,,,,,,,,,,,,,,,,,,,,,,,,,,,None,,388.5411620800034,None,388.5411620800034,None,2022-02-10-14:08:26.353593,388.5419363999972,388.8412150000222,388.5419363999972,None,None,388.5419363999972,None,389.34097757992566,None,,,,11006,0002,2022_Feb_10_1402,localizer,2021.1.3,59.46858870184262,
block,scrambled,scrambled067.bmp,,,,,0,206,206,206,,,,,,,,,,,,,,,,,,,,,,,,,,,,,,,,,,,,,,,,,,None,,389.34097757992566,None,389.34097757992566,None,2022-02-10-14:08:27.155307,389.3423567999853,389.6580318999477,389.3423567999853,389.3423567999853,None,389.3423567999853,389.3423567999853,390.15787778001976,None,,,,11006,0002,2022_Feb_10_1402,localizer,2021.1.3,59.46858870184262,
block,scrambled,scrambled036.bmp,,,,,0,207,207,207,,,,,,,,,,,,,,,,,,,,,,,,,,,,,,,,,,,,,,,,,,None,,390.15787778001976,None,390.15787778001976,None,2022-02-10-14:08:27.970321,390.1585810999386,390.47420669998974,390.1585810999386,None,None,390.1585810999386,None,390.95788387999636,None,,,,11006,0002,2022_Feb_10_1402,localizer,2021.1.3,59.46858870184262,
block,scrambled,scrambled036.bmp,,,,,0,208,208,208,,,,,,,,,,,,,,,,,,,,,,,,,,,,,,,,,,,,,,,,,,None,,390.95788387999636,None,390.95788387999636,None,2022-02-10-14:08:28.772210,390.960648200009,391.27473669999745,390.960648200009,390.960648200009,None,390.960648200009,390.960648200009,391.77405957992886,None,,,,11006,0002,2022_Feb_10_1402,localizer,2021.1.3,59.46858870184262,
block,scrambled,scrambled079.bmp,,,,,0,209,209,209,,,,,,,,,,,,,,,,,,,,,,,,,,,,,,,,,,,,,,,,,,None,,391.77405957992886,None,391.77405957992886,None,2022-02-10-14:08:29.586404,391.7819161999505,392.09083609993104,391.7819161999505,None,None,391.7819161999505,None,392.59117937994887,None,,,,11006,0002,2022_Feb_10_1402,localizer,2021.1.3,59.46858870184262,
block,scrambled,scrambled034.bmp,,,,,0,210,210,210,,,,,,,,,,,,,,,,,,,,,,,,,,,,,,,,,,,,,,,,,,None,,392.59117937994887,None,392.59117937994887,None,2022-02-10-14:08:30.403702,392.59180789999664,392.9076295000268,392.59180789999664,None,None,392.59180789999664,None,393.39135068001923,None,,,,11006,0002,2022_Feb_10_1402,localizer,2021.1.3,59.46858870184262,
block,scrambled,scrambled043.bmp,,,,,0,211,211,211,,,,,,,,,,,,,,,,,,,,,,,,,,,,,,,,,,,,,,,,,,None,,393.39135068001923,None,393.39135068001923,None,2022-02-10-14:08:31.207861,393.39570340001956,393.70735819998663,393.39570340001956,393.39570340001956,None,393.39570340001956,393.39570340001956,394.20772477994905,None,,,,11006,0002,2022_Feb_10_1402,localizer,2021.1.3,59.46858870184262,
block,scrambled,scrambled064.bmp,,,,,0,212,212,212,,,,,,,,,,,,,,,,,,,,,,,,,,,,,,,,,,,,,,,,,,None,,394.20772477994905,None,394.20772477994905,None,2022-02-10-14:08:32.020260,394.20849400002044,394.5077306999592,394.20849400002044,None,None,394.20849400002044,None,395.0076104799402,None,,,,11006,0002,2022_Feb_10_1402,localizer,2021.1.3,59.46858870184262,
block_end,scrambled,scrambled021.bmp,,,,,0,213,213,213,,,,,,,,,,,,,,,,,,,,,,,,,,,,,,,,,,,,,,,,,,None,,395.0076104799402,None,395.0076104799402,None,2022-02-10-14:08:32.821943,395.00890289992094,395.32379789999686,395.00890289992094,395.00890289992094,None,395.00890289992094,395.00890289992094,395.8079104799428,None,,,,11006,0002,2022_Feb_10_1402,localizer,2021.1.3,59.46858870184262,
block_start,faces,faces048.bmp,,,,,0,214,214,214,,,,,,,,,,,,,,,,,,,,,,,,,,,,,,,,,,,,,,,,,,t,1.8235386000014842,395.8080959999934,None,395.8080959999934,None,2022-02-10-14:08:35.468928,397.65860710002016,397.9742657999741,397.65860710002016,None,None,397.65860710002016,None,398.45870817998656,None,,,,11006,0002,2022_Feb_10_1402,localizer,2021.1.3,59.46858870184262,
block,faces,faces014.bmp,,,,,0,215,215,215,,,,,,,,,,,,,,,,,,,,,,,,,,,,,,,,,,,,,,,,,,None,,398.45870817998656,None,398.45870817998656,None,2022-02-10-14:08:36.273025,398.45947479992174,398.77354760002345,398.45947479992174,398.45947479992174,None,398.45947479992174,398.45947479992174,399.2743914800114,None,,,,11006,0002,2022_Feb_10_1402,localizer,2021.1.3,59.46858870184262,
block,faces,faces082.bmp,,,,,0,216,216,216,,,,,,,,,,,,,,,,,,,,,,,,,,,,,,,,,,,,,,,,,,None,,399.2743914800114,None,399.2743914800114,None,2022-02-10-14:08:37.086741,399.275303500006,399.5910755000077,399.275303500006,None,None,399.275303500006,None,400.07451537995365,None,,,,11006,0002,2022_Feb_10_1402,localizer,2021.1.3,59.46858870184262,
block,faces,faces062.bmp,,,,,0,217,217,217,,,,,,,,,,,,,,,,,,,,,,,,,,,,,,,,,,,,,,,,,,None,,400.07451537995365,None,400.07451537995365,None,2022-02-10-14:08:37.889022,400.07641179999337,400.39144609996583,400.07641179999337,400.07641179999337,None,400.07641179999337,400.07641179999337,400.89083577994023,None,,,,11006,0002,2022_Feb_10_1402,localizer,2021.1.3,59.46858870184262,
block,faces,faces083.bmp,,,,,0,218,218,218,,,,,,,,,,,,,,,,,,,,,,,,,,,,,,,,,,,,,,,,,,None,,400.89083577994023,None,400.89083577994023,None,2022-02-10-14:08:38.703172,400.9002216999652,401.20801219996065,400.9002216999652,None,None,400.9002216999652,None,401.7075658800197,None,,,,11006,0002,2022_Feb_10_1402,localizer,2021.1.3,59.46858870184262,
block,faces,faces047.bmp,,,,,0,219,219,219,,,,,,,,,,,,,,,,,,,,,,,,,,,,,,,,,,,,,,,,,,None,,401.7075658800197,None,401.7075658800197,None,2022-02-10-14:08:39.519164,401.72117229993455,402.0240842999192,401.72117229993455,None,None,401.72117229993455,None,402.52469638000474,None,,,,11006,0002,2022_Feb_10_1402,localizer,2021.1.3,59.46858870184262,
block,faces,faces085.bmp,,,,,0,220,220,220,,,,,,,,,,,,,,,,,,,,,,,,,,,,,,,,,,,,,,,,,,None,,402.52469638000474,None,402.52469638000474,None,2022-02-10-14:08:40.337028,402.5257006000029,402.84082759998273,402.5257006000029,None,None,402.5257006000029,None,403.3408224800252,None,,,,11006,0002,2022_Feb_10_1402,localizer,2021.1.3,59.46858870184262,
block,faces,faces068.bmp,,,,,0,221,221,221,,,,,,,,,,,,,,,,,,,,,,,,,,,,,,,,,,,,,,,,,,None,,403.3408224800252,None,403.3408224800252,None,2022-02-10-14:08:41.153161,403.3533855000278,403.6575842000311,403.3533855000278,None,None,403.3533855000278,None,404.15890617993426,None,,,,11006,0002,2022_Feb_10_1402,localizer,2021.1.3,59.46858870184262,
block,faces,faces051.bmp,,,,,0,222,222,222,,,,,,,,,,,,,,,,,,,,,,,,,,,,,,,,,,,,,,,,,,None,,404.15890617993426,None,404.15890617993426,None,2022-02-10-14:08:41.973211,404.1613770999247,404.4733922999585,404.1613770999247,None,None,404.1613770999247,None,404.9749206799199,None,,,,11006,0002,2022_Feb_10_1402,localizer,2021.1.3,59.46858870184262,
block,faces,faces027.bmp,,,,,0,223,223,223,,,,,,,,,,,,,,,,,,,,,,,,,,,,,,,,,,,,,,,,,,None,,404.9749206799199,None,404.9749206799199,None,2022-02-10-14:08:42.788335,404.9755097000161,405.29776099999435,404.9755097000161,None,None,404.9755097000161,None,405.79056217997567,None,,,,11006,0002,2022_Feb_10_1402,localizer,2021.1.3,59.46858870184262,
block,faces,faces060.bmp,,,,,0,224,224,224,,,,,,,,,,,,,,,,,,,,,,,,,,,,,,,,,,,,,,,,,,None,,405.79056217997567,None,405.79056217997567,None,2022-02-10-14:08:43.602904,405.7922130000079,406.10742719995324,405.7922130000079,None,None,405.7922130000079,None,406.5920185799361,None,,,,11006,0002,2022_Feb_10_1402,localizer,2021.1.3,59.46858870184262,
block,faces,faces054.bmp,,,,,0,225,225,225,,,,,,,,,,,,,,,,,,,,,,,,,,,,,,,,,,,,,,,,,,None,,406.5920185799361,None,406.5920185799361,None,2022-02-10-14:08:44.408393,406.608775199973,406.92425119993277,406.608775199973,406.608775199973,None,406.608775199973,406.608775199973,407.4078924800153,None,,,,11006,0002,2022_Feb_10_1402,localizer,2021.1.3,59.46858870184262,
block,faces,faces063.bmp,,,,,0,226,226,226,,,,,,,,,,,,,,,,,,,,,,,,,,,,,,,,,,,,,,,,,,None,,407.4078924800153,None,407.4078924800153,None,2022-02-10-14:08:45.220420,407.4205975999357,407.7244231000077,407.4205975999357,None,None,407.4205975999357,None,408.22424217999213,None,,,,11006,0002,2022_Feb_10_1402,localizer,2021.1.3,59.46858870184262,
block,faces,faces080.bmp,,,,,0,227,227,227,,,,,,,,,,,,,,,,,,,,,,,,,,,,,,,,,,,,,,,,,,None,,408.22424217999213,None,408.22424217999213,None,2022-02-10-14:08:46.036580,408.2263843999244,408.52447279996704,408.2263843999244,None,None,408.2263843999244,None,409.0415555799729,None,,,,11006,0002,2022_Feb_10_1402,localizer,2021.1.3,59.46858870184262,
block_end,faces,faces045.bmp,,,,,0,228,228,228,,,,,,,,,,,,,,,,,,,,,,,,,,,,,,,,,,,,,,,,,,None,,409.0415555799729,None,409.0415555799729,None,2022-02-10-14:08:46.855021,409.0426168999402,409.35752580000553,409.0426168999402,None,None,409.0426168999402,None,409.8579537799698,None,,,,11006,0002,2022_Feb_10_1402,localizer,2021.1.3,59.46858870184262,
block_start,objects,objects005.bmp,,,,,0,229,229,229,,,,,,,,,,,,,,,,,,,,,,,,,,,,,,,,,,,,,,,,,,t,1.7735460000112653,409.85801209998317,None,409.85801209998317,None,2022-02-10-14:08:49.469134,411.6587457000278,411.95844319998287,411.6587457000278,None,None,411.6587457000278,None,412.4577587799751,None,,,,11006,0002,2022_Feb_10_1402,localizer,2021.1.3,59.46858870184262,
block,objects,objects020.bmp,,,,,0,230,230,230,,,,,,,,,,,,,,,,,,,,,,,,,,,,,,,,,,,,,,,,,,None,,412.4577587799751,None,412.4577587799751,None,2022-02-10-14:08:50.271251,412.45863809995353,412.77412920002826,412.45863809995353,412.45863809995353,None,412.45863809995353,412.45863809995353,413.2584843799588,None,,,,11006,0002,2022_Feb_10_1402,localizer,2021.1.3,59.46858870184262,
block,objects,objects003.bmp,,,,,0,231,231,231,,,,,,,,,,,,,,,,,,,,,,,,,,,,,,,,,,,,,,,,,,None,,413.2584843799588,None,413.2584843799588,None,2022-02-10-14:08:51.072826,413.2588577999268,413.574482099968,413.2588577999268,413.2588577999268,None,413.2588577999268,413.2588577999268,414.0582413800177,None,,,,11006,0002,2022_Feb_10_1402,localizer,2021.1.3,59.46858870184262,
block,objects,objects001.bmp,,,,,0,232,232,232,,,,,,,,,,,,,,,,,,,,,,,,,,,,,,,,,,,,,,,,,,None,,414.0582413800177,None,414.0582413800177,None,2022-02-10-14:08:51.873753,414.0611649999628,414.3747502999613,414.0611649999628,414.0611649999628,None,414.0611649999628,414.0611649999628,414.87466797999804,None,,,,11006,0002,2022_Feb_10_1402,localizer,2021.1.3,59.46858870184262,
block,objects,objects048.bmp,,,,,0,233,233,233,,,,,,,,,,,,,,,,,,,,,,,,,,,,,,,,,,,,,,,,,,None,,414.87466797999804,None,414.87466797999804,None,2022-02-10-14:08:52.687000,414.88458389998414,415.1909118000185,414.88458389998414,None,None,414.88458389998414,None,415.6913107799948,None,,,,11006,0002,2022_Feb_10_1402,localizer,2021.1.3,59.46858870184262,
block,objects,objects051.bmp,,,,,0,234,234,234,,,,,,,,,,,,,,,,,,,,,,,,,,,,,,,,,,,,,,,,,,None,,415.6913107799948,None,415.6913107799948,None,2022-02-10-14:08:53.503625,415.70227699994575,416.0085363999242,415.70227699994575,None,None,415.70227699994575,None,416.5083982800017,None,,,,11006,0002,2022_Feb_10_1402,localizer,2021.1.3,59.46858870184262,
block,objects,objects026.bmp,,,,,0,235,235,235,,,,,,,,,,,,,,,,,,,,,,,,,,,,,,,,,,,,,,,,,,None,,416.5083982800017,None,416.5083982800017,None,2022-02-10-14:08:54.321852,416.5200100999791,416.82471720001195,416.5200100999791,None,None,416.5200100999791,None,417.32413117993855,None,,,,11006,0002,2022_Feb_10_1402,localizer,2021.1.3,59.46858870184262,
block,objects,objects014.bmp,,,,,0,236,236,236,,,,,,,,,,,,,,,,,,,,,,,,,,,,,,,,,,,,,,,,,,None,,417.32413117993855,None,417.32413117993855,None,2022-02-10-14:08:55.135778,417.33202540001366,417.6446100999601,417.33202540001366,None,None,417.33202540001366,None,418.14218087993794,None,,,,11006,0002,2022_Feb_10_1402,localizer,2021.1.3,59.46858870184262,
block,objects,objects054.bmp,,,,,0,237,237,237,,,,,,,,,,,,,,,,,,,,,,,,,,,,,,,,,,,,,,,,,,None,,418.14218087993794,None,418.14218087993794,None,2022-02-10-14:08:55.956089,418.1449056999991,418.4582148999907,418.1449056999991,None,None,418.1449056999991,None,418.9573905799654,None,,,,11006,0002,2022_Feb_10_1402,localizer,2021.1.3,59.46858870184262,
block,objects,objects031.bmp,,,,,0,238,238,238,,,,,,,,,,,,,,,,,,,,,,,,,,,,,,,,,,,,,,,,,,None,,418.9573905799654,None,418.9573905799654,None,2022-02-10-14:08:56.769729,418.9587811999954,419.2805929000024,418.9587811999954,None,None,418.9587811999954,None,419.75830317997605,None,,,,11006,0002,2022_Feb_10_1402,localizer,2021.1.3,59.46858870184262,
block,objects,objects045.bmp,,,,,0,239,239,239,,,,,,,,,,,,,,,,,,,,,,,,,,,,,,,,,,,,,,,,,,None,,419.75830317997605,None,419.75830317997605,None,2022-02-10-14:08:57.573623,419.76117349998094,420.0749791000271,419.76117349998094,419.76117349998094,None,419.76117349998094,419.76117349998094,420.5744249799638,None,,,,11006,0002,2022_Feb_10_1402,localizer,2021.1.3,59.46858870184262,
block,objects,objects086.bmp,,,,,0,240,240,240,,,,,,,,,,,,,,,,,,,,,,,,,,,,,,,,,,,,,,,,,,None,,420.5744249799638,None,420.5744249799638,None,2022-02-10-14:08:58.386756,420.58495729998685,420.89096150000114,420.58495729998685,None,None,420.58495729998685,None,421.3911279799533,None,,,,11006,0002,2022_Feb_10_1402,localizer,2021.1.3,59.46858870184262,
block,objects,objects055.bmp,,,,,0,241,241,241,,,,,,,,,,,,,,,,,,,,,,,,,,,,,,,,,,,,,,,,,,None,,421.3911279799533,None,421.3911279799533,None,2022-02-10-14:08:59.203677,421.3919364999747,421.69156840001233,421.3919364999747,None,None,421.3919364999747,None,422.191524979996,None,,,,11006,0002,2022_Feb_10_1402,localizer,2021.1.3,59.46858870184262,
block,objects,objects004.bmp,,,,,0,242,242,242,,,,,,,,,,,,,,,,,,,,,,,,,,,,,,,,,,,,,,,,,,None,,422.191524979996,None,422.191524979996,None,2022-02-10-14:09:00.006846,422.20388469996396,422.508181400015,422.20388469996396,422.20388469996396,None,422.20388469996396,422.20388469996396,423.0082015800173,None,,,,11006,0002,2022_Feb_10_1402,localizer,2021.1.3,59.46858870184262,
block_end,objects,objects073.bmp,,,,,0,243,243,243,,,,,,,,,,,,,,,,,,,,,,,,,,,,,,,,,,,,,,,,,,None,,423.0082015800173,None,423.0082015800173,None,2022-02-10-14:09:00.821721,423.0090613999637,423.3101227999432,423.0090613999637,None,None,423.0090613999637,None,423.80836987994843,None,,,,11006,0002,2022_Feb_10_1402,localizer,2021.1.3,59.46858870184262,
,,,,,,,,,,,,,,,,,,,,,,,,,,,,,,,,,,,,,,,,,,,,,,,,,,,,,,,,,,,,,,,,,,,,,423.8082726999419,None,,,,,,,
