block_type,condition,img_name,Button.thisRepN,Button.thisTrialN,Button.thisN,Button.thisIndex,trials.thisRepN,trials.thisTrialN,trials.thisN,trials.thisIndex,Ready_experimenter_text.started,Ready_experimenter_text.stopped,Ready_experimenter_resp.keys,Ready_experimenter_resp.rt,Ready_experimenter_resp.started,Ready_experimenter_resp.stopped,Alignment_background.started,Alignment_background.stopped,Alignment_image.started,Alignment_image.stopped,Alignment_resp.keys,Alignment_resp.rt,Alignment_resp.started,Alignment_resp.stopped,Button_text.started,Button_text.stopped,Index_text.started,Index_text.stopped,Index_resp.keys,Index_resp.rt,Index_resp.started,Index_resp.stopped,Middle_text.started,Middle_text.stopped,Middle_resp.keys,Middle_resp.rt,Middle_resp.started,Middle_resp.stopped,Repeat_text.started,Repeat_text.stopped,Repeat_resp.keys,Repeat_resp.corr,Repeat_resp.rt,Repeat_resp.started,Repeat_resp.stopped,instruction_text.started,instruction_text.stopped,key_resp.keys,key_resp.rt,key_resp.started,key_resp.stopped,scanner_t.keys,scanner_t.rt,scanner_t.started,scanner_t.stopped,fixation_wait_for_t.started,fixation_wait_for_t.stopped,real_timestamp_trial_start,image.started,image.stopped,fixation.started,fixation.stopped,repeat_response.keys,repeat_response.started,repeat_response.stopped,fixation_null.started,fixation_null.stopped,repeat_response.rt,end_text.started,end_text.stopped,participant,run,date,expName,psychopyVersion,frameRate,
,,,,,,,,,,,11.636122500058264,None,return,462.41034599998966,11.636122500058264,None,,,,,,,,,,,,,,,,,,,,,,,,,,,,,,,,,,,,,,,,,,,,,,,,,,,,,,,22007,0002,2022_Apr_13_1432,localizer,2021.1.3,58.69092239161938,
,,,,,,,,,,,,,,,,,474.10012389998883,None,474.10012389998883,None,return,0.8367017998825759,474.10012389998883,None,,,,,,,,,,,,,,,,,,,,,,,,,,,,,,,,,,,,,,,,,,,,,,,22007,0002,2022_Apr_13_1432,localizer,2021.1.3,58.69092239161938,
,,,0,0,0,0,,,,,,,,,,,,,,,,,,,474.9564644000493,None,475.95739590004086,None,y,3.0341419000178576,475.95739590004086,None,479.00699350005016,None,b,1.8334798000287265,479.00699350005016,None,480.8572287999559,None,n,0,5.063440500060096,480.8572287999559,None,,,,,,,,,,,,,,,,,,,,,,,,,,22007,0002,2022_Apr_13_1432,localizer,2021.1.3,58.69092239161938,
,,,,,,,,,,,,,,,,,,,,,,,,,,,,,,,,,,,,,,,,,,,,,,485.93952960008755,None,y,24.448861800134182,485.93952960008755,None,,,,,,,,,,,,,,,,,,,,22007,0002,2022_Apr_13_1432,localizer,2021.1.3,58.69092239161938,
block_start,scenes,scenes052.bmp,,,,,0,0,0,0,,,,,,,,,,,,,,,,,,,,,,,,,,,,,,,,,,,,,,,,,,t,19.830834599910304,510.44156339997426,None,510.44156339997426,None,2022-04-13-14:41:17.362551,530.2957154000178,530.606656299904,530.2957154000178,None,None,530.2957154000178,None,531.1082471000962,None,,,,22007,0002,2022_Apr_13_1432,localizer,2021.1.3,58.69092239161938,
block,scenes,scenes035.bmp,,,,,0,1,1,1,,,,,,,,,,,,,,,,,,,,,,,,,,,,,,,,,,,,,,,,,,None,,531.1082471000962,None,531.1082471000962,None,2022-04-13-14:41:18.183323,531.1137455001008,531.4066828999203,531.1137455001008,None,None,531.1137455001008,None,531.9239529999438,None,,,,22007,0002,2022_Apr_13_1432,localizer,2021.1.3,58.69092239161938,
block,scenes,scenes021.bmp,,,,,0,2,2,2,,,,,,,,,,,,,,,,,,,,,,,,,,,,,,,,,,,,,,,,,,None,,531.9239529999438,None,531.9239529999438,None,2022-04-13-14:41:18.995212,531.9249491998926,532.2247071000747,531.9249491998926,None,None,531.9249491998926,None,532.7404649999924,None,,,,22007,0002,2022_Apr_13_1432,localizer,2021.1.3,58.69092239161938,
block,scenes,scenes017.bmp,,,,,0,3,3,3,,,,,,,,,,,,,,,,,,,,,,,,,,,,,,,,,,,,,,,,,,None,,532.7404649999924,None,532.7404649999924,None,2022-04-13-14:41:19.810592,532.7409546000417,533.0402486000676,532.7409546000417,None,None,532.7409546000417,None,533.5405670001171,None,,,,22007,0002,2022_Apr_13_1432,localizer,2021.1.3,58.69092239161938,
block,scenes,scenes037.bmp,,,,,0,4,4,4,,,,,,,,,,,,,,,,,,,,,,,,,,,,,,,,,,,,,,,,,,None,,533.5405670001171,None,533.5405670001171,None,2022-04-13-14:41:20.613894,533.5834063999355,533.8907236000523,533.5834063999355,533.5834063999355,None,533.5834063999355,533.5834063999355,534.356665699929,None,,,,22007,0002,2022_Apr_13_1432,localizer,2021.1.3,58.69092239161938,
block,scenes,scenes012.bmp,,,,,0,5,5,5,,,,,,,,,,,,,,,,,,,,,,,,,,,,,,,,,,,,,,,,,,None,,534.356665699929,None,534.356665699929,None,2022-04-13-14:41:21.427041,534.3578429000918,534.6568670000415,534.3578429000918,None,None,534.3578429000918,None,535.157177299913,None,,,,22007,0002,2022_Apr_13_1432,localizer,2021.1.3,58.69092239161938,
block,scenes,scenes074.bmp,,,,,0,6,6,6,,,,,,,,,,,,,,,,,,,,,,,,,,,,,,,,,,,,,,,,,,None,,535.157177299913,None,535.157177299913,None,2022-04-13-14:41:22.230500,535.1694889999926,535.4733122000471,535.1694889999926,535.1694889999926,None,535.1694889999926,535.1694889999926,535.9743350999895,None,,,,22007,0002,2022_Apr_13_1432,localizer,2021.1.3,58.69092239161938,
block,scenes,scenes082.bmp,,,,,0,7,7,7,,,,,,,,,,,,,,,,,,,,,,,,,,,,,,,,,,,,,,,,,,None,,535.9743350999895,None,535.9743350999895,None,2022-04-13-14:41:23.045641,535.9857886000536,536.2901858999394,535.9857886000536,None,None,535.9857886000536,None,536.7904308000113,None,,,,22007,0002,2022_Apr_13_1432,localizer,2021.1.3,58.69092239161938,
block,scenes,scenes038.bmp,,,,,0,8,8,8,,,,,,,,,,,,,,,,,,,,,,,,,,,,,,,,,,,,,,,,,,None,,536.7904308000113,None,536.7904308000113,None,2022-04-13-14:41:23.860744,536.7911259001121,537.0901923000347,536.7911259001121,None,None,536.7911259001121,None,537.5965911999344,None,,,,22007,0002,2022_Apr_13_1432,localizer,2021.1.3,58.69092239161938,
block,scenes,scenes015.bmp,,,,,0,9,9,9,,,,,,,,,,,,,,,,,,,,,,,,,,,,,,,,,,,,,,,,,,None,,537.5965911999344,None,537.5965911999344,None,2022-04-13-14:41:24.673624,537.6047424999997,537.9067848999985,537.6047424999997,None,None,537.6047424999997,None,538.4071256999857,None,,,,22007,0002,2022_Apr_13_1432,localizer,2021.1.3,58.69092239161938,
block,scenes,scenes072.bmp,,,,,0,10,10,10,,,,,,,,,,,,,,,,,,,,,,,,,,,,,,,,,,,,,,,,,,None,,538.4071256999857,None,538.4071256999857,None,2022-04-13-14:41:25.477268,538.4162826000247,538.7246393000241,538.4162826000247,None,None,538.4162826000247,None,539.2237305999267,None,,,,22007,0002,2022_Apr_13_1432,localizer,2021.1.3,58.69092239161938,
block,scenes,scenes031.bmp,,,,,0,11,11,11,,,,,,,,,,,,,,,,,,,,,,,,,,,,,,,,,,,,,,,,,,None,,539.2237305999267,None,539.2237305999267,None,2022-04-13-14:41:26.293857,539.2244233000092,539.5399011000991,539.2244233000092,None,None,539.2244233000092,None,540.0399963999632,None,,,,22007,0002,2022_Apr_13_1432,localizer,2021.1.3,58.69092239161938,
block,scenes,scenes047.bmp,,,,,0,12,12,12,,,,,,,,,,,,,,,,,,,,,,,,,,,,,,,,,,,,,,,,,,None,,540.0399963999632,None,540.0399963999632,None,2022-04-13-14:41:27.110130,540.0412409999408,540.3402150000911,540.0412409999408,None,None,540.0412409999408,None,540.8412127000745,None,,,,22007,0002,2022_Apr_13_1432,localizer,2021.1.3,58.69092239161938,
block,scenes,scenes042.bmp,,,,,0,13,13,13,,,,,,,,,,,,,,,,,,,,,,,,,,,,,,,,,,,,,,,,,,None,,540.8412127000745,None,540.8412127000745,None,2022-04-13-14:41:27.915457,540.8452163001057,541.1568305001128,540.8452163001057,540.8452163001057,None,540.8452163001057,540.8452163001057,541.6572049001231,None,,,,22007,0002,2022_Apr_13_1432,localizer,2021.1.3,58.69092239161938,
block_end,scenes,scenes044.bmp,,,,,0,14,14,14,,,,,,,,,,,,,,,,,,,,,,,,,,,,,,,,,,,,,,,,,,None,,541.6572049001231,None,541.6572049001231,None,2022-04-13-14:41:28.727330,541.6665205999743,541.9736929000355,541.6665205999743,None,None,541.6665205999743,None,542.4743004999589,None,,,,22007,0002,2022_Apr_13_1432,localizer,2021.1.3,58.69092239161938,
block_start,objects,objects003.bmp,,,,,0,15,15,15,,,,,,,,,,,,,,,,,,,,,,,,,,,,,,,,,,,,,,,,,,t,1.7985508998390287,542.474142299965,None,542.474142299965,None,2022-04-13-14:41:31.359981,544.2911286999006,544.6066326000728,544.2911286999006,None,None,544.2911286999006,None,545.0901632001157,None,,,,22007,0002,2022_Apr_13_1432,localizer,2021.1.3,58.69092239161938,
block,objects,objects082.bmp,,,,,0,16,16,16,,,,,,,,,,,,,,,,,,,,,,,,,,,,,,,,,,,,,,,,,,None,,545.0901632001157,None,545.0901632001157,None,2022-04-13-14:41:32.162289,545.0999479000457,545.4067806000821,545.0999479000457,545.0999479000457,None,545.0999479000457,545.0999479000457,545.9081916999537,None,,,,22007,0002,2022_Apr_13_1432,localizer,2021.1.3,58.69092239161938,
block,objects,objects028.bmp,,,,,0,17,17,17,,,,,,,,,,,,,,,,,,,,,,,,,,,,,,,,,,,,,,,,,,None,,545.9081916999537,None,545.9081916999537,None,2022-04-13-14:41:32.981323,545.9112271999475,546.2235362001229,545.9112271999475,None,None,545.9112271999475,None,546.7237957999575,None,,,,22007,0002,2022_Apr_13_1432,localizer,2021.1.3,58.69092239161938,
block,objects,objects014.bmp,,,,,0,18,18,18,,,,,,,,,,,,,,,,,,,,,,,,,,,,,,,,,,,,,,,,,,None,,546.7237957999575,None,546.7237957999575,None,2022-04-13-14:41:33.793921,546.7342697998974,547.0398923000321,546.7342697998974,None,None,546.7342697998974,None,547.5412276999093,None,,,,22007,0002,2022_Apr_13_1432,localizer,2021.1.3,58.69092239161938,
block,objects,objects070.bmp,,,,,0,19,19,19,,,,,,,,,,,,,,,,,,,,,,,,,,,,,,,,,,,,,,,,,,None,,547.5412276999093,None,547.5412276999093,None,2022-04-13-14:41:34.612323,547.5431339000352,547.8577503000852,547.5431339000352,None,None,547.5431339000352,None,548.3581813000608,None,,,,22007,0002,2022_Apr_13_1432,localizer,2021.1.3,58.69092239161938,
block,objects,objects066.bmp,,,,,0,20,20,20,,,,,,,,,,,,,,,,,,,,,,,,,,,,,,,,,,,,,,,,,,None,,548.3581813000608,None,548.3581813000608,None,2022-04-13-14:41:35.430450,548.3614612999372,548.6742597999983,548.3614612999372,None,None,548.3614612999372,None,549.174151899945,None,,,,22007,0002,2022_Apr_13_1432,localizer,2021.1.3,58.69092239161938,
block,objects,objects029.bmp,,,,,0,21,21,21,,,,,,,,,,,,,,,,,,,,,,,,,,,,,,,,,,,,,,,,,,None,,549.174151899945,None,549.174151899945,None,2022-04-13-14:41:36.245266,549.1753024000209,549.4740716000088,549.1753024000209,None,None,549.1753024000209,None,549.9906985999085,None,,,,22007,0002,2022_Apr_13_1432,localizer,2021.1.3,58.69092239161938,
block,objects,objects020.bmp,,,,,0,22,22,22,,,,,,,,,,,,,,,,,,,,,,,,,,,,,,,,,,,,,,,,,,None,,549.9906985999085,None,549.9906985999085,None,2022-04-13-14:41:37.062015,549.9911579999607,550.2964391999412,549.9911579999607,None,None,549.9911579999607,None,550.7903641000855,None,,,,22007,0002,2022_Apr_13_1432,localizer,2021.1.3,58.69092239161938,
block,objects,objects069.bmp,,,,,0,23,23,23,,,,,,,,,,,,,,,,,,,,,,,,,,,,,,,,,,,,,,,,,,None,,550.7903641000855,None,550.7903641000855,None,2022-04-13-14:41:37.862489,550.7914096999448,551.0901262999978,550.7914096999448,550.7914096999448,None,550.7914096999448,550.7914096999448,551.5917993001174,None,,,,22007,0002,2022_Apr_13_1432,localizer,2021.1.3,58.69092239161938,
block,objects,objects065.bmp,,,,,0,24,24,24,,,,,,,,,,,,,,,,,,,,,,,,,,,,,,,,,,,,,,,,,,None,,551.5917993001174,None,551.5917993001174,None,2022-04-13-14:41:38.667896,551.5978612001054,551.9068901999854,551.5978612001054,551.5978612001054,None,551.5978612001054,551.5978612001054,552.406958999997,None,,,,22007,0002,2022_Apr_13_1432,localizer,2021.1.3,58.69092239161938,
block,objects,objects065.bmp,,,,,0,25,25,25,,,,,,,,,,,,,,,,,,,,,,,,,,,,,,,,,,,,,,,,,,None,,552.406958999997,None,552.406958999997,None,2022-04-13-14:41:39.477004,552.4084550000262,552.7236961999442,552.4084550000262,None,y,552.4084550000262,None,553.2076533000916,None,0.5187413999810815,,,22007,0002,2022_Apr_13_1432,localizer,2021.1.3,58.69092239161938,
block,objects,objects081.bmp,,,,,0,26,26,26,,,,,,,,,,,,,,,,,,,,,,,,,,,,,,,,,,,,,,,,,,None,,553.2076533000916,None,553.2076533000916,None,2022-04-13-14:41:40.280963,553.2187526000198,553.5231713000685,553.2187526000198,553.2187526000198,None,553.2187526000198,553.2187526000198,554.0255178000778,None,,,,22007,0002,2022_Apr_13_1432,localizer,2021.1.3,58.69092239161938,
block,objects,objects036.bmp,,,,,0,27,27,27,,,,,,,,,,,,,,,,,,,,,,,,,,,,,,,,,,,,,,,,,,None,,554.0255178000778,None,554.0255178000778,None,2022-04-13-14:41:41.096818,554.0347871999256,554.3403733000159,554.0347871999256,None,None,554.0347871999256,None,554.8398041000589,None,,,,22007,0002,2022_Apr_13_1432,localizer,2021.1.3,58.69092239161938,
block,objects,objects054.bmp,,,,,0,28,28,28,,,,,,,,,,,,,,,,,,,,,,,,,,,,,,,,,,,,,,,,,,None,,554.8398041000589,None,554.8398041000589,None,2022-04-13-14:41:41.909938,554.8478155001067,555.1566276000813,554.8478155001067,None,None,554.8478155001067,None,555.656499500107,None,,,,22007,0002,2022_Apr_13_1432,localizer,2021.1.3,58.69092239161938,
block_end,objects,objects009.bmp,,,,,0,29,29,29,,,,,,,,,,,,,,,,,,,,,,,,,,,,,,,,,,,,,,,,,,None,,555.656499500107,None,555.656499500107,None,2022-04-13-14:41:42.726867,555.6578822999727,555.9568523000926,555.6578822999727,None,None,555.6578822999727,None,556.4573352001141,None,,,,22007,0002,2022_Apr_13_1432,localizer,2021.1.3,58.69092239161938,
null_block,null_block,null_block.bmp,,,,,0,30,30,30,,,,,,,,,,,,,,,,,,,,,,,,,,,,,,,,,,,,,,,,,,t,1.815265699988231,556.4570355999749,None,556.4570355999749,None,2022-04-13-14:41:45.362372,558.291064599948,None,558.291064599948,None,None,558.291064599948,None,558.2978044999763,None,,,,22007,0002,2022_Apr_13_1432,localizer,2021.1.3,58.69092239161938,
block_start,scrambled,scrambled006.bmp,,,,,0,31,31,31,,,,,,,,,,,,,,,,,,,,,,,,,,,,,,,,,,,,,,,,,,t,1.9653946000616997,570.3072536000982,None,570.3072536000982,None,2022-04-13-14:41:59.369364,572.3387275999412,572.6406527000945,572.3387275999412,None,None,572.3387275999412,None,573.1071292000822,None,,,,22007,0002,2022_Apr_13_1432,localizer,2021.1.3,58.69092239161938,
block,scrambled,scrambled087.bmp,,,,,0,32,32,32,,,,,,,,,,,,,,,,,,,,,,,,,,,,,,,,,,,,,,,,,,None,,573.1071292000822,None,573.1071292000822,None,2022-04-13-14:42:00.178253,573.112672300078,573.4243443000596,573.112672300078,None,None,573.112672300078,None,573.9248697000555,None,,,,22007,0002,2022_Apr_13_1432,localizer,2021.1.3,58.69092239161938,
block,scrambled,scrambled069.bmp,,,,,0,33,33,33,,,,,,,,,,,,,,,,,,,,,,,,,,,,,,,,,,,,,,,,,,None,,573.9248697000555,None,573.9248697000555,None,2022-04-13-14:42:00.997166,573.9280709000304,574.2399295000359,573.9280709000304,None,None,573.9280709000304,None,574.7406234000343,None,,,,22007,0002,2022_Apr_13_1432,localizer,2021.1.3,58.69092239161938,
block,scrambled,scrambled044.bmp,,,,,0,34,34,34,,,,,,,,,,,,,,,,,,,,,,,,,,,,,,,,,,,,,,,,,,None,,574.7406234000343,None,574.7406234000343,None,2022-04-13-14:42:01.810750,574.7413129000925,575.0406792999711,574.7413129000925,None,None,574.7413129000925,None,575.5407263999339,None,,,,22007,0002,2022_Apr_13_1432,localizer,2021.1.3,58.69092239161938,
block,scrambled,scrambled002.bmp,,,,,0,35,35,35,,,,,,,,,,,,,,,,,,,,,,,,,,,,,,,,,,,,,,,,,,None,,575.5407263999339,None,575.5407263999339,None,2022-04-13-14:42:02.614047,575.556629100116,575.8570366001222,575.556629100116,575.556629100116,None,575.556629100116,575.556629100116,576.3568957999348,None,,,,22007,0002,2022_Apr_13_1432,localizer,2021.1.3,58.69092239161938,
block,scrambled,scrambled041.bmp,,,,,0,36,36,36,,,,,,,,,,,,,,,,,,,,,,,,,,,,,,,,,,,,,,,,,,None,,576.3568957999348,None,576.3568957999348,None,2022-04-13-14:42:03.425957,576.3580662000459,576.6569761000574,576.3580662000459,None,None,576.3580662000459,None,577.1737075000535,None,,,,22007,0002,2022_Apr_13_1432,localizer,2021.1.3,58.69092239161938,
block,scrambled,scrambled038.bmp,,,,,0,37,37,37,,,,,,,,,,,,,,,,,,,,,,,,,,,,,,,,,,,,,,,,,,None,,577.1737075000535,None,577.1737075000535,None,2022-04-13-14:42:04.244107,577.1843483999837,577.4906240000855,577.1843483999837,None,None,577.1843483999837,None,577.9802219999954,None,,,,22007,0002,2022_Apr_13_1432,localizer,2021.1.3,58.69092239161938,
block,scrambled,scrambled059.bmp,,,,,0,38,38,38,,,,,,,,,,,,,,,,,,,,,,,,,,,,,,,,,,,,,,,,,,None,,577.9802219999954,None,577.9802219999954,None,2022-04-13-14:42:05.055968,577.9911241999362,578.290047599934,577.9911241999362,None,None,577.9911241999362,None,578.7912328000646,None,,,,22007,0002,2022_Apr_13_1432,localizer,2021.1.3,58.69092239161938,
block,scrambled,scrambled012.bmp,,,,,0,39,39,39,,,,,,,,,,,,,,,,,,,,,,,,,,,,,,,,,,,,,,,,,,None,,578.7912328000646,None,578.7912328000646,None,2022-04-13-14:42:05.862543,578.8027083999477,579.1070363000035,578.8027083999477,None,None,578.8027083999477,None,579.6107626000419,None,,,,22007,0002,2022_Apr_13_1432,localizer,2021.1.3,58.69092239161938,
block,scrambled,scrambled023.bmp,,,,,0,40,40,40,,,,,,,,,,,,,,,,,,,,,,,,,,,,,,,,,,,,,,,,,,None,,579.6107626000419,None,579.6107626000419,None,2022-04-13-14:42:06.685851,579.6265016000252,579.9405841000844,579.6265016000252,None,None,579.6265016000252,None,580.4258841999806,None,,,,22007,0002,2022_Apr_13_1432,localizer,2021.1.3,58.69092239161938,
block,scrambled,scrambled003.bmp,,,,,0,41,41,41,,,,,,,,,,,,,,,,,,,,,,,,,,,,,,,,,,,,,,,,,,None,,580.4258841999806,None,580.4258841999806,None,2022-04-13-14:42:07.501027,580.4418077999726,580.757219000021,580.4418077999726,None,None,580.4418077999726,None,581.2408690000418,None,,,,22007,0002,2022_Apr_13_1432,localizer,2021.1.3,58.69092239161938,
block,scrambled,scrambled029.bmp,,,,,0,42,42,42,,,,,,,,,,,,,,,,,,,,,,,,,,,,,,,,,,,,,,,,,,None,,581.2408690000418,None,581.2408690000418,None,2022-04-13-14:42:08.311182,581.2413163001183,581.5404326000717,581.2413163001183,None,None,581.2413163001183,None,582.0421518999617,None,,,,22007,0002,2022_Apr_13_1432,localizer,2021.1.3,58.69092239161938,
block,scrambled,scrambled053.bmp,,,,,0,43,43,43,,,,,,,,,,,,,,,,,,,,,,,,,,,,,,,,,,,,,,,,,,None,,582.0421518999617,None,582.0421518999617,None,2022-04-13-14:42:09.117317,582.0458937000949,582.3572666000109,582.0458937000949,582.0458937000949,None,582.0458937000949,582.0458937000949,582.8585185000672,None,,,,22007,0002,2022_Apr_13_1432,localizer,2021.1.3,58.69092239161938,
block,scrambled,scrambled010.bmp,,,,,0,44,44,44,,,,,,,,,,,,,,,,,,,,,,,,,,,,,,,,,,,,,,,,,,None,,582.8585185000672,None,582.8585185000672,None,2022-04-13-14:42:09.931623,582.8720396000426,583.1743570999242,582.8720396000426,None,None,582.8720396000426,None,583.6733433999586,None,,,,22007,0002,2022_Apr_13_1432,localizer,2021.1.3,58.69092239161938,
block_end,scrambled,scrambled017.bmp,,,,,0,45,45,45,,,,,,,,,,,,,,,,,,,,,,,,,,,,,,,,,,,,,,,,,,None,,583.6733433999586,None,583.6733433999586,None,2022-04-13-14:42:10.744473,583.6747616000939,583.9739916999824,583.6747616000939,None,None,583.6747616000939,None,584.4743900000583,None,,,,22007,0002,2022_Apr_13_1432,localizer,2021.1.3,58.69092239161938,
block_start,faces,faces015.bmp,,,,,0,46,46,46,,,,,,,,,,,,,,,,,,,,,,,,,,,,,,,,,,,,,,,,,,t,1.7970525999553502,584.4753598000389,None,584.4753598000389,None,2022-04-13-14:42:13.366007,586.3121251000557,586.6240099000279,586.3121251000557,None,None,586.3121251000557,None,587.1078783000819,None,,,,22007,0002,2022_Apr_13_1432,localizer,2021.1.3,58.69092239161938,
block,faces,faces002.bmp,,,,,0,47,47,47,,,,,,,,,,,,,,,,,,,,,,,,,,,,,,,,,,,,,,,,,,None,,587.1078783000819,None,587.1078783000819,None,2022-04-13-14:42:14.179191,587.120984399924,587.4237856999971,587.120984399924,None,None,587.120984399924,None,587.9244214999023,None,,,,22007,0002,2022_Apr_13_1432,localizer,2021.1.3,58.69092239161938,
block,faces,faces033.bmp,,,,,0,48,48,48,,,,,,,,,,,,,,,,,,,,,,,,,,,,,,,,,,,,,,,,,,None,,587.9244214999023,None,587.9244214999023,None,2022-04-13-14:42:14.995526,587.9428662001155,588.2570237000473,587.9428662001155,None,None,587.9428662001155,None,588.7411085001193,None,,,,22007,0002,2022_Apr_13_1432,localizer,2021.1.3,58.69092239161938,
block,faces,faces030.bmp,,,,,0,49,49,49,,,,,,,,,,,,,,,,,,,,,,,,,,,,,,,,,,,,,,,,,,None,,588.7411085001193,None,588.7411085001193,None,2022-04-13-14:42:15.812421,588.7541871001013,589.057977899909,588.7541871001013,None,None,588.7541871001013,None,589.5474915999919,None,,,,22007,0002,2022_Apr_13_1432,localizer,2021.1.3,58.69092239161938,
block,faces,faces050.bmp,,,,,0,50,50,50,,,,,,,,,,,,,,,,,,,,,,,,,,,,,,,,,,,,,,,,,,None,,589.5474915999919,None,589.5474915999919,None,2022-04-13-14:42:16.625579,589.5637062999886,589.8749553000089,589.5637062999886,None,None,589.5637062999886,None,590.3584734000731,None,,,,22007,0002,2022_Apr_13_1432,localizer,2021.1.3,58.69092239161938,
block,faces,faces076.bmp,,,,,0,51,51,51,,,,,,,,,,,,,,,,,,,,,,,,,,,,,,,,,,,,,,,,,,None,,590.3584734000731,None,590.3584734000731,None,2022-04-13-14:42:17.431770,590.3627502999734,590.6733216999564,590.3627502999734,None,None,590.3627502999734,None,591.1634015000425,None,,,,22007,0002,2022_Apr_13_1432,localizer,2021.1.3,58.69092239161938,
block,faces,faces036.bmp,,,,,0,52,52,52,,,,,,,,,,,,,,,,,,,,,,,,,,,,,,,,,,,,,,,,,,None,,591.1634015000425,None,591.1634015000425,None,2022-04-13-14:42:18.242409,591.179652800085,591.4904893999919,591.179652800085,591.179652800085,None,591.179652800085,591.179652800085,591.9760317001026,None,,,,22007,0002,2022_Apr_13_1432,localizer,2021.1.3,58.69092239161938,
block,faces,faces089.bmp,,,,,0,53,53,53,,,,,,,,,,,,,,,,,,,,,,,,,,,,,,,,,,,,,,,,,,None,,591.9760317001026,None,591.9760317001026,None,2022-04-13-14:42:19.051013,591.9823076000903,592.2902170000598,591.9823076000903,None,None,591.9823076000903,None,592.7909638999961,None,,,,22007,0002,2022_Apr_13_1432,localizer,2021.1.3,58.69092239161938,
block,faces,faces021.bmp,,,,,0,54,54,54,,,,,,,,,,,,,,,,,,,,,,,,,,,,,,,,,,,,,,,,,,None,,592.7909638999961,None,592.7909638999961,None,2022-04-13-14:42:19.862282,592.7915914000478,593.106969299959,592.7915914000478,None,None,592.7915914000478,None,593.5913393999915,None,,,,22007,0002,2022_Apr_13_1432,localizer,2021.1.3,58.69092239161938,
block,faces,faces024.bmp,,,,,0,55,55,55,,,,,,,,,,,,,,,,,,,,,,,,,,,,,,,,,,,,,,,,,,None,,593.5913393999915,None,593.5913393999915,None,2022-04-13-14:42:20.664455,593.593234699918,593.9071915000677,593.593234699918,593.593234699918,None,593.593234699918,593.593234699918,594.4074769999831,None,,,,22007,0002,2022_Apr_13_1432,localizer,2021.1.3,58.69092239161938,
block,faces,faces044.bmp,,,,,0,56,56,56,,,,,,,,,,,,,,,,,,,,,,,,,,,,,,,,,,,,,,,,,,None,,594.4074769999831,None,594.4074769999831,None,2022-04-13-14:42:21.477604,594.4173824999016,594.7240760999266,594.4173824999016,None,None,594.4173824999016,None,595.2240127000957,None,,,,22007,0002,2022_Apr_13_1432,localizer,2021.1.3,58.69092239161938,
block,faces,faces077.bmp,,,,,0,57,57,57,,,,,,,,,,,,,,,,,,,,,,,,,,,,,,,,,,,,,,,,,,None,,595.2240127000957,None,595.2240127000957,None,2022-04-13-14:42:22.294349,595.236198599916,595.5401638001204,595.236198599916,None,None,595.236198599916,None,596.0412276999093,None,,,,22007,0002,2022_Apr_13_1432,localizer,2021.1.3,58.69092239161938,
block,faces,faces022.bmp,,,,,0,58,58,58,,,,,,,,,,,,,,,,,,,,,,,,,,,,,,,,,,,,,,,,,,None,,596.0412276999093,None,596.0412276999093,None,2022-04-13-14:42:23.112335,596.0528118000366,596.3569885001052,596.0528118000366,None,None,596.0528118000366,None,596.8578517001122,None,,,,22007,0002,2022_Apr_13_1432,localizer,2021.1.3,58.69092239161938,
block,faces,faces052.bmp,,,,,0,59,59,59,,,,,,,,,,,,,,,,,,,,,,,,,,,,,,,,,,,,,,,,,,None,,596.8578517001122,None,596.8578517001122,None,2022-04-13-14:42:23.927954,596.8582774000242,597.1738340000156,596.8582774000242,None,None,596.8582774000242,None,597.6737665999215,None,,,,22007,0002,2022_Apr_13_1432,localizer,2021.1.3,58.69092239161938,
block_end,faces,faces039.bmp,,,,,0,60,60,60,,,,,,,,,,,,,,,,,,,,,,,,,,,,,,,,,,,,,,,,,,None,,597.6737665999215,None,597.6737665999215,None,2022-04-13-14:42:24.743901,597.6748907999136,597.9738797999453,597.6748907999136,None,None,597.6748907999136,None,598.474131100066,None,,,,22007,0002,2022_Apr_13_1432,localizer,2021.1.3,58.69092239161938,
block_start,objects,objects078.bmp,,,,,0,61,61,61,,,,,,,,,,,,,,,,,,,,,,,,,,,,,,,,,,,,,,,,,,t,1.7985185999423265,598.4737716999371,None,598.4737716999371,None,2022-04-13-14:42:27.362456,600.3035009999294,600.6084195000585,600.3035009999294,None,None,600.3035009999294,None,601.1070300000254,None,,,,22007,0002,2022_Apr_13_1432,localizer,2021.1.3,58.69092239161938,
block,objects,objects073.bmp,,,,,0,62,62,62,,,,,,,,,,,,,,,,,,,,,,,,,,,,,,,,,,,,,,,,,,None,,601.1070300000254,None,601.1070300000254,None,2022-04-13-14:42:28.177164,601.1083696000278,601.4073995000217,601.1083696000278,None,None,601.1083696000278,None,601.907654399937,None,,,,22007,0002,2022_Apr_13_1432,localizer,2021.1.3,58.69092239161938,
block,objects,objects080.bmp,,,,,0,63,63,63,,,,,,,,,,,,,,,,,,,,,,,,,,,,,,,,,,,,,,,,,,None,,601.907654399937,None,601.907654399937,None,2022-04-13-14:42:28.979981,601.9198759999126,602.2250181001145,601.9198759999126,601.9198759999126,None,601.9198759999126,601.9198759999126,602.7250714001245,None,,,,22007,0002,2022_Apr_13_1432,localizer,2021.1.3,58.69092239161938,
block,objects,objects064.bmp,,,,,0,64,64,64,,,,,,,,,,,,,,,,,,,,,,,,,,,,,,,,,,,,,,,,,,None,,602.7250714001245,None,602.7250714001245,None,2022-04-13-14:42:29.797162,602.7281732999254,603.0408248000313,602.7281732999254,None,None,602.7281732999254,None,603.540407400066,None,,,,22007,0002,2022_Apr_13_1432,localizer,2021.1.3,58.69092239161938,
block,objects,objects034.bmp,,,,,0,65,65,65,,,,,,,,,,,,,,,,,,,,,,,,,,,,,,,,,,,,,,,,,,None,,603.540407400066,None,603.540407400066,None,2022-04-13-14:42:30.610541,603.5416494999081,603.8403847999871,603.5416494999081,None,None,603.5416494999081,None,604.3413458999246,None,,,,22007,0002,2022_Apr_13_1432,localizer,2021.1.3,58.69092239161938,
block,objects,objects070.bmp,,,,,0,66,66,66,,,,,,,,,,,,,,,,,,,,,,,,,,,,,,,,,,,,,,,,,,None,,604.3413458999246,None,604.3413458999246,None,2022-04-13-14:42:31.414652,604.3443615001161,604.658005299978,604.3443615001161,604.3443615001161,None,604.3443615001161,604.3443615001161,605.1577970999758,None,,,,22007,0002,2022_Apr_13_1432,localizer,2021.1.3,58.69092239161938,
block,objects,objects039.bmp,,,,,0,67,67,67,,,,,,,,,,,,,,,,,,,,,,,,,,,,,,,,,,,,,,,,,,None,,605.1577970999758,None,605.1577970999758,None,2022-04-13-14:42:32.227920,605.1582176000811,605.4573045999277,605.1582176000811,None,None,605.1582176000811,None,605.9580213000997,None,,,,22007,0002,2022_Apr_13_1432,localizer,2021.1.3,58.69092239161938,
block,objects,objects044.bmp,,,,,0,68,68,68,,,,,,,,,,,,,,,,,,,,,,,,,,,,,,,,,,,,,,,,,,None,,605.9580213000997,None,605.9580213000997,None,2022-04-13-14:42:33.032329,605.9621208999306,606.2731614001095,605.9621208999306,605.9621208999306,None,605.9621208999306,605.9621208999306,606.7741223000455,None,,,,22007,0002,2022_Apr_13_1432,localizer,2021.1.3,58.69092239161938,
block,objects,objects060.bmp,,,,,0,69,69,69,,,,,,,,,,,,,,,,,,,,,,,,,,,,,,,,,,,,,,,,,,None,,606.7741223000455,None,606.7741223000455,None,2022-04-13-14:42:33.844720,606.7746904999949,607.0745604000986,606.7746904999949,None,None,606.7746904999949,None,607.5754128999076,None,,,,22007,0002,2022_Apr_13_1432,localizer,2021.1.3,58.69092239161938,
block,objects,objects043.bmp,,,,,0,70,70,70,,,,,,,,,,,,,,,,,,,,,,,,,,,,,,,,,,,,,,,,,,None,,607.5754128999076,None,607.5754128999076,None,2022-04-13-14:42:34.651380,607.5813806001097,607.8911643999163,607.5813806001097,607.5813806001097,None,607.5813806001097,607.5813806001097,608.3918159999419,None,,,,22007,0002,2022_Apr_13_1432,localizer,2021.1.3,58.69092239161938,
block,objects,objects042.bmp,,,,,0,71,71,71,,,,,,,,,,,,,,,,,,,,,,,,,,,,,,,,,,,,,,,,,,None,,608.3918159999419,None,608.3918159999419,None,2022-04-13-14:42:35.462909,608.4034889000468,608.7071998999454,608.4034889000468,None,None,608.4034889000468,None,609.2077842000406,None,,,,22007,0002,2022_Apr_13_1432,localizer,2021.1.3,58.69092239161938,
block,objects,objects029.bmp,,,,,0,72,72,72,,,,,,,,,,,,,,,,,,,,,,,,,,,,,,,,,,,,,,,,,,None,,609.2077842000406,None,609.2077842000406,None,2022-04-13-14:42:36.278902,609.2082628000062,609.507095699897,609.2082628000062,None,None,609.2082628000062,None,610.0076870999299,None,,,,22007,0002,2022_Apr_13_1432,localizer,2021.1.3,58.69092239161938,
block,objects,objects058.bmp,,,,,0,73,73,73,,,,,,,,,,,,,,,,,,,,,,,,,,,,,,,,,,,,,,,,,,None,,610.0076870999299,None,610.0076870999299,None,2022-04-13-14:42:37.080803,610.0103366998956,610.3239516001195,610.0103366998956,610.0103366998956,None,610.0103366998956,610.0103366998956,610.8240891000721,None,,,,22007,0002,2022_Apr_13_1432,localizer,2021.1.3,58.69092239161938,
block,objects,objects077.bmp,,,,,0,74,74,74,,,,,,,,,,,,,,,,,,,,,,,,,,,,,,,,,,,,,,,,,,None,,610.8240891000721,None,610.8240891000721,None,2022-04-13-14:42:37.894217,610.8334629000165,611.1406024000607,610.8334629000165,None,None,610.8334629000165,None,611.6405528999865,None,,,,22007,0002,2022_Apr_13_1432,localizer,2021.1.3,58.69092239161938,
block_end,objects,objects021.bmp,,,,,0,75,75,75,,,,,,,,,,,,,,,,,,,,,,,,,,,,,,,,,,,,,,,,,,None,,611.6405528999865,None,611.6405528999865,None,2022-04-13-14:42:38.710309,611.6528276999015,611.9573137001134,611.6528276999015,None,None,611.6528276999015,None,612.4572026000358,None,,,,22007,0002,2022_Apr_13_1432,localizer,2021.1.3,58.69092239161938,
block_start,faces,faces072.bmp,,,,,0,76,76,76,,,,,,,,,,,,,,,,,,,,,,,,,,,,,,,,,,,,,,,,,,t,1.8144519999623299,612.4569328001235,None,612.4569328001235,None,2022-04-13-14:42:41.359319,614.2915978999808,614.5909683001228,614.2915978999808,None,None,614.2915978999808,None,615.0909407000988,None,,,,22007,0002,2022_Apr_13_1432,localizer,2021.1.3,58.69092239161938,
block,faces,faces019.bmp,,,,,0,77,77,77,,,,,,,,,,,,,,,,,,,,,,,,,,,,,,,,,,,,,,,,,,None,,615.0909407000988,None,615.0909407000988,None,2022-04-13-14:42:42.163454,615.0937530999072,615.4073757999577,615.0937530999072,615.0937530999072,None,615.0937530999072,615.0937530999072,615.913584500039,None,,,,22007,0002,2022_Apr_13_1432,localizer,2021.1.3,58.69092239161938,
block,faces,faces083.bmp,,,,,0,78,78,78,,,,,,,,,,,,,,,,,,,,,,,,,,,,,,,,,,,,,,,,,,None,,615.913584500039,None,615.913584500039,None,2022-04-13-14:42:42.992578,615.9300188999623,616.2404060999397,615.9300188999623,None,None,615.9300188999623,None,616.7242666999343,None,,,,22007,0002,2022_Apr_13_1432,localizer,2021.1.3,58.69092239161938,
block,faces,faces031.bmp,,,,,0,79,79,79,,,,,,,,,,,,,,,,,,,,,,,,,,,,,,,,,,,,,,,,,,None,,616.7242666999343,None,616.7242666999343,None,2022-04-13-14:42:43.794687,616.724815600086,617.0303793000057,616.724815600086,None,None,616.724815600086,None,617.5241183998994,None,,,,22007,0002,2022_Apr_13_1432,localizer,2021.1.3,58.69092239161938,
block,faces,faces059.bmp,,,,,0,80,80,80,,,,,,,,,,,,,,,,,,,,,,,,,,,,,,,,,,,,,,,,,,None,,617.5241183998994,None,617.5241183998994,None,2022-04-13-14:42:44.597235,617.5266791000031,617.840594700072,617.5266791000031,617.5266791000031,None,617.5266791000031,617.5266791000031,618.3410072000231,None,,,,22007,0002,2022_Apr_13_1432,localizer,2021.1.3,58.69092239161938,
block,faces,faces067.bmp,,,,,0,81,81,81,,,,,,,,,,,,,,,,,,,,,,,,,,,,,,,,,,,,,,,,,,None,,618.3410072000231,None,618.3410072000231,None,2022-04-13-14:42:45.411133,618.3514946999494,618.6572825000621,618.3514946999494,None,None,618.3514946999494,None,619.1574457000941,None,,,,22007,0002,2022_Apr_13_1432,localizer,2021.1.3,58.69092239161938,
block,faces,faces085.bmp,,,,,0,82,82,82,,,,,,,,,,,,,,,,,,,,,,,,,,,,,,,,,,,,,,,,,,None,,619.1574457000941,None,619.1574457000941,None,2022-04-13-14:42:46.227640,619.1670236000791,619.4741231000517,619.1670236000791,None,None,619.1670236000791,None,619.9748134000226,None,,,,22007,0002,2022_Apr_13_1432,localizer,2021.1.3,58.69092239161938,
block,faces,faces011.bmp,,,,,0,83,83,83,,,,,,,,,,,,,,,,,,,,,,,,,,,,,,,,,,,,,,,,,,None,,619.9748134000226,None,619.9748134000226,None,2022-04-13-14:42:47.045962,619.9765041999053,620.2908650999889,619.9765041999053,None,None,619.9765041999053,None,620.7920342999976,None,,,,22007,0002,2022_Apr_13_1432,localizer,2021.1.3,58.69092239161938,
block,faces,faces036.bmp,,,,,0,84,84,84,,,,,,,,,,,,,,,,,,,,,,,,,,,,,,,,,,,,,,,,,,None,,620.7920342999976,None,620.7920342999976,None,2022-04-13-14:42:47.862260,620.791486900067,621.0907686999999,620.791486900067,None,None,620.791486900067,None,621.5907845999579,None,,,,22007,0002,2022_Apr_13_1432,localizer,2021.1.3,58.69092239161938,
block,faces,faces007.bmp,,,,,0,85,85,85,,,,,,,,,,,,,,,,,,,,,,,,,,,,,,,,,,,,,,,,,,None,,621.5907845999579,None,621.5907845999579,None,2022-04-13-14:42:48.662727,621.5969241000712,621.9077250999399,621.5969241000712,621.5969241000712,None,621.5969241000712,621.5969241000712,622.4074586999602,None,,,,22007,0002,2022_Apr_13_1432,localizer,2021.1.3,58.69092239161938,
block,faces,faces054.bmp,,,,,0,86,86,86,,,,,,,,,,,,,,,,,,,,,,,,,,,,,,,,,,,,,,,,,,None,,622.4074586999602,None,622.4074586999602,None,2022-04-13-14:42:49.477935,622.4127034000121,622.7239145000931,622.4127034000121,None,None,622.4127034000121,None,623.225404000096,None,,,,22007,0002,2022_Apr_13_1432,localizer,2021.1.3,58.69092239161938,
block,faces,faces004.bmp,,,,,0,87,87,87,,,,,,,,,,,,,,,,,,,,,,,,,,,,,,,,,,,,,,,,,,None,,623.2590206000954,None,623.2590206000954,None,2022-04-13-14:42:50.333413,623.2751102000475,623.590667600045,623.2751102000475,None,None,623.2751102000475,None,624.0743313000537,None,,,,22007,0002,2022_Apr_13_1432,localizer,2021.1.3,58.69092239161938,
block,faces,faces086.bmp,,,,,0,88,88,88,,,,,,,,,,,,,,,,,,,,,,,,,,,,,,,,,,,,,,,,,,None,,624.0743313000537,None,624.0743313000537,None,2022-04-13-14:42:51.144272,624.0748616000637,624.3740677000023,624.0748616000637,None,None,624.0748616000637,None,624.8744559001177,None,,,,22007,0002,2022_Apr_13_1432,localizer,2021.1.3,58.69092239161938,
block,faces,faces069.bmp,,,,,0,89,89,89,,,,,,,,,,,,,,,,,,,,,,,,,,,,,,,,,,,,,,,,,,None,,624.8744559001177,None,624.8744559001177,None,2022-04-13-14:42:51.947556,624.8771810000762,625.1904945001006,624.8771810000762,624.8771810000762,None,624.8771810000762,624.8771810000762,625.6923094000201,None,,,,22007,0002,2022_Apr_13_1432,localizer,2021.1.3,58.69092239161938,
block_end,faces,faces027.bmp,,,,,0,90,90,90,,,,,,,,,,,,,,,,,,,,,,,,,,,,,,,,,,,,,,,,,,None,,625.6923094000201,None,625.6923094000201,None,2022-04-13-14:42:52.765503,625.695313999895,626.0137760001235,625.695313999895,None,None,625.695313999895,None,626.5071624998934,None,,,,22007,0002,2022_Apr_13_1432,localizer,2021.1.3,58.69092239161938,
null_block,null_block,null_block.bmp,,,,,0,91,91,91,,,,,,,,,,,,,,,,,,,,,,,,,,,,,,,,,,,,,,,,,,t,1.7642377000302076,626.5070641001221,None,626.5070641001221,None,2022-04-13-14:42:55.361256,628.2911295999772,None,628.2911295999772,None,None,628.2911295999772,None,628.2947287999559,None,,,,22007,0002,2022_Apr_13_1432,localizer,2021.1.3,58.69092239161938,
block_start,scrambled,scrambled044.bmp,,,,,0,92,92,92,,,,,,,,,,,,,,,,,,,,,,,,,,,,,,,,,,,,,,,,,,t,1.9637701997999102,640.3074847001117,None,640.3074847001117,None,2022-04-13-14:43:09.361766,642.2916900001001,642.5907330000773,642.2916900001001,None,None,642.2916900001001,None,643.0919902999419,None,,,,22007,0002,2022_Apr_13_1432,localizer,2021.1.3,58.69092239161938,
block,scrambled,scrambled076.bmp,,,,,0,93,93,93,,,,,,,,,,,,,,,,,,,,,,,,,,,,,,,,,,,,,,,,,,None,,643.0919902999419,None,643.0919902999419,None,2022-04-13-14:43:10.166094,643.0959952000994,643.4072861000896,643.0959952000994,643.0959952000994,None,643.0959952000994,643.0959952000994,643.907702899957,None,,,,22007,0002,2022_Apr_13_1432,localizer,2021.1.3,58.69092239161938,
block,scrambled,scrambled067.bmp,,,,,0,94,94,94,,,,,,,,,,,,,,,,,,,,,,,,,,,,,,,,,,,,,,,,,,None,,643.907702899957,None,643.907702899957,None,2022-04-13-14:43:10.977833,643.9180817001034,644.2247768000234,643.9180817001034,None,None,643.9180817001034,None,644.7248718000017,None,,,,22007,0002,2022_Apr_13_1432,localizer,2021.1.3,58.69092239161938,
block,scrambled,scrambled003.bmp,,,,,0,95,95,95,,,,,,,,,,,,,,,,,,,,,,,,,,,,,,,,,,,,,,,,,,None,,644.7248718000017,None,644.7248718000017,None,2022-04-13-14:43:11.796183,644.7267686999403,645.0413999999873,644.7267686999403,None,None,644.7267686999403,None,645.541478000069,None,,,,22007,0002,2022_Apr_13_1432,localizer,2021.1.3,58.69092239161938,
block,scrambled,scrambled063.bmp,,,,,0,96,96,96,,,,,,,,,,,,,,,,,,,,,,,,,,,,,,,,,,,,,,,,,,None,,645.541478000069,None,645.541478000069,None,2022-04-13-14:43:12.612594,645.5521966998931,645.8582049000543,645.5521966998931,None,None,645.5521966998931,None,646.3582952001132,None,,,,22007,0002,2022_Apr_13_1432,localizer,2021.1.3,58.69092239161938,
block,scrambled,scrambled010.bmp,,,,,0,97,97,97,,,,,,,,,,,,,,,,,,,,,,,,,,,,,,,,,,,,,,,,,,None,,646.3582952001132,None,646.3582952001132,None,2022-04-13-14:43:13.430257,646.3607983000111,646.6747779001016,646.3607983000111,None,None,646.3607983000111,None,647.1747835000976,None,,,,22007,0002,2022_Apr_13_1432,localizer,2021.1.3,58.69092239161938,
block,scrambled,scrambled016.bmp,,,,,0,98,98,98,,,,,,,,,,,,,,,,,,,,,,,,,,,,,,,,,,,,,,,,,,None,,647.1747835000976,None,647.1747835000976,None,2022-04-13-14:43:14.246094,647.1865060001146,647.4933029999956,647.1865060001146,None,None,647.1865060001146,None,647.9912841000594,None,,,,22007,0002,2022_Apr_13_1432,localizer,2021.1.3,58.69092239161938,
block,scrambled,scrambled058.bmp,,,,,0,99,99,99,,,,,,,,,,,,,,,,,,,,,,,,,,,,,,,,,,,,,,,,,,None,,647.9912841000594,None,647.9912841000594,None,2022-04-13-14:43:15.062882,647.9918287000619,648.2910823998973,647.9918287000619,None,None,647.9918287000619,None,648.7917077000718,None,,,,22007,0002,2022_Apr_13_1432,localizer,2021.1.3,58.69092239161938,
block,scrambled,scrambled080.bmp,,,,,0,100,100,100,,,,,,,,,,,,,,,,,,,,,,,,,,,,,,,,,,,,,,,,,,None,,648.7917077000718,None,648.7917077000718,None,2022-04-13-14:43:15.865816,648.8018004000187,649.1077743999194,648.8018004000187,648.8018004000187,None,648.8018004000187,648.8018004000187,649.6074354999698,None,,,,22007,0002,2022_Apr_13_1432,localizer,2021.1.3,58.69092239161938,
block,scrambled,scrambled045.bmp,,,,,0,101,101,101,,,,,,,,,,,,,,,,,,,,,,,,,,,,,,,,,,,,,,,,,,None,,649.6074354999698,None,649.6074354999698,None,2022-04-13-14:43:16.677567,649.6162467999384,649.9246014999226,649.6162467999384,None,None,649.6162467999384,None,650.4256587998941,None,,,,22007,0002,2022_Apr_13_1432,localizer,2021.1.3,58.69092239161938,
block,scrambled,scrambled074.bmp,,,,,0,102,102,102,,,,,,,,,,,,,,,,,,,,,,,,,,,,,,,,,,,,,,,,,,None,,650.4256587998941,None,650.4256587998941,None,2022-04-13-14:43:17.498953,650.4395731999539,650.7407374000177,650.4395731999539,None,None,650.4395731999539,None,651.2412932998966,None,,,,22007,0002,2022_Apr_13_1432,localizer,2021.1.3,58.69092239161938,
block,scrambled,scrambled002.bmp,,,,,0,103,103,103,,,,,,,,,,,,,,,,,,,,,,,,,,,,,,,,,,,,,,,,,,None,,651.2412932998966,None,651.2412932998966,None,2022-04-13-14:43:18.312635,651.2417665000539,651.5412590000778,651.2417665000539,None,None,651.2417665000539,None,652.0407982998993,None,,,,22007,0002,2022_Apr_13_1432,localizer,2021.1.3,58.69092239161938,
block,scrambled,scrambled046.bmp,,,,,0,104,104,104,,,,,,,,,,,,,,,,,,,,,,,,,,,,,,,,,,,,,,,,,,None,,652.0407982998993,None,652.0407982998993,None,2022-04-13-14:43:19.111926,652.0497749999631,652.3574818999041,652.0497749999631,652.0497749999631,None,652.0497749999631,652.0497749999631,652.8577672999352,None,,,,22007,0002,2022_Apr_13_1432,localizer,2021.1.3,58.69092239161938,
block,scrambled,scrambled047.bmp,,,,,0,105,105,105,,,,,,,,,,,,,,,,,,,,,,,,,,,,,,,,,,,,,,,,,,None,,652.8577672999352,None,652.8577672999352,None,2022-04-13-14:43:19.927894,652.8584092000965,653.1581222999375,652.8584092000965,None,None,652.8584092000965,None,653.6587044999003,None,,,,22007,0002,2022_Apr_13_1432,localizer,2021.1.3,58.69092239161938,
block_end,scrambled,scrambled039.bmp,,,,,0,106,106,106,,,,,,,,,,,,,,,,,,,,,,,,,,,,,,,,,,,,,,,,,,None,,653.6587044999003,None,653.6587044999003,None,2022-04-13-14:43:20.732809,653.6623887000605,653.9739163999911,653.6623887000605,653.6623887000605,None,653.6623887000605,653.6623887000605,654.4746877001132,None,,,,22007,0002,2022_Apr_13_1432,localizer,2021.1.3,58.69092239161938,
block_start,scenes,scenes008.bmp,,,,,0,107,107,107,,,,,,,,,,,,,,,,,,,,,,,,,,,,,,,,,,,,,,,,,,t,1.7973460999783128,654.4744341999758,None,654.4744341999758,None,2022-04-13-14:43:23.361314,656.300549000036,656.6088664999697,656.300549000036,None,None,656.300549000036,None,657.1081624000333,None,,,,22007,0002,2022_Apr_13_1432,localizer,2021.1.3,58.69092239161938,
block,scenes,scenes052.bmp,,,,,0,108,108,108,,,,,,,,,,,,,,,,,,,,,,,,,,,,,,,,,,,,,,,,,,None,,657.1081624000333,None,657.1081624000333,None,2022-04-13-14:43:24.177839,657.1081010999624,657.4078965999652,657.1081010999624,None,None,657.1081010999624,None,657.9087678999174,None,,,,22007,0002,2022_Apr_13_1432,localizer,2021.1.3,58.69092239161938,
block,scenes,scenes085.bmp,,,,,0,109,109,109,,,,,,,,,,,,,,,,,,,,,,,,,,,,,,,,,,,,,,,,,,None,,657.9087678999174,None,657.9087678999174,None,2022-04-13-14:43:24.982907,657.9230784000829,658.2243812000379,657.9230784000829,657.9230784000829,None,657.9230784000829,657.9230784000829,658.7245333999861,None,,,,22007,0002,2022_Apr_13_1432,localizer,2021.1.3,58.69092239161938,
block,scenes,scenes027.bmp,,,,,0,110,110,110,,,,,,,,,,,,,,,,,,,,,,,,,,,,,,,,,,,,,,,,,,None,,658.7245333999861,None,658.7245333999861,None,2022-04-13-14:43:25.794657,658.725145699922,659.0248344999272,658.725145699922,None,None,658.725145699922,None,659.5250860999338,None,,,,22007,0002,2022_Apr_13_1432,localizer,2021.1.3,58.69092239161938,
block,scenes,scenes087.bmp,,,,,0,111,111,111,,,,,,,,,,,,,,,,,,,,,,,,,,,,,,,,,,,,,,,,,,None,,659.5250860999338,None,659.5250860999338,None,2022-04-13-14:43:26.598384,659.5380241000094,659.8408532000612,659.5380241000094,659.5380241000094,None,659.5380241000094,659.5380241000094,660.3455597001127,None,,,,22007,0002,2022_Apr_13_1432,localizer,2021.1.3,58.69092239161938,
block,scenes,scenes087.bmp,,,,,0,112,112,112,,,,,,,,,,,,,,,,,,,,,,,,,,,,,,,,,,,,,,,,,,None,,660.3455597001127,None,660.3455597001127,None,2022-04-13-14:43:27.419608,660.3484485999215,660.6584821001161,660.3484485999215,None,y,660.3484485999215,None,661.1589536000508,None,0.6560754999518394,,,22007,0002,2022_Apr_13_1432,localizer,2021.1.3,58.69092239161938,
block,scenes,scenes028.bmp,,,,,0,113,113,113,,,,,,,,,,,,,,,,,,,,,,,,,,,,,,,,,,,,,,,,,,None,,661.1589536000508,None,661.1589536000508,None,2022-04-13-14:43:28.232344,661.1729935000185,661.474348400021,661.1729935000185,None,None,661.1729935000185,None,661.9747789999935,None,,,,22007,0002,2022_Apr_13_1432,localizer,2021.1.3,58.69092239161938,
block,scenes,scenes084.bmp,,,,,0,114,114,114,,,,,,,,,,,,,,,,,,,,,,,,,,,,,,,,,,,,,,,,,,None,,661.9747789999935,None,661.9747789999935,None,2022-04-13-14:43:29.046089,661.9752929001115,662.2747148000635,661.9752929001115,None,None,661.9752929001115,None,662.7748873000498,None,,,,22007,0002,2022_Apr_13_1432,localizer,2021.1.3,58.69092239161938,
block,scenes,scenes069.bmp,,,,,0,115,115,115,,,,,,,,,,,,,,,,,,,,,,,,,,,,,,,,,,,,,,,,,,None,,662.7748873000498,None,662.7748873000498,None,2022-04-13-14:43:29.847903,662.7884368000086,663.0913257999346,662.7884368000086,662.7884368000086,None,662.7884368000086,662.7884368000086,663.5911974999588,None,,,,22007,0002,2022_Apr_13_1432,localizer,2021.1.3,58.69092239161938,
block,scenes,scenes070.bmp,,,,,0,116,116,116,,,,,,,,,,,,,,,,,,,,,,,,,,,,,,,,,,,,,,,,,,None,,663.5911974999588,None,663.5911974999588,None,2022-04-13-14:43:30.661325,663.5917301001027,663.8911331999116,663.5917301001027,None,None,663.5917301001027,None,664.3919264999683,None,,,,22007,0002,2022_Apr_13_1432,localizer,2021.1.3,58.69092239161938,
block,scenes,scenes016.bmp,,,,,0,117,117,117,,,,,,,,,,,,,,,,,,,,,,,,,,,,,,,,,,,,,,,,,,None,,664.3919264999683,None,664.3919264999683,None,2022-04-13-14:43:31.466134,664.4116028000135,664.7242457999382,664.4116028000135,664.4116028000135,None,664.4116028000135,664.4116028000135,665.2076531999744,None,,,,22007,0002,2022_Apr_13_1432,localizer,2021.1.3,58.69092239161938,
block,scenes,scenes079.bmp,,,,,0,118,118,118,,,,,,,,,,,,,,,,,,,,,,,,,,,,,,,,,,,,,,,,,,None,,665.2076531999744,None,665.2076531999744,None,2022-04-13-14:43:32.277785,665.2125921999104,665.5244376999326,665.2125921999104,None,None,665.2125921999104,None,666.0245841000694,None,,,,22007,0002,2022_Apr_13_1432,localizer,2021.1.3,58.69092239161938,
block,scenes,scenes081.bmp,,,,,0,119,119,119,,,,,,,,,,,,,,,,,,,,,,,,,,,,,,,,,,,,,,,,,,None,,666.0245841000694,None,666.0245841000694,None,2022-04-13-14:43:33.094920,666.0251480001025,666.3241896999534,666.0251480001025,None,None,666.0251480001025,None,666.8245241001248,None,,,,22007,0002,2022_Apr_13_1432,localizer,2021.1.3,58.69092239161938,
block,scenes,scenes041.bmp,,,,,0,120,120,120,,,,,,,,,,,,,,,,,,,,,,,,,,,,,,,,,,,,,,,,,,None,,666.8245241001248,None,666.8245241001248,None,2022-04-13-14:43:33.896656,666.8303523999639,667.1409126000945,666.8303523999639,666.8303523999639,None,666.8303523999639,666.8303523999639,667.6412309999112,None,,,,22007,0002,2022_Apr_13_1432,localizer,2021.1.3,58.69092239161938,
block_end,scenes,scenes057.bmp,,,,,0,121,121,121,,,,,,,,,,,,,,,,,,,,,,,,,,,,,,,,,,,,,,,,,,None,,667.6412309999112,None,667.6412309999112,None,2022-04-13-14:43:34.711358,667.6516054999083,667.9575243999716,667.6516054999083,None,None,667.6516054999083,None,668.4583469999022,None,,,,22007,0002,2022_Apr_13_1432,localizer,2021.1.3,58.69092239161938,
block_start,faces,faces077.bmp,,,,,0,122,122,122,,,,,,,,,,,,,,,,,,,,,,,,,,,,,,,,,,,,,,,,,,t,1.8132269999478012,668.4581643000711,None,668.4581643000711,None,2022-04-13-14:43:37.360417,670.2925269999541,670.5920148000587,670.2925269999541,None,None,670.2925269999541,None,671.0918155000079,None,,,,22007,0002,2022_Apr_13_1432,localizer,2021.1.3,58.69092239161938,
block,faces,faces040.bmp,,,,,0,123,123,123,,,,,,,,,,,,,,,,,,,,,,,,,,,,,,,,,,,,,,,,,,None,,671.0918155000079,None,671.0918155000079,None,2022-04-13-14:43:38.165098,671.1061158999801,671.4076501999516,671.1061158999801,671.1061158999801,None,671.1061158999801,671.1061158999801,671.9084672000724,None,,,,22007,0002,2022_Apr_13_1432,localizer,2021.1.3,58.69092239161938,
block,faces,faces024.bmp,,,,,0,124,124,124,,,,,,,,,,,,,,,,,,,,,,,,,,,,,,,,,,,,,,,,,,None,,671.9084672000724,None,671.9084672000724,None,2022-04-13-14:43:38.979584,671.9103802999016,672.2245491999201,671.9103802999016,None,None,671.9103802999016,None,672.7246535000857,None,,,,22007,0002,2022_Apr_13_1432,localizer,2021.1.3,58.69092239161938,
block,faces,faces073.bmp,,,,,0,125,125,125,,,,,,,,,,,,,,,,,,,,,,,,,,,,,,,,,,,,,,,,,,None,,672.7246535000857,None,672.7246535000857,None,2022-04-13-14:43:39.794864,672.7252907999791,673.024039800046,672.7252907999791,None,None,672.7252907999791,None,673.5249394000973,None,,,,22007,0002,2022_Apr_13_1432,localizer,2021.1.3,58.69092239161938,
block,faces,faces014.bmp,,,,,0,126,126,126,,,,,,,,,,,,,,,,,,,,,,,,,,,,,,,,,,,,,,,,,,None,,673.5249394000973,None,673.5249394000973,None,2022-04-13-14:43:40.598260,673.5379961999133,673.8411403000355,673.5379961999133,673.5379961999133,None,673.5379961999133,673.5379961999133,674.3423483001068,None,,,,22007,0002,2022_Apr_13_1432,localizer,2021.1.3,58.69092239161938,
block,faces,faces018.bmp,,,,,0,127,127,127,,,,,,,,,,,,,,,,,,,,,,,,,,,,,,,,,,,,,,,,,,None,,674.3423483001068,None,674.3423483001068,None,2022-04-13-14:43:41.415546,674.3464349000715,674.6572219999507,674.3464349000715,None,None,674.3464349000715,None,675.1583118000533,None,,,,22007,0002,2022_Apr_13_1432,localizer,2021.1.3,58.69092239161938,
block,faces,faces021.bmp,,,,,0,128,128,128,,,,,,,,,,,,,,,,,,,,,,,,,,,,,,,,,,,,,,,,,,None,,675.1583118000533,None,675.1583118000533,None,2022-04-13-14:43:42.229647,675.1602207999676,675.4748424999416,675.1602207999676,None,None,675.1602207999676,None,675.9746825000736,None,,,,22007,0002,2022_Apr_13_1432,localizer,2021.1.3,58.69092239161938,
block,faces,faces001.bmp,,,,,0,129,129,129,,,,,,,,,,,,,,,,,,,,,,,,,,,,,,,,,,,,,,,,,,None,,675.9746825000736,None,675.9746825000736,None,2022-04-13-14:43:43.044827,675.9854989000596,676.2921988999005,675.9854989000596,None,None,675.9854989000596,None,676.7924192999023,None,,,,22007,0002,2022_Apr_13_1432,localizer,2021.1.3,58.69092239161938,
block,faces,faces080.bmp,,,,,0,130,130,130,,,,,,,,,,,,,,,,,,,,,,,,,,,,,,,,,,,,,,,,,,None,,676.7924192999023,None,676.7924192999023,None,2022-04-13-14:43:43.866599,676.8108562000562,677.1242706000339,676.8108562000562,None,None,676.8108562000562,None,677.6080472000874,None,,,,22007,0002,2022_Apr_13_1432,localizer,2021.1.3,58.69092239161938,
block,faces,faces020.bmp,,,,,0,131,131,131,,,,,,,,,,,,,,,,,,,,,,,,,,,,,,,,,,,,,,,,,,None,,677.6080472000874,None,677.6080472000874,None,2022-04-13-14:43:44.679067,677.609219300095,677.9244516999461,677.609219300095,None,None,677.609219300095,None,678.4246895000804,None,,,,22007,0002,2022_Apr_13_1432,localizer,2021.1.3,58.69092239161938,
block,faces,faces019.bmp,,,,,0,132,132,132,,,,,,,,,,,,,,,,,,,,,,,,,,,,,,,,,,,,,,,,,,None,,678.4246895000804,None,678.4246895000804,None,2022-04-13-14:43:45.494814,678.4252758999355,678.7245622000191,678.4252758999355,None,None,678.4252758999355,None,679.2250388001091,None,,,,22007,0002,2022_Apr_13_1432,localizer,2021.1.3,58.69092239161938,
block,faces,faces023.bmp,,,,,0,133,133,133,,,,,,,,,,,,,,,,,,,,,,,,,,,,,,,,,,,,,,,,,,None,,679.2250388001091,None,679.2250388001091,None,2022-04-13-14:43:46.298149,679.2402572000865,679.540649499977,679.2402572000865,679.2402572000865,None,679.2402572000865,679.2402572000865,680.0424488000106,None,,,,22007,0002,2022_Apr_13_1432,localizer,2021.1.3,58.69092239161938,
block,faces,faces063.bmp,,,,,0,134,134,134,,,,,,,,,,,,,,,,,,,,,,,,,,,,,,,,,,,,,,,,,,None,,680.0424488000106,None,680.0424488000106,None,2022-04-13-14:43:47.116562,680.0579204000533,680.3576154001057,680.0579204000533,None,None,680.0579204000533,None,680.8578254999127,None,,,,22007,0002,2022_Apr_13_1432,localizer,2021.1.3,58.69092239161938,
block,faces,faces022.bmp,,,,,0,135,135,135,,,,,,,,,,,,,,,,,,,,,,,,,,,,,,,,,,,,,,,,,,None,,680.8578254999127,None,680.8578254999127,None,2022-04-13-14:43:47.928071,680.8585711000487,681.157637400087,680.8585711000487,None,None,680.8585711000487,None,681.6578794000204,None,,,,22007,0002,2022_Apr_13_1432,localizer,2021.1.3,58.69092239161938,
block_end,faces,faces041.bmp,,,,,0,136,136,136,,,,,,,,,,,,,,,,,,,,,,,,,,,,,,,,,,,,,,,,,,None,,681.6578794000204,None,681.6578794000204,None,2022-04-13-14:43:48.730053,681.6699715000577,681.9745920000132,681.6699715000577,681.6699715000577,None,681.6699715000577,681.6699715000577,682.4746445000171,None,,,,22007,0002,2022_Apr_13_1432,localizer,2021.1.3,58.69092239161938,
block_start,scenes,scenes080.bmp,,,,,0,137,137,137,,,,,,,,,,,,,,,,,,,,,,,,,,,,,,,,,,,,,,,,,,t,1.7967719999141991,682.4744722000323,None,682.4744722000323,None,2022-04-13-14:43:51.363107,684.2940589000937,684.6074151999783,684.2940589000937,None,None,684.2940589000937,None,685.108112300001,None,,,,22007,0002,2022_Apr_13_1432,localizer,2021.1.3,58.69092239161938,
block,scenes,scenes028.bmp,,,,,0,138,138,138,,,,,,,,,,,,,,,,,,,,,,,,,,,,,,,,,,,,,,,,,,None,,685.108112300001,None,685.108112300001,None,2022-04-13-14:43:52.178252,685.1087684000377,685.4077763999812,685.1087684000377,None,None,685.1087684000377,None,685.9089715000707,None,,,,22007,0002,2022_Apr_13_1432,localizer,2021.1.3,58.69092239161938,
block,scenes,scenes065.bmp,,,,,0,139,139,139,,,,,,,,,,,,,,,,,,,,,,,,,,,,,,,,,,,,,,,,,,None,,685.9089715000707,None,685.9089715000707,None,2022-04-13-14:43:52.984148,685.914135399973,686.2250741000753,685.914135399973,685.914135399973,None,685.914135399973,685.914135399973,686.724624599982,None,,,,22007,0002,2022_Apr_13_1432,localizer,2021.1.3,58.69092239161938,
block,scenes,scenes090.bmp,,,,,0,140,140,140,,,,,,,,,,,,,,,,,,,,,,,,,,,,,,,,,,,,,,,,,,None,,686.724624599982,None,686.724624599982,None,2022-04-13-14:43:53.794749,686.7252263000701,687.0245109000243,686.7252263000701,None,None,686.7252263000701,None,687.5247069999575,None,,,,22007,0002,2022_Apr_13_1432,localizer,2021.1.3,58.69092239161938,
block,scenes,scenes038.bmp,,,,,0,141,141,141,,,,,,,,,,,,,,,,,,,,,,,,,,,,,,,,,,,,,,,,,,None,,687.5247069999575,None,687.5247069999575,None,2022-04-13-14:43:54.597301,687.5265494999476,687.8407856000122,687.5265494999476,687.5265494999476,None,687.5265494999476,687.5265494999476,688.3407920000143,None,,,,22007,0002,2022_Apr_13_1432,localizer,2021.1.3,58.69092239161938,
block,scenes,scenes027.bmp,,,,,0,142,142,142,,,,,,,,,,,,,,,,,,,,,,,,,,,,,,,,,,,,,,,,,,None,,688.3407920000143,None,688.3407920000143,None,2022-04-13-14:43:55.411924,688.3417813000269,688.6414330999833,688.3417813000269,None,None,688.3417813000269,None,689.1484219000674,None,,,,22007,0002,2022_Apr_13_1432,localizer,2021.1.3,58.69092239161938,
block,scenes,scenes001.bmp,,,,,0,143,143,143,,,,,,,,,,,,,,,,,,,,,,,,,,,,,,,,,,,,,,,,,,None,,689.1484219000674,None,689.1484219000674,None,2022-04-13-14:43:56.222450,689.1640938001219,689.4739178000018,689.1640938001219,None,None,689.1640938001219,None,689.9575337001122,None,,,,22007,0002,2022_Apr_13_1432,localizer,2021.1.3,58.69092239161938,
block,scenes,scenes067.bmp,,,,,0,144,144,144,,,,,,,,,,,,,,,,,,,,,,,,,,,,,,,,,,,,,,,,,,None,,689.9575337001122,None,689.9575337001122,None,2022-04-13-14:43:57.028636,689.9587395000271,690.2572381999344,689.9587395000271,None,None,689.9587395000271,None,690.7744951000902,None,,,,22007,0002,2022_Apr_13_1432,localizer,2021.1.3,58.69092239161938,
block,scenes,scenes073.bmp,,,,,0,145,145,145,,,,,,,,,,,,,,,,,,,,,,,,,,,,,,,,,,,,,,,,,,None,,690.7744951000902,None,690.7744951000902,None,2022-04-13-14:43:57.844209,690.7855700999498,691.0908304001205,690.7855700999498,None,None,690.7855700999498,None,691.590814399952,None,,,,22007,0002,2022_Apr_13_1432,localizer,2021.1.3,58.69092239161938,
block,scenes,scenes007.bmp,,,,,0,146,146,146,,,,,,,,,,,,,,,,,,,,,,,,,,,,,,,,,,,,,,,,,,None,,691.590814399952,None,691.590814399952,None,2022-04-13-14:43:58.659997,691.6039352999069,691.9073336999863,691.6039352999069,None,None,691.6039352999069,None,692.4090228999964,None,,,,22007,0002,2022_Apr_13_1432,localizer,2021.1.3,58.69092239161938,
block,scenes,scenes003.bmp,,,,,0,147,147,147,,,,,,,,,,,,,,,,,,,,,,,,,,,,,,,,,,,,,,,,,,None,,692.4090228999964,None,692.4090228999964,None,2022-04-13-14:43:59.481311,692.4187521999702,692.7244369999971,692.4187521999702,None,None,692.4187521999702,None,693.2245168000925,None,,,,22007,0002,2022_Apr_13_1432,localizer,2021.1.3,58.69092239161938,
block,scenes,scenes053.bmp,,,,,0,148,148,148,,,,,,,,,,,,,,,,,,,,,,,,,,,,,,,,,,,,,,,,,,None,,693.2245168000925,None,693.2245168000925,None,2022-04-13-14:44:00.294646,693.2252072999254,693.5241636999417,693.2252072999254,None,None,693.2252072999254,None,694.0248112999368,None,,,,22007,0002,2022_Apr_13_1432,localizer,2021.1.3,58.69092239161938,
block,scenes,scenes024.bmp,,,,,0,149,149,149,,,,,,,,,,,,,,,,,,,,,,,,,,,,,,,,,,,,,,,,,,None,,694.0248112999368,None,694.0248112999368,None,2022-04-13-14:44:01.097965,694.0366940000094,694.3411300999578,694.0366940000094,694.0366940000094,None,694.0366940000094,694.0366940000094,694.8415612000506,None,,,,22007,0002,2022_Apr_13_1432,localizer,2021.1.3,58.69092239161938,
block,scenes,scenes017.bmp,,,,,0,150,150,150,,,,,,,,,,,,,,,,,,,,,,,,,,,,,,,,,,,,,,,,,,None,,694.8415612000506,None,694.8415612000506,None,2022-04-13-14:44:01.912892,694.8420869000256,695.141701699933,694.8420869000256,None,None,694.8420869000256,None,695.6414310000371,None,,,,22007,0002,2022_Apr_13_1432,localizer,2021.1.3,58.69092239161938,
block_end,scenes,scenes060.bmp,,,,,0,151,151,151,,,,,,,,,,,,,,,,,,,,,,,,,,,,,,,,,,,,,,,,,,None,,695.6414310000371,None,695.6414310000371,None,2022-04-13-14:44:02.714747,695.655057700118,695.9576495001093,695.655057700118,695.655057700118,None,695.655057700118,695.655057700118,696.4599745999556,None,,,,22007,0002,2022_Apr_13_1432,localizer,2021.1.3,58.69092239161938,
block_start,scrambled,scrambled043.bmp,,,,,0,152,152,152,,,,,,,,,,,,,,,,,,,,,,,,,,,,,,,,,,,,,,,,,,t,1.8108732998371124,696.460465000011,None,696.460465000011,None,2022-04-13-14:44:05.361884,698.2919713999145,698.5930333998986,698.2919713999145,None,None,698.2919713999145,None,699.0919932999648,None,,,,22007,0002,2022_Apr_13_1432,localizer,2021.1.3,58.69092239161938,
block,scrambled,scrambled013.bmp,,,,,0,153,153,153,,,,,,,,,,,,,,,,,,,,,,,,,,,,,,,,,,,,,,,,,,None,,699.0919932999648,None,699.0919932999648,None,2022-04-13-14:44:06.164946,699.1017092000693,699.4083213999402,699.1017092000693,699.1017092000693,None,699.1017092000693,699.1017092000693,699.9092560000252,None,,,,22007,0002,2022_Apr_13_1432,localizer,2021.1.3,58.69092239161938,
block,scrambled,scrambled077.bmp,,,,,0,154,154,154,,,,,,,,,,,,,,,,,,,,,,,,,,,,,,,,,,,,,,,,,,None,,699.9092560000252,None,699.9092560000252,None,2022-04-13-14:44:06.981558,699.923021200113,700.2244275999255,699.923021200113,None,None,699.923021200113,None,700.7245806001126,None,,,,22007,0002,2022_Apr_13_1432,localizer,2021.1.3,58.69092239161938,
block,scrambled,scrambled031.bmp,,,,,0,155,155,155,,,,,,,,,,,,,,,,,,,,,,,,,,,,,,,,,,,,,,,,,,None,,700.7245806001126,None,700.7245806001126,None,2022-04-13-14:44:07.794875,700.7253284999169,701.0242685000412,700.7253284999169,None,None,700.7253284999169,None,701.5248005000874,None,,,,22007,0002,2022_Apr_13_1432,localizer,2021.1.3,58.69092239161938,
block,scrambled,scrambled034.bmp,,,,,0,156,156,156,,,,,,,,,,,,,,,,,,,,,,,,,,,,,,,,,,,,,,,,,,None,,701.5248005000874,None,701.5248005000874,None,2022-04-13-14:44:08.596639,701.535581599921,701.8411809999961,701.535581599921,701.535581599921,None,701.535581599921,701.535581599921,702.3412417999468,None,,,,22007,0002,2022_Apr_13_1432,localizer,2021.1.3,58.69092239161938,
block,scrambled,scrambled037.bmp,,,,,0,157,157,157,,,,,,,,,,,,,,,,,,,,,,,,,,,,,,,,,,,,,,,,,,None,,702.3412417999468,None,702.3412417999468,None,2022-04-13-14:44:09.413363,702.3422598999459,702.6575817000121,702.3422598999459,None,None,702.3422598999459,None,703.1416112998966,None,,,,22007,0002,2022_Apr_13_1432,localizer,2021.1.3,58.69092239161938,
block,scrambled,scrambled004.bmp,,,,,0,158,158,158,,,,,,,,,,,,,,,,,,,,,,,,,,,,,,,,,,,,,,,,,,None,,703.1416112998966,None,703.1416112998966,None,2022-04-13-14:44:10.213305,703.1425509001128,703.441410999978,703.1425509001128,703.1425509001128,None,703.1425509001128,703.1425509001128,703.958141599968,None,,,,22007,0002,2022_Apr_13_1432,localizer,2021.1.3,58.69092239161938,
block,scrambled,scrambled075.bmp,,,,,0,159,159,159,,,,,,,,,,,,,,,,,,,,,,,,,,,,,,,,,,,,,,,,,,None,,703.958141599968,None,703.958141599968,None,2022-04-13-14:44:11.029493,703.959498600103,704.2745481000748,703.959498600103,None,None,703.959498600103,None,704.7747377000749,None,,,,22007,0002,2022_Apr_13_1432,localizer,2021.1.3,58.69092239161938,
block,scrambled,scrambled012.bmp,,,,,0,160,160,160,,,,,,,,,,,,,,,,,,,,,,,,,,,,,,,,,,,,,,,,,,None,,704.7747377000749,None,704.7747377000749,None,2022-04-13-14:44:11.846095,704.77539970004,705.0745918001048,704.77539970004,None,None,704.77539970004,None,705.5913532000966,None,,,,22007,0002,2022_Apr_13_1432,localizer,2021.1.3,58.69092239161938,
block,scrambled,scrambled008.bmp,,,,,0,161,161,161,,,,,,,,,,,,,,,,,,,,,,,,,,,,,,,,,,,,,,,,,,None,,705.5913532000966,None,705.5913532000966,None,2022-04-13-14:44:12.661736,705.5918572000228,705.8911347999237,705.5918572000228,None,None,705.5918572000228,None,706.3913164000958,None,,,,22007,0002,2022_Apr_13_1432,localizer,2021.1.3,58.69092239161938,
block,scrambled,scrambled061.bmp,,,,,0,162,162,162,,,,,,,,,,,,,,,,,,,,,,,,,,,,,,,,,,,,,,,,,,None,,706.3913164000958,None,706.3913164000958,None,2022-04-13-14:44:13.464646,706.4037079000846,706.7081319000572,706.4037079000846,706.4037079000846,None,706.4037079000846,706.4037079000846,707.2080898000393,None,,,,22007,0002,2022_Apr_13_1432,localizer,2021.1.3,58.69092239161938,
block,scrambled,scrambled026.bmp,,,,,0,163,163,163,,,,,,,,,,,,,,,,,,,,,,,,,,,,,,,,,,,,,,,,,,None,,707.2080898000393,None,707.2080898000393,None,2022-04-13-14:44:14.278217,707.2087711999193,707.5080311000347,707.2087711999193,None,None,707.2087711999193,None,708.0084518999327,None,,,,22007,0002,2022_Apr_13_1432,localizer,2021.1.3,58.69092239161938,
block,scrambled,scrambled074.bmp,,,,,0,164,164,164,,,,,,,,,,,,,,,,,,,,,,,,,,,,,,,,,,,,,,,,,,None,,708.0084518999327,None,708.0084518999327,None,2022-04-13-14:44:15.081534,708.0113232999574,708.3242399001028,708.0113232999574,708.0113232999574,None,708.0113232999574,708.0113232999574,708.8309246999677,None,,,,22007,0002,2022_Apr_13_1432,localizer,2021.1.3,58.69092239161938,
block,scrambled,scrambled074.bmp,,,,,0,165,165,165,,,,,,,,,,,,,,,,,,,,,,,,,,,,,,,,,,,,,,,,,,None,,708.8309246999677,None,708.8309246999677,None,2022-04-13-14:44:15.909014,708.8375484000426,709.1411421999801,708.8375484000426,None,y,708.8375484000426,None,709.64113480011,None,0.6889210001099855,,,22007,0002,2022_Apr_13_1432,localizer,2021.1.3,58.69092239161938,
block_end,scrambled,scrambled018.bmp,,,,,0,166,166,166,,,,,,,,,,,,,,,,,,,,,,,,,,,,,,,,,,,,,,,,,,None,,709.64113480011,None,709.64113480011,None,2022-04-13-14:44:16.711426,709.649584100116,709.9580057999119,709.649584100116,None,None,709.649584100116,None,710.4579974000342,None,,,,22007,0002,2022_Apr_13_1432,localizer,2021.1.3,58.69092239161938,
null_block,null_block,null_block.bmp,,,,,0,167,167,167,,,,,,,,,,,,,,,,,,,,,,,,,,,,,,,,,,,,,,,,,,t,1.8135492999572307,710.457871499937,None,710.457871499937,None,2022-04-13-14:44:19.367659,712.3085305999498,None,712.3085305999498,None,None,712.3085305999498,None,712.3089628000744,None,,,,22007,0002,2022_Apr_13_1432,localizer,2021.1.3,58.69092239161938,
block_start,objects,objects004.bmp,,,,,0,168,168,168,,,,,,,,,,,,,,,,,,,,,,,,,,,,,,,,,,,,,,,,,,t,1.9627805999480188,724.3085243001115,None,724.3085243001115,None,2022-04-13-14:44:33.365373,726.3043343999889,726.6080273000989,726.3043343999889,None,None,726.3043343999889,None,727.1079341999255,None,,,,22007,0002,2022_Apr_13_1432,localizer,2021.1.3,58.69092239161938,
block,objects,objects082.bmp,,,,,0,169,169,169,,,,,,,,,,,,,,,,,,,,,,,,,,,,,,,,,,,,,,,,,,None,,727.1079341999255,None,727.1079341999255,None,2022-04-13-14:44:34.178066,727.1086421001237,727.4078780999407,727.1086421001237,None,None,727.1086421001237,None,727.908397899894,None,,,,22007,0002,2022_Apr_13_1432,localizer,2021.1.3,58.69092239161938,
block,objects,objects006.bmp,,,,,0,170,170,170,,,,,,,,,,,,,,,,,,,,,,,,,,,,,,,,,,,,,,,,,,None,,727.908397899894,None,727.908397899894,None,2022-04-13-14:44:34.981110,727.9212476999965,728.2246640999801,727.9212476999965,727.9212476999965,None,727.9212476999965,727.9212476999965,728.7253513999283,None,,,,22007,0002,2022_Apr_13_1432,localizer,2021.1.3,58.69092239161938,
block,objects,objects068.bmp,,,,,0,171,171,171,,,,,,,,,,,,,,,,,,,,,,,,,,,,,,,,,,,,,,,,,,None,,728.7253513999283,None,728.7253513999283,None,2022-04-13-14:44:35.794485,728.7254369999282,729.0408183000982,728.7254369999282,None,None,728.7254369999282,None,729.5249650999438,None,,,,22007,0002,2022_Apr_13_1432,localizer,2021.1.3,58.69092239161938,
block,objects,objects072.bmp,,,,,0,172,172,172,,,,,,,,,,,,,,,,,,,,,,,,,,,,,,,,,,,,,,,,,,None,,729.5249650999438,None,729.5249650999438,None,2022-04-13-14:44:36.598021,729.5354802999645,729.8418382999953,729.5354802999645,729.5354802999645,None,729.5354802999645,729.5354802999645,730.3421561000403,None,,,,22007,0002,2022_Apr_13_1432,localizer,2021.1.3,58.69092239161938,
block,objects,objects071.bmp,,,,,0,173,173,173,,,,,,,,,,,,,,,,,,,,,,,,,,,,,,,,,,,,,,,,,,None,,730.3421561000403,None,730.3421561000403,None,2022-04-13-14:44:37.413848,730.3546923000831,730.6577860999387,730.3546923000831,None,None,730.3546923000831,None,731.158289900003,None,,,,22007,0002,2022_Apr_13_1432,localizer,2021.1.3,58.69092239161938,
block,objects,objects085.bmp,,,,,0,174,174,174,,,,,,,,,,,,,,,,,,,,,,,,,,,,,,,,,,,,,,,,,,None,,731.158289900003,None,731.158289900003,None,2022-04-13-14:44:38.229652,731.1589099001139,731.4582094000652,731.1589099001139,None,None,731.1589099001139,None,731.9583610998932,None,,,,22007,0002,2022_Apr_13_1432,localizer,2021.1.3,58.69092239161938,
block,objects,objects084.bmp,,,,,0,175,175,175,,,,,,,,,,,,,,,,,,,,,,,,,,,,,,,,,,,,,,,,,,None,,731.9583610998932,None,731.9583610998932,None,2022-04-13-14:44:39.031190,731.9659653999843,732.274787100032,731.9659653999843,731.9659653999843,None,731.9659653999843,731.9659653999843,732.7754200000315,None,,,,22007,0002,2022_Apr_13_1432,localizer,2021.1.3,58.69092239161938,
block,objects,objects063.bmp,,,,,0,176,176,176,,,,,,,,,,,,,,,,,,,,,,,,,,,,,,,,,,,,,,,,,,None,,732.7754200000315,None,732.7754200000315,None,2022-04-13-14:44:39.846057,732.7752513999585,733.0960494000465,732.7752513999585,None,None,732.7752513999585,None,733.5917410000227,None,,,,22007,0002,2022_Apr_13_1432,localizer,2021.1.3,58.69092239161938,
block,objects,objects043.bmp,,,,,0,177,177,177,,,,,,,,,,,,,,,,,,,,,,,,,,,,,,,,,,,,,,,,,,None,,733.5917410000227,None,733.5917410000227,None,2022-04-13-14:44:40.661918,733.5939857000485,733.9075444000773,733.5939857000485,None,None,733.5939857000485,None,734.4077884999103,None,,,,22007,0002,2022_Apr_13_1432,localizer,2021.1.3,58.69092239161938,
block,objects,objects074.bmp,,,,,0,178,178,178,,,,,,,,,,,,,,,,,,,,,,,,,,,,,,,,,,,,,,,,,,None,,734.4077884999103,None,734.4077884999103,None,2022-04-13-14:44:41.478667,734.4089220000897,734.7077299999073,734.4089220000897,None,None,734.4089220000897,None,735.2255961000453,None,,,,22007,0002,2022_Apr_13_1432,localizer,2021.1.3,58.69092239161938,
block,objects,objects083.bmp,,,,,0,179,179,179,,,,,,,,,,,,,,,,,,,,,,,,,,,,,,,,,,,,,,,,,,None,,735.2255961000453,None,735.2255961000453,None,2022-04-13-14:44:42.295557,735.2313955000136,735.5415394001175,735.2313955000136,None,None,735.2313955000136,None,736.0412060999777,None,,,,22007,0002,2022_Apr_13_1432,localizer,2021.1.3,58.69092239161938,
block,objects,objects077.bmp,,,,,0,180,180,180,,,,,,,,,,,,,,,,,,,,,,,,,,,,,,,,,,,,,,,,,,None,,736.0412060999777,None,736.0412060999777,None,2022-04-13-14:44:43.110826,736.0420458000153,736.3572408000473,736.0420458000153,None,None,736.0420458000153,None,736.858121100068,None,,,,22007,0002,2022_Apr_13_1432,localizer,2021.1.3,58.69092239161938,
block,objects,objects066.bmp,,,,,0,181,181,181,,,,,,,,,,,,,,,,,,,,,,,,,,,,,,,,,,,,,,,,,,None,,736.858121100068,None,736.858121100068,None,2022-04-13-14:44:43.928363,736.8588255001232,737.1576189999469,736.8588255001232,None,None,736.8588255001232,None,737.6744431000668,None,,,,22007,0002,2022_Apr_13_1432,localizer,2021.1.3,58.69092239161938,
block_end,objects,objects017.bmp,,,,,0,182,182,182,,,,,,,,,,,,,,,,,,,,,,,,,,,,,,,,,,,,,,,,,,None,,737.6744431000668,None,737.6744431000668,None,2022-04-13-14:44:44.745049,737.6832304999698,737.9912712001242,737.6832304999698,None,None,737.6832304999698,None,738.4911792000755,None,,,,22007,0002,2022_Apr_13_1432,localizer,2021.1.3,58.69092239161938,
null_block,null_block,null_block.bmp,,,,,0,183,183,183,,,,,,,,,,,,,,,,,,,,,,,,,,,,,,,,,,,,,,,,,,t,1.7801631998736411,738.491067300085,None,738.491067300085,None,2022-04-13-14:44:47.360995,740.2912211999762,None,740.2912211999762,None,None,740.2912211999762,None,740.2939240001142,None,,,,22007,0002,2022_Apr_13_1432,localizer,2021.1.3,58.69092239161938,
block_start,objects,objects029.bmp,,,,,0,184,184,184,,,,,,,,,,,,,,,,,,,,,,,,,,,,,,,,,,,,,,,,,,t,1.9624817001167685,752.3075639999006,None,752.3075639999006,None,2022-04-13-14:45:01.362048,754.29232769995,754.6079704998992,754.29232769995,None,None,754.29232769995,None,755.1080182999838,None,,,,22007,0002,2022_Apr_13_1432,localizer,2021.1.3,58.69092239161938,
block,objects,objects072.bmp,,,,,0,185,185,185,,,,,,,,,,,,,,,,,,,,,,,,,,,,,,,,,,,,,,,,,,None,,755.1080182999838,None,755.1080182999838,None,2022-04-13-14:45:02.178326,755.1089850000571,755.424576099962,755.1089850000571,None,None,755.1089850000571,None,755.9242235000245,None,,,,22007,0002,2022_Apr_13_1432,localizer,2021.1.3,58.69092239161938,
block,objects,objects059.bmp,,,,,0,186,186,186,,,,,,,,,,,,,,,,,,,,,,,,,,,,,,,,,,,,,,,,,,None,,755.9242235000245,None,755.9242235000245,None,2022-04-13-14:45:02.993287,755.9263158999383,756.2406909000129,755.9263158999383,None,None,755.9263158999383,None,756.7410105000715,None,,,,22007,0002,2022_Apr_13_1432,localizer,2021.1.3,58.69092239161938,
block,objects,objects047.bmp,,,,,0,187,187,187,,,,,,,,,,,,,,,,,,,,,,,,,,,,,,,,,,,,,,,,,,None,,756.7410105000715,None,756.7410105000715,None,2022-04-13-14:45:03.810666,756.7440224001184,757.0575268999673,756.7440224001184,None,None,756.7440224001184,None,757.5574253000784,None,,,,22007,0002,2022_Apr_13_1432,localizer,2021.1.3,58.69092239161938,
block,objects,objects061.bmp,,,,,0,188,188,188,,,,,,,,,,,,,,,,,,,,,,,,,,,,,,,,,,,,,,,,,,None,,757.5574253000784,None,757.5574253000784,None,2022-04-13-14:45:04.627736,757.5612371999305,757.8597206999548,757.5612371999305,None,None,757.5612371999305,None,758.3749695000704,None,,,,22007,0002,2022_Apr_13_1432,localizer,2021.1.3,58.69092239161938,
block,objects,objects038.bmp,,,,,0,189,189,189,,,,,,,,,,,,,,,,,,,,,,,,,,,,,,,,,,,,,,,,,,None,,758.3749695000704,None,758.3749695000704,None,2022-04-13-14:45:05.445323,758.3831005999818,758.6909870998934,758.3831005999818,None,None,758.3831005999818,None,759.1923885000404,None,,,,22007,0002,2022_Apr_13_1432,localizer,2021.1.3,58.69092239161938,
block,objects,objects079.bmp,,,,,0,190,190,190,,,,,,,,,,,,,,,,,,,,,,,,,,,,,,,,,,,,,,,,,,None,,759.1923885000404,None,759.1923885000404,None,2022-04-13-14:45:06.263504,759.1940123001114,759.50782170007,759.1940123001114,None,None,759.1940123001114,None,760.0082617001142,None,,,,22007,0002,2022_Apr_13_1432,localizer,2021.1.3,58.69092239161938,
block,objects,objects010.bmp,,,,,0,191,191,191,,,,,,,,,,,,,,,,,,,,,,,,,,,,,,,,,,,,,,,,,,None,,760.0082617001142,None,760.0082617001142,None,2022-04-13-14:45:07.078617,760.0089749000035,760.3080114000477,760.0089749000035,None,None,760.0089749000035,None,760.808381600026,None,,,,22007,0002,2022_Apr_13_1432,localizer,2021.1.3,58.69092239161938,
block,objects,objects049.bmp,,,,,0,192,192,192,,,,,,,,,,,,,,,,,,,,,,,,,,,,,,,,,,,,,,,,,,None,,760.808381600026,None,760.808381600026,None,2022-04-13-14:45:07.879808,760.8101083000656,761.1246188001242,760.8101083000656,760.8101083000656,None,760.8101083000656,760.8101083000656,761.6094818999525,None,,,,22007,0002,2022_Apr_13_1432,localizer,2021.1.3,58.69092239161938,
block,objects,objects088.bmp,,,,,0,193,193,193,,,,,,,,,,,,,,,,,,,,,,,,,,,,,,,,,,,,,,,,,,None,,761.6094818999525,None,761.6094818999525,None,2022-04-13-14:45:08.682597,761.621104999911,761.9247900999617,761.621104999911,761.621104999911,None,761.621104999911,761.621104999911,762.4249543000012,None,,,,22007,0002,2022_Apr_13_1432,localizer,2021.1.3,58.69092239161938,
block,objects,objects003.bmp,,,,,0,194,194,194,,,,,,,,,,,,,,,,,,,,,,,,,,,,,,,,,,,,,,,,,,None,,762.4249543000012,None,762.4249543000012,None,2022-04-13-14:45:09.495084,762.425623799907,762.725077799987,762.425623799907,None,None,762.425623799907,None,763.2249664999079,None,,,,22007,0002,2022_Apr_13_1432,localizer,2021.1.3,58.69092239161938,
block,objects,objects021.bmp,,,,,0,195,195,195,,,,,,,,,,,,,,,,,,,,,,,,,,,,,,,,,,,,,,,,,,None,,763.2249664999079,None,763.2249664999079,None,2022-04-13-14:45:10.296759,763.2259537999053,763.5252414001152,763.2259537999053,763.2259537999053,None,763.2259537999053,763.2259537999053,764.0253167999442,None,,,,22007,0002,2022_Apr_13_1432,localizer,2021.1.3,58.69092239161938,
block,objects,objects057.bmp,,,,,0,196,196,196,,,,,,,,,,,,,,,,,,,,,,,,,,,,,,,,,,,,,,,,,,None,,764.0253167999442,None,764.0253167999442,None,2022-04-13-14:45:11.096908,764.026071399916,764.3410901001189,764.026071399916,764.026071399916,None,764.026071399916,764.026071399916,764.8409299999009,None,,,,22007,0002,2022_Apr_13_1432,localizer,2021.1.3,58.69092239161938,
block,objects,objects056.bmp,,,,,0,197,197,197,,,,,,,,,,,,,,,,,,,,,,,,,,,,,,,,,,,,,,,,,,None,,764.8409299999009,None,764.8409299999009,None,2022-04-13-14:45:11.909673,764.8476259000599,765.1580517000984,764.8476259000599,None,None,764.8476259000599,None,765.6579997001215,None,,,,22007,0002,2022_Apr_13_1432,localizer,2021.1.3,58.69092239161938,
block_end,objects,objects055.bmp,,,,,0,198,198,198,,,,,,,,,,,,,,,,,,,,,,,,,,,,,,,,,,,,,,,,,,None,,765.6579997001215,None,765.6579997001215,None,2022-04-13-14:45:12.727943,765.6591994999908,765.9742773000617,765.6591994999908,None,None,765.6591994999908,None,766.474538299907,None,,,,22007,0002,2022_Apr_13_1432,localizer,2021.1.3,58.69092239161938,
block_start,scrambled,scrambled040.bmp,,,,,0,199,199,199,,,,,,,,,,,,,,,,,,,,,,,,,,,,,,,,,,,,,,,,,,t,1.7963221999816597,766.4738753000274,None,766.4738753000274,None,2022-04-13-14:45:15.361309,768.2951452999841,768.6077304000501,768.2951452999841,None,None,768.2951452999841,None,769.1080271999351,None,,,,22007,0002,2022_Apr_13_1432,localizer,2021.1.3,58.69092239161938,
block,scrambled,scrambled076.bmp,,,,,0,200,200,200,,,,,,,,,,,,,,,,,,,,,,,,,,,,,,,,,,,,,,,,,,None,,769.1080271999351,None,769.1080271999351,None,2022-04-13-14:45:16.176923,769.1091223000549,769.4243469999637,769.1091223000549,None,None,769.1091223000549,None,769.9245796999428,None,,,,22007,0002,2022_Apr_13_1432,localizer,2021.1.3,58.69092239161938,
block,scrambled,scrambled033.bmp,,,,,0,201,201,201,,,,,,,,,,,,,,,,,,,,,,,,,,,,,,,,,,,,,,,,,,None,,769.9245796999428,None,769.9245796999428,None,2022-04-13-14:45:16.995217,769.9258705999237,770.2413639998995,769.9258705999237,None,None,769.9258705999237,None,770.7414985000621,None,,,,22007,0002,2022_Apr_13_1432,localizer,2021.1.3,58.69092239161938,
block,scrambled,scrambled041.bmp,,,,,0,202,202,202,,,,,,,,,,,,,,,,,,,,,,,,,,,,,,,,,,,,,,,,,,None,,770.7414985000621,None,770.7414985000621,None,2022-04-13-14:45:17.810594,770.7422801000066,771.0412405999377,770.7422801000066,None,None,770.7422801000066,None,771.557344600046,None,,,,22007,0002,2022_Apr_13_1432,localizer,2021.1.3,58.69092239161938,
block,scrambled,scrambled052.bmp,,,,,0,203,203,203,,,,,,,,,,,,,,,,,,,,,,,,,,,,,,,,,,,,,,,,,,None,,771.557344600046,None,771.557344600046,None,2022-04-13-14:45:18.627867,771.5591496000998,771.8579637999646,771.5591496000998,None,None,771.5591496000998,None,772.3581944999285,None,,,,22007,0002,2022_Apr_13_1432,localizer,2021.1.3,58.69092239161938,
block,scrambled,scrambled086.bmp,,,,,0,204,204,204,,,,,,,,,,,,,,,,,,,,,,,,,,,,,,,,,,,,,,,,,,None,,772.3581944999285,None,772.3581944999285,None,2022-04-13-14:45:19.429291,772.3681520998944,772.6742362999357,772.3681520998944,772.3681520998944,None,772.3681520998944,772.3681520998944,773.174632500112,None,,,,22007,0002,2022_Apr_13_1432,localizer,2021.1.3,58.69092239161938,
block,scrambled,scrambled009.bmp,,,,,0,205,205,205,,,,,,,,,,,,,,,,,,,,,,,,,,,,,,,,,,,,,,,,,,None,,773.174632500112,None,773.174632500112,None,2022-04-13-14:45:20.245089,773.1792190000415,773.4913947000168,773.1792190000415,None,None,773.1792190000415,None,773.9918272001203,None,,,,22007,0002,2022_Apr_13_1432,localizer,2021.1.3,58.69092239161938,
block,scrambled,scrambled014.bmp,,,,,0,206,206,206,,,,,,,,,,,,,,,,,,,,,,,,,,,,,,,,,,,,,,,,,,None,,773.9918272001203,None,773.9918272001203,None,2022-04-13-14:45:21.062033,773.9941173000261,774.3086836999282,773.9941173000261,None,None,773.9941173000261,None,774.8082670000847,None,,,,22007,0002,2022_Apr_13_1432,localizer,2021.1.3,58.69092239161938,
block,scrambled,scrambled022.bmp,,,,,0,207,207,207,,,,,,,,,,,,,,,,,,,,,,,,,,,,,,,,,,,,,,,,,,None,,774.8082670000847,None,774.8082670000847,None,2022-04-13-14:45:21.878848,774.8138691999484,775.1244512998965,774.8138691999484,None,None,774.8138691999484,None,775.624609400006,None,,,,22007,0002,2022_Apr_13_1432,localizer,2021.1.3,58.69092239161938,
block,scrambled,scrambled058.bmp,,,,,0,208,208,208,,,,,,,,,,,,,,,,,,,,,,,,,,,,,,,,,,,,,,,,,,None,,775.624609400006,None,775.624609400006,None,2022-04-13-14:45:22.694666,775.6257849999238,775.9258493001107,775.6257849999238,None,None,775.6257849999238,None,776.441764699947,None,,,,22007,0002,2022_Apr_13_1432,localizer,2021.1.3,58.69092239161938,
block,scrambled,scrambled010.bmp,,,,,0,209,209,209,,,,,,,,,,,,,,,,,,,,,,,,,,,,,,,,,,,,,,,,,,None,,776.441764699947,None,776.441764699947,None,2022-04-13-14:45:23.511207,776.4421274999622,776.7418774000835,776.4421274999622,None,None,776.4421274999622,None,777.2417520000133,None,,,,22007,0002,2022_Apr_13_1432,localizer,2021.1.3,58.69092239161938,
block,scrambled,scrambled026.bmp,,,,,0,210,210,210,,,,,,,,,,,,,,,,,,,,,,,,,,,,,,,,,,,,,,,,,,None,,777.2417520000133,None,777.2417520000133,None,2022-04-13-14:45:24.314010,777.242786299903,777.5578751999419,777.242786299903,777.242786299903,None,777.242786299903,777.242786299903,778.0580186000559,None,,,,22007,0002,2022_Apr_13_1432,localizer,2021.1.3,58.69092239161938,
block,scrambled,scrambled060.bmp,,,,,0,211,211,211,,,,,,,,,,,,,,,,,,,,,,,,,,,,,,,,,,,,,,,,,,None,,778.0580186000559,None,778.0580186000559,None,2022-04-13-14:45:25.127577,778.0611310000531,778.3742784000933,778.0611310000531,None,None,778.0611310000531,None,778.8747318000067,None,,,,22007,0002,2022_Apr_13_1432,localizer,2021.1.3,58.69092239161938,
block,scrambled,scrambled056.bmp,,,,,0,212,212,212,,,,,,,,,,,,,,,,,,,,,,,,,,,,,,,,,,,,,,,,,,None,,778.8747318000067,None,778.8747318000067,None,2022-04-13-14:45:25.944216,778.8775730999187,779.1908923999872,778.8775730999187,None,None,778.8775730999187,None,779.6916335999965,None,,,,22007,0002,2022_Apr_13_1432,localizer,2021.1.3,58.69092239161938,
block_end,scrambled,scrambled034.bmp,,,,,0,213,213,213,,,,,,,,,,,,,,,,,,,,,,,,,,,,,,,,,,,,,,,,,,None,,779.6916335999965,None,779.6916335999965,None,2022-04-13-14:45:26.760749,779.6920612999238,779.9910703001078,779.6920612999238,None,None,779.6920612999238,None,780.4913383000064,None,,,,22007,0002,2022_Apr_13_1432,localizer,2021.1.3,58.69092239161938,
block_start,scenes,scenes035.bmp,,,,,0,214,214,214,,,,,,,,,,,,,,,,,,,,,,,,,,,,,,,,,,,,,,,,,,t,1.7785194998141378,780.4916374001186,None,780.4916374001186,None,2022-04-13-14:45:29.362531,782.2941133999266,782.6074550999328,782.2941133999266,None,None,782.2941133999266,None,783.1086093999445,None,,,,22007,0002,2022_Apr_13_1432,localizer,2021.1.3,58.69092239161938,
block,scenes,scenes053.bmp,,,,,0,215,215,215,,,,,,,,,,,,,,,,,,,,,,,,,,,,,,,,,,,,,,,,,,None,,783.1086093999445,None,783.1086093999445,None,2022-04-13-14:45:30.179148,783.1109098000452,783.4242189000361,783.1109098000452,None,None,783.1109098000452,None,783.9267089999746,None,,,,22007,0002,2022_Apr_13_1432,localizer,2021.1.3,58.69092239161938,
block,scenes,scenes088.bmp,,,,,0,216,216,216,,,,,,,,,,,,,,,,,,,,,,,,,,,,,,,,,,,,,,,,,,None,,783.9267089999746,None,783.9267089999746,None,2022-04-13-14:45:30.996784,783.9271780999843,784.2410862999968,783.9271780999843,None,None,783.9271780999843,None,784.7264505999162,None,,,,22007,0002,2022_Apr_13_1432,localizer,2021.1.3,58.69092239161938,
block,scenes,scenes014.bmp,,,,,0,217,217,217,,,,,,,,,,,,,,,,,,,,,,,,,,,,,,,,,,,,,,,,,,None,,784.7264505999162,None,784.7264505999162,None,2022-04-13-14:45:31.798329,784.7288478000555,785.0416433000937,784.7288478000555,784.7288478000555,None,784.7288478000555,784.7288478000555,785.5427574999164,None,,,,22007,0002,2022_Apr_13_1432,localizer,2021.1.3,58.69092239161938,
block,scenes,scenes059.bmp,,,,,0,218,218,218,,,,,,,,,,,,,,,,,,,,,,,,,,,,,,,,,,,,,,,,,,None,,785.5427574999164,None,785.5427574999164,None,2022-04-13-14:45:32.613098,785.5436760999728,785.8588604000397,785.5436760999728,None,None,785.5436760999728,None,786.358238199912,None,,,,22007,0002,2022_Apr_13_1432,localizer,2021.1.3,58.69092239161938,
block,scenes,scenes011.bmp,,,,,0,219,219,219,,,,,,,,,,,,,,,,,,,,,,,,,,,,,,,,,,,,,,,,,,None,,786.358238199912,None,786.358238199912,None,2022-04-13-14:45:33.428915,786.3599747000262,786.6742930000182,786.3599747000262,None,None,786.3599747000262,None,787.1592195000965,None,,,,22007,0002,2022_Apr_13_1432,localizer,2021.1.3,58.69092239161938,
block,scenes,scenes070.bmp,,,,,0,220,220,220,,,,,,,,,,,,,,,,,,,,,,,,,,,,,,,,,,,,,,,,,,None,,787.1592195000965,None,787.1592195000965,None,2022-04-13-14:45:34.231298,787.1623531999066,787.4750860000495,787.1623531999066,787.1623531999066,None,787.1623531999066,787.1623531999066,787.9744900001212,None,,,,22007,0002,2022_Apr_13_1432,localizer,2021.1.3,58.69092239161938,
block,scenes,scenes008.bmp,,,,,0,221,221,221,,,,,,,,,,,,,,,,,,,,,,,,,,,,,,,,,,,,,,,,,,None,,787.9744900001212,None,787.9744900001212,None,2022-04-13-14:45:35.044113,787.9755903999321,788.2748279001098,787.9755903999321,None,None,787.9755903999321,None,788.7913202999159,None,,,,22007,0002,2022_Apr_13_1432,localizer,2021.1.3,58.69092239161938,
block,scenes,scenes032.bmp,,,,,0,222,222,222,,,,,,,,,,,,,,,,,,,,,,,,,,,,,,,,,,,,,,,,,,None,,788.7913202999159,None,788.7913202999159,None,2022-04-13-14:45:35.860273,788.7940845000558,789.107919299975,788.7940845000558,None,None,788.7940845000558,None,789.6081771999131,None,,,,22007,0002,2022_Apr_13_1432,localizer,2021.1.3,58.69092239161938,
block,scenes,scenes078.bmp,,,,,0,223,223,223,,,,,,,,,,,,,,,,,,,,,,,,,,,,,,,,,,,,,,,,,,None,,789.6081771999131,None,789.6081771999131,None,2022-04-13-14:45:36.678450,789.6092594999354,789.9080036999658,789.6092594999354,None,None,789.6092594999354,None,790.424605000019,None,,,,22007,0002,2022_Apr_13_1432,localizer,2021.1.3,58.69092239161938,
block,scenes,scenes077.bmp,,,,,0,224,224,224,,,,,,,,,,,,,,,,,,,,,,,,,,,,,,,,,,,,,,,,,,None,,790.424605000019,None,790.424605000019,None,2022-04-13-14:45:37.493537,790.4275281000882,790.7413842000533,790.4275281000882,None,None,790.4275281000882,None,791.2419265000615,None,,,,22007,0002,2022_Apr_13_1432,localizer,2021.1.3,58.69092239161938,
block,scenes,scenes023.bmp,,,,,0,225,225,225,,,,,,,,,,,,,,,,,,,,,,,,,,,,,,,,,,,,,,,,,,None,,791.2419265000615,None,791.2419265000615,None,2022-04-13-14:45:38.312094,791.2423082001042,791.5412765000947,791.2423082001042,None,None,791.2423082001042,None,792.0415340000297,None,,,,22007,0002,2022_Apr_13_1432,localizer,2021.1.3,58.69092239161938,
block,scenes,scenes058.bmp,,,,,0,226,226,226,,,,,,,,,,,,,,,,,,,,,,,,,,,,,,,,,,,,,,,,,,None,,792.0415340000297,None,792.0415340000297,None,2022-04-13-14:45:39.113652,792.0477096000686,792.3590786999557,792.0477096000686,792.0477096000686,None,792.0477096000686,792.0477096000686,792.8584668999072,None,,,,22007,0002,2022_Apr_13_1432,localizer,2021.1.3,58.69092239161938,
block,scenes,scenes071.bmp,,,,,0,227,227,227,,,,,,,,,,,,,,,,,,,,,,,,,,,,,,,,,,,,,,,,,,None,,792.8584668999072,None,792.8584668999072,None,2022-04-13-14:45:39.928438,792.8594229000155,793.1580948000774,792.8594229000155,None,None,792.8594229000155,None,793.6590027000755,None,,,,22007,0002,2022_Apr_13_1432,localizer,2021.1.3,58.69092239161938,
block_end,scenes,scenes089.bmp,,,,,0,228,228,228,,,,,,,,,,,,,,,,,,,,,,,,,,,,,,,,,,,,,,,,,,None,,793.6590027000755,None,793.6590027000755,None,2022-04-13-14:45:40.731121,793.6681625999045,793.97472129995,793.6681625999045,793.6681625999045,None,793.6681625999045,793.6681625999045,794.4754056001082,None,,,,22007,0002,2022_Apr_13_1432,localizer,2021.1.3,58.69092239161938,
block_start,faces,faces014.bmp,,,,,0,229,229,229,,,,,,,,,,,,,,,,,,,,,,,,,,,,,,,,,,,,,,,,,,t,1.7938884000759572,794.476202199934,None,794.476202199934,None,2022-04-13-14:45:43.361120,796.2944547000807,796.6090522999875,796.2944547000807,None,None,796.2944547000807,None,797.095319299912,None,,,,22007,0002,2022_Apr_13_1432,localizer,2021.1.3,58.69092239161938,
block,faces,faces024.bmp,,,,,0,230,230,230,,,,,,,,,,,,,,,,,,,,,,,,,,,,,,,,,,,,,,,,,,None,,797.095319299912,None,797.095319299912,None,2022-04-13-14:45:44.169763,797.0995275001042,797.4077341000084,797.0995275001042,797.0995275001042,None,797.0995275001042,797.0995275001042,797.9081572000403,None,,,,22007,0002,2022_Apr_13_1432,localizer,2021.1.3,58.69092239161938,
block,faces,faces024.bmp,,,,,0,231,231,231,,,,,,,,,,,,,,,,,,,,,,,,,,,,,,,,,,,,,,,,,,None,,797.9081572000403,None,797.9081572000403,None,2022-04-13-14:45:44.977504,797.9091658999678,798.2081450999249,797.9091658999678,None,y,797.9091658999678,None,798.7246346000582,None,0.7674543000757694,,,22007,0002,2022_Apr_13_1432,localizer,2021.1.3,58.69092239161938,
block,faces,faces040.bmp,,,,,0,232,232,232,,,,,,,,,,,,,,,,,,,,,,,,,,,,,,,,,,,,,,,,,,None,,798.7246346000582,None,798.7246346000582,None,2022-04-13-14:45:45.793568,798.7262097999919,799.0418539000675,798.7262097999919,None,None,798.7262097999919,None,799.5420665998943,None,,,,22007,0002,2022_Apr_13_1432,localizer,2021.1.3,58.69092239161938,
block,faces,faces058.bmp,,,,,0,233,233,233,,,,,,,,,,,,,,,,,,,,,,,,,,,,,,,,,,,,,,,,,,None,,799.5420665998943,None,799.5420665998943,None,2022-04-13-14:45:46.611761,799.5471439000685,799.8579363001045,799.5471439000685,None,None,799.5471439000685,None,800.3579218000639,None,,,,22007,0002,2022_Apr_13_1432,localizer,2021.1.3,58.69092239161938,
block,faces,faces080.bmp,,,,,0,234,234,234,,,,,,,,,,,,,,,,,,,,,,,,,,,,,,,,,,,,,,,,,,None,,800.3579218000639,None,800.3579218000639,None,2022-04-13-14:45:47.428199,800.360011999961,800.6748142000288,800.360011999961,None,None,800.360011999961,None,801.1750696000643,None,,,,22007,0002,2022_Apr_13_1432,localizer,2021.1.3,58.69092239161938,
block,faces,faces054.bmp,,,,,0,235,235,235,,,,,,,,,,,,,,,,,,,,,,,,,,,,,,,,,,,,,,,,,,None,,801.1750696000643,None,801.1750696000643,None,2022-04-13-14:45:48.245812,801.1766550000757,801.491130999988,801.1766550000757,None,None,801.1766550000757,None,801.991869799979,None,,,,22007,0002,2022_Apr_13_1432,localizer,2021.1.3,58.69092239161938,
block,faces,faces089.bmp,,,,,0,236,236,236,,,,,,,,,,,,,,,,,,,,,,,,,,,,,,,,,,,,,,,,,,None,,801.991869799979,None,801.991869799979,None,2022-04-13-14:45:49.062003,801.9932423001155,802.3079770000186,801.9932423001155,None,None,801.9932423001155,None,802.7927064999938,None,,,,22007,0002,2022_Apr_13_1432,localizer,2021.1.3,58.69092239161938,
block,faces,faces042.bmp,,,,,0,237,237,237,,,,,,,,,,,,,,,,,,,,,,,,,,,,,,,,,,,,,,,,,,None,,802.7927064999938,None,802.7927064999938,None,2022-04-13-14:45:49.864558,802.7937499000691,803.1081437000539,802.7937499000691,802.7937499000691,None,802.7937499000691,802.7937499000691,803.5933674000669,None,,,,22007,0002,2022_Apr_13_1432,localizer,2021.1.3,58.69092239161938,
block,faces,faces041.bmp,,,,,0,238,238,238,,,,,,,,,,,,,,,,,,,,,,,,,,,,,,,,,,,,,,,,,,None,,803.5933674000669,None,803.5933674000669,None,2022-04-13-14:45:50.666694,803.5974252000451,803.9082424999215,803.5974252000451,803.5974252000451,None,803.5974252000451,803.5974252000451,804.4086814000736,None,,,,22007,0002,2022_Apr_13_1432,localizer,2021.1.3,58.69092239161938,
block,faces,faces021.bmp,,,,,0,239,239,239,,,,,,,,,,,,,,,,,,,,,,,,,,,,,,,,,,,,,,,,,,None,,804.4086814000736,None,804.4086814000736,None,2022-04-13-14:45:51.478934,804.4094440001063,804.7086052000523,804.4094440001063,None,None,804.4094440001063,None,805.2249636000022,None,,,,22007,0002,2022_Apr_13_1432,localizer,2021.1.3,58.69092239161938,
block,faces,faces065.bmp,,,,,0,240,240,240,,,,,,,,,,,,,,,,,,,,,,,,,,,,,,,,,,,,,,,,,,None,,805.2249636000022,None,805.2249636000022,None,2022-04-13-14:45:52.294839,805.2264775000513,805.5416546000633,805.2264775000513,None,None,805.2264775000513,None,806.0415076000615,None,,,,22007,0002,2022_Apr_13_1432,localizer,2021.1.3,58.69092239161938,
block,faces,faces052.bmp,,,,,0,241,241,241,,,,,,,,,,,,,,,,,,,,,,,,,,,,,,,,,,,,,,,,,,None,,806.0415076000615,None,806.0415076000615,None,2022-04-13-14:45:53.111048,806.0424983999692,806.341652699979,806.0424983999692,None,None,806.0424983999692,None,806.8418638000264,None,,,,22007,0002,2022_Apr_13_1432,localizer,2021.1.3,58.69092239161938,
block,faces,faces043.bmp,,,,,0,242,242,242,,,,,,,,,,,,,,,,,,,,,,,,,,,,,,,,,,,,,,,,,,None,,806.8418638000264,None,806.8418638000264,None,2022-04-13-14:45:53.913350,806.8485578999389,807.158343099989,806.8485578999389,806.8485578999389,None,806.8485578999389,806.8485578999389,807.6585765000898,None,,,,22007,0002,2022_Apr_13_1432,localizer,2021.1.3,58.69092239161938,
block_end,faces,faces069.bmp,,,,,0,243,243,243,,,,,,,,,,,,,,,,,,,,,,,,,,,,,,,,,,,,,,,,,,None,,807.6585765000898,None,807.6585765000898,None,2022-04-13-14:45:54.729161,807.6597432000563,807.974845000077,807.6597432000563,None,None,807.6597432000563,None,808.4748939999379,None,,,,22007,0002,2022_Apr_13_1432,localizer,2021.1.3,58.69092239161938,
,,,,,,,,,,,,,,,,,,,,,,,,,,,,,,,,,,,,,,,,,,,,,,,,,,,,,,,,,,,,,,,,,,,,,808.475188100012,None,,,,,,,
