block_type,condition,img_name,Button.thisRepN,Button.thisTrialN,Button.thisN,Button.thisIndex,trials.thisRepN,trials.thisTrialN,trials.thisN,trials.thisIndex,Ready_experimenter_text.started,Ready_experimenter_text.stopped,Ready_experimenter_resp.keys,Ready_experimenter_resp.rt,Ready_experimenter_resp.started,Ready_experimenter_resp.stopped,Alignment_background.started,Alignment_background.stopped,Alignment_image.started,Alignment_image.stopped,Alignment_resp.keys,Alignment_resp.rt,Alignment_resp.started,Alignment_resp.stopped,Button_text.started,Button_text.stopped,Index_text.started,Index_text.stopped,Index_resp.keys,Index_resp.rt,Index_resp.started,Index_resp.stopped,Middle_text.started,Middle_text.stopped,Middle_resp.keys,Middle_resp.rt,Middle_resp.started,Middle_resp.stopped,Repeat_text.started,Repeat_text.stopped,Repeat_resp.keys,Repeat_resp.corr,Repeat_resp.rt,Repeat_resp.started,Repeat_resp.stopped,instruction_text.started,instruction_text.stopped,key_resp.keys,key_resp.rt,key_resp.started,key_resp.stopped,scanner_t.keys,scanner_t.rt,scanner_t.started,scanner_t.stopped,fixation_wait_for_t.started,fixation_wait_for_t.stopped,real_timestamp_trial_start,image.started,image.stopped,fixation.started,fixation.stopped,repeat_response.keys,repeat_response.started,repeat_response.stopped,fixation_null.started,fixation_null.stopped,repeat_response.rt,end_text.started,end_text.stopped,participant,run,date,expName,psychopyVersion,frameRate,
,,,,,,,,,,,9.412360599962994,None,return,74.6026176000014,9.412360599962994,None,,,,,,,,,,,,,,,,,,,,,,,,,,,,,,,,,,,,,,,,,,,,,,,,,,,,,,,22010,0001,2022_Jul_13_1350,localizer,2021.1.3,59.899823553301246,
,,,,,,,,,,,,,,,,,84.0693274999503,None,84.0693274999503,None,return,5.934634800069034,84.0693274999503,None,,,,,,,,,,,,,,,,,,,,,,,,,,,,,,,,,,,,,,,,,,,,,,,22010,0001,2022_Jul_13_1350,localizer,2021.1.3,59.899823553301246,
,,,0,0,0,0,,,,,,,,,,,,,,,,,,,90.0284207998775,None,91.03884269995615,None,y,16.14800849999301,91.03884269995615,None,107.20793369994499,None,b,17.877065300010145,107.20793369994499,None,125.10723849991336,None,y,1,2.755077200010419,125.10723849991336,None,,,,,,,,,,,,,,,,,,,,,,,,,,22010,0001,2022_Jul_13_1350,localizer,2021.1.3,59.899823553301246,
,,,1,0,1,0,,,,,,,,,,,,,,,,,,,127.88964599999599,None,128.88992029987276,None,y,3.543960699811578,128.88992029987276,None,132.45604219986126,None,b,1.9569989999290556,132.45604219986126,None,134.44039599993266,None,n,0,4.703326700022444,134.44039599993266,None,,,,,,,,,,,,,,,,,,,,,,,,,,22010,0001,2022_Jul_13_1350,localizer,2021.1.3,59.899823553301246,
,,,,,,,,,,,,,,,,,,,,,,,,,,,,,,,,,,,,,,,,,,,,,,139.1748911999166,None,y,44.96184729994275,139.1748911999166,None,,,,,,,,,,,,,,,,,,,,22010,0001,2022_Jul_13_1350,localizer,2021.1.3,59.899823553301246,
null_block,null_block,null_block.bmp,,,,,0,0,0,0,,,,,,,,,,,,,,,,,,,,,,,,,,,,,,,,,,,,,,,,,,t,15.918975200038403,184.2237940998748,None,184.2237940998748,None,2022-07-13-13:53:47.664862,200.1901880200021,None,200.1901880200021,None,None,200.1901880200021,None,200.18494299985468,None,,,,22010,0001,2022_Jul_13_1350,localizer,2021.1.3,59.899823553301246,
block_start,faces,faces045.bmp,,,,,0,1,1,1,,,,,,,,,,,,,,,,,,,,,,,,,,,,,,,,,,,,,,,,,,t,1.9530752999708056,212.18979059997946,None,212.18979059997946,None,2022-07-13-13:54:01.653014,214.17158719990402,214.47328159981407,214.17158719990402,None,None,214.17158719990402,None,214.97372070990968,None,,,,22010,0001,2022_Jul_13_1350,localizer,2021.1.3,59.899823553301246,
block,faces,faces076.bmp,,,,,0,2,2,2,,,,,,,,,,,,,,,,,,,,,,,,,,,,,,,,,,,,,,,,,,None,,214.97372070990968,None,214.97372070990968,None,2022-07-13-13:54:02.465962,214.98473679996096,215.28995629982091,214.98473679996096,None,None,214.98473679996096,None,215.79029100982007,None,,,,22010,0001,2022_Jul_13_1350,localizer,2021.1.3,59.899823553301246,
block,faces,faces022.bmp,,,,,0,3,3,3,,,,,,,,,,,,,,,,,,,,,,,,,,,,,,,,,,,,,,,,,,None,,215.79029100982007,None,215.79029100982007,None,2022-07-13-13:54:03.282541,215.8012243998237,216.10677860002033,215.8012243998237,None,None,215.8012243998237,None,216.60666941001546,None,,,,22010,0001,2022_Jul_13_1350,localizer,2021.1.3,59.899823553301246,
block,faces,faces034.bmp,,,,,0,4,4,4,,,,,,,,,,,,,,,,,,,,,,,,,,,,,,,,,,,,,,,,,,None,,216.60666941001546,None,216.60666941001546,None,2022-07-13-13:54:04.098787,216.61680999980308,216.92320939991623,216.61680999980308,None,None,216.61680999980308,None,217.42363940982614,None,,,,22010,0001,2022_Jul_13_1350,localizer,2021.1.3,59.899823553301246,
block,faces,faces049.bmp,,,,,0,5,5,5,,,,,,,,,,,,,,,,,,,,,,,,,,,,,,,,,,,,,,,,,,None,,217.42363940982614,None,217.42363940982614,None,2022-07-13-13:54:04.915891,217.4337613999378,217.73983169998974,217.4337613999378,None,None,217.4337613999378,None,218.24032121000346,None,,,,22010,0001,2022_Jul_13_1350,localizer,2021.1.3,59.899823553301246,
block,faces,faces060.bmp,,,,,0,6,6,6,,,,,,,,,,,,,,,,,,,,,,,,,,,,,,,,,,,,,,,,,,None,,218.24032121000346,None,218.24032121000346,None,2022-07-13-13:54:05.732359,218.25076829991303,218.5567758998368,218.25076829991303,None,None,218.25076829991303,None,219.0568352098344,None,,,,22010,0001,2022_Jul_13_1350,localizer,2021.1.3,59.899823553301246,
block,faces,faces070.bmp,,,,,0,7,7,7,,,,,,,,,,,,,,,,,,,,,,,,,,,,,,,,,,,,,,,,,,None,,219.0568352098344,None,219.0568352098344,None,2022-07-13-13:54:06.548877,219.06788979982957,219.37344240001403,219.06788979982957,None,None,219.06788979982957,None,219.87351621000562,None,,,,22010,0001,2022_Jul_13_1350,localizer,2021.1.3,59.899823553301246,
block,faces,faces073.bmp,,,,,0,8,8,8,,,,,,,,,,,,,,,,,,,,,,,,,,,,,,,,,,,,,,,,,,None,,219.87351621000562,None,219.87351621000562,None,2022-07-13-13:54:07.365866,219.88208019989543,220.18999829981476,219.88208019989543,None,None,219.88208019989543,None,220.69001220993232,None,,,,22010,0001,2022_Jul_13_1350,localizer,2021.1.3,59.899823553301246,
block,faces,faces037.bmp,,,,,0,9,9,9,,,,,,,,,,,,,,,,,,,,,,,,,,,,,,,,,,,,,,,,,,None,,220.69001220993232,None,220.69001220993232,None,2022-07-13-13:54:08.182055,220.69938099989668,221.00682339980267,220.69938099989668,None,None,220.69938099989668,None,221.50655850989278,None,,,,22010,0001,2022_Jul_13_1350,localizer,2021.1.3,59.899823553301246,
block,faces,faces036.bmp,,,,,0,10,10,10,,,,,,,,,,,,,,,,,,,,,,,,,,,,,,,,,,,,,,,,,,None,,221.50655850989278,None,221.50655850989278,None,2022-07-13-13:54:08.998605,221.515461999923,221.82376950001344,221.515461999923,None,None,221.515461999923,None,222.32344940991607,None,,,,22010,0001,2022_Jul_13_1350,localizer,2021.1.3,59.899823553301246,
block,faces,faces080.bmp,,,,,0,11,11,11,,,,,,,,,,,,,,,,,,,,,,,,,,,,,,,,,,,,,,,,,,None,,222.32344940991607,None,222.32344940991607,None,2022-07-13-13:54:09.815490,222.33725869981572,222.64009270002134,222.33725869981572,None,None,222.33725869981572,None,223.1401427098317,None,,,,22010,0001,2022_Jul_13_1350,localizer,2021.1.3,59.899823553301246,
block,faces,faces080.bmp,,,,,0,12,12,12,,,,,,,,,,,,,,,,,,,,,,,,,,,,,,,,,,,,,,,,,,None,,223.1401427098317,None,223.1401427098317,None,2022-07-13-13:54:10.632180,223.14125319989398,223.45577259990387,223.14125319989398,None,y,223.14125319989398,None,223.95658330980223,None,0.7315579000860453,,,22010,0001,2022_Jul_13_1350,localizer,2021.1.3,59.899823553301246,
block,faces,faces079.bmp,,,,,0,13,13,13,,,,,,,,,,,,,,,,,,,,,,,,,,,,,,,,,,,,,,,,,,None,,223.95658330980223,None,223.95658330980223,None,2022-07-13-13:54:11.448559,223.96577909984626,224.2734834998846,223.96577909984626,None,None,223.96577909984626,None,224.77356280980166,None,,,,22010,0001,2022_Jul_13_1350,localizer,2021.1.3,59.899823553301246,
block,faces,faces048.bmp,,,,,0,14,14,14,,,,,,,,,,,,,,,,,,,,,,,,,,,,,,,,,,,,,,,,,,None,,224.77356280980166,None,224.77356280980166,None,2022-07-13-13:54:12.265599,224.78447850001976,225.09019079990685,224.78447850001976,None,None,224.78447850001976,None,225.59086680982728,None,,,,22010,0001,2022_Jul_13_1350,localizer,2021.1.3,59.899823553301246,
block_end,faces,faces023.bmp,,,,,0,15,15,15,,,,,,,,,,,,,,,,,,,,,,,,,,,,,,,,,,,,,,,,,,None,,225.59086680982728,None,225.59086680982728,None,2022-07-13-13:54:13.084086,225.60243560001254,225.9068450999912,225.60243560001254,None,None,225.60243560001254,None,226.40697121003177,None,,,,22010,0001,2022_Jul_13_1350,localizer,2021.1.3,59.899823553301246,
block_start,scrambled,scrambled088.bmp,,,,,0,16,16,16,,,,,,,,,,,,,,,,,,,,,,,,,,,,,,,,,,,,,,,,,,t,1.735922200139612,226.40691219992004,None,226.40691219992004,None,2022-07-13-13:54:15.666104,228.18505640001968,228.49076419998892,228.18505640001968,None,None,228.18505640001968,None,228.9901664099889,None,,,,22010,0001,2022_Jul_13_1350,localizer,2021.1.3,59.899823553301246,
block,scrambled,scrambled079.bmp,,,,,0,17,17,17,,,,,,,,,,,,,,,,,,,,,,,,,,,,,,,,,,,,,,,,,,None,,228.9901664099889,None,228.9901664099889,None,2022-07-13-13:54:16.482204,228.99990129983053,229.30675329989754,228.99990129983053,None,None,228.99990129983053,None,229.7968828099547,None,,,,22010,0001,2022_Jul_13_1350,localizer,2021.1.3,59.899823553301246,
block,scrambled,scrambled015.bmp,,,,,0,18,18,18,,,,,,,,,,,,,,,,,,,,,,,,,,,,,,,,,,,,,,,,,,None,,229.7968828099547,None,229.7968828099547,None,2022-07-13-13:54:17.293740,229.8083460999187,230.12342129996978,229.8083460999187,None,None,229.8083460999187,None,230.60803720995318,None,,,,22010,0001,2022_Jul_13_1350,localizer,2021.1.3,59.899823553301246,
block,scrambled,scrambled047.bmp,,,,,0,19,19,19,,,,,,,,,,,,,,,,,,,,,,,,,,,,,,,,,,,,,,,,,,None,,230.60803720995318,None,230.60803720995318,None,2022-07-13-13:54:18.100383,230.61568779987283,230.92333119991235,230.61568779987283,None,None,230.61568779987283,None,231.4130141098285,None,,,,22010,0001,2022_Jul_13_1350,localizer,2021.1.3,59.899823553301246,
block,scrambled,scrambled043.bmp,,,,,0,20,20,20,,,,,,,,,,,,,,,,,,,,,,,,,,,,,,,,,,,,,,,,,,None,,231.4130141098285,None,231.4130141098285,None,2022-07-13-13:54:18.910836,231.42973899981007,231.74046839983203,231.42973899981007,None,None,231.42973899981007,None,232.22411110985558,None,,,,22010,0001,2022_Jul_13_1350,localizer,2021.1.3,59.899823553301246,
block,scrambled,scrambled072.bmp,,,,,0,21,21,21,,,,,,,,,,,,,,,,,,,,,,,,,,,,,,,,,,,,,,,,,,None,,232.22411110985558,None,232.22411110985558,None,2022-07-13-13:54:19.717120,232.23581689991988,232.54012029990554,232.23581689991988,None,None,232.23581689991988,None,233.04081840987783,None,,,,22010,0001,2022_Jul_13_1350,localizer,2021.1.3,59.899823553301246,
block,scrambled,scrambled001.bmp,,,,,0,22,22,22,,,,,,,,,,,,,,,,,,,,,,,,,,,,,,,,,,,,,,,,,,None,,233.04081840987783,None,233.04081840987783,None,2022-07-13-13:54:20.533847,233.05146340001374,233.35710139991716,233.05146340001374,None,None,233.05146340001374,None,233.85709420999046,None,,,,22010,0001,2022_Jul_13_1350,localizer,2021.1.3,59.899823553301246,
block,scrambled,scrambled065.bmp,,,,,0,23,23,23,,,,,,,,,,,,,,,,,,,,,,,,,,,,,,,,,,,,,,,,,,None,,233.85709420999046,None,233.85709420999046,None,2022-07-13-13:54:21.349129,233.86794549995102,234.1735061998479,233.86794549995102,None,None,233.86794549995102,None,234.6756014098646,None,,,,22010,0001,2022_Jul_13_1350,localizer,2021.1.3,59.899823553301246,
block,scrambled,scrambled003.bmp,,,,,0,24,24,24,,,,,,,,,,,,,,,,,,,,,,,,,,,,,,,,,,,,,,,,,,None,,234.6756014098646,None,234.6756014098646,None,2022-07-13-13:54:22.171623,234.69156800000928,235.0066199998837,234.69156800000928,None,None,234.69156800000928,None,235.49148490990046,None,,,,22010,0001,2022_Jul_13_1350,localizer,2021.1.3,59.899823553301246,
block,scrambled,scrambled052.bmp,,,,,0,25,25,25,,,,,,,,,,,,,,,,,,,,,,,,,,,,,,,,,,,,,,,,,,None,,235.49148490990046,None,235.49148490990046,None,2022-07-13-13:54:22.984488,235.50436739996076,235.80661039985716,235.50436739996076,None,None,235.50436739996076,None,236.3067102098139,None,,,,22010,0001,2022_Jul_13_1350,localizer,2021.1.3,59.899823553301246,
block,scrambled,scrambled087.bmp,,,,,0,26,26,26,,,,,,,,,,,,,,,,,,,,,,,,,,,,,,,,,,,,,,,,,,None,,236.3067102098139,None,236.3067102098139,None,2022-07-13-13:54:23.798462,236.31543079996482,236.62363970000297,236.31543079996482,None,None,236.31543079996482,None,237.12368990981486,None,,,,22010,0001,2022_Jul_13_1350,localizer,2021.1.3,59.899823553301246,
block,scrambled,scrambled018.bmp,,,,,0,27,27,27,,,,,,,,,,,,,,,,,,,,,,,,,,,,,,,,,,,,,,,,,,None,,237.12368990981486,None,237.12368990981486,None,2022-07-13-13:54:24.615728,237.13385499990545,237.44029689999297,237.13385499990545,None,None,237.13385499990545,None,237.94053130981047,None,,,,22010,0001,2022_Jul_13_1350,localizer,2021.1.3,59.899823553301246,
block,scrambled,scrambled020.bmp,,,,,0,28,28,28,,,,,,,,,,,,,,,,,,,,,,,,,,,,,,,,,,,,,,,,,,None,,237.94053130981047,None,237.94053130981047,None,2022-07-13-13:54:25.432708,237.95092429989018,238.26034869998693,237.95092429989018,None,None,237.95092429989018,None,238.7571352099767,None,,,,22010,0001,2022_Jul_13_1350,localizer,2021.1.3,59.899823553301246,
block,scrambled,scrambled070.bmp,,,,,0,29,29,29,,,,,,,,,,,,,,,,,,,,,,,,,,,,,,,,,,,,,,,,,,None,,238.7571352099767,None,238.7571352099767,None,2022-07-13-13:54:26.248154,238.76149539998733,239.07360379979946,238.76149539998733,None,None,238.76149539998733,None,239.5738555098651,None,,,,22010,0001,2022_Jul_13_1350,localizer,2021.1.3,59.899823553301246,
block_end,scrambled,scrambled044.bmp,,,,,0,30,30,30,,,,,,,,,,,,,,,,,,,,,,,,,,,,,,,,,,,,,,,,,,None,,239.5738555098651,None,239.5738555098651,None,2022-07-13-13:54:27.065892,239.58463589986786,239.88972439989448,239.58463589986786,None,None,239.58463589986786,None,240.3901445098454,None,,,,22010,0001,2022_Jul_13_1350,localizer,2021.1.3,59.899823553301246,
block_start,objects,objects018.bmp,,,,,0,31,31,31,,,,,,,,,,,,,,,,,,,,,,,,,,,,,,,,,,,,,,,,,,t,1.7524677999317646,240.39010319998488,None,240.39010319998488,None,2022-07-13-13:54:29.651121,242.17063379986212,242.47364969993941,242.17063379986212,None,None,242.17063379986212,None,242.97365690988954,None,,,,22010,0001,2022_Jul_13_1350,localizer,2021.1.3,59.899823553301246,
block,objects,objects081.bmp,,,,,0,32,32,32,,,,,,,,,,,,,,,,,,,,,,,,,,,,,,,,,,,,,,,,,,None,,242.97365690988954,None,242.97365690988954,None,2022-07-13-13:54:30.465917,242.98376109986566,243.2949661000166,242.98376109986566,None,None,242.98376109986566,None,243.77995460981037,None,,,,22010,0001,2022_Jul_13_1350,localizer,2021.1.3,59.899823553301246,
block,objects,objects082.bmp,,,,,0,33,33,33,,,,,,,,,,,,,,,,,,,,,,,,,,,,,,,,,,,,,,,,,,None,,243.77995460981037,None,243.77995460981037,None,2022-07-13-13:54:31.277890,243.79655269999057,244.1068900998216,243.79655269999057,None,None,243.79655269999057,None,244.59020431002136,None,,,,22010,0001,2022_Jul_13_1350,localizer,2021.1.3,59.899823553301246,
block,objects,objects072.bmp,,,,,0,34,34,34,,,,,,,,,,,,,,,,,,,,,,,,,,,,,,,,,,,,,,,,,,None,,244.59020431002136,None,244.59020431002136,None,2022-07-13-13:54:32.082453,244.60015930002555,244.90654859994538,244.60015930002555,None,None,244.60015930002555,None,245.40712800982874,None,,,,22010,0001,2022_Jul_13_1350,localizer,2021.1.3,59.899823553301246,
block,objects,objects009.bmp,,,,,0,35,35,35,,,,,,,,,,,,,,,,,,,,,,,,,,,,,,,,,,,,,,,,,,None,,245.40712800982874,None,245.40712800982874,None,2022-07-13-13:54:32.899164,245.41805400000885,245.7235037998762,245.41805400000885,None,None,245.41805400000885,None,246.22468640992884,None,,,,22010,0001,2022_Jul_13_1350,localizer,2021.1.3,59.899823553301246,
block,objects,objects043.bmp,,,,,0,36,36,36,,,,,,,,,,,,,,,,,,,,,,,,,,,,,,,,,,,,,,,,,,None,,246.22468640992884,None,246.22468640992884,None,2022-07-13-13:54:33.718612,246.23805519985035,246.54018189990893,246.23805519985035,None,None,246.23805519985035,None,247.0406514100032,None,,,,22010,0001,2022_Jul_13_1350,localizer,2021.1.3,59.899823553301246,
block,objects,objects052.bmp,,,,,0,37,37,37,,,,,,,,,,,,,,,,,,,,,,,,,,,,,,,,,,,,,,,,,,None,,247.0406514100032,None,247.0406514100032,None,2022-07-13-13:54:34.533873,247.0524799998384,247.35708429990336,247.0524799998384,None,None,247.0524799998384,None,247.85728670994285,None,,,,22010,0001,2022_Jul_13_1350,localizer,2021.1.3,59.899823553301246,
block,objects,objects048.bmp,,,,,0,38,38,38,,,,,,,,,,,,,,,,,,,,,,,,,,,,,,,,,,,,,,,,,,None,,247.85728670994285,None,247.85728670994285,None,2022-07-13-13:54:35.349533,247.8641854999587,248.1737204999663,247.8641854999587,None,None,247.8641854999587,None,248.67341020994354,None,,,,22010,0001,2022_Jul_13_1350,localizer,2021.1.3,59.899823553301246,
block,objects,objects061.bmp,,,,,0,39,39,39,,,,,,,,,,,,,,,,,,,,,,,,,,,,,,,,,,,,,,,,,,None,,248.67341020994354,None,248.67341020994354,None,2022-07-13-13:54:36.165422,248.68135269987397,248.9905745999422,248.68135269987397,None,None,248.68135269987397,None,249.49137360986788,None,,,,22010,0001,2022_Jul_13_1350,localizer,2021.1.3,59.899823553301246,
block,objects,objects029.bmp,,,,,0,40,40,40,,,,,,,,,,,,,,,,,,,,,,,,,,,,,,,,,,,,,,,,,,None,,249.49137360986788,None,249.49137360986788,None,2022-07-13-13:54:36.984996,249.50478909979574,249.8068748000078,249.50478909979574,None,None,249.50478909979574,None,250.30798300995957,None,,,,22010,0001,2022_Jul_13_1350,localizer,2021.1.3,59.899823553301246,
block,objects,objects079.bmp,,,,,0,41,41,41,,,,,,,,,,,,,,,,,,,,,,,,,,,,,,,,,,,,,,,,,,None,,250.30798300995957,None,250.30798300995957,None,2022-07-13-13:54:37.801153,250.3205108998809,250.623676299816,250.3205108998809,None,None,250.3205108998809,None,251.12387000990566,None,,,,22010,0001,2022_Jul_13_1350,localizer,2021.1.3,59.899823553301246,
block,objects,objects008.bmp,,,,,0,42,42,42,,,,,,,,,,,,,,,,,,,,,,,,,,,,,,,,,,,,,,,,,,None,,251.12387000990566,None,251.12387000990566,None,2022-07-13-13:54:38.615907,251.1297700998839,251.44035249995068,251.1297700998839,None,None,251.1297700998839,None,251.9401018099161,None,,,,22010,0001,2022_Jul_13_1350,localizer,2021.1.3,59.899823553301246,
block,objects,objects053.bmp,,,,,0,43,43,43,,,,,,,,,,,,,,,,,,,,,,,,,,,,,,,,,,,,,,,,,,None,,251.9401018099161,None,251.9401018099161,None,2022-07-13-13:54:39.432163,251.9468171999324,252.256496099988,251.9468171999324,None,None,251.9468171999324,None,252.7570806100266,None,,,,22010,0001,2022_Jul_13_1350,localizer,2021.1.3,59.899823553301246,
block,objects,objects031.bmp,,,,,0,44,44,44,,,,,,,,,,,,,,,,,,,,,,,,,,,,,,,,,,,,,,,,,,None,,252.7570806100266,None,252.7570806100266,None,2022-07-13-13:54:40.248121,252.7650508999359,253.0737182998564,252.7650508999359,None,None,252.7650508999359,None,253.57558691001032,None,,,,22010,0001,2022_Jul_13_1350,localizer,2021.1.3,59.899823553301246,
block_end,objects,objects041.bmp,,,,,0,45,45,45,,,,,,,,,,,,,,,,,,,,,,,,,,,,,,,,,,,,,,,,,,None,,253.57558691001032,None,253.57558691001032,None,2022-07-13-13:54:41.070775,253.59006059984677,253.89017599984072,253.59006059984677,None,None,253.59006059984677,None,254.39057630987372,None,,,,22010,0001,2022_Jul_13_1350,localizer,2021.1.3,59.899823553301246,
block_start,scenes,scenes038.bmp,,,,,0,46,46,46,,,,,,,,,,,,,,,,,,,,,,,,,,,,,,,,,,,,,,,,,,t,1.7521121001336724,254.39056859980337,None,254.39056859980337,None,2022-07-13-13:54:43.665623,256.18500099983066,256.4904128999915,256.18500099983066,None,None,256.18500099983066,None,256.990849609836,None,,,,22010,0001,2022_Jul_13_1350,localizer,2021.1.3,59.899823553301246,
block,scenes,scenes082.bmp,,,,,0,47,47,47,,,,,,,,,,,,,,,,,,,,,,,,,,,,,,,,,,,,,,,,,,None,,256.990849609836,None,256.990849609836,None,2022-07-13-13:54:44.483877,257.00307819992304,257.30667979991995,257.00307819992304,None,None,257.00307819992304,None,257.80647520988714,None,,,,22010,0001,2022_Jul_13_1350,localizer,2021.1.3,59.899823553301246,
block,scenes,scenes053.bmp,,,,,0,48,48,48,,,,,,,,,,,,,,,,,,,,,,,,,,,,,,,,,,,,,,,,,,None,,257.80647520988714,None,257.80647520988714,None,2022-07-13-13:54:45.298521,257.8153531998396,258.12390389991924,257.8153531998396,None,None,257.8153531998396,None,258.6236039098585,None,,,,22010,0001,2022_Jul_13_1350,localizer,2021.1.3,59.899823553301246,
block,scenes,scenes047.bmp,,,,,0,49,49,49,,,,,,,,,,,,,,,,,,,,,,,,,,,,,,,,,,,,,,,,,,None,,258.6236039098585,None,258.6236039098585,None,2022-07-13-13:54:46.115873,258.6336519999895,258.94014559988864,258.6336519999895,None,None,258.6336519999895,None,259.44226460985374,None,,,,22010,0001,2022_Jul_13_1350,localizer,2021.1.3,59.899823553301246,
block,scenes,scenes018.bmp,,,,,0,50,50,50,,,,,,,,,,,,,,,,,,,,,,,,,,,,,,,,,,,,,,,,,,None,,259.44226460985374,None,259.44226460985374,None,2022-07-13-13:54:46.938291,259.45833659986965,259.77352429996245,259.45833659986965,None,None,259.45833659986965,None,260.25701661000494,None,,,,22010,0001,2022_Jul_13_1350,localizer,2021.1.3,59.899823553301246,
block,scenes,scenes042.bmp,,,,,0,51,51,51,,,,,,,,,,,,,,,,,,,,,,,,,,,,,,,,,,,,,,,,,,None,,260.25701661000494,None,260.25701661000494,None,2022-07-13-13:54:47.749053,260.26795749994926,260.57370919990353,260.26795749994926,None,None,260.26795749994926,None,261.07378110999707,None,,,,22010,0001,2022_Jul_13_1350,localizer,2021.1.3,59.899823553301246,
block,scenes,scenes019.bmp,,,,,0,52,52,52,,,,,,,,,,,,,,,,,,,,,,,,,,,,,,,,,,,,,,,,,,None,,261.07378110999707,None,261.07378110999707,None,2022-07-13-13:54:48.565820,261.08423929987475,261.3904482999351,261.08423929987475,None,None,261.08423929987475,None,261.89045420999173,None,,,,22010,0001,2022_Jul_13_1350,localizer,2021.1.3,59.899823553301246,
block,scenes,scenes010.bmp,,,,,0,53,53,53,,,,,,,,,,,,,,,,,,,,,,,,,,,,,,,,,,,,,,,,,,None,,261.89045420999173,None,261.89045420999173,None,2022-07-13-13:54:49.382724,261.90138969989493,262.2130664999131,261.90138969989493,None,None,261.90138969989493,None,262.7081308098277,None,,,,22010,0001,2022_Jul_13_1350,localizer,2021.1.3,59.899823553301246,
block,scenes,scenes051.bmp,,,,,0,54,54,54,,,,,,,,,,,,,,,,,,,,,,,,,,,,,,,,,,,,,,,,,,None,,262.7081308098277,None,262.7081308098277,None,2022-07-13-13:54:50.201354,262.7211139998399,263.0234079998918,262.7211139998399,None,None,262.7211139998399,None,263.52420780982357,None,,,,22010,0001,2022_Jul_13_1350,localizer,2021.1.3,59.899823553301246,
block,scenes,scenes055.bmp,,,,,0,55,55,55,,,,,,,,,,,,,,,,,,,,,,,,,,,,,,,,,,,,,,,,,,None,,263.52420780982357,None,263.52420780982357,None,2022-07-13-13:54:51.017428,263.5370202998165,263.84013099991716,263.5370202998165,None,None,263.5370202998165,None,264.3404090098338,None,,,,22010,0001,2022_Jul_13_1350,localizer,2021.1.3,59.899823553301246,
block,scenes,scenes011.bmp,,,,,0,56,56,56,,,,,,,,,,,,,,,,,,,,,,,,,,,,,,,,,,,,,,,,,,None,,264.3404090098338,None,264.3404090098338,None,2022-07-13-13:54:51.832479,264.3506553999614,264.6569877997972,264.3506553999614,None,None,264.3506553999614,None,265.1572381098522,None,,,,22010,0001,2022_Jul_13_1350,localizer,2021.1.3,59.899823553301246,
block,scenes,scenes041.bmp,,,,,0,57,57,57,,,,,,,,,,,,,,,,,,,,,,,,,,,,,,,,,,,,,,,,,,None,,265.1572381098522,None,265.1572381098522,None,2022-07-13-13:54:52.649298,265.16811379999854,265.47399419988506,265.16811379999854,None,None,265.16811379999854,None,265.97352080990095,None,,,,22010,0001,2022_Jul_13_1350,localizer,2021.1.3,59.899823553301246,
block,scenes,scenes086.bmp,,,,,0,58,58,58,,,,,,,,,,,,,,,,,,,,,,,,,,,,,,,,,,,,,,,,,,None,,265.97352080990095,None,265.97352080990095,None,2022-07-13-13:54:53.465559,265.9791633998975,266.29032099992037,265.9791633998975,None,None,265.9791633998975,None,266.7904232098954,None,,,,22010,0001,2022_Jul_13_1350,localizer,2021.1.3,59.899823553301246,
block,scenes,scenes062.bmp,,,,,0,59,59,59,,,,,,,,,,,,,,,,,,,,,,,,,,,,,,,,,,,,,,,,,,None,,266.7904232098954,None,266.7904232098954,None,2022-07-13-13:54:54.282461,266.80154249980114,267.10737979994155,266.80154249980114,None,None,266.80154249980114,None,267.607187509886,None,,,,22010,0001,2022_Jul_13_1350,localizer,2021.1.3,59.899823553301246,
block_end,scenes,scenes033.bmp,,,,,0,60,60,60,,,,,,,,,,,,,,,,,,,,,,,,,,,,,,,,,,,,,,,,,,None,,267.607187509886,None,267.607187509886,None,2022-07-13-13:54:55.099227,267.6176129998639,267.9237265998963,267.6176129998639,None,None,267.6176129998639,None,268.42378541000653,None,,,,22010,0001,2022_Jul_13_1350,localizer,2021.1.3,59.899823553301246,
null_block,null_block,null_block.bmp,,,,,0,61,61,61,,,,,,,,,,,,,,,,,,,,,,,,,,,,,,,,,,,,,,,,,,t,1.718849099939689,268.423811199842,None,268.423811199842,None,2022-07-13-13:54:57.664922,270.1738607099978,None,270.1738607099978,None,None,270.1738607099978,None,270.17638519988395,None,,,,22010,0001,2022_Jul_13_1350,localizer,2021.1.3,59.899823553301246,
block_start,objects,objects057.bmp,,,,,0,62,62,62,,,,,,,,,,,,,,,,,,,,,,,,,,,,,,,,,,,,,,,,,,t,1.9510914999991655,282.1905512998346,None,282.1905512998346,None,2022-07-13-13:55:11.651610,284.1692033999134,284.4738000999205,284.1692033999134,None,None,284.1692033999134,None,284.97393270989414,None,,,,22010,0001,2022_Jul_13_1350,localizer,2021.1.3,59.899823553301246,
block,objects,objects016.bmp,,,,,0,63,63,63,,,,,,,,,,,,,,,,,,,,,,,,,,,,,,,,,,,,,,,,,,None,,284.97393270989414,None,284.97393270989414,None,2022-07-13-13:55:12.466166,284.9849246998783,285.2906766999513,284.9849246998783,None,None,284.9849246998783,None,285.7901007098844,None,,,,22010,0001,2022_Jul_13_1350,localizer,2021.1.3,59.899823553301246,
block,objects,objects009.bmp,,,,,0,64,64,64,,,,,,,,,,,,,,,,,,,,,,,,,,,,,,,,,,,,,,,,,,None,,285.7901007098844,None,285.7901007098844,None,2022-07-13-13:55:13.282139,285.7913840999827,286.0905186999589,285.7913840999827,None,None,285.7913840999827,None,286.59048060991336,None,,,,22010,0001,2022_Jul_13_1350,localizer,2021.1.3,59.899823553301246,
block,objects,objects046.bmp,,,,,0,65,65,65,,,,,,,,,,,,,,,,,,,,,,,,,,,,,,,,,,,,,,,,,,None,,286.59048060991336,None,286.59048060991336,None,2022-07-13-13:55:14.083834,286.601466699969,286.90706070000306,286.601466699969,286.601466699969,None,286.601466699969,286.601466699969,287.40691140980925,None,,,,22010,0001,2022_Jul_13_1350,localizer,2021.1.3,59.899823553301246,
block,objects,objects082.bmp,,,,,0,66,66,66,,,,,,,,,,,,,,,,,,,,,,,,,,,,,,,,,,,,,,,,,,None,,287.40691140980925,None,287.40691140980925,None,2022-07-13-13:55:14.898947,287.4079874998424,287.7072322999593,287.4079874998424,None,None,287.4079874998424,None,288.2071741098771,None,,,,22010,0001,2022_Jul_13_1350,localizer,2021.1.3,59.899823553301246,
block,objects,objects043.bmp,,,,,0,67,67,67,,,,,,,,,,,,,,,,,,,,,,,,,,,,,,,,,,,,,,,,,,None,,288.2071741098771,None,288.2071741098771,None,2022-07-13-13:55:15.701421,288.20916089997627,288.52383499988355,288.20916089997627,288.20916089997627,None,288.20916089997627,288.20916089997627,289.0241485099541,None,,,,22010,0001,2022_Jul_13_1350,localizer,2021.1.3,59.899823553301246,
block,objects,objects066.bmp,,,,,0,68,68,68,,,,,,,,,,,,,,,,,,,,,,,,,,,,,,,,,,,,,,,,,,None,,289.0241485099541,None,289.0241485099541,None,2022-07-13-13:55:16.516410,289.03490209998563,289.3403937998228,289.03490209998563,None,None,289.03490209998563,None,289.84048840997275,None,,,,22010,0001,2022_Jul_13_1350,localizer,2021.1.3,59.899823553301246,
block,objects,objects073.bmp,,,,,0,69,69,69,,,,,,,,,,,,,,,,,,,,,,,,,,,,,,,,,,,,,,,,,,None,,289.84048840997275,None,289.84048840997275,None,2022-07-13-13:55:17.332527,289.850836499827,290.15684750000946,289.850836499827,None,None,289.850836499827,None,290.6570991099579,None,,,,22010,0001,2022_Jul_13_1350,localizer,2021.1.3,59.899823553301246,
block,objects,objects022.bmp,,,,,0,70,70,70,,,,,,,,,,,,,,,,,,,,,,,,,,,,,,,,,,,,,,,,,,None,,290.6570991099579,None,290.6570991099579,None,2022-07-13-13:55:18.149142,290.66694369981997,290.973757899832,290.66694369981997,None,None,290.66694369981997,None,291.4738030099543,None,,,,22010,0001,2022_Jul_13_1350,localizer,2021.1.3,59.899823553301246,
block,objects,objects050.bmp,,,,,0,71,71,71,,,,,,,,,,,,,,,,,,,,,,,,,,,,,,,,,,,,,,,,,,None,,291.4738030099543,None,291.4738030099543,None,2022-07-13-13:55:18.965981,291.47962509980425,291.79064389993437,291.47962509980425,None,None,291.47962509980425,None,292.29045640991535,None,,,,22010,0001,2022_Jul_13_1350,localizer,2021.1.3,59.899823553301246,
block,objects,objects068.bmp,,,,,0,72,72,72,,,,,,,,,,,,,,,,,,,,,,,,,,,,,,,,,,,,,,,,,,None,,292.29045640991535,None,292.29045640991535,None,2022-07-13-13:55:19.782497,292.3002610998228,292.60749029996805,292.3002610998228,None,None,292.3002610998228,None,293.10719310992863,None,,,,22010,0001,2022_Jul_13_1350,localizer,2021.1.3,59.899823553301246,
block,objects,objects039.bmp,,,,,0,73,73,73,,,,,,,,,,,,,,,,,,,,,,,,,,,,,,,,,,,,,,,,,,None,,293.10719310992863,None,293.10719310992863,None,2022-07-13-13:55:20.599229,293.11694290000014,293.4237555998843,293.11694290000014,None,None,293.11694290000014,None,293.92465671000537,None,,,,22010,0001,2022_Jul_13_1350,localizer,2021.1.3,59.899823553301246,
block,objects,objects087.bmp,,,,,0,74,74,74,,,,,,,,,,,,,,,,,,,,,,,,,,,,,,,,,,,,,,,,,,None,,293.92465671000537,None,293.92465671000537,None,2022-07-13-13:55:21.417680,293.9363910998218,294.2405455999542,293.9363910998218,None,None,293.9363910998218,None,294.7405811100034,None,,,,22010,0001,2022_Jul_13_1350,localizer,2021.1.3,59.899823553301246,
block,objects,objects049.bmp,,,,,0,75,75,75,,,,,,,,,,,,,,,,,,,,,,,,,,,,,,,,,,,,,,,,,,None,,294.7405811100034,None,294.7405811100034,None,2022-07-13-13:55:22.232621,294.7504047998227,295.0569225999061,294.7504047998227,None,None,294.7504047998227,None,295.5568975099595,None,,,,22010,0001,2022_Jul_13_1350,localizer,2021.1.3,59.899823553301246,
block_end,objects,objects049.bmp,,,,,0,76,76,76,,,,,,,,,,,,,,,,,,,,,,,,,,,,,,,,,,,,,,,,,,None,,295.5568975099595,None,295.5568975099595,None,2022-07-13-13:55:23.048944,295.5580961999949,295.87384849996306,295.5580961999949,None,y,295.5580961999949,None,296.37359080987517,None,0.7704648999497294,,,22010,0001,2022_Jul_13_1350,localizer,2021.1.3,59.899823553301246,
block_start,scrambled,scrambled066.bmp,,,,,0,77,77,77,,,,,,,,,,,,,,,,,,,,,,,,,,,,,,,,,,,,,,,,,,t,1.7677438000682741,296.3737670998089,None,296.3737670998089,None,2022-07-13-13:55:25.649830,298.16879469994456,298.4738576998934,298.16879469994456,None,None,298.16879469994456,None,298.973948710016,None,,,,22010,0001,2022_Jul_13_1350,localizer,2021.1.3,59.899823553301246,
block,scrambled,scrambled061.bmp,,,,,0,78,78,78,,,,,,,,,,,,,,,,,,,,,,,,,,,,,,,,,,,,,,,,,,None,,298.973948710016,None,298.973948710016,None,2022-07-13-13:55:26.465987,298.9849795999471,299.2904898999259,298.9849795999471,None,None,298.9849795999471,None,299.79107560997363,None,,,,22010,0001,2022_Jul_13_1350,localizer,2021.1.3,59.899823553301246,
block,scrambled,scrambled020.bmp,,,,,0,79,79,79,,,,,,,,,,,,,,,,,,,,,,,,,,,,,,,,,,,,,,,,,,None,,299.79107560997363,None,299.79107560997363,None,2022-07-13-13:55:27.284097,299.79196970001794,300.0912513998337,299.79196970001794,None,None,299.79196970001794,None,300.60725230991375,None,,,,22010,0001,2022_Jul_13_1350,localizer,2021.1.3,59.899823553301246,
block,scrambled,scrambled076.bmp,,,,,0,80,80,80,,,,,,,,,,,,,,,,,,,,,,,,,,,,,,,,,,,,,,,,,,None,,300.60725230991375,None,300.60725230991375,None,2022-07-13-13:55:28.099290,300.618566500023,300.9238533999305,300.618566500023,None,None,300.618566500023,None,301.42530350980815,None,,,,22010,0001,2022_Jul_13_1350,localizer,2021.1.3,59.899823553301246,
block,scrambled,scrambled043.bmp,,,,,0,81,81,81,,,,,,,,,,,,,,,,,,,,,,,,,,,,,,,,,,,,,,,,,,None,,301.42530350980815,None,301.42530350980815,None,2022-07-13-13:55:28.918493,301.4277384998277,301.74087979993783,301.4277384998277,None,None,301.4277384998277,None,302.24005210993346,None,,,,22010,0001,2022_Jul_13_1350,localizer,2021.1.3,59.899823553301246,
block,scrambled,scrambled058.bmp,,,,,0,82,82,82,,,,,,,,,,,,,,,,,,,,,,,,,,,,,,,,,,,,,,,,,,None,,302.24005210993346,None,302.24005210993346,None,2022-07-13-13:55:29.732096,302.2490689998958,302.5570068999659,302.2490689998958,None,None,302.2490689998958,None,303.05732720985543,None,,,,22010,0001,2022_Jul_13_1350,localizer,2021.1.3,59.899823553301246,
block,scrambled,scrambled080.bmp,,,,,0,83,83,83,,,,,,,,,,,,,,,,,,,,,,,,,,,,,,,,,,,,,,,,,,None,,303.05732720985543,None,303.05732720985543,None,2022-07-13-13:55:30.549365,303.0678085000254,303.3737945999019,303.0678085000254,None,None,303.0678085000254,None,303.8736267100321,None,,,,22010,0001,2022_Jul_13_1350,localizer,2021.1.3,59.899823553301246,
block,scrambled,scrambled003.bmp,,,,,0,84,84,84,,,,,,,,,,,,,,,,,,,,,,,,,,,,,,,,,,,,,,,,,,None,,303.8736267100321,None,303.8736267100321,None,2022-07-13-13:55:31.365410,303.87491939985193,304.1906018999871,303.87491939985193,None,None,303.87491939985193,None,304.6749813099159,None,,,,22010,0001,2022_Jul_13_1350,localizer,2021.1.3,59.899823553301246,
block,scrambled,scrambled062.bmp,,,,,0,85,85,85,,,,,,,,,,,,,,,,,,,,,,,,,,,,,,,,,,,,,,,,,,None,,304.6749813099159,None,304.6749813099159,None,2022-07-13-13:55:32.170066,304.6897710999474,304.990443599876,304.6897710999474,304.6897710999474,None,304.6897710999474,304.6897710999474,305.4904831099557,None,,,,22010,0001,2022_Jul_13_1350,localizer,2021.1.3,59.899823553301246,
block,scrambled,scrambled079.bmp,,,,,0,86,86,86,,,,,,,,,,,,,,,,,,,,,,,,,,,,,,,,,,,,,,,,,,None,,305.4904831099557,None,305.4904831099557,None,2022-07-13-13:55:32.982507,305.49176070000976,305.80702760000713,305.49176070000976,None,None,305.49176070000976,None,306.29139710997697,None,,,,22010,0001,2022_Jul_13_1350,localizer,2021.1.3,59.899823553301246,
block,scrambled,scrambled015.bmp,,,,,0,87,87,87,,,,,,,,,,,,,,,,,,,,,,,,,,,,,,,,,,,,,,,,,,None,,306.29139710997697,None,306.29139710997697,None,2022-07-13-13:55:33.787611,306.29573749983683,306.6132619997952,306.29573749983683,306.29573749983683,None,306.29573749983683,306.29573749983683,307.1071404098766,None,,,,22010,0001,2022_Jul_13_1350,localizer,2021.1.3,59.899823553301246,
block,scrambled,scrambled044.bmp,,,,,0,88,88,88,,,,,,,,,,,,,,,,,,,,,,,,,,,,,,,,,,,,,,,,,,None,,307.1071404098766,None,307.1071404098766,None,2022-07-13-13:55:34.599165,307.10834489995614,307.42419539997354,307.10834489995614,None,None,307.10834489995614,None,307.9235270099016,None,,,,22010,0001,2022_Jul_13_1350,localizer,2021.1.3,59.899823553301246,
block,scrambled,scrambled065.bmp,,,,,0,89,89,89,,,,,,,,,,,,,,,,,,,,,,,,,,,,,,,,,,,,,,,,,,None,,307.9235270099016,None,307.9235270099016,None,2022-07-13-13:55:35.415573,307.92477179993875,308.24057259992696,307.92477179993875,None,None,307.92477179993875,None,308.72451770992484,None,,,,22010,0001,2022_Jul_13_1350,localizer,2021.1.3,59.899823553301246,
block,scrambled,scrambled035.bmp,,,,,0,90,90,90,,,,,,,,,,,,,,,,,,,,,,,,,,,,,,,,,,,,,,,,,,None,,308.72451770992484,None,308.72451770992484,None,2022-07-13-13:55:36.219739,308.73874159995466,309.04112129984424,308.73874159995466,308.73874159995466,None,308.73874159995466,308.73874159995466,309.54085020988714,None,,,,22010,0001,2022_Jul_13_1350,localizer,2021.1.3,59.899823553301246,
block_end,scrambled,scrambled011.bmp,,,,,0,91,91,91,,,,,,,,,,,,,,,,,,,,,,,,,,,,,,,,,,,,,,,,,,None,,309.54085020988714,None,309.54085020988714,None,2022-07-13-13:55:37.032883,309.5517200999893,309.85948659991845,309.5517200999893,None,None,309.5517200999893,None,310.3597292100312,None,,,,22010,0001,2022_Jul_13_1350,localizer,2021.1.3,59.899823553301246,
block_start,scenes,scenes027.bmp,,,,,0,92,92,92,,,,,,,,,,,,,,,,,,,,,,,,,,,,,,,,,,,,,,,,,,t,1.7831806999165565,310.35831479984336,None,310.35831479984336,None,2022-07-13-13:55:39.650794,312.17069429997355,312.4738043998368,312.17069429997355,None,None,312.17069429997355,None,312.9744992099004,None,,,,22010,0001,2022_Jul_13_1350,localizer,2021.1.3,59.899823553301246,
block,scenes,scenes011.bmp,,,,,0,93,93,93,,,,,,,,,,,,,,,,,,,,,,,,,,,,,,,,,,,,,,,,,,None,,312.9744992099004,None,312.9744992099004,None,2022-07-13-13:55:40.468505,312.97651369986124,313.2908087999094,312.97651369986124,None,None,312.97651369986124,None,313.77604510996025,None,,,,22010,0001,2022_Jul_13_1350,localizer,2021.1.3,59.899823553301246,
block,scenes,scenes023.bmp,,,,,0,94,94,94,,,,,,,,,,,,,,,,,,,,,,,,,,,,,,,,,,,,,,,,,,None,,313.77604510996025,None,313.77604510996025,None,2022-07-13-13:55:41.274234,313.7935388998594,314.1078872999642,313.7935388998594,313.7935388998594,None,313.7935388998594,313.7935388998594,314.5903028099565,None,,,,22010,0001,2022_Jul_13_1350,localizer,2021.1.3,59.899823553301246,
block,scenes,scenes078.bmp,,,,,0,95,95,95,,,,,,,,,,,,,,,,,,,,,,,,,,,,,,,,,,,,,,,,,,None,,314.5903028099565,None,314.5903028099565,None,2022-07-13-13:55:42.082349,314.60035229986534,314.90725469985045,314.60035229986534,None,None,314.60035229986534,None,315.40853061003145,None,,,,22010,0001,2022_Jul_13_1350,localizer,2021.1.3,59.899823553301246,
block,scenes,scenes021.bmp,,,,,0,96,96,96,,,,,,,,,,,,,,,,,,,,,,,,,,,,,,,,,,,,,,,,,,None,,315.40853061003145,None,315.40853061003145,None,2022-07-13-13:55:42.901550,315.421933399979,315.7299944998231,315.421933399979,None,None,315.421933399979,None,316.2238511099713,None,,,,22010,0001,2022_Jul_13_1350,localizer,2021.1.3,59.899823553301246,
block,scenes,scenes049.bmp,,,,,0,97,97,97,,,,,,,,,,,,,,,,,,,,,,,,,,,,,,,,,,,,,,,,,,None,,316.2238511099713,None,316.2238511099713,None,2022-07-13-13:55:43.715894,316.23390270001255,316.54074570001103,316.23390270001255,None,None,316.23390270001255,None,317.0426691098837,None,,,,22010,0001,2022_Jul_13_1350,localizer,2021.1.3,59.899823553301246,
block,scenes,scenes042.bmp,,,,,0,98,98,98,,,,,,,,,,,,,,,,,,,,,,,,,,,,,,,,,,,,,,,,,,None,,317.0426691098837,None,317.0426691098837,None,2022-07-13-13:55:44.538130,317.0474987998605,317.357204800006,317.0474987998605,None,None,317.0474987998605,None,317.85732580989134,None,,,,22010,0001,2022_Jul_13_1350,localizer,2021.1.3,59.899823553301246,
block,scenes,scenes070.bmp,,,,,0,99,99,99,,,,,,,,,,,,,,,,,,,,,,,,,,,,,,,,,,,,,,,,,,None,,317.85732580989134,None,317.85732580989134,None,2022-07-13-13:55:45.349493,317.8677072999999,318.1738652999047,317.8677072999999,None,None,317.8677072999999,None,318.6740828099428,None,,,,22010,0001,2022_Jul_13_1350,localizer,2021.1.3,59.899823553301246,
block,scenes,scenes008.bmp,,,,,0,100,100,100,,,,,,,,,,,,,,,,,,,,,,,,,,,,,,,,,,,,,,,,,,None,,318.6740828099428,None,318.6740828099428,None,2022-07-13-13:55:46.166147,318.6846282000188,318.991397799924,318.6846282000188,None,None,318.6846282000188,None,319.49061120988335,None,,,,22010,0001,2022_Jul_13_1350,localizer,2021.1.3,59.899823553301246,
block,scenes,scenes019.bmp,,,,,0,101,101,101,,,,,,,,,,,,,,,,,,,,,,,,,,,,,,,,,,,,,,,,,,None,,319.49061120988335,None,319.49061120988335,None,2022-07-13-13:55:46.982664,319.49157049995847,319.79539310000837,319.49157049995847,None,None,319.49157049995847,None,320.3071909098653,None,,,,22010,0001,2022_Jul_13_1350,localizer,2021.1.3,59.899823553301246,
block,scenes,scenes079.bmp,,,,,0,102,102,102,,,,,,,,,,,,,,,,,,,,,,,,,,,,,,,,,,,,,,,,,,None,,320.3071909098653,None,320.3071909098653,None,2022-07-13-13:55:47.798240,320.3163550000172,320.62408369989134,320.3163550000172,None,None,320.3163550000172,None,321.1241348098265,None,,,,22010,0001,2022_Jul_13_1350,localizer,2021.1.3,59.899823553301246,
block,scenes,scenes048.bmp,,,,,0,103,103,103,,,,,,,,,,,,,,,,,,,,,,,,,,,,,,,,,,,,,,,,,,None,,321.1241348098265,None,321.1241348098265,None,2022-07-13-13:55:48.616309,321.1350779000204,321.44049539999105,321.1350779000204,None,None,321.1350779000204,None,321.94115150987636,None,,,,22010,0001,2022_Jul_13_1350,localizer,2021.1.3,59.899823553301246,
block,scenes,scenes005.bmp,,,,,0,104,104,104,,,,,,,,,,,,,,,,,,,,,,,,,,,,,,,,,,,,,,,,,,None,,321.94115150987636,None,321.94115150987636,None,2022-07-13-13:55:49.433382,321.95174449984916,322.2570809999015,321.95174449984916,None,None,321.95174449984916,None,322.7585501099238,None,,,,22010,0001,2022_Jul_13_1350,localizer,2021.1.3,59.899823553301246,
block,scenes,scenes040.bmp,,,,,0,105,105,105,,,,,,,,,,,,,,,,,,,,,,,,,,,,,,,,,,,,,,,,,,None,,322.7585501099238,None,322.7585501099238,None,2022-07-13-13:55:50.252748,322.7732082998846,323.0747179000173,322.7732082998846,None,None,322.7732082998846,None,323.5748964099912,None,,,,22010,0001,2022_Jul_13_1350,localizer,2021.1.3,59.899823553301246,
block_end,scenes,scenes065.bmp,,,,,0,106,106,106,,,,,,,,,,,,,,,,,,,,,,,,,,,,,,,,,,,,,,,,,,None,,323.5748964099912,None,323.5748964099912,None,2022-07-13-13:55:51.067919,323.58646429982036,323.8911213998217,323.58646429982036,None,None,323.58646429982036,None,324.39087810984347,None,,,,22010,0001,2022_Jul_13_1350,localizer,2021.1.3,59.899823553301246,
block_start,faces,faces072.bmp,,,,,0,107,107,107,,,,,,,,,,,,,,,,,,,,,,,,,,,,,,,,,,,,,,,,,,t,1.7509012999944389,324.39067330001853,None,324.39067330001853,None,2022-07-13-13:55:53.648496,326.1632132998202,326.4735526998993,326.1632132998202,None,None,326.1632132998202,None,326.9746127099497,None,,,,22010,0001,2022_Jul_13_1350,localizer,2021.1.3,59.899823553301246,
block,faces,faces011.bmp,,,,,0,108,108,108,,,,,,,,,,,,,,,,,,,,,,,,,,,,,,,,,,,,,,,,,,None,,326.9746127099497,None,326.9746127099497,None,2022-07-13-13:55:54.467638,326.9862752999179,327.29042199999094,326.9862752999179,None,None,326.9862752999179,None,327.79175310989376,None,,,,22010,0001,2022_Jul_13_1350,localizer,2021.1.3,59.899823553301246,
block,faces,faces037.bmp,,,,,0,109,109,109,,,,,,,,,,,,,,,,,,,,,,,,,,,,,,,,,,,,,,,,,,None,,327.79175310989376,None,327.79175310989376,None,2022-07-13-13:55:55.284946,327.7941667998675,328.1072980999015,327.7941667998675,None,None,327.7941667998675,None,328.6071927099256,None,,,,22010,0001,2022_Jul_13_1350,localizer,2021.1.3,59.899823553301246,
block,faces,faces051.bmp,,,,,0,110,110,110,,,,,,,,,,,,,,,,,,,,,,,,,,,,,,,,,,,,,,,,,,None,,328.6071927099256,None,328.6071927099256,None,2022-07-13-13:55:56.099472,328.61894589988515,328.9237887999043,328.61894589988515,None,None,328.61894589988515,None,329.4240827098256,None,,,,22010,0001,2022_Jul_13_1350,localizer,2021.1.3,59.899823553301246,
block,faces,faces042.bmp,,,,,0,111,111,111,,,,,,,,,,,,,,,,,,,,,,,,,,,,,,,,,,,,,,,,,,None,,329.4240827098256,None,329.4240827098256,None,2022-07-13-13:55:56.916549,329.4348758999258,329.74149029981345,329.4348758999258,None,None,329.4348758999258,None,330.24075690994505,None,,,,22010,0001,2022_Jul_13_1350,localizer,2021.1.3,59.899823553301246,
block,faces,faces083.bmp,,,,,0,112,112,112,,,,,,,,,,,,,,,,,,,,,,,,,,,,,,,,,,,,,,,,,,None,,330.24075690994505,None,330.24075690994505,None,2022-07-13-13:55:57.732795,330.2512946999632,330.55746249994263,330.2512946999632,None,None,330.2512946999632,None,331.057301510009,None,,,,22010,0001,2022_Jul_13_1350,localizer,2021.1.3,59.899823553301246,
block,faces,faces017.bmp,,,,,0,113,113,113,,,,,,,,,,,,,,,,,,,,,,,,,,,,,,,,,,,,,,,,,,None,,331.057301510009,None,331.057301510009,None,2022-07-13-13:55:58.549344,331.0670366999693,331.3739882998634,331.0670366999693,None,None,331.0670366999693,None,331.87488940998446,None,,,,22010,0001,2022_Jul_13_1350,localizer,2021.1.3,59.899823553301246,
block,faces,faces074.bmp,,,,,0,114,114,114,,,,,,,,,,,,,,,,,,,,,,,,,,,,,,,,,,,,,,,,,,None,,331.87488940998446,None,331.87488940998446,None,2022-07-13-13:55:59.367914,331.88397809979506,332.1912902998738,331.88397809979506,None,None,331.88397809979506,None,332.69065220991615,None,,,,22010,0001,2022_Jul_13_1350,localizer,2021.1.3,59.899823553301246,
block,faces,faces071.bmp,,,,,0,115,115,115,,,,,,,,,,,,,,,,,,,,,,,,,,,,,,,,,,,,,,,,,,None,,332.69065220991615,None,332.69065220991615,None,2022-07-13-13:56:00.182675,332.70139499986544,333.01389859989285,332.70139499986544,None,None,332.70139499986544,None,333.50856550980825,None,,,,22010,0001,2022_Jul_13_1350,localizer,2021.1.3,59.899823553301246,
block,faces,faces050.bmp,,,,,0,116,116,116,,,,,,,,,,,,,,,,,,,,,,,,,,,,,,,,,,,,,,,,,,None,,333.50856550980825,None,333.50856550980825,None,2022-07-13-13:56:01.001583,333.52103009982966,333.82379149994813,333.52103009982966,None,None,333.52103009982966,None,334.31382950989064,None,,,,22010,0001,2022_Jul_13_1350,localizer,2021.1.3,59.899823553301246,
block,faces,faces068.bmp,,,,,0,117,117,117,,,,,,,,,,,,,,,,,,,,,,,,,,,,,,,,,,,,,,,,,,None,,334.31382950989064,None,334.31382950989064,None,2022-07-13-13:56:01.809792,334.32994269998744,334.64119459991343,334.32994269998744,None,None,334.32994269998744,None,335.125161709846,None,,,,22010,0001,2022_Jul_13_1350,localizer,2021.1.3,59.899823553301246,
block,faces,faces030.bmp,,,,,0,118,118,118,,,,,,,,,,,,,,,,,,,,,,,,,,,,,,,,,,,,,,,,,,None,,335.125161709846,None,335.125161709846,None,2022-07-13-13:56:02.618363,335.1372868998442,335.44099189992994,335.1372868998442,None,None,335.1372868998442,None,335.9414686098462,None,,,,22010,0001,2022_Jul_13_1350,localizer,2021.1.3,59.899823553301246,
block,faces,faces010.bmp,,,,,0,119,119,119,,,,,,,,,,,,,,,,,,,,,,,,,,,,,,,,,,,,,,,,,,None,,335.9414686098462,None,335.9414686098462,None,2022-07-13-13:56:03.434670,335.95425129984505,336.2574602998793,335.95425129984505,None,None,335.95425129984505,None,336.75747060996946,None,,,,22010,0001,2022_Jul_13_1350,localizer,2021.1.3,59.899823553301246,
block,faces,faces059.bmp,,,,,0,120,120,120,,,,,,,,,,,,,,,,,,,,,,,,,,,,,,,,,,,,,,,,,,None,,336.75747060996946,None,336.75747060996946,None,2022-07-13-13:56:04.250415,336.7684730999172,337.0745617998764,336.7684730999172,None,None,336.7684730999172,None,337.57513300993014,None,,,,22010,0001,2022_Jul_13_1350,localizer,2021.1.3,59.899823553301246,
block_end,faces,faces045.bmp,,,,,0,121,121,121,,,,,,,,,,,,,,,,,,,,,,,,,,,,,,,,,,,,,,,,,,None,,337.57513300993014,None,337.57513300993014,None,2022-07-13-13:56:05.069147,337.5780736999586,337.8801561999135,337.5780736999586,None,None,337.5780736999586,None,338.3906807099702,None,,,,22010,0001,2022_Jul_13_1350,localizer,2021.1.3,59.899823553301246,
block_start,objects,objects028.bmp,,,,,0,122,122,122,,,,,,,,,,,,,,,,,,,,,,,,,,,,,,,,,,,,,,,,,,t,1.7509365000296384,338.3906520998571,None,338.3906520998571,None,2022-07-13-13:56:07.648361,340.16448609996587,340.4740856999997,340.16448609996587,None,None,340.16448609996587,None,340.9760942099383,None,,,,22010,0001,2022_Jul_13_1350,localizer,2021.1.3,59.899823553301246,
block,objects,objects059.bmp,,,,,0,123,123,123,,,,,,,,,,,,,,,,,,,,,,,,,,,,,,,,,,,,,,,,,,None,,340.9760942099383,None,340.9760942099383,None,2022-07-13-13:56:08.471037,340.9903496999759,341.29178129998036,340.9903496999759,None,None,340.9903496999759,None,341.79092930990737,None,,,,22010,0001,2022_Jul_13_1350,localizer,2021.1.3,59.899823553301246,
block,objects,objects069.bmp,,,,,0,124,124,124,,,,,,,,,,,,,,,,,,,,,,,,,,,,,,,,,,,,,,,,,,None,,341.79092930990737,None,341.79092930990737,None,2022-07-13-13:56:09.282963,341.80134849995375,342.1079984998796,341.80134849995375,None,None,341.80134849995375,None,342.60716660984326,None,,,,22010,0001,2022_Jul_13_1350,localizer,2021.1.3,59.899823553301246,
block,objects,objects020.bmp,,,,,0,125,125,125,,,,,,,,,,,,,,,,,,,,,,,,,,,,,,,,,,,,,,,,,,None,,342.60716660984326,None,342.60716660984326,None,2022-07-13-13:56:10.099437,342.6177020999603,342.9258233997971,342.6177020999603,None,None,342.6177020999603,None,343.4240537098376,None,,,,22010,0001,2022_Jul_13_1350,localizer,2021.1.3,59.899823553301246,
block,objects,objects014.bmp,,,,,0,126,126,126,,,,,,,,,,,,,,,,,,,,,,,,,,,,,,,,,,,,,,,,,,None,,343.4240537098376,None,343.4240537098376,None,2022-07-13-13:56:10.915122,343.4321673999075,343.73981719999574,343.4321673999075,None,None,343.4321673999075,None,344.2404758100165,None,,,,22010,0001,2022_Jul_13_1350,localizer,2021.1.3,59.899823553301246,
block,objects,objects085.bmp,,,,,0,127,127,127,,,,,,,,,,,,,,,,,,,,,,,,,,,,,,,,,,,,,,,,,,None,,344.2404758100165,None,344.2404758100165,None,2022-07-13-13:56:11.731527,344.24823249992914,344.558166799834,344.24823249992914,None,None,344.24823249992914,None,345.05746610986535,None,,,,22010,0001,2022_Jul_13_1350,localizer,2021.1.3,59.899823553301246,
block,objects,objects015.bmp,,,,,0,128,128,128,,,,,,,,,,,,,,,,,,,,,,,,,,,,,,,,,,,,,,,,,,None,,345.05746610986535,None,345.05746610986535,None,2022-07-13-13:56:12.549571,345.0680581999477,345.37408109987155,345.0680581999477,None,None,345.0680581999477,None,345.8741539098555,None,,,,22010,0001,2022_Jul_13_1350,localizer,2021.1.3,59.899823553301246,
block,objects,objects054.bmp,,,,,0,129,129,129,,,,,,,,,,,,,,,,,,,,,,,,,,,,,,,,,,,,,,,,,,None,,345.8741539098555,None,345.8741539098555,None,2022-07-13-13:56:13.366192,345.88407859997824,346.19135049986653,345.88407859997824,None,None,345.88407859997824,None,346.69061000982765,None,,,,22010,0001,2022_Jul_13_1350,localizer,2021.1.3,59.899823553301246,
block,objects,objects045.bmp,,,,,0,130,130,130,,,,,,,,,,,,,,,,,,,,,,,,,,,,,,,,,,,,,,,,,,None,,346.69061000982765,None,346.69061000982765,None,2022-07-13-13:56:14.182722,346.70059499982744,347.00790779991075,346.70059499982744,None,None,346.70059499982744,None,347.507056309958,None,,,,22010,0001,2022_Jul_13_1350,localizer,2021.1.3,59.899823553301246,
block,objects,objects063.bmp,,,,,0,131,131,131,,,,,,,,,,,,,,,,,,,,,,,,,,,,,,,,,,,,,,,,,,None,,347.507056309958,None,347.507056309958,None,2022-07-13-13:56:14.999101,347.51548539986834,347.8241770998575,347.51548539986834,None,None,347.51548539986834,None,348.323886809987,None,,,,22010,0001,2022_Jul_13_1350,localizer,2021.1.3,59.899823553301246,
block,objects,objects027.bmp,,,,,0,132,132,132,,,,,,,,,,,,,,,,,,,,,,,,,,,,,,,,,,,,,,,,,,None,,348.323886809987,None,348.323886809987,None,2022-07-13-13:56:15.814899,348.3317026998848,348.6406421000138,348.3317026998848,None,None,348.3317026998848,None,349.1417420100188,None,,,,22010,0001,2022_Jul_13_1350,localizer,2021.1.3,59.899823553301246,
block,objects,objects023.bmp,,,,,0,133,133,133,,,,,,,,,,,,,,,,,,,,,,,,,,,,,,,,,,,,,,,,,,None,,349.1417420100188,None,349.1417420100188,None,2022-07-13-13:56:16.634936,349.1542905999813,349.4575033998117,349.1542905999813,None,None,349.1542905999813,None,349.9572735099355,None,,,,22010,0001,2022_Jul_13_1350,localizer,2021.1.3,59.899823553301246,
block,objects,objects010.bmp,,,,,0,134,134,134,,,,,,,,,,,,,,,,,,,,,,,,,,,,,,,,,,,,,,,,,,None,,349.9572735099355,None,349.9572735099355,None,2022-07-13-13:56:17.449317,349.96613670000806,350.2753902999684,349.96613670000806,None,None,349.96613670000806,None,350.7637138100108,None,,,,22010,0001,2022_Jul_13_1350,localizer,2021.1.3,59.899823553301246,
block,objects,objects016.bmp,,,,,0,135,135,135,,,,,,,,,,,,,,,,,,,,,,,,,,,,,,,,,,,,,,,,,,None,,350.7637138100108,None,350.7637138100108,None,2022-07-13-13:56:18.263671,350.7697275998071,351.07390989991836,350.7697275998071,None,None,350.7697275998071,None,351.5746141098207,None,,,,22010,0001,2022_Jul_13_1350,localizer,2021.1.3,59.899823553301246,
block_end,objects,objects083.bmp,,,,,0,136,136,136,,,,,,,,,,,,,,,,,,,,,,,,,,,,,,,,,,,,,,,,,,None,,351.5746141098207,None,351.5746141098207,None,2022-07-13-13:56:19.067724,351.5863720998168,351.8904060998466,351.5863720998168,None,None,351.5863720998168,None,352.3903331098845,None,,,,22010,0001,2022_Jul_13_1350,localizer,2021.1.3,59.899823553301246,
null_block,null_block,null_block.bmp,,,,,0,137,137,137,,,,,,,,,,,,,,,,,,,,,,,,,,,,,,,,,,,,,,,,,,t,1.750966199906543,352.3906401998829,None,352.3906401998829,None,2022-07-13-13:56:21.657256,354.15939530998,None,354.15939530998,None,None,354.15939530998,None,354.16918429988436,None,,,,22010,0001,2022_Jul_13_1350,localizer,2021.1.3,59.899823553301246,
block_start,scenes,scenes056.bmp,,,,,0,138,138,138,,,,,,,,,,,,,,,,,,,,,,,,,,,,,,,,,,,,,,,,,,t,1.9671996999531984,366.1742755000014,None,366.1742755000014,None,2022-07-13-13:56:35.653638,368.1722034998238,368.4746667998843,368.1722034998238,None,None,368.1722034998238,None,368.97460070985835,None,,,,22010,0001,2022_Jul_13_1350,localizer,2021.1.3,59.899823553301246,
block,scenes,scenes065.bmp,,,,,0,139,139,139,,,,,,,,,,,,,,,,,,,,,,,,,,,,,,,,,,,,,,,,,,None,,368.97460070985835,None,368.97460070985835,None,2022-07-13-13:56:36.467611,368.9755710999016,369.27690869988874,368.9755710999016,None,None,368.9755710999016,None,369.79063700989354,None,,,,22010,0001,2022_Jul_13_1350,localizer,2021.1.3,59.899823553301246,
block,scenes,scenes065.bmp,,,,,0,140,140,140,,,,,,,,,,,,,,,,,,,,,,,,,,,,,,,,,,,,,,,,,,None,,369.79063700989354,None,369.79063700989354,None,2022-07-13-13:56:37.281687,369.7923506000079,370.10781760001555,369.7923506000079,None,None,369.7923506000079,None,370.60772750980686,None,,,,22010,0001,2022_Jul_13_1350,localizer,2021.1.3,59.899823553301246,
block,scenes,scenes068.bmp,,,,,0,141,141,141,,,,,,,,,,,,,,,,,,,,,,,,,,,,,,,,,,,,,,,,,,None,,370.60772750980686,None,370.60772750980686,None,2022-07-13-13:56:38.099761,370.6176422999706,370.9248313999269,370.6176422999706,None,y,370.6176422999706,None,371.4243557098089,None,0.07378259999677539,,,22010,0001,2022_Jul_13_1350,localizer,2021.1.3,59.899823553301246,
block,scenes,scenes085.bmp,,,,,0,142,142,142,,,,,,,,,,,,,,,,,,,,,,,,,,,,,,,,,,,,,,,,,,None,,371.4243557098089,None,371.4243557098089,None,2022-07-13-13:56:38.916393,371.4348300998099,371.74076689989306,371.4348300998099,None,None,371.4348300998099,None,372.2413058098173,None,,,,22010,0001,2022_Jul_13_1350,localizer,2021.1.3,59.899823553301246,
block,scenes,scenes081.bmp,,,,,0,143,143,143,,,,,,,,,,,,,,,,,,,,,,,,,,,,,,,,,,,,,,,,,,None,,372.2413058098173,None,372.2413058098173,None,2022-07-13-13:56:39.734334,372.2531539998017,372.5576307999436,372.2531539998017,None,None,372.2531539998017,None,373.05762630992103,None,,,,22010,0001,2022_Jul_13_1350,localizer,2021.1.3,59.899823553301246,
block,scenes,scenes070.bmp,,,,,0,144,144,144,,,,,,,,,,,,,,,,,,,,,,,,,,,,,,,,,,,,,,,,,,None,,373.05762630992103,None,373.05762630992103,None,2022-07-13-13:56:40.549665,373.0583952998277,373.357660099864,373.0583952998277,None,None,373.0583952998277,None,373.85855940997135,None,,,,22010,0001,2022_Jul_13_1350,localizer,2021.1.3,59.899823553301246,
block,scenes,scenes038.bmp,,,,,0,145,145,145,,,,,,,,,,,,,,,,,,,,,,,,,,,,,,,,,,,,,,,,,,None,,373.85855940997135,None,373.85855940997135,None,2022-07-13-13:56:41.353760,373.862521099858,374.1744865998626,373.862521099858,373.862521099858,None,373.862521099858,373.862521099858,374.6753033098066,None,,,,22010,0001,2022_Jul_13_1350,localizer,2021.1.3,59.899823553301246,
block,scenes,scenes061.bmp,,,,,0,146,146,146,,,,,,,,,,,,,,,,,,,,,,,,,,,,,,,,,,,,,,,,,,None,,374.6753033098066,None,374.6753033098066,None,2022-07-13-13:56:42.168496,374.689768999815,374.9908375998493,374.689768999815,None,None,374.689768999815,None,375.4904908098979,None,,,,22010,0001,2022_Jul_13_1350,localizer,2021.1.3,59.899823553301246,
block,scenes,scenes043.bmp,,,,,0,147,147,147,,,,,,,,,,,,,,,,,,,,,,,,,,,,,,,,,,,,,,,,,,None,,375.4904908098979,None,375.4904908098979,None,2022-07-13-13:56:42.983692,375.5003558997996,375.80816129990853,375.5003558997996,None,None,375.5003558997996,None,376.2971288099652,None,,,,22010,0001,2022_Jul_13_1350,localizer,2021.1.3,59.899823553301246,
block,scenes,scenes039.bmp,,,,,0,148,148,148,,,,,,,,,,,,,,,,,,,,,,,,,,,,,,,,,,,,,,,,,,None,,376.2971288099652,None,376.2971288099652,None,2022-07-13-13:56:43.792207,376.3066353998147,376.6078572999686,376.3066353998147,None,None,376.3066353998147,None,377.1087046099128,None,,,,22010,0001,2022_Jul_13_1350,localizer,2021.1.3,59.899823553301246,
block,scenes,scenes049.bmp,,,,,0,149,149,149,,,,,,,,,,,,,,,,,,,,,,,,,,,,,,,,,,,,,,,,,,None,,377.1087046099128,None,377.1087046099128,None,2022-07-13-13:56:44.601724,377.1110278000124,377.424132599961,377.1110278000124,None,None,377.1110278000124,None,377.92399150982965,None,,,,22010,0001,2022_Jul_13_1350,localizer,2021.1.3,59.899823553301246,
block,scenes,scenes022.bmp,,,,,0,150,150,150,,,,,,,,,,,,,,,,,,,,,,,,,,,,,,,,,,,,,,,,,,None,,377.92399150982965,None,377.92399150982965,None,2022-07-13-13:56:45.416558,377.93357190000825,378.2411048999056,377.93357190000825,None,None,377.93357190000825,None,378.74144071002956,None,,,,22010,0001,2022_Jul_13_1350,localizer,2021.1.3,59.899823553301246,
block,scenes,scenes051.bmp,,,,,0,151,151,151,,,,,,,,,,,,,,,,,,,,,,,,,,,,,,,,,,,,,,,,,,None,,378.74144071002956,None,378.74144071002956,None,2022-07-13-13:56:46.233665,378.7421593000181,379.0575616999995,378.7421593000181,None,None,378.7421593000181,None,379.5416540099541,None,,,,22010,0001,2022_Jul_13_1350,localizer,2021.1.3,59.899823553301246,
block_end,scenes,scenes036.bmp,,,,,0,152,152,152,,,,,,,,,,,,,,,,,,,,,,,,,,,,,,,,,,,,,,,,,,None,,379.5416540099541,None,379.5416540099541,None,2022-07-13-13:56:47.036700,379.5556049000006,379.857693699887,379.5556049000006,379.5556049000006,None,379.5556049000006,379.5556049000006,380.35774150991347,None,,,,22010,0001,2022_Jul_13_1350,localizer,2021.1.3,59.899823553301246,
block_start,scrambled,scrambled037.bmp,,,,,0,153,153,153,,,,,,,,,,,,,,,,,,,,,,,,,,,,,,,,,,,,,,,,,,t,1.7839299999177456,380.3575486999471,None,380.3575486999471,None,2022-07-13-13:56:49.648274,382.16741729993373,382.4745793999173,382.16741729993373,None,None,382.16741729993373,None,382.97376760991756,None,,,,22010,0001,2022_Jul_13_1350,localizer,2021.1.3,59.899823553301246,
block,scrambled,scrambled001.bmp,,,,,0,154,154,154,,,,,,,,,,,,,,,,,,,,,,,,,,,,,,,,,,,,,,,,,,None,,382.97376760991756,None,382.97376760991756,None,2022-07-13-13:56:50.464793,382.9761709999293,383.2910616998561,382.9761709999293,None,None,382.9761709999293,None,383.7916749099968,None,,,,22010,0001,2022_Jul_13_1350,localizer,2021.1.3,59.899823553301246,
block,scrambled,scrambled004.bmp,,,,,0,155,155,155,,,,,,,,,,,,,,,,,,,,,,,,,,,,,,,,,,,,,,,,,,None,,383.7916749099968,None,383.7916749099968,None,2022-07-13-13:56:51.285502,383.80440789996646,384.107692199992,383.80440789996646,None,None,383.80440789996646,None,384.6074289098615,None,,,,22010,0001,2022_Jul_13_1350,localizer,2021.1.3,59.899823553301246,
block,scrambled,scrambled059.bmp,,,,,0,156,156,156,,,,,,,,,,,,,,,,,,,,,,,,,,,,,,,,,,,,,,,,,,None,,384.6074289098615,None,384.6074289098615,None,2022-07-13-13:56:52.099658,384.6175809998531,384.92407459998503,384.6175809998531,None,None,384.6175809998531,None,385.42539770982694,None,,,,22010,0001,2022_Jul_13_1350,localizer,2021.1.3,59.899823553301246,
block,scrambled,scrambled045.bmp,,,,,0,157,157,157,,,,,,,,,,,,,,,,,,,,,,,,,,,,,,,,,,,,,,,,,,None,,385.42539770982694,None,385.42539770982694,None,2022-07-13-13:56:52.918596,385.43875420000404,385.7410389999859,385.43875420000404,None,None,385.43875420000404,None,386.24092610983644,None,,,,22010,0001,2022_Jul_13_1350,localizer,2021.1.3,59.899823553301246,
block,scrambled,scrambled014.bmp,,,,,0,158,158,158,,,,,,,,,,,,,,,,,,,,,,,,,,,,,,,,,,,,,,,,,,None,,386.24092610983644,None,386.24092610983644,None,2022-07-13-13:56:53.732965,386.246148499893,386.5583217998501,386.246148499893,None,None,386.246148499893,None,387.0580875099404,None,,,,22010,0001,2022_Jul_13_1350,localizer,2021.1.3,59.899823553301246,
block,scrambled,scrambled080.bmp,,,,,0,159,159,159,,,,,,,,,,,,,,,,,,,,,,,,,,,,,,,,,,,,,,,,,,None,,387.0580875099404,None,387.0580875099404,None,2022-07-13-13:56:54.551114,387.05895759980194,387.3743566998746,387.05895759980194,None,None,387.05895759980194,None,387.85809570981655,None,,,,22010,0001,2022_Jul_13_1350,localizer,2021.1.3,59.899823553301246,
block,scrambled,scrambled048.bmp,,,,,0,160,160,160,,,,,,,,,,,,,,,,,,,,,,,,,,,,,,,,,,,,,,,,,,None,,387.85809570981655,None,387.85809570981655,None,2022-07-13-13:56:55.353297,387.8715927999001,388.1743160998449,387.8715927999001,387.8715927999001,None,387.8715927999001,387.8715927999001,388.6748995099915,None,,,,22010,0001,2022_Jul_13_1350,localizer,2021.1.3,59.899823553301246,
block,scrambled,scrambled002.bmp,,,,,0,161,161,161,,,,,,,,,,,,,,,,,,,,,,,,,,,,,,,,,,,,,,,,,,None,,388.6748995099915,None,388.6748995099915,None,2022-07-13-13:56:56.168112,388.68765739980154,388.99207659997046,388.68765739980154,None,None,388.68765739980154,None,389.49095040990505,None,,,,22010,0001,2022_Jul_13_1350,localizer,2021.1.3,59.899823553301246,
block,scrambled,scrambled025.bmp,,,,,0,162,162,162,,,,,,,,,,,,,,,,,,,,,,,,,,,,,,,,,,,,,,,,,,None,,389.49095040990505,None,389.49095040990505,None,2022-07-13-13:56:56.982991,389.49610989983194,389.80733329989016,389.49610989983194,None,None,389.49610989983194,None,390.3075883098645,None,,,,22010,0001,2022_Jul_13_1350,localizer,2021.1.3,59.899823553301246,
block,scrambled,scrambled061.bmp,,,,,0,163,163,163,,,,,,,,,,,,,,,,,,,,,,,,,,,,,,,,,,,,,,,,,,None,,390.3075883098645,None,390.3075883098645,None,2022-07-13-13:56:57.798615,390.3100266000256,390.6242939999793,390.3100266000256,None,None,390.3100266000256,None,391.12543870985974,None,,,,22010,0001,2022_Jul_13_1350,localizer,2021.1.3,59.899823553301246,
block,scrambled,scrambled047.bmp,,,,,0,164,164,164,,,,,,,,,,,,,,,,,,,,,,,,,,,,,,,,,,,,,,,,,,None,,391.12543870985974,None,391.12543870985974,None,2022-07-13-13:56:58.619541,391.12770670000464,391.4409713000059,391.12770670000464,None,None,391.12770670000464,None,391.9429783098167,None,,,,22010,0001,2022_Jul_13_1350,localizer,2021.1.3,59.899823553301246,
block,scrambled,scrambled031.bmp,,,,,0,165,165,165,,,,,,,,,,,,,,,,,,,,,,,,,,,,,,,,,,,,,,,,,,None,,391.9429783098167,None,391.9429783098167,None,2022-07-13-13:56:59.439186,391.95994409988634,392.27421249984764,391.95994409988634,None,None,391.95994409988634,None,392.75776350998785,None,,,,22010,0001,2022_Jul_13_1350,localizer,2021.1.3,59.899823553301246,
block,scrambled,scrambled062.bmp,,,,,0,166,166,166,,,,,,,,,,,,,,,,,,,,,,,,,,,,,,,,,,,,,,,,,,None,,392.75776350998785,None,392.75776350998785,None,2022-07-13-13:57:00.250012,392.758571999846,393.07409149990417,392.758571999846,None,None,392.758571999846,None,393.55768421001267,None,,,,22010,0001,2022_Jul_13_1350,localizer,2021.1.3,59.899823553301246,
block_end,scrambled,scrambled081.bmp,,,,,0,167,167,167,,,,,,,,,,,,,,,,,,,,,,,,,,,,,,,,,,,,,,,,,,None,,393.55768421001267,None,393.55768421001267,None,2022-07-13-13:57:01.051713,393.5711755999364,393.8749626998324,393.5711755999364,393.5711755999364,None,393.5711755999364,393.5711755999364,394.3747917098226,None,,,,22010,0001,2022_Jul_13_1350,localizer,2021.1.3,59.899823553301246,
block_start,faces,faces017.bmp,,,,,0,168,168,168,,,,,,,,,,,,,,,,,,,,,,,,,,,,,,,,,,,,,,,,,,t,1.7664983000140637,394.37489999993704,None,394.37489999993704,None,2022-07-13-13:57:03.654272,396.1680328999646,396.4782252998557,396.1680328999646,None,None,396.1680328999646,None,396.9737660099054,None,,,,22010,0001,2022_Jul_13_1350,localizer,2021.1.3,59.899823553301246,
block,faces,faces079.bmp,,,,,0,169,169,169,,,,,,,,,,,,,,,,,,,,,,,,,,,,,,,,,,,,,,,,,,None,,396.9737660099054,None,396.9737660099054,None,2022-07-13-13:57:04.464815,396.97533259983175,397.29086670000106,396.97533259983175,None,None,396.97533259983175,None,397.79067990987096,None,,,,22010,0001,2022_Jul_13_1350,localizer,2021.1.3,59.899823553301246,
block,faces,faces018.bmp,,,,,0,170,170,170,,,,,,,,,,,,,,,,,,,,,,,,,,,,,,,,,,,,,,,,,,None,,397.79067990987096,None,397.79067990987096,None,2022-07-13-13:57:05.281730,397.79447750002146,398.10774199990556,397.79447750002146,None,None,397.79447750002146,None,398.59379770990927,None,,,,22010,0001,2022_Jul_13_1350,localizer,2021.1.3,59.899823553301246,
block,faces,faces013.bmp,,,,,0,171,171,171,,,,,,,,,,,,,,,,,,,,,,,,,,,,,,,,,,,,,,,,,,None,,398.59379770990927,None,398.59379770990927,None,2022-07-13-13:57:06.089933,398.6078151999973,398.90756289986894,398.6078151999973,398.6078151999973,None,398.6078151999973,398.6078151999973,399.40827310981695,None,,,,22010,0001,2022_Jul_13_1350,localizer,2021.1.3,59.899823553301246,
block,faces,faces046.bmp,,,,,0,172,172,172,,,,,,,,,,,,,,,,,,,,,,,,,,,,,,,,,,,,,,,,,,None,,399.40827310981695,None,399.40827310981695,None,2022-07-13-13:57:06.901885,399.4213597998023,399.7244344998617,399.4213597998023,None,None,399.4213597998023,None,400.2247918100329,None,,,,22010,0001,2022_Jul_13_1350,localizer,2021.1.3,59.899823553301246,
block,faces,faces004.bmp,,,,,0,173,173,173,,,,,,,,,,,,,,,,,,,,,,,,,,,,,,,,,,,,,,,,,,None,,400.2247918100329,None,400.2247918100329,None,2022-07-13-13:57:07.717817,400.2406460000202,400.5409754998982,400.2406460000202,None,None,400.2406460000202,None,401.040828409954,None,,,,22010,0001,2022_Jul_13_1350,localizer,2021.1.3,59.899823553301246,
block,faces,faces077.bmp,,,,,0,174,174,174,,,,,,,,,,,,,,,,,,,,,,,,,,,,,,,,,,,,,,,,,,None,,401.040828409954,None,401.040828409954,None,2022-07-13-13:57:08.532869,401.05139429983683,401.35834399983287,401.05139429983683,None,None,401.05139429983683,None,401.8573171099415,None,,,,22010,0001,2022_Jul_13_1350,localizer,2021.1.3,59.899823553301246,
block,faces,faces068.bmp,,,,,0,175,175,175,,,,,,,,,,,,,,,,,,,,,,,,,,,,,,,,,,,,,,,,,,None,,401.8573171099415,None,401.8573171099415,None,2022-07-13-13:57:09.349360,401.8587154999841,402.164197599981,401.8587154999841,None,None,401.8587154999841,None,402.6743572099367,None,,,,22010,0001,2022_Jul_13_1350,localizer,2021.1.3,59.899823553301246,
block,faces,faces052.bmp,,,,,0,176,176,176,,,,,,,,,,,,,,,,,,,,,,,,,,,,,,,,,,,,,,,,,,None,,402.6743572099367,None,402.6743572099367,None,2022-07-13-13:57:10.166401,402.6849815999158,402.99089339980856,402.6849815999158,None,None,402.6849815999158,None,403.49296820990276,None,,,,22010,0001,2022_Jul_13_1350,localizer,2021.1.3,59.899823553301246,
block,faces,faces045.bmp,,,,,0,177,177,177,,,,,,,,,,,,,,,,,,,,,,,,,,,,,,,,,,,,,,,,,,None,,403.49296820990276,None,403.49296820990276,None,2022-07-13-13:57:10.987865,403.4974830998108,403.80760809988715,403.4974830998108,None,None,403.4974830998108,None,404.3076460099546,None,,,,22010,0001,2022_Jul_13_1350,localizer,2021.1.3,59.899823553301246,
block,faces,faces067.bmp,,,,,0,178,178,178,,,,,,,,,,,,,,,,,,,,,,,,,,,,,,,,,,,,,,,,,,None,,404.3076460099546,None,404.3076460099546,None,2022-07-13-13:57:11.799900,404.31945339986123,404.624311799882,404.31945339986123,None,None,404.31945339986123,None,405.1249651099788,None,,,,22010,0001,2022_Jul_13_1350,localizer,2021.1.3,59.899823553301246,
block,faces,faces069.bmp,,,,,0,179,179,179,,,,,,,,,,,,,,,,,,,,,,,,,,,,,,,,,,,,,,,,,,None,,405.1249651099788,None,405.1249651099788,None,2022-07-13-13:57:12.618088,405.1377220998984,405.44100869982503,405.1377220998984,None,None,405.1377220998984,None,405.94107711000834,None,,,,22010,0001,2022_Jul_13_1350,localizer,2021.1.3,59.899823553301246,
block,faces,faces033.bmp,,,,,0,180,180,180,,,,,,,,,,,,,,,,,,,,,,,,,,,,,,,,,,,,,,,,,,None,,405.94107711000834,None,405.94107711000834,None,2022-07-13-13:57:13.433325,405.95506770000793,406.2575938999653,405.95506770000793,None,None,405.95506770000793,None,406.7574252098566,None,,,,22010,0001,2022_Jul_13_1350,localizer,2021.1.3,59.899823553301246,
block,faces,faces086.bmp,,,,,0,181,181,181,,,,,,,,,,,,,,,,,,,,,,,,,,,,,,,,,,,,,,,,,,None,,406.7574252098566,None,406.7574252098566,None,2022-07-13-13:57:14.249470,406.7664226000197,407.0743205999024,406.7664226000197,None,None,406.7664226000197,None,407.5755176098319,None,,,,22010,0001,2022_Jul_13_1350,localizer,2021.1.3,59.899823553301246,
block_end,faces,faces003.bmp,,,,,0,182,182,182,,,,,,,,,,,,,,,,,,,,,,,,,,,,,,,,,,,,,,,,,,None,,407.5755176098319,None,407.5755176098319,None,2022-07-13-13:57:15.068726,407.58892999985255,407.89093479979783,407.58892999985255,None,None,407.58892999985255,None,408.39092810999136,None,,,,22010,0001,2022_Jul_13_1350,localizer,2021.1.3,59.899823553301246,
block_start,objects,objects003.bmp,,,,,0,183,183,183,,,,,,,,,,,,,,,,,,,,,,,,,,,,,,,,,,,,,,,,,,t,1.7492733001708984,408.39102529990487,None,408.39102529990487,None,2022-07-13-13:57:17.648075,410.16700799996033,410.4744525998831,410.16700799996033,None,None,410.16700799996033,None,410.974549409817,None,,,,22010,0001,2022_Jul_13_1350,localizer,2021.1.3,59.899823553301246,
block,objects,objects060.bmp,,,,,0,184,184,184,,,,,,,,,,,,,,,,,,,,,,,,,,,,,,,,,,,,,,,,,,None,,410.974549409817,None,410.974549409817,None,2022-07-13-13:57:18.466583,410.9850851998199,411.2979786999058,410.9850851998199,None,None,410.9850851998199,None,411.7913149098167,None,,,,22010,0001,2022_Jul_13_1350,localizer,2021.1.3,59.899823553301246,
block,objects,objects006.bmp,,,,,0,185,185,185,,,,,,,,,,,,,,,,,,,,,,,,,,,,,,,,,,,,,,,,,,None,,411.7913149098167,None,411.7913149098167,None,2022-07-13-13:57:19.283353,411.8024903999176,412.10808509984054,411.8024903999176,None,None,411.8024903999176,None,412.6089170099003,None,,,,22010,0001,2022_Jul_13_1350,localizer,2021.1.3,59.899823553301246,
block,objects,objects012.bmp,,,,,0,186,186,186,,,,,,,,,,,,,,,,,,,,,,,,,,,,,,,,,,,,,,,,,,None,,412.6089170099003,None,412.6089170099003,None,2022-07-13-13:57:20.102493,412.622169499984,412.9241517998744,412.622169499984,None,None,412.622169499984,None,413.4244899098994,None,,,,22010,0001,2022_Jul_13_1350,localizer,2021.1.3,59.899823553301246,
block,objects,objects030.bmp,,,,,0,187,187,187,,,,,,,,,,,,,,,,,,,,,,,,,,,,,,,,,,,,,,,,,,None,,413.4244899098994,None,413.4244899098994,None,2022-07-13-13:57:20.916528,413.43484280002303,413.7410867998842,413.43484280002303,None,None,413.43484280002303,None,414.24229680991266,None,,,,22010,0001,2022_Jul_13_1350,localizer,2021.1.3,59.899823553301246,
block,objects,objects063.bmp,,,,,0,188,188,188,,,,,,,,,,,,,,,,,,,,,,,,,,,,,,,,,,,,,,,,,,None,,414.24229680991266,None,414.24229680991266,None,2022-07-13-13:57:21.735873,414.24494349979796,414.5423619998619,414.24494349979796,None,None,414.24494349979796,None,415.0573570098495,None,,,,22010,0001,2022_Jul_13_1350,localizer,2021.1.3,59.899823553301246,
block,objects,objects031.bmp,,,,,0,189,189,189,,,,,,,,,,,,,,,,,,,,,,,,,,,,,,,,,,,,,,,,,,None,,415.0573570098495,None,415.0573570098495,None,2022-07-13-13:57:22.548406,415.058537799865,415.35783459991217,415.058537799865,None,None,415.058537799865,None,415.8579258098034,None,,,,22010,0001,2022_Jul_13_1350,localizer,2021.1.3,59.899823553301246,
block,objects,objects039.bmp,,,,,0,190,190,190,,,,,,,,,,,,,,,,,,,,,,,,,,,,,,,,,,,,,,,,,,None,,415.8579258098034,None,415.8579258098034,None,2022-07-13-13:57:23.351958,415.859572699992,416.17448229994625,415.859572699992,415.859572699992,None,415.859572699992,415.859572699992,416.67445930989925,None,,,,22010,0001,2022_Jul_13_1350,localizer,2021.1.3,59.899823553301246,
block,objects,objects075.bmp,,,,,0,191,191,191,,,,,,,,,,,,,,,,,,,,,,,,,,,,,,,,,,,,,,,,,,None,,416.67445930989925,None,416.67445930989925,None,2022-07-13-13:57:24.166514,416.6851847998332,416.99098679982126,416.6851847998332,None,None,416.6851847998332,None,417.49125420989003,None,,,,22010,0001,2022_Jul_13_1350,localizer,2021.1.3,59.899823553301246,
block,objects,objects008.bmp,,,,,0,192,192,192,,,,,,,,,,,,,,,,,,,,,,,,,,,,,,,,,,,,,,,,,,None,,417.49125420989003,None,417.49125420989003,None,2022-07-13-13:57:24.983504,417.4921964998357,417.8078448998276,417.4921964998357,None,None,417.4921964998357,None,418.29120080999564,None,,,,22010,0001,2022_Jul_13_1350,localizer,2021.1.3,59.899823553301246,
block,objects,objects033.bmp,,,,,0,193,193,193,,,,,,,,,,,,,,,,,,,,,,,,,,,,,,,,,,,,,,,,,,None,,418.29120080999564,None,418.29120080999564,None,2022-07-13-13:57:25.785229,418.30376759986393,418.6077611998189,418.30376759986393,418.30376759986393,None,418.30376759986393,418.30376759986393,419.1076315100072,None,,,,22010,0001,2022_Jul_13_1350,localizer,2021.1.3,59.899823553301246,
block,objects,objects064.bmp,,,,,0,194,194,194,,,,,,,,,,,,,,,,,,,,,,,,,,,,,,,,,,,,,,,,,,None,,419.1076315100072,None,419.1076315100072,None,2022-07-13-13:57:26.599674,419.11727269995026,419.42435809993185,419.11727269995026,None,None,419.11727269995026,None,419.9244608100271,None,,,,22010,0001,2022_Jul_13_1350,localizer,2021.1.3,59.899823553301246,
block,objects,objects028.bmp,,,,,0,195,195,195,,,,,,,,,,,,,,,,,,,,,,,,,,,,,,,,,,,,,,,,,,None,,419.9244608100271,None,419.9244608100271,None,2022-07-13-13:57:27.423922,419.9349863999523,420.24079519999214,419.9349863999523,None,None,419.9349863999523,None,420.7420814099023,None,,,,22010,0001,2022_Jul_13_1350,localizer,2021.1.3,59.899823553301246,
block,objects,objects066.bmp,,,,,0,196,196,196,,,,,,,,,,,,,,,,,,,,,,,,,,,,,,,,,,,,,,,,,,None,,420.7420814099023,None,420.7420814099023,None,2022-07-13-13:57:28.235770,420.7449411000125,421.0576153998263,420.7449411000125,None,None,420.7449411000125,None,421.5583345099585,None,,,,22010,0001,2022_Jul_13_1350,localizer,2021.1.3,59.899823553301246,
block_end,objects,objects079.bmp,,,,,0,197,197,197,,,,,,,,,,,,,,,,,,,,,,,,,,,,,,,,,,,,,,,,,,None,,421.5583345099585,None,421.5583345099585,None,2022-07-13-13:57:29.051362,421.55912969983183,421.85855749994516,421.55912969983183,None,None,421.55912969983183,None,422.37453860987443,None,,,,22010,0001,2022_Jul_13_1350,localizer,2021.1.3,59.899823553301246,
block_start,scrambled,scrambled082.bmp,,,,,0,198,198,198,,,,,,,,,,,,,,,,,,,,,,,,,,,,,,,,,,,,,,,,,,t,1.7659178001340479,422.37453159992583,None,422.37453159992583,None,2022-07-13-13:57:31.649659,424.1681181997992,424.4746512998827,424.1681181997992,None,None,424.1681181997992,None,424.9746531100245,None,,,,22010,0001,2022_Jul_13_1350,localizer,2021.1.3,59.899823553301246,
block,scrambled,scrambled023.bmp,,,,,0,199,199,199,,,,,,,,,,,,,,,,,,,,,,,,,,,,,,,,,,,,,,,,,,None,,424.9746531100245,None,424.9746531100245,None,2022-07-13-13:57:32.466860,424.98214669991285,425.2908936999738,424.98214669991285,None,None,424.98214669991285,None,425.7922932099318,None,,,,22010,0001,2022_Jul_13_1350,localizer,2021.1.3,59.899823553301246,
block,scrambled,scrambled025.bmp,,,,,0,200,200,200,,,,,,,,,,,,,,,,,,,,,,,,,,,,,,,,,,,,,,,,,,None,,425.7922932099318,None,425.7922932099318,None,2022-07-13-13:57:33.285527,425.7931070998311,426.10783589980565,425.7931070998311,None,None,425.7931070998311,None,426.6087168100057,None,,,,22010,0001,2022_Jul_13_1350,localizer,2021.1.3,59.899823553301246,
block,scrambled,scrambled050.bmp,,,,,0,201,201,201,,,,,,,,,,,,,,,,,,,,,,,,,,,,,,,,,,,,,,,,,,None,,426.6087168100057,None,426.6087168100057,None,2022-07-13-13:57:34.100755,426.6203467999585,426.92564079980366,426.6203467999585,None,None,426.6203467999585,None,427.4249653100269,None,,,,22010,0001,2022_Jul_13_1350,localizer,2021.1.3,59.899823553301246,
block,scrambled,scrambled081.bmp,,,,,0,202,202,202,,,,,,,,,,,,,,,,,,,,,,,,,,,,,,,,,,,,,,,,,,None,,427.4249653100269,None,427.4249653100269,None,2022-07-13-13:57:34.917992,427.42583869979717,427.74210869986564,427.42583869979717,None,None,427.42583869979717,None,428.22541520989034,None,,,,22010,0001,2022_Jul_13_1350,localizer,2021.1.3,59.899823553301246,
block,scrambled,scrambled059.bmp,,,,,0,203,203,203,,,,,,,,,,,,,,,,,,,,,,,,,,,,,,,,,,,,,,,,,,None,,428.22541520989034,None,428.22541520989034,None,2022-07-13-13:57:35.720820,428.2289605999831,428.5412248999346,428.2289605999831,428.2289605999831,None,428.2289605999831,428.2289605999831,429.04180980997626,None,,,,22010,0001,2022_Jul_13_1350,localizer,2021.1.3,59.899823553301246,
block,scrambled,scrambled065.bmp,,,,,0,204,204,204,,,,,,,,,,,,,,,,,,,,,,,,,,,,,,,,,,,,,,,,,,None,,429.04180980997626,None,429.04180980997626,None,2022-07-13-13:57:36.532859,429.0420996998437,429.3577120997943,429.0420996998437,None,None,429.0420996998437,None,429.8413346098969,None,,,,22010,0001,2022_Jul_13_1350,localizer,2021.1.3,59.899823553301246,
block,scrambled,scrambled018.bmp,,,,,0,205,205,205,,,,,,,,,,,,,,,,,,,,,,,,,,,,,,,,,,,,,,,,,,None,,429.8413346098969,None,429.8413346098969,None,2022-07-13-13:57:37.335366,429.8430599998683,430.15777559997514,429.8430599998683,429.8430599998683,None,429.8430599998683,429.8430599998683,430.6578458099393,None,,,,22010,0001,2022_Jul_13_1350,localizer,2021.1.3,59.899823553301246,
block,scrambled,scrambled024.bmp,,,,,0,206,206,206,,,,,,,,,,,,,,,,,,,,,,,,,,,,,,,,,,,,,,,,,,None,,430.6578458099393,None,430.6578458099393,None,2022-07-13-13:57:38.150097,430.6682183998637,430.974808299914,430.6682183998637,None,None,430.6682183998637,None,431.47484780999366,None,,,,22010,0001,2022_Jul_13_1350,localizer,2021.1.3,59.899823553301246,
block,scrambled,scrambled033.bmp,,,,,0,207,207,207,,,,,,,,,,,,,,,,,,,,,,,,,,,,,,,,,,,,,,,,,,None,,431.47484780999366,None,431.47484780999366,None,2022-07-13-13:57:38.967012,431.485576499952,431.79126279987395,431.485576499952,None,None,431.485576499952,None,432.29097291000653,None,,,,22010,0001,2022_Jul_13_1350,localizer,2021.1.3,59.899823553301246,
block,scrambled,scrambled033.bmp,,,,,0,208,208,208,,,,,,,,,,,,,,,,,,,,,,,,,,,,,,,,,,,,,,,,,,None,,432.29097291000653,None,432.29097291000653,None,2022-07-13-13:57:39.783259,432.2919668999966,432.5912508999463,432.2919668999966,None,y,432.2919668999966,None,433.0909786099801,None,0.7070331000722945,,,22010,0001,2022_Jul_13_1350,localizer,2021.1.3,59.899823553301246,
block,scrambled,scrambled078.bmp,,,,,0,209,209,209,,,,,,,,,,,,,,,,,,,,,,,,,,,,,,,,,,,,,,,,,,None,,433.0909786099801,None,433.0909786099801,None,2022-07-13-13:57:40.584526,433.10096469987184,433.4079936000053,433.10096469987184,433.10096469987184,None,433.10096469987184,433.10096469987184,433.9076885100221,None,,,,22010,0001,2022_Jul_13_1350,localizer,2021.1.3,59.899823553301246,
block,scrambled,scrambled010.bmp,,,,,0,210,210,210,,,,,,,,,,,,,,,,,,,,,,,,,,,,,,,,,,,,,,,,,,None,,433.9076885100221,None,433.9076885100221,None,2022-07-13-13:57:41.399952,433.91753139998764,434.2244938998483,433.91753139998764,None,None,433.91753139998764,None,434.72563980997074,None,,,,22010,0001,2022_Jul_13_1350,localizer,2021.1.3,59.899823553301246,
block,scrambled,scrambled070.bmp,,,,,0,211,211,211,,,,,,,,,,,,,,,,,,,,,,,,,,,,,,,,,,,,,,,,,,None,,434.72563980997074,None,434.72563980997074,None,2022-07-13-13:57:42.218844,434.7278801999055,435.04177659982815,434.7278801999055,None,None,434.7278801999055,None,435.542430309928,None,,,,22010,0001,2022_Jul_13_1350,localizer,2021.1.3,59.899823553301246,
block_end,scrambled,scrambled060.bmp,,,,,0,212,212,212,,,,,,,,,,,,,,,,,,,,,,,,,,,,,,,,,,,,,,,,,,None,,435.542430309928,None,435.542430309928,None,2022-07-13-13:57:43.036446,435.5561298998073,435.8579394000117,435.5561298998073,None,None,435.5561298998073,None,436.3577515099896,None,,,,22010,0001,2022_Jul_13_1350,localizer,2021.1.3,59.899823553301246,
null_block,null_block,null_block.bmp,,,,,0,213,213,213,,,,,,,,,,,,,,,,,,,,,,,,,,,,,,,,,,,,,,,,,,t,1.7823966001160443,436.357805499807,None,436.357805499807,None,2022-07-13-13:57:45.649293,438.15811300987843,None,438.15811300987843,None,None,438.15811300987843,None,438.161026599817,None,,,,22010,0001,2022_Jul_13_1350,localizer,2021.1.3,59.899823553301246,
block_start,scenes,scenes006.bmp,,,,,0,214,214,214,,,,,,,,,,,,,,,,,,,,,,,,,,,,,,,,,,,,,,,,,,t,1.9597287001088262,450.18059359979816,None,450.18059359979816,None,2022-07-13-13:57:59.652383,452.1714441999793,452.4749739000108,452.1714441999793,None,None,452.1714441999793,None,452.97569950984325,None,,,,22010,0001,2022_Jul_13_1350,localizer,2021.1.3,59.899823553301246,
block,scenes,scenes043.bmp,,,,,0,215,215,215,,,,,,,,,,,,,,,,,,,,,,,,,,,,,,,,,,,,,,,,,,None,,452.97569950984325,None,452.97569950984325,None,2022-07-13-13:58:00.469684,452.97861889982596,453.2921619999688,452.97861889982596,None,None,452.97861889982596,None,453.79193581000436,None,,,,22010,0001,2022_Jul_13_1350,localizer,2021.1.3,59.899823553301246,
block,scenes,scenes040.bmp,,,,,0,216,216,216,,,,,,,,,,,,,,,,,,,,,,,,,,,,,,,,,,,,,,,,,,None,,453.79193581000436,None,453.79193581000436,None,2022-07-13-13:58:01.284959,453.7930134998169,454.10813249996863,453.7930134998169,None,None,453.7930134998169,None,454.6081887098262,None,,,,22010,0001,2022_Jul_13_1350,localizer,2021.1.3,59.899823553301246,
block,scenes,scenes090.bmp,,,,,0,217,217,217,,,,,,,,,,,,,,,,,,,,,,,,,,,,,,,,,,,,,,,,,,None,,454.6081887098262,None,454.6081887098262,None,2022-07-13-13:58:02.100444,454.61894979979843,454.92469369992614,454.61894979979843,None,None,454.61894979979843,None,455.42544160981197,None,,,,22010,0001,2022_Jul_13_1350,localizer,2021.1.3,59.899823553301246,
block,scenes,scenes088.bmp,,,,,0,218,218,218,,,,,,,,,,,,,,,,,,,,,,,,,,,,,,,,,,,,,,,,,,None,,455.42544160981197,None,455.42544160981197,None,2022-07-13-13:58:02.918444,455.438123999862,455.74185279989615,455.438123999862,None,None,455.438123999862,None,456.2412936099572,None,,,,22010,0001,2022_Jul_13_1350,localizer,2021.1.3,59.899823553301246,
block,scenes,scenes069.bmp,,,,,0,219,219,219,,,,,,,,,,,,,,,,,,,,,,,,,,,,,,,,,,,,,,,,,,None,,456.2412936099572,None,456.2412936099572,None,2022-07-13-13:58:03.733331,456.2514469998423,456.5646533998661,456.2514469998423,None,None,456.2514469998423,None,457.05875870992895,None,,,,22010,0001,2022_Jul_13_1350,localizer,2021.1.3,59.899823553301246,
block,scenes,scenes087.bmp,,,,,0,220,220,220,,,,,,,,,,,,,,,,,,,,,,,,,,,,,,,,,,,,,,,,,,None,,457.05875870992895,None,457.05875870992895,None,2022-07-13-13:58:04.551785,457.0706348998938,457.3745895999018,457.0706348998938,None,None,457.0706348998938,None,457.87518050998915,None,,,,22010,0001,2022_Jul_13_1350,localizer,2021.1.3,59.899823553301246,
block,scenes,scenes003.bmp,,,,,0,221,221,221,,,,,,,,,,,,,,,,,,,,,,,,,,,,,,,,,,,,,,,,,,None,,457.87518050998915,None,457.87518050998915,None,2022-07-13-13:58:05.368281,457.88801869982854,458.1976709999144,457.88801869982854,None,None,457.88801869982854,None,458.69543110986706,None,,,,22010,0001,2022_Jul_13_1350,localizer,2021.1.3,59.899823553301246,
block,scenes,scenes073.bmp,,,,,0,222,222,222,,,,,,,,,,,,,,,,,,,,,,,,,,,,,,,,,,,,,,,,,,None,,458.69543110986706,None,458.69543110986706,None,2022-07-13-13:58:06.191498,458.71249930001795,459.0246158998925,458.71249930001795,None,None,458.71249930001795,None,459.5083124098601,None,,,,22010,0001,2022_Jul_13_1350,localizer,2021.1.3,59.899823553301246,
block,scenes,scenes024.bmp,,,,,0,223,223,223,,,,,,,,,,,,,,,,,,,,,,,,,,,,,,,,,,,,,,,,,,None,,459.5083124098601,None,459.5083124098601,None,2022-07-13-13:58:07.000554,459.52059109997936,459.8248367998749,459.52059109997936,None,None,459.52059109997936,None,460.33077090990264,None,,,,22010,0001,2022_Jul_13_1350,localizer,2021.1.3,59.899823553301246,
block,scenes,scenes067.bmp,,,,,0,224,224,224,,,,,,,,,,,,,,,,,,,,,,,,,,,,,,,,,,,,,,,,,,None,,460.33077090990264,None,460.33077090990264,None,2022-07-13-13:58:07.826727,460.34407250001095,460.65795459994115,460.34407250001095,None,None,460.34407250001095,None,461.1413849099772,None,,,,22010,0001,2022_Jul_13_1350,localizer,2021.1.3,59.899823553301246,
block,scenes,scenes047.bmp,,,,,0,225,225,225,,,,,,,,,,,,,,,,,,,,,,,,,,,,,,,,,,,,,,,,,,None,,461.1413849099772,None,461.1413849099772,None,2022-07-13-13:58:08.633883,461.142261199886,461.4583074999973,461.142261199886,None,None,461.142261199886,None,461.9423747098772,None,,,,22010,0001,2022_Jul_13_1350,localizer,2021.1.3,59.899823553301246,
block,scenes,scenes078.bmp,,,,,0,226,226,226,,,,,,,,,,,,,,,,,,,,,,,,,,,,,,,,,,,,,,,,,,None,,461.9423747098772,None,461.9423747098772,None,2022-07-13-13:58:09.437388,461.94553689984605,462.2588339999784,461.94553689984605,461.94553689984605,None,461.94553689984605,461.94553689984605,462.7587915098993,None,,,,22010,0001,2022_Jul_13_1350,localizer,2021.1.3,59.899823553301246,
block,scenes,scenes019.bmp,,,,,0,227,227,227,,,,,,,,,,,,,,,,,,,,,,,,,,,,,,,,,,,,,,,,,,None,,462.7587915098993,None,462.7587915098993,None,2022-07-13-13:58:10.251797,462.76083349995315,463.07540440000594,462.76083349995315,None,None,462.76083349995315,None,463.5754527099198,None,,,,22010,0001,2022_Jul_13_1350,localizer,2021.1.3,59.899823553301246,
block_end,scenes,scenes046.bmp,,,,,0,228,228,228,,,,,,,,,,,,,,,,,,,,,,,,,,,,,,,,,,,,,,,,,,None,,463.5754527099198,None,463.5754527099198,None,2022-07-13-13:58:11.068675,463.5880481998902,463.8913622999098,463.5880481998902,None,None,463.5880481998902,None,464.3941792099504,None,,,,22010,0001,2022_Jul_13_1350,localizer,2021.1.3,59.899823553301246,
block_start,faces,faces024.bmp,,,,,0,229,229,229,,,,,,,,,,,,,,,,,,,,,,,,,,,,,,,,,,,,,,,,,,t,1.7480123999994248,464.392222299939,None,464.392222299939,None,2022-07-13-13:58:13.655938,466.1783647998236,466.49121039989404,466.1783647998236,None,None,466.1783647998236,None,466.9756256098626,None,,,,22010,0001,2022_Jul_13_1350,localizer,2021.1.3,59.899823553301246,
block,faces,faces084.bmp,,,,,0,230,230,230,,,,,,,,,,,,,,,,,,,,,,,,,,,,,,,,,,,,,,,,,,None,,466.9756256098626,None,466.9756256098626,None,2022-07-13-13:58:14.468648,466.9881747998297,467.2911811999511,466.9881747998297,None,None,466.9881747998297,None,467.7913810099708,None,,,,22010,0001,2022_Jul_13_1350,localizer,2021.1.3,59.899823553301246,
block,faces,faces083.bmp,,,,,0,231,231,231,,,,,,,,,,,,,,,,,,,,,,,,,,,,,,,,,,,,,,,,,,None,,467.7913810099708,None,467.7913810099708,None,2022-07-13-13:58:15.283420,467.7921950998716,468.1077562000137,467.7921950998716,None,None,467.7921950998716,None,468.59144261002075,None,,,,22010,0001,2022_Jul_13_1350,localizer,2021.1.3,59.899823553301246,
block,faces,faces041.bmp,,,,,0,232,232,232,,,,,,,,,,,,,,,,,,,,,,,,,,,,,,,,,,,,,,,,,,None,,468.59144261002075,None,468.59144261002075,None,2022-07-13-13:58:16.085678,468.60498609999195,468.90734379994683,468.60498609999195,468.60498609999195,None,468.60498609999195,468.60498609999195,469.4076137099182,None,,,,22010,0001,2022_Jul_13_1350,localizer,2021.1.3,59.899823553301246,
block,faces,faces048.bmp,,,,,0,233,233,233,,,,,,,,,,,,,,,,,,,,,,,,,,,,,,,,,,,,,,,,,,None,,469.4076137099182,None,469.4076137099182,None,2022-07-13-13:58:16.899744,469.40893359994516,469.72456220001914,469.40893359994516,None,None,469.40893359994516,None,470.208444710006,None,,,,22010,0001,2022_Jul_13_1350,localizer,2021.1.3,59.899823553301246,
block,faces,faces029.bmp,,,,,0,234,234,234,,,,,,,,,,,,,,,,,,,,,,,,,,,,,,,,,,,,,,,,,,None,,470.208444710006,None,470.208444710006,None,2022-07-13-13:58:17.703572,470.22326949983835,470.52426829980686,470.22326949983835,470.22326949983835,None,470.22326949983835,470.22326949983835,471.0241553100059,None,,,,22010,0001,2022_Jul_13_1350,localizer,2021.1.3,59.899823553301246,
block,faces,faces020.bmp,,,,,0,235,235,235,,,,,,,,,,,,,,,,,,,,,,,,,,,,,,,,,,,,,,,,,,None,,471.0241553100059,None,471.0241553100059,None,2022-07-13-13:58:18.515118,471.0330351998564,471.341205699835,471.0330351998564,None,None,471.0330351998564,None,471.8479142099386,None,,,,22010,0001,2022_Jul_13_1350,localizer,2021.1.3,59.899823553301246,
block,faces,faces013.bmp,,,,,0,236,236,236,,,,,,,,,,,,,,,,,,,,,,,,,,,,,,,,,,,,,,,,,,None,,471.8479142099386,None,471.8479142099386,None,2022-07-13-13:58:19.347908,471.8540738997981,472.1576620999258,471.8540738997981,None,None,471.8540738997981,None,472.65806640998926,None,,,,22010,0001,2022_Jul_13_1350,localizer,2021.1.3,59.899823553301246,
block,faces,faces073.bmp,,,,,0,237,237,237,,,,,,,,,,,,,,,,,,,,,,,,,,,,,,,,,,,,,,,,,,None,,472.65806640998926,None,472.65806640998926,None,2022-07-13-13:58:20.150103,472.6592136998661,472.97435209993273,472.6592136998661,None,None,472.6592136998661,None,473.4744370098924,None,,,,22010,0001,2022_Jul_13_1350,localizer,2021.1.3,59.899823553301246,
block,faces,faces006.bmp,,,,,0,238,238,238,,,,,,,,,,,,,,,,,,,,,,,,,,,,,,,,,,,,,,,,,,None,,473.4744370098924,None,473.4744370098924,None,2022-07-13-13:58:20.966477,473.48502689995803,473.79086589999497,473.48502689995803,None,None,473.48502689995803,None,474.29120750993025,None,,,,22010,0001,2022_Jul_13_1350,localizer,2021.1.3,59.899823553301246,
block,faces,faces089.bmp,,,,,0,239,239,239,,,,,,,,,,,,,,,,,,,,,,,,,,,,,,,,,,,,,,,,,,None,,474.29120750993025,None,474.29120750993025,None,2022-07-13-13:58:21.783485,474.3011431999039,474.6077101000119,474.3011431999039,None,None,474.3011431999039,None,475.1074338100152,None,,,,22010,0001,2022_Jul_13_1350,localizer,2021.1.3,59.899823553301246,
block,faces,faces005.bmp,,,,,0,240,240,240,,,,,,,,,,,,,,,,,,,,,,,,,,,,,,,,,,,,,,,,,,None,,475.1074338100152,None,475.1074338100152,None,2022-07-13-13:58:22.599633,475.1165995998308,475.424330299953,475.1165995998308,None,None,475.1165995998308,None,475.9241011099657,None,,,,22010,0001,2022_Jul_13_1350,localizer,2021.1.3,59.899823553301246,
block,faces,faces057.bmp,,,,,0,241,241,241,,,,,,,,,,,,,,,,,,,,,,,,,,,,,,,,,,,,,,,,,,None,,475.9241011099657,None,475.9241011099657,None,2022-07-13-13:58:23.415152,475.93420879985206,476.24181889998727,475.93420879985206,None,None,475.93420879985206,None,476.741499609896,None,,,,22010,0001,2022_Jul_13_1350,localizer,2021.1.3,59.899823553301246,
block,faces,faces030.bmp,,,,,0,242,242,242,,,,,,,,,,,,,,,,,,,,,,,,,,,,,,,,,,,,,,,,,,None,,476.741499609896,None,476.741499609896,None,2022-07-13-13:58:24.233537,476.74239229992963,477.04197659995407,476.74239229992963,None,None,476.74239229992963,None,477.5416078098351,None,,,,22010,0001,2022_Jul_13_1350,localizer,2021.1.3,59.899823553301246,
block_end,faces,faces017.bmp,,,,,0,243,243,243,,,,,,,,,,,,,,,,,,,,,,,,,,,,,,,,,,,,,,,,,,None,,477.5416078098351,None,477.5416078098351,None,2022-07-13-13:58:25.035604,477.54311939980835,477.85825669998303,477.54311939980835,477.54311939980835,None,477.54311939980835,477.54311939980835,478.35824400989804,None,,,,22010,0001,2022_Jul_13_1350,localizer,2021.1.3,59.899823553301246,
,,,,,,,,,,,,,,,,,,,,,,,,,,,,,,,,,,,,,,,,,,,,,,,,,,,,,,,,,,,,,,,,,,,,,478.35798699990846,None,,,,,,,
