block_type,condition,img_name,Button.thisRepN,Button.thisTrialN,Button.thisN,Button.thisIndex,trials.thisRepN,trials.thisTrialN,trials.thisN,trials.thisIndex,Alignment_background.started,Alignment_background.stopped,Alignment_image.started,Alignment_image.stopped,Alignment_resp.keys,Alignment_resp.rt,Alignment_resp.started,Alignment_resp.stopped,Button_text.started,Button_text.stopped,Index_text.started,Index_text.stopped,Index_resp.keys,Index_resp.rt,Index_resp.started,Index_resp.stopped,Middle_text.started,Middle_text.stopped,Middle_resp.keys,Middle_resp.rt,Middle_resp.started,Middle_resp.stopped,Repeat_text.started,Repeat_text.stopped,Repeat_resp.keys,Repeat_resp.corr,Repeat_resp.rt,Repeat_resp.started,Repeat_resp.stopped,instruction_text.started,instruction_text.stopped,key_resp.keys,key_resp.rt,key_resp.started,key_resp.stopped,scanner_t.keys,scanner_t.rt,scanner_t.started,scanner_t.stopped,fixation_wait_for_t.started,fixation_wait_for_t.stopped,real_timestamp_trial_start,image.started,image.stopped,fixation.started,fixation.stopped,repeat_response.keys,repeat_response.started,repeat_response.stopped,fixation_null.started,fixation_null.stopped,repeat_response.rt,end_text.started,end_text.stopped,participant,run,date,expName,psychopyVersion,frameRate,
,,,,,,,,,,,16.179085000010673,None,16.179085000010673,None,return,1.1263195999781601,16.179085000010673,None,,,,,,,,,,,,,,,,,,,,,,,,,,,,,,,,,,,,,,,,,,,,,,,21001,0002,2021_Sep_07_1006,localizer,2021.1.3,59.90502656601558,
,,,0,0,0,0,,,,,,,,,,,,,17.324763700016774,None,18.32512160000624,None,y,0.47808500000974163,18.32512160000624,None,18.82526950002648,None,b,0.7791368999751285,18.82526950002648,None,19.625506400014274,None,n,0,0.7909550999756902,19.625506400014274,None,,,,,,,,,,,,,,,,,,,,,,,,,,21001,0002,2021_Sep_07_1006,localizer,2021.1.3,59.90502656601558,
,,,,,,,,,,,,,,,,,,,,,,,,,,,,,,,,,,,,,,,,20.442096000013407,None,y,8.380616499984171,20.442096000013407,None,,,,,,,,,,,,,,,,,,,,21001,0002,2021_Sep_07_1006,localizer,2021.1.3,59.90502656601558,
block_start,objects,objects023.bmp,,,,,0,0,0,0,,,,,,,,,,,,,,,,,,,,,,,,,,,,,,,,,,,,t,2.4273585999617353,28.891962599998806,None,28.891962599998806,None,2021-09-07-10:06:45.023218,31.34229470003629,31.641822300036438,31.34229470003629,None,None,31.34229470003629,None,32.14163589002565,None,,,,21001,0002,2021_Sep_07_1006,localizer,2021.1.3,59.90502656601558,
block,objects,objects013.bmp,,,,,0,1,1,1,,,,,,,,,,,,,,,,,,,,,,,,,,,,,,,,,,,,None,,32.14163589002565,None,32.14163589002565,None,2021-09-07-10:06:45.826006,32.14228880003793,32.44191380002303,32.14228880003793,32.14228880003793,None,32.14228880003793,32.14228880003793,32.94159408998676,None,,,,21001,0002,2021_Sep_07_1006,localizer,2021.1.3,59.90502656601558,
block,objects,objects014.bmp,,,,,0,2,2,2,,,,,,,,,,,,,,,,,,,,,,,,,,,,,,,,,,,,None,,32.94159408998676,None,32.94159408998676,None,2021-09-07-10:06:46.625632,32.94230140000582,33.24213030003011,32.94230140000582,32.94230140000582,None,32.94230140000582,32.94230140000582,33.741961789981,None,,,,21001,0002,2021_Sep_07_1006,localizer,2021.1.3,59.90502656601558,
block,objects,objects057.bmp,,,,,0,3,3,3,,,,,,,,,,,,,,,,,,,,,,,,,,,,,,,,,,,,None,,33.741961789981,None,33.741961789981,None,2021-09-07-10:06:47.430649,33.756806100020185,34.05806459998712,33.756806100020185,33.756806100020185,None,33.756806100020185,33.756806100020185,34.55825899002375,None,,,,21001,0002,2021_Sep_07_1006,localizer,2021.1.3,59.90502656601558,
block,objects,objects054.bmp,,,,,0,4,4,4,,,,,,,,,,,,,,,,,,,,,,,,,,,,,,,,,,,,None,,34.55825899002375,None,34.55825899002375,None,2021-09-07-10:06:48.241941,34.566214599995874,34.87485080002807,34.566214599995874,None,None,34.566214599995874,None,35.37500139002223,None,,,,21001,0002,2021_Sep_07_1006,localizer,2021.1.3,59.90502656601558,
block,objects,objects022.bmp,,,,,0,5,5,5,,,,,,,,,,,,,,,,,,,,,,,,,,,,,,,,,,,,None,,35.37500139002223,None,35.37500139002223,None,2021-09-07-10:06:49.058162,35.37793920002878,35.69155300001148,35.37793920002878,None,None,35.37793920002878,None,36.19199779003393,None,,,,21001,0002,2021_Sep_07_1006,localizer,2021.1.3,59.90502656601558,
block,objects,objects006.bmp,,,,,0,6,6,6,,,,,,,,,,,,,,,,,,,,,,,,,,,,,,,,,,,,None,,36.19199779003393,None,36.19199779003393,None,2021-09-07-10:06:49.882214,36.213748699985445,36.525229900027625,36.213748699985445,None,None,36.213748699985445,None,37.00863699000329,None,,,,21001,0002,2021_Sep_07_1006,localizer,2021.1.3,59.90502656601558,
block,objects,objects058.bmp,,,,,0,7,7,7,,,,,,,,,,,,,,,,,,,,,,,,,,,,,,,,,,,,None,,37.00863699000329,None,37.00863699000329,None,2021-09-07-10:06:50.699664,37.04217820003396,37.34179660002701,37.04217820003396,None,None,37.04217820003396,None,37.825261390034576,None,,,,21001,0002,2021_Sep_07_1006,localizer,2021.1.3,59.90502656601558,
block,objects,objects028.bmp,,,,,0,8,8,8,,,,,,,,,,,,,,,,,,,,,,,,,,,,,,,,,,,,None,,37.825261390034576,None,37.825261390034576,None,2021-09-07-10:06:51.516286,37.857921899994835,38.15847800002666,37.857921899994835,None,None,37.857921899994835,None,38.641836389980746,None,,,,21001,0002,2021_Sep_07_1006,localizer,2021.1.3,59.90502656601558,
block,objects,objects065.bmp,,,,,0,9,9,9,,,,,,,,,,,,,,,,,,,,,,,,,,,,,,,,,,,,None,,38.641836389980746,None,38.641836389980746,None,2021-09-07-10:06:52.332963,38.65322610002477,38.958700700022746,38.65322610002477,None,None,38.65322610002477,None,39.458512990002056,None,,,,21001,0002,2021_Sep_07_1006,localizer,2021.1.3,59.90502656601558,
block,objects,objects085.bmp,,,,,0,10,10,10,,,,,,,,,,,,,,,,,,,,,,,,,,,,,,,,,,,,None,,39.458512990002056,None,39.458512990002056,None,2021-09-07-10:06:53.149524,39.47065129998373,39.77533410000615,39.47065129998373,None,None,39.47065129998373,None,40.27457719001686,None,,,,21001,0002,2021_Sep_07_1006,localizer,2021.1.3,59.90502656601558,
block,objects,objects018.bmp,,,,,0,11,11,11,,,,,,,,,,,,,,,,,,,,,,,,,,,,,,,,,,,,None,,40.27457719001686,None,40.27457719001686,None,2021-09-07-10:06:53.957821,40.28145670000231,40.59155880002072,40.28145670000231,None,None,40.28145670000231,None,41.09136359000113,None,,,,21001,0002,2021_Sep_07_1006,localizer,2021.1.3,59.90502656601558,
block,objects,objects077.bmp,,,,,0,12,12,12,,,,,,,,,,,,,,,,,,,,,,,,,,,,,,,,,,,,None,,41.09136359000113,None,41.09136359000113,None,2021-09-07-10:06:54.774060,41.09239469998283,41.39163640001789,41.09239469998283,None,None,41.09239469998283,None,41.89174369003158,None,,,,21001,0002,2021_Sep_07_1006,localizer,2021.1.3,59.90502656601558,
block,objects,objects078.bmp,,,,,0,13,13,13,,,,,,,,,,,,,,,,,,,,,,,,,,,,,,,,,,,,None,,41.89174369003158,None,41.89174369003158,None,2021-09-07-10:06:55.574862,41.89511570002651,42.20836719998624,41.89511570002651,41.89511570002651,None,41.89511570002651,41.89511570002651,42.708529090008234,None,,,,21001,0002,2021_Sep_07_1006,localizer,2021.1.3,59.90502656601558,
block_end,objects,objects075.bmp,,,,,0,14,14,14,,,,,,,,,,,,,,,,,,,,,,,,,,,,,,,,,,,,None,,42.708529090008234,None,42.708529090008234,None,2021-09-07-10:06:56.398254,42.73734560003504,43.04164720000699,42.73734560003504,None,None,42.73734560003504,None,43.52535398999462,None,,,,21001,0002,2021_Sep_07_1006,localizer,2021.1.3,59.90502656601558,
block_start,scenes,scenes027.bmp,,,,,0,15,15,15,,,,,,,,,,,,,,,,,,,,,,,,,,,,,,,,,,,,t,3.303461800038349,43.525319100008346,None,43.525319100008346,None,2021-09-07-10:07:00.546051,46.86533350002719,47.17524820001563,46.86533350002719,None,None,46.86533350002719,None,47.67463739003288,None,,,,21001,0002,2021_Sep_07_1006,localizer,2021.1.3,59.90502656601558,
block,scenes,scenes007.bmp,,,,,0,16,16,16,,,,,,,,,,,,,,,,,,,,,,,,,,,,,,,,,,,,None,,47.67463739003288,None,47.67463739003288,None,2021-09-07-10:07:01.356753,47.68555590003962,47.991881099995226,47.68555590003962,None,None,47.68555590003962,None,48.49172488998156,None,,,,21001,0002,2021_Sep_07_1006,localizer,2021.1.3,59.90502656601558,
block,scenes,scenes073.bmp,,,,,0,17,17,17,,,,,,,,,,,,,,,,,,,,,,,,,,,,,,,,,,,,None,,48.49172488998156,None,48.49172488998156,None,2021-09-07-10:07:02.174874,48.492462900001556,48.79165540001122,48.492462900001556,None,None,48.492462900001556,None,49.2917497899849,None,,,,21001,0002,2021_Sep_07_1006,localizer,2021.1.3,59.90502656601558,
block,scenes,scenes086.bmp,,,,,0,18,18,18,,,,,,,,,,,,,,,,,,,,,,,,,,,,,,,,,,,,None,,49.2917497899849,None,49.2917497899849,None,2021-09-07-10:07:02.976089,49.297164599993266,49.60881940001855,49.297164599993266,49.297164599993266,None,49.297164599993266,49.297164599993266,50.10880738999695,None,,,,21001,0002,2021_Sep_07_1006,localizer,2021.1.3,59.90502656601558,
block,scenes,scenes045.bmp,,,,,0,19,19,19,,,,,,,,,,,,,,,,,,,,,,,,,,,,,,,,,,,,None,,50.10880738999695,None,50.10880738999695,None,2021-09-07-10:07:03.800814,50.142891000024974,50.4421514000278,50.142891000024974,None,None,50.142891000024974,None,50.92551589002833,None,,,,21001,0002,2021_Sep_07_1006,localizer,2021.1.3,59.90502656601558,
block,scenes,scenes019.bmp,,,,,0,20,20,20,,,,,,,,,,,,,,,,,,,,,,,,,,,,,,,,,,,,None,,50.92551589002833,None,50.92551589002833,None,2021-09-07-10:07:04.616502,50.937897700001486,51.24203840002883,50.937897700001486,None,None,50.937897700001486,None,51.74217568997992,None,,,,21001,0002,2021_Sep_07_1006,localizer,2021.1.3,59.90502656601558,
block,scenes,scenes064.bmp,,,,,0,21,21,21,,,,,,,,,,,,,,,,,,,,,,,,,,,,,,,,,,,,None,,51.74217568997992,None,51.74217568997992,None,2021-09-07-10:07:05.433151,51.75452000001678,52.058874000038486,51.75452000001678,None,None,51.75452000001678,None,52.55893229002832,None,,,,21001,0002,2021_Sep_07_1006,localizer,2021.1.3,59.90502656601558,
block,scenes,scenes070.bmp,,,,,0,22,22,22,,,,,,,,,,,,,,,,,,,,,,,,,,,,,,,,,,,,None,,52.55893229002832,None,52.55893229002832,None,2021-09-07-10:07:06.249912,52.59290250000777,52.89230020000832,52.59290250000777,None,None,52.59290250000777,None,53.37560439001536,None,,,,21001,0002,2021_Sep_07_1006,localizer,2021.1.3,59.90502656601558,
block,scenes,scenes012.bmp,,,,,0,23,23,23,,,,,,,,,,,,,,,,,,,,,,,,,,,,,,,,,,,,None,,53.37560439001536,None,53.37560439001536,None,2021-09-07-10:07:07.066525,53.4112116000033,53.72581999999238,53.4112116000033,None,None,53.4112116000033,None,54.19221849002643,None,,,,21001,0002,2021_Sep_07_1006,localizer,2021.1.3,59.90502656601558,
block,scenes,scenes089.bmp,,,,,0,24,24,24,,,,,,,,,,,,,,,,,,,,,,,,,,,,,,,,,,,,None,,54.19221849002643,None,54.19221849002643,None,2021-09-07-10:07:07.874541,54.193138500035275,54.49175530002685,54.193138500035275,None,None,54.193138500035275,None,55.00873299003579,None,,,,21001,0002,2021_Sep_07_1006,localizer,2021.1.3,59.90502656601558,
block,scenes,scenes068.bmp,,,,,0,25,25,25,,,,,,,,,,,,,,,,,,,,,,,,,,,,,,,,,,,,None,,55.00873299003579,None,55.00873299003579,None,2021-09-07-10:07:08.699031,55.033907400036696,55.342115800012834,55.033907400036696,None,None,55.033907400036696,None,55.825435590022245,None,,,,21001,0002,2021_Sep_07_1006,localizer,2021.1.3,59.90502656601558,
block,scenes,scenes009.bmp,,,,,0,26,26,26,,,,,,,,,,,,,,,,,,,,,,,,,,,,,,,,,,,,None,,55.825435590022245,None,55.825435590022245,None,2021-09-07-10:07:09.516662,55.837089899985585,56.141987600014545,55.837089899985585,None,None,55.837089899985585,None,56.6420623900136,None,,,,21001,0002,2021_Sep_07_1006,localizer,2021.1.3,59.90502656601558,
block,scenes,scenes009.bmp,,,,,0,27,27,27,,,,,,,,,,,,,,,,,,,,,,,,,,,,,,,,,,,,None,,56.6420623900136,None,56.6420623900136,None,2021-09-07-10:07:10.333935,56.65432110003894,56.95825910003623,56.65432110003894,None,y,56.65432110003894,None,57.45872889001621,None,0.5123913999996148,,,21001,0002,2021_Sep_07_1006,localizer,2021.1.3,59.90502656601558,
block,scenes,scenes032.bmp,,,,,0,28,28,28,,,,,,,,,,,,,,,,,,,,,,,,,,,,,,,,,,,,None,,57.45872889001621,None,57.45872889001621,None,2021-09-07-10:07:11.149582,57.469801900035236,57.77505779999774,57.469801900035236,None,None,57.469801900035236,None,58.27501949000871,None,,,,21001,0002,2021_Sep_07_1006,localizer,2021.1.3,59.90502656601558,
block_end,scenes,scenes079.bmp,,,,,0,29,29,29,,,,,,,,,,,,,,,,,,,,,,,,,,,,,,,,,,,,None,,58.27501949000871,None,58.27501949000871,None,2021-09-07-10:07:11.956962,58.275949500035495,58.57506719999947,58.275949500035495,None,None,58.275949500035495,None,59.075039590033704,None,,,,21001,0002,2021_Sep_07_1006,localizer,2021.1.3,59.90502656601558,
block_start,scrambled,scrambled078.bmp,,,,,0,30,30,30,,,,,,,,,,,,,,,,,,,,,,,,,,,,,,,,,,,,t,1.6062156000407413,59.075023200013675,None,59.075023200013675,None,2021-09-07-10:07:14.388885,60.709156600001734,61.008492499997374,60.709156600001734,None,None,60.709156600001734,None,61.509369789995255,None,,,,21001,0002,2021_Sep_07_1006,localizer,2021.1.3,59.90502656601558,
block,scrambled,scrambled084.bmp,,,,,0,31,31,31,,,,,,,,,,,,,,,,,,,,,,,,,,,,,,,,,,,,None,,61.509369789995255,None,61.509369789995255,None,2021-09-07-10:07:15.192957,61.51021310000215,61.82524680002825,61.51021310000215,61.51021310000215,None,61.51021310000215,61.51021310000215,62.325388890015894,None,,,,21001,0002,2021_Sep_07_1006,localizer,2021.1.3,59.90502656601558,
block,scrambled,scrambled036.bmp,,,,,0,32,32,32,,,,,,,,,,,,,,,,,,,,,,,,,,,,,,,,,,,,None,,62.325388890015894,None,62.325388890015894,None,2021-09-07-10:07:16.010290,62.34199109999463,62.64199660002487,62.34199109999463,None,None,62.34199109999463,None,63.142059289989994,None,,,,21001,0002,2021_Sep_07_1006,localizer,2021.1.3,59.90502656601558,
block,scrambled,scrambled061.bmp,,,,,0,33,33,33,,,,,,,,,,,,,,,,,,,,,,,,,,,,,,,,,,,,None,,63.142059289989994,None,63.142059289989994,None,2021-09-07-10:07:16.824457,63.14789790002396,63.458746500022244,63.14789790002396,None,None,63.14789790002396,None,63.95886609001318,None,,,,21001,0002,2021_Sep_07_1006,localizer,2021.1.3,59.90502656601558,
block,scrambled,scrambled086.bmp,,,,,0,34,34,34,,,,,,,,,,,,,,,,,,,,,,,,,,,,,,,,,,,,None,,63.95886609001318,None,63.95886609001318,None,2021-09-07-10:07:17.640933,63.96562850003829,64.27559299999848,63.96562850003829,None,None,63.96562850003829,None,64.77615648999344,None,,,,21001,0002,2021_Sep_07_1006,localizer,2021.1.3,59.90502656601558,
block,scrambled,scrambled005.bmp,,,,,0,35,35,35,,,,,,,,,,,,,,,,,,,,,,,,,,,,,,,,,,,,None,,64.77615648999344,None,64.77615648999344,None,2021-09-07-10:07:18.467342,64.80554040003335,65.10966240003472,64.80554040003335,None,None,64.80554040003335,None,65.5930691900081,None,,,,21001,0002,2021_Sep_07_1006,localizer,2021.1.3,59.90502656601558,
block,scrambled,scrambled039.bmp,,,,,0,36,36,36,,,,,,,,,,,,,,,,,,,,,,,,,,,,,,,,,,,,None,,65.5930691900081,None,65.5930691900081,None,2021-09-07-10:07:19.284114,65.62793110002531,65.92604640003992,65.62793110002531,None,None,65.62793110002531,None,66.40938469001557,None,,,,21001,0002,2021_Sep_07_1006,localizer,2021.1.3,59.90502656601558,
block,scrambled,scrambled014.bmp,,,,,0,37,37,37,,,,,,,,,,,,,,,,,,,,,,,,,,,,,,,,,,,,None,,66.40938469001557,None,66.40938469001557,None,2021-09-07-10:07:20.092184,66.41059869999299,66.70935379998991,66.41059869999299,None,None,66.41059869999299,None,67.22602069001877,None,,,,21001,0002,2021_Sep_07_1006,localizer,2021.1.3,59.90502656601558,
block,scrambled,scrambled074.bmp,,,,,0,38,38,38,,,,,,,,,,,,,,,,,,,,,,,,,,,,,,,,,,,,None,,67.22602069001877,None,67.22602069001877,None,2021-09-07-10:07:20.908399,67.22726680000778,67.52602150000166,67.22726680000778,None,None,67.22726680000778,None,68.02665669001871,None,,,,21001,0002,2021_Sep_07_1006,localizer,2021.1.3,59.90502656601558,
block,scrambled,scrambled027.bmp,,,,,0,39,39,39,,,,,,,,,,,,,,,,,,,,,,,,,,,,,,,,,,,,None,,68.02665669001871,None,68.02665669001871,None,2021-09-07-10:07:21.720006,68.04279020003742,68.3428917999845,68.04279020003742,68.04279020003742,None,68.04279020003742,68.04279020003742,68.84320219003129,None,,,,21001,0002,2021_Sep_07_1006,localizer,2021.1.3,59.90502656601558,
block,scrambled,scrambled018.bmp,,,,,0,40,40,40,,,,,,,,,,,,,,,,,,,,,,,,,,,,,,,,,,,,None,,68.84320219003129,None,68.84320219003129,None,2021-09-07-10:07:22.532226,68.86008870002115,69.15871950000292,68.86008870002115,None,None,68.86008870002115,None,69.65888819001847,None,,,,21001,0002,2021_Sep_07_1006,localizer,2021.1.3,59.90502656601558,
block,scrambled,scrambled019.bmp,,,,,0,41,41,41,,,,,,,,,,,,,,,,,,,,,,,,,,,,,,,,,,,,None,,69.65888819001847,None,69.65888819001847,None,2021-09-07-10:07:23.349951,69.67115150002064,69.97548459999962,69.67115150002064,None,None,69.67115150002064,None,70.475456090027,None,,,,21001,0002,2021_Sep_07_1006,localizer,2021.1.3,59.90502656601558,
block,scrambled,scrambled076.bmp,,,,,0,42,42,42,,,,,,,,,,,,,,,,,,,,,,,,,,,,,,,,,,,,None,,70.475456090027,None,70.475456090027,None,2021-09-07-10:07:24.166698,70.48796490003588,70.7921736999997,70.48796490003588,None,None,70.48796490003588,None,71.29209849002072,None,,,,21001,0002,2021_Sep_07_1006,localizer,2021.1.3,59.90502656601558,
block,scrambled,scrambled021.bmp,,,,,0,43,43,43,,,,,,,,,,,,,,,,,,,,,,,,,,,,,,,,,,,,None,,71.29209849002072,None,71.29209849002072,None,2021-09-07-10:07:24.983157,71.31236089998856,71.62555440003052,71.31236089998856,None,None,71.31236089998856,None,72.10895068998215,None,,,,21001,0002,2021_Sep_07_1006,localizer,2021.1.3,59.90502656601558,
block_end,scrambled,scrambled012.bmp,,,,,0,44,44,44,,,,,,,,,,,,,,,,,,,,,,,,,,,,,,,,,,,,None,,72.10895068998215,None,72.10895068998215,None,2021-09-07-10:07:25.799684,72.12561899999855,72.42510190000758,72.12561899999855,None,None,72.12561899999855,None,72.92557419000659,None,,,,21001,0002,2021_Sep_07_1006,localizer,2021.1.3,59.90502656601558,
block_start,faces,faces075.bmp,,,,,0,45,45,45,,,,,,,,,,,,,,,,,,,,,,,,,,,,,,,,,,,,t,3.2188163000391796,72.92558580002515,None,72.92558580002515,None,2021-09-07-10:07:29.863812,76.20759070001077,76.50919260003138,76.20759070001077,None,None,76.20759070001077,None,76.9921441900311,None,,,,21001,0002,2021_Sep_07_1006,localizer,2021.1.3,59.90502656601558,
block,faces,faces019.bmp,,,,,0,46,46,46,,,,,,,,,,,,,,,,,,,,,,,,,,,,,,,,,,,,None,,76.9921441900311,None,76.9921441900311,None,2021-09-07-10:07:30.683392,77.0038465000107,77.30878690001555,77.0038465000107,None,None,77.0038465000107,None,77.80883279002737,None,,,,21001,0002,2021_Sep_07_1006,localizer,2021.1.3,59.90502656601558,
block,faces,faces058.bmp,,,,,0,47,47,47,,,,,,,,,,,,,,,,,,,,,,,,,,,,,,,,,,,,None,,77.80883279002737,None,77.80883279002737,None,2021-09-07-10:07:31.500094,77.82133820001036,78.12545990000945,77.82133820001036,None,None,77.82133820001036,None,78.62535919001093,None,,,,21001,0002,2021_Sep_07_1006,localizer,2021.1.3,59.90502656601558,
block,faces,faces067.bmp,,,,,0,48,48,48,,,,,,,,,,,,,,,,,,,,,,,,,,,,,,,,,,,,None,,78.62535919001093,None,78.62535919001093,None,2021-09-07-10:07:32.311773,78.63672619999852,78.94217639998533,78.63672619999852,None,None,78.63672619999852,None,79.44224109002388,None,,,,21001,0002,2021_Sep_07_1006,localizer,2021.1.3,59.90502656601558,
block,faces,faces087.bmp,,,,,0,49,49,49,,,,,,,,,,,,,,,,,,,,,,,,,,,,,,,,,,,,None,,79.44224109002388,None,79.44224109002388,None,2021-09-07-10:07:33.133367,79.47563960001571,79.77521560003515,79.47563960001571,None,None,79.47563960001571,None,80.2585142900003,None,,,,21001,0002,2021_Sep_07_1006,localizer,2021.1.3,59.90502656601558,
block,faces,faces012.bmp,,,,,0,50,50,50,,,,,,,,,,,,,,,,,,,,,,,,,,,,,,,,,,,,None,,80.2585142900003,None,80.2585142900003,None,2021-09-07-10:07:33.940658,80.25938850000966,80.55852950003464,80.25938850000966,None,None,80.25938850000966,None,81.05854949002386,None,,,,21001,0002,2021_Sep_07_1006,localizer,2021.1.3,59.90502656601558,
block,faces,faces085.bmp,,,,,0,51,51,51,,,,,,,,,,,,,,,,,,,,,,,,,,,,,,,,,,,,None,,81.05854949002386,None,81.05854949002386,None,2021-09-07-10:07:34.742668,81.05933710001409,81.35883590002777,81.05933710001409,81.05933710001409,None,81.05933710001409,81.05933710001409,81.85894829002208,None,,,,21001,0002,2021_Sep_07_1006,localizer,2021.1.3,59.90502656601558,
block,faces,faces040.bmp,,,,,0,52,52,52,,,,,,,,,,,,,,,,,,,,,,,,,,,,,,,,,,,,None,,81.85894829002208,None,81.85894829002208,None,2021-09-07-10:07:35.552471,81.87362359999679,82.17579790001037,81.87362359999679,81.87362359999679,None,81.87362359999679,81.87362359999679,82.6758522900287,None,,,,21001,0002,2021_Sep_07_1006,localizer,2021.1.3,59.90502656601558,
block,faces,faces018.bmp,,,,,0,53,53,53,,,,,,,,,,,,,,,,,,,,,,,,,,,,,,,,,,,,None,,82.6758522900287,None,82.6758522900287,None,2021-09-07-10:07:36.368066,82.6894997000345,82.9922632999951,82.6894997000345,None,None,82.6894997000345,None,83.4921265900135,None,,,,21001,0002,2021_Sep_07_1006,localizer,2021.1.3,59.90502656601558,
block,faces,faces088.bmp,,,,,0,54,54,54,,,,,,,,,,,,,,,,,,,,,,,,,,,,,,,,,,,,None,,83.4921265900135,None,83.4921265900135,None,2021-09-07-10:07:37.182682,83.51696189999348,83.82566730002873,83.51696189999348,None,None,83.51696189999348,None,84.30901108998805,None,,,,21001,0002,2021_Sep_07_1006,localizer,2021.1.3,59.90502656601558,
block,faces,faces062.bmp,,,,,0,55,55,55,,,,,,,,,,,,,,,,,,,,,,,,,,,,,,,,,,,,None,,84.30901108998805,None,84.30901108998805,None,2021-09-07-10:07:38.000081,84.32134620001307,84.62536410003668,84.32134620001307,None,None,84.32134620001307,None,85.12549669001018,None,,,,21001,0002,2021_Sep_07_1006,localizer,2021.1.3,59.90502656601558,
block,faces,faces030.bmp,,,,,0,56,56,56,,,,,,,,,,,,,,,,,,,,,,,,,,,,,,,,,,,,None,,85.12549669001018,None,85.12549669001018,None,2021-09-07-10:07:38.815009,85.13622360001318,85.44190420000814,85.13622360001318,None,None,85.13622360001318,None,85.94188458998687,None,,,,21001,0002,2021_Sep_07_1006,localizer,2021.1.3,59.90502656601558,
block,faces,faces053.bmp,,,,,0,57,57,57,,,,,,,,,,,,,,,,,,,,,,,,,,,,,,,,,,,,None,,85.94188458998687,None,85.94188458998687,None,2021-09-07-10:07:39.624058,85.94264640001347,86.24189770000521,85.94264640001347,None,None,85.94264640001347,None,86.74191658998606,None,,,,21001,0002,2021_Sep_07_1006,localizer,2021.1.3,59.90502656601558,
block,faces,faces076.bmp,,,,,0,58,58,58,,,,,,,,,,,,,,,,,,,,,,,,,,,,,,,,,,,,None,,86.74191658998606,None,86.74191658998606,None,2021-09-07-10:07:40.425467,86.74934300000314,87.0586296999827,86.74934300000314,86.74934300000314,None,86.74934300000314,86.74934300000314,87.55902229001512,None,,,,21001,0002,2021_Sep_07_1006,localizer,2021.1.3,59.90502656601558,
block_end,faces,faces041.bmp,,,,,0,59,59,59,,,,,,,,,,,,,,,,,,,,,,,,,,,,,,,,,,,,None,,87.55902229001512,None,87.55902229001512,None,2021-09-07-10:07:41.247886,87.57890269998461,87.89245139999548,87.57890269998461,None,None,87.57890269998461,None,88.37587989001767,None,,,,21001,0002,2021_Sep_07_1006,localizer,2021.1.3,59.90502656601558,
null_block,null_block,null_block.bmp,,,,,0,60,60,60,,,,,,,,,,,,,,,,,,,,,,,,,,,,,,,,,,,,t,2.0397216000128537,88.37589120003395,None,88.37589120003395,None,2021-09-07-10:07:44.131177,90.45905858003533,None,90.45905858003533,None,None,90.45905858003533,None,90.46153219998814,None,,,,21001,0002,2021_Sep_07_1006,localizer,2021.1.3,59.90502656601558,
block_start,objects,objects006.bmp,,,,,0,61,61,61,,,,,,,,,,,,,,,,,,,,,,,,,,,,,,,,,,,,t,0.9121897000004537,102.47565320000285,None,102.47565320000285,None,2021-09-07-10:07:57.092178,103.4093511000392,103.70872250001412,103.4093511000392,None,None,103.4093511000392,None,104.20868499003117,None,,,,21001,0002,2021_Sep_07_1006,localizer,2021.1.3,59.90502656601558,
block,objects,objects053.bmp,,,,,0,62,62,62,,,,,,,,,,,,,,,,,,,,,,,,,,,,,,,,,,,,None,,104.20868499003117,None,104.20868499003117,None,2021-09-07-10:07:57.892268,104.21108520001872,104.5258879000321,104.21108520001872,104.21108520001872,None,104.21108520001872,104.21108520001872,105.02592399002751,None,,,,21001,0002,2021_Sep_07_1006,localizer,2021.1.3,59.90502656601558,
block,objects,objects025.bmp,,,,,0,63,63,63,,,,,,,,,,,,,,,,,,,,,,,,,,,,,,,,,,,,None,,105.02592399002751,None,105.02592399002751,None,2021-09-07-10:07:58.717160,105.03834860003553,105.3425922000315,105.03834860003553,None,None,105.03834860003553,None,105.84264648999087,None,,,,21001,0002,2021_Sep_07_1006,localizer,2021.1.3,59.90502656601558,
block,objects,objects008.bmp,,,,,0,64,64,64,,,,,,,,,,,,,,,,,,,,,,,,,,,,,,,,,,,,None,,105.84264648999087,None,105.84264648999087,None,2021-09-07-10:07:59.532725,105.84709570003906,106.15920320001896,105.84709570003906,None,None,105.84709570003906,None,106.6593408900313,None,,,,21001,0002,2021_Sep_07_1006,localizer,2021.1.3,59.90502656601558,
block,objects,objects075.bmp,,,,,0,65,65,65,,,,,,,,,,,,,,,,,,,,,,,,,,,,,,,,,,,,None,,106.6593408900313,None,106.6593408900313,None,2021-09-07-10:08:00.350576,106.6720204000012,106.9761099999887,106.6720204000012,None,None,106.6720204000012,None,107.47613128998782,None,,,,21001,0002,2021_Sep_07_1006,localizer,2021.1.3,59.90502656601558,
block,objects,objects051.bmp,,,,,0,66,66,66,,,,,,,,,,,,,,,,,,,,,,,,,,,,,,,,,,,,None,,107.47613128998782,None,107.47613128998782,None,2021-09-07-10:08:01.168233,107.49834560003364,107.80945200001588,107.49834560003364,None,None,107.49834560003364,None,108.29284919003257,None,,,,21001,0002,2021_Sep_07_1006,localizer,2021.1.3,59.90502656601558,
block,objects,objects042.bmp,,,,,0,67,67,67,,,,,,,,,,,,,,,,,,,,,,,,,,,,,,,,,,,,None,,108.29284919003257,None,108.29284919003257,None,2021-09-07-10:08:01.984073,108.30572790000588,108.60939940001117,108.30572790000588,None,None,108.30572790000588,None,109.10947729003382,None,,,,21001,0002,2021_Sep_07_1006,localizer,2021.1.3,59.90502656601558,
block,objects,objects058.bmp,,,,,0,68,68,68,,,,,,,,,,,,,,,,,,,,,,,,,,,,,,,,,,,,None,,109.10947729003382,None,109.10947729003382,None,2021-09-07-10:08:02.797758,109.11265229998389,109.42630270001246,109.11265229998389,None,None,109.11265229998389,None,109.92650829001795,None,,,,21001,0002,2021_Sep_07_1006,localizer,2021.1.3,59.90502656601558,
block,objects,objects007.bmp,,,,,0,69,69,69,,,,,,,,,,,,,,,,,,,,,,,,,,,,,,,,,,,,None,,109.92650829001795,None,109.92650829001795,None,2021-09-07-10:08:03.617731,109.94976320001297,110.25988860003417,109.94976320001297,None,None,109.94976320001297,None,110.74340149000054,None,,,,21001,0002,2021_Sep_07_1006,localizer,2021.1.3,59.90502656601558,
block,objects,objects016.bmp,,,,,0,70,70,70,,,,,,,,,,,,,,,,,,,,,,,,,,,,,,,,,,,,None,,110.74340149000054,None,110.74340149000054,None,2021-09-07-10:08:04.434370,110.76708309998503,111.07687400002033,110.76708309998503,None,None,110.76708309998503,None,111.56020919003058,None,,,,21001,0002,2021_Sep_07_1006,localizer,2021.1.3,59.90502656601558,
block,objects,objects067.bmp,,,,,0,71,71,71,,,,,,,,,,,,,,,,,,,,,,,,,,,,,,,,,,,,None,,111.56020919003058,None,111.56020919003058,None,2021-09-07-10:08:05.253251,111.5956668999861,111.91021760000149,111.5956668999861,None,None,111.5956668999861,None,112.37687858999706,None,,,,21001,0002,2021_Sep_07_1006,localizer,2021.1.3,59.90502656601558,
block,objects,objects084.bmp,,,,,0,72,72,72,,,,,,,,,,,,,,,,,,,,,,,,,,,,,,,,,,,,None,,112.37687858999706,None,112.37687858999706,None,2021-09-07-10:08:06.067708,112.39042900002096,112.69337300001644,112.39042900002096,None,None,112.39042900002096,None,113.19354539000196,None,,,,21001,0002,2021_Sep_07_1006,localizer,2021.1.3,59.90502656601558,
block,objects,objects065.bmp,,,,,0,73,73,73,,,,,,,,,,,,,,,,,,,,,,,,,,,,,,,,,,,,None,,113.19354539000196,None,113.19354539000196,None,2021-09-07-10:08:06.884776,113.20763580000494,113.5102258999832,113.20763580000494,None,None,113.20763580000494,None,114.01023238998604,None,,,,21001,0002,2021_Sep_07_1006,localizer,2021.1.3,59.90502656601558,
block,objects,objects073.bmp,,,,,0,74,74,74,,,,,,,,,,,,,,,,,,,,,,,,,,,,,,,,,,,,None,,114.01023238998604,None,114.01023238998604,None,2021-09-07-10:08:07.700993,114.02374650002457,114.32689299999038,114.02374650002457,None,None,114.02374650002457,None,114.82688879002816,None,,,,21001,0002,2021_Sep_07_1006,localizer,2021.1.3,59.90502656601558,
block_end,objects,objects055.bmp,,,,,0,75,75,75,,,,,,,,,,,,,,,,,,,,,,,,,,,,,,,,,,,,None,,114.82688879002816,None,114.82688879002816,None,2021-09-07-10:08:08.518117,114.84096910001244,115.14356190001126,114.84096910001244,None,None,114.84096910001244,None,115.64356989002553,None,,,,21001,0002,2021_Sep_07_1006,localizer,2021.1.3,59.90502656601558,
block_start,scrambled,scrambled048.bmp,,,,,0,76,76,76,,,,,,,,,,,,,,,,,,,,,,,,,,,,,,,,,,,,t,2.4236892000189982,115.64355770003749,None,115.64355770003749,None,2021-09-07-10:08:11.781855,118.11413010000251,118.42674269998679,118.11413010000251,None,None,118.11413010000251,None,118.91020289001753,None,,,,21001,0002,2021_Sep_07_1006,localizer,2021.1.3,59.90502656601558,
block,scrambled,scrambled088.bmp,,,,,0,77,77,77,,,,,,,,,,,,,,,,,,,,,,,,,,,,,,,,,,,,None,,118.91020289001753,None,118.91020289001753,None,2021-09-07-10:08:12.602255,118.9450230000075,119.24358020001091,118.9450230000075,None,None,118.9450230000075,None,119.72695159000577,None,,,,21001,0002,2021_Sep_07_1006,localizer,2021.1.3,59.90502656601558,
block,scrambled,scrambled068.bmp,,,,,0,78,78,78,,,,,,,,,,,,,,,,,,,,,,,,,,,,,,,,,,,,None,,119.72695159000577,None,119.72695159000577,None,2021-09-07-10:08:13.419189,119.74205790000269,120.04345840000315,119.74205790000269,None,None,119.74205790000269,None,120.54352029002038,None,,,,21001,0002,2021_Sep_07_1006,localizer,2021.1.3,59.90502656601558,
block,scrambled,scrambled016.bmp,,,,,0,79,79,79,,,,,,,,,,,,,,,,,,,,,,,,,,,,,,,,,,,,None,,120.54352029002038,None,120.54352029002038,None,2021-09-07-10:08:14.234772,120.5575718000182,120.86027000000468,120.5575718000182,None,None,120.5575718000182,None,121.36028479001251,None,,,,21001,0002,2021_Sep_07_1006,localizer,2021.1.3,59.90502656601558,
block,scrambled,scrambled076.bmp,,,,,0,80,80,80,,,,,,,,,,,,,,,,,,,,,,,,,,,,,,,,,,,,None,,121.36028479001251,None,121.36028479001251,None,2021-09-07-10:08:15.050532,121.37325140001485,121.67691789998207,121.37325140001485,None,None,121.37325140001485,None,122.1769567899988,None,,,,21001,0002,2021_Sep_07_1006,localizer,2021.1.3,59.90502656601558,
block,scrambled,scrambled035.bmp,,,,,0,81,81,81,,,,,,,,,,,,,,,,,,,,,,,,,,,,,,,,,,,,None,,122.1769567899988,None,122.1769567899988,None,2021-09-07-10:08:15.868201,122.19096290000016,122.49357779999264,122.19096290000016,None,None,122.19096290000016,None,122.99361559000099,None,,,,21001,0002,2021_Sep_07_1006,localizer,2021.1.3,59.90502656601558,
block,scrambled,scrambled071.bmp,,,,,0,82,82,82,,,,,,,,,,,,,,,,,,,,,,,,,,,,,,,,,,,,None,,122.99361559000099,None,122.99361559000099,None,2021-09-07-10:08:16.684862,123.0163629000308,123.32693350000773,123.0163629000308,None,None,123.0163629000308,None,123.81028108999598,None,,,,21001,0002,2021_Sep_07_1006,localizer,2021.1.3,59.90502656601558,
block,scrambled,scrambled044.bmp,,,,,0,83,83,83,,,,,,,,,,,,,,,,,,,,,,,,,,,,,,,,,,,,None,,123.81028108999598,None,123.81028108999598,None,2021-09-07-10:08:17.502528,123.82540610001888,124.12692190002417,123.82540610001888,None,None,123.82540610001888,None,124.62696509001543,None,,,,21001,0002,2021_Sep_07_1006,localizer,2021.1.3,59.90502656601558,
block,scrambled,scrambled062.bmp,,,,,0,84,84,84,,,,,,,,,,,,,,,,,,,,,,,,,,,,,,,,,,,,None,,124.62696509001543,None,124.62696509001543,None,2021-09-07-10:08:18.317641,124.64035290002357,124.94363220001105,124.64035290002357,None,None,124.64035290002357,None,125.44364759002346,None,,,,21001,0002,2021_Sep_07_1006,localizer,2021.1.3,59.90502656601558,
block,scrambled,scrambled025.bmp,,,,,0,85,85,85,,,,,,,,,,,,,,,,,,,,,,,,,,,,,,,,,,,,None,,125.44364759002346,None,125.44364759002346,None,2021-09-07-10:08:19.134889,125.45762850000756,125.76026980002644,125.45762850000756,None,None,125.45762850000756,None,126.26029699001228,None,,,,21001,0002,2021_Sep_07_1006,localizer,2021.1.3,59.90502656601558,
block,scrambled,scrambled025.bmp,,,,,0,86,86,86,,,,,,,,,,,,,,,,,,,,,,,,,,,,,,,,,,,,None,,126.26029699001228,None,126.26029699001228,None,2021-09-07-10:08:19.951548,126.27326809999067,126.57698439998785,126.27326809999067,None,y,126.27326809999067,None,127.07701809002319,None,0.5099710000213236,,,21001,0002,2021_Sep_07_1006,localizer,2021.1.3,59.90502656601558,
block,scrambled,scrambled029.bmp,,,,,0,87,87,87,,,,,,,,,,,,,,,,,,,,,,,,,,,,,,,,,,,,None,,127.07701809002319,None,127.07701809002319,None,2021-09-07-10:08:20.766618,127.09266379999463,127.39366210001754,127.09266379999463,None,None,127.09266379999463,None,127.89366689000744,None,,,,21001,0002,2021_Sep_07_1006,localizer,2021.1.3,59.90502656601558,
block,scrambled,scrambled075.bmp,,,,,0,88,88,88,,,,,,,,,,,,,,,,,,,,,,,,,,,,,,,,,,,,None,,127.89366689000744,None,127.89366689000744,None,2021-09-07-10:08:21.584732,127.91675229999237,128.2270300000091,127.91675229999237,None,None,127.91675229999237,None,128.7101738900179,None,,,,21001,0002,2021_Sep_07_1006,localizer,2021.1.3,59.90502656601558,
block,scrambled,scrambled061.bmp,,,,,0,89,89,89,,,,,,,,,,,,,,,,,,,,,,,,,,,,,,,,,,,,None,,128.7101738900179,None,128.7101738900179,None,2021-09-07-10:08:22.401296,128.72402980003972,129.02690230001463,128.72402980003972,None,None,128.72402980003972,None,129.52700309003703,None,,,,21001,0002,2021_Sep_07_1006,localizer,2021.1.3,59.90502656601558,
block_end,scrambled,scrambled027.bmp,,,,,0,90,90,90,,,,,,,,,,,,,,,,,,,,,,,,,,,,,,,,,,,,None,,129.52700309003703,None,129.52700309003703,None,2021-09-07-10:08:23.219863,129.54167340003187,129.84366479999153,129.54167340003187,None,None,129.54167340003187,None,130.343672290002,None,,,,21001,0002,2021_Sep_07_1006,localizer,2021.1.3,59.90502656601558,
block_start,scenes,scenes063.bmp,,,,,0,91,91,91,,,,,,,,,,,,,,,,,,,,,,,,,,,,,,,,,,,,t,4.2390539000043646,130.34366300003603,None,130.34366300003603,None,2021-09-07-10:08:28.298557,134.63408330001403,134.94364920002408,134.63408330001403,None,None,134.63408330001403,None,135.42695999002316,None,,,,21001,0002,2021_Sep_07_1006,localizer,2021.1.3,59.90502656601558,
block,scenes,scenes036.bmp,,,,,0,92,92,92,,,,,,,,,,,,,,,,,,,,,,,,,,,,,,,,,,,,None,,135.42695999002316,None,135.42695999002316,None,2021-09-07-10:08:29.118216,135.4410096000065,135.74371280003106,135.4410096000065,None,None,135.4410096000065,None,136.24377239003078,None,,,,21001,0002,2021_Sep_07_1006,localizer,2021.1.3,59.90502656601558,
block,scenes,scenes062.bmp,,,,,0,93,93,93,,,,,,,,,,,,,,,,,,,,,,,,,,,,,,,,,,,,None,,136.24377239003078,None,136.24377239003078,None,2021-09-07-10:08:29.937016,136.29166829999303,136.59369410004,136.29166829999303,None,None,136.29166829999303,None,137.06032279002247,None,,,,21001,0002,2021_Sep_07_1006,localizer,2021.1.3,59.90502656601558,
block,scenes,scenes044.bmp,,,,,0,94,94,94,,,,,,,,,,,,,,,,,,,,,,,,,,,,,,,,,,,,None,,137.06032279002247,None,137.06032279002247,None,2021-09-07-10:08:30.751574,137.08493539999472,137.39370780001627,137.08493539999472,None,None,137.08493539999472,None,137.87683629002422,None,,,,21001,0002,2021_Sep_07_1006,localizer,2021.1.3,59.90502656601558,
block,scenes,scenes041.bmp,,,,,0,95,95,95,,,,,,,,,,,,,,,,,,,,,,,,,,,,,,,,,,,,None,,137.87683629002422,None,137.87683629002422,None,2021-09-07-10:08:31.562213,137.88076979998732,138.19372069998644,137.88076979998732,None,None,137.88076979998732,None,138.69362359001533,None,,,,21001,0002,2021_Sep_07_1006,localizer,2021.1.3,59.90502656601558,
block,scenes,scenes086.bmp,,,,,0,96,96,96,,,,,,,,,,,,,,,,,,,,,,,,,,,,,,,,,,,,None,,138.69362359001533,None,138.69362359001533,None,2021-09-07-10:08:32.384866,138.7076222000178,139.01038669998525,138.7076222000178,None,None,138.7076222000178,None,139.51048979002516,None,,,,21001,0002,2021_Sep_07_1006,localizer,2021.1.3,59.90502656601558,
block,scenes,scenes055.bmp,,,,,0,97,97,97,,,,,,,,,,,,,,,,,,,,,,,,,,,,,,,,,,,,None,,139.51048979002516,None,139.51048979002516,None,2021-09-07-10:08:33.202759,139.5373864999856,139.84365679998882,139.5373864999856,None,None,139.5373864999856,None,140.32706339001888,None,,,,21001,0002,2021_Sep_07_1006,localizer,2021.1.3,59.90502656601558,
block,scenes,scenes071.bmp,,,,,0,98,98,98,,,,,,,,,,,,,,,,,,,,,,,,,,,,,,,,,,,,None,,140.32706339001888,None,140.32706339001888,None,2021-09-07-10:08:34.018325,140.3512383000343,140.66044710000278,140.3512383000343,None,None,140.3512383000343,None,141.14375538998283,None,,,,21001,0002,2021_Sep_07_1006,localizer,2021.1.3,59.90502656601558,
block,scenes,scenes047.bmp,,,,,0,99,99,99,,,,,,,,,,,,,,,,,,,,,,,,,,,,,,,,,,,,None,,141.14375538998283,None,141.14375538998283,None,2021-09-07-10:08:34.835184,141.1670386000187,141.47709050000412,141.1670386000187,None,None,141.1670386000187,None,141.96024999001528,None,,,,21001,0002,2021_Sep_07_1006,localizer,2021.1.3,59.90502656601558,
block,scenes,scenes051.bmp,,,,,0,100,100,100,,,,,,,,,,,,,,,,,,,,,,,,,,,,,,,,,,,,None,,141.96024999001528,None,141.96024999001528,None,2021-09-07-10:08:35.652329,141.97389670001576,142.2770620000083,141.97389670001576,None,None,141.97389670001576,None,142.77712879000464,None,,,,21001,0002,2021_Sep_07_1006,localizer,2021.1.3,59.90502656601558,
block,scenes,scenes078.bmp,,,,,0,101,101,101,,,,,,,,,,,,,,,,,,,,,,,,,,,,,,,,,,,,None,,142.77712879000464,None,142.77712879000464,None,2021-09-07-10:08:36.468214,142.8197366000386,143.12710730003892,142.8197366000386,None,None,142.8197366000386,None,143.59377589003415,None,,,,21001,0002,2021_Sep_07_1006,localizer,2021.1.3,59.90502656601558,
block,scenes,scenes070.bmp,,,,,0,102,102,102,,,,,,,,,,,,,,,,,,,,,,,,,,,,,,,,,,,,None,,143.59377589003415,None,143.59377589003415,None,2021-09-07-10:08:37.285259,143.60817570000654,143.9103503000224,143.60817570000654,None,None,143.60817570000654,None,144.41040618999395,None,,,,21001,0002,2021_Sep_07_1006,localizer,2021.1.3,59.90502656601558,
block,scenes,scenes050.bmp,,,,,0,103,103,103,,,,,,,,,,,,,,,,,,,,,,,,,,,,,,,,,,,,None,,144.41040618999395,None,144.41040618999395,None,2021-09-07-10:08:38.101707,144.43347930000164,144.74377699999604,144.43347930000164,None,None,144.43347930000164,None,145.22693589000264,None,,,,21001,0002,2021_Sep_07_1006,localizer,2021.1.3,59.90502656601558,
block,scenes,scenes074.bmp,,,,,0,104,104,104,,,,,,,,,,,,,,,,,,,,,,,,,,,,,,,,,,,,None,,145.22693589000264,None,145.22693589000264,None,2021-09-07-10:08:38.909203,145.23095870000543,145.54357400001027,145.23095870000543,None,None,145.23095870000543,None,146.04374548998894,None,,,,21001,0002,2021_Sep_07_1006,localizer,2021.1.3,59.90502656601558,
block_end,scenes,scenes080.bmp,,,,,0,105,105,105,,,,,,,,,,,,,,,,,,,,,,,,,,,,,,,,,,,,None,,146.04374548998894,None,146.04374548998894,None,2021-09-07-10:08:39.734882,146.06300100003136,146.37712900002953,146.06300100003136,None,None,146.06300100003136,None,146.8604516900028,None,,,,21001,0002,2021_Sep_07_1006,localizer,2021.1.3,59.90502656601558,
null_block,null_block,null_block.bmp,,,,,0,106,106,106,,,,,,,,,,,,,,,,,,,,,,,,,,,,,,,,,,,,t,2.0772013000096194,146.86047010001494,None,146.86047010001494,None,2021-09-07-10:08:42.648449,148.9771407800028,None,148.9771407800028,None,None,148.9771407800028,None,148.97858009999618,None,,,,21001,0002,2021_Sep_07_1006,localizer,2021.1.3,59.90502656601558,
block_start,faces,faces085.bmp,,,,,0,107,107,107,,,,,,,,,,,,,,,,,,,,,,,,,,,,,,,,,,,,t,1.6841267000418156,160.993903900031,None,160.993903900031,None,2021-09-07-10:08:56.386552,162.70289080002112,163.01058120001107,162.70289080002112,None,None,162.70289080002112,None,163.51040339000755,None,,,,21001,0002,2021_Sep_07_1006,localizer,2021.1.3,59.90502656601558,
block,faces,faces076.bmp,,,,,0,108,108,108,,,,,,,,,,,,,,,,,,,,,,,,,,,,,,,,,,,,None,,163.51040339000755,None,163.51040339000755,None,2021-09-07-10:08:57.193905,163.51152850000653,163.81050620001042,163.51152850000653,None,None,163.51152850000653,None,164.32720919002313,None,,,,21001,0002,2021_Sep_07_1006,localizer,2021.1.3,59.90502656601558,
block,faces,faces009.bmp,,,,,0,109,109,109,,,,,,,,,,,,,,,,,,,,,,,,,,,,,,,,,,,,None,,164.32720919002313,None,164.32720919002313,None,2021-09-07-10:08:58.019586,164.35214199998882,164.66048800002318,164.35214199998882,None,None,164.35214199998882,None,165.1439308899804,None,,,,21001,0002,2021_Sep_07_1006,localizer,2021.1.3,59.90502656601558,
block,faces,faces044.bmp,,,,,0,110,110,110,,,,,,,,,,,,,,,,,,,,,,,,,,,,,,,,,,,,None,,165.1439308899804,None,165.1439308899804,None,2021-09-07-10:08:58.835129,165.1678847000003,165.47725970001193,165.1678847000003,None,None,165.1678847000003,None,165.96060269002336,None,,,,21001,0002,2021_Sep_07_1006,localizer,2021.1.3,59.90502656601558,
block,faces,faces089.bmp,,,,,0,111,111,111,,,,,,,,,,,,,,,,,,,,,,,,,,,,,,,,,,,,None,,165.96060269002336,None,165.96060269002336,None,2021-09-07-10:08:59.653222,165.97482430003583,166.27726880001137,165.97482430003583,None,None,165.97482430003583,None,166.77725738999433,None,,,,21001,0002,2021_Sep_07_1006,localizer,2021.1.3,59.90502656601558,
block,faces,faces039.bmp,,,,,0,112,112,112,,,,,,,,,,,,,,,,,,,,,,,,,,,,,,,,,,,,None,,166.77725738999433,None,166.77725738999433,None,2021-09-07-10:09:00.468374,166.79078670003219,167.09393780003302,166.79078670003219,None,None,166.79078670003219,None,167.593944989983,None,,,,21001,0002,2021_Sep_07_1006,localizer,2021.1.3,59.90502656601558,
block,faces,faces045.bmp,,,,,0,113,113,113,,,,,,,,,,,,,,,,,,,,,,,,,,,,,,,,,,,,None,,167.593944989983,None,167.593944989983,None,2021-09-07-10:09:01.284562,167.59999560000142,167.9106071999995,167.59999560000142,None,None,167.59999560000142,None,168.41061868998221,None,,,,21001,0002,2021_Sep_07_1006,localizer,2021.1.3,59.90502656601558,
block,faces,faces008.bmp,,,,,0,114,114,114,,,,,,,,,,,,,,,,,,,,,,,,,,,,,,,,,,,,None,,168.41061868998221,None,168.41061868998221,None,2021-09-07-10:09:02.103063,168.43825629999628,168.7438673999859,168.43825629999628,None,None,168.43825629999628,None,169.2271007900359,None,,,,21001,0002,2021_Sep_07_1006,localizer,2021.1.3,59.90502656601558,
block,faces,faces026.bmp,,,,,0,115,115,115,,,,,,,,,,,,,,,,,,,,,,,,,,,,,,,,,,,,None,,169.2271007900359,None,169.2271007900359,None,2021-09-07-10:09:02.916209,169.27830900001572,169.57725880004,169.27830900001572,None,None,169.27830900001572,None,170.04397488998947,None,,,,21001,0002,2021_Sep_07_1006,localizer,2021.1.3,59.90502656601558,
block,faces,faces041.bmp,,,,,0,116,116,116,,,,,,,,,,,,,,,,,,,,,,,,,,,,,,,,,,,,None,,170.04397488998947,None,170.04397488998947,None,2021-09-07-10:09:03.735620,170.05797010002425,170.36055179999676,170.05797010002425,None,None,170.05797010002425,None,170.86055608998285,None,,,,21001,0002,2021_Sep_07_1006,localizer,2021.1.3,59.90502656601558,
block,faces,faces074.bmp,,,,,0,117,117,117,,,,,,,,,,,,,,,,,,,,,,,,,,,,,,,,,,,,None,,170.86055608998285,None,170.86055608998285,None,2021-09-07-10:09:04.552213,170.88605630001985,171.19376520003425,170.88605630001985,None,None,170.88605630001985,None,171.67731189002515,None,,,,21001,0002,2021_Sep_07_1006,localizer,2021.1.3,59.90502656601558,
block,faces,faces078.bmp,,,,,0,118,118,118,,,,,,,,,,,,,,,,,,,,,,,,,,,,,,,,,,,,None,,171.67731189002515,None,171.67731189002515,None,2021-09-07-10:09:05.368858,171.701716999989,172.01063119998435,171.701716999989,None,None,171.701716999989,None,172.4939562900341,None,,,,21001,0002,2021_Sep_07_1006,localizer,2021.1.3,59.90502656601558,
block,faces,faces017.bmp,,,,,0,119,119,119,,,,,,,,,,,,,,,,,,,,,,,,,,,,,,,,,,,,None,,172.4939562900341,None,172.4939562900341,None,2021-09-07-10:09:06.185213,172.50753790000454,172.81055890000425,172.50753790000454,None,None,172.50753790000454,None,173.31064239001134,None,,,,21001,0002,2021_Sep_07_1006,localizer,2021.1.3,59.90502656601558,
block,faces,faces034.bmp,,,,,0,120,120,120,,,,,,,,,,,,,,,,,,,,,,,,,,,,,,,,,,,,None,,173.31064239001134,None,173.31064239001134,None,2021-09-07-10:09:07.002350,173.33455000002868,173.6439776000334,173.33455000002868,None,None,173.33455000002868,None,174.1271759899915,None,,,,21001,0002,2021_Sep_07_1006,localizer,2021.1.3,59.90502656601558,
block_end,faces,faces036.bmp,,,,,0,121,121,121,,,,,,,,,,,,,,,,,,,,,,,,,,,,,,,,,,,,None,,174.1271759899915,None,174.1271759899915,None,2021-09-07-10:09:07.810830,174.1282030000002,174.42731270001968,174.1282030000002,None,None,174.1282030000002,None,174.92733179000206,None,,,,21001,0002,2021_Sep_07_1006,localizer,2021.1.3,59.90502656601558,
block_start,objects,objects067.bmp,,,,,0,122,122,122,,,,,,,,,,,,,,,,,,,,,,,,,,,,,,,,,,,,t,2.151566099957563,174.92726820003008,None,174.92726820003008,None,2021-09-07-10:09:10.782773,177.10570830001961,177.41057810001075,177.10570830001961,None,None,177.10570830001961,None,177.91068479001987,None,,,,21001,0002,2021_Sep_07_1006,localizer,2021.1.3,59.90502656601558,
block,objects,objects024.bmp,,,,,0,123,123,123,,,,,,,,,,,,,,,,,,,,,,,,,,,,,,,,,,,,None,,177.91068479001987,None,177.91068479001987,None,2021-09-07-10:09:11.602459,177.94544139999198,178.24399610003456,177.94544139999198,None,None,177.94544139999198,None,178.7273724900093,None,,,,21001,0002,2021_Sep_07_1006,localizer,2021.1.3,59.90502656601558,
block,objects,objects016.bmp,,,,,0,124,124,124,,,,,,,,,,,,,,,,,,,,,,,,,,,,,,,,,,,,None,,178.7273724900093,None,178.7273724900093,None,2021-09-07-10:09:12.419147,178.740363000019,179.04398650000803,178.740363000019,None,None,178.740363000019,None,179.544043889991,None,,,,21001,0002,2021_Sep_07_1006,localizer,2021.1.3,59.90502656601558,
block,objects,objects061.bmp,,,,,0,125,125,125,,,,,,,,,,,,,,,,,,,,,,,,,,,,,,,,,,,,None,,179.544043889991,None,179.544043889991,None,2021-09-07-10:09:13.235821,179.55803870002273,179.86069370002951,179.55803870002273,None,None,179.55803870002273,None,180.36071469002636,None,,,,21001,0002,2021_Sep_07_1006,localizer,2021.1.3,59.90502656601558,
block,objects,objects033.bmp,,,,,0,126,126,126,,,,,,,,,,,,,,,,,,,,,,,,,,,,,,,,,,,,None,,180.36071469002636,None,180.36071469002636,None,2021-09-07-10:09:14.052507,180.37375020002946,180.67730560002383,180.37375020002946,None,None,180.37375020002946,None,181.1773577900254,None,,,,21001,0002,2021_Sep_07_1006,localizer,2021.1.3,59.90502656601558,
block,objects,objects043.bmp,,,,,0,127,127,127,,,,,,,,,,,,,,,,,,,,,,,,,,,,,,,,,,,,None,,181.1773577900254,None,181.1773577900254,None,2021-09-07-10:09:14.869148,181.20145220000995,181.51070620003156,181.20145220000995,None,None,181.20145220000995,None,181.99356239000335,None,,,,21001,0002,2021_Sep_07_1006,localizer,2021.1.3,59.90502656601558,
block,objects,objects056.bmp,,,,,0,128,128,128,,,,,,,,,,,,,,,,,,,,,,,,,,,,,,,,,,,,None,,181.99356239000335,None,181.99356239000335,None,2021-09-07-10:09:15.676735,182.00168420001864,182.31053700001212,182.00168420001864,None,None,182.00168420001864,None,182.81066669002175,None,,,,21001,0002,2021_Sep_07_1006,localizer,2021.1.3,59.90502656601558,
block,objects,objects054.bmp,,,,,0,129,129,129,,,,,,,,,,,,,,,,,,,,,,,,,,,,,,,,,,,,None,,182.81066669002175,None,182.81066669002175,None,2021-09-07-10:09:16.502502,182.8236265000305,183.1273865000112,182.8236265000305,None,None,182.8236265000305,None,183.62739229000871,None,,,,21001,0002,2021_Sep_07_1006,localizer,2021.1.3,59.90502656601558,
block,objects,objects088.bmp,,,,,0,130,130,130,,,,,,,,,,,,,,,,,,,,,,,,,,,,,,,,,,,,None,,183.62739229000871,None,183.62739229000871,None,2021-09-07-10:09:17.320226,183.64253579999786,183.943998200004,183.64253579999786,None,None,183.64253579999786,None,184.44406229003798,None,,,,21001,0002,2021_Sep_07_1006,localizer,2021.1.3,59.90502656601558,
block,objects,objects005.bmp,,,,,0,131,131,131,,,,,,,,,,,,,,,,,,,,,,,,,,,,,,,,,,,,None,,184.44406229003798,None,184.44406229003798,None,2021-09-07-10:09:18.136912,184.46981859998778,184.7773951999843,184.46981859998778,None,None,184.46981859998778,None,185.26074099001707,None,,,,21001,0002,2021_Sep_07_1006,localizer,2021.1.3,59.90502656601558,
block,objects,objects060.bmp,,,,,0,132,132,132,,,,,,,,,,,,,,,,,,,,,,,,,,,,,,,,,,,,None,,185.26074099001707,None,185.26074099001707,None,2021-09-07-10:09:18.952415,185.28956150001613,185.59403750003548,185.28956150001613,None,None,185.28956150001613,None,186.0773693900206,None,,,,21001,0002,2021_Sep_07_1006,localizer,2021.1.3,59.90502656601558,
block,objects,objects009.bmp,,,,,0,133,133,133,,,,,,,,,,,,,,,,,,,,,,,,,,,,,,,,,,,,None,,186.0773693900206,None,186.0773693900206,None,2021-09-07-10:09:19.769245,186.08436849998543,186.39398960000835,186.08436849998543,None,None,186.08436849998543,None,186.89409158998168,None,,,,21001,0002,2021_Sep_07_1006,localizer,2021.1.3,59.90502656601558,
block,objects,objects066.bmp,,,,,0,134,134,134,,,,,,,,,,,,,,,,,,,,,,,,,,,,,,,,,,,,None,,186.89409158998168,None,186.89409158998168,None,2021-09-07-10:09:20.585959,186.90706830000272,187.21075140003813,186.90706830000272,None,None,186.90706830000272,None,187.71076209001475,None,,,,21001,0002,2021_Sep_07_1006,localizer,2021.1.3,59.90502656601558,
block,objects,objects020.bmp,,,,,0,135,135,135,,,,,,,,,,,,,,,,,,,,,,,,,,,,,,,,,,,,None,,187.71076209001475,None,187.71076209001475,None,2021-09-07-10:09:21.402491,187.72471630002838,188.02741859998787,187.72471630002838,None,None,187.72471630002838,None,188.5273875899962,None,,,,21001,0002,2021_Sep_07_1006,localizer,2021.1.3,59.90502656601558,
block_end,objects,objects076.bmp,,,,,0,136,136,136,,,,,,,,,,,,,,,,,,,,,,,,,,,,,,,,,,,,None,,188.5273875899962,None,188.5273875899962,None,2021-09-07-10:09:22.218805,188.53985790000297,188.84409349999623,188.53985790000297,None,None,188.53985790000297,None,189.3440005899989,None,,,,21001,0002,2021_Sep_07_1006,localizer,2021.1.3,59.90502656601558,
block_start,scrambled,scrambled071.bmp,,,,,0,137,137,137,,,,,,,,,,,,,,,,,,,,,,,,,,,,,,,,,,,,t,2.3242269000038505,189.34400059998734,None,189.34400059998734,None,2021-09-07-10:09:25.383080,191.70575870003086,192.01063000003342,191.70575870003086,None,None,191.70575870003086,None,192.51072549001546,None,,,,21001,0002,2021_Sep_07_1006,localizer,2021.1.3,59.90502656601558,
block,scrambled,scrambled087.bmp,,,,,0,138,138,138,,,,,,,,,,,,,,,,,,,,,,,,,,,,,,,,,,,,None,,192.51072549001546,None,192.51072549001546,None,2021-09-07-10:09:26.202687,192.5237194999936,192.82745189999696,192.5237194999936,None,None,192.5237194999936,None,193.3274821900064,None,,,,21001,0002,2021_Sep_07_1006,localizer,2021.1.3,59.90502656601558,
block,scrambled,scrambled058.bmp,,,,,0,139,139,139,,,,,,,,,,,,,,,,,,,,,,,,,,,,,,,,,,,,None,,193.3274821900064,None,193.3274821900064,None,2021-09-07-10:09:27.020263,193.36210590001428,193.6607429999858,193.36210590001428,None,None,193.36210590001428,None,194.14411059000994,None,,,,21001,0002,2021_Sep_07_1006,localizer,2021.1.3,59.90502656601558,
block,scrambled,scrambled067.bmp,,,,,0,140,140,140,,,,,,,,,,,,,,,,,,,,,,,,,,,,,,,,,,,,None,,194.14411059000994,None,194.14411059000994,None,2021-09-07-10:09:27.836089,194.15812129998812,194.46080880000954,194.15812129998812,None,None,194.15812129998812,None,194.96082728998735,None,,,,21001,0002,2021_Sep_07_1006,localizer,2021.1.3,59.90502656601558,
block,scrambled,scrambled073.bmp,,,,,0,141,141,141,,,,,,,,,,,,,,,,,,,,,,,,,,,,,,,,,,,,None,,194.96082728998735,None,194.96082728998735,None,2021-09-07-10:09:28.652788,194.98348840000108,195.2941343000275,194.98348840000108,None,None,194.98348840000108,None,195.77744929000036,None,,,,21001,0002,2021_Sep_07_1006,localizer,2021.1.3,59.90502656601558,
block,scrambled,scrambled070.bmp,,,,,0,142,142,142,,,,,,,,,,,,,,,,,,,,,,,,,,,,,,,,,,,,None,,195.77744929000036,None,195.77744929000036,None,2021-09-07-10:09:29.469452,195.79141970002092,196.09413590002805,195.79141970002092,None,None,195.79141970002092,None,196.5941604899941,None,,,,21001,0002,2021_Sep_07_1006,localizer,2021.1.3,59.90502656601558,
block,scrambled,scrambled041.bmp,,,,,0,143,143,143,,,,,,,,,,,,,,,,,,,,,,,,,,,,,,,,,,,,None,,196.5941604899941,None,196.5941604899941,None,2021-09-07-10:09:30.287172,196.6081509999931,196.91073780000443,196.6081509999931,None,None,196.6081509999931,None,197.4107863900368,None,,,,21001,0002,2021_Sep_07_1006,localizer,2021.1.3,59.90502656601558,
block,scrambled,scrambled052.bmp,,,,,0,144,144,144,,,,,,,,,,,,,,,,,,,,,,,,,,,,,,,,,,,,None,,197.4107863900368,None,197.4107863900368,None,2021-09-07-10:09:31.102811,197.43455380003434,197.74415610003052,197.43455380003434,None,None,197.43455380003434,None,198.22749258999247,None,,,,21001,0002,2021_Sep_07_1006,localizer,2021.1.3,59.90502656601558,
block,scrambled,scrambled015.bmp,,,,,0,145,145,145,,,,,,,,,,,,,,,,,,,,,,,,,,,,,,,,,,,,None,,198.22749258999247,None,198.22749258999247,None,2021-09-07-10:09:31.919529,198.24572160001844,198.54399040003773,198.24572160001844,None,None,198.24572160001844,None,199.04412329001352,None,,,,21001,0002,2021_Sep_07_1006,localizer,2021.1.3,59.90502656601558,
block,scrambled,scrambled039.bmp,,,,,0,146,146,146,,,,,,,,,,,,,,,,,,,,,,,,,,,,,,,,,,,,None,,199.04412329001352,None,199.04412329001352,None,2021-09-07-10:09:32.736168,199.05713670002297,199.3607892,199.05713670002297,None,None,199.05713670002297,None,199.86083739002933,None,,,,21001,0002,2021_Sep_07_1006,localizer,2021.1.3,59.90502656601558,
block,scrambled,scrambled032.bmp,,,,,0,147,147,147,,,,,,,,,,,,,,,,,,,,,,,,,,,,,,,,,,,,None,,199.86083739002933,None,199.86083739002933,None,2021-09-07-10:09:33.552711,199.88354350003647,200.19418590003625,199.88354350003647,None,None,199.88354350003647,None,200.6775140899932,None,,,,21001,0002,2021_Sep_07_1006,localizer,2021.1.3,59.90502656601558,
block,scrambled,scrambled038.bmp,,,,,0,148,148,148,,,,,,,,,,,,,,,,,,,,,,,,,,,,,,,,,,,,None,,200.6775140899932,None,200.6775140899932,None,2021-09-07-10:09:34.370579,200.7214176999987,201.02743439999176,200.7214176999987,None,None,200.7214176999987,None,201.49394009002717,None,,,,21001,0002,2021_Sep_07_1006,localizer,2021.1.3,59.90502656601558,
block,scrambled,scrambled029.bmp,,,,,0,149,149,149,,,,,,,,,,,,,,,,,,,,,,,,,,,,,,,,,,,,None,,201.49394009002717,None,201.49394009002717,None,2021-09-07-10:09:35.179170,201.4969082000316,201.8108651000075,201.4969082000316,None,None,201.4969082000316,None,202.31071369003038,None,,,,21001,0002,2021_Sep_07_1006,localizer,2021.1.3,59.90502656601558,
block,scrambled,scrambled085.bmp,,,,,0,150,150,150,,,,,,,,,,,,,,,,,,,,,,,,,,,,,,,,,,,,None,,202.31071369003038,None,202.31071369003038,None,2021-09-07-10:09:36.003480,202.32970770000247,202.64412910002284,202.32970770000247,None,None,202.32970770000247,None,203.1275459900149,None,,,,21001,0002,2021_Sep_07_1006,localizer,2021.1.3,59.90502656601558,
block_end,scrambled,scrambled006.bmp,,,,,0,151,151,151,,,,,,,,,,,,,,,,,,,,,,,,,,,,,,,,,,,,None,,203.1275459900149,None,203.1275459900149,None,2021-09-07-10:09:36.819465,203.14027070003795,203.44419370003743,203.14027070003795,None,None,203.14027070003795,None,203.94424139000475,None,,,,21001,0002,2021_Sep_07_1006,localizer,2021.1.3,59.90502656601558,
block_start,scenes,scenes031.bmp,,,,,0,152,152,152,,,,,,,,,,,,,,,,,,,,,,,,,,,,,,,,,,,,t,2.4584128000424244,203.9441459000227,None,203.9441459000227,None,2021-09-07-10:09:40.116700,206.43899580003927,206.74410040001385,206.43899580003927,None,None,206.43899580003927,None,207.24422789000673,None,,,,21001,0002,2021_Sep_07_1006,localizer,2021.1.3,59.90502656601558,
block,scenes,scenes059.bmp,,,,,0,153,153,153,,,,,,,,,,,,,,,,,,,,,,,,,,,,,,,,,,,,None,,207.24422789000673,None,207.24422789000673,None,2021-09-07-10:09:40.936213,207.25803299999097,207.5608889000141,207.25803299999097,None,None,207.25803299999097,None,208.0609086900018,None,,,,21001,0002,2021_Sep_07_1006,localizer,2021.1.3,59.90502656601558,
block,scenes,scenes091.bmp,,,,,0,154,154,154,,,,,,,,,,,,,,,,,,,,,,,,,,,,,,,,,,,,None,,208.0609086900018,None,208.0609086900018,None,2021-09-07-10:09:41.753892,208.0852661000099,208.39415459998418,208.0852661000099,None,None,208.0852661000099,None,208.87757699001813,None,,,,21001,0002,2021_Sep_07_1006,localizer,2021.1.3,59.90502656601558,
block,scenes,scenes001.bmp,,,,,0,155,155,155,,,,,,,,,,,,,,,,,,,,,,,,,,,,,,,,,,,,None,,208.87757699001813,None,208.87757699001813,None,2021-09-07-10:09:42.569573,208.89137890003622,209.19424530002289,208.89137890003622,None,None,208.89137890003622,None,209.69399669000413,None,,,,21001,0002,2021_Sep_07_1006,localizer,2021.1.3,59.90502656601558,
block,scenes,scenes016.bmp,,,,,0,156,156,156,,,,,,,,,,,,,,,,,,,,,,,,,,,,,,,,,,,,None,,209.69399669000413,None,209.69399669000413,None,2021-09-07-10:09:43.379346,209.71092370001134,210.0108923999942,209.71092370001134,None,None,209.71092370001134,None,210.51081639000913,None,,,,21001,0002,2021_Sep_07_1006,localizer,2021.1.3,59.90502656601558,
block,scenes,scenes054.bmp,,,,,0,157,157,157,,,,,,,,,,,,,,,,,,,,,,,,,,,,,,,,,,,,None,,210.51081639000913,None,210.51081639000913,None,2021-09-07-10:09:44.203022,210.5437804000103,210.84424710000167,210.5437804000103,None,None,210.5437804000103,None,211.32753619001014,None,,,,21001,0002,2021_Sep_07_1006,localizer,2021.1.3,59.90502656601558,
block,scenes,scenes092.bmp,,,,,0,158,158,158,,,,,,,,,,,,,,,,,,,,,,,,,,,,,,,,,,,,None,,211.32753619001014,None,211.32753619001014,None,2021-09-07-10:09:45.020750,211.3415335000027,211.64408490003552,211.3415335000027,None,None,211.3415335000027,None,212.14423189000226,None,,,,21001,0002,2021_Sep_07_1006,localizer,2021.1.3,59.90502656601558,
block,scenes,scenes058.bmp,,,,,0,159,159,159,,,,,,,,,,,,,,,,,,,,,,,,,,,,,,,,,,,,None,,212.14423189000226,None,212.14423189000226,None,2021-09-07-10:09:45.836478,212.15828740003053,212.4609264000319,212.15828740003053,None,None,212.15828740003053,None,212.96093029001494,None,,,,21001,0002,2021_Sep_07_1006,localizer,2021.1.3,59.90502656601558,
block,scenes,scenes068.bmp,,,,,0,160,160,160,,,,,,,,,,,,,,,,,,,,,,,,,,,,,,,,,,,,None,,212.96093029001494,None,212.96093029001494,None,2021-09-07-10:09:46.654170,212.9749517000164,213.2776009000372,212.9749517000164,None,None,212.9749517000164,None,213.7775953900069,None,,,,21001,0002,2021_Sep_07_1006,localizer,2021.1.3,59.90502656601558,
block,scenes,scenes026.bmp,,,,,0,161,161,161,,,,,,,,,,,,,,,,,,,,,,,,,,,,,,,,,,,,None,,213.7775953900069,None,213.7775953900069,None,2021-09-07-10:09:47.469850,213.80004980001831,214.11094310000772,213.80004980001831,None,None,213.80004980001831,None,214.59428639002144,None,,,,21001,0002,2021_Sep_07_1006,localizer,2021.1.3,59.90502656601558,
block,scenes,scenes024.bmp,,,,,0,162,162,162,,,,,,,,,,,,,,,,,,,,,,,,,,,,,,,,,,,,None,,214.59428639002144,None,214.59428639002144,None,2021-09-07-10:09:48.287368,214.60921050002798,214.91095280001173,214.60921050002798,None,None,214.60921050002798,None,215.41093559000873,None,,,,21001,0002,2021_Sep_07_1006,localizer,2021.1.3,59.90502656601558,
block,scenes,scenes032.bmp,,,,,0,163,163,163,,,,,,,,,,,,,,,,,,,,,,,,,,,,,,,,,,,,None,,215.41093559000873,None,215.41093559000873,None,2021-09-07-10:09:49.104194,215.4219309000182,215.72758539998904,215.4219309000182,None,None,215.4219309000182,None,216.22762069003656,None,,,,21001,0002,2021_Sep_07_1006,localizer,2021.1.3,59.90502656601558,
block,scenes,scenes077.bmp,,,,,0,164,164,164,,,,,,,,,,,,,,,,,,,,,,,,,,,,,,,,,,,,None,,216.22762069003656,None,216.22762069003656,None,2021-09-07-10:09:49.919914,216.2417024000315,216.54430020001018,216.2417024000315,None,None,216.2417024000315,None,217.04428279000567,None,,,,21001,0002,2021_Sep_07_1006,localizer,2021.1.3,59.90502656601558,
block,scenes,scenes012.bmp,,,,,0,165,165,165,,,,,,,,,,,,,,,,,,,,,,,,,,,,,,,,,,,,None,,217.04428279000567,None,217.04428279000567,None,2021-09-07-10:09:50.736212,217.05695070000365,217.36094360001152,217.05695070000365,None,None,217.05695070000365,None,217.86096928998595,None,,,,21001,0002,2021_Sep_07_1006,localizer,2021.1.3,59.90502656601558,
block_end,scenes,scenes029.bmp,,,,,0,166,166,166,,,,,,,,,,,,,,,,,,,,,,,,,,,,,,,,,,,,None,,217.86096928998595,None,217.86096928998595,None,2021-09-07-10:09:51.553278,217.8936052999925,218.19421099999454,217.8936052999925,None,None,217.8936052999925,None,218.67735358999343,None,,,,21001,0002,2021_Sep_07_1006,localizer,2021.1.3,59.90502656601558,
null_block,null_block,null_block.bmp,,,,,0,167,167,167,,,,,,,,,,,,,,,,,,,,,,,,,,,,,,,,,,,,t,3.7307923000189476,218.67733460001182,None,218.67733460001182,None,2021-09-07-10:09:56.117785,222.4441953800153,None,222.4441953800153,None,None,222.4441953800153,None,222.43986779998522,None,,,,21001,0002,2021_Sep_07_1006,localizer,2021.1.3,59.90502656601558,
block_start,faces,faces036.bmp,,,,,0,168,168,168,,,,,,,,,,,,,,,,,,,,,,,,,,,,,,,,,,,,t,3.0271810999838635,234.44440969999414,None,234.44440969999414,None,2021-09-07-10:10:11.186378,237.50265510001918,237.81103520002216,237.50265510001918,None,None,237.50265510001918,None,238.31105208998778,None,,,,21001,0002,2021_Sep_07_1006,localizer,2021.1.3,59.90502656601558,
block,faces,faces007.bmp,,,,,0,169,169,169,,,,,,,,,,,,,,,,,,,,,,,,,,,,,,,,,,,,None,,238.31105208998778,None,238.31105208998778,None,2021-09-07-10:10:12.004638,238.3363900000113,238.64444310002727,238.3363900000113,None,None,238.3363900000113,None,239.12778889000182,None,,,,21001,0002,2021_Sep_07_1006,localizer,2021.1.3,59.90502656601558,
block,faces,faces076.bmp,,,,,0,170,170,170,,,,,,,,,,,,,,,,,,,,,,,,,,,,,,,,,,,,None,,239.12778889000182,None,239.12778889000182,None,2021-09-07-10:10:12.820205,239.1406198000186,239.4441955999937,239.1406198000186,None,None,239.1406198000186,None,239.9444815900293,None,,,,21001,0002,2021_Sep_07_1006,localizer,2021.1.3,59.90502656601558,
block,faces,faces044.bmp,,,,,0,171,171,171,,,,,,,,,,,,,,,,,,,,,,,,,,,,,,,,,,,,None,,239.9444815900293,None,239.9444815900293,None,2021-09-07-10:10:13.637699,239.95514400000684,240.26110830000835,239.95514400000684,None,None,239.95514400000684,None,240.76113478998886,None,,,,21001,0002,2021_Sep_07_1006,localizer,2021.1.3,59.90502656601558,
block,faces,faces058.bmp,,,,,0,172,172,172,,,,,,,,,,,,,,,,,,,,,,,,,,,,,,,,,,,,None,,240.76113478998886,None,240.76113478998886,None,2021-09-07-10:10:14.453758,240.77416030003224,241.07777350000106,240.77416030003224,None,None,240.77416030003224,None,241.5776420900016,None,,,,21001,0002,2021_Sep_07_1006,localizer,2021.1.3,59.90502656601558,
block,faces,faces070.bmp,,,,,0,173,173,173,,,,,,,,,,,,,,,,,,,,,,,,,,,,,,,,,,,,None,,241.5776420900016,None,241.5776420900016,None,2021-09-07-10:10:15.270095,241.6026232999866,241.911142500001,241.6026232999866,None,None,241.6026232999866,None,242.39449289001058,None,,,,21001,0002,2021_Sep_07_1006,localizer,2021.1.3,59.90502656601558,
block,faces,faces012.bmp,,,,,0,174,174,174,,,,,,,,,,,,,,,,,,,,,,,,,,,,,,,,,,,,None,,242.39449289001058,None,242.39449289001058,None,2021-09-07-10:10:16.086954,242.40830900002038,242.71107550000306,242.40830900002038,None,None,242.40830900002038,None,243.211157790001,None,,,,21001,0002,2021_Sep_07_1006,localizer,2021.1.3,59.90502656601558,
block,faces,faces066.bmp,,,,,0,175,175,175,,,,,,,,,,,,,,,,,,,,,,,,,,,,,,,,,,,,None,,243.211157790001,None,243.211157790001,None,2021-09-07-10:10:16.903660,243.2391534000053,243.54443140001968,243.2391534000053,None,None,243.2391534000053,None,244.02777979001402,None,,,,21001,0002,2021_Sep_07_1006,localizer,2021.1.3,59.90502656601558,
block,faces,faces025.bmp,,,,,0,176,176,176,,,,,,,,,,,,,,,,,,,,,,,,,,,,,,,,,,,,None,,244.02777979001402,None,244.02777979001402,None,2021-09-07-10:10:17.720264,244.05259109998588,244.36116369999945,244.05259109998588,None,None,244.05259109998588,None,244.84450268998043,None,,,,21001,0002,2021_Sep_07_1006,localizer,2021.1.3,59.90502656601558,
block,faces,faces018.bmp,,,,,0,177,177,177,,,,,,,,,,,,,,,,,,,,,,,,,,,,,,,,,,,,None,,244.84450268998043,None,244.84450268998043,None,2021-09-07-10:10:18.537171,244.85850339999888,245.16112170001725,244.85850339999888,None,None,244.85850339999888,None,245.6611643900047,None,,,,21001,0002,2021_Sep_07_1006,localizer,2021.1.3,59.90502656601558,
block,faces,faces018.bmp,,,,,0,178,178,178,,,,,,,,,,,,,,,,,,,,,,,,,,,,,,,,,,,,None,,245.6611643900047,None,245.6611643900047,None,2021-09-07-10:10:19.354856,245.67522070003906,245.97783410002012,245.67522070003906,None,y,245.67522070003906,None,246.47784348998684,None,0.7680662000202574,,,21001,0002,2021_Sep_07_1006,localizer,2021.1.3,59.90502656601558,
block,faces,faces011.bmp,,,,,0,179,179,179,,,,,,,,,,,,,,,,,,,,,,,,,,,,,,,,,,,,None,,246.47784348998684,None,246.47784348998684,None,2021-09-07-10:10:20.171354,246.5111563000246,246.81117450003512,246.5111563000246,None,None,246.5111563000246,None,247.29451199000468,None,,,,21001,0002,2021_Sep_07_1006,localizer,2021.1.3,59.90502656601558,
block,faces,faces021.bmp,,,,,0,180,180,180,,,,,,,,,,,,,,,,,,,,,,,,,,,,,,,,,,,,None,,247.29451199000468,None,247.29451199000468,None,2021-09-07-10:10:20.988226,247.3399203000008,247.64451840001857,247.3399203000008,None,None,247.3399203000008,None,248.11118649001,None,,,,21001,0002,2021_Sep_07_1006,localizer,2021.1.3,59.90502656601558,
block,faces,faces005.bmp,,,,,0,181,181,181,,,,,,,,,,,,,,,,,,,,,,,,,,,,,,,,,,,,None,,248.11118649001,None,248.11118649001,None,2021-09-07-10:10:21.804914,248.13925960002234,248.44448519998696,248.13925960002234,None,None,248.13925960002234,None,248.92777759002055,None,,,,21001,0002,2021_Sep_07_1006,localizer,2021.1.3,59.90502656601558,
block_end,faces,faces006.bmp,,,,,0,182,182,182,,,,,,,,,,,,,,,,,,,,,,,,,,,,,,,,,,,,None,,248.92777759002055,None,248.92777759002055,None,2021-09-07-10:10:22.620522,248.94183040002827,249.24451089999638,248.94183040002827,None,None,248.94183040002827,None,249.74446769002824,None,,,,21001,0002,2021_Sep_07_1006,localizer,2021.1.3,59.90502656601558,
block_start,objects,objects018.bmp,,,,,0,183,183,183,,,,,,,,,,,,,,,,,,,,,,,,,,,,,,,,,,,,t,2.22375489998376,249.74431350000668,None,249.74431350000668,None,2021-09-07-10:10:25.684346,252.00618259998737,252.3109955000109,252.00618259998737,None,None,252.00618259998737,None,252.8112230900093,None,,,,21001,0002,2021_Sep_07_1006,localizer,2021.1.3,59.90502656601558,
block,objects,objects074.bmp,,,,,0,184,184,184,,,,,,,,,,,,,,,,,,,,,,,,,,,,,,,,,,,,None,,252.8112230900093,None,252.8112230900093,None,2021-09-07-10:10:26.504007,252.82987560000038,253.12789970001904,252.82987560000038,None,None,252.82987560000038,None,253.62785099000902,None,,,,21001,0002,2021_Sep_07_1006,localizer,2021.1.3,59.90502656601558,
block,objects,objects013.bmp,,,,,0,185,185,185,,,,,,,,,,,,,,,,,,,,,,,,,,,,,,,,,,,,None,,253.62785099000902,None,253.62785099000902,None,2021-09-07-10:10:27.320642,253.64085349999368,253.94455930002732,253.64085349999368,None,None,253.64085349999368,None,254.44456579003017,None,,,,21001,0002,2021_Sep_07_1006,localizer,2021.1.3,59.90502656601558,
block,objects,objects059.bmp,,,,,0,186,186,186,,,,,,,,,,,,,,,,,,,,,,,,,,,,,,,,,,,,None,,254.44456579003017,None,254.44456579003017,None,2021-09-07-10:10:28.137376,254.47669670003233,254.7778594000265,254.47669670003233,None,None,254.47669670003233,None,255.26107919003115,None,,,,21001,0002,2021_Sep_07_1006,localizer,2021.1.3,59.90502656601558,
block,objects,objects004.bmp,,,,,0,187,187,187,,,,,,,,,,,,,,,,,,,,,,,,,,,,,,,,,,,,None,,255.26107919003115,None,255.26107919003115,None,2021-09-07-10:10:28.954722,255.27487090002978,255.57790840003872,255.27487090002978,None,None,255.27487090002978,None,256.07789899003694,None,,,,21001,0002,2021_Sep_07_1006,localizer,2021.1.3,59.90502656601558,
block,objects,objects057.bmp,,,,,0,188,188,188,,,,,,,,,,,,,,,,,,,,,,,,,,,,,,,,,,,,None,,256.07789899003694,None,256.07789899003694,None,2021-09-07-10:10:29.770744,256.0908732000389,256.39452650002204,256.0908732000389,None,None,256.0908732000389,None,256.8943469900056,None,,,,21001,0002,2021_Sep_07_1006,localizer,2021.1.3,59.90502656601558,
block,objects,objects027.bmp,,,,,0,189,189,189,,,,,,,,,,,,,,,,,,,,,,,,,,,,,,,,,,,,None,,256.8943469900056,None,256.8943469900056,None,2021-09-07-10:10:30.585290,256.90528950002044,257.2112591000041,256.90528950002044,None,None,256.90528950002044,None,257.7112541900366,None,,,,21001,0002,2021_Sep_07_1006,localizer,2021.1.3,59.90502656601558,
block,objects,objects043.bmp,,,,,0,190,190,190,,,,,,,,,,,,,,,,,,,,,,,,,,,,,,,,,,,,None,,257.7112541900366,None,257.7112541900366,None,2021-09-07-10:10:31.403570,257.7246831000084,258.02787140000146,257.7246831000084,None,None,257.7246831000084,None,258.5279526899918,None,,,,21001,0002,2021_Sep_07_1006,localizer,2021.1.3,59.90502656601558,
block,objects,objects084.bmp,,,,,0,191,191,191,,,,,,,,,,,,,,,,,,,,,,,,,,,,,,,,,,,,None,,258.5279526899918,None,258.5279526899918,None,2021-09-07-10:10:32.220815,258.5419122999883,258.8445812999853,258.5419122999883,None,None,258.5419122999883,None,259.34441938998646,None,,,,21001,0002,2021_Sep_07_1006,localizer,2021.1.3,59.90502656601558,
block,objects,objects085.bmp,,,,,0,192,192,192,,,,,,,,,,,,,,,,,,,,,,,,,,,,,,,,,,,,None,,259.34441938998646,None,259.34441938998646,None,2021-09-07-10:10:33.037296,259.35738840000704,259.66126399999484,259.35738840000704,None,None,259.35738840000704,None,260.1612984900363,None,,,,21001,0002,2021_Sep_07_1006,localizer,2021.1.3,59.90502656601558,
block,objects,objects085.bmp,,,,,0,193,193,193,,,,,,,,,,,,,,,,,,,,,,,,,,,,,,,,,,,,None,,260.1612984900363,None,260.1612984900363,None,2021-09-07-10:10:33.854178,260.17432530003134,260.4778551000054,260.17432530003134,None,y,260.17432530003134,None,260.9779631900252,None,0.6644927999586798,,,21001,0002,2021_Sep_07_1006,localizer,2021.1.3,59.90502656601558,
block,objects,objects060.bmp,,,,,0,194,194,194,,,,,,,,,,,,,,,,,,,,,,,,,,,,,,,,,,,,None,,260.9779631900252,None,260.9779631900252,None,2021-09-07-10:10:34.670865,260.9919636999839,261.2945915000164,260.9919636999839,None,None,260.9919636999839,None,261.79461618998323,None,,,,21001,0002,2021_Sep_07_1006,localizer,2021.1.3,59.90502656601558,
block,objects,objects038.bmp,,,,,0,195,195,195,,,,,,,,,,,,,,,,,,,,,,,,,,,,,,,,,,,,None,,261.79461618998323,None,261.79461618998323,None,2021-09-07-10:10:35.487346,261.80837939999765,262.11113730003126,261.80837939999765,None,None,261.80837939999765,None,262.6112979899859,None,,,,21001,0002,2021_Sep_07_1006,localizer,2021.1.3,59.90502656601558,
block,objects,objects003.bmp,,,,,0,196,196,196,,,,,,,,,,,,,,,,,,,,,,,,,,,,,,,,,,,,None,,262.6112979899859,None,262.6112979899859,None,2021-09-07-10:10:36.305211,262.64682239998365,262.96125380002195,262.64682239998365,None,None,262.64682239998365,None,263.42783979002854,None,,,,21001,0002,2021_Sep_07_1006,localizer,2021.1.3,59.90502656601558,
block_end,objects,objects019.bmp,,,,,0,197,197,197,,,,,,,,,,,,,,,,,,,,,,,,,,,,,,,,,,,,None,,263.42783979002854,None,263.42783979002854,None,2021-09-07-10:10:37.120775,263.4408170999959,263.7446297000279,263.4408170999959,None,None,263.4408170999959,None,264.2446543899947,None,,,,21001,0002,2021_Sep_07_1006,localizer,2021.1.3,59.90502656601558,
block_start,scenes,scenes006.bmp,,,,,0,198,198,198,,,,,,,,,,,,,,,,,,,,,,,,,,,,,,,,,,,,t,2.451748799998313,264.2446364000207,None,264.2446364000207,None,2021-09-07-10:10:40.401227,266.72294820001116,267.0279930999968,266.72294820001116,None,None,266.72294820001116,None,267.5280051899841,None,,,,21001,0002,2021_Sep_07_1006,localizer,2021.1.3,59.90502656601558,
block,scenes,scenes046.bmp,,,,,0,199,199,199,,,,,,,,,,,,,,,,,,,,,,,,,,,,,,,,,,,,None,,267.5280051899841,None,267.5280051899841,None,2021-09-07-10:10:41.220987,267.54098140000133,267.8445056999917,267.54098140000133,None,None,267.54098140000133,None,268.3445129900007,None,,,,21001,0002,2021_Sep_07_1006,localizer,2021.1.3,59.90502656601558,
block,scenes,scenes061.bmp,,,,,0,200,200,200,,,,,,,,,,,,,,,,,,,,,,,,,,,,,,,,,,,,None,,268.3445129900007,None,268.3445129900007,None,2021-09-07-10:10:42.037520,268.3585238000378,268.66132190002827,268.3585238000378,None,None,268.3585238000378,None,269.16134909001414,None,,,,21001,0002,2021_Sep_07_1006,localizer,2021.1.3,59.90502656601558,
block,scenes,scenes024.bmp,,,,,0,201,201,201,,,,,,,,,,,,,,,,,,,,,,,,,,,,,,,,,,,,None,,269.16134909001414,None,269.16134909001414,None,2021-09-07-10:10:42.855353,269.1755334000336,269.4780104000238,269.1755334000336,None,None,269.1755334000336,None,269.97803139002065,None,,,,21001,0002,2021_Sep_07_1006,localizer,2021.1.3,59.90502656601558,
block,scenes,scenes012.bmp,,,,,0,202,202,202,,,,,,,,,,,,,,,,,,,,,,,,,,,,,,,,,,,,None,,269.97803139002065,None,269.97803139002065,None,2021-09-07-10:10:43.670863,269.9908860999858,270.29468300001463,269.9908860999858,None,None,269.9908860999858,None,270.7946980900248,None,,,,21001,0002,2021_Sep_07_1006,localizer,2021.1.3,59.90502656601558,
block,scenes,scenes041.bmp,,,,,0,203,203,203,,,,,,,,,,,,,,,,,,,,,,,,,,,,,,,,,,,,None,,270.7946980900248,None,270.7946980900248,None,2021-09-07-10:10:44.487547,270.8085468999925,271.1112102000043,270.8085468999925,None,None,270.8085468999925,None,271.6113608899992,None,,,,21001,0002,2021_Sep_07_1006,localizer,2021.1.3,59.90502656601558,
block,scenes,scenes008.bmp,,,,,0,204,204,204,,,,,,,,,,,,,,,,,,,,,,,,,,,,,,,,,,,,None,,271.6113608899992,None,271.6113608899992,None,2021-09-07-10:10:45.305405,271.62538690003566,271.9280114999856,271.62538690003566,None,None,271.62538690003566,None,272.42803478999997,None,,,,21001,0002,2021_Sep_07_1006,localizer,2021.1.3,59.90502656601558,
block,scenes,scenes092.bmp,,,,,0,205,205,205,,,,,,,,,,,,,,,,,,,,,,,,,,,,,,,,,,,,None,,272.42803478999997,None,272.42803478999997,None,2021-09-07-10:10:46.121088,272.4410085999989,272.7447184000048,272.4410085999989,None,None,272.4410085999989,None,273.24460999000587,None,,,,21001,0002,2021_Sep_07_1006,localizer,2021.1.3,59.90502656601558,
block,scenes,scenes003.bmp,,,,,0,206,206,206,,,,,,,,,,,,,,,,,,,,,,,,,,,,,,,,,,,,None,,273.24460999000587,None,273.24460999000587,None,2021-09-07-10:10:46.939521,273.2722294999985,273.5780168999918,273.2722294999985,None,None,273.2722294999985,None,274.0613840900129,None,,,,21001,0002,2021_Sep_07_1006,localizer,2021.1.3,59.90502656601558,
block,scenes,scenes070.bmp,,,,,0,207,207,207,,,,,,,,,,,,,,,,,,,,,,,,,,,,,,,,,,,,None,,274.0613840900129,None,274.0613840900129,None,2021-09-07-10:10:47.754463,274.0744066000334,274.37803530000383,274.0744066000334,None,None,274.0744066000334,None,274.87805538999385,None,,,,21001,0002,2021_Sep_07_1006,localizer,2021.1.3,59.90502656601558,
block,scenes,scenes043.bmp,,,,,0,208,208,208,,,,,,,,,,,,,,,,,,,,,,,,,,,,,,,,,,,,None,,274.87805538999385,None,274.87805538999385,None,2021-09-07-10:10:48.569151,274.88313110003946,275.19468519999646,274.88313110003946,None,None,274.88313110003946,None,275.6945866900147,None,,,,21001,0002,2021_Sep_07_1006,localizer,2021.1.3,59.90502656601558,
block,scenes,scenes078.bmp,,,,,0,209,209,209,,,,,,,,,,,,,,,,,,,,,,,,,,,,,,,,,,,,None,,275.6945866900147,None,275.6945866900147,None,2021-09-07-10:10:49.387675,275.70760140003404,276.011374099995,275.70760140003404,None,None,275.70760140003404,None,276.5114131900133,None,,,,21001,0002,2021_Sep_07_1006,localizer,2021.1.3,59.90502656601558,
block,scenes,scenes074.bmp,,,,,0,210,210,210,,,,,,,,,,,,,,,,,,,,,,,,,,,,,,,,,,,,None,,276.5114131900133,None,276.5114131900133,None,2021-09-07-10:10:50.204511,276.5244962000288,276.8279741000151,276.5244962000288,None,None,276.5244962000288,None,277.3279944900074,None,,,,21001,0002,2021_Sep_07_1006,localizer,2021.1.3,59.90502656601558,
block,scenes,scenes028.bmp,,,,,0,211,211,211,,,,,,,,,,,,,,,,,,,,,,,,,,,,,,,,,,,,None,,277.3279944900074,None,277.3279944900074,None,2021-09-07-10:10:51.021113,277.3421094000223,277.64472390001174,277.3421094000223,None,None,277.3421094000223,None,278.1447445900063,None,,,,21001,0002,2021_Sep_07_1006,localizer,2021.1.3,59.90502656601558,
block_end,scenes,scenes002.bmp,,,,,0,212,212,212,,,,,,,,,,,,,,,,,,,,,,,,,,,,,,,,,,,,None,,278.1447445900063,None,278.1447445900063,None,2021-09-07-10:10:51.837877,278.15635599999223,278.4612469000276,278.15635599999223,None,None,278.15635599999223,None,278.9614199900185,None,,,,21001,0002,2021_Sep_07_1006,localizer,2021.1.3,59.90502656601558,
null_block,null_block,null_block.bmp,,,,,0,213,213,213,,,,,,,,,,,,,,,,,,,,,,,,,,,,,,,,,,,,t,1.9592390999896452,278.96141679998254,None,278.96141679998254,None,2021-09-07-10:10:54.634937,280.9614379799925,None,280.9614379799925,None,None,280.9614379799925,None,280.95948640001006,None,,,,21001,0002,2021_Sep_07_1006,localizer,2021.1.3,59.90502656601558,
block_start,scrambled,scrambled013.bmp,,,,,0,214,214,214,,,,,,,,,,,,,,,,,,,,,,,,,,,,,,,,,,,,t,3.671217600000091,292.9615264000022,None,292.9615264000022,None,2021-09-07-10:11:10.354925,296.6801373999915,296.9781782000209,296.6801373999915,None,None,296.6801373999915,None,297.47818868999605,None,,,,21001,0002,2021_Sep_07_1006,localizer,2021.1.3,59.90502656601558,
block,scrambled,scrambled041.bmp,,,,,0,215,215,215,,,,,,,,,,,,,,,,,,,,,,,,,,,,,,,,,,,,None,,297.47818868999605,None,297.47818868999605,None,2021-09-07-10:11:11.171594,297.491204800026,297.79485350003233,297.491204800026,None,None,297.491204800026,None,298.2948969900259,None,,,,21001,0002,2021_Sep_07_1006,localizer,2021.1.3,59.90502656601558,
block,scrambled,scrambled062.bmp,,,,,0,216,216,216,,,,,,,,,,,,,,,,,,,,,,,,,,,,,,,,,,,,None,,298.2948969900259,None,298.2948969900259,None,2021-09-07-10:11:11.989131,298.30870120000327,298.61150290002115,298.30870120000327,None,None,298.30870120000327,None,299.1115055899951,None,,,,21001,0002,2021_Sep_07_1006,localizer,2021.1.3,59.90502656601558,
block,scrambled,scrambled023.bmp,,,,,0,217,217,217,,,,,,,,,,,,,,,,,,,,,,,,,,,,,,,,,,,,None,,299.1115055899951,None,299.1115055899951,None,2021-09-07-10:11:12.804930,299.1305403999868,299.44488989998354,299.1305403999868,None,None,299.1305403999868,None,299.9282233899809,None,,,,21001,0002,2021_Sep_07_1006,localizer,2021.1.3,59.90502656601558,
block,scrambled,scrambled045.bmp,,,,,0,218,218,218,,,,,,,,,,,,,,,,,,,,,,,,,,,,,,,,,,,,None,,299.9282233899809,None,299.9282233899809,None,2021-09-07-10:11:13.621660,299.95272440003464,300.2614924000227,299.95272440003464,None,None,299.95272440003464,None,300.74486018999016,None,,,,21001,0002,2021_Sep_07_1006,localizer,2021.1.3,59.90502656601558,
block,scrambled,scrambled036.bmp,,,,,0,219,219,219,,,,,,,,,,,,,,,,,,,,,,,,,,,,,,,,,,,,None,,300.74486018999016,None,300.74486018999016,None,2021-09-07-10:11:14.438316,300.75780900003156,301.0615364999976,300.75780900003156,None,None,300.75780900003156,None,301.56157359000065,None,,,,21001,0002,2021_Sep_07_1006,localizer,2021.1.3,59.90502656601558,
block,scrambled,scrambled087.bmp,,,,,0,220,220,220,,,,,,,,,,,,,,,,,,,,,,,,,,,,,,,,,,,,None,,301.56157359000065,None,301.56157359000065,None,2021-09-07-10:11:15.253040,301.56655829999363,301.87824950000504,301.56655829999363,None,None,301.56655829999363,None,302.37770398999567,None,,,,21001,0002,2021_Sep_07_1006,localizer,2021.1.3,59.90502656601558,
block,scrambled,scrambled038.bmp,,,,,0,221,221,221,,,,,,,,,,,,,,,,,,,,,,,,,,,,,,,,,,,,None,,302.37770398999567,None,302.37770398999567,None,2021-09-07-10:11:16.062300,302.37917800003197,302.67819810000947,302.37917800003197,None,None,302.37917800003197,None,303.17825548999247,None,,,,21001,0002,2021_Sep_07_1006,localizer,2021.1.3,59.90502656601558,
block,scrambled,scrambled032.bmp,,,,,0,222,222,222,,,,,,,,,,,,,,,,,,,,,,,,,,,,,,,,,,,,None,,303.17825548999247,None,303.17825548999247,None,2021-09-07-10:11:16.874744,303.19441789999837,303.4948943000054,303.19441789999837,303.19441789999837,None,303.19441789999837,303.19441789999837,303.9949060899904,None,,,,21001,0002,2021_Sep_07_1006,localizer,2021.1.3,59.90502656601558,
block,scrambled,scrambled049.bmp,,,,,0,223,223,223,,,,,,,,,,,,,,,,,,,,,,,,,,,,,,,,,,,,None,,303.9949060899904,None,303.9949060899904,None,2021-09-07-10:11:17.688211,304.0178123000078,304.32826020003995,304.0178123000078,None,None,304.0178123000078,None,304.81158628998094,None,,,,21001,0002,2021_Sep_07_1006,localizer,2021.1.3,59.90502656601558,
block,scrambled,scrambled004.bmp,,,,,0,224,224,224,,,,,,,,,,,,,,,,,,,,,,,,,,,,,,,,,,,,None,,304.81158628998094,None,304.81158628998094,None,2021-09-07-10:11:18.505905,304.82650289998855,305.12823959998786,304.82650289998855,None,None,304.82650289998855,None,305.62827479003465,None,,,,21001,0002,2021_Sep_07_1006,localizer,2021.1.3,59.90502656601558,
block,scrambled,scrambled069.bmp,,,,,0,225,225,225,,,,,,,,,,,,,,,,,,,,,,,,,,,,,,,,,,,,None,,305.62827479003465,None,305.62827479003465,None,2021-09-07-10:11:19.321602,305.6466542999842,305.9448466000031,305.6466542999842,None,None,305.6466542999842,None,306.4449517900008,None,,,,21001,0002,2021_Sep_07_1006,localizer,2021.1.3,59.90502656601558,
block,scrambled,scrambled082.bmp,,,,,0,226,226,226,,,,,,,,,,,,,,,,,,,,,,,,,,,,,,,,,,,,None,,306.4449517900008,None,306.4449517900008,None,2021-09-07-10:11:20.138286,306.45778970001265,306.7616544000339,306.45778970001265,None,None,306.45778970001265,None,307.26151269001423,None,,,,21001,0002,2021_Sep_07_1006,localizer,2021.1.3,59.90502656601558,
block,scrambled,scrambled066.bmp,,,,,0,227,227,227,,,,,,,,,,,,,,,,,,,,,,,,,,,,,,,,,,,,None,,307.26151269001423,None,307.26151269001423,None,2021-09-07-10:11:20.953935,307.28337090002606,307.5949220000184,307.28337090002606,None,None,307.28337090002606,None,308.078295190027,None,,,,21001,0002,2021_Sep_07_1006,localizer,2021.1.3,59.90502656601558,
block_end,scrambled,scrambled088.bmp,,,,,0,228,228,228,,,,,,,,,,,,,,,,,,,,,,,,,,,,,,,,,,,,None,,308.078295190027,None,308.078295190027,None,2021-09-07-10:11:21.771846,308.091283900023,308.3949336000369,308.091283900023,None,None,308.091283900023,None,308.89492329002826,None,,,,21001,0002,2021_Sep_07_1006,localizer,2021.1.3,59.90502656601558,
block_start,faces,faces086.bmp,,,,,0,229,229,229,,,,,,,,,,,,,,,,,,,,,,,,,,,,,,,,,,,,t,2.535081400012132,308.8949328000308,None,308.8949328000308,None,2021-09-07-10:11:25.135530,311.4656138999853,311.77832470001886,311.4656138999853,None,None,311.4656138999853,None,312.2616267900099,None,,,,21001,0002,2021_Sep_07_1006,localizer,2021.1.3,59.90502656601558,
block,faces,faces085.bmp,,,,,0,230,230,230,,,,,,,,,,,,,,,,,,,,,,,,,,,,,,,,,,,,None,,312.2616267900099,None,312.2616267900099,None,2021-09-07-10:11:25.955532,312.2749426999944,312.57830910000484,312.2749426999944,None,None,312.2749426999944,None,313.0783331900253,None,,,,21001,0002,2021_Sep_07_1006,localizer,2021.1.3,59.90502656601558,
block,faces,faces069.bmp,,,,,0,231,231,231,,,,,,,,,,,,,,,,,,,,,,,,,,,,,,,,,,,,None,,313.0783331900253,None,313.0783331900253,None,2021-09-07-10:11:26.771951,313.0913620000356,313.39491919998545,313.0913620000356,None,None,313.0913620000356,None,313.8948985900148,None,,,,21001,0002,2021_Sep_07_1006,localizer,2021.1.3,59.90502656601558,
block,faces,faces001.bmp,,,,,0,232,232,232,,,,,,,,,,,,,,,,,,,,,,,,,,,,,,,,,,,,None,,313.8948985900148,None,313.8948985900148,None,2021-09-07-10:11:27.588521,313.9079293999821,314.2116602000315,313.9079293999821,None,None,313.9079293999821,None,314.71166068998866,None,,,,21001,0002,2021_Sep_07_1006,localizer,2021.1.3,59.90502656601558,
block,faces,faces059.bmp,,,,,0,233,233,233,,,,,,,,,,,,,,,,,,,,,,,,,,,,,,,,,,,,None,,314.71166068998866,None,314.71166068998866,None,2021-09-07-10:11:28.406113,314.7255022000172,315.02818600001046,314.7255022000172,None,None,314.7255022000172,None,315.52830478999533,None,,,,21001,0002,2021_Sep_07_1006,localizer,2021.1.3,59.90502656601558,
block,faces,faces042.bmp,,,,,0,234,234,234,,,,,,,,,,,,,,,,,,,,,,,,,,,,,,,,,,,,None,,315.52830478999533,None,315.52830478999533,None,2021-09-07-10:11:29.221955,315.54131850000704,315.84500010003103,315.54131850000704,None,None,315.54131850000704,None,316.34503048998306,None,,,,21001,0002,2021_Sep_07_1006,localizer,2021.1.3,59.90502656601558,
block,faces,faces030.bmp,,,,,0,235,235,235,,,,,,,,,,,,,,,,,,,,,,,,,,,,,,,,,,,,None,,316.34503048998306,None,316.34503048998306,None,2021-09-07-10:11:30.039497,316.35997869999846,316.661617500009,316.35997869999846,None,None,316.35997869999846,None,317.16163059000394,None,,,,21001,0002,2021_Sep_07_1006,localizer,2021.1.3,59.90502656601558,
block,faces,faces054.bmp,,,,,0,236,236,236,,,,,,,,,,,,,,,,,,,,,,,,,,,,,,,,,,,,None,,317.16163059000394,None,317.16163059000394,None,2021-09-07-10:11:30.855313,317.1747424000059,317.4782133999979,317.1747424000059,None,None,317.1747424000059,None,317.9783576900023,None,,,,21001,0002,2021_Sep_07_1006,localizer,2021.1.3,59.90502656601558,
block,faces,faces011.bmp,,,,,0,237,237,237,,,,,,,,,,,,,,,,,,,,,,,,,,,,,,,,,,,,None,,317.9783576900023,None,317.9783576900023,None,2021-09-07-10:11:31.668881,317.9822725999984,318.2950232999865,317.9822725999984,None,None,317.9822725999984,None,318.794955790008,None,,,,21001,0002,2021_Sep_07_1006,localizer,2021.1.3,59.90502656601558,
block,faces,faces051.bmp,,,,,0,238,238,238,,,,,,,,,,,,,,,,,,,,,,,,,,,,,,,,,,,,None,,318.794955790008,None,318.794955790008,None,2021-09-07-10:11:32.488459,318.8097479999997,319.1117242000182,318.8097479999997,None,None,318.8097479999997,None,319.6117463900242,None,,,,21001,0002,2021_Sep_07_1006,localizer,2021.1.3,59.90502656601558,
block,faces,faces075.bmp,,,,,0,239,239,239,,,,,,,,,,,,,,,,,,,,,,,,,,,,,,,,,,,,None,,319.6117463900242,None,319.6117463900242,None,2021-09-07-10:11:33.306285,319.6266773000243,319.9283554999856,319.6266773000243,None,None,319.6266773000243,None,320.4283586900216,None,,,,21001,0002,2021_Sep_07_1006,localizer,2021.1.3,59.90502656601558,
block,faces,faces074.bmp,,,,,0,240,240,240,,,,,,,,,,,,,,,,,,,,,,,,,,,,,,,,,,,,None,,320.4283586900216,None,320.4283586900216,None,2021-09-07-10:11:34.121875,320.4411822000402,320.7450306999963,320.4411822000402,None,None,320.4411822000402,None,321.2450975899934,None,,,,21001,0002,2021_Sep_07_1006,localizer,2021.1.3,59.90502656601558,
block,faces,faces089.bmp,,,,,0,241,241,241,,,,,,,,,,,,,,,,,,,,,,,,,,,,,,,,,,,,None,,321.2450975899934,None,321.2450975899934,None,2021-09-07-10:11:34.939619,321.2599780000164,321.5616746000014,321.2599780000164,None,None,321.2599780000164,None,322.06170839003755,None,,,,21001,0002,2021_Sep_07_1006,localizer,2021.1.3,59.90502656601558,
block,faces,faces036.bmp,,,,,0,242,242,242,,,,,,,,,,,,,,,,,,,,,,,,,,,,,,,,,,,,None,,322.06170839003755,None,322.06170839003755,None,2021-09-07-10:11:35.755447,322.0747479000129,322.3784061000333,322.0747479000129,None,None,322.0747479000129,None,322.87838358999,None,,,,21001,0002,2021_Sep_07_1006,localizer,2021.1.3,59.90502656601558,
block_end,faces,faces044.bmp,,,,,0,243,243,243,,,,,,,,,,,,,,,,,,,,,,,,,,,,,,,,,,,,None,,322.87838358999,None,322.87838358999,None,2021-09-07-10:11:36.572944,322.89221010002075,323.1950414000312,322.89221010002075,None,None,322.89221010002075,None,323.69496199002026,None,,,,21001,0002,2021_Sep_07_1006,localizer,2021.1.3,59.90502656601558,
,,,,,,,,,,,,,,,,,,,,,,,,,,,,,,,,,,,,,,,,,,,,,,,,,,,,,,,,,,,,,,,323.6950494000339,None,,,,,,,
