block_type,condition,img_name,Button.thisRepN,Button.thisTrialN,Button.thisN,Button.thisIndex,trials.thisRepN,trials.thisTrialN,trials.thisN,trials.thisIndex,Ready_experimenter_text.started,Ready_experimenter_text.stopped,Ready_experimenter_resp.keys,Ready_experimenter_resp.rt,Ready_experimenter_resp.started,Ready_experimenter_resp.stopped,Alignment_background.started,Alignment_background.stopped,Alignment_image.started,Alignment_image.stopped,Alignment_resp.keys,Alignment_resp.rt,Alignment_resp.started,Alignment_resp.stopped,Button_text.started,Button_text.stopped,Index_text.started,Index_text.stopped,Index_resp.keys,Index_resp.rt,Index_resp.started,Index_resp.stopped,Middle_text.started,Middle_text.stopped,Middle_resp.keys,Middle_resp.rt,Middle_resp.started,Middle_resp.stopped,Repeat_text.started,Repeat_text.stopped,Repeat_resp.keys,Repeat_resp.corr,Repeat_resp.rt,Repeat_resp.started,Repeat_resp.stopped,instruction_text.started,instruction_text.stopped,key_resp.keys,key_resp.rt,key_resp.started,key_resp.stopped,scanner_t.keys,scanner_t.rt,scanner_t.started,scanner_t.stopped,fixation_wait_for_t.started,fixation_wait_for_t.stopped,real_timestamp_trial_start,image.started,image.stopped,fixation.started,fixation.stopped,repeat_response.keys,repeat_response.started,repeat_response.stopped,fixation_null.started,fixation_null.stopped,repeat_response.rt,end_text.started,end_text.stopped,participant,run,date,expName,psychopyVersion,frameRate,
,,,,,,,,,,,9.144592799944803,None,return,57.912030400009826,9.144592799944803,None,,,,,,,,,,,,,,,,,,,,,,,,,,,,,,,,,,,,,,,,,,,,,,,,,,,,,,,11008,0001,2022_Feb_18_1518,localizer,2021.1.3,59.2936934740512,
,,,,,,,,,,,,,,,,,67.10019499994814,None,67.10019499994814,None,return,7.56484379991889,67.10019499994814,None,,,,,,,,,,,,,,,,,,,,,,,,,,,,,,,,,,,,,,,,,,,,,,,11008,0001,2022_Feb_18_1518,localizer,2021.1.3,59.2936934740512,
,,,0,0,0,0,,,,,,,,,,,,,,,,,,,74.69983729999512,None,75.70674409996718,None,y,2.072165200021118,75.70674409996718,None,77.80569599987939,None,b,1.1135797000024468,77.80569599987939,None,78.93991849990562,None,n,0,2.8903952001128346,78.93991849990562,None,,,,,,,,,,,,,,,,,,,,,,,,,,11008,0001,2022_Feb_18_1518,localizer,2021.1.3,59.2936934740512,
,,,,,,,,,,,,,,,,,,,,,,,,,,,,,,,,,,,,,,,,,,,,,,81.86326909996569,None,y,27.268870000028983,81.86326909996569,None,,,,,,,,,,,,,,,,,,,,11008,0001,2022_Feb_18_1518,localizer,2021.1.3,59.2936934740512,
null_block,null_block,null_block.bmp,,,,,0,0,0,0,,,,,,,,,,,,,,,,,,,,,,,,,,,,,,,,,,,,,,,,,,t,15.621907900087535,109.22136750002392,None,109.22136750002392,None,2022-02-18-15:20:49.441096,124.89107955996877,None,124.89107955996877,None,None,124.89107955996877,None,124.89028769987635,None,,,,11008,0001,2022_Feb_18_1518,localizer,2021.1.3,59.2936934740512,
block_start,scenes,scenes006.bmp,,,,,0,1,1,1,,,,,,,,,,,,,,,,,,,,,,,,,,,,,,,,,,,,,,,,,,t,1.9530309000983834,136.8898946000263,None,136.8898946000263,None,2022-02-18-15:21:03.447931,138.8902294000145,139.19032779987901,138.8902294000145,None,None,138.8902294000145,None,139.69057507989928,None,,,,11008,0001,2022_Feb_18_1518,localizer,2021.1.3,59.2936934740512,
block,scenes,scenes060.bmp,,,,,0,2,2,2,,,,,,,,,,,,,,,,,,,,,,,,,,,,,,,,,,,,,,,,,,None,,139.69057507989928,None,139.69057507989928,None,2022-02-18-15:21:04.257367,139.70180059992708,140.00728280004114,139.70180059992708,None,None,139.70180059992708,None,140.50716307982802,None,,,,11008,0001,2022_Feb_18_1518,localizer,2021.1.3,59.2936934740512,
block,scenes,scenes035.bmp,,,,,0,3,3,3,,,,,,,,,,,,,,,,,,,,,,,,,,,,,,,,,,,,,,,,,,None,,140.50716307982802,None,140.50716307982802,None,2022-02-18-15:21:05.073938,140.5165448000189,140.8235966998618,140.5165448000189,None,None,140.5165448000189,None,141.32397627984173,None,,,,11008,0001,2022_Feb_18_1518,localizer,2021.1.3,59.2936934740512,
block,scenes,scenes001.bmp,,,,,0,4,4,4,,,,,,,,,,,,,,,,,,,,,,,,,,,,,,,,,,,,,,,,,,None,,141.32397627984173,None,141.32397627984173,None,2022-02-18-15:21:05.890790,141.33430429990403,141.64061699993908,141.33430429990403,None,None,141.33430429990403,None,142.14023657995276,None,,,,11008,0001,2022_Feb_18_1518,localizer,2021.1.3,59.2936934740512,
block,scenes,scenes012.bmp,,,,,0,5,5,5,,,,,,,,,,,,,,,,,,,,,,,,,,,,,,,,,,,,,,,,,,None,,142.14023657995276,None,142.14023657995276,None,2022-02-18-15:21:06.707031,142.14464289997704,142.4570569000207,142.14464289997704,None,None,142.14464289997704,None,142.95794547991827,None,,,,11008,0001,2022_Feb_18_1518,localizer,2021.1.3,59.2936934740512,
block,scenes,scenes031.bmp,,,,,0,6,6,6,,,,,,,,,,,,,,,,,,,,,,,,,,,,,,,,,,,,,,,,,,None,,142.95794547991827,None,142.95794547991827,None,2022-02-18-15:21:07.525725,142.97030449984595,143.2739877998829,142.97030449984595,None,None,142.97030449984595,None,143.7739881800022,None,,,,11008,0001,2022_Feb_18_1518,localizer,2021.1.3,59.2936934740512,
block,scenes,scenes066.bmp,,,,,0,7,7,7,,,,,,,,,,,,,,,,,,,,,,,,,,,,,,,,,,,,,,,,,,None,,143.7739881800022,None,143.7739881800022,None,2022-02-18-15:21:08.340802,143.78393359994516,144.0903590999078,143.78393359994516,None,None,143.78393359994516,None,144.59006067984737,None,,,,11008,0001,2022_Feb_18_1518,localizer,2021.1.3,59.2936934740512,
block,scenes,scenes085.bmp,,,,,0,8,8,8,,,,,,,,,,,,,,,,,,,,,,,,,,,,,,,,,,,,,,,,,,None,,144.59006067984737,None,144.59006067984737,None,2022-02-18-15:21:09.156531,144.59342479985207,144.90665280004032,144.59342479985207,None,None,144.59342479985207,None,145.40726957996375,None,,,,11008,0001,2022_Feb_18_1518,localizer,2021.1.3,59.2936934740512,
block,scenes,scenes024.bmp,,,,,0,9,9,9,,,,,,,,,,,,,,,,,,,,,,,,,,,,,,,,,,,,,,,,,,None,,145.40726957996375,None,145.40726957996375,None,2022-02-18-15:21:09.974075,145.41790939983912,145.72356029995717,145.41790939983912,None,None,145.41790939983912,None,146.22453228002414,None,,,,11008,0001,2022_Feb_18_1518,localizer,2021.1.3,59.2936934740512,
block,scenes,scenes083.bmp,,,,,0,10,10,10,,,,,,,,,,,,,,,,,,,,,,,,,,,,,,,,,,,,,,,,,,None,,146.22453228002414,None,146.22453228002414,None,2022-02-18-15:21:10.792315,146.23517739982344,146.54033209988847,146.23517739982344,None,None,146.23517739982344,None,147.04028658000752,None,,,,11008,0001,2022_Feb_18_1518,localizer,2021.1.3,59.2936934740512,
block,scenes,scenes050.bmp,,,,,0,11,11,11,,,,,,,,,,,,,,,,,,,,,,,,,,,,,,,,,,,,,,,,,,None,,147.04028658000752,None,147.04028658000752,None,2022-02-18-15:21:11.607086,147.04844869999215,147.357118899934,147.04844869999215,None,None,147.04844869999215,None,147.85712617998942,None,,,,11008,0001,2022_Feb_18_1518,localizer,2021.1.3,59.2936934740512,
block,scenes,scenes092.bmp,,,,,0,12,12,12,,,,,,,,,,,,,,,,,,,,,,,,,,,,,,,,,,,,,,,,,,None,,147.85712617998942,None,147.85712617998942,None,2022-02-18-15:21:12.424098,147.8671377999708,148.17369879991747,147.8671377999708,None,None,147.8671377999708,None,148.67413267996162,None,,,,11008,0001,2022_Feb_18_1518,localizer,2021.1.3,59.2936934740512,
block,scenes,scenes045.bmp,,,,,0,13,13,13,,,,,,,,,,,,,,,,,,,,,,,,,,,,,,,,,,,,,,,,,,None,,148.67413267996162,None,148.67413267996162,None,2022-02-18-15:21:13.240964,148.68420679983683,148.99092509993352,148.68420679983683,None,None,148.68420679983683,None,149.4901878800243,None,,,,11008,0001,2022_Feb_18_1518,localizer,2021.1.3,59.2936934740512,
block,scenes,scenes043.bmp,,,,,0,14,14,14,,,,,,,,,,,,,,,,,,,,,,,,,,,,,,,,,,,,,,,,,,None,,149.4901878800243,None,149.4901878800243,None,2022-02-18-15:21:14.055991,149.4977587000467,149.80680519994348,149.4977587000467,None,None,149.4977587000467,None,150.30837787981145,None,,,,11008,0001,2022_Feb_18_1518,localizer,2021.1.3,59.2936934740512,
block_end,scenes,scenes030.bmp,,,,,0,15,15,15,,,,,,,,,,,,,,,,,,,,,,,,,,,,,,,,,,,,,,,,,,None,,150.30837787981145,None,150.30837787981145,None,2022-02-18-15:21:14.876288,150.3156181999948,150.62376839993522,150.3156181999948,None,None,150.3156181999948,None,151.12392047992907,None,,,,11008,0001,2022_Feb_18_1518,localizer,2021.1.3,59.2936934740512,
block_start,objects,objects076.bmp,,,,,0,16,16,16,,,,,,,,,,,,,,,,,,,,,,,,,,,,,,,,,,,,,,,,,,t,1.7183575998060405,151.12378260004334,None,151.12378260004334,None,2022-02-18-15:21:17.439562,152.88144170003943,153.19059629994445,152.88144170003943,None,None,152.88144170003943,None,153.69102217992767,None,,,,11008,0001,2022_Feb_18_1518,localizer,2021.1.3,59.2936934740512,
block,objects,objects044.bmp,,,,,0,17,17,17,,,,,,,,,,,,,,,,,,,,,,,,,,,,,,,,,,,,,,,,,,None,,153.69102217992767,None,153.69102217992767,None,2022-02-18-15:21:18.257792,153.70055179996416,154.00747319986112,153.70055179996416,None,None,153.70055179996416,None,154.50740547981113,None,,,,11008,0001,2022_Feb_18_1518,localizer,2021.1.3,59.2936934740512,
block,objects,objects009.bmp,,,,,0,18,18,18,,,,,,,,,,,,,,,,,,,,,,,,,,,,,,,,,,,,,,,,,,None,,154.50740547981113,None,154.50740547981113,None,2022-02-18-15:21:19.074141,154.51737529993989,154.82404659991153,154.51737529993989,None,None,154.51737529993989,None,155.32443217993713,None,,,,11008,0001,2022_Feb_18_1518,localizer,2021.1.3,59.2936934740512,
block,objects,objects058.bmp,,,,,0,19,19,19,,,,,,,,,,,,,,,,,,,,,,,,,,,,,,,,,,,,,,,,,,None,,155.32443217993713,None,155.32443217993713,None,2022-02-18-15:21:19.892411,155.3348838998936,155.6404670998454,155.3348838998936,None,None,155.3348838998936,None,156.14119877982884,None,,,,11008,0001,2022_Feb_18_1518,localizer,2021.1.3,59.2936934740512,
block,objects,objects010.bmp,,,,,0,20,20,20,,,,,,,,,,,,,,,,,,,,,,,,,,,,,,,,,,,,,,,,,,None,,156.14119877982884,None,156.14119877982884,None,2022-02-18-15:21:20.708982,156.1517725000158,156.45738709997386,156.1517725000158,None,None,156.1517725000158,None,156.9574105799198,None,,,,11008,0001,2022_Feb_18_1518,localizer,2021.1.3,59.2936934740512,
block,objects,objects041.bmp,,,,,0,21,21,21,,,,,,,,,,,,,,,,,,,,,,,,,,,,,,,,,,,,,,,,,,None,,156.9574105799198,None,156.9574105799198,None,2022-02-18-15:21:21.524863,156.96837370004505,157.2738456998486,156.96837370004505,None,None,156.96837370004505,None,157.77409047996625,None,,,,11008,0001,2022_Feb_18_1518,localizer,2021.1.3,59.2936934740512,
block,objects,objects067.bmp,,,,,0,22,22,22,,,,,,,,,,,,,,,,,,,,,,,,,,,,,,,,,,,,,,,,,,None,,157.77409047996625,None,157.77409047996625,None,2022-02-18-15:21:22.340859,157.78404749999754,158.09093900001608,157.78404749999754,None,None,157.78404749999754,None,158.5907143798191,None,,,,11008,0001,2022_Feb_18_1518,localizer,2021.1.3,59.2936934740512,
block,objects,objects048.bmp,,,,,0,23,23,23,,,,,,,,,,,,,,,,,,,,,,,,,,,,,,,,,,,,,,,,,,None,,158.5907143798191,None,158.5907143798191,None,2022-02-18-15:21:23.157508,158.59978359984234,158.90678810002282,158.59978359984234,None,None,158.59978359984234,None,159.40795347993262,None,,,,11008,0001,2022_Feb_18_1518,localizer,2021.1.3,59.2936934740512,
block,objects,objects061.bmp,,,,,0,24,24,24,,,,,,,,,,,,,,,,,,,,,,,,,,,,,,,,,,,,,,,,,,None,,159.40795347993262,None,159.40795347993262,None,2022-02-18-15:21:23.975922,159.41835960000753,159.72389999986626,159.41835960000753,None,None,159.41835960000753,None,160.2240402800031,None,,,,11008,0001,2022_Feb_18_1518,localizer,2021.1.3,59.2936934740512,
block,objects,objects016.bmp,,,,,0,25,25,25,,,,,,,,,,,,,,,,,,,,,,,,,,,,,,,,,,,,,,,,,,None,,160.2240402800031,None,160.2240402800031,None,2022-02-18-15:21:24.791440,160.23443019995466,160.54062719992362,160.23443019995466,None,None,160.23443019995466,None,161.04132738001644,None,,,,11008,0001,2022_Feb_18_1518,localizer,2021.1.3,59.2936934740512,
block,objects,objects053.bmp,,,,,0,26,26,26,,,,,,,,,,,,,,,,,,,,,,,,,,,,,,,,,,,,,,,,,,None,,161.04132738001644,None,161.04132738001644,None,2022-02-18-15:21:25.609300,161.05303439986892,161.3577278999146,161.05303439986892,None,None,161.05303439986892,None,161.8571166800335,None,,,,11008,0001,2022_Feb_18_1518,localizer,2021.1.3,59.2936934740512,
block,objects,objects027.bmp,,,,,0,27,27,27,,,,,,,,,,,,,,,,,,,,,,,,,,,,,,,,,,,,,,,,,,None,,161.8571166800335,None,161.8571166800335,None,2022-02-18-15:21:26.423914,161.86483450001106,162.15988669986837,161.86483450001106,None,None,161.86483450001106,None,162.67380197988822,None,,,,11008,0001,2022_Feb_18_1518,localizer,2021.1.3,59.2936934740512,
block,objects,objects057.bmp,,,,,0,28,28,28,,,,,,,,,,,,,,,,,,,,,,,,,,,,,,,,,,,,,,,,,,None,,162.67380197988822,None,162.67380197988822,None,2022-02-18-15:21:27.240597,162.68277549999766,162.99029999994673,162.68277549999766,None,None,162.68277549999766,None,163.49173647994175,None,,,,11008,0001,2022_Feb_18_1518,localizer,2021.1.3,59.2936934740512,
block,objects,objects011.bmp,,,,,0,29,29,29,,,,,,,,,,,,,,,,,,,,,,,,,,,,,,,,,,,,,,,,,,None,,163.49173647994175,None,163.49173647994175,None,2022-02-18-15:21:28.059593,163.5039829998277,163.80686370003968,163.5039829998277,None,None,163.5039829998277,None,164.3078530800063,None,,,,11008,0001,2022_Feb_18_1518,localizer,2021.1.3,59.2936934740512,
block_end,objects,objects063.bmp,,,,,0,30,30,30,,,,,,,,,,,,,,,,,,,,,,,,,,,,,,,,,,,,,,,,,,None,,164.3078530800063,None,164.3078530800063,None,2022-02-18-15:21:28.875825,164.31887559988536,164.62410110002384,164.31887559988536,None,None,164.31887559988536,None,165.12413447992876,None,,,,11008,0001,2022_Feb_18_1518,localizer,2021.1.3,59.2936934740512,
block_start,faces,faces044.bmp,,,,,0,31,31,31,,,,,,,,,,,,,,,,,,,,,,,,,,,,,,,,,,,,,,,,,,t,1.7186443000100553,165.12370899994858,None,165.12370899994858,None,2022-02-18-15:21:31.423530,166.8682414998766,167.1741307999473,166.8682414998766,None,None,166.8682414998766,None,167.6743034798652,None,,,,11008,0001,2022_Feb_18_1518,localizer,2021.1.3,59.2936934740512,
block,faces,faces061.bmp,,,,,0,32,32,32,,,,,,,,,,,,,,,,,,,,,,,,,,,,,,,,,,,,,,,,,,None,,167.6743034798652,None,167.6743034798652,None,2022-02-18-15:21:32.241284,167.68514209985733,167.99023179989308,167.68514209985733,None,None,167.68514209985733,None,168.49107047999277,None,,,,11008,0001,2022_Feb_18_1518,localizer,2021.1.3,59.2936934740512,
block,faces,faces071.bmp,,,,,0,33,33,33,,,,,,,,,,,,,,,,,,,,,,,,,,,,,,,,,,,,,,,,,,None,,168.49107047999277,None,168.49107047999277,None,2022-02-18-15:21:33.057863,168.50132629997097,168.80706369993277,168.50132629997097,None,None,168.50132629997097,None,169.30734687987714,None,,,,11008,0001,2022_Feb_18_1518,localizer,2021.1.3,59.2936934740512,
block,faces,faces012.bmp,,,,,0,34,34,34,,,,,,,,,,,,,,,,,,,,,,,,,,,,,,,,,,,,,,,,,,None,,169.30734687987714,None,169.30734687987714,None,2022-02-18-15:21:33.874141,169.31686949986033,169.63036109996028,169.31686949986033,None,None,169.31686949986033,None,170.12456187992356,None,,,,11008,0001,2022_Feb_18_1518,localizer,2021.1.3,59.2936934740512,
block,faces,faces065.bmp,,,,,0,35,35,35,,,,,,,,,,,,,,,,,,,,,,,,,,,,,,,,,,,,,,,,,,None,,170.12456187992356,None,170.12456187992356,None,2022-02-18-15:21:34.692346,170.1423017999623,170.45708879991435,170.1423017999623,None,None,170.1423017999623,None,170.9416357799433,None,,,,11008,0001,2022_Feb_18_1518,localizer,2021.1.3,59.2936934740512,
block,faces,faces035.bmp,,,,,0,36,36,36,,,,,,,,,,,,,,,,,,,,,,,,,,,,,,,,,,,,,,,,,,None,,170.9416357799433,None,170.9416357799433,None,2022-02-18-15:21:35.510079,170.95460189995356,171.25719959987327,170.95460189995356,None,None,170.95460189995356,None,171.75776507998816,None,,,,11008,0001,2022_Feb_18_1518,localizer,2021.1.3,59.2936934740512,
block,faces,faces025.bmp,,,,,0,37,37,37,,,,,,,,,,,,,,,,,,,,,,,,,,,,,,,,,,,,,,,,,,None,,171.75776507998816,None,171.75776507998816,None,2022-02-18-15:21:36.325549,171.76853020000271,172.0732793000061,171.76853020000271,None,None,171.76853020000271,None,172.5748997800052,None,,,,11008,0001,2022_Feb_18_1518,localizer,2021.1.3,59.2936934740512,
block,faces,faces046.bmp,,,,,0,38,38,38,,,,,,,,,,,,,,,,,,,,,,,,,,,,,,,,,,,,,,,,,,None,,172.5748997800052,None,172.5748997800052,None,2022-02-18-15:21:37.142835,172.5873881999869,172.8983455998823,172.5873881999869,None,None,172.5873881999869,None,173.396813279856,None,,,,11008,0001,2022_Feb_18_1518,localizer,2021.1.3,59.2936934740512,
block,faces,faces074.bmp,,,,,0,39,39,39,,,,,,,,,,,,,,,,,,,,,,,,,,,,,,,,,,,,,,,,,,None,,173.396813279856,None,173.396813279856,None,2022-02-18-15:21:37.971488,173.41678779991344,173.723960199859,173.41678779991344,None,None,173.41678779991344,None,174.20743147996254,None,,,,11008,0001,2022_Feb_18_1518,localizer,2021.1.3,59.2936934740512,
block,faces,faces055.bmp,,,,,0,40,40,40,,,,,,,,,,,,,,,,,,,,,,,,,,,,,,,,,,,,,,,,,,None,,174.20743147996254,None,174.20743147996254,None,2022-02-18-15:21:38.774427,174.21732399985194,174.52384119993076,174.21732399985194,None,None,174.21732399985194,None,175.0248504799325,None,,,,11008,0001,2022_Feb_18_1518,localizer,2021.1.3,59.2936934740512,
block,faces,faces066.bmp,,,,,0,41,41,41,,,,,,,,,,,,,,,,,,,,,,,,,,,,,,,,,,,,,,,,,,None,,175.0248504799325,None,175.0248504799325,None,2022-02-18-15:21:39.592629,175.03643290000036,175.34063189988956,175.03643290000036,None,None,175.03643290000036,None,175.84097797996364,None,,,,11008,0001,2022_Feb_18_1518,localizer,2021.1.3,59.2936934740512,
block,faces,faces080.bmp,,,,,0,42,42,42,,,,,,,,,,,,,,,,,,,,,,,,,,,,,,,,,,,,,,,,,,None,,175.84097797996364,None,175.84097797996364,None,2022-02-18-15:21:40.407770,175.85452879988588,176.15699549997225,175.85452879988588,None,None,175.85452879988588,None,176.65754457996226,None,,,,11008,0001,2022_Feb_18_1518,localizer,2021.1.3,59.2936934740512,
block,faces,faces084.bmp,,,,,0,43,43,43,,,,,,,,,,,,,,,,,,,,,,,,,,,,,,,,,,,,,,,,,,None,,176.65754457996226,None,176.65754457996226,None,2022-02-18-15:21:41.224540,176.66884519997984,176.9739125999622,176.66884519997984,None,None,176.66884519997984,None,177.4749444799032,None,,,,11008,0001,2022_Feb_18_1518,localizer,2021.1.3,59.2936934740512,
block,faces,faces064.bmp,,,,,0,44,44,44,,,,,,,,,,,,,,,,,,,,,,,,,,,,,,,,,,,,,,,,,,None,,177.4749444799032,None,177.4749444799032,None,2022-02-18-15:21:42.042904,177.4865533998236,177.79180979984812,177.4865533998236,None,None,177.4865533998236,None,178.29210788002237,None,,,,11008,0001,2022_Feb_18_1518,localizer,2021.1.3,59.2936934740512,
block_end,faces,faces021.bmp,,,,,0,45,45,45,,,,,,,,,,,,,,,,,,,,,,,,,,,,,,,,,,,,,,,,,,None,,178.29210788002237,None,178.29210788002237,None,2022-02-18-15:21:42.860229,178.3051275999751,178.607803999912,178.3051275999751,None,None,178.3051275999751,None,179.10810787989757,None,,,,11008,0001,2022_Feb_18_1518,localizer,2021.1.3,59.2936934740512,
block_start,scrambled,scrambled076.bmp,,,,,0,46,46,46,,,,,,,,,,,,,,,,,,,,,,,,,,,,,,,,,,,,,,,,,,t,1.734514799900353,179.10773169994354,None,179.10773169994354,None,2022-02-18-15:21:45.439787,180.87806889996864,181.19054979993962,180.87806889996864,None,None,180.87806889996864,None,181.69032047982327,None,,,,11008,0001,2022_Feb_18_1518,localizer,2021.1.3,59.2936934740512,
block,scrambled,scrambled036.bmp,,,,,0,47,47,47,,,,,,,,,,,,,,,,,,,,,,,,,,,,,,,,,,,,,,,,,,None,,181.69032047982327,None,181.69032047982327,None,2022-02-18-15:21:46.257152,181.69356699986383,182.00731169991195,181.69356699986383,None,None,181.69356699986383,None,182.50733217983506,None,,,,11008,0001,2022_Feb_18_1518,localizer,2021.1.3,59.2936934740512,
block,scrambled,scrambled073.bmp,,,,,0,48,48,48,,,,,,,,,,,,,,,,,,,,,,,,,,,,,,,,,,,,,,,,,,None,,182.50733217983506,None,182.50733217983506,None,2022-02-18-15:21:47.073728,182.51133410003968,182.82466110005043,182.51133410003968,None,None,182.51133410003968,None,183.3241085798014,None,,,,11008,0001,2022_Feb_18_1518,localizer,2021.1.3,59.2936934740512,
block,scrambled,scrambled075.bmp,,,,,0,49,49,49,,,,,,,,,,,,,,,,,,,,,,,,,,,,,,,,,,,,,,,,,,None,,183.3241085798014,None,183.3241085798014,None,2022-02-18-15:21:47.891030,183.33413499989547,183.6406984999776,183.33413499989547,None,None,183.33413499989547,None,184.14066807986237,None,,,,11008,0001,2022_Feb_18_1518,localizer,2021.1.3,59.2936934740512,
block,scrambled,scrambled077.bmp,,,,,0,50,50,50,,,,,,,,,,,,,,,,,,,,,,,,,,,,,,,,,,,,,,,,,,None,,184.14066807986237,None,184.14066807986237,None,2022-02-18-15:21:48.707464,184.14571189996786,184.45743309985846,184.14571189996786,None,None,184.14571189996786,None,184.95758097982034,None,,,,11008,0001,2022_Feb_18_1518,localizer,2021.1.3,59.2936934740512,
block,scrambled,scrambled087.bmp,,,,,0,51,51,51,,,,,,,,,,,,,,,,,,,,,,,,,,,,,,,,,,,,,,,,,,None,,184.95758097982034,None,184.95758097982034,None,2022-02-18-15:21:49.524632,184.96753249992616,185.2741696999874,184.96753249992616,None,None,184.96753249992616,None,185.77426358000375,None,,,,11008,0001,2022_Feb_18_1518,localizer,2021.1.3,59.2936934740512,
block,scrambled,scrambled054.bmp,,,,,0,52,52,52,,,,,,,,,,,,,,,,,,,,,,,,,,,,,,,,,,,,,,,,,,None,,185.77426358000375,None,185.77426358000375,None,2022-02-18-15:21:50.341056,185.77924719988368,186.09052490000613,185.77924719988368,None,None,185.77924719988368,None,186.5908313800115,None,,,,11008,0001,2022_Feb_18_1518,localizer,2021.1.3,59.2936934740512,
block,scrambled,scrambled029.bmp,,,,,0,53,53,53,,,,,,,,,,,,,,,,,,,,,,,,,,,,,,,,,,,,,,,,,,None,,186.5908313800115,None,186.5908313800115,None,2022-02-18-15:21:51.157835,186.6003197999671,186.9072966000531,186.6003197999671,None,None,186.6003197999671,None,187.40751427984796,None,,,,11008,0001,2022_Feb_18_1518,localizer,2021.1.3,59.2936934740512,
block,scrambled,scrambled040.bmp,,,,,0,54,54,54,,,,,,,,,,,,,,,,,,,,,,,,,,,,,,,,,,,,,,,,,,None,,187.40751427984796,None,187.40751427984796,None,2022-02-18-15:21:51.974232,187.41634100000374,187.7238341998309,187.41634100000374,None,None,187.41634100000374,None,188.22435317994095,None,,,,11008,0001,2022_Feb_18_1518,localizer,2021.1.3,59.2936934740512,
block,scrambled,scrambled079.bmp,,,,,0,55,55,55,,,,,,,,,,,,,,,,,,,,,,,,,,,,,,,,,,,,,,,,,,None,,188.22435317994095,None,188.22435317994095,None,2022-02-18-15:21:52.791143,188.23106739996,188.54111069999635,188.23106739996,None,None,188.23106739996,None,189.04131197989918,None,,,,11008,0001,2022_Feb_18_1518,localizer,2021.1.3,59.2936934740512,
block,scrambled,scrambled072.bmp,,,,,0,56,56,56,,,,,,,,,,,,,,,,,,,,,,,,,,,,,,,,,,,,,,,,,,None,,189.04131197989918,None,189.04131197989918,None,2022-02-18-15:21:53.609073,189.0530526000075,189.35754649993032,189.0530526000075,None,None,189.0530526000075,None,189.85807798001915,None,,,,11008,0001,2022_Feb_18_1518,localizer,2021.1.3,59.2936934740512,
block,scrambled,scrambled041.bmp,,,,,0,57,57,57,,,,,,,,,,,,,,,,,,,,,,,,,,,,,,,,,,,,,,,,,,None,,189.85807798001915,None,189.85807798001915,None,2022-02-18-15:21:54.426059,189.8688039998524,190.17411589995027,189.8688039998524,None,None,189.8688039998524,None,190.67413447997532,None,,,,11008,0001,2022_Feb_18_1518,localizer,2021.1.3,59.2936934740512,
block,scrambled,scrambled015.bmp,,,,,0,58,58,58,,,,,,,,,,,,,,,,,,,,,,,,,,,,,,,,,,,,,,,,,,None,,190.67413447997532,None,190.67413447997532,None,2022-02-18-15:21:55.240642,190.68300680001266,190.9908032999374,190.68300680001266,None,None,190.68300680001266,None,191.49102778001688,None,,,,11008,0001,2022_Feb_18_1518,localizer,2021.1.3,59.2936934740512,
block,scrambled,scrambled018.bmp,,,,,0,59,59,59,,,,,,,,,,,,,,,,,,,,,,,,,,,,,,,,,,,,,,,,,,None,,191.49102778001688,None,191.49102778001688,None,2022-02-18-15:21:56.059023,191.50189029984176,191.80771159986034,191.50189029984176,None,None,191.50189029984176,None,192.3077497798018,None,,,,11008,0001,2022_Feb_18_1518,localizer,2021.1.3,59.2936934740512,
block_end,scrambled,scrambled018.bmp,,,,,0,60,60,60,,,,,,,,,,,,,,,,,,,,,,,,,,,,,,,,,,,,,,,,,,None,,192.3077497798018,None,192.3077497798018,None,2022-02-18-15:21:56.874737,192.3082275998313,192.60754340002313,192.3082275998313,None,y,192.3082275998313,None,193.12357687987387,None,0.7417043999303132,,,11008,0001,2022_Feb_18_1518,localizer,2021.1.3,59.2936934740512,
null_block,null_block,null_block.bmp,,,,,0,61,61,61,,,,,,,,,,,,,,,,,,,,,,,,,,,,,,,,,,,,,,,,,,t,1.718760000076145,193.12334319995716,None,193.12334319995716,None,2022-02-18-15:21:59.423416,194.85761927990242,None,194.85761927990242,None,None,194.85761927990242,None,194.8596652999986,None,,,,11008,0001,2022_Feb_18_1518,localizer,2021.1.3,59.2936934740512,
block_start,scenes,scenes012.bmp,,,,,0,62,62,62,,,,,,,,,,,,,,,,,,,,,,,,,,,,,,,,,,,,,,,,,,t,1.9816639001946896,206.86055359989405,None,206.86055359989405,None,2022-02-18-15:22:13.425550,208.85794349992648,209.15747689991258,208.85794349992648,None,None,208.85794349992648,None,209.6574461799115,None,,,,11008,0001,2022_Feb_18_1518,localizer,2021.1.3,59.2936934740512,
block,scenes,scenes040.bmp,,,,,0,63,63,63,,,,,,,,,,,,,,,,,,,,,,,,,,,,,,,,,,,,,,,,,,None,,209.6574461799115,None,209.6574461799115,None,2022-02-18-15:22:14.226238,209.66958389990032,209.97437820001505,209.66958389990032,209.66958389990032,None,209.66958389990032,209.66958389990032,210.4746045799926,None,,,,11008,0001,2022_Feb_18_1518,localizer,2021.1.3,59.2936934740512,
block,scenes,scenes015.bmp,,,,,0,64,64,64,,,,,,,,,,,,,,,,,,,,,,,,,,,,,,,,,,,,,,,,,,None,,210.4746045799926,None,210.4746045799926,None,2022-02-18-15:22:15.041594,210.48531949985772,210.7906225998886,210.48531949985772,None,None,210.48531949985772,None,211.29085357990115,None,,,,11008,0001,2022_Feb_18_1518,localizer,2021.1.3,59.2936934740512,
block,scenes,scenes052.bmp,,,,,0,65,65,65,,,,,,,,,,,,,,,,,,,,,,,,,,,,,,,,,,,,,,,,,,None,,211.29085357990115,None,211.29085357990115,None,2022-02-18-15:22:15.857650,211.3008101999294,211.6075074998662,211.3008101999294,None,None,211.3008101999294,None,212.1097209799569,None,,,,11008,0001,2022_Feb_18_1518,localizer,2021.1.3,59.2936934740512,
block,scenes,scenes036.bmp,,,,,0,66,66,66,,,,,,,,,,,,,,,,,,,,,,,,,,,,,,,,,,,,,,,,,,None,,212.1097209799569,None,212.1097209799569,None,2022-02-18-15:22:16.679552,212.1217906998936,212.4240834999364,212.1217906998936,None,None,212.1217906998936,None,212.92980717997997,None,,,,11008,0001,2022_Feb_18_1518,localizer,2021.1.3,59.2936934740512,
block,scenes,scenes035.bmp,,,,,0,67,67,67,,,,,,,,,,,,,,,,,,,,,,,,,,,,,,,,,,,,,,,,,,None,,212.92980717997997,None,212.92980717997997,None,2022-02-18-15:22:17.499565,212.9329887998756,213.2407247000374,212.9329887998756,None,None,212.9329887998756,None,213.7414436798077,None,,,,11008,0001,2022_Feb_18_1518,localizer,2021.1.3,59.2936934740512,
block,scenes,scenes009.bmp,,,,,0,68,68,68,,,,,,,,,,,,,,,,,,,,,,,,,,,,,,,,,,,,,,,,,,None,,213.7414436798077,None,213.7414436798077,None,2022-02-18-15:22:18.309210,213.7519006000366,214.05792939988896,213.7519006000366,None,None,213.7519006000366,None,214.55897367992438,None,,,,11008,0001,2022_Feb_18_1518,localizer,2021.1.3,59.2936934740512,
block,scenes,scenes081.bmp,,,,,0,69,69,69,,,,,,,,,,,,,,,,,,,,,,,,,,,,,,,,,,,,,,,,,,None,,214.55897367992438,None,214.55897367992438,None,2022-02-18-15:22:19.127725,214.57235040003434,214.87371399998665,214.57235040003434,None,None,214.57235040003434,None,215.37507827989756,None,,,,11008,0001,2022_Feb_18_1518,localizer,2021.1.3,59.2936934740512,
block,scenes,scenes031.bmp,,,,,0,70,70,70,,,,,,,,,,,,,,,,,,,,,,,,,,,,,,,,,,,,,,,,,,None,,215.37507827989756,None,215.37507827989756,None,2022-02-18-15:22:19.940593,215.3751379000023,215.69060239987448,215.3751379000023,None,None,215.3751379000023,None,216.1754821798764,None,,,,11008,0001,2022_Feb_18_1518,localizer,2021.1.3,59.2936934740512,
block,scenes,scenes089.bmp,,,,,0,71,71,71,,,,,,,,,,,,,,,,,,,,,,,,,,,,,,,,,,,,,,,,,,None,,216.1754821798764,None,216.1754821798764,None,2022-02-18-15:22:20.745390,216.19019969995134,216.49161999998614,216.19019969995134,216.19019969995134,None,216.19019969995134,216.19019969995134,216.9916496799793,None,,,,11008,0001,2022_Feb_18_1518,localizer,2021.1.3,59.2936934740512,
block,scenes,scenes007.bmp,,,,,0,72,72,72,,,,,,,,,,,,,,,,,,,,,,,,,,,,,,,,,,,,,,,,,,None,,216.9916496799793,None,216.9916496799793,None,2022-02-18-15:22:21.559453,217.00704830000177,217.3073543999344,217.00704830000177,None,None,217.00704830000177,None,217.80777738001197,None,,,,11008,0001,2022_Feb_18_1518,localizer,2021.1.3,59.2936934740512,
block,scenes,scenes028.bmp,,,,,0,73,73,73,,,,,,,,,,,,,,,,,,,,,,,,,,,,,,,,,,,,,,,,,,None,,217.80777738001197,None,217.80777738001197,None,2022-02-18-15:22:22.374917,217.81762750004418,218.1242281999439,217.81762750004418,None,None,217.81762750004418,None,218.6244168799836,None,,,,11008,0001,2022_Feb_18_1518,localizer,2021.1.3,59.2936934740512,
block,scenes,scenes026.bmp,,,,,0,74,74,74,,,,,,,,,,,,,,,,,,,,,,,,,,,,,,,,,,,,,,,,,,None,,218.6244168799836,None,218.6244168799836,None,2022-02-18-15:22:23.191211,218.63537509995513,218.94042350002564,218.63537509995513,None,None,218.63537509995513,None,219.44370237984694,None,,,,11008,0001,2022_Feb_18_1518,localizer,2021.1.3,59.2936934740512,
block,scenes,scenes030.bmp,,,,,0,75,75,75,,,,,,,,,,,,,,,,,,,,,,,,,,,,,,,,,,,,,,,,,,None,,219.44370237984694,None,219.44370237984694,None,2022-02-18-15:22:24.011640,219.45116419997066,219.75682369992137,219.45116419997066,None,None,219.45116419997066,None,220.26101357992738,None,,,,11008,0001,2022_Feb_18_1518,localizer,2021.1.3,59.2936934740512,
block_end,scenes,scenes083.bmp,,,,,0,76,76,76,,,,,,,,,,,,,,,,,,,,,,,,,,,,,,,,,,,,,,,,,,None,,220.26101357992738,None,220.26101357992738,None,2022-02-18-15:22:24.831880,220.26727909990586,220.57364950003102,220.26727909990586,None,None,220.26727909990586,None,221.07387117985635,None,,,,11008,0001,2022_Feb_18_1518,localizer,2021.1.3,59.2936934740512,
block_start,objects,objects041.bmp,,,,,0,77,77,77,,,,,,,,,,,,,,,,,,,,,,,,,,,,,,,,,,,,,,,,,,t,1.7687689000740647,221.07368489983492,None,221.07368489983492,None,2022-02-18-15:22:27.439309,222.875959899975,223.1933383999858,222.875959899975,None,None,222.875959899975,None,223.69115407988429,None,,,,11008,0001,2022_Feb_18_1518,localizer,2021.1.3,59.2936934740512,
block,objects,objects020.bmp,,,,,0,78,78,78,,,,,,,,,,,,,,,,,,,,,,,,,,,,,,,,,,,,,,,,,,None,,223.69115407988429,None,223.69115407988429,None,2022-02-18-15:22:28.257944,223.70096990000457,224.00709589989856,223.70096990000457,None,None,223.70096990000457,None,224.50794117981567,None,,,,11008,0001,2022_Feb_18_1518,localizer,2021.1.3,59.2936934740512,
block,objects,objects016.bmp,,,,,0,79,79,79,,,,,,,,,,,,,,,,,,,,,,,,,,,,,,,,,,,,,,,,,,None,,224.50794117981567,None,224.50794117981567,None,2022-02-18-15:22:29.074946,224.50845109997317,224.8077096999623,224.50845109997317,None,None,224.50845109997317,None,225.31427377988584,None,,,,11008,0001,2022_Feb_18_1518,localizer,2021.1.3,59.2936934740512,
block,objects,objects085.bmp,,,,,0,80,80,80,,,,,,,,,,,,,,,,,,,,,,,,,,,,,,,,,,,,,,,,,,None,,225.31427377988584,None,225.31427377988584,None,2022-02-18-15:22:29.888945,225.32886779983528,225.64088699989952,225.32886779983528,None,None,225.32886779983528,None,226.12439577993936,None,,,,11008,0001,2022_Feb_18_1518,localizer,2021.1.3,59.2936934740512,
block,objects,objects062.bmp,,,,,0,81,81,81,,,,,,,,,,,,,,,,,,,,,,,,,,,,,,,,,,,,,,,,,,None,,226.12439577993936,None,226.12439577993936,None,2022-02-18-15:22:30.691403,226.13416079990566,226.4409258000087,226.13416079990566,None,None,226.13416079990566,None,226.94061937988735,None,,,,11008,0001,2022_Feb_18_1518,localizer,2021.1.3,59.2936934740512,
block,objects,objects051.bmp,,,,,0,82,82,82,,,,,,,,,,,,,,,,,,,,,,,,,,,,,,,,,,,,,,,,,,None,,226.94061937988735,None,226.94061937988735,None,2022-02-18-15:22:31.506423,226.9481087999884,227.25752320000902,226.9481087999884,None,None,226.9481087999884,None,227.75783887985162,None,,,,11008,0001,2022_Feb_18_1518,localizer,2021.1.3,59.2936934740512,
block,objects,objects013.bmp,,,,,0,83,83,83,,,,,,,,,,,,,,,,,,,,,,,,,,,,,,,,,,,,,,,,,,None,,227.75783887985162,None,227.75783887985162,None,2022-02-18-15:22:32.324788,227.7667998999823,228.0743978000246,227.7667998999823,None,None,227.7667998999823,None,228.5745605799835,None,,,,11008,0001,2022_Feb_18_1518,localizer,2021.1.3,59.2936934740512,
block,objects,objects087.bmp,,,,,0,84,84,84,,,,,,,,,,,,,,,,,,,,,,,,,,,,,,,,,,,,,,,,,,None,,228.5745605799835,None,228.5745605799835,None,2022-02-18-15:22:33.141353,228.58448119997047,228.8978550999891,228.58448119997047,None,None,228.58448119997047,None,229.39198838002048,None,,,,11008,0001,2022_Feb_18_1518,localizer,2021.1.3,59.2936934740512,
block,objects,objects040.bmp,,,,,0,85,85,85,,,,,,,,,,,,,,,,,,,,,,,,,,,,,,,,,,,,,,,,,,None,,229.39198838002048,None,229.39198838002048,None,2022-02-18-15:22:33.959910,229.39980389992706,229.7074825000018,229.39980389992706,None,None,229.39980389992706,None,230.2078263798263,None,,,,11008,0001,2022_Feb_18_1518,localizer,2021.1.3,59.2936934740512,
block,objects,objects042.bmp,,,,,0,86,86,86,,,,,,,,,,,,,,,,,,,,,,,,,,,,,,,,,,,,,,,,,,None,,230.2078263798263,None,230.2078263798263,None,2022-02-18-15:22:34.774599,230.2180323000066,230.52436519996263,230.2180323000066,None,None,230.2180323000066,None,231.02480847984552,None,,,,11008,0001,2022_Feb_18_1518,localizer,2021.1.3,59.2936934740512,
block,objects,objects033.bmp,,,,,0,87,87,87,,,,,,,,,,,,,,,,,,,,,,,,,,,,,,,,,,,,,,,,,,None,,231.02480847984552,None,231.02480847984552,None,2022-02-18-15:22:35.591411,231.0345719999168,231.34469880000688,231.0345719999168,None,None,231.0345719999168,None,231.84224587995558,None,,,,11008,0001,2022_Feb_18_1518,localizer,2021.1.3,59.2936934740512,
block,objects,objects033.bmp,,,,,0,88,88,88,,,,,,,,,,,,,,,,,,,,,,,,,,,,,,,,,,,,,,,,,,None,,231.84224587995558,None,231.84224587995558,None,2022-02-18-15:22:36.412167,231.8453829998616,232.15773570002057,231.8453829998616,None,y,231.8453829998616,None,232.65775807984173,None,0.5627142998855561,,,11008,0001,2022_Feb_18_1518,localizer,2021.1.3,59.2936934740512,
block,objects,objects063.bmp,,,,,0,89,89,89,,,,,,,,,,,,,,,,,,,,,,,,,,,,,,,,,,,,,,,,,,None,,232.65775807984173,None,232.65775807984173,None,2022-02-18-15:22:37.224791,232.65837990003638,232.95813549985178,232.65837990003638,None,None,232.65837990003638,None,233.45881588002666,None,,,,11008,0001,2022_Feb_18_1518,localizer,2021.1.3,59.2936934740512,
block,objects,objects029.bmp,,,,,0,90,90,90,,,,,,,,,,,,,,,,,,,,,,,,,,,,,,,,,,,,,,,,,,None,,233.45881588002666,None,233.45881588002666,None,2022-02-18-15:22:38.030726,233.470882399939,233.78137360000983,233.470882399939,233.470882399939,None,233.470882399939,233.470882399939,234.27463767994195,None,,,,11008,0001,2022_Feb_18_1518,localizer,2021.1.3,59.2936934740512,
block_end,objects,objects069.bmp,,,,,0,91,91,91,,,,,,,,,,,,,,,,,,,,,,,,,,,,,,,,,,,,,,,,,,None,,234.27463767994195,None,234.27463767994195,None,2022-02-18-15:22:38.841491,234.28025850001723,234.59081460000016,234.28025850001723,None,None,234.28025850001723,None,235.09119967990554,None,,,,11008,0001,2022_Feb_18_1518,localizer,2021.1.3,59.2936934740512,
block_start,faces,faces067.bmp,,,,,0,92,92,92,,,,,,,,,,,,,,,,,,,,,,,,,,,,,,,,,,,,,,,,,,t,1.7513828000519425,235.09101139986888,None,235.09101139986888,None,2022-02-18-15:22:41.426642,236.86803469993174,237.17425689985976,236.86803469993174,None,None,236.86803469993174,None,237.66423597992397,None,,,,11008,0001,2022_Feb_18_1518,localizer,2021.1.3,59.2936934740512,
block,faces,faces002.bmp,,,,,0,93,93,93,,,,,,,,,,,,,,,,,,,,,,,,,,,,,,,,,,,,,,,,,,None,,237.66423597992397,None,237.66423597992397,None,2022-02-18-15:22:42.234901,237.67933229985647,237.98991600004956,237.67933229985647,None,None,237.67933229985647,None,238.4743261799682,None,,,,11008,0001,2022_Feb_18_1518,localizer,2021.1.3,59.2936934740512,
block,faces,faces022.bmp,,,,,0,94,94,94,,,,,,,,,,,,,,,,,,,,,,,,,,,,,,,,,,,,,,,,,,None,,238.4743261799682,None,238.4743261799682,None,2022-02-18-15:22:43.041121,238.48475990002044,238.79106099996716,238.48475990002044,None,None,238.48475990002044,None,239.29170447997748,None,,,,11008,0001,2022_Feb_18_1518,localizer,2021.1.3,59.2936934740512,
block,faces,faces020.bmp,,,,,0,95,95,95,,,,,,,,,,,,,,,,,,,,,,,,,,,,,,,,,,,,,,,,,,None,,239.29170447997748,None,239.29170447997748,None,2022-02-18-15:22:43.859643,239.2990838000551,239.60773669998161,239.2990838000551,None,None,239.2990838000551,None,240.10800597993656,None,,,,11008,0001,2022_Feb_18_1518,localizer,2021.1.3,59.2936934740512,
block,faces,faces026.bmp,,,,,0,96,96,96,,,,,,,,,,,,,,,,,,,,,,,,,,,,,,,,,,,,,,,,,,None,,240.10800597993656,None,240.10800597993656,None,2022-02-18-15:22:44.675035,240.14574589999393,240.45721270004287,240.14574589999393,None,None,240.14574589999393,None,240.92436767988838,None,,,,11008,0001,2022_Feb_18_1518,localizer,2021.1.3,59.2936934740512,
block,faces,faces038.bmp,,,,,0,97,97,97,,,,,,,,,,,,,,,,,,,,,,,,,,,,,,,,,,,,,,,,,,None,,240.92436767988838,None,240.92436767988838,None,2022-02-18-15:22:45.491162,240.94029819988646,241.24162280000746,240.94029819988646,None,None,240.94029819988646,None,241.74086148003116,None,,,,11008,0001,2022_Feb_18_1518,localizer,2021.1.3,59.2936934740512,
block,faces,faces045.bmp,,,,,0,98,98,98,,,,,,,,,,,,,,,,,,,,,,,,,,,,,,,,,,,,,,,,,,None,,241.74086148003116,None,241.74086148003116,None,2022-02-18-15:22:46.307587,241.74865749990568,242.05759419989772,241.74865749990568,None,None,241.74865749990568,None,242.55799777982756,None,,,,11008,0001,2022_Feb_18_1518,localizer,2021.1.3,59.2936934740512,
block,faces,faces054.bmp,,,,,0,99,99,99,,,,,,,,,,,,,,,,,,,,,,,,,,,,,,,,,,,,,,,,,,None,,242.55799777982756,None,242.55799777982756,None,2022-02-18-15:22:47.124845,242.5678709000349,242.8739277999848,242.5678709000349,None,None,242.5678709000349,None,243.37429207996465,None,,,,11008,0001,2022_Feb_18_1518,localizer,2021.1.3,59.2936934740512,
block,faces,faces031.bmp,,,,,0,100,100,100,,,,,,,,,,,,,,,,,,,,,,,,,,,,,,,,,,,,,,,,,,None,,243.37429207996465,None,243.37429207996465,None,2022-02-18-15:22:47.940274,243.38214430003427,243.69122999999672,243.38214430003427,None,None,243.38214430003427,None,244.19132257988676,None,,,,11008,0001,2022_Feb_18_1518,localizer,2021.1.3,59.2936934740512,
block,faces,faces075.bmp,,,,,0,101,101,101,,,,,,,,,,,,,,,,,,,,,,,,,,,,,,,,,,,,,,,,,,None,,244.19132257988676,None,244.19132257988676,None,2022-02-18-15:22:48.758168,244.20136939990334,244.507895299932,244.20136939990334,None,None,244.20136939990334,None,245.00890527982264,None,,,,11008,0001,2022_Feb_18_1518,localizer,2021.1.3,59.2936934740512,
block,faces,faces005.bmp,,,,,0,102,102,102,,,,,,,,,,,,,,,,,,,,,,,,,,,,,,,,,,,,,,,,,,None,,245.00890527982264,None,245.00890527982264,None,2022-02-18-15:22:49.576681,245.02098060003482,245.32418979983777,245.02098060003482,None,None,245.02098060003482,None,245.82462438000366,None,,,,11008,0001,2022_Feb_18_1518,localizer,2021.1.3,59.2936934740512,
block,faces,faces003.bmp,,,,,0,103,103,103,,,,,,,,,,,,,,,,,,,,,,,,,,,,,,,,,,,,,,,,,,None,,245.82462438000366,None,245.82462438000366,None,2022-02-18-15:22:50.391466,245.8307163999416,246.14126209984533,245.8307163999416,None,None,245.8307163999416,None,246.64129397985525,None,,,,11008,0001,2022_Feb_18_1518,localizer,2021.1.3,59.2936934740512,
block,faces,faces010.bmp,,,,,0,104,104,104,,,,,,,,,,,,,,,,,,,,,,,,,,,,,,,,,,,,,,,,,,None,,246.64129397985525,None,246.64129397985525,None,2022-02-18-15:22:51.208168,246.65148209990002,246.95768329990096,246.65148209990002,None,None,246.65148209990002,None,247.45750157991424,None,,,,11008,0001,2022_Feb_18_1518,localizer,2021.1.3,59.2936934740512,
block,faces,faces086.bmp,,,,,0,105,105,105,,,,,,,,,,,,,,,,,,,,,,,,,,,,,,,,,,,,,,,,,,None,,247.45750157991424,None,247.45750157991424,None,2022-02-18-15:22:52.023307,247.46491290000267,247.7742200999055,247.46491290000267,None,None,247.46491290000267,None,248.2750561799854,None,,,,11008,0001,2022_Feb_18_1518,localizer,2021.1.3,59.2936934740512,
block_end,faces,faces044.bmp,,,,,0,106,106,106,,,,,,,,,,,,,,,,,,,,,,,,,,,,,,,,,,,,,,,,,,None,,248.2750561799854,None,248.2750561799854,None,2022-02-18-15:22:52.842992,248.2759038999211,248.59091120003723,248.2759038999211,None,None,248.2759038999211,None,249.07569307987578,None,,,,11008,0001,2022_Feb_18_1518,localizer,2021.1.3,59.2936934740512,
block_start,scrambled,scrambled087.bmp,,,,,0,107,107,107,,,,,,,,,,,,,,,,,,,,,,,,,,,,,,,,,,,,,,,,,,t,1.7657949000131339,249.07646539993584,None,249.07646539993584,None,2022-02-18-15:22:55.424928,250.85856959992088,251.17442559986375,250.85856959992088,None,None,250.85856959992088,None,251.65818827985785,None,,,,11008,0001,2022_Feb_18_1518,localizer,2021.1.3,59.2936934740512,
block,scrambled,scrambled059.bmp,,,,,0,108,108,108,,,,,,,,,,,,,,,,,,,,,,,,,,,,,,,,,,,,,,,,,,None,,251.65818827985785,None,251.65818827985785,None,2022-02-18-15:22:56.227203,251.67003050004132,251.97465969994664,251.67003050004132,251.67003050004132,None,251.67003050004132,251.67003050004132,252.4742981799878,None,,,,11008,0001,2022_Feb_18_1518,localizer,2021.1.3,59.2936934740512,
block,scrambled,scrambled057.bmp,,,,,0,109,109,109,,,,,,,,,,,,,,,,,,,,,,,,,,,,,,,,,,,,,,,,,,None,,252.4742981799878,None,252.4742981799878,None,2022-02-18-15:22:57.041309,252.48238209984265,252.79078090004623,252.48238209984265,None,None,252.48238209984265,None,253.29121677987277,None,,,,11008,0001,2022_Feb_18_1518,localizer,2021.1.3,59.2936934740512,
block,scrambled,scrambled080.bmp,,,,,0,110,110,110,,,,,,,,,,,,,,,,,,,,,,,,,,,,,,,,,,,,,,,,,,None,,253.29121677987277,None,253.29121677987277,None,2022-02-18-15:22:57.858090,253.30001010000706,253.60778139997274,253.30001010000706,None,None,253.30001010000706,None,254.10818608002737,None,,,,11008,0001,2022_Feb_18_1518,localizer,2021.1.3,59.2936934740512,
block,scrambled,scrambled053.bmp,,,,,0,111,111,111,,,,,,,,,,,,,,,,,,,,,,,,,,,,,,,,,,,,,,,,,,None,,254.10818608002737,None,254.10818608002737,None,2022-02-18-15:22:58.674978,254.11795710003935,254.42472269991413,254.11795710003935,None,None,254.11795710003935,None,254.91458638003095,None,,,,11008,0001,2022_Feb_18_1518,localizer,2021.1.3,59.2936934740512,
block,scrambled,scrambled084.bmp,,,,,0,112,112,112,,,,,,,,,,,,,,,,,,,,,,,,,,,,,,,,,,,,,,,,,,None,,254.91458638003095,None,254.91458638003095,None,2022-02-18-15:22:59.486295,254.9317872999236,255.24119420000352,254.9317872999236,None,None,254.9317872999236,None,255.7246437798254,None,,,,11008,0001,2022_Feb_18_1518,localizer,2021.1.3,59.2936934740512,
block,scrambled,scrambled049.bmp,,,,,0,113,113,113,,,,,,,,,,,,,,,,,,,,,,,,,,,,,,,,,,,,,,,,,,None,,255.7246437798254,None,255.7246437798254,None,2022-02-18-15:23:00.291439,255.73379809991457,256.04100440000184,255.73379809991457,None,None,255.73379809991457,None,256.5415202799719,None,,,,11008,0001,2022_Feb_18_1518,localizer,2021.1.3,59.2936934740512,
block,scrambled,scrambled064.bmp,,,,,0,114,114,114,,,,,,,,,,,,,,,,,,,,,,,,,,,,,,,,,,,,,,,,,,None,,256.5415202799719,None,256.5415202799719,None,2022-02-18-15:23:01.109304,256.5526173999533,256.8589746998623,256.5526173999533,None,None,256.5526173999533,None,257.35828477996404,None,,,,11008,0001,2022_Feb_18_1518,localizer,2021.1.3,59.2936934740512,
block,scrambled,scrambled002.bmp,,,,,0,115,115,115,,,,,,,,,,,,,,,,,,,,,,,,,,,,,,,,,,,,,,,,,,None,,257.35828477996404,None,257.35828477996404,None,2022-02-18-15:23:01.925246,257.368824099889,257.67457379982807,257.368824099889,None,None,257.368824099889,None,258.17442637998613,None,,,,11008,0001,2022_Feb_18_1518,localizer,2021.1.3,59.2936934740512,
block,scrambled,scrambled026.bmp,,,,,0,116,116,116,,,,,,,,,,,,,,,,,,,,,,,,,,,,,,,,,,,,,,,,,,None,,258.17442637998613,None,258.17442637998613,None,2022-02-18-15:23:02.741415,258.1820343998261,258.49136459990405,258.1820343998261,None,None,258.1820343998261,None,258.991655280022,None,,,,11008,0001,2022_Feb_18_1518,localizer,2021.1.3,59.2936934740512,
block,scrambled,scrambled030.bmp,,,,,0,117,117,117,,,,,,,,,,,,,,,,,,,,,,,,,,,,,,,,,,,,,,,,,,None,,258.991655280022,None,258.991655280022,None,2022-02-18-15:23:03.558471,259.00244789989665,259.3081147999037,259.00244789989665,None,None,259.00244789989665,None,259.80790337980727,None,,,,11008,0001,2022_Feb_18_1518,localizer,2021.1.3,59.2936934740512,
block,scrambled,scrambled016.bmp,,,,,0,118,118,118,,,,,,,,,,,,,,,,,,,,,,,,,,,,,,,,,,,,,,,,,,None,,259.80790337980727,None,259.80790337980727,None,2022-02-18-15:23:04.374647,259.8168097999878,260.1251336999703,259.8168097999878,None,None,259.8168097999878,None,260.6257110798266,None,,,,11008,0001,2022_Feb_18_1518,localizer,2021.1.3,59.2936934740512,
block,scrambled,scrambled088.bmp,,,,,0,119,119,119,,,,,,,,,,,,,,,,,,,,,,,,,,,,,,,,,,,,,,,,,,None,,260.6257110798266,None,260.6257110798266,None,2022-02-18-15:23:05.194581,260.6388842999004,260.9411182999611,260.6388842999004,None,None,260.6388842999004,None,261.4414475799073,None,,,,11008,0001,2022_Feb_18_1518,localizer,2021.1.3,59.2936934740512,
block,scrambled,scrambled083.bmp,,,,,0,120,120,120,,,,,,,,,,,,,,,,,,,,,,,,,,,,,,,,,,,,,,,,,,None,,261.4414475799073,None,261.4414475799073,None,2022-02-18-15:23:06.008440,261.4526102999225,261.7576168999076,261.4526102999225,None,None,261.4526102999225,None,262.2581838799175,None,,,,11008,0001,2022_Feb_18_1518,localizer,2021.1.3,59.2936934740512,
block_end,scrambled,scrambled041.bmp,,,,,0,121,121,121,,,,,,,,,,,,,,,,,,,,,,,,,,,,,,,,,,,,,,,,,,None,,262.2581838799175,None,262.2581838799175,None,2022-02-18-15:23:06.825185,262.2586654999759,262.5744254000019,262.2586654999759,None,None,262.2586654999759,None,263.0580161799677,None,,,,11008,0001,2022_Feb_18_1518,localizer,2021.1.3,59.2936934740512,
block_start,faces,faces021.bmp,,,,,0,122,122,122,,,,,,,,,,,,,,,,,,,,,,,,,,,,,,,,,,,,,,,,,,t,1.7844771000090986,263.05786689999513,None,263.05786689999513,None,2022-02-18-15:23:09.424641,264.85862690000795,265.15888480003923,264.85862690000795,None,None,264.85862690000795,None,265.6584588798229,None,,,,11008,0001,2022_Feb_18_1518,localizer,2021.1.3,59.2936934740512,
block,faces,faces033.bmp,,,,,0,123,123,123,,,,,,,,,,,,,,,,,,,,,,,,,,,,,,,,,,,,,,,,,,None,,265.6584588798229,None,265.6584588798229,None,2022-02-18-15:23:10.227451,265.6785718000028,265.99124809983186,265.6785718000028,265.6785718000028,None,265.6785718000028,265.6785718000028,266.475722280005,None,,,,11008,0001,2022_Feb_18_1518,localizer,2021.1.3,59.2936934740512,
block,faces,faces017.bmp,,,,,0,124,124,124,,,,,,,,,,,,,,,,,,,,,,,,,,,,,,,,,,,,,,,,,,None,,266.475722280005,None,266.475722280005,None,2022-02-18-15:23:11.043635,266.4881976998877,266.79113369993865,266.4881976998877,None,None,266.4881976998877,None,267.29141607987697,None,,,,11008,0001,2022_Feb_18_1518,localizer,2021.1.3,59.2936934740512,
block,faces,faces081.bmp,,,,,0,125,125,125,,,,,,,,,,,,,,,,,,,,,,,,,,,,,,,,,,,,,,,,,,None,,267.29141607987697,None,267.29141607987697,None,2022-02-18-15:23:11.858448,267.30217309994623,267.6078228999395,267.30217309994623,None,None,267.30217309994623,None,268.10814887997697,None,,,,11008,0001,2022_Feb_18_1518,localizer,2021.1.3,59.2936934740512,
block,faces,faces042.bmp,,,,,0,126,126,126,,,,,,,,,,,,,,,,,,,,,,,,,,,,,,,,,,,,,,,,,,None,,268.10814887997697,None,268.10814887997697,None,2022-02-18-15:23:12.675439,268.11505259992555,268.4244005000219,268.11505259992555,None,None,268.11505259992555,None,268.9243563799188,None,,,,11008,0001,2022_Feb_18_1518,localizer,2021.1.3,59.2936934740512,
block,faces,faces020.bmp,,,,,0,127,127,127,,,,,,,,,,,,,,,,,,,,,,,,,,,,,,,,,,,,,,,,,,None,,268.9243563799188,None,268.9243563799188,None,2022-02-18-15:23:13.491260,268.92522249999456,269.2242115000263,268.92522249999456,None,None,268.92522249999456,None,269.72429187982345,None,,,,11008,0001,2022_Feb_18_1518,localizer,2021.1.3,59.2936934740512,
block,faces,faces078.bmp,,,,,0,128,128,128,,,,,,,,,,,,,,,,,,,,,,,,,,,,,,,,,,,,,,,,,,None,,269.72429187982345,None,269.72429187982345,None,2022-02-18-15:23:14.292091,269.73309420002624,270.04164259997196,269.73309420002624,269.73309420002624,None,269.73309420002624,269.73309420002624,270.54191187992694,None,,,,11008,0001,2022_Feb_18_1518,localizer,2021.1.3,59.2936934740512,
block,faces,faces062.bmp,,,,,0,129,129,129,,,,,,,,,,,,,,,,,,,,,,,,,,,,,,,,,,,,,,,,,,None,,270.54191187992694,None,270.54191187992694,None,2022-02-18-15:23:15.109692,270.55293469992466,270.85762639995664,270.55293469992466,None,None,270.55293469992466,None,271.35790537986907,None,,,,11008,0001,2022_Feb_18_1518,localizer,2021.1.3,59.2936934740512,
block,faces,faces060.bmp,,,,,0,130,130,130,,,,,,,,,,,,,,,,,,,,,,,,,,,,,,,,,,,,,,,,,,None,,271.35790537986907,None,271.35790537986907,None,2022-02-18-15:23:15.925321,271.36911049997434,271.6744417999871,271.36911049997434,None,None,271.36911049997434,None,272.174816379929,None,,,,11008,0001,2022_Feb_18_1518,localizer,2021.1.3,59.2936934740512,
block,faces,faces015.bmp,,,,,0,131,131,131,,,,,,,,,,,,,,,,,,,,,,,,,,,,,,,,,,,,,,,,,,None,,272.174816379929,None,272.174816379929,None,2022-02-18-15:23:16.742803,272.1906500000041,272.49112859996967,272.1906500000041,None,None,272.1906500000041,None,272.9909219799098,None,,,,11008,0001,2022_Feb_18_1518,localizer,2021.1.3,59.2936934740512,
block,faces,faces061.bmp,,,,,0,132,132,132,,,,,,,,,,,,,,,,,,,,,,,,,,,,,,,,,,,,,,,,,,None,,272.9909219799098,None,272.9909219799098,None,2022-02-18-15:23:17.557808,272.99200630001724,273.2910712999292,272.99200630001724,None,None,272.99200630001724,None,273.7975081798155,None,,,,11008,0001,2022_Feb_18_1518,localizer,2021.1.3,59.2936934740512,
block,faces,faces039.bmp,,,,,0,133,133,133,,,,,,,,,,,,,,,,,,,,,,,,,,,,,,,,,,,,,,,,,,None,,273.7975081798155,None,273.7975081798155,None,2022-02-18-15:23:18.372275,273.81727929995395,274.12418249994516,273.81727929995395,None,None,273.81727929995395,None,274.6078731798567,None,,,,11008,0001,2022_Feb_18_1518,localizer,2021.1.3,59.2936934740512,
block,faces,faces040.bmp,,,,,0,134,134,134,,,,,,,,,,,,,,,,,,,,,,,,,,,,,,,,,,,,,,,,,,None,,274.6078731798567,None,274.6078731798567,None,2022-02-18-15:23:19.174667,274.61764169996604,274.92407869989984,274.61764169996604,None,None,274.61764169996604,None,275.42465917989614,None,,,,11008,0001,2022_Feb_18_1518,localizer,2021.1.3,59.2936934740512,
block,faces,faces027.bmp,,,,,0,135,135,135,,,,,,,,,,,,,,,,,,,,,,,,,,,,,,,,,,,,,,,,,,None,,275.42465917989614,None,275.42465917989614,None,2022-02-18-15:23:19.991668,275.43491569999605,275.741003499832,275.43491569999605,None,None,275.43491569999605,None,276.24193287980745,None,,,,11008,0001,2022_Feb_18_1518,localizer,2021.1.3,59.2936934740512,
block_end,faces,faces066.bmp,,,,,0,136,136,136,,,,,,,,,,,,,,,,,,,,,,,,,,,,,,,,,,,,,,,,,,None,,276.24193287980745,None,276.24193287980745,None,2022-02-18-15:23:20.809725,276.2426173000131,276.5418401998468,276.2426173000131,None,None,276.2426173000131,None,277.0425096798223,None,,,,11008,0001,2022_Feb_18_1518,localizer,2021.1.3,59.2936934740512,
block_start,scrambled,scrambled008.bmp,,,,,0,137,137,137,,,,,,,,,,,,,,,,,,,,,,,,,,,,,,,,,,,,,,,,,,t,1.7991692998912185,277.0430049998686,None,277.0430049998686,None,2022-02-18-15:23:23.424471,278.8675569999032,279.17520149983466,278.8675569999032,None,None,278.8675569999032,None,279.6742211798206,None,,,,11008,0001,2022_Feb_18_1518,localizer,2021.1.3,59.2936934740512,
block,scrambled,scrambled031.bmp,,,,,0,138,138,138,,,,,,,,,,,,,,,,,,,,,,,,,,,,,,,,,,,,,,,,,,None,,279.6742211798206,None,279.6742211798206,None,2022-02-18-15:23:24.240989,279.6824429000262,279.99159360001795,279.6824429000262,None,None,279.6824429000262,None,280.49175077993425,None,,,,11008,0001,2022_Feb_18_1518,localizer,2021.1.3,59.2936934740512,
block,scrambled,scrambled034.bmp,,,,,0,139,139,139,,,,,,,,,,,,,,,,,,,,,,,,,,,,,,,,,,,,,,,,,,None,,280.49175077993425,None,280.49175077993425,None,2022-02-18-15:23:25.059536,280.5025504999794,280.80820970004424,280.5025504999794,None,None,280.5025504999794,None,281.3085041799583,None,,,,11008,0001,2022_Feb_18_1518,localizer,2021.1.3,59.2936934740512,
block,scrambled,scrambled040.bmp,,,,,0,140,140,140,,,,,,,,,,,,,,,,,,,,,,,,,,,,,,,,,,,,,,,,,,None,,281.3085041799583,None,281.3085041799583,None,2022-02-18-15:23:25.876474,281.30890999990515,281.62462110002525,281.30890999990515,None,None,281.30890999990515,None,282.1081474799663,None,,,,11008,0001,2022_Feb_18_1518,localizer,2021.1.3,59.2936934740512,
block,scrambled,scrambled049.bmp,,,,,0,141,141,141,,,,,,,,,,,,,,,,,,,,,,,,,,,,,,,,,,,,,,,,,,None,,282.1081474799663,None,282.1081474799663,None,2022-02-18-15:23:26.677174,282.11085059982724,282.42442199983634,282.11085059982724,282.11085059982724,None,282.11085059982724,282.11085059982724,282.924748079991,None,,,,11008,0001,2022_Feb_18_1518,localizer,2021.1.3,59.2936934740512,
block,scrambled,scrambled083.bmp,,,,,0,142,142,142,,,,,,,,,,,,,,,,,,,,,,,,,,,,,,,,,,,,,,,,,,None,,282.924748079991,None,282.924748079991,None,2022-02-18-15:23:27.491542,282.9256179998629,283.22485250001773,282.9256179998629,None,None,282.9256179998629,None,283.72501147994774,None,,,,11008,0001,2022_Feb_18_1518,localizer,2021.1.3,59.2936934740512,
block,scrambled,scrambled057.bmp,,,,,0,143,143,143,,,,,,,,,,,,,,,,,,,,,,,,,,,,,,,,,,,,,,,,,,None,,283.72501147994774,None,283.72501147994774,None,2022-02-18-15:23:28.294990,283.72784229996614,284.042502499884,283.72784229996614,283.72784229996614,None,283.72784229996614,283.72784229996614,284.54210307998585,None,,,,11008,0001,2022_Feb_18_1518,localizer,2021.1.3,59.2936934740512,
block,scrambled,scrambled012.bmp,,,,,0,144,144,144,,,,,,,,,,,,,,,,,,,,,,,,,,,,,,,,,,,,,,,,,,None,,284.54210307998585,None,284.54210307998585,None,2022-02-18-15:23:29.110079,284.5536950000096,284.8580449000001,284.5536950000096,None,None,284.5536950000096,None,285.3582621800248,None,,,,11008,0001,2022_Feb_18_1518,localizer,2021.1.3,59.2936934740512,
block,scrambled,scrambled024.bmp,,,,,0,145,145,145,,,,,,,,,,,,,,,,,,,,,,,,,,,,,,,,,,,,,,,,,,None,,285.3582621800248,None,285.3582621800248,None,2022-02-18-15:23:29.925055,285.3681059998926,285.6749070000369,285.3681059998926,None,None,285.3681059998926,None,286.1643510799855,None,,,,11008,0001,2022_Feb_18_1518,localizer,2021.1.3,59.2936934740512,
block,scrambled,scrambled082.bmp,,,,,0,146,146,146,,,,,,,,,,,,,,,,,,,,,,,,,,,,,,,,,,,,,,,,,,None,,286.1643510799855,None,286.1643510799855,None,2022-02-18-15:23:30.739057,286.1831962999422,286.49092220002785,286.1831962999422,None,None,286.1831962999422,None,286.975469179824,None,,,,11008,0001,2022_Feb_18_1518,localizer,2021.1.3,59.2936934740512,
block,scrambled,scrambled009.bmp,,,,,0,147,147,147,,,,,,,,,,,,,,,,,,,,,,,,,,,,,,,,,,,,,,,,,,None,,286.975469179824,None,286.975469179824,None,2022-02-18-15:23:31.543265,286.9868806998711,287.291196399834,286.9868806998711,None,None,286.9868806998711,None,287.7926242799964,None,,,,11008,0001,2022_Feb_18_1518,localizer,2021.1.3,59.2936934740512,
block,scrambled,scrambled072.bmp,,,,,0,148,148,148,,,,,,,,,,,,,,,,,,,,,,,,,,,,,,,,,,,,,,,,,,None,,287.7926242799964,None,287.7926242799964,None,2022-02-18-15:23:32.360398,287.79468419984914,288.10855799983256,287.79468419984914,None,None,287.79468419984914,None,288.6086157799233,None,,,,11008,0001,2022_Feb_18_1518,localizer,2021.1.3,59.2936934740512,
block,scrambled,scrambled074.bmp,,,,,0,149,149,149,,,,,,,,,,,,,,,,,,,,,,,,,,,,,,,,,,,,,,,,,,None,,288.6086157799233,None,288.6086157799233,None,2022-02-18-15:23:33.176480,288.6192921998445,288.9270184999332,288.6192921998445,None,None,288.6192921998445,None,289.42521697995255,None,,,,11008,0001,2022_Feb_18_1518,localizer,2021.1.3,59.2936934740512,
block,scrambled,scrambled004.bmp,,,,,0,150,150,150,,,,,,,,,,,,,,,,,,,,,,,,,,,,,,,,,,,,,,,,,,None,,289.42521697995255,None,289.42521697995255,None,2022-02-18-15:23:33.993191,289.43133930000477,289.74129220005125,289.43133930000477,None,None,289.43133930000477,None,290.2422385799233,None,,,,11008,0001,2022_Feb_18_1518,localizer,2021.1.3,59.2936934740512,
block_end,scrambled,scrambled010.bmp,,,,,0,151,151,151,,,,,,,,,,,,,,,,,,,,,,,,,,,,,,,,,,,,,,,,,,None,,290.2422385799233,None,290.2422385799233,None,2022-02-18-15:23:34.810044,290.2536593999248,290.5578878999222,290.2536593999248,None,None,290.2536593999248,None,291.05802198001186,None,,,,11008,0001,2022_Feb_18_1518,localizer,2021.1.3,59.2936934740512,
block_start,scenes,scenes019.bmp,,,,,0,152,152,152,,,,,,,,,,,,,,,,,,,,,,,,,,,,,,,,,,,,,,,,,,t,1.7833691998384893,291.05788829992525,None,291.05788829992525,None,2022-02-18-15:23:37.426125,292.86888329987414,293.17459429986775,292.86888329987414,None,None,292.86888329987414,None,293.67488627987916,None,,,,11008,0001,2022_Feb_18_1518,localizer,2021.1.3,59.2936934740512,
block,scenes,scenes019.bmp,,,,,0,153,153,153,,,,,,,,,,,,,,,,,,,,,,,,,,,,,,,,,,,,,,,,,,None,,293.67488627987916,None,293.67488627987916,None,2022-02-18-15:23:38.241720,293.6755394998472,293.9745992999524,293.6755394998472,None,y,293.6755394998472,None,294.47481267983096,None,0.7564864000305533,,,11008,0001,2022_Feb_18_1518,localizer,2021.1.3,59.2936934740512,
block,scenes,scenes041.bmp,,,,,0,154,154,154,,,,,,,,,,,,,,,,,,,,,,,,,,,,,,,,,,,,,,,,,,None,,294.47481267983096,None,294.47481267983096,None,2022-02-18-15:23:39.043600,294.48586050001904,294.79119969997555,294.48586050001904,294.48586050001904,None,294.48586050001904,294.48586050001904,295.29225287996235,None,,,,11008,0001,2022_Feb_18_1518,localizer,2021.1.3,59.2936934740512,
block,scenes,scenes081.bmp,,,,,0,155,155,155,,,,,,,,,,,,,,,,,,,,,,,,,,,,,,,,,,,,,,,,,,None,,295.29225287996235,None,295.29225287996235,None,2022-02-18-15:23:39.860216,295.29453519987874,295.6144954999909,295.29453519987874,None,None,295.29453519987874,None,296.1080661799293,None,,,,11008,0001,2022_Feb_18_1518,localizer,2021.1.3,59.2936934740512,
block,scenes,scenes028.bmp,,,,,0,156,156,156,,,,,,,,,,,,,,,,,,,,,,,,,,,,,,,,,,,,,,,,,,None,,296.1080661799293,None,296.1080661799293,None,2022-02-18-15:23:40.674862,296.10889849998057,296.4079189999029,296.10889849998057,None,None,296.10889849998057,None,296.9083084798418,None,,,,11008,0001,2022_Feb_18_1518,localizer,2021.1.3,59.2936934740512,
block,scenes,scenes087.bmp,,,,,0,157,157,157,,,,,,,,,,,,,,,,,,,,,,,,,,,,,,,,,,,,,,,,,,None,,296.9083084798418,None,296.9083084798418,None,2022-02-18-15:23:41.478091,296.92062209988944,297.2246798998676,296.92062209988944,296.92062209988944,None,296.92062209988944,296.92062209988944,297.72494478002193,None,,,,11008,0001,2022_Feb_18_1518,localizer,2021.1.3,59.2936934740512,
block,scenes,scenes057.bmp,,,,,0,158,158,158,,,,,,,,,,,,,,,,,,,,,,,,,,,,,,,,,,,,,,,,,,None,,297.72494478002193,None,297.72494478002193,None,2022-02-18-15:23:42.291739,297.73471329989843,298.0418396999594,297.73471329989843,None,None,297.73471329989843,None,298.5415487798397,None,,,,11008,0001,2022_Feb_18_1518,localizer,2021.1.3,59.2936934740512,
block,scenes,scenes083.bmp,,,,,0,159,159,159,,,,,,,,,,,,,,,,,,,,,,,,,,,,,,,,,,,,,,,,,,None,,298.5415487798397,None,298.5415487798397,None,2022-02-18-15:23:43.108345,298.5422133000102,298.841422899859,298.5422133000102,None,None,298.5422133000102,None,299.3414586800151,None,,,,11008,0001,2022_Feb_18_1518,localizer,2021.1.3,59.2936934740512,
block,scenes,scenes070.bmp,,,,,0,160,160,160,,,,,,,,,,,,,,,,,,,,,,,,,,,,,,,,,,,,,,,,,,None,,299.3414586800151,None,299.3414586800151,None,2022-02-18-15:23:43.910249,299.3526169999968,299.658030499937,299.3526169999968,299.3526169999968,None,299.3526169999968,299.3526169999968,300.1579545798246,None,,,,11008,0001,2022_Feb_18_1518,localizer,2021.1.3,59.2936934740512,
block,scenes,scenes005.bmp,,,,,0,161,161,161,,,,,,,,,,,,,,,,,,,,,,,,,,,,,,,,,,,,,,,,,,None,,300.1579545798246,None,300.1579545798246,None,2022-02-18-15:23:44.724876,300.1663633999415,300.4745318000205,300.1663633999415,None,None,300.1663633999415,None,300.97463658000345,None,,,,11008,0001,2022_Feb_18_1518,localizer,2021.1.3,59.2936934740512,
block,scenes,scenes050.bmp,,,,,0,162,162,162,,,,,,,,,,,,,,,,,,,,,,,,,,,,,,,,,,,,,,,,,,None,,300.97463658000345,None,300.97463658000345,None,2022-02-18-15:23:45.541388,300.97563380002975,301.29130239994265,300.97563380002975,None,None,300.97563380002975,None,301.7746350799222,None,,,,11008,0001,2022_Feb_18_1518,localizer,2021.1.3,59.2936934740512,
block,scenes,scenes014.bmp,,,,,0,163,163,163,,,,,,,,,,,,,,,,,,,,,,,,,,,,,,,,,,,,,,,,,,None,,301.7746350799222,None,301.7746350799222,None,2022-02-18-15:23:46.343428,301.7850355999544,302.0912061999552,301.7850355999544,301.7850355999544,None,301.7850355999544,301.7850355999544,302.5906732798554,None,,,,11008,0001,2022_Feb_18_1518,localizer,2021.1.3,59.2936934740512,
block,scenes,scenes012.bmp,,,,,0,164,164,164,,,,,,,,,,,,,,,,,,,,,,,,,,,,,,,,,,,,,,,,,,None,,302.5906732798554,None,302.5906732798554,None,2022-02-18-15:23:47.156615,302.5931486999616,302.907947300002,302.5931486999616,None,None,302.5931486999616,None,303.408148680022,None,,,,11008,0001,2022_Feb_18_1518,localizer,2021.1.3,59.2936934740512,
block,scenes,scenes086.bmp,,,,,0,165,165,165,,,,,,,,,,,,,,,,,,,,,,,,,,,,,,,,,,,,,,,,,,None,,303.408148680022,None,303.408148680022,None,2022-02-18-15:23:47.974943,303.41774809989147,303.72473499993794,303.41774809989147,None,None,303.41774809989147,None,304.2247965798248,None,,,,11008,0001,2022_Feb_18_1518,localizer,2021.1.3,59.2936934740512,
block_end,scenes,scenes020.bmp,,,,,0,166,166,166,,,,,,,,,,,,,,,,,,,,,,,,,,,,,,,,,,,,,,,,,,None,,304.2247965798248,None,304.2247965798248,None,2022-02-18-15:23:48.790920,304.2329271999188,304.5412806000095,304.2329271999188,None,None,304.2329271999188,None,305.0421800798737,None,,,,11008,0001,2022_Feb_18_1518,localizer,2021.1.3,59.2936934740512,
null_block,null_block,null_block.bmp,,,,,0,167,167,167,,,,,,,,,,,,,,,,,,,,,,,,,,,,,,,,,,,,,,,,,,t,1.7998736000154167,305.041413199855,None,305.041413199855,None,2022-02-18-15:23:51.425060,306.8582587799989,None,306.8582587799989,None,None,306.8582587799989,None,306.8617414999753,None,,,,11008,0001,2022_Feb_18_1518,localizer,2021.1.3,59.2936934740512,
block_start,objects,objects069.bmp,,,,,0,168,168,168,,,,,,,,,,,,,,,,,,,,,,,,,,,,,,,,,,,,,,,,,,t,1.966046999907121,318.87514239992015,None,318.87514239992015,None,2022-02-18-15:24:05.426053,320.85976739996113,321.1747002999764,320.85976739996113,None,None,320.85976739996113,None,321.67526197982954,None,,,,11008,0001,2022_Feb_18_1518,localizer,2021.1.3,59.2936934740512,
block,objects,objects003.bmp,,,,,0,169,169,169,,,,,,,,,,,,,,,,,,,,,,,,,,,,,,,,,,,,,,,,,,None,,321.67526197982954,None,321.67526197982954,None,2022-02-18-15:24:06.242249,321.6850197999738,321.99127789982595,321.6850197999738,None,None,321.6850197999738,None,322.49154227986,None,,,,11008,0001,2022_Feb_18_1518,localizer,2021.1.3,59.2936934740512,
block,objects,objects081.bmp,,,,,0,170,170,170,,,,,,,,,,,,,,,,,,,,,,,,,,,,,,,,,,,,,,,,,,None,,322.49154227986,None,322.49154227986,None,2022-02-18-15:24:07.058339,322.50043809995987,322.8081481999252,322.50043809995987,None,None,322.50043809995987,None,323.30849828002977,None,,,,11008,0001,2022_Feb_18_1518,localizer,2021.1.3,59.2936934740512,
block,objects,objects073.bmp,,,,,0,171,171,171,,,,,,,,,,,,,,,,,,,,,,,,,,,,,,,,,,,,,,,,,,None,,323.30849828002977,None,323.30849828002977,None,2022-02-18-15:24:07.875317,323.31913800002076,323.62504899990745,323.31913800002076,None,None,323.31913800002076,None,324.12474817982877,None,,,,11008,0001,2022_Feb_18_1518,localizer,2021.1.3,59.2936934740512,
block,objects,objects031.bmp,,,,,0,172,172,172,,,,,,,,,,,,,,,,,,,,,,,,,,,,,,,,,,,,,,,,,,None,,324.12474817982877,None,324.12474817982877,None,2022-02-18-15:24:08.692085,324.1332592999097,324.4418847998604,324.1332592999097,None,None,324.1332592999097,None,324.9428459798452,None,,,,11008,0001,2022_Feb_18_1518,localizer,2021.1.3,59.2936934740512,
block,objects,objects082.bmp,,,,,0,173,173,173,,,,,,,,,,,,,,,,,,,,,,,,,,,,,,,,,,,,,,,,,,None,,324.9428459798452,None,324.9428459798452,None,2022-02-18-15:24:09.511773,324.95544799999334,325.2584124999121,324.95544799999334,None,None,324.95544799999334,None,325.7582472799346,None,,,,11008,0001,2022_Feb_18_1518,localizer,2021.1.3,59.2936934740512,
block,objects,objects012.bmp,,,,,0,174,174,174,,,,,,,,,,,,,,,,,,,,,,,,,,,,,,,,,,,,,,,,,,None,,325.7582472799346,None,325.7582472799346,None,2022-02-18-15:24:10.325040,325.76879090000875,326.0760625000112,325.76879090000875,None,None,325.76879090000875,None,326.5753957798239,None,,,,11008,0001,2022_Feb_18_1518,localizer,2021.1.3,59.2936934740512,
block,objects,objects006.bmp,,,,,0,175,175,175,,,,,,,,,,,,,,,,,,,,,,,,,,,,,,,,,,,,,,,,,,None,,326.5753957798239,None,326.5753957798239,None,2022-02-18-15:24:11.143184,326.58608919987455,326.89141679997556,326.58608919987455,None,None,326.58608919987455,None,327.39182577994654,None,,,,11008,0001,2022_Feb_18_1518,localizer,2021.1.3,59.2936934740512,
block,objects,objects047.bmp,,,,,0,176,176,176,,,,,,,,,,,,,,,,,,,,,,,,,,,,,,,,,,,,,,,,,,None,,327.39182577994654,None,327.39182577994654,None,2022-02-18-15:24:11.958922,327.4016764999833,327.70810819999315,327.4016764999833,None,None,327.4016764999833,None,328.2087273799349,None,,,,11008,0001,2022_Feb_18_1518,localizer,2021.1.3,59.2936934740512,
block,objects,objects034.bmp,,,,,0,177,177,177,,,,,,,,,,,,,,,,,,,,,,,,,,,,,,,,,,,,,,,,,,None,,328.2087273799349,None,328.2087273799349,None,2022-02-18-15:24:12.776494,328.2206427999772,328.52454989985563,328.2206427999772,None,None,328.2206427999772,None,329.0251115799416,None,,,,11008,0001,2022_Feb_18_1518,localizer,2021.1.3,59.2936934740512,
block,objects,objects033.bmp,,,,,0,178,178,178,,,,,,,,,,,,,,,,,,,,,,,,,,,,,,,,,,,,,,,,,,None,,329.0251115799416,None,329.0251115799416,None,2022-02-18-15:24:13.591905,329.02594209997915,329.32506749988534,329.02594209997915,None,None,329.02594209997915,None,329.8416820798535,None,,,,11008,0001,2022_Feb_18_1518,localizer,2021.1.3,59.2936934740512,
block,objects,objects053.bmp,,,,,0,179,179,179,,,,,,,,,,,,,,,,,,,,,,,,,,,,,,,,,,,,,,,,,,None,,329.8416820798535,None,329.8416820798535,None,2022-02-18-15:24:14.408484,329.84286760003306,330.14194429991767,329.84286760003306,None,None,329.84286760003306,None,330.6423903798219,None,,,,11008,0001,2022_Feb_18_1518,localizer,2021.1.3,59.2936934740512,
block,objects,objects026.bmp,,,,,0,180,180,180,,,,,,,,,,,,,,,,,,,,,,,,,,,,,,,,,,,,,,,,,,None,,330.6423903798219,None,330.6423903798219,None,2022-02-18-15:24:15.212170,330.65332629997283,330.95804269984365,330.65332629997283,330.65332629997283,None,330.65332629997283,330.65332629997283,331.45872288001704,None,,,,11008,0001,2022_Feb_18_1518,localizer,2021.1.3,59.2936934740512,
block,objects,objects052.bmp,,,,,0,181,181,181,,,,,,,,,,,,,,,,,,,,,,,,,,,,,,,,,,,,,,,,,,None,,331.45872288001704,None,331.45872288001704,None,2022-02-18-15:24:16.026708,331.4705578999128,331.77536339988,331.4705578999128,None,None,331.4705578999128,None,332.2752766799182,None,,,,11008,0001,2022_Feb_18_1518,localizer,2021.1.3,59.2936934740512,
block_end,objects,objects015.bmp,,,,,0,182,182,182,,,,,,,,,,,,,,,,,,,,,,,,,,,,,,,,,,,,,,,,,,None,,332.2752766799182,None,332.2752766799182,None,2022-02-18-15:24:16.842034,332.28603550000116,332.5917284998577,332.28603550000116,None,None,332.28603550000116,None,333.0918517798651,None,,,,11008,0001,2022_Feb_18_1518,localizer,2021.1.3,59.2936934740512,
null_block,null_block,null_block.bmp,,,,,0,183,183,183,,,,,,,,,,,,,,,,,,,,,,,,,,,,,,,,,,,,,,,,,,t,1.7496615999843925,333.09164929995313,None,333.09164929995313,None,2022-02-18-15:24:19.424856,334.8583334799856,None,334.8583334799856,None,None,334.8583334799856,None,334.8615125999786,None,,,,11008,0001,2022_Feb_18_1518,localizer,2021.1.3,59.2936934740512,
block_start,objects,objects042.bmp,,,,,0,184,184,184,,,,,,,,,,,,,,,,,,,,,,,,,,,,,,,,,,,,,,,,,,t,1.9667935001198202,346.8748021000065,None,346.8748021000065,None,2022-02-18-15:24:33.425927,348.859239900019,349.15893359994516,348.859239900019,None,None,348.859239900019,None,349.65846127984116,None,,,,11008,0001,2022_Feb_18_1518,localizer,2021.1.3,59.2936934740512,
block,objects,objects006.bmp,,,,,0,185,185,185,,,,,,,,,,,,,,,,,,,,,,,,,,,,,,,,,,,,,,,,,,None,,349.65846127984116,None,349.65846127984116,None,2022-02-18-15:24:34.227250,349.66124089993536,349.9601573999971,349.66124089993536,349.66124089993536,None,349.66124089993536,349.66124089993536,350.47632367992776,None,,,,11008,0001,2022_Feb_18_1518,localizer,2021.1.3,59.2936934740512,
block,objects,objects088.bmp,,,,,0,186,186,186,,,,,,,,,,,,,,,,,,,,,,,,,,,,,,,,,,,,,,,,,,None,,350.47632367992776,None,350.47632367992776,None,2022-02-18-15:24:35.044245,350.48863869998604,350.79155389987864,350.48863869998604,None,None,350.48863869998604,None,351.2924516798463,None,,,,11008,0001,2022_Feb_18_1518,localizer,2021.1.3,59.2936934740512,
block,objects,objects048.bmp,,,,,0,187,187,187,,,,,,,,,,,,,,,,,,,,,,,,,,,,,,,,,,,,,,,,,,None,,351.2924516798463,None,351.2924516798463,None,2022-02-18-15:24:35.858466,351.2929086999502,351.6084302000236,351.2929086999502,None,None,351.2929086999502,None,352.10865707988853,None,,,,11008,0001,2022_Feb_18_1518,localizer,2021.1.3,59.2936934740512,
block,objects,objects046.bmp,,,,,0,188,188,188,,,,,,,,,,,,,,,,,,,,,,,,,,,,,,,,,,,,,,,,,,None,,352.10865707988853,None,352.10865707988853,None,2022-02-18-15:24:36.675665,352.11858699982986,352.42511509987526,352.11858699982986,None,None,352.11858699982986,None,352.9315361798741,None,,,,11008,0001,2022_Feb_18_1518,localizer,2021.1.3,59.2936934740512,
block,objects,objects085.bmp,,,,,0,189,189,189,,,,,,,,,,,,,,,,,,,,,,,,,,,,,,,,,,,,,,,,,,None,,352.9315361798741,None,352.9315361798741,None,2022-02-18-15:24:37.506990,352.9381860999856,353.2417460998986,352.9381860999856,None,None,352.9381860999856,None,353.74303897996435,None,,,,11008,0001,2022_Feb_18_1518,localizer,2021.1.3,59.2936934740512,
block,objects,objects081.bmp,,,,,0,190,190,190,,,,,,,,,,,,,,,,,,,,,,,,,,,,,,,,,,,,,,,,,,None,,353.74303897996435,None,353.74303897996435,None,2022-02-18-15:24:38.310977,353.74542069993913,354.05853919987567,353.74542069993913,None,None,353.74542069993913,None,354.558404080011,None,,,,11008,0001,2022_Feb_18_1518,localizer,2021.1.3,59.2936934740512,
block,objects,objects038.bmp,,,,,0,191,191,191,,,,,,,,,,,,,,,,,,,,,,,,,,,,,,,,,,,,,,,,,,None,,354.558404080011,None,354.558404080011,None,2022-02-18-15:24:39.125439,354.5619162998628,354.87463429989293,354.5619162998628,None,None,354.5619162998628,None,355.3754109799862,None,,,,11008,0001,2022_Feb_18_1518,localizer,2021.1.3,59.2936934740512,
block,objects,objects005.bmp,,,,,0,192,192,192,,,,,,,,,,,,,,,,,,,,,,,,,,,,,,,,,,,,,,,,,,None,,355.3754109799862,None,355.3754109799862,None,2022-02-18-15:24:39.942413,355.3861243999563,355.6918895000126,355.3861243999563,None,None,355.3861243999563,None,356.1923284799792,None,,,,11008,0001,2022_Feb_18_1518,localizer,2021.1.3,59.2936934740512,
block,objects,objects073.bmp,,,,,0,193,193,193,,,,,,,,,,,,,,,,,,,,,,,,,,,,,,,,,,,,,,,,,,None,,356.1923284799792,None,356.1923284799792,None,2022-02-18-15:24:40.760226,356.1927191999275,356.4926384999417,356.1927191999275,None,None,356.1927191999275,None,357.0084536798764,None,,,,11008,0001,2022_Feb_18_1518,localizer,2021.1.3,59.2936934740512,
block,objects,objects032.bmp,,,,,0,194,194,194,,,,,,,,,,,,,,,,,,,,,,,,,,,,,,,,,,,,,,,,,,None,,357.0084536798764,None,357.0084536798764,None,2022-02-18-15:24:41.575251,357.01721569988877,357.3251684999559,357.01721569988877,None,None,357.01721569988877,None,357.8149021800142,None,,,,11008,0001,2022_Feb_18_1518,localizer,2021.1.3,59.2936934740512,
block,objects,objects027.bmp,,,,,0,195,195,195,,,,,,,,,,,,,,,,,,,,,,,,,,,,,,,,,,,,,,,,,,None,,357.8149021800142,None,357.8149021800142,None,2022-02-18-15:24:42.389175,357.82384139997885,358.12512869993225,357.82384139997885,None,None,357.82384139997885,None,358.6265066798311,None,,,,11008,0001,2022_Feb_18_1518,localizer,2021.1.3,59.2936934740512,
block,objects,objects022.bmp,,,,,0,196,196,196,,,,,,,,,,,,,,,,,,,,,,,,,,,,,,,,,,,,,,,,,,None,,358.6265066798311,None,358.6265066798311,None,2022-02-18-15:24:43.194411,358.63868930004537,358.9417854999192,358.63868930004537,None,None,358.63868930004537,None,359.44234157996254,None,,,,11008,0001,2022_Feb_18_1518,localizer,2021.1.3,59.2936934740512,
block,objects,objects056.bmp,,,,,0,197,197,197,,,,,,,,,,,,,,,,,,,,,,,,,,,,,,,,,,,,,,,,,,None,,359.44234157996254,None,359.44234157996254,None,2022-02-18-15:24:44.010130,359.4530733998399,359.758740299847,359.4530733998399,None,None,359.4530733998399,None,360.25879158000464,None,,,,11008,0001,2022_Feb_18_1518,localizer,2021.1.3,59.2936934740512,
block_end,objects,objects040.bmp,,,,,0,198,198,198,,,,,,,,,,,,,,,,,,,,,,,,,,,,,,,,,,,,,,,,,,None,,360.25879158000464,None,360.25879158000464,None,2022-02-18-15:24:44.826580,360.2593618000392,360.55866579990834,360.2593618000392,None,None,360.2593618000392,None,361.05983847999016,None,,,,11008,0001,2022_Feb_18_1518,localizer,2021.1.3,59.2936934740512,
block_start,scenes,scenes086.bmp,,,,,0,199,199,199,,,,,,,,,,,,,,,,,,,,,,,,,,,,,,,,,,,,,,,,,,t,1.7795718000270426,361.0615946999751,None,361.0615946999751,None,2022-02-18-15:24:47.426662,362.85966750001535,363.17496019997634,362.85966750001535,None,None,362.85966750001535,None,363.65939427996057,None,,,,11008,0001,2022_Feb_18_1518,localizer,2021.1.3,59.2936934740512,
block,scenes,scenes020.bmp,,,,,0,200,200,200,,,,,,,,,,,,,,,,,,,,,,,,,,,,,,,,,,,,,,,,,,None,,363.65939427996057,None,363.65939427996057,None,2022-02-18-15:24:48.229312,363.66355629987083,363.9751128000207,363.66355629987083,363.66355629987083,None,363.66355629987083,363.66355629987083,364.4754870798439,None,,,,11008,0001,2022_Feb_18_1518,localizer,2021.1.3,59.2936934740512,
block,scenes,scenes089.bmp,,,,,0,201,201,201,,,,,,,,,,,,,,,,,,,,,,,,,,,,,,,,,,,,,,,,,,None,,364.4754870798439,None,364.4754870798439,None,2022-02-18-15:24:49.043474,364.4763398000505,364.7754881000146,364.4763398000505,None,None,364.4763398000505,None,365.2755790798925,None,,,,11008,0001,2022_Feb_18_1518,localizer,2021.1.3,59.2936934740512,
block,scenes,scenes090.bmp,,,,,0,202,202,202,,,,,,,,,,,,,,,,,,,,,,,,,,,,,,,,,,,,,,,,,,None,,365.2755790798925,None,365.2755790798925,None,2022-02-18-15:24:49.845569,365.2892201000359,365.59197139996104,365.2892201000359,365.2892201000359,None,365.2892201000359,365.2892201000359,366.0921909798868,None,,,,11008,0001,2022_Feb_18_1518,localizer,2021.1.3,59.2936934740512,
block,scenes,scenes059.bmp,,,,,0,203,203,203,,,,,,,,,,,,,,,,,,,,,,,,,,,,,,,,,,,,,,,,,,None,,366.0921909798868,None,366.0921909798868,None,2022-02-18-15:24:50.659195,366.1020025999751,366.4088055000175,366.1020025999751,None,None,366.1020025999751,None,366.90873197992335,None,,,,11008,0001,2022_Feb_18_1518,localizer,2021.1.3,59.2936934740512,
block,scenes,scenes076.bmp,,,,,0,204,204,204,,,,,,,,,,,,,,,,,,,,,,,,,,,,,,,,,,,,,,,,,,None,,366.90873197992335,None,366.90873197992335,None,2022-02-18-15:24:51.482695,366.929053099826,367.24173949984834,366.929053099826,None,None,366.929053099826,None,367.72535608001056,None,,,,11008,0001,2022_Feb_18_1518,localizer,2021.1.3,59.2936934740512,
block,scenes,scenes082.bmp,,,,,0,205,205,205,,,,,,,,,,,,,,,,,,,,,,,,,,,,,,,,,,,,,,,,,,None,,367.72535608001056,None,367.72535608001056,None,2022-02-18-15:24:52.293358,367.73637119983323,368.0419260999188,367.73637119983323,None,None,367.73637119983323,None,368.54238377991135,None,,,,11008,0001,2022_Feb_18_1518,localizer,2021.1.3,59.2936934740512,
block,scenes,scenes061.bmp,,,,,0,206,206,206,,,,,,,,,,,,,,,,,,,,,,,,,,,,,,,,,,,,,,,,,,None,,368.54238377991135,None,368.54238377991135,None,2022-02-18-15:24:53.110165,368.55418159998953,368.8587032998912,368.55418159998953,None,None,368.55418159998953,None,369.35884327990937,None,,,,11008,0001,2022_Feb_18_1518,localizer,2021.1.3,59.2936934740512,
block,scenes,scenes030.bmp,,,,,0,207,207,207,,,,,,,,,,,,,,,,,,,,,,,,,,,,,,,,,,,,,,,,,,None,,369.35884327990937,None,369.35884327990937,None,2022-02-18-15:24:53.926836,369.35951139987446,369.6587328999303,369.35951139987446,None,None,369.35951139987446,None,370.15880758003334,None,,,,11008,0001,2022_Feb_18_1518,localizer,2021.1.3,59.2936934740512,
block,scenes,scenes036.bmp,,,,,0,208,208,208,,,,,,,,,,,,,,,,,,,,,,,,,,,,,,,,,,,,,,,,,,None,,370.15880758003334,None,370.15880758003334,None,2022-02-18-15:24:54.727590,370.1617309998255,370.4748219999019,370.1617309998255,370.1617309998255,None,370.1617309998255,370.1617309998255,370.9752992798109,None,,,,11008,0001,2022_Feb_18_1518,localizer,2021.1.3,59.2936934740512,
block,scenes,scenes070.bmp,,,,,0,209,209,209,,,,,,,,,,,,,,,,,,,,,,,,,,,,,,,,,,,,,,,,,,None,,370.9752992798109,None,370.9752992798109,None,2022-02-18-15:24:55.542341,370.9760516998358,371.27526729996316,370.9760516998358,None,None,370.9760516998358,None,371.77534477985466,None,,,,11008,0001,2022_Feb_18_1518,localizer,2021.1.3,59.2936934740512,
block,scenes,scenes092.bmp,,,,,0,210,210,210,,,,,,,,,,,,,,,,,,,,,,,,,,,,,,,,,,,,,,,,,,None,,371.77534477985466,None,371.77534477985466,None,2022-02-18-15:24:56.345297,371.7780647999607,372.0924360998906,371.7780647999607,371.7780647999607,None,371.7780647999607,371.7780647999607,372.59266847991387,None,,,,11008,0001,2022_Feb_18_1518,localizer,2021.1.3,59.2936934740512,
block,scenes,scenes032.bmp,,,,,0,211,211,211,,,,,,,,,,,,,,,,,,,,,,,,,,,,,,,,,,,,,,,,,,None,,372.59266847991387,None,372.59266847991387,None,2022-02-18-15:24:57.160644,372.60419029998593,372.9083755998872,372.60419029998593,None,None,372.60419029998593,None,373.4088761798572,None,,,,11008,0001,2022_Feb_18_1518,localizer,2021.1.3,59.2936934740512,
block,scenes,scenes039.bmp,,,,,0,212,212,212,,,,,,,,,,,,,,,,,,,,,,,,,,,,,,,,,,,,,,,,,,None,,373.4088761798572,None,373.4088761798572,None,2022-02-18-15:24:57.975669,373.4188389000483,373.7250693999231,373.4188389000483,None,None,373.4188389000483,None,374.22654957990164,None,,,,11008,0001,2022_Feb_18_1518,localizer,2021.1.3,59.2936934740512,
block_end,scenes,scenes049.bmp,,,,,0,213,213,213,,,,,,,,,,,,,,,,,,,,,,,,,,,,,,,,,,,,,,,,,,None,,374.22654957990164,None,374.22654957990164,None,2022-02-18-15:24:58.794886,374.2361593998503,374.5418905999977,374.2361593998503,None,None,374.2361593998503,None,375.0424407798797,None,,,,11008,0001,2022_Feb_18_1518,localizer,2021.1.3,59.2936934740512,
block_start,faces,faces053.bmp,,,,,0,214,214,214,,,,,,,,,,,,,,,,,,,,,,,,,,,,,,,,,,,,,,,,,,t,1.7988425001967698,375.0424627000466,None,375.0424627000466,None,2022-02-18-15:25:01.424018,376.86529450002126,377.17518959986046,376.86529450002126,None,None,376.86529450002126,None,377.67549958000893,None,,,,11008,0001,2022_Feb_18_1518,localizer,2021.1.3,59.2936934740512,
block,faces,faces053.bmp,,,,,0,215,215,215,,,,,,,,,,,,,,,,,,,,,,,,,,,,,,,,,,,,,,,,,,None,,377.67549958000893,None,377.67549958000893,None,2022-02-18-15:25:02.242292,377.6761560998857,377.97459300002083,377.6761560998857,None,y,377.6761560998857,None,378.4753452799283,None,0.4772723999340087,,,11008,0001,2022_Feb_18_1518,localizer,2021.1.3,59.2936934740512,
block,faces,faces043.bmp,,,,,0,216,216,216,,,,,,,,,,,,,,,,,,,,,,,,,,,,,,,,,,,,,,,,,,None,,378.4753452799283,None,378.4753452799283,None,2022-02-18-15:25:03.043140,378.4862803998403,378.7919958999846,378.4862803998403,378.4862803998403,None,378.4862803998403,378.4862803998403,379.2927186800167,None,,,,11008,0001,2022_Feb_18_1518,localizer,2021.1.3,59.2936934740512,
block,faces,faces061.bmp,,,,,0,217,217,217,,,,,,,,,,,,,,,,,,,,,,,,,,,,,,,,,,,,,,,,,,None,,379.2927186800167,None,379.2927186800167,None,2022-02-18-15:25:03.859062,379.2930091000162,379.5922769999597,379.2930091000162,None,None,379.2930091000162,None,380.0933578798082,None,,,,11008,0001,2022_Feb_18_1518,localizer,2021.1.3,59.2936934740512,
block,faces,faces018.bmp,,,,,0,218,218,218,,,,,,,,,,,,,,,,,,,,,,,,,,,,,,,,,,,,,,,,,,None,,380.0933578798082,None,380.0933578798082,None,2022-02-18-15:25:04.665155,380.10879529989325,380.4087349998299,380.10879529989325,380.10879529989325,None,380.10879529989325,380.10879529989325,380.90857677990573,None,,,,11008,0001,2022_Feb_18_1518,localizer,2021.1.3,59.2936934740512,
block,faces,faces045.bmp,,,,,0,219,219,219,,,,,,,,,,,,,,,,,,,,,,,,,,,,,,,,,,,,,,,,,,None,,380.90857677990573,None,380.90857677990573,None,2022-02-18-15:25:05.475541,380.9093657999765,381.20849450002424,380.9093657999765,None,None,380.9093657999765,None,381.7109472799581,None,,,,11008,0001,2022_Feb_18_1518,localizer,2021.1.3,59.2936934740512,
block,faces,faces035.bmp,,,,,0,220,220,220,,,,,,,,,,,,,,,,,,,,,,,,,,,,,,,,,,,,,,,,,,None,,381.7109472799581,None,381.7109472799581,None,2022-02-18-15:25:06.283701,381.71835820004344,382.02588750002906,381.71835820004344,381.71835820004344,None,381.71835820004344,381.71835820004344,382.5258652799763,None,,,,11008,0001,2022_Feb_18_1518,localizer,2021.1.3,59.2936934740512,
block,faces,faces060.bmp,,,,,0,221,221,221,,,,,,,,,,,,,,,,,,,,,,,,,,,,,,,,,,,,,,,,,,None,,382.5258652799763,None,382.5258652799763,None,2022-02-18-15:25:07.094072,382.5280691999942,382.8425320999231,382.5280691999942,None,None,382.5280691999942,None,383.3421198799275,None,,,,11008,0001,2022_Feb_18_1518,localizer,2021.1.3,59.2936934740512,
block,faces,faces038.bmp,,,,,0,222,222,222,,,,,,,,,,,,,,,,,,,,,,,,,,,,,,,,,,,,,,,,,,None,,383.3421198799275,None,383.3421198799275,None,2022-02-18-15:25:07.908916,383.3427217998542,383.64186619990505,383.3427217998542,None,None,383.3427217998542,None,384.14232618003155,None,,,,11008,0001,2022_Feb_18_1518,localizer,2021.1.3,59.2936934740512,
block,faces,faces031.bmp,,,,,0,223,223,223,,,,,,,,,,,,,,,,,,,,,,,,,,,,,,,,,,,,,,,,,,None,,384.14232618003155,None,384.14232618003155,None,2022-02-18-15:25:08.710117,384.14357930002734,384.45847219997086,384.14357930002734,384.14357930002734,None,384.14357930002734,384.14357930002734,384.95855358000847,None,,,,11008,0001,2022_Feb_18_1518,localizer,2021.1.3,59.2936934740512,
block,faces,faces065.bmp,,,,,0,224,224,224,,,,,,,,,,,,,,,,,,,,,,,,,,,,,,,,,,,,,,,,,,None,,384.95855358000847,None,384.95855358000847,None,2022-02-18-15:25:09.525352,384.9593785998877,385.25854529999197,384.9593785998877,None,None,384.9593785998877,None,385.75897187986413,None,,,,11008,0001,2022_Feb_18_1518,localizer,2021.1.3,59.2936934740512,
block,faces,faces051.bmp,,,,,0,225,225,225,,,,,,,,,,,,,,,,,,,,,,,,,,,,,,,,,,,,,,,,,,None,,385.75897187986413,None,385.75897187986413,None,2022-02-18-15:25:10.327971,385.7725430999417,386.07549749989994,385.7725430999417,385.7725430999417,None,385.7725430999417,385.7725430999417,386.5750430798158,None,,,,11008,0001,2022_Feb_18_1518,localizer,2021.1.3,59.2936934740512,
block,faces,faces027.bmp,,,,,0,226,226,226,,,,,,,,,,,,,,,,,,,,,,,,,,,,,,,,,,,,,,,,,,None,,386.5750430798158,None,386.5750430798158,None,2022-02-18-15:25:11.141844,386.57666899985634,386.8918622999918,386.57666899985634,None,None,386.57666899985634,None,387.3761387799401,None,,,,11008,0001,2022_Feb_18_1518,localizer,2021.1.3,59.2936934740512,
block,faces,faces029.bmp,,,,,0,227,227,227,,,,,,,,,,,,,,,,,,,,,,,,,,,,,,,,,,,,,,,,,,None,,387.3761387799401,None,387.3761387799401,None,2022-02-18-15:25:11.946118,387.3902378999628,387.6925613998901,387.3902378999628,387.3902378999628,None,387.3902378999628,387.3902378999628,388.1927028798033,None,,,,11008,0001,2022_Feb_18_1518,localizer,2021.1.3,59.2936934740512,
block_end,faces,faces063.bmp,,,,,0,228,228,228,,,,,,,,,,,,,,,,,,,,,,,,,,,,,,,,,,,,,,,,,,None,,388.1927028798033,None,388.1927028798033,None,2022-02-18-15:25:12.760643,388.2044504999649,388.5088080998976,388.2044504999649,None,None,388.2044504999649,None,389.00869657997976,None,,,,11008,0001,2022_Feb_18_1518,localizer,2021.1.3,59.2936934740512,
block_start,scrambled,scrambled063.bmp,,,,,0,229,229,229,,,,,,,,,,,,,,,,,,,,,,,,,,,,,,,,,,,,,,,,,,t,1.832884900039062,389.0085083998274,None,389.0085083998274,None,2022-02-18-15:25:15.428111,390.87330029997975,391.1757749998942,390.87330029997975,None,None,390.87330029997975,None,391.6759307800327,None,,,,11008,0001,2022_Feb_18_1518,localizer,2021.1.3,59.2936934740512,
block,scrambled,scrambled055.bmp,,,,,0,230,230,230,,,,,,,,,,,,,,,,,,,,,,,,,,,,,,,,,,,,,,,,,,None,,391.6759307800327,None,391.6759307800327,None,2022-02-18-15:25:16.243823,391.68660589982755,391.9924675000366,391.68660589982755,None,None,391.68660589982755,None,392.4925854798872,None,,,,11008,0001,2022_Feb_18_1518,localizer,2021.1.3,59.2936934740512,
block,scrambled,scrambled044.bmp,,,,,0,231,231,231,,,,,,,,,,,,,,,,,,,,,,,,,,,,,,,,,,,,,,,,,,None,,392.4925854798872,None,392.4925854798872,None,2022-02-18-15:25:17.060375,392.5032784000505,392.80910949991085,392.5032784000505,None,None,392.5032784000505,None,393.3092026798055,None,,,,11008,0001,2022_Feb_18_1518,localizer,2021.1.3,59.2936934740512,
block,scrambled,scrambled031.bmp,,,,,0,232,232,232,,,,,,,,,,,,,,,,,,,,,,,,,,,,,,,,,,,,,,,,,,None,,393.3092026798055,None,393.3092026798055,None,2022-02-18-15:25:17.877098,393.3098879000172,393.6090909000486,393.3098879000172,None,None,393.3098879000172,None,394.10895507982934,None,,,,11008,0001,2022_Feb_18_1518,localizer,2021.1.3,59.2936934740512,
block,scrambled,scrambled041.bmp,,,,,0,233,233,233,,,,,,,,,,,,,,,,,,,,,,,,,,,,,,,,,,,,,,,,,,None,,394.10895507982934,None,394.10895507982934,None,2022-02-18-15:25:18.677742,394.1116744999308,394.4254478998482,394.1116744999308,394.1116744999308,None,394.1116744999308,394.1116744999308,394.92583347987386,None,,,,11008,0001,2022_Feb_18_1518,localizer,2021.1.3,59.2936934740512,
block,scrambled,scrambled033.bmp,,,,,0,234,234,234,,,,,,,,,,,,,,,,,,,,,,,,,,,,,,,,,,,,,,,,,,None,,394.92583347987386,None,394.92583347987386,None,2022-02-18-15:25:19.493717,394.93659319984727,395.2423604999203,394.93659319984727,None,None,394.93659319984727,None,395.7423710798845,None,,,,11008,0001,2022_Feb_18_1518,localizer,2021.1.3,59.2936934740512,
block,scrambled,scrambled076.bmp,,,,,0,235,235,235,,,,,,,,,,,,,,,,,,,,,,,,,,,,,,,,,,,,,,,,,,None,,395.7423710798845,None,395.7423710798845,None,2022-02-18-15:25:20.310367,395.7431091000326,396.0432494999841,395.7431091000326,None,None,395.7431091000326,None,396.5428603798151,None,,,,11008,0001,2022_Feb_18_1518,localizer,2021.1.3,59.2936934740512,
block,scrambled,scrambled062.bmp,,,,,0,236,236,236,,,,,,,,,,,,,,,,,,,,,,,,,,,,,,,,,,,,,,,,,,None,,396.5428603798151,None,396.5428603798151,None,2022-02-18-15:25:21.112544,396.555325999856,396.85858649993315,396.555325999856,396.555325999856,None,396.555325999856,396.555325999856,397.35934757990765,None,,,,11008,0001,2022_Feb_18_1518,localizer,2021.1.3,59.2936934740512,
block,scrambled,scrambled025.bmp,,,,,0,237,237,237,,,,,,,,,,,,,,,,,,,,,,,,,,,,,,,,,,,,,,,,,,None,,397.35934757990765,None,397.35934757990765,None,2022-02-18-15:25:21.927271,397.3712357999757,397.67598779988475,397.3712357999757,None,None,397.3712357999757,None,398.1763614799362,None,,,,11008,0001,2022_Feb_18_1518,localizer,2021.1.3,59.2936934740512,
block,scrambled,scrambled068.bmp,,,,,0,238,238,238,,,,,,,,,,,,,,,,,,,,,,,,,,,,,,,,,,,,,,,,,,None,,398.1763614799362,None,398.1763614799362,None,2022-02-18-15:25:22.744340,398.18851739983074,398.49197099986486,398.18851739983074,None,None,398.18851739983074,None,398.99249587990346,None,,,,11008,0001,2022_Feb_18_1518,localizer,2021.1.3,59.2936934740512,
block,scrambled,scrambled060.bmp,,,,,0,239,239,239,,,,,,,,,,,,,,,,,,,,,,,,,,,,,,,,,,,,,,,,,,None,,398.99249587990346,None,398.99249587990346,None,2022-02-18-15:25:23.560282,399.00323319993913,399.3089878000319,399.00323319993913,None,None,399.00323319993913,None,399.8091636799742,None,,,,11008,0001,2022_Feb_18_1518,localizer,2021.1.3,59.2936934740512,
block,scrambled,scrambled046.bmp,,,,,0,240,240,240,,,,,,,,,,,,,,,,,,,,,,,,,,,,,,,,,,,,,,,,,,None,,399.8091636799742,None,399.8091636799742,None,2022-02-18-15:25:24.377000,399.8150565000251,400.125488499878,399.8150565000251,None,None,399.8150565000251,None,400.62546727983283,None,,,,11008,0001,2022_Feb_18_1518,localizer,2021.1.3,59.2936934740512,
block,scrambled,scrambled085.bmp,,,,,0,241,241,241,,,,,,,,,,,,,,,,,,,,,,,,,,,,,,,,,,,,,,,,,,None,,400.62546727983283,None,400.62546727983283,None,2022-02-18-15:25:25.192477,400.63564569992013,400.94776819995604,400.63564569992013,None,None,400.63564569992013,None,401.4420314798132,None,,,,11008,0001,2022_Feb_18_1518,localizer,2021.1.3,59.2936934740512,
block,scrambled,scrambled048.bmp,,,,,0,242,242,242,,,,,,,,,,,,,,,,,,,,,,,,,,,,,,,,,,,,,,,,,,None,,401.4420314798132,None,401.4420314798132,None,2022-02-18-15:25:26.008831,401.4499190999195,401.75905820005573,401.4499190999195,None,None,401.4499190999195,None,402.2599064799957,None,,,,11008,0001,2022_Feb_18_1518,localizer,2021.1.3,59.2936934740512,
block_end,scrambled,scrambled067.bmp,,,,,0,243,243,243,,,,,,,,,,,,,,,,,,,,,,,,,,,,,,,,,,,,,,,,,,None,,402.2599064799957,None,402.2599064799957,None,2022-02-18-15:25:26.828817,402.27371599990875,402.57536350004375,402.27371599990875,None,None,402.27371599990875,None,403.0756715798285,None,,,,11008,0001,2022_Feb_18_1518,localizer,2021.1.3,59.2936934740512,
,,,,,,,,,,,,,,,,,,,,,,,,,,,,,,,,,,,,,,,,,,,,,,,,,,,,,,,,,,,,,,,,,,,,,403.081693300046,None,,,,,,,
