block_type,condition,img_name,Button.thisRepN,Button.thisTrialN,Button.thisN,Button.thisIndex,trials.thisRepN,trials.thisTrialN,trials.thisN,trials.thisIndex,Ready_experimenter_text.started,Ready_experimenter_text.stopped,Ready_experimenter_resp.keys,Ready_experimenter_resp.rt,Ready_experimenter_resp.started,Ready_experimenter_resp.stopped,Alignment_background.started,Alignment_background.stopped,Alignment_image.started,Alignment_image.stopped,Alignment_resp.keys,Alignment_resp.rt,Alignment_resp.started,Alignment_resp.stopped,Button_text.started,Button_text.stopped,Index_text.started,Index_text.stopped,Index_resp.keys,Index_resp.rt,Index_resp.started,Index_resp.stopped,Middle_text.started,Middle_text.stopped,Middle_resp.keys,Middle_resp.rt,Middle_resp.started,Middle_resp.stopped,Repeat_text.started,Repeat_text.stopped,Repeat_resp.keys,Repeat_resp.corr,Repeat_resp.rt,Repeat_resp.started,Repeat_resp.stopped,instruction_text.started,instruction_text.stopped,key_resp.keys,key_resp.rt,key_resp.started,key_resp.stopped,scanner_t.keys,scanner_t.rt,scanner_t.started,scanner_t.stopped,fixation_wait_for_t.started,fixation_wait_for_t.stopped,real_timestamp_trial_start,image.started,image.stopped,fixation.started,fixation.stopped,repeat_response.keys,repeat_response.started,repeat_response.stopped,fixation_null.started,fixation_null.stopped,repeat_response.rt,end_text.started,end_text.stopped,participant,run,date,expName,psychopyVersion,frameRate,
,,,,,,,,,,,8.610603599998285,None,return,47.066197699998156,8.610603599998285,None,,,,,,,,,,,,,,,,,,,,,,,,,,,,,,,,,,,,,,,,,,,,,,,,,,,,,,,11013,0001,2022_Apr_27_1139,localizer,2021.1.3,59.27720927609605,
,,,,,,,,,,,,,,,,,55.71952820000297,None,55.71952820000297,None,return,7.072157699993113,55.71952820000297,None,,,,,,,,,,,,,,,,,,,,,,,,,,,,,,,,,,,,,,,,,,,,,,,11013,0001,2022_Apr_27_1139,localizer,2021.1.3,59.27720927609605,
,,,0,0,0,0,,,,,,,,,,,,,,,,,,,62.81526410000515,None,63.82646779999777,None,y,3.5715663000009954,63.82646779999777,None,67.43032480000693,None,b,1.7724534000008134,67.43032480000693,None,69.22807779999857,None,n,0,34.79258190000837,69.22807779999857,None,,,,,,,,,,,,,,,,,,,,,,,,,,11013,0001,2022_Apr_27_1139,localizer,2021.1.3,59.27720927609605,
,,,,,,,,,,,,,,,,,,,,,,,,,,,,,,,,,,,,,,,,,,,,,,104.04489390000526,None,y,17.457056600003853,104.04489390000526,None,,,,,,,,,,,,,,,,,,,,11013,0001,2022_Apr_27_1139,localizer,2021.1.3,59.27720927609605,
null_block,null_block,null_block.bmp,,,,,0,0,0,0,,,,,,,,,,,,,,,,,,,,,,,,,,,,,,,,,,,,,,,,,,t,15.768842799996492,121.58802450000076,None,121.58802450000076,None,2022-04-27-11:41:52.204685,137.3944928599987,None,137.3944928599987,None,None,137.3944928599987,None,137.39277610000863,None,,,,11013,0001,2022_Apr_27_1139,localizer,2021.1.3,59.27720927609605,
block_start,scenes,scenes076.bmp,,,,,0,1,1,1,,,,,,,,,,,,,,,,,,,,,,,,,,,,,,,,,,,,,,,,,,t,1.9565122000058182,149.40021180000622,None,149.40021180000622,None,2022-04-27-11:42:06.206245,151.38760299999558,151.69415680000384,151.38760299999558,None,None,151.38760299999558,None,152.1944472800038,None,,,,11013,0001,2022_Apr_27_1139,localizer,2021.1.3,59.27720927609605,
block,scenes,scenes005.bmp,,,,,0,2,2,2,,,,,,,,,,,,,,,,,,,,,,,,,,,,,,,,,,,,,,,,,,None,,152.1944472800038,None,152.1944472800038,None,2022-04-27-11:42:07.023353,152.20433550000598,152.51073320000432,152.20433550000598,None,None,152.20433550000598,None,153.01094938000605,None,,,,11013,0001,2022_Apr_27_1139,localizer,2021.1.3,59.27720927609605,
block,scenes,scenes057.bmp,,,,,0,3,3,3,,,,,,,,,,,,,,,,,,,,,,,,,,,,,,,,,,,,,,,,,,None,,153.01094938000605,None,153.01094938000605,None,2022-04-27-11:42:07.838784,153.0194690000062,153.32741220000025,153.0194690000062,None,None,153.0194690000062,None,153.82782477999862,None,,,,11013,0001,2022_Apr_27_1139,localizer,2021.1.3,59.27720927609605,
block,scenes,scenes066.bmp,,,,,0,4,4,4,,,,,,,,,,,,,,,,,,,,,,,,,,,,,,,,,,,,,,,,,,None,,153.82782477999862,None,153.82782477999862,None,2022-04-27-11:42:08.655901,153.837698000003,154.1441341000027,153.837698000003,None,None,153.837698000003,None,154.64470657999627,None,,,,11013,0001,2022_Apr_27_1139,localizer,2021.1.3,59.27720927609605,
block,scenes,scenes033.bmp,,,,,0,5,5,5,,,,,,,,,,,,,,,,,,,,,,,,,,,,,,,,,,,,,,,,,,None,,154.64470657999627,None,154.64470657999627,None,2022-04-27-11:42:09.472816,154.6545041000063,154.96035670000128,154.6545041000063,None,None,154.6545041000063,None,155.46098228000628,None,,,,11013,0001,2022_Apr_27_1139,localizer,2021.1.3,59.27720927609605,
block,scenes,scenes017.bmp,,,,,0,6,6,6,,,,,,,,,,,,,,,,,,,,,,,,,,,,,,,,,,,,,,,,,,None,,155.46098228000628,None,155.46098228000628,None,2022-04-27-11:42:10.289001,155.46965929999715,155.77739109999675,155.46965929999715,None,None,155.46965929999715,None,156.2780639799981,None,,,,11013,0001,2022_Apr_27_1139,localizer,2021.1.3,59.27720927609605,
block,scenes,scenes070.bmp,,,,,0,7,7,7,,,,,,,,,,,,,,,,,,,,,,,,,,,,,,,,,,,,,,,,,,None,,156.2780639799981,None,156.2780639799981,None,2022-04-27-11:42:11.106182,156.28761709999526,156.5940988000075,156.28761709999526,None,None,156.28761709999526,None,157.09475687999802,None,,,,11013,0001,2022_Apr_27_1139,localizer,2021.1.3,59.27720927609605,
block,scenes,scenes045.bmp,,,,,0,8,8,8,,,,,,,,,,,,,,,,,,,,,,,,,,,,,,,,,,,,,,,,,,None,,157.09475687999802,None,157.09475687999802,None,2022-04-27-11:42:11.922798,157.10454090000712,157.4127140000055,157.10454090000712,None,None,157.10454090000712,None,157.91094818000565,None,,,,11013,0001,2022_Apr_27_1139,localizer,2021.1.3,59.27720927609605,
block,scenes,scenes018.bmp,,,,,0,9,9,9,,,,,,,,,,,,,,,,,,,,,,,,,,,,,,,,,,,,,,,,,,None,,157.91094818000565,None,157.91094818000565,None,2022-04-27-11:42:12.739031,157.91904360000626,158.22725640000135,157.91904360000626,None,None,157.91904360000626,None,158.72772888000472,None,,,,11013,0001,2022_Apr_27_1139,localizer,2021.1.3,59.27720927609605,
block,scenes,scenes073.bmp,,,,,0,10,10,10,,,,,,,,,,,,,,,,,,,,,,,,,,,,,,,,,,,,,,,,,,None,,158.72772888000472,None,158.72772888000472,None,2022-04-27-11:42:13.556010,158.73654369999713,159.04410220000136,158.73654369999713,None,None,158.73654369999713,None,159.5446674799983,None,,,,11013,0001,2022_Apr_27_1139,localizer,2021.1.3,59.27720927609605,
block,scenes,scenes088.bmp,,,,,0,11,11,11,,,,,,,,,,,,,,,,,,,,,,,,,,,,,,,,,,,,,,,,,,None,,159.5446674799983,None,159.5446674799983,None,2022-04-27-11:42:14.372742,159.55463480000617,159.8608069000038,159.55463480000617,None,None,159.55463480000617,None,160.36118657999904,None,,,,11013,0001,2022_Apr_27_1139,localizer,2021.1.3,59.27720927609605,
block,scenes,scenes004.bmp,,,,,0,12,12,12,,,,,,,,,,,,,,,,,,,,,,,,,,,,,,,,,,,,,,,,,,None,,160.36118657999904,None,160.36118657999904,None,2022-04-27-11:42:15.189241,160.3758472000045,160.6776935999951,160.3758472000045,None,None,160.3758472000045,None,161.17799548000912,None,,,,11013,0001,2022_Apr_27_1139,localizer,2021.1.3,59.27720927609605,
block,scenes,scenes009.bmp,,,,,0,13,13,13,,,,,,,,,,,,,,,,,,,,,,,,,,,,,,,,,,,,,,,,,,None,,161.17799548000912,None,161.17799548000912,None,2022-04-27-11:42:16.006125,161.186956000005,161.49418510000396,161.186956000005,None,None,161.186956000005,None,161.99426488000026,None,,,,11013,0001,2022_Apr_27_1139,localizer,2021.1.3,59.27720927609605,
block,scenes,scenes049.bmp,,,,,0,14,14,14,,,,,,,,,,,,,,,,,,,,,,,,,,,,,,,,,,,,,,,,,,None,,161.99426488000026,None,161.99426488000026,None,2022-04-27-11:42:16.821982,162.00206700000854,162.31110360000457,162.00206700000854,None,None,162.00206700000854,None,162.8113489799958,None,,,,11013,0001,2022_Apr_27_1139,localizer,2021.1.3,59.27720927609605,
block_end,scenes,scenes020.bmp,,,,,0,15,15,15,,,,,,,,,,,,,,,,,,,,,,,,,,,,,,,,,,,,,,,,,,None,,162.8113489799958,None,162.8113489799958,None,2022-04-27-11:42:17.639478,162.82113680000475,163.12766720000945,162.82113680000475,None,None,162.82113680000475,None,163.6280223800073,None,,,,11013,0001,2022_Apr_27_1139,localizer,2021.1.3,59.27720927609605,
block_start,scrambled,scrambled070.bmp,,,,,0,16,16,16,,,,,,,,,,,,,,,,,,,,,,,,,,,,,,,,,,,,,,,,,,t,1.7293781000043964,163.62750000000233,None,163.62750000000233,None,2022-04-27-11:42:20.205669,165.38700970000355,165.69413260000874,165.38700970000355,None,None,165.38700970000355,None,166.19453047999704,None,,,,11013,0001,2022_Apr_27_1139,localizer,2021.1.3,59.27720927609605,
block,scrambled,scrambled082.bmp,,,,,0,17,17,17,,,,,,,,,,,,,,,,,,,,,,,,,,,,,,,,,,,,,,,,,,None,,166.19453047999704,None,166.19453047999704,None,2022-04-27-11:42:21.022542,166.20441220000794,166.51049970000167,166.20441220000794,None,None,166.20441220000794,None,167.01098158000386,None,,,,11013,0001,2022_Apr_27_1139,localizer,2021.1.3,59.27720927609605,
block,scrambled,scrambled063.bmp,,,,,0,18,18,18,,,,,,,,,,,,,,,,,,,,,,,,,,,,,,,,,,,,,,,,,,None,,167.01098158000386,None,167.01098158000386,None,2022-04-27-11:42:21.838080,167.0182872000005,167.32775160000892,167.0182872000005,None,None,167.0182872000005,None,167.82788268000294,None,,,,11013,0001,2022_Apr_27_1139,localizer,2021.1.3,59.27720927609605,
block,scrambled,scrambled023.bmp,,,,,0,19,19,19,,,,,,,,,,,,,,,,,,,,,,,,,,,,,,,,,,,,,,,,,,None,,167.82788268000294,None,167.82788268000294,None,2022-04-27-11:42:22.656034,167.8378298000025,168.14413430000423,167.8378298000025,None,None,167.8378298000025,None,168.64491068000788,None,,,,11013,0001,2022_Apr_27_1139,localizer,2021.1.3,59.27720927609605,
block,scrambled,scrambled001.bmp,,,,,0,20,20,20,,,,,,,,,,,,,,,,,,,,,,,,,,,,,,,,,,,,,,,,,,None,,168.64491068000788,None,168.64491068000788,None,2022-04-27-11:42:23.472946,168.6544697000063,168.96688330000325,168.6544697000063,None,None,168.6544697000063,None,169.46325468000722,None,,,,11013,0001,2022_Apr_27_1139,localizer,2021.1.3,59.27720927609605,
block,scrambled,scrambled061.bmp,,,,,0,21,21,21,,,,,,,,,,,,,,,,,,,,,,,,,,,,,,,,,,,,,,,,,,None,,169.46325468000722,None,169.46325468000722,None,2022-04-27-11:42:24.294329,169.4748244000075,169.77757469999779,169.4748244000075,None,None,169.4748244000075,None,170.27821677999745,None,,,,11013,0001,2022_Apr_27_1139,localizer,2021.1.3,59.27720927609605,
block,scrambled,scrambled022.bmp,,,,,0,22,22,22,,,,,,,,,,,,,,,,,,,,,,,,,,,,,,,,,,,,,,,,,,None,,170.27821677999745,None,170.27821677999745,None,2022-04-27-11:42:25.106289,170.28888550000556,170.59456490000593,170.28888550000556,None,None,170.28888550000556,None,171.09484188000496,None,,,,11013,0001,2022_Apr_27_1139,localizer,2021.1.3,59.27720927609605,
block,scrambled,scrambled040.bmp,,,,,0,23,23,23,,,,,,,,,,,,,,,,,,,,,,,,,,,,,,,,,,,,,,,,,,None,,171.09484188000496,None,171.09484188000496,None,2022-04-27-11:42:25.922915,171.10444009999628,171.41100770000776,171.10444009999628,None,None,171.10444009999628,None,171.91115508000948,None,,,,11013,0001,2022_Apr_27_1139,localizer,2021.1.3,59.27720927609605,
block,scrambled,scrambled031.bmp,,,,,0,24,24,24,,,,,,,,,,,,,,,,,,,,,,,,,,,,,,,,,,,,,,,,,,None,,171.91115508000948,None,171.91115508000948,None,2022-04-27-11:42:26.739340,171.91939789999742,172.2278978999966,171.91939789999742,None,None,171.91939789999742,None,172.7278749799967,None,,,,11013,0001,2022_Apr_27_1139,localizer,2021.1.3,59.27720927609605,
block,scrambled,scrambled024.bmp,,,,,0,25,25,25,,,,,,,,,,,,,,,,,,,,,,,,,,,,,,,,,,,,,,,,,,None,,172.7278749799967,None,172.7278749799967,None,2022-04-27-11:42:27.556030,172.73689519999607,173.04443310000352,172.73689519999607,None,None,172.73689519999607,None,173.5445705800026,None,,,,11013,0001,2022_Apr_27_1139,localizer,2021.1.3,59.27720927609605,
block,scrambled,scrambled051.bmp,,,,,0,26,26,26,,,,,,,,,,,,,,,,,,,,,,,,,,,,,,,,,,,,,,,,,,None,,173.5445705800026,None,173.5445705800026,None,2022-04-27-11:42:28.372717,173.55315849999897,173.86104820000764,173.55315849999897,None,None,173.55315849999897,None,174.36087857999664,None,,,,11013,0001,2022_Apr_27_1139,localizer,2021.1.3,59.27720927609605,
block,scrambled,scrambled007.bmp,,,,,0,27,27,27,,,,,,,,,,,,,,,,,,,,,,,,,,,,,,,,,,,,,,,,,,None,,174.36087857999664,None,174.36087857999664,None,2022-04-27-11:42:29.187964,174.3682839999965,174.67788889999792,174.3682839999965,None,None,174.3682839999965,None,175.18490528000402,None,,,,11013,0001,2022_Apr_27_1139,localizer,2021.1.3,59.27720927609605,
block,scrambled,scrambled055.bmp,,,,,0,28,28,28,,,,,,,,,,,,,,,,,,,,,,,,,,,,,,,,,,,,,,,,,,None,,175.18490528000402,None,175.18490528000402,None,2022-04-27-11:42:30.019929,175.2006415000069,175.51111059999675,175.2006415000069,None,None,175.2006415000069,None,175.99422588000888,None,,,,11013,0001,2022_Apr_27_1139,localizer,2021.1.3,59.27720927609605,
block,scrambled,scrambled088.bmp,,,,,0,29,29,29,,,,,,,,,,,,,,,,,,,,,,,,,,,,,,,,,,,,,,,,,,None,,175.99422588000888,None,175.99422588000888,None,2022-04-27-11:42:30.822309,175.99762049999845,176.31088210000598,175.99762049999845,None,None,175.99762049999845,None,176.81117978000256,None,,,,11013,0001,2022_Apr_27_1139,localizer,2021.1.3,59.27720927609605,
block_end,scrambled,scrambled012.bmp,,,,,0,30,30,30,,,,,,,,,,,,,,,,,,,,,,,,,,,,,,,,,,,,,,,,,,None,,176.81117978000256,None,176.81117978000256,None,2022-04-27-11:42:31.639294,176.82140909999725,177.12781140000152,176.82140909999725,None,None,176.82140909999725,None,177.62758848000666,None,,,,11013,0001,2022_Apr_27_1139,localizer,2021.1.3,59.27720927609605,
block_start,objects,objects047.bmp,,,,,0,31,31,31,,,,,,,,,,,,,,,,,,,,,,,,,,,,,,,,,,,,,,,,,,t,1.7293438000051538,177.62750630000664,None,177.62750630000664,None,2022-04-27-11:42:34.205218,179.39111850000336,179.6941583000007,179.39111850000336,None,None,179.39111850000336,None,180.19570258000167,None,,,,11013,0001,2022_Apr_27_1139,localizer,2021.1.3,59.27720927609605,
block,objects,objects030.bmp,,,,,0,32,32,32,,,,,,,,,,,,,,,,,,,,,,,,,,,,,,,,,,,,,,,,,,None,,180.19570258000167,None,180.19570258000167,None,2022-04-27-11:42:35.025869,180.20970079999825,180.51095900000655,180.20970079999825,None,None,180.20970079999825,None,181.0123909799964,None,,,,11013,0001,2022_Apr_27_1139,localizer,2021.1.3,59.27720927609605,
block,objects,objects072.bmp,,,,,0,33,33,33,,,,,,,,,,,,,,,,,,,,,,,,,,,,,,,,,,,,,,,,,,None,,181.0123909799964,None,181.0123909799964,None,2022-04-27-11:42:35.841619,181.02336150000338,181.32738329999847,181.02336150000338,None,None,181.02336150000338,None,181.82799928000313,None,,,,11013,0001,2022_Apr_27_1139,localizer,2021.1.3,59.27720927609605,
block,objects,objects012.bmp,,,,,0,34,34,34,,,,,,,,,,,,,,,,,,,,,,,,,,,,,,,,,,,,,,,,,,None,,181.82799928000313,None,181.82799928000313,None,2022-04-27-11:42:36.656075,181.83731909999915,182.14420130000508,181.83731909999915,None,None,181.83731909999915,None,182.64484787999535,None,,,,11013,0001,2022_Apr_27_1139,localizer,2021.1.3,59.27720927609605,
block,objects,objects023.bmp,,,,,0,35,35,35,,,,,,,,,,,,,,,,,,,,,,,,,,,,,,,,,,,,,,,,,,None,,182.64484787999535,None,182.64484787999535,None,2022-04-27-11:42:37.472921,182.65452730000834,182.96127450000495,182.65452730000834,None,None,182.65452730000834,None,183.46136258000624,None,,,,11013,0001,2022_Apr_27_1139,localizer,2021.1.3,59.27720927609605,
block,objects,objects033.bmp,,,,,0,36,36,36,,,,,,,,,,,,,,,,,,,,,,,,,,,,,,,,,,,,,,,,,,None,,183.46136258000624,None,183.46136258000624,None,2022-04-27-11:42:38.289439,183.47123330000613,183.7777081999957,183.47123330000613,None,None,183.47123330000613,None,184.2780519800086,None,,,,11013,0001,2022_Apr_27_1139,localizer,2021.1.3,59.27720927609605,
block,objects,objects052.bmp,,,,,0,37,37,37,,,,,,,,,,,,,,,,,,,,,,,,,,,,,,,,,,,,,,,,,,None,,184.2780519800086,None,184.2780519800086,None,2022-04-27-11:42:39.106125,184.28782870000578,184.59359469999617,184.28782870000578,None,None,184.28782870000578,None,185.094610380003,None,,,,11013,0001,2022_Apr_27_1139,localizer,2021.1.3,59.27720927609605,
block,objects,objects008.bmp,,,,,0,38,38,38,,,,,,,,,,,,,,,,,,,,,,,,,,,,,,,,,,,,,,,,,,None,,185.094610380003,None,185.094610380003,None,2022-04-27-11:42:39.922688,185.1030485000083,185.41073610000603,185.1030485000083,None,None,185.1030485000083,None,185.91493917999614,None,,,,11013,0001,2022_Apr_27_1139,localizer,2021.1.3,59.27720927609605,
block,objects,objects065.bmp,,,,,0,39,39,39,,,,,,,,,,,,,,,,,,,,,,,,,,,,,,,,,,,,,,,,,,None,,185.91493917999614,None,185.91493917999614,None,2022-04-27-11:42:40.751886,185.93778429999657,186.2449198999966,185.93778429999657,None,None,185.93778429999657,None,186.72851468000735,None,,,,11013,0001,2022_Apr_27_1139,localizer,2021.1.3,59.27720927609605,
block,objects,objects086.bmp,,,,,0,40,40,40,,,,,,,,,,,,,,,,,,,,,,,,,,,,,,,,,,,,,,,,,,None,,186.72851468000735,None,186.72851468000735,None,2022-04-27-11:42:41.557560,186.7393052999978,187.04373699999996,186.7393052999978,None,None,186.7393052999978,None,187.54462628000474,None,,,,11013,0001,2022_Apr_27_1139,localizer,2021.1.3,59.27720927609605,
block,objects,objects032.bmp,,,,,0,41,41,41,,,,,,,,,,,,,,,,,,,,,,,,,,,,,,,,,,,,,,,,,,None,,187.54462628000474,None,187.54462628000474,None,2022-04-27-11:42:42.372743,187.55384310000227,187.86077050000313,187.55384310000227,None,None,187.55384310000227,None,188.36101918000494,None,,,,11013,0001,2022_Apr_27_1139,localizer,2021.1.3,59.27720927609605,
block,objects,objects036.bmp,,,,,0,42,42,42,,,,,,,,,,,,,,,,,,,,,,,,,,,,,,,,,,,,,,,,,,None,,188.36101918000494,None,188.36101918000494,None,2022-04-27-11:42:43.189177,188.36947900000087,188.67748450000363,188.36947900000087,None,None,188.36947900000087,None,189.17787858000665,None,,,,11013,0001,2022_Apr_27_1139,localizer,2021.1.3,59.27720927609605,
block,objects,objects080.bmp,,,,,0,43,43,43,,,,,,,,,,,,,,,,,,,,,,,,,,,,,,,,,,,,,,,,,,None,,189.17787858000665,None,189.17787858000665,None,2022-04-27-11:42:44.005954,189.18690519999654,189.4943712999957,189.18690519999654,None,None,189.18690519999654,None,190.00231017999758,None,,,,11013,0001,2022_Apr_27_1139,localizer,2021.1.3,59.27720927609605,
block,objects,objects056.bmp,,,,,0,44,44,44,,,,,,,,,,,,,,,,,,,,,,,,,,,,,,,,,,,,,,,,,,None,,190.00231017999758,None,190.00231017999758,None,2022-04-27-11:42:44.836365,190.01903949999542,190.32759369999985,190.01903949999542,None,None,190.01903949999542,None,190.8126316799986,None,,,,11013,0001,2022_Apr_27_1139,localizer,2021.1.3,59.27720927609605,
block_end,objects,objects010.bmp,,,,,0,45,45,45,,,,,,,,,,,,,,,,,,,,,,,,,,,,,,,,,,,,,,,,,,None,,190.8126316799986,None,190.8126316799986,None,2022-04-27-11:42:45.642876,190.8266975000006,191.12739789999614,190.8266975000006,None,None,190.8266975000006,None,191.62929348000907,None,,,,11013,0001,2022_Apr_27_1139,localizer,2021.1.3,59.27720927609605,
block_start,faces,faces028.bmp,,,,,0,46,46,46,,,,,,,,,,,,,,,,,,,,,,,,,,,,,,,,,,,,,,,,,,t,1.7279131000104826,191.62899389999802,None,191.62899389999802,None,2022-04-27-11:42:48.205226,193.3871388999978,193.69508440000936,193.3871388999978,None,None,193.3871388999978,None,194.1935053800058,None,,,,11013,0001,2022_Apr_27_1139,localizer,2021.1.3,59.27720927609605,
block,faces,faces048.bmp,,,,,0,47,47,47,,,,,,,,,,,,,,,,,,,,,,,,,,,,,,,,,,,,,,,,,,None,,194.1935053800058,None,194.1935053800058,None,2022-04-27-11:42:49.020315,194.20161380000354,194.51136839999526,194.20161380000354,None,None,194.20161380000354,None,195.01111477999947,None,,,,11013,0001,2022_Apr_27_1139,localizer,2021.1.3,59.27720927609605,
block,faces,faces015.bmp,,,,,0,48,48,48,,,,,,,,,,,,,,,,,,,,,,,,,,,,,,,,,,,,,,,,,,None,,195.01111477999947,None,195.01111477999947,None,2022-04-27-11:42:49.839195,195.02675079999608,195.32775880000554,195.02675079999608,None,None,195.02675079999608,None,195.82784808000142,None,,,,11013,0001,2022_Apr_27_1139,localizer,2021.1.3,59.27720927609605,
block,faces,faces071.bmp,,,,,0,49,49,49,,,,,,,,,,,,,,,,,,,,,,,,,,,,,,,,,,,,,,,,,,None,,195.82784808000142,None,195.82784808000142,None,2022-04-27-11:42:50.655928,195.83750029999646,196.1443969999964,195.83750029999646,None,None,195.83750029999646,None,196.6449139800039,None,,,,11013,0001,2022_Apr_27_1139,localizer,2021.1.3,59.27720927609605,
block,faces,faces025.bmp,,,,,0,50,50,50,,,,,,,,,,,,,,,,,,,,,,,,,,,,,,,,,,,,,,,,,,None,,196.6449139800039,None,196.6449139800039,None,2022-04-27-11:42:51.472987,196.65085859999817,196.9608869000076,196.65085859999817,None,None,196.65085859999817,None,197.46094127999967,None,,,,11013,0001,2022_Apr_27_1139,localizer,2021.1.3,59.27720927609605,
block,faces,faces036.bmp,,,,,0,51,51,51,,,,,,,,,,,,,,,,,,,,,,,,,,,,,,,,,,,,,,,,,,None,,197.46094127999967,None,197.46094127999967,None,2022-04-27-11:42:52.287965,197.4682249000034,197.77800240000943,197.4682249000034,None,None,197.4682249000034,None,198.2774192800076,None,,,,11013,0001,2022_Apr_27_1139,localizer,2021.1.3,59.27720927609605,
block,faces,faces029.bmp,,,,,0,52,52,52,,,,,,,,,,,,,,,,,,,,,,,,,,,,,,,,,,,,,,,,,,None,,198.2774192800076,None,198.2774192800076,None,2022-04-27-11:42:53.104683,198.28633750000154,198.5942548000021,198.28633750000154,None,None,198.28633750000154,None,199.09464767999597,None,,,,11013,0001,2022_Apr_27_1139,localizer,2021.1.3,59.27720927609605,
block,faces,faces059.bmp,,,,,0,53,53,53,,,,,,,,,,,,,,,,,,,,,,,,,,,,,,,,,,,,,,,,,,None,,199.09464767999597,None,199.09464767999597,None,2022-04-27-11:42:53.922948,199.10443370000576,199.41093959999853,199.10443370000576,None,None,199.10443370000576,None,199.9177100800094,None,,,,11013,0001,2022_Apr_27_1139,localizer,2021.1.3,59.27720927609605,
block,faces,faces057.bmp,,,,,0,54,54,54,,,,,,,,,,,,,,,,,,,,,,,,,,,,,,,,,,,,,,,,,,None,,199.9177100800094,None,199.9177100800094,None,2022-04-27-11:42:54.753750,199.9413532000035,200.2451066000067,199.9413532000035,None,None,199.9413532000035,None,200.7277322800015,None,,,,11013,0001,2022_Apr_27_1139,localizer,2021.1.3,59.27720927609605,
block,faces,faces067.bmp,,,,,0,55,55,55,,,,,,,,,,,,,,,,,,,,,,,,,,,,,,,,,,,,,,,,,,None,,200.7277322800015,None,200.7277322800015,None,2022-04-27-11:42:55.555810,200.73791510000592,201.04426760000933,200.73791510000592,None,None,200.73791510000592,None,201.54679227999586,None,,,,11013,0001,2022_Apr_27_1139,localizer,2021.1.3,59.27720927609605,
block,faces,faces072.bmp,,,,,0,56,56,56,,,,,,,,,,,,,,,,,,,,,,,,,,,,,,,,,,,,,,,,,,None,,201.54679227999586,None,201.54679227999586,None,2022-04-27-11:42:56.378755,201.56195060000755,201.86143930000253,201.56195060000755,None,None,201.56195060000755,None,202.3616422800056,None,,,,11013,0001,2022_Apr_27_1139,localizer,2021.1.3,59.27720927609605,
block,faces,faces053.bmp,,,,,0,57,57,57,,,,,,,,,,,,,,,,,,,,,,,,,,,,,,,,,,,,,,,,,,None,,202.3616422800056,None,202.3616422800056,None,2022-04-27-11:42:57.189929,202.37240360000578,202.67815849999897,202.37240360000578,None,None,202.37240360000578,None,203.17789778000733,None,,,,11013,0001,2022_Apr_27_1139,localizer,2021.1.3,59.27720927609605,
block,faces,faces020.bmp,,,,,0,58,58,58,,,,,,,,,,,,,,,,,,,,,,,,,,,,,,,,,,,,,,,,,,None,,203.17789778000733,None,203.17789778000733,None,2022-04-27-11:42:58.005979,203.18648640000902,203.49407600000268,203.18648640000902,None,None,203.18648640000902,None,203.99443378000578,None,,,,11013,0001,2022_Apr_27_1139,localizer,2021.1.3,59.27720927609605,
block,faces,faces024.bmp,,,,,0,59,59,59,,,,,,,,,,,,,,,,,,,,,,,,,,,,,,,,,,,,,,,,,,None,,203.99443378000578,None,203.99443378000578,None,2022-04-27-11:42:58.821519,204.00191550000454,204.31093600000895,204.00191550000454,None,None,204.00191550000454,None,204.81127687999978,None,,,,11013,0001,2022_Apr_27_1139,localizer,2021.1.3,59.27720927609605,
block_end,faces,faces024.bmp,,,,,0,60,60,60,,,,,,,,,,,,,,,,,,,,,,,,,,,,,,,,,,,,,,,,,,None,,204.81127687999978,None,204.81127687999978,None,2022-04-27-11:42:59.639357,204.81198600000062,205.1106812000071,204.81198600000062,None,y,204.81198600000062,None,205.61137998000194,None,0.7387691000039922,,,11013,0001,2022_Apr_27_1139,localizer,2021.1.3,59.27720927609605,
block_start,scenes,scenes084.bmp,,,,,0,61,61,61,,,,,,,,,,,,,,,,,,,,,,,,,,,,,,,,,,,,,,,,,,t,1.7458518000057666,205.611006799998,None,205.611006799998,None,2022-04-27-11:43:02.205476,207.38710760000686,207.6943229000026,207.38710760000686,None,None,207.38710760000686,None,208.19439388000464,None,,,,11013,0001,2022_Apr_27_1139,localizer,2021.1.3,59.27720927609605,
block,scenes,scenes045.bmp,,,,,0,62,62,62,,,,,,,,,,,,,,,,,,,,,,,,,,,,,,,,,,,,,,,,,,None,,208.19439388000464,None,208.19439388000464,None,2022-04-27-11:43:03.022165,208.19638930000656,208.51088780000282,208.19638930000656,None,None,208.19638930000656,None,209.01107168000598,None,,,,11013,0001,2022_Apr_27_1139,localizer,2021.1.3,59.27720927609605,
block,scenes,scenes046.bmp,,,,,0,63,63,63,,,,,,,,,,,,,,,,,,,,,,,,,,,,,,,,,,,,,,,,,,None,,209.01107168000598,None,209.01107168000598,None,2022-04-27-11:43:03.838870,209.01866290000908,209.32789650000632,209.01866290000908,None,None,209.01866290000908,None,209.827900879996,None,,,,11013,0001,2022_Apr_27_1139,localizer,2021.1.3,59.27720927609605,
block,scenes,scenes009.bmp,,,,,0,64,64,64,,,,,,,,,,,,,,,,,,,,,,,,,,,,,,,,,,,,,,,,,,None,,209.827900879996,None,209.827900879996,None,2022-04-27-11:43:04.655984,209.8287038999988,210.12755570000445,209.8287038999988,None,None,209.8287038999988,None,210.62788078000594,None,,,,11013,0001,2022_Apr_27_1139,localizer,2021.1.3,59.27720927609605,
block,scenes,scenes062.bmp,,,,,0,65,65,65,,,,,,,,,,,,,,,,,,,,,,,,,,,,,,,,,,,,,,,,,,None,,210.62788078000594,None,210.62788078000594,None,2022-04-27-11:43:05.456957,210.63796079999884,210.9443517000036,210.63796079999884,210.63796079999884,None,210.63796079999884,210.63796079999884,211.44469578000425,None,,,,11013,0001,2022_Apr_27_1139,localizer,2021.1.3,59.27720927609605,
block,scenes,scenes072.bmp,,,,,0,66,66,66,,,,,,,,,,,,,,,,,,,,,,,,,,,,,,,,,,,,,,,,,,None,,211.44469578000425,None,211.44469578000425,None,2022-04-27-11:43:06.272773,211.45345430000452,211.76112840000133,211.45345430000452,None,None,211.45345430000452,None,212.26124878000118,None,,,,11013,0001,2022_Apr_27_1139,localizer,2021.1.3,59.27720927609605,
block,scenes,scenes002.bmp,,,,,0,67,67,67,,,,,,,,,,,,,,,,,,,,,,,,,,,,,,,,,,,,,,,,,,None,,212.26124878000118,None,212.26124878000118,None,2022-04-27-11:43:07.089438,212.26585510000587,212.57759509999596,212.26585510000587,None,None,212.26585510000587,None,213.0801930800022,None,,,,11013,0001,2022_Apr_27_1139,localizer,2021.1.3,59.27720927609605,
block,scenes,scenes054.bmp,,,,,0,68,68,68,,,,,,,,,,,,,,,,,,,,,,,,,,,,,,,,,,,,,,,,,,None,,213.0801930800022,None,213.0801930800022,None,2022-04-27-11:43:07.912234,213.09753290000663,213.41789609999978,213.09753290000663,None,None,213.09753290000663,None,213.89466998000862,None,,,,11013,0001,2022_Apr_27_1139,localizer,2021.1.3,59.27720927609605,
block,scenes,scenes064.bmp,,,,,0,69,69,69,,,,,,,,,,,,,,,,,,,,,,,,,,,,,,,,,,,,,,,,,,None,,213.89466998000862,None,213.89466998000862,None,2022-04-27-11:43:08.722479,213.90207330000703,214.21104310000374,213.90207330000703,None,None,213.90207330000703,None,214.71123697999573,None,,,,11013,0001,2022_Apr_27_1139,localizer,2021.1.3,59.27720927609605,
block,scenes,scenes020.bmp,,,,,0,70,70,70,,,,,,,,,,,,,,,,,,,,,,,,,,,,,,,,,,,,,,,,,,None,,214.71123697999573,None,214.71123697999573,None,2022-04-27-11:43:09.538322,214.71217179999803,215.01093450000917,214.71217179999803,None,None,214.71217179999803,None,215.51144008000264,None,,,,11013,0001,2022_Apr_27_1139,localizer,2021.1.3,59.27720927609605,
block,scenes,scenes073.bmp,,,,,0,71,71,71,,,,,,,,,,,,,,,,,,,,,,,,,,,,,,,,,,,,,,,,,,None,,215.51144008000264,None,215.51144008000264,None,2022-04-27-11:43:10.341537,215.52146730000095,215.82790479999676,215.52146730000095,215.52146730000095,None,215.52146730000095,215.52146730000095,216.3282447799953,None,,,,11013,0001,2022_Apr_27_1139,localizer,2021.1.3,59.27720927609605,
block,scenes,scenes050.bmp,,,,,0,72,72,72,,,,,,,,,,,,,,,,,,,,,,,,,,,,,,,,,,,,,,,,,,None,,216.3282447799953,None,216.3282447799953,None,2022-04-27-11:43:11.156546,216.33845409999776,216.64457910000056,216.33845409999776,None,None,216.33845409999776,None,217.1446830800065,None,,,,11013,0001,2022_Apr_27_1139,localizer,2021.1.3,59.27720927609605,
block,scenes,scenes066.bmp,,,,,0,73,73,73,,,,,,,,,,,,,,,,,,,,,,,,,,,,,,,,,,,,,,,,,,None,,217.1446830800065,None,217.1446830800065,None,2022-04-27-11:43:11.972760,217.14550490000693,217.4444411000004,217.14550490000693,None,None,217.14550490000693,None,217.9448512800096,None,,,,11013,0001,2022_Apr_27_1139,localizer,2021.1.3,59.27720927609605,
block,scenes,scenes027.bmp,,,,,0,74,74,74,,,,,,,,,,,,,,,,,,,,,,,,,,,,,,,,,,,,,,,,,,None,,217.9448512800096,None,217.9448512800096,None,2022-04-27-11:43:12.774921,217.9564337000047,218.2613468000054,217.9564337000047,217.9564337000047,None,217.9564337000047,217.9564337000047,218.7613133799983,None,,,,11013,0001,2022_Apr_27_1139,localizer,2021.1.3,59.27720927609605,
block_end,scenes,scenes080.bmp,,,,,0,75,75,75,,,,,,,,,,,,,,,,,,,,,,,,,,,,,,,,,,,,,,,,,,None,,218.7613133799983,None,218.7613133799983,None,2022-04-27-11:43:13.589387,218.77100930000597,219.07925530000648,218.77100930000597,None,None,218.77100930000597,None,219.57828198000206,None,,,,11013,0001,2022_Apr_27_1139,localizer,2021.1.3,59.27720927609605,
null_block,null_block,null_block.bmp,,,,,0,76,76,76,,,,,,,,,,,,,,,,,,,,,,,,,,,,,,,,,,,,,,,,,,t,1.778896399991936,219.5779951000004,None,219.5779951000004,None,2022-04-27-11:43:16.206578,221.37850568000576,None,221.37850568000576,None,None,221.37850568000576,None,221.38102050000452,None,,,,11013,0001,2022_Apr_27_1139,localizer,2021.1.3,59.27720927609605,
block_start,objects,objects002.bmp,,,,,0,77,77,77,,,,,,,,,,,,,,,,,,,,,,,,,,,,,,,,,,,,,,,,,,t,1.9630946999968728,233.39435329999833,None,233.39435329999833,None,2022-04-27-11:43:30.216834,235.39699130000372,235.7111736000079,235.39699130000372,None,None,235.39699130000372,None,236.19503088000928,None,,,,11013,0001,2022_Apr_27_1139,localizer,2021.1.3,59.27720927609605,
block,objects,objects053.bmp,,,,,0,78,78,78,,,,,,,,,,,,,,,,,,,,,,,,,,,,,,,,,,,,,,,,,,None,,236.19503088000928,None,236.19503088000928,None,2022-04-27-11:43:31.022842,236.19909229999757,236.51105080000707,236.19909229999757,None,None,236.19909229999757,None,237.0109700800036,None,,,,11013,0001,2022_Apr_27_1139,localizer,2021.1.3,59.27720927609605,
block,objects,objects083.bmp,,,,,0,79,79,79,,,,,,,,,,,,,,,,,,,,,,,,,,,,,,,,,,,,,,,,,,None,,237.0109700800036,None,237.0109700800036,None,2022-04-27-11:43:31.839050,237.01880960000562,237.32807050000702,237.01880960000562,None,None,237.01880960000562,None,237.8181445800088,None,,,,11013,0001,2022_Apr_27_1139,localizer,2021.1.3,59.27720927609605,
block,objects,objects080.bmp,,,,,0,80,80,80,,,,,,,,,,,,,,,,,,,,,,,,,,,,,,,,,,,,,,,,,,None,,237.8181445800088,None,237.8181445800088,None,2022-04-27-11:43:32.650779,237.82188150000002,238.12787630000093,237.82188150000002,None,None,237.82188150000002,None,238.628219180007,None,,,,11013,0001,2022_Apr_27_1139,localizer,2021.1.3,59.27720927609605,
block,objects,objects043.bmp,,,,,0,81,81,81,,,,,,,,,,,,,,,,,,,,,,,,,,,,,,,,,,,,,,,,,,None,,238.628219180007,None,238.628219180007,None,2022-04-27-11:43:33.456296,238.63704240000516,238.9447291999968,238.63704240000516,None,None,238.63704240000516,None,239.44512778000498,None,,,,11013,0001,2022_Apr_27_1139,localizer,2021.1.3,59.27720927609605,
block,objects,objects030.bmp,,,,,0,82,82,82,,,,,,,,,,,,,,,,,,,,,,,,,,,,,,,,,,,,,,,,,,None,,239.44512778000498,None,239.44512778000498,None,2022-04-27-11:43:34.273205,239.445616099998,239.7444983000023,239.445616099998,None,None,239.445616099998,None,240.24489018000313,None,,,,11013,0001,2022_Apr_27_1139,localizer,2021.1.3,59.27720927609605,
block,objects,objects030.bmp,,,,,0,83,83,83,,,,,,,,,,,,,,,,,,,,,,,,,,,,,,,,,,,,,,,,,,None,,240.24489018000313,None,240.24489018000313,None,2022-04-27-11:43:35.074963,240.2458508999989,240.56096800000523,240.2458508999989,240.2458508999989,y,240.2458508999989,240.2458508999989,241.04500888000766,None,0.42685410000558477,,,11013,0001,2022_Apr_27_1139,localizer,2021.1.3,59.27720927609605,
block,objects,objects011.bmp,,,,,0,84,84,84,,,,,,,,,,,,,,,,,,,,,,,,,,,,,,,,,,,,,,,,,,None,,241.04500888000766,None,241.04500888000766,None,2022-04-27-11:43:35.875106,241.05681840000034,241.36136130000523,241.05681840000034,241.05681840000034,None,241.05681840000034,241.05681840000034,241.86167408000037,None,,,,11013,0001,2022_Apr_27_1139,localizer,2021.1.3,59.27720927609605,
block,objects,objects014.bmp,,,,,0,85,85,85,,,,,,,,,,,,,,,,,,,,,,,,,,,,,,,,,,,,,,,,,,None,,241.86167408000037,None,241.86167408000037,None,2022-04-27-11:43:36.689752,241.87044090000563,242.17796460000682,241.87044090000563,None,None,241.87044090000563,None,242.6782835800055,None,,,,11013,0001,2022_Apr_27_1139,localizer,2021.1.3,59.27720927609605,
block,objects,objects056.bmp,,,,,0,86,86,86,,,,,,,,,,,,,,,,,,,,,,,,,,,,,,,,,,,,,,,,,,None,,242.6782835800055,None,242.6782835800055,None,2022-04-27-11:43:37.506361,242.67892120000033,242.97780390000844,242.67892120000033,None,None,242.67892120000033,None,243.4782028800051,None,,,,11013,0001,2022_Apr_27_1139,localizer,2021.1.3,59.27720927609605,
block,objects,objects044.bmp,,,,,0,87,87,87,,,,,,,,,,,,,,,,,,,,,,,,,,,,,,,,,,,,,,,,,,None,,243.4782028800051,None,243.4782028800051,None,2022-04-27-11:43:38.308274,243.48809090000577,243.79472249999526,243.48809090000577,243.48809090000577,None,243.48809090000577,243.48809090000577,244.29498657999792,None,,,,11013,0001,2022_Apr_27_1139,localizer,2021.1.3,59.27720927609605,
block,objects,objects037.bmp,,,,,0,88,88,88,,,,,,,,,,,,,,,,,,,,,,,,,,,,,,,,,,,,,,,,,,None,,244.29498657999792,None,244.29498657999792,None,2022-04-27-11:43:39.123064,244.3034095000039,244.6115204999951,244.3034095000039,None,None,244.3034095000039,None,245.11223878000746,None,,,,11013,0001,2022_Apr_27_1139,localizer,2021.1.3,59.27720927609605,
block,objects,objects075.bmp,,,,,0,89,89,89,,,,,,,,,,,,,,,,,,,,,,,,,,,,,,,,,,,,,,,,,,None,,245.11223878000746,None,245.11223878000746,None,2022-04-27-11:43:39.941497,245.1238267000008,245.42795640000259,245.1238267000008,None,None,245.1238267000008,None,245.92849038000858,None,,,,11013,0001,2022_Apr_27_1139,localizer,2021.1.3,59.27720927609605,
block,objects,objects015.bmp,,,,,0,90,90,90,,,,,,,,,,,,,,,,,,,,,,,,,,,,,,,,,,,,,,,,,,None,,245.92849038000858,None,245.92849038000858,None,2022-04-27-11:43:40.756566,245.938324200004,246.244938799995,245.938324200004,None,None,245.938324200004,None,246.74540238000336,None,,,,11013,0001,2022_Apr_27_1139,localizer,2021.1.3,59.27720927609605,
block_end,objects,objects046.bmp,,,,,0,91,91,91,,,,,,,,,,,,,,,,,,,,,,,,,,,,,,,,,,,,,,,,,,None,,246.74540238000336,None,246.74540238000336,None,2022-04-27-11:43:41.573474,246.7548858000082,247.06147050000436,246.7548858000082,None,None,246.7548858000082,None,247.56178897999925,None,,,,11013,0001,2022_Apr_27_1139,localizer,2021.1.3,59.27720927609605,
block_start,scrambled,scrambled084.bmp,,,,,0,92,92,92,,,,,,,,,,,,,,,,,,,,,,,,,,,,,,,,,,,,,,,,,,t,1.795446100004483,247.56141190000926,None,247.56141190000926,None,2022-04-27-11:43:44.205372,249.388228900003,249.69431269999768,249.388228900003,None,None,249.388228900003,None,250.19498668000742,None,,,,11013,0001,2022_Apr_27_1139,localizer,2021.1.3,59.27720927609605,
block,scrambled,scrambled039.bmp,,,,,0,93,93,93,,,,,,,,,,,,,,,,,,,,,,,,,,,,,,,,,,,,,,,,,,None,,250.19498668000742,None,250.19498668000742,None,2022-04-27-11:43:45.024210,250.20496529999946,250.51122270000633,250.20496529999946,None,None,250.20496529999946,None,251.0122463800013,None,,,,11013,0001,2022_Apr_27_1139,localizer,2021.1.3,59.27720927609605,
block,scrambled,scrambled025.bmp,,,,,0,94,94,94,,,,,,,,,,,,,,,,,,,,,,,,,,,,,,,,,,,,,,,,,,None,,251.0122463800013,None,251.0122463800013,None,2022-04-27-11:43:45.841502,251.02391659999557,251.32868849999795,251.02391659999557,None,None,251.02391659999557,None,251.82844898000766,None,,,,11013,0001,2022_Apr_27_1139,localizer,2021.1.3,59.27720927609605,
block,scrambled,scrambled064.bmp,,,,,0,95,95,95,,,,,,,,,,,,,,,,,,,,,,,,,,,,,,,,,,,,,,,,,,None,,251.82844898000766,None,251.82844898000766,None,2022-04-27-11:43:46.656818,251.83330800000113,252.14477480000642,251.83330800000113,None,None,251.83330800000113,None,252.64532767999626,None,,,,11013,0001,2022_Apr_27_1139,localizer,2021.1.3,59.27720927609605,
block,scrambled,scrambled061.bmp,,,,,0,96,96,96,,,,,,,,,,,,,,,,,,,,,,,,,,,,,,,,,,,,,,,,,,None,,252.64532767999626,None,252.64532767999626,None,2022-04-27-11:43:47.473403,252.64552459999686,252.9445912000083,252.64552459999686,None,None,252.64552459999686,None,253.4445502800023,None,,,,11013,0001,2022_Apr_27_1139,localizer,2021.1.3,59.27720927609605,
block,scrambled,scrambled030.bmp,,,,,0,97,97,97,,,,,,,,,,,,,,,,,,,,,,,,,,,,,,,,,,,,,,,,,,None,,253.4445502800023,None,253.4445502800023,None,2022-04-27-11:43:48.273629,253.4527681000036,253.76124659999914,253.4527681000036,253.4527681000036,None,253.4527681000036,253.4527681000036,254.26197348000423,None,,,,11013,0001,2022_Apr_27_1139,localizer,2021.1.3,59.27720927609605,
block,scrambled,scrambled048.bmp,,,,,0,98,98,98,,,,,,,,,,,,,,,,,,,,,,,,,,,,,,,,,,,,,,,,,,None,,254.26197348000423,None,254.26197348000423,None,2022-04-27-11:43:49.088880,254.27146760000323,254.57809310000448,254.27146760000323,None,None,254.27146760000323,None,255.07952187999908,None,,,,11013,0001,2022_Apr_27_1139,localizer,2021.1.3,59.27720927609605,
block,scrambled,scrambled071.bmp,,,,,0,99,99,99,,,,,,,,,,,,,,,,,,,,,,,,,,,,,,,,,,,,,,,,,,None,,255.07952187999908,None,255.07952187999908,None,2022-04-27-11:43:49.908759,255.09044430000358,255.39472009999736,255.09044430000358,None,None,255.09044430000358,None,255.8949716800067,None,,,,11013,0001,2022_Apr_27_1139,localizer,2021.1.3,59.27720927609605,
block,scrambled,scrambled047.bmp,,,,,0,100,100,100,,,,,,,,,,,,,,,,,,,,,,,,,,,,,,,,,,,,,,,,,,None,,255.8949716800067,None,255.8949716800067,None,2022-04-27-11:43:50.722826,255.9022912000073,256.2112555000058,255.9022912000073,None,y,255.9022912000073,None,256.71169458000224,None,0.46652800000447314,,,11013,0001,2022_Apr_27_1139,localizer,2021.1.3,59.27720927609605,
block,scrambled,scrambled011.bmp,,,,,0,101,101,101,,,,,,,,,,,,,,,,,,,,,,,,,,,,,,,,,,,,,,,,,,None,,256.71169458000224,None,256.71169458000224,None,2022-04-27-11:43:51.539771,256.7201036000042,257.02811810000276,256.7201036000042,None,None,256.7201036000042,None,257.528087680004,None,,,,11013,0001,2022_Apr_27_1139,localizer,2021.1.3,59.27720927609605,
block,scrambled,scrambled075.bmp,,,,,0,102,102,102,,,,,,,,,,,,,,,,,,,,,,,,,,,,,,,,,,,,,,,,,,None,,257.528087680004,None,257.528087680004,None,2022-04-27-11:43:52.356169,257.53658420000284,257.84492450000835,257.53658420000284,None,None,257.53658420000284,None,258.34667518000936,None,,,,11013,0001,2022_Apr_27_1139,localizer,2021.1.3,59.27720927609605,
block,scrambled,scrambled012.bmp,,,,,0,103,103,103,,,,,,,,,,,,,,,,,,,,,,,,,,,,,,,,,,,,,,,,,,None,,258.34667518000936,None,258.34667518000936,None,2022-04-27-11:43:53.178887,258.3507630999957,258.6618445000058,258.3507630999957,None,None,258.3507630999957,None,259.16163788000415,None,,,,11013,0001,2022_Apr_27_1139,localizer,2021.1.3,59.27720927609605,
block,scrambled,scrambled014.bmp,,,,,0,104,104,104,,,,,,,,,,,,,,,,,,,,,,,,,,,,,,,,,,,,,,,,,,None,,259.16163788000415,None,259.16163788000415,None,2022-04-27-11:43:53.989939,259.16977760000736,259.47813279999536,259.16977760000736,None,None,259.16977760000736,None,259.9784256799991,None,,,,11013,0001,2022_Apr_27_1139,localizer,2021.1.3,59.27720927609605,
block,scrambled,scrambled008.bmp,,,,,0,105,105,105,,,,,,,,,,,,,,,,,,,,,,,,,,,,,,,,,,,,,,,,,,None,,259.9784256799991,None,259.9784256799991,None,2022-04-27-11:43:54.806604,259.98708920000354,260.2947887000046,259.98708920000354,None,None,259.98708920000354,None,260.7950368800026,None,,,,11013,0001,2022_Apr_27_1139,localizer,2021.1.3,59.27720927609605,
block_end,scrambled,scrambled007.bmp,,,,,0,106,106,106,,,,,,,,,,,,,,,,,,,,,,,,,,,,,,,,,,,,,,,,,,None,,260.7950368800026,None,260.7950368800026,None,2022-04-27-11:43:55.623318,260.7956747999997,261.0949995999981,260.7956747999997,None,None,260.7956747999997,None,261.59539877999634,None,,,,11013,0001,2022_Apr_27_1139,localizer,2021.1.3,59.27720927609605,
block_start,faces,faces063.bmp,,,,,0,107,107,107,,,,,,,,,,,,,,,,,,,,,,,,,,,,,,,,,,,,,,,,,,t,1.7612690999958431,261.59489100000064,None,261.59489100000064,None,2022-04-27-11:43:58.210582,263.3948928000027,263.6946891999978,263.3948928000027,None,None,263.3948928000027,None,264.19540098000437,None,,,,11013,0001,2022_Apr_27_1139,localizer,2021.1.3,59.27720927609605,
block,faces,faces087.bmp,,,,,0,108,108,108,,,,,,,,,,,,,,,,,,,,,,,,,,,,,,,,,,,,,,,,,,None,,264.19540098000437,None,264.19540098000437,None,2022-04-27-11:43:59.023679,264.2068312000047,264.5114054000005,264.2068312000047,None,None,264.2068312000047,None,265.01172987999746,None,,,,11013,0001,2022_Apr_27_1139,localizer,2021.1.3,59.27720927609605,
block,faces,faces012.bmp,,,,,0,109,109,109,,,,,,,,,,,,,,,,,,,,,,,,,,,,,,,,,,,,,,,,,,None,,265.01172987999746,None,265.01172987999746,None,2022-04-27-11:43:59.839808,265.0206809000083,265.3279654000071,265.0206809000083,None,None,265.0206809000083,None,265.82855637999603,None,,,,11013,0001,2022_Apr_27_1139,localizer,2021.1.3,59.27720927609605,
block,faces,faces044.bmp,,,,,0,110,110,110,,,,,,,,,,,,,,,,,,,,,,,,,,,,,,,,,,,,,,,,,,None,,265.82855637999603,None,265.82855637999603,None,2022-04-27-11:44:00.656629,265.8384420000075,266.1448356000037,265.8384420000075,None,None,265.8384420000075,None,266.6452226799971,None,,,,11013,0001,2022_Apr_27_1139,localizer,2021.1.3,59.27720927609605,
block,faces,faces003.bmp,,,,,0,111,111,111,,,,,,,,,,,,,,,,,,,,,,,,,,,,,,,,,,,,,,,,,,None,,266.6452226799971,None,266.6452226799971,None,2022-04-27-11:44:01.473298,266.65440749999834,266.9615482000081,266.65440749999834,None,None,266.65440749999834,None,267.4615331799956,None,,,,11013,0001,2022_Apr_27_1139,localizer,2021.1.3,59.27720927609605,
block,faces,faces018.bmp,,,,,0,112,112,112,,,,,,,,,,,,,,,,,,,,,,,,,,,,,,,,,,,,,,,,,,None,,267.4615331799956,None,267.4615331799956,None,2022-04-27-11:44:02.288487,267.4687806000002,267.7784224000061,267.4687806000002,None,None,267.4687806000002,None,268.2787406799995,None,,,,11013,0001,2022_Apr_27_1139,localizer,2021.1.3,59.27720927609605,
block,faces,faces034.bmp,,,,,0,113,113,113,,,,,,,,,,,,,,,,,,,,,,,,,,,,,,,,,,,,,,,,,,None,,268.2787406799995,None,268.2787406799995,None,2022-04-27-11:44:03.107014,268.2846778000094,268.5947859000007,268.2846778000094,None,None,268.2846778000094,None,269.0953055799997,None,,,,11013,0001,2022_Apr_27_1139,localizer,2021.1.3,59.27720927609605,
block,faces,faces073.bmp,,,,,0,114,114,114,,,,,,,,,,,,,,,,,,,,,,,,,,,,,,,,,,,,,,,,,,None,,269.0953055799997,None,269.0953055799997,None,2022-04-27-11:44:03.923573,269.1044288999983,269.4181357000052,269.1044288999983,None,None,269.1044288999983,None,269.9117503800022,None,,,,11013,0001,2022_Apr_27_1139,localizer,2021.1.3,59.27720927609605,
block,faces,faces078.bmp,,,,,0,115,115,115,,,,,,,,,,,,,,,,,,,,,,,,,,,,,,,,,,,,,,,,,,None,,269.9117503800022,None,269.9117503800022,None,2022-04-27-11:44:04.739830,269.92022200000065,270.23431129999517,269.92022200000065,None,None,269.92022200000065,None,270.7297001799976,None,,,,11013,0001,2022_Apr_27_1139,localizer,2021.1.3,59.27720927609605,
block,faces,faces065.bmp,,,,,0,116,116,116,,,,,,,,,,,,,,,,,,,,,,,,,,,,,,,,,,,,,,,,,,None,,270.7297001799976,None,270.7297001799976,None,2022-04-27-11:44:05.558924,270.74785610000254,271.0462228999968,270.74785610000254,None,None,270.74785610000254,None,271.5448479800049,None,,,,11013,0001,2022_Apr_27_1139,localizer,2021.1.3,59.27720927609605,
block,faces,faces011.bmp,,,,,0,117,117,117,,,,,,,,,,,,,,,,,,,,,,,,,,,,,,,,,,,,,,,,,,None,,271.5448479800049,None,271.5448479800049,None,2022-04-27-11:44:06.372926,271.55287460000545,271.86172250000527,271.55287460000545,None,None,271.55287460000545,None,272.36204807999604,None,,,,11013,0001,2022_Apr_27_1139,localizer,2021.1.3,59.27720927609605,
block,faces,faces042.bmp,,,,,0,118,118,118,,,,,,,,,,,,,,,,,,,,,,,,,,,,,,,,,,,,,,,,,,None,,272.36204807999604,None,272.36204807999604,None,2022-04-27-11:44:07.190296,272.3729238000087,272.67855870000494,272.3729238000087,None,None,272.3729238000087,None,273.1787975800049,None,,,,11013,0001,2022_Apr_27_1139,localizer,2021.1.3,59.27720927609605,
block,faces,faces066.bmp,,,,,0,119,119,119,,,,,,,,,,,,,,,,,,,,,,,,,,,,,,,,,,,,,,,,,,None,,273.1787975800049,None,273.1787975800049,None,2022-04-27-11:44:08.007072,273.1891670000041,273.49456819999614,273.1891670000041,None,None,273.1891670000041,None,273.99520398000607,None,,,,11013,0001,2022_Apr_27_1139,localizer,2021.1.3,59.27720927609605,
block,faces,faces062.bmp,,,,,0,120,120,120,,,,,,,,,,,,,,,,,,,,,,,,,,,,,,,,,,,,,,,,,,None,,273.99520398000607,None,273.99520398000607,None,2022-04-27-11:44:08.823495,274.0044273999956,274.3113375999965,274.0044273999956,None,None,274.0044273999956,None,274.8116423800035,None,,,,11013,0001,2022_Apr_27_1139,localizer,2021.1.3,59.27720927609605,
block_end,faces,faces043.bmp,,,,,0,121,121,121,,,,,,,,,,,,,,,,,,,,,,,,,,,,,,,,,,,,,,,,,,None,,274.8116423800035,None,274.8116423800035,None,2022-04-27-11:44:09.639724,274.8202132000006,275.128137000007,274.8202132000006,None,None,274.8202132000006,None,275.62844537999774,None,,,,11013,0001,2022_Apr_27_1139,localizer,2021.1.3,59.27720927609605,
block_start,scenes,scenes077.bmp,,,,,0,122,122,122,,,,,,,,,,,,,,,,,,,,,,,,,,,,,,,,,,,,,,,,,,t,1.7277281999995466,275.62815679999767,None,275.62815679999767,None,2022-04-27-11:44:12.206750,277.38887340000656,277.6949239999958,277.38887340000656,None,None,277.38887340000656,None,278.1952529799979,None,,,,11013,0001,2022_Apr_27_1139,localizer,2021.1.3,59.27720927609605,
block,scenes,scenes067.bmp,,,,,0,123,123,123,,,,,,,,,,,,,,,,,,,,,,,,,,,,,,,,,,,,,,,,,,None,,278.1952529799979,None,278.1952529799979,None,2022-04-27-11:44:13.023750,278.2052236000018,278.511699900002,278.2052236000018,None,None,278.2052236000018,None,279.0116528800078,None,,,,11013,0001,2022_Apr_27_1139,localizer,2021.1.3,59.27720927609605,
block,scenes,scenes029.bmp,,,,,0,124,124,124,,,,,,,,,,,,,,,,,,,,,,,,,,,,,,,,,,,,,,,,,,None,,279.0116528800078,None,279.0116528800078,None,2022-04-27-11:44:13.838733,279.0191324000043,279.3289141999994,279.0191324000043,None,None,279.0191324000043,None,279.829119680007,None,,,,11013,0001,2022_Apr_27_1139,localizer,2021.1.3,59.27720927609605,
block,scenes,scenes025.bmp,,,,,0,125,125,125,,,,,,,,,,,,,,,,,,,,,,,,,,,,,,,,,,,,,,,,,,None,,279.829119680007,None,279.829119680007,None,2022-04-27-11:44:14.657385,279.8436001000082,280.1448744000081,279.8436001000082,None,None,279.8436001000082,None,280.64524947999746,None,,,,11013,0001,2022_Apr_27_1139,localizer,2021.1.3,59.27720927609605,
block,scenes,scenes046.bmp,,,,,0,126,126,126,,,,,,,,,,,,,,,,,,,,,,,,,,,,,,,,,,,,,,,,,,None,,280.64524947999746,None,280.64524947999746,None,2022-04-27-11:44:15.473511,280.6458361999976,280.9462368999957,280.6458361999976,None,None,280.6458361999976,None,281.44525388000477,None,,,,11013,0001,2022_Apr_27_1139,localizer,2021.1.3,59.27720927609605,
block,scenes,scenes046.bmp,,,,,0,127,127,127,,,,,,,,,,,,,,,,,,,,,,,,,,,,,,,,,,,,,,,,,,None,,281.44525388000477,None,281.44525388000477,None,2022-04-27-11:44:16.275458,281.44640480000817,281.76164179999614,281.44640480000817,281.44640480000817,y,281.44640480000817,281.44640480000817,282.2618410800002,None,0.41636809999181423,,,11013,0001,2022_Apr_27_1139,localizer,2021.1.3,59.27720927609605,
block,scenes,scenes064.bmp,,,,,0,128,128,128,,,,,,,,,,,,,,,,,,,,,,,,,,,,,,,,,,,,,,,,,,None,,282.2618410800002,None,282.2618410800002,None,2022-04-27-11:44:17.089918,282.2625764999975,282.5616158000048,282.2625764999975,None,None,282.2625764999975,None,283.0622958800028,None,,,,11013,0001,2022_Apr_27_1139,localizer,2021.1.3,59.27720927609605,
block,scenes,scenes069.bmp,,,,,0,129,129,129,,,,,,,,,,,,,,,,,,,,,,,,,,,,,,,,,,,,,,,,,,None,,283.0622958800028,None,283.0622958800028,None,2022-04-27-11:44:17.891592,283.07396860000154,283.3786484000011,283.07396860000154,283.07396860000154,None,283.07396860000154,283.07396860000154,283.88065758000596,None,,,,11013,0001,2022_Apr_27_1139,localizer,2021.1.3,59.27720927609605,
block,scenes,scenes066.bmp,,,,,0,130,130,130,,,,,,,,,,,,,,,,,,,,,,,,,,,,,,,,,,,,,,,,,,None,,283.88065758000596,None,283.88065758000596,None,2022-04-27-11:44:18.712721,283.8846814999997,284.19562909999513,283.8846814999997,None,None,283.8846814999997,None,284.6960231799982,None,,,,11013,0001,2022_Apr_27_1139,localizer,2021.1.3,59.27720927609605,
block,scenes,scenes007.bmp,,,,,0,131,131,131,,,,,,,,,,,,,,,,,,,,,,,,,,,,,,,,,,,,,,,,,,None,,284.6960231799982,None,284.6960231799982,None,2022-04-27-11:44:19.525292,284.7114339999971,285.011648300002,284.7114339999971,None,None,284.7114339999971,None,285.5120957800042,None,,,,11013,0001,2022_Apr_27_1139,localizer,2021.1.3,59.27720927609605,
block,scenes,scenes016.bmp,,,,,0,132,132,132,,,,,,,,,,,,,,,,,,,,,,,,,,,,,,,,,,,,,,,,,,None,,285.5120957800042,None,285.5120957800042,None,2022-04-27-11:44:20.340169,285.52697750000516,285.82781930000056,285.52697750000516,None,None,285.52697750000516,None,286.3282622799976,None,,,,11013,0001,2022_Apr_27_1139,localizer,2021.1.3,59.27720927609605,
block,scenes,scenes042.bmp,,,,,0,133,133,133,,,,,,,,,,,,,,,,,,,,,,,,,,,,,,,,,,,,,,,,,,None,,286.3282622799976,None,286.3282622799976,None,2022-04-27-11:44:21.156675,286.3369068000029,286.64476250000007,286.3369068000029,None,None,286.3369068000029,None,287.14537628000255,None,,,,11013,0001,2022_Apr_27_1139,localizer,2021.1.3,59.27720927609605,
block,scenes,scenes087.bmp,,,,,0,134,134,134,,,,,,,,,,,,,,,,,,,,,,,,,,,,,,,,,,,,,,,,,,None,,287.14537628000255,None,287.14537628000255,None,2022-04-27-11:44:21.973655,287.15535990000353,287.4626683999959,287.15535990000353,None,None,287.15535990000353,None,287.96224657999994,None,,,,11013,0001,2022_Apr_27_1139,localizer,2021.1.3,59.27720927609605,
block,scenes,scenes074.bmp,,,,,0,135,135,135,,,,,,,,,,,,,,,,,,,,,,,,,,,,,,,,,,,,,,,,,,None,,287.96224657999994,None,287.96224657999994,None,2022-04-27-11:44:22.790522,287.97262369999953,288.27816729999904,287.97262369999953,None,None,287.97262369999953,None,288.7787772800017,None,,,,11013,0001,2022_Apr_27_1139,localizer,2021.1.3,59.27720927609605,
block_end,scenes,scenes080.bmp,,,,,0,136,136,136,,,,,,,,,,,,,,,,,,,,,,,,,,,,,,,,,,,,,,,,,,None,,288.7787772800017,None,288.7787772800017,None,2022-04-27-11:44:23.606852,288.7792124999978,289.07842950000486,288.7792124999978,None,None,288.7792124999978,None,289.5788000800036,None,,,,11013,0001,2022_Apr_27_1139,localizer,2021.1.3,59.27720927609605,
block_start,faces,faces033.bmp,,,,,0,137,137,137,,,,,,,,,,,,,,,,,,,,,,,,,,,,,,,,,,,,,,,,,,t,1.777577899993048,289.5783771999995,None,289.5783771999995,None,2022-04-27-11:44:26.205400,291.3924907000037,291.6948390000034,291.3924907000037,None,None,291.3924907000037,None,292.19547518000184,None,,,,11013,0001,2022_Apr_27_1139,localizer,2021.1.3,59.27720927609605,
block,faces,faces074.bmp,,,,,0,138,138,138,,,,,,,,,,,,,,,,,,,,,,,,,,,,,,,,,,,,,,,,,,None,,292.19547518000184,None,292.19547518000184,None,2022-04-27-11:44:27.023532,292.2014065999974,292.5117090999993,292.2014065999974,None,None,292.2014065999974,None,293.01206008000884,None,,,,11013,0001,2022_Apr_27_1139,localizer,2021.1.3,59.27720927609605,
block,faces,faces039.bmp,,,,,0,139,139,139,,,,,,,,,,,,,,,,,,,,,,,,,,,,,,,,,,,,,,,,,,None,,293.01206008000884,None,293.01206008000884,None,2022-04-27-11:44:27.840338,293.02210509999713,293.32836549999774,293.02210509999713,None,None,293.02210509999713,None,293.8287309800013,None,,,,11013,0001,2022_Apr_27_1139,localizer,2021.1.3,59.27720927609605,
block,faces,faces023.bmp,,,,,0,140,140,140,,,,,,,,,,,,,,,,,,,,,,,,,,,,,,,,,,,,,,,,,,None,,293.8287309800013,None,293.8287309800013,None,2022-04-27-11:44:28.656809,293.8384048000007,294.14490070000465,293.8384048000007,None,None,293.8384048000007,None,294.6453408800095,None,,,,11013,0001,2022_Apr_27_1139,localizer,2021.1.3,59.27720927609605,
block,faces,faces083.bmp,,,,,0,141,141,141,,,,,,,,,,,,,,,,,,,,,,,,,,,,,,,,,,,,,,,,,,None,,294.6453408800095,None,294.6453408800095,None,2022-04-27-11:44:29.473421,294.65354410000145,294.9616567000048,294.65354410000145,None,None,294.65354410000145,None,295.46202647999746,None,,,,11013,0001,2022_Apr_27_1139,localizer,2021.1.3,59.27720927609605,
block,faces,faces061.bmp,,,,,0,142,142,142,,,,,,,,,,,,,,,,,,,,,,,,,,,,,,,,,,,,,,,,,,None,,295.46202647999746,None,295.46202647999746,None,2022-04-27-11:44:30.291102,295.4728443000058,295.77845910000906,295.4728443000058,None,None,295.4728443000058,None,296.27864867999745,None,,,,11013,0001,2022_Apr_27_1139,localizer,2021.1.3,59.27720927609605,
block,faces,faces060.bmp,,,,,0,143,143,143,,,,,,,,,,,,,,,,,,,,,,,,,,,,,,,,,,,,,,,,,,None,,296.27864867999745,None,296.27864867999745,None,2022-04-27-11:44:31.106801,296.28821569999855,296.5951126,296.28821569999855,None,None,296.28821569999855,None,297.09529357999565,None,,,,11013,0001,2022_Apr_27_1139,localizer,2021.1.3,59.27720927609605,
block,faces,faces080.bmp,,,,,0,144,144,144,,,,,,,,,,,,,,,,,,,,,,,,,,,,,,,,,,,,,,,,,,None,,297.09529357999565,None,297.09529357999565,None,2022-04-27-11:44:31.923369,297.10812879999867,297.4116298000008,297.10812879999867,None,None,297.10812879999867,None,297.91231768,None,,,,11013,0001,2022_Apr_27_1139,localizer,2021.1.3,59.27720927609605,
block,faces,faces040.bmp,,,,,0,145,145,145,,,,,,,,,,,,,,,,,,,,,,,,,,,,,,,,,,,,,,,,,,None,,297.91231768,None,297.91231768,None,2022-04-27-11:44:32.747369,297.93333359999815,298.24503350000305,297.93333359999815,None,None,297.93333359999815,None,298.7286289800046,None,,,,11013,0001,2022_Apr_27_1139,localizer,2021.1.3,59.27720927609605,
block,faces,faces036.bmp,,,,,0,146,146,146,,,,,,,,,,,,,,,,,,,,,,,,,,,,,,,,,,,,,,,,,,None,,298.7286289800046,None,298.7286289800046,None,2022-04-27-11:44:33.556853,298.72937820000516,299.0282165999961,298.72937820000516,None,None,298.72937820000516,None,299.5288285799994,None,,,,11013,0001,2022_Apr_27_1139,localizer,2021.1.3,59.27720927609605,
block,faces,faces064.bmp,,,,,0,147,147,147,,,,,,,,,,,,,,,,,,,,,,,,,,,,,,,,,,,,,,,,,,None,,299.5288285799994,None,299.5288285799994,None,2022-04-27-11:44:34.359109,299.53956659999676,299.8489308999997,299.53956659999676,299.53956659999676,None,299.53956659999676,299.53956659999676,300.3465502800042,None,,,,11013,0001,2022_Apr_27_1139,localizer,2021.1.3,59.27720927609605,
block,faces,faces020.bmp,,,,,0,148,148,148,,,,,,,,,,,,,,,,,,,,,,,,,,,,,,,,,,,,,,,,,,None,,300.3465502800042,None,300.3465502800042,None,2022-04-27-11:44:35.177665,300.3495991000091,300.66233730000386,300.3495991000091,None,None,300.3495991000091,None,301.1627492799977,None,,,,11013,0001,2022_Apr_27_1139,localizer,2021.1.3,59.27720927609605,
block,faces,faces063.bmp,,,,,0,149,149,149,,,,,,,,,,,,,,,,,,,,,,,,,,,,,,,,,,,,,,,,,,None,,301.1627492799977,None,301.1627492799977,None,2022-04-27-11:44:35.991875,301.1633499000018,301.47802950000914,301.1633499000018,None,None,301.1633499000018,None,301.97850728000924,None,,,,11013,0001,2022_Apr_27_1139,localizer,2021.1.3,59.27720927609605,
block,faces,faces030.bmp,,,,,0,150,150,150,,,,,,,,,,,,,,,,,,,,,,,,,,,,,,,,,,,,,,,,,,None,,301.97850728000924,None,301.97850728000924,None,2022-04-27-11:44:36.806548,301.984085300006,302.29531190000125,301.984085300006,None,None,301.984085300006,None,302.7958327800094,None,,,,11013,0001,2022_Apr_27_1139,localizer,2021.1.3,59.27720927609605,
block_end,faces,faces050.bmp,,,,,0,151,151,151,,,,,,,,,,,,,,,,,,,,,,,,,,,,,,,,,,,,,,,,,,None,,302.7958327800094,None,302.7958327800094,None,2022-04-27-11:44:37.625086,302.8064049999957,303.1117024999985,302.8064049999957,None,None,302.8064049999957,None,303.6120761800063,None,,,,11013,0001,2022_Apr_27_1139,localizer,2021.1.3,59.27720927609605,
block_start,scrambled,scrambled025.bmp,,,,,0,152,152,152,,,,,,,,,,,,,,,,,,,,,,,,,,,,,,,,,,,,,,,,,,t,1.7442322999995667,303.61161320000247,None,303.61161320000247,None,2022-04-27-11:44:40.206101,305.37955710000824,305.6790925999958,305.37955710000824,None,None,305.37955710000824,None,306.178878380009,None,,,,11013,0001,2022_Apr_27_1139,localizer,2021.1.3,59.27720927609605,
block,scrambled,scrambled005.bmp,,,,,0,153,153,153,,,,,,,,,,,,,,,,,,,,,,,,,,,,,,,,,,,,,,,,,,None,,306.178878380009,None,306.178878380009,None,2022-04-27-11:44:41.008948,306.18963999999687,306.49500019999687,306.18963999999687,306.18963999999687,None,306.18963999999687,306.18963999999687,306.99534057999847,None,,,,11013,0001,2022_Apr_27_1139,localizer,2021.1.3,59.27720927609605,
block,scrambled,scrambled020.bmp,,,,,0,154,154,154,,,,,,,,,,,,,,,,,,,,,,,,,,,,,,,,,,,,,,,,,,None,,306.99534057999847,None,306.99534057999847,None,2022-04-27-11:44:41.823388,307.0030540000007,307.31208360000164,307.0030540000007,None,None,307.0030540000007,None,307.8121876800084,None,,,,11013,0001,2022_Apr_27_1139,localizer,2021.1.3,59.27720927609605,
block,scrambled,scrambled036.bmp,,,,,0,155,155,155,,,,,,,,,,,,,,,,,,,,,,,,,,,,,,,,,,,,,,,,,,None,,307.8121876800084,None,307.8121876800084,None,2022-04-27-11:44:42.640504,307.8210793000035,308.1291446999967,307.8210793000035,None,None,307.8210793000035,None,308.629309880003,None,,,,11013,0001,2022_Apr_27_1139,localizer,2021.1.3,59.27720927609605,
block,scrambled,scrambled071.bmp,,,,,0,156,156,156,,,,,,,,,,,,,,,,,,,,,,,,,,,,,,,,,,,,,,,,,,None,,308.629309880003,None,308.629309880003,None,2022-04-27-11:44:43.458375,308.6300689000054,308.94526069999847,308.6300689000054,None,None,308.6300689000054,None,309.44571818000406,None,,,,11013,0001,2022_Apr_27_1139,localizer,2021.1.3,59.27720927609605,
block,scrambled,scrambled029.bmp,,,,,0,157,157,157,,,,,,,,,,,,,,,,,,,,,,,,,,,,,,,,,,,,,,,,,,None,,309.44571818000406,None,309.44571818000406,None,2022-04-27-11:44:44.273793,309.455566500008,309.76207969999814,309.455566500008,None,None,309.455566500008,None,310.2624833800015,None,,,,11013,0001,2022_Apr_27_1139,localizer,2021.1.3,59.27720927609605,
block,scrambled,scrambled014.bmp,,,,,0,158,158,158,,,,,,,,,,,,,,,,,,,,,,,,,,,,,,,,,,,,,,,,,,None,,310.2624833800015,None,310.2624833800015,None,2022-04-27-11:44:45.090555,310.2628648999962,310.5621121000004,310.2628648999962,None,None,310.2628648999962,None,311.06248948000723,None,,,,11013,0001,2022_Apr_27_1139,localizer,2021.1.3,59.27720927609605,
block,scrambled,scrambled044.bmp,,,,,0,159,159,159,,,,,,,,,,,,,,,,,,,,,,,,,,,,,,,,,,,,,,,,,,None,,311.06248948000723,None,311.06248948000723,None,2022-04-27-11:44:45.892756,311.0747216000018,311.37879149999935,311.0747216000018,311.0747216000018,None,311.0747216000018,311.0747216000018,311.8791605800012,None,,,,11013,0001,2022_Apr_27_1139,localizer,2021.1.3,59.27720927609605,
block,scrambled,scrambled066.bmp,,,,,0,160,160,160,,,,,,,,,,,,,,,,,,,,,,,,,,,,,,,,,,,,,,,,,,None,,311.8791605800012,None,311.8791605800012,None,2022-04-27-11:44:46.707459,311.89028320000216,312.196394300001,311.89028320000216,None,None,311.89028320000216,None,312.69540828000174,None,,,,11013,0001,2022_Apr_27_1139,localizer,2021.1.3,59.27720927609605,
block,scrambled,scrambled087.bmp,,,,,0,161,161,161,,,,,,,,,,,,,,,,,,,,,,,,,,,,,,,,,,,,,,,,,,None,,312.69540828000174,None,312.69540828000174,None,2022-04-27-11:44:47.523487,312.70352470000216,313.01415070000803,312.70352470000216,None,None,312.70352470000216,None,313.51278748000334,None,,,,11013,0001,2022_Apr_27_1139,localizer,2021.1.3,59.27720927609605,
block,scrambled,scrambled064.bmp,,,,,0,162,162,162,,,,,,,,,,,,,,,,,,,,,,,,,,,,,,,,,,,,,,,,,,None,,313.51278748000334,None,313.51278748000334,None,2022-04-27-11:44:48.341852,313.51329299999634,313.81219939999573,313.51329299999634,None,None,313.51329299999634,None,314.3286917800084,None,,,,11013,0001,2022_Apr_27_1139,localizer,2021.1.3,59.27720927609605,
block,scrambled,scrambled068.bmp,,,,,0,163,163,163,,,,,,,,,,,,,,,,,,,,,,,,,,,,,,,,,,,,,,,,,,None,,314.3286917800084,None,314.3286917800084,None,2022-04-27-11:44:49.156769,314.333767899996,314.64585430000443,314.333767899996,None,None,314.333767899996,None,315.1454042799975,None,,,,11013,0001,2022_Apr_27_1139,localizer,2021.1.3,59.27720927609605,
block,scrambled,scrambled080.bmp,,,,,0,164,164,164,,,,,,,,,,,,,,,,,,,,,,,,,,,,,,,,,,,,,,,,,,None,,315.1454042799975,None,315.1454042799975,None,2022-04-27-11:44:49.973480,315.15458370000124,315.46172380000644,315.15458370000124,None,None,315.15458370000124,None,315.96208698000703,None,,,,11013,0001,2022_Apr_27_1139,localizer,2021.1.3,59.27720927609605,
block,scrambled,scrambled054.bmp,,,,,0,165,165,165,,,,,,,,,,,,,,,,,,,,,,,,,,,,,,,,,,,,,,,,,,None,,315.96208698000703,None,315.96208698000703,None,2022-04-27-11:44:50.789455,315.96975109999767,316.27863010000146,315.96975109999767,None,None,315.96975109999767,None,316.7788574800012,None,,,,11013,0001,2022_Apr_27_1139,localizer,2021.1.3,59.27720927609605,
block_end,scrambled,scrambled004.bmp,,,,,0,166,166,166,,,,,,,,,,,,,,,,,,,,,,,,,,,,,,,,,,,,,,,,,,None,,316.7788574800012,None,316.7788574800012,None,2022-04-27-11:44:51.606935,316.7871174000029,317.09535089999554,316.7871174000029,None,None,316.7871174000029,None,317.59549087999915,None,,,,11013,0001,2022_Apr_27_1139,localizer,2021.1.3,59.27720927609605,
block_start,objects,objects038.bmp,,,,,0,167,167,167,,,,,,,,,,,,,,,,,,,,,,,,,,,,,,,,,,,,,,,,,,t,1.7607405000017025,317.59512379999796,None,317.59512379999796,None,2022-04-27-11:44:54.204948,319.38498109999637,319.69516139999905,319.38498109999637,None,None,319.38498109999637,None,320.19588468000586,None,,,,11013,0001,2022_Apr_27_1139,localizer,2021.1.3,59.27720927609605,
block,objects,objects061.bmp,,,,,0,168,168,168,,,,,,,,,,,,,,,,,,,,,,,,,,,,,,,,,,,,,,,,,,None,,320.19588468000586,None,320.19588468000586,None,2022-04-27-11:44:55.024182,320.2063610000041,320.511591100003,320.2063610000041,None,None,320.2063610000041,None,321.0123796799977,None,,,,11013,0001,2022_Apr_27_1139,localizer,2021.1.3,59.27720927609605,
block,objects,objects010.bmp,,,,,0,169,169,169,,,,,,,,,,,,,,,,,,,,,,,,,,,,,,,,,,,,,,,,,,None,,321.0123796799977,None,321.0123796799977,None,2022-04-27-11:44:55.840659,321.01280500000576,321.3119425000041,321.01280500000576,None,None,321.01280500000576,None,321.8123005800095,None,,,,11013,0001,2022_Apr_27_1139,localizer,2021.1.3,59.27720927609605,
block,objects,objects085.bmp,,,,,0,170,170,170,,,,,,,,,,,,,,,,,,,,,,,,,,,,,,,,,,,,,,,,,,None,,321.8123005800095,None,321.8123005800095,None,2022-04-27-11:44:56.642373,321.8229014999961,322.12852399999974,321.8229014999961,321.8229014999961,None,321.8229014999961,321.8229014999961,322.6288486799982,None,,,,11013,0001,2022_Apr_27_1139,localizer,2021.1.3,59.27720927609605,
block,objects,objects026.bmp,,,,,0,171,171,171,,,,,,,,,,,,,,,,,,,,,,,,,,,,,,,,,,,,,,,,,,None,,322.6288486799982,None,322.6288486799982,None,2022-04-27-11:44:57.457138,322.6383128000016,322.94501189999573,322.6383128000016,None,None,322.6383128000016,None,323.44559828000786,None,,,,11013,0001,2022_Apr_27_1139,localizer,2021.1.3,59.27720927609605,
block,objects,objects042.bmp,,,,,0,172,172,172,,,,,,,,,,,,,,,,,,,,,,,,,,,,,,,,,,,,,,,,,,None,,323.44559828000786,None,323.44559828000786,None,2022-04-27-11:44:58.273674,323.45553170000494,323.7621051000024,323.45553170000494,None,None,323.45553170000494,None,324.2623336799967,None,,,,11013,0001,2022_Apr_27_1139,localizer,2021.1.3,59.27720927609605,
block,objects,objects014.bmp,,,,,0,173,173,173,,,,,,,,,,,,,,,,,,,,,,,,,,,,,,,,,,,,,,,,,,None,,324.2623336799967,None,324.2623336799967,None,2022-04-27-11:44:59.090619,324.26273899999796,324.56222150000394,324.26273899999796,None,None,324.26273899999796,None,325.0623105799983,None,,,,11013,0001,2022_Apr_27_1139,localizer,2021.1.3,59.27720927609605,
block,objects,objects068.bmp,,,,,0,174,174,174,,,,,,,,,,,,,,,,,,,,,,,,,,,,,,,,,,,,,,,,,,None,,325.0623105799983,None,325.0623105799983,None,2022-04-27-11:44:59.891809,325.0742791000084,325.37850320000143,325.0742791000084,325.0742791000084,None,325.0742791000084,325.0742791000084,325.87903567999604,None,,,,11013,0001,2022_Apr_27_1139,localizer,2021.1.3,59.27720927609605,
block,objects,objects031.bmp,,,,,0,175,175,175,,,,,,,,,,,,,,,,,,,,,,,,,,,,,,,,,,,,,,,,,,None,,325.87903567999604,None,325.87903567999604,None,2022-04-27-11:45:00.707108,325.8879219000082,326.1952922000055,325.8879219000082,None,None,325.8879219000082,None,326.6961340799986,None,,,,11013,0001,2022_Apr_27_1139,localizer,2021.1.3,59.27720927609605,
block,objects,objects036.bmp,,,,,0,176,176,176,,,,,,,,,,,,,,,,,,,,,,,,,,,,,,,,,,,,,,,,,,None,,326.6961340799986,None,326.6961340799986,None,2022-04-27-11:45:01.525399,326.69636240000546,326.99510569999984,326.69636240000546,None,None,326.69636240000546,None,327.495758580009,None,,,,11013,0001,2022_Apr_27_1139,localizer,2021.1.3,59.27720927609605,
block,objects,objects022.bmp,,,,,0,177,177,177,,,,,,,,,,,,,,,,,,,,,,,,,,,,,,,,,,,,,,,,,,None,,327.495758580009,None,327.495758580009,None,2022-04-27-11:45:02.325827,327.5071781000006,327.8119614000025,327.5071781000006,327.5071781000006,None,327.5071781000006,327.5071781000006,328.31230798000763,None,,,,11013,0001,2022_Apr_27_1139,localizer,2021.1.3,59.27720927609605,
block,objects,objects002.bmp,,,,,0,178,178,178,,,,,,,,,,,,,,,,,,,,,,,,,,,,,,,,,,,,,,,,,,None,,328.31230798000763,None,328.31230798000763,None,2022-04-27-11:45:03.140786,328.31284589999996,328.61209840000083,328.31284589999996,None,None,328.31284589999996,None,329.11240148000945,None,,,,11013,0001,2022_Apr_27_1139,localizer,2021.1.3,59.27720927609605,
block,objects,objects053.bmp,,,,,0,179,179,179,,,,,,,,,,,,,,,,,,,,,,,,,,,,,,,,,,,,,,,,,,None,,329.11240148000945,None,329.11240148000945,None,2022-04-27-11:45:03.942475,329.1133663000073,329.4287859000033,329.1133663000073,329.1133663000073,None,329.1133663000073,329.1133663000073,329.9287619799958,None,,,,11013,0001,2022_Apr_27_1139,localizer,2021.1.3,59.27720927609605,
block,objects,objects086.bmp,,,,,0,180,180,180,,,,,,,,,,,,,,,,,,,,,,,,,,,,,,,,,,,,,,,,,,None,,329.9287619799958,None,329.9287619799958,None,2022-04-27-11:45:04.757112,329.930094299998,330.24525570000696,329.930094299998,None,None,329.930094299998,None,330.7455530800013,None,,,,11013,0001,2022_Apr_27_1139,localizer,2021.1.3,59.27720927609605,
block_end,objects,objects081.bmp,,,,,0,181,181,181,,,,,,,,,,,,,,,,,,,,,,,,,,,,,,,,,,,,,,,,,,None,,330.7455530800013,None,330.7455530800013,None,2022-04-27-11:45:05.573631,330.75452719999885,331.06198949999816,330.75452719999885,None,None,330.75452719999885,None,331.5643611799984,None,,,,11013,0001,2022_Apr_27_1139,localizer,2021.1.3,59.27720927609605,
null_block,null_block,null_block.bmp,,,,,0,182,182,182,,,,,,,,,,,,,,,,,,,,,,,,,,,,,,,,,,,,,,,,,,t,1.7903990000049816,331.5655376000068,None,331.5655376000068,None,2022-04-27-11:45:08.205165,333.3788942799962,None,333.3788942799962,None,None,333.3788942799962,None,333.3800375999999,None,,,,11013,0001,2022_Apr_27_1139,localizer,2021.1.3,59.27720927609605,
block_start,scrambled,scrambled048.bmp,,,,,0,183,183,183,,,,,,,,,,,,,,,,,,,,,,,,,,,,,,,,,,,,,,,,,,t,1.9769011000025785,345.3790120000049,None,345.3790120000049,None,2022-04-27-11:45:22.206291,347.379420199999,347.67878709999786,347.379420199999,None,None,347.379420199999,None,348.1790147799999,None,,,,11013,0001,2022_Apr_27_1139,localizer,2021.1.3,59.27720927609605,
block,scrambled,scrambled021.bmp,,,,,0,184,184,184,,,,,,,,,,,,,,,,,,,,,,,,,,,,,,,,,,,,,,,,,,None,,348.1790147799999,None,348.1790147799999,None,2022-04-27-11:45:23.008459,348.18817550000676,348.4952068999992,348.18817550000676,348.18817550000676,None,348.18817550000676,348.18817550000676,348.9957018799993,None,,,,11013,0001,2022_Apr_27_1139,localizer,2021.1.3,59.27720927609605,
block,scrambled,scrambled087.bmp,,,,,0,185,185,185,,,,,,,,,,,,,,,,,,,,,,,,,,,,,,,,,,,,,,,,,,None,,348.9957018799993,None,348.9957018799993,None,2022-04-27-11:45:23.823996,348.9962386999978,349.29538560000947,348.9962386999978,None,None,348.9962386999978,None,349.79566948000286,None,,,,11013,0001,2022_Apr_27_1139,localizer,2021.1.3,59.27720927609605,
block,scrambled,scrambled073.bmp,,,,,0,186,186,186,,,,,,,,,,,,,,,,,,,,,,,,,,,,,,,,,,,,,,,,,,None,,349.79566948000286,None,349.79566948000286,None,2022-04-27-11:45:24.625882,349.80237289999786,350.111982500006,349.80237289999786,349.80237289999786,None,349.80237289999786,349.80237289999786,350.61228117999565,None,,,,11013,0001,2022_Apr_27_1139,localizer,2021.1.3,59.27720927609605,
block,scrambled,scrambled039.bmp,,,,,0,187,187,187,,,,,,,,,,,,,,,,,,,,,,,,,,,,,,,,,,,,,,,,,,None,,350.61228117999565,None,350.61228117999565,None,2022-04-27-11:45:25.440367,350.6130015999952,350.9179174000019,350.6130015999952,None,None,350.6130015999952,None,351.41201398000123,None,,,,11013,0001,2022_Apr_27_1139,localizer,2021.1.3,59.27720927609605,
block,scrambled,scrambled063.bmp,,,,,0,188,188,188,,,,,,,,,,,,,,,,,,,,,,,,,,,,,,,,,,,,,,,,,,None,,351.41201398000123,None,351.41201398000123,None,2022-04-27-11:45:26.242093,351.4133826000034,351.72862900000473,351.4133826000034,351.4133826000034,None,351.4133826000034,351.4133826000034,352.22904657999754,None,,,,11013,0001,2022_Apr_27_1139,localizer,2021.1.3,59.27720927609605,
block,scrambled,scrambled063.bmp,,,,,0,189,189,189,,,,,,,,,,,,,,,,,,,,,,,,,,,,,,,,,,,,,,,,,,None,,352.22904657999754,None,352.22904657999754,None,2022-04-27-11:45:27.057354,352.2295818999992,352.5286513000028,352.2295818999992,None,None,352.2295818999992,None,353.02874468000084,None,,,,11013,0001,2022_Apr_27_1139,localizer,2021.1.3,59.27720927609605,
block,scrambled,scrambled010.bmp,,,,,0,190,190,190,,,,,,,,,,,,,,,,,,,,,,,,,,,,,,,,,,,,,,,,,,None,,353.02874468000084,None,353.02874468000084,None,2022-04-27-11:45:27.858680,353.03811370000767,353.34520530000736,353.03811370000767,353.03811370000767,None,353.03811370000767,353.03811370000767,353.84561327999984,None,,,,11013,0001,2022_Apr_27_1139,localizer,2021.1.3,59.27720927609605,
block,scrambled,scrambled001.bmp,,,,,0,191,191,191,,,,,,,,,,,,,,,,,,,,,,,,,,,,,,,,,,,,,,,,,,None,,353.84561327999984,None,353.84561327999984,None,2022-04-27-11:45:28.673692,353.84638180000184,354.14525709999725,353.84638180000184,None,None,353.84638180000184,None,354.64551608000477,None,,,,11013,0001,2022_Apr_27_1139,localizer,2021.1.3,59.27720927609605,
block,scrambled,scrambled062.bmp,,,,,0,192,192,192,,,,,,,,,,,,,,,,,,,,,,,,,,,,,,,,,,,,,,,,,,None,,354.64551608000477,None,354.64551608000477,None,2022-04-27-11:45:29.474591,354.65491759999713,354.9617932999972,354.65491759999713,354.65491759999713,None,354.65491759999713,354.65491759999713,355.4624209800037,None,,,,11013,0001,2022_Apr_27_1139,localizer,2021.1.3,59.27720927609605,
block,scrambled,scrambled005.bmp,,,,,0,193,193,193,,,,,,,,,,,,,,,,,,,,,,,,,,,,,,,,,,,,,,,,,,None,,355.4624209800037,None,355.4624209800037,None,2022-04-27-11:45:30.290499,355.4630326000042,355.76217060000636,355.4630326000042,None,None,355.4630326000042,None,356.2624903799966,None,,,,11013,0001,2022_Apr_27_1139,localizer,2021.1.3,59.27720927609605,
block,scrambled,scrambled072.bmp,,,,,0,194,194,194,,,,,,,,,,,,,,,,,,,,,,,,,,,,,,,,,,,,,,,,,,None,,356.2624903799966,None,356.2624903799966,None,2022-04-27-11:45:31.092560,356.2737089000002,356.57866460000514,356.2737089000002,356.2737089000002,None,356.2737089000002,356.2737089000002,357.0790585800074,None,,,,11013,0001,2022_Apr_27_1139,localizer,2021.1.3,59.27720927609605,
block,scrambled,scrambled081.bmp,,,,,0,195,195,195,,,,,,,,,,,,,,,,,,,,,,,,,,,,,,,,,,,,,,,,,,None,,357.0790585800074,None,357.0790585800074,None,2022-04-27-11:45:31.907134,357.0883818000002,357.39511389999825,357.0883818000002,None,None,357.0883818000002,None,357.89591498000084,None,,,,11013,0001,2022_Apr_27_1139,localizer,2021.1.3,59.27720927609605,
block,scrambled,scrambled019.bmp,,,,,0,196,196,196,,,,,,,,,,,,,,,,,,,,,,,,,,,,,,,,,,,,,,,,,,None,,357.89591498000084,None,357.89591498000084,None,2022-04-27-11:45:32.724107,357.9048735999968,358.21207989999675,357.9048735999968,None,None,357.9048735999968,None,358.7125115800096,None,,,,11013,0001,2022_Apr_27_1139,localizer,2021.1.3,59.27720927609605,
block_end,scrambled,scrambled012.bmp,,,,,0,197,197,197,,,,,,,,,,,,,,,,,,,,,,,,,,,,,,,,,,,,,,,,,,None,,358.7125115800096,None,358.7125115800096,None,2022-04-27-11:45:33.540589,358.71300830000837,359.0121164000011,358.71300830000837,None,None,358.71300830000837,None,359.51253057999713,None,,,,11013,0001,2022_Apr_27_1139,localizer,2021.1.3,59.27720927609605,
null_block,null_block,null_block.bmp,,,,,0,198,198,198,,,,,,,,,,,,,,,,,,,,,,,,,,,,,,,,,,,,,,,,,,t,1.8440946000046097,359.511857400008,None,359.511857400008,None,2022-04-27-11:45:36.205334,361.3790540800052,None,361.3790540800052,None,None,361.3790540800052,None,361.38027259999944,None,,,,11013,0001,2022_Apr_27_1139,localizer,2021.1.3,59.27720927609605,
block_start,objects,objects064.bmp,,,,,0,199,199,199,,,,,,,,,,,,,,,,,,,,,,,,,,,,,,,,,,,,,,,,,,t,1.9771011999982875,373.3789919999981,None,373.3789919999981,None,2022-04-27-11:45:50.211104,375.3922227000003,375.695850300006,375.3922227000003,None,None,375.3922227000003,None,376.19655328000374,None,,,,11013,0001,2022_Apr_27_1139,localizer,2021.1.3,59.27720927609605,
block,objects,objects066.bmp,,,,,0,200,200,200,,,,,,,,,,,,,,,,,,,,,,,,,,,,,,,,,,,,,,,,,,None,,376.19655328000374,None,376.19655328000374,None,2022-04-27-11:45:51.025813,376.2082620000001,376.5129686,376.2082620000001,None,None,376.2082620000001,None,377.01329287999545,None,,,,11013,0001,2022_Apr_27_1139,localizer,2021.1.3,59.27720927609605,
block,objects,objects057.bmp,,,,,0,201,201,201,,,,,,,,,,,,,,,,,,,,,,,,,,,,,,,,,,,,,,,,,,None,,377.01329287999545,None,377.01329287999545,None,2022-04-27-11:45:51.842357,377.0248646999971,377.32961200000136,377.0248646999971,None,None,377.0248646999971,None,377.8290811800049,None,,,,11013,0001,2022_Apr_27_1139,localizer,2021.1.3,59.27720927609605,
block,objects,objects082.bmp,,,,,0,202,202,202,,,,,,,,,,,,,,,,,,,,,,,,,,,,,,,,,,,,,,,,,,None,,377.8290811800049,None,377.8290811800049,None,2022-04-27-11:45:52.657162,377.8365633000067,378.1462831999961,377.8365633000067,None,None,377.8365633000067,None,378.6466001800087,None,,,,11013,0001,2022_Apr_27_1139,localizer,2021.1.3,59.27720927609605,
block,objects,objects073.bmp,,,,,0,203,203,203,,,,,,,,,,,,,,,,,,,,,,,,,,,,,,,,,,,,,,,,,,None,,378.6466001800087,None,378.6466001800087,None,2022-04-27-11:45:53.475834,378.6581794000085,378.96282880000945,378.6581794000085,None,None,378.6581794000085,None,379.46593077999717,None,,,,11013,0001,2022_Apr_27_1139,localizer,2021.1.3,59.27720927609605,
block,objects,objects054.bmp,,,,,0,204,204,204,,,,,,,,,,,,,,,,,,,,,,,,,,,,,,,,,,,,,,,,,,None,,379.46593077999717,None,379.46593077999717,None,2022-04-27-11:45:54.295733,379.47883540000475,379.7791073999979,379.47883540000475,None,None,379.47883540000475,None,380.2792057800049,None,,,,11013,0001,2022_Apr_27_1139,localizer,2021.1.3,59.27720927609605,
block,objects,objects056.bmp,,,,,0,205,205,205,,,,,,,,,,,,,,,,,,,,,,,,,,,,,,,,,,,,,,,,,,None,,380.2792057800049,None,380.2792057800049,None,2022-04-27-11:45:55.107286,380.2800225999963,380.5788906999951,380.2800225999963,None,None,380.2800225999963,None,381.0795378800045,None,,,,11013,0001,2022_Apr_27_1139,localizer,2021.1.3,59.27720927609605,
block,objects,objects060.bmp,,,,,0,206,206,206,,,,,,,,,,,,,,,,,,,,,,,,,,,,,,,,,,,,,,,,,,None,,381.0795378800045,None,381.0795378800045,None,2022-04-27-11:45:55.909605,381.0911982999969,381.3961169999966,381.0911982999969,381.0911982999969,None,381.0911982999969,381.0911982999969,381.8963221800019,None,,,,11013,0001,2022_Apr_27_1139,localizer,2021.1.3,59.27720927609605,
block,objects,objects047.bmp,,,,,0,207,207,207,,,,,,,,,,,,,,,,,,,,,,,,,,,,,,,,,,,,,,,,,,None,,381.8963221800019,None,381.8963221800019,None,2022-04-27-11:45:56.724370,381.89667230000487,382.1955009000085,381.89667230000487,None,None,381.89667230000487,None,382.6965528800007,None,,,,11013,0001,2022_Apr_27_1139,localizer,2021.1.3,59.27720927609605,
block,objects,objects023.bmp,,,,,0,208,208,208,,,,,,,,,,,,,,,,,,,,,,,,,,,,,,,,,,,,,,,,,,None,,382.6965528800007,None,382.6965528800007,None,2022-04-27-11:45:57.527618,382.6990685000055,383.0020930000028,382.6990685000055,382.6990685000055,None,382.6990685000055,382.6990685000055,383.51254518000644,None,,,,11013,0001,2022_Apr_27_1139,localizer,2021.1.3,59.27720927609605,
block,objects,objects009.bmp,,,,,0,209,209,209,,,,,,,,,,,,,,,,,,,,,,,,,,,,,,,,,,,,,,,,,,None,,383.51254518000644,None,383.51254518000644,None,2022-04-27-11:45:58.340624,383.52059450000525,383.8291248000023,383.52059450000525,None,None,383.52059450000525,None,384.329366080006,None,,,,11013,0001,2022_Apr_27_1139,localizer,2021.1.3,59.27720927609605,
block,objects,objects083.bmp,,,,,0,210,210,210,,,,,,,,,,,,,,,,,,,,,,,,,,,,,,,,,,,,,,,,,,None,,384.329366080006,None,384.329366080006,None,2022-04-27-11:45:59.157440,384.3299390000029,384.62924180000846,384.3299390000029,None,None,384.3299390000029,None,385.1292690799979,None,,,,11013,0001,2022_Apr_27_1139,localizer,2021.1.3,59.27720927609605,
block,objects,objects059.bmp,,,,,0,211,211,211,,,,,,,,,,,,,,,,,,,,,,,,,,,,,,,,,,,,,,,,,,None,,385.1292690799979,None,385.1292690799979,None,2022-04-27-11:45:59.958345,385.13508590000856,385.44539700000314,385.13508590000856,385.13508590000856,None,385.13508590000856,385.13508590000856,385.94615058000784,None,,,,11013,0001,2022_Apr_27_1139,localizer,2021.1.3,59.27720927609605,
block,objects,objects043.bmp,,,,,0,212,212,212,,,,,,,,,,,,,,,,,,,,,,,,,,,,,,,,,,,,,,,,,,None,,385.94615058000784,None,385.94615058000784,None,2022-04-27-11:46:00.774199,385.9465659999987,386.2456677000009,385.9465659999987,None,None,385.9465659999987,None,386.7463921800023,None,,,,11013,0001,2022_Apr_27_1139,localizer,2021.1.3,59.27720927609605,
block_end,objects,objects071.bmp,,,,,0,213,213,213,,,,,,,,,,,,,,,,,,,,,,,,,,,,,,,,,,,,,,,,,,None,,386.7463921800023,None,386.7463921800023,None,2022-04-27-11:46:01.576672,386.7591048000031,387.06260839999595,386.7591048000031,386.7591048000031,None,386.7591048000031,386.7591048000031,387.56270558000836,None,,,,11013,0001,2022_Apr_27_1139,localizer,2021.1.3,59.27720927609605,
block_start,scenes,scenes030.bmp,,,,,0,214,214,214,,,,,,,,,,,,,,,,,,,,,,,,,,,,,,,,,,,,,,,,,,t,1.7937099999981,387.56224929999735,None,387.56224929999735,None,2022-04-27-11:46:04.205618,389.38278310000896,389.6964280999964,389.38278310000896,None,None,389.38278310000896,None,390.195548480007,None,,,,11013,0001,2022_Apr_27_1139,localizer,2021.1.3,59.27720927609605,
block,scenes,scenes048.bmp,,,,,0,215,215,215,,,,,,,,,,,,,,,,,,,,,,,,,,,,,,,,,,,,,,,,,,None,,390.195548480007,None,390.195548480007,None,2022-04-27-11:46:05.023029,390.2043696000037,390.51225729999715,390.2043696000037,None,None,390.2043696000037,None,391.012940980008,None,,,,11013,0001,2022_Apr_27_1139,localizer,2021.1.3,59.27720927609605,
block,scenes,scenes017.bmp,,,,,0,216,216,216,,,,,,,,,,,,,,,,,,,,,,,,,,,,,,,,,,,,,,,,,,None,,391.012940980008,None,391.012940980008,None,2022-04-27-11:46:05.841177,391.0135229000007,391.3127444999991,391.0135229000007,None,None,391.0135229000007,None,391.81257807999793,None,,,,11013,0001,2022_Apr_27_1139,localizer,2021.1.3,59.27720927609605,
block,scenes,scenes059.bmp,,,,,0,217,217,217,,,,,,,,,,,,,,,,,,,,,,,,,,,,,,,,,,,,,,,,,,None,,391.81257807999793,None,391.81257807999793,None,2022-04-27-11:46:06.641658,391.82066399999894,392.12910420000844,391.82066399999894,391.82066399999894,None,391.82066399999894,391.82066399999894,392.6296021800023,None,,,,11013,0001,2022_Apr_27_1139,localizer,2021.1.3,59.27720927609605,
block,scenes,scenes031.bmp,,,,,0,218,218,218,,,,,,,,,,,,,,,,,,,,,,,,,,,,,,,,,,,,,,,,,,None,,392.6296021800023,None,392.6296021800023,None,2022-04-27-11:46:07.457872,392.64038480000454,392.9486617000075,392.64038480000454,None,None,392.64038480000454,None,393.4455565799959,None,,,,11013,0001,2022_Apr_27_1139,localizer,2021.1.3,59.27720927609605,
block,scenes,scenes081.bmp,,,,,0,219,219,219,,,,,,,,,,,,,,,,,,,,,,,,,,,,,,,,,,,,,,,,,,None,,393.4455565799959,None,393.4455565799959,None,2022-04-27-11:46:08.273852,393.4536601,393.7631316000043,393.4536601,None,None,393.4536601,None,394.2628771800024,None,,,,11013,0001,2022_Apr_27_1139,localizer,2021.1.3,59.27720927609605,
block,scenes,scenes076.bmp,,,,,0,220,220,220,,,,,,,,,,,,,,,,,,,,,,,,,,,,,,,,,,,,,,,,,,None,,394.2628771800024,None,394.2628771800024,None,2022-04-27-11:46:09.090935,394.26323100000445,394.5625308000017,394.26323100000445,None,None,394.26323100000445,None,395.0626602799981,None,,,,11013,0001,2022_Apr_27_1139,localizer,2021.1.3,59.27720927609605,
block,scenes,scenes080.bmp,,,,,0,221,221,221,,,,,,,,,,,,,,,,,,,,,,,,,,,,,,,,,,,,,,,,,,None,,395.0626602799981,None,395.0626602799981,None,2022-04-27-11:46:09.892856,395.06364560000657,395.3626962999988,395.06364560000657,395.06364560000657,None,395.06364560000657,395.06364560000657,395.87939697999684,None,,,,11013,0001,2022_Apr_27_1139,localizer,2021.1.3,59.27720927609605,
block,scenes,scenes012.bmp,,,,,0,222,222,222,,,,,,,,,,,,,,,,,,,,,,,,,,,,,,,,,,,,,,,,,,None,,395.87939697999684,None,395.87939697999684,None,2022-04-27-11:46:10.707475,395.88776280000457,396.1957524000027,395.88776280000457,None,None,395.88776280000457,None,396.69588668000654,None,,,,11013,0001,2022_Apr_27_1139,localizer,2021.1.3,59.27720927609605,
block,scenes,scenes088.bmp,,,,,0,223,223,223,,,,,,,,,,,,,,,,,,,,,,,,,,,,,,,,,,,,,,,,,,None,,396.69588668000654,None,396.69588668000654,None,2022-04-27-11:46:11.523961,396.6966228000092,396.99579080000694,396.6966228000092,None,None,396.6966228000092,None,397.49625607999917,None,,,,11013,0001,2022_Apr_27_1139,localizer,2021.1.3,59.27720927609605,
block,scenes,scenes044.bmp,,,,,0,224,224,224,,,,,,,,,,,,,,,,,,,,,,,,,,,,,,,,,,,,,,,,,,None,,397.49625607999917,None,397.49625607999917,None,2022-04-27-11:46:12.325578,397.5058005000028,397.8127433000045,397.5058005000028,397.5058005000028,None,397.5058005000028,397.5058005000028,398.3131275800057,None,,,,11013,0001,2022_Apr_27_1139,localizer,2021.1.3,59.27720927609605,
block,scenes,scenes011.bmp,,,,,0,225,225,225,,,,,,,,,,,,,,,,,,,,,,,,,,,,,,,,,,,,,,,,,,None,,398.3131275800057,None,398.3131275800057,None,2022-04-27-11:46:13.141375,398.32368440000573,398.62939090000873,398.32368440000573,None,None,398.32368440000573,None,399.12929118000613,None,,,,11013,0001,2022_Apr_27_1139,localizer,2021.1.3,59.27720927609605,
block,scenes,scenes053.bmp,,,,,0,226,226,226,,,,,,,,,,,,,,,,,,,,,,,,,,,,,,,,,,,,,,,,,,None,,399.12929118000613,None,399.12929118000613,None,2022-04-27-11:46:13.957369,399.13709820000804,399.4454165000061,399.13709820000804,None,None,399.13709820000804,None,399.93566918,None,,,,11013,0001,2022_Apr_27_1139,localizer,2021.1.3,59.27720927609605,
block,scenes,scenes002.bmp,,,,,0,227,227,227,,,,,,,,,,,,,,,,,,,,,,,,,,,,,,,,,,,,,,,,,,None,,399.93566918,None,399.93566918,None,2022-04-27-11:46:14.770465,399.9438152000075,400.25192579999566,399.9438152000075,None,None,399.9438152000075,None,400.746016180006,None,,,,11013,0001,2022_Apr_27_1139,localizer,2021.1.3,59.27720927609605,
block_end,scenes,scenes046.bmp,,,,,0,228,228,228,,,,,,,,,,,,,,,,,,,,,,,,,,,,,,,,,,,,,,,,,,None,,400.746016180006,None,400.746016180006,None,2022-04-27-11:46:15.574067,400.74688610000885,401.0625521000038,400.74688610000885,None,None,400.74688610000885,None,401.5473982799973,None,,,,11013,0001,2022_Apr_27_1139,localizer,2021.1.3,59.27720927609605,
block_start,faces,faces017.bmp,,,,,0,229,229,229,,,,,,,,,,,,,,,,,,,,,,,,,,,,,,,,,,,,,,,,,,t,1.8074774000124307,401.5474009000027,None,401.5474009000027,None,2022-04-27-11:46:18.210928,403.3931573000009,403.695779200003,403.3931573000009,None,None,403.3931573000009,None,404.1973515799997,None,,,,11013,0001,2022_Apr_27_1139,localizer,2021.1.3,59.27720927609605,
block,faces,faces058.bmp,,,,,0,230,230,230,,,,,,,,,,,,,,,,,,,,,,,,,,,,,,,,,,,,,,,,,,None,,404.1973515799997,None,404.1973515799997,None,2022-04-27-11:46:19.026385,404.209614300009,404.51226529999985,404.209614300009,None,None,404.209614300009,None,405.01265008000485,None,,,,11013,0001,2022_Apr_27_1139,localizer,2021.1.3,59.27720927609605,
block,faces,faces071.bmp,,,,,0,231,231,231,,,,,,,,,,,,,,,,,,,,,,,,,,,,,,,,,,,,,,,,,,None,,405.01265008000485,None,405.01265008000485,None,2022-04-27-11:46:19.839332,405.01444400000037,405.3287421999994,405.01444400000037,None,None,405.01444400000037,None,405.82909218000134,None,,,,11013,0001,2022_Apr_27_1139,localizer,2021.1.3,59.27720927609605,
block,faces,faces057.bmp,,,,,0,232,232,232,,,,,,,,,,,,,,,,,,,,,,,,,,,,,,,,,,,,,,,,,,None,,405.82909218000134,None,405.82909218000134,None,2022-04-27-11:46:20.656402,405.83006249999744,406.14559539999755,405.83006249999744,None,None,405.83006249999744,None,406.62925528000926,None,,,,11013,0001,2022_Apr_27_1139,localizer,2021.1.3,59.27720927609605,
block,faces,faces076.bmp,,,,,0,233,233,233,,,,,,,,,,,,,,,,,,,,,,,,,,,,,,,,,,,,,,,,,,None,,406.62925528000926,None,406.62925528000926,None,2022-04-27-11:46:21.457887,406.63584440000704,406.94508370000403,406.63584440000704,406.63584440000704,None,406.63584440000704,406.63584440000704,407.4454471800069,None,,,,11013,0001,2022_Apr_27_1139,localizer,2021.1.3,59.27720927609605,
block,faces,faces039.bmp,,,,,0,234,234,234,,,,,,,,,,,,,,,,,,,,,,,,,,,,,,,,,,,,,,,,,,None,,407.4454471800069,None,407.4454471800069,None,2022-04-27-11:46:22.272849,407.44701160000113,407.76232110000274,407.44701160000113,None,None,407.44701160000113,None,408.26188578000585,None,,,,11013,0001,2022_Apr_27_1139,localizer,2021.1.3,59.27720927609605,
block,faces,faces078.bmp,,,,,0,235,235,235,,,,,,,,,,,,,,,,,,,,,,,,,,,,,,,,,,,,,,,,,,None,,408.26188578000585,None,408.26188578000585,None,2022-04-27-11:46:23.088941,408.2635956000013,408.57860210000945,408.2635956000013,None,None,408.2635956000013,None,409.07857577999823,None,,,,11013,0001,2022_Apr_27_1139,localizer,2021.1.3,59.27720927609605,
block,faces,faces038.bmp,,,,,0,236,236,236,,,,,,,,,,,,,,,,,,,,,,,,,,,,,,,,,,,,,,,,,,None,,409.07857577999823,None,409.07857577999823,None,2022-04-27-11:46:23.906010,409.0880269000045,409.3961066000047,409.0880269000045,None,None,409.0880269000045,None,409.8974164799962,None,,,,11013,0001,2022_Apr_27_1139,localizer,2021.1.3,59.27720927609605,
block,faces,faces050.bmp,,,,,0,237,237,237,,,,,,,,,,,,,,,,,,,,,,,,,,,,,,,,,,,,,,,,,,None,,409.8974164799962,None,409.8974164799962,None,2022-04-27-11:46:24.725324,409.89764670000295,410.21258960000705,409.89764670000295,None,None,409.89764670000295,None,410.69702477999965,None,,,,11013,0001,2022_Apr_27_1139,localizer,2021.1.3,59.27720927609605,
block,faces,faces080.bmp,,,,,0,238,238,238,,,,,,,,,,,,,,,,,,,,,,,,,,,,,,,,,,,,,,,,,,None,,410.69702477999965,None,410.69702477999965,None,2022-04-27-11:46:25.526571,410.7010658000072,411.01204139999754,410.7010658000072,410.7010658000072,None,410.7010658000072,410.7010658000072,411.5122452800075,None,,,,11013,0001,2022_Apr_27_1139,localizer,2021.1.3,59.27720927609605,
block,faces,faces022.bmp,,,,,0,239,239,239,,,,,,,,,,,,,,,,,,,,,,,,,,,,,,,,,,,,,,,,,,None,,411.5122452800075,None,411.5122452800075,None,2022-04-27-11:46:26.340178,411.52285019999545,411.8284374000068,411.52285019999545,None,None,411.52285019999545,None,412.32910408000464,None,,,,11013,0001,2022_Apr_27_1139,localizer,2021.1.3,59.27720927609605,
block,faces,faces031.bmp,,,,,0,240,240,240,,,,,,,,,,,,,,,,,,,,,,,,,,,,,,,,,,,,,,,,,,None,,412.32910408000464,None,412.32910408000464,None,2022-04-27-11:46:27.156924,412.333412100008,412.64562640000076,412.333412100008,None,None,412.333412100008,None,413.1454870800022,None,,,,11013,0001,2022_Apr_27_1139,localizer,2021.1.3,59.27720927609605,
block,faces,faces088.bmp,,,,,0,241,241,241,,,,,,,,,,,,,,,,,,,,,,,,,,,,,,,,,,,,,,,,,,None,,413.1454870800022,None,413.1454870800022,None,2022-04-27-11:46:27.973141,413.1541595000017,413.4618635000079,413.1541595000017,None,None,413.1541595000017,None,413.9618795799994,None,,,,11013,0001,2022_Apr_27_1139,localizer,2021.1.3,59.27720927609605,
block,faces,faces018.bmp,,,,,0,242,242,242,,,,,,,,,,,,,,,,,,,,,,,,,,,,,,,,,,,,,,,,,,None,,413.9618795799994,None,413.9618795799994,None,2022-04-27-11:46:28.789812,413.96363910000946,414.27891100000124,413.96363910000946,None,None,413.96363910000946,None,414.77988917999903,None,,,,11013,0001,2022_Apr_27_1139,localizer,2021.1.3,59.27720927609605,
block_end,faces,faces081.bmp,,,,,0,243,243,243,,,,,,,,,,,,,,,,,,,,,,,,,,,,,,,,,,,,,,,,,,None,,414.77988917999903,None,414.77988917999903,None,2022-04-27-11:46:29.607031,414.7898678000056,415.0954744000046,414.7898678000056,None,None,414.7898678000056,None,415.59672697999633,None,,,,11013,0001,2022_Apr_27_1139,localizer,2021.1.3,59.27720927609605,
,,,,,,,,,,,,,,,,,,,,,,,,,,,,,,,,,,,,,,,,,,,,,,,,,,,,,,,,,,,,,,,,,,,,,415.5952971000079,None,,,,,,,
