block_type,condition,img_name,Button.thisRepN,Button.thisTrialN,Button.thisN,Button.thisIndex,trials.thisRepN,trials.thisTrialN,trials.thisN,trials.thisIndex,Alignment_background.started,Alignment_background.stopped,Alignment_image.started,Alignment_image.stopped,Alignment_resp.keys,Alignment_resp.rt,Alignment_resp.started,Alignment_resp.stopped,Button_text.started,Button_text.stopped,Index_text.started,Index_text.stopped,Index_resp.keys,Index_resp.rt,Index_resp.started,Index_resp.stopped,Middle_text.started,Middle_text.stopped,Middle_resp.keys,Middle_resp.rt,Middle_resp.started,Middle_resp.stopped,Repeat_text.started,Repeat_text.stopped,Repeat_resp.keys,Repeat_resp.corr,Repeat_resp.rt,Repeat_resp.started,Repeat_resp.stopped,instruction_text.started,instruction_text.stopped,key_resp.keys,key_resp.rt,key_resp.started,key_resp.stopped,scanner_t.keys,scanner_t.rt,scanner_t.started,scanner_t.stopped,fixation_wait_for_t.started,fixation_wait_for_t.stopped,real_timestamp_trial_start,image.started,image.stopped,fixation.started,fixation.stopped,repeat_response.keys,repeat_response.started,repeat_response.stopped,fixation_null.started,fixation_null.stopped,repeat_response.rt,end_text.started,end_text.stopped,participant,run,date,expName,psychopyVersion,frameRate,
,,,,,,,,,,,9.615914200083353,None,9.615914200083353,None,return,11.918410200043581,9.615914200083353,None,,,,,,,,,,,,,,,,,,,,,,,,,,,,,,,,,,,,,,,,,,,,,,,12003,0001,2021_Jul_29_1239,localizer,2021.1.3,60.90152528038905,
,,,0,0,0,0,,,,,,,,,,,,,21.562841200036928,None,22.57695200003218,None,y,9.010414900025353,22.57695200003218,None,31.611111500067636,None,b,1.0655643999343738,31.611111500067636,None,32.69752030004747,None,n,0,8.589476000051945,32.69752030004747,None,,,,,,,,,,,,,,,,,,,,,,,,,,12003,0001,2021_Jul_29_1239,localizer,2021.1.3,60.90152528038905,
,,,,,,,,,,,,,,,,,,,,,,,,,,,,,,,,,,,,,,,,41.31110470008571,None,y,308.68340939993504,41.31110470008571,None,,,,,,,,,,,,,,,,,,,,12003,0001,2021_Jul_29_1239,localizer,2021.1.3,60.90152528038905,
null_block,null_block,null_block.bmp,,,,,0,0,0,0,,,,,,,,,,,,,,,,,,,,,,,,,,,,,,,,,,,,t,49.65521980007179,350.0432383000152,None,350.0432383000152,None,2021-07-29-12:46:31.223825,399.7294429800124,None,399.7294429800124,None,None,399.7294429800124,None,399.7331099000294,None,,,,12003,0001,2021_Jul_29_1239,localizer,2021.1.3,60.90152528038905,
block_start,objects,objects082.bmp,,,,,0,1,1,1,,,,,,,,,,,,,,,,,,,,,,,,,,,,,,,,,,,,t,1.9519801000133157,411.7465000000084,None,411.7465000000084,None,2021-07-29-12:46:45.227448,413.73061269999016,414.03162250004243,413.73061269999016,None,None,413.73061269999016,None,414.52971698004984,None,,,,12003,0001,2021_Jul_29_1239,localizer,2021.1.3,60.90152528038905,
block,objects,objects029.bmp,,,,,0,2,2,2,,,,,,,,,,,,,,,,,,,,,,,,,,,,,,,,,,,,None,,414.52971698004984,None,414.52971698004984,None,2021-07-29-12:46:46.029050,414.53153600008227,414.84635660005733,414.53153600008227,414.53153600008227,None,414.53153600008227,414.53153600008227,415.33094448001356,None,,,,12003,0001,2021_Jul_29_1239,localizer,2021.1.3,60.90152528038905,
block,objects,objects071.bmp,,,,,0,3,3,3,,,,,,,,,,,,,,,,,,,,,,,,,,,,,,,,,,,,None,,415.33094448001356,None,415.33094448001356,None,2021-07-29-12:46:46.832202,415.33511960005853,415.6470032000216,415.33511960005853,415.33511960005853,None,415.33511960005853,415.33511960005853,416.1464530799887,None,,,,12003,0001,2021_Jul_29_1239,localizer,2021.1.3,60.90152528038905,
block,objects,objects045.bmp,,,,,0,4,4,4,,,,,,,,,,,,,,,,,,,,,,,,,,,,,,,,,,,,None,,416.1464530799887,None,416.1464530799887,None,2021-07-29-12:46:47.643911,416.1472319000168,416.46298409998417,416.1472319000168,None,None,416.1472319000168,None,416.94648138001793,None,,,,12003,0001,2021_Jul_29_1239,localizer,2021.1.3,60.90152528038905,
block,objects,objects037.bmp,,,,,0,5,5,5,,,,,,,,,,,,,,,,,,,,,,,,,,,,,,,,,,,,None,,416.94648138001793,None,416.94648138001793,None,2021-07-29-12:46:48.445750,416.94799930008594,417.24686539999675,416.94799930008594,416.94799930008594,None,416.94799930008594,416.94799930008594,417.7629195800866,None,,,,12003,0001,2021_Jul_29_1239,localizer,2021.1.3,60.90152528038905,
block,objects,objects020.bmp,,,,,0,6,6,6,,,,,,,,,,,,,,,,,,,,,,,,,,,,,,,,,,,,None,,417.7629195800866,None,417.7629195800866,None,2021-07-29-12:46:49.259063,417.7640284000663,418.07934729999397,417.7640284000663,None,None,417.7640284000663,None,418.58325828005326,None,,,,12003,0001,2021_Jul_29_1239,localizer,2021.1.3,60.90152528038905,
block,objects,objects050.bmp,,,,,0,7,7,7,,,,,,,,,,,,,,,,,,,,,,,,,,,,,,,,,,,,None,,418.58325828005326,None,418.58325828005326,None,2021-07-29-12:46:50.089306,418.5949507000623,418.89641779998783,418.5949507000623,None,None,418.5949507000623,None,419.39635308004216,None,,,,12003,0001,2021_Jul_29_1239,localizer,2021.1.3,60.90152528038905,
block,objects,objects080.bmp,,,,,0,8,8,8,,,,,,,,,,,,,,,,,,,,,,,,,,,,,,,,,,,,None,,419.39635308004216,None,419.39635308004216,None,2021-07-29-12:46:50.893486,419.39728450006805,419.6961929000681,419.39728450006805,None,None,419.39728450006805,None,420.19662048002937,None,,,,12003,0001,2021_Jul_29_1239,localizer,2021.1.3,60.90152528038905,
block,objects,objects010.bmp,,,,,0,9,9,9,,,,,,,,,,,,,,,,,,,,,,,,,,,,,,,,,,,,None,,420.19662048002937,None,420.19662048002937,None,2021-07-29-12:46:51.695951,420.19857620005496,420.5131184000056,420.19857620005496,420.19857620005496,None,420.19857620005496,420.19857620005496,421.0131039799773,None,,,,12003,0001,2021_Jul_29_1239,localizer,2021.1.3,60.90152528038905,
block,objects,objects064.bmp,,,,,0,10,10,10,,,,,,,,,,,,,,,,,,,,,,,,,,,,,,,,,,,,None,,421.0131039799773,None,421.0131039799773,None,2021-07-29-12:46:52.510237,421.0140343999956,421.32977609999944,421.0140343999956,None,None,421.0140343999956,None,421.81604758008615,None,,,,12003,0001,2021_Jul_29_1239,localizer,2021.1.3,60.90152528038905,
block,objects,objects019.bmp,,,,,0,11,11,11,,,,,,,,,,,,,,,,,,,,,,,,,,,,,,,,,,,,None,,421.81604758008615,None,421.81604758008615,None,2021-07-29-12:46:53.317151,421.8191581000574,422.12975680001546,421.8191581000574,421.8191581000574,None,421.8191581000574,421.8191581000574,422.62965778004144,None,,,,12003,0001,2021_Jul_29_1239,localizer,2021.1.3,60.90152528038905,
block,objects,objects028.bmp,,,,,0,12,12,12,,,,,,,,,,,,,,,,,,,,,,,,,,,,,,,,,,,,None,,422.62965778004144,None,422.62965778004144,None,2021-07-29-12:46:54.127341,422.6307209000224,422.9464270999888,422.6307209000224,None,None,422.6307209000224,None,423.4299798799795,None,,,,12003,0001,2021_Jul_29_1239,localizer,2021.1.3,60.90152528038905,
block,objects,objects039.bmp,,,,,0,13,13,13,,,,,,,,,,,,,,,,,,,,,,,,,,,,,,,,,,,,None,,423.4299798799795,None,423.4299798799795,None,2021-07-29-12:46:54.929107,423.43288079998456,423.7461906999815,423.43288079998456,423.43288079998456,None,423.43288079998456,423.43288079998456,424.24637598007683,None,,,,12003,0001,2021_Jul_29_1239,localizer,2021.1.3,60.90152528038905,
block,objects,objects054.bmp,,,,,0,14,14,14,,,,,,,,,,,,,,,,,,,,,,,,,,,,,,,,,,,,None,,424.24637598007683,None,424.24637598007683,None,2021-07-29-12:46:55.743744,424.24710370006505,424.5464925999986,424.24710370006505,None,None,424.24710370006505,None,425.053643080045,None,,,,12003,0001,2021_Jul_29_1239,localizer,2021.1.3,60.90152528038905,
block_end,objects,objects036.bmp,,,,,0,15,15,15,,,,,,,,,,,,,,,,,,,,,,,,,,,,,,,,,,,,None,,425.053643080045,None,425.053643080045,None,2021-07-29-12:46:56.557566,425.0621680000331,425.3637817000272,425.0621680000331,None,None,425.0621680000331,None,425.8636589799891,None,,,,12003,0001,2021_Jul_29_1239,localizer,2021.1.3,60.90152528038905,
block_start,faces,faces036.bmp,,,,,0,16,16,16,,,,,,,,,,,,,,,,,,,,,,,,,,,,,,,,,,,,t,1.8346189999720082,425.8637513000285,None,425.8637513000285,None,2021-07-29-12:46:59.226485,427.7309622000903,428.029925800045,427.7309622000903,None,None,427.7309622000903,None,428.52997748005436,None,,,,12003,0001,2021_Jul_29_1239,localizer,2021.1.3,60.90152528038905,
block,faces,faces085.bmp,,,,,0,17,17,17,,,,,,,,,,,,,,,,,,,,,,,,,,,,,,,,,,,,None,,428.52997748005436,None,428.52997748005436,None,2021-07-29-12:47:00.029176,428.53159480006434,428.84621760004666,428.53159480006434,428.53159480006434,None,428.53159480006434,428.53159480006434,429.3471584800747,None,,,,12003,0001,2021_Jul_29_1239,localizer,2021.1.3,60.90152528038905,
block,faces,faces024.bmp,,,,,0,18,18,18,,,,,,,,,,,,,,,,,,,,,,,,,,,,,,,,,,,,None,,429.3471584800747,None,429.3471584800747,None,2021-07-29-12:47:00.845347,429.3479942000704,429.6632860000245,429.3479942000704,None,None,429.3479942000704,None,430.1635183800128,None,,,,12003,0001,2021_Jul_29_1239,localizer,2021.1.3,60.90152528038905,
block,faces,faces080.bmp,,,,,0,19,19,19,,,,,,,,,,,,,,,,,,,,,,,,,,,,,,,,,,,,None,,430.1635183800128,None,430.1635183800128,None,2021-07-29-12:47:01.660742,430.17281020001974,430.47954259999096,430.17281020001974,None,None,430.17281020001974,None,430.98094448003684,None,,,,12003,0001,2021_Jul_29_1239,localizer,2021.1.3,60.90152528038905,
block,faces,faces065.bmp,,,,,0,20,20,20,,,,,,,,,,,,,,,,,,,,,,,,,,,,,,,,,,,,None,,430.98094448003684,None,430.98094448003684,None,2021-07-29-12:47:02.480239,430.983781500021,431.2965795000782,430.983781500021,None,None,430.983781500021,None,431.79661258006234,None,,,,12003,0001,2021_Jul_29_1239,localizer,2021.1.3,60.90152528038905,
block,faces,faces010.bmp,,,,,0,21,21,21,,,,,,,,,,,,,,,,,,,,,,,,,,,,,,,,,,,,None,,431.79661258006234,None,431.79661258006234,None,2021-07-29-12:47:03.293748,431.7975089000538,432.096937000053,431.7975089000538,None,None,431.7975089000538,None,432.5968286800082,None,,,,12003,0001,2021_Jul_29_1239,localizer,2021.1.3,60.90152528038905,
block,faces,faces006.bmp,,,,,0,22,22,22,,,,,,,,,,,,,,,,,,,,,,,,,,,,,,,,,,,,None,,432.5968286800082,None,432.5968286800082,None,2021-07-29-12:47:04.097163,432.60005890007596,432.913572999998,432.60005890007596,432.60005890007596,None,432.60005890007596,432.60005890007596,433.4137820800417,None,,,,12003,0001,2021_Jul_29_1239,localizer,2021.1.3,60.90152528038905,
block,faces,faces047.bmp,,,,,0,23,23,23,,,,,,,,,,,,,,,,,,,,,,,,,,,,,,,,,,,,None,,433.4137820800417,None,433.4137820800417,None,2021-07-29-12:47:04.911903,433.4144740999909,433.7293061000528,433.4144740999909,None,None,433.4144740999909,None,434.23026148007483,None,,,,12003,0001,2021_Jul_29_1239,localizer,2021.1.3,60.90152528038905,
block,faces,faces055.bmp,,,,,0,24,24,24,,,,,,,,,,,,,,,,,,,,,,,,,,,,,,,,,,,,None,,434.23026148007483,None,434.23026148007483,None,2021-07-29-12:47:05.727530,434.23169829999097,434.54690100008156,434.23169829999097,None,None,434.23169829999097,None,435.0468477799906,None,,,,12003,0001,2021_Jul_29_1239,localizer,2021.1.3,60.90152528038905,
block,faces,faces075.bmp,,,,,0,25,25,25,,,,,,,,,,,,,,,,,,,,,,,,,,,,,,,,,,,,None,,435.0468477799906,None,435.0468477799906,None,2021-07-29-12:47:06.544195,435.0478282000404,435.3633032999933,435.0478282000404,None,None,435.0478282000404,None,435.862841780053,None,,,,12003,0001,2021_Jul_29_1239,localizer,2021.1.3,60.90152528038905,
block,faces,faces066.bmp,,,,,0,26,26,26,,,,,,,,,,,,,,,,,,,,,,,,,,,,,,,,,,,,None,,435.862841780053,None,435.862841780053,None,2021-07-29-12:47:07.359983,435.864052799996,436.1835483000614,435.864052799996,None,None,435.864052799996,None,436.6634681799798,None,,,,12003,0001,2021_Jul_29_1239,localizer,2021.1.3,60.90152528038905,
block,faces,faces030.bmp,,,,,0,27,27,27,,,,,,,,,,,,,,,,,,,,,,,,,,,,,,,,,,,,None,,436.6634681799798,None,436.6634681799798,None,2021-07-29-12:47:08.162826,436.6664760999847,436.98003320000134,436.6664760999847,436.6664760999847,None,436.6664760999847,436.6664760999847,437.48026527998735,None,,,,12003,0001,2021_Jul_29_1239,localizer,2021.1.3,60.90152528038905,
block,faces,faces078.bmp,,,,,0,28,28,28,,,,,,,,,,,,,,,,,,,,,,,,,,,,,,,,,,,,None,,437.48026527998735,None,437.48026527998735,None,2021-07-29-12:47:08.978393,437.4811660000123,437.79608320002444,437.4811660000123,None,None,437.4811660000123,None,438.2966390800313,None,,,,12003,0001,2021_Jul_29_1239,localizer,2021.1.3,60.90152528038905,
block,faces,faces070.bmp,,,,,0,29,29,29,,,,,,,,,,,,,,,,,,,,,,,,,,,,,,,,,,,,None,,438.2966390800313,None,438.2966390800313,None,2021-07-29-12:47:09.793775,438.29753280000295,438.5967420000816,438.29753280000295,None,None,438.29753280000295,None,439.1128075800254,None,,,,12003,0001,2021_Jul_29_1239,localizer,2021.1.3,60.90152528038905,
block_end,faces,faces044.bmp,,,,,0,30,30,30,,,,,,,,,,,,,,,,,,,,,,,,,,,,,,,,,,,,None,,439.1128075800254,None,439.1128075800254,None,2021-07-29-12:47:10.609952,439.11402440001257,439.4292863000883,439.11402440001257,None,None,439.11402440001257,None,439.9131973800133,None,,,,12003,0001,2021_Jul_29_1239,localizer,2021.1.3,60.90152528038905,
block_start,scrambled,scrambled032.bmp,,,,,0,31,31,31,,,,,,,,,,,,,,,,,,,,,,,,,,,,,,,,,,,,t,1.7852978000883013,439.91315789998043,None,439.91315789998043,None,2021-07-29-12:47:13.210870,441.7145612000022,442.0302227000939,441.7145612000022,None,None,441.7145612000022,None,442.5138514800812,None,,,,12003,0001,2021_Jul_29_1239,localizer,2021.1.3,60.90152528038905,
block,scrambled,scrambled005.bmp,,,,,0,32,32,32,,,,,,,,,,,,,,,,,,,,,,,,,,,,,,,,,,,,None,,442.5138514800812,None,442.5138514800812,None,2021-07-29-12:47:14.014068,442.5169365000911,442.8297400000738,442.5169365000911,442.5169365000911,None,442.5169365000911,442.5169365000911,443.3298871799954,None,,,,12003,0001,2021_Jul_29_1239,localizer,2021.1.3,60.90152528038905,
block,scrambled,scrambled047.bmp,,,,,0,33,33,33,,,,,,,,,,,,,,,,,,,,,,,,,,,,,,,,,,,,None,,443.3298871799954,None,443.3298871799954,None,2021-07-29-12:47:14.827035,443.3307923000539,443.6299096000148,443.3307923000539,None,None,443.3307923000539,None,444.1299939800403,None,,,,12003,0001,2021_Jul_29_1239,localizer,2021.1.3,60.90152528038905,
block,scrambled,scrambled064.bmp,,,,,0,34,34,34,,,,,,,,,,,,,,,,,,,,,,,,,,,,,,,,,,,,None,,444.1299939800403,None,444.1299939800403,None,2021-07-29-12:47:15.629344,444.13292100001127,444.44659930001944,444.13292100001127,444.13292100001127,None,444.13292100001127,444.13292100001127,444.9466645800159,None,,,,12003,0001,2021_Jul_29_1239,localizer,2021.1.3,60.90152528038905,
block,scrambled,scrambled074.bmp,,,,,0,35,35,35,,,,,,,,,,,,,,,,,,,,,,,,,,,,,,,,,,,,None,,444.9466645800159,None,444.9466645800159,None,2021-07-29-12:47:16.443804,444.9475262000924,445.2461856000591,444.9475262000924,None,None,444.9475262000924,None,445.763054080063,None,,,,12003,0001,2021_Jul_29_1239,localizer,2021.1.3,60.90152528038905,
block,scrambled,scrambled044.bmp,,,,,0,36,36,36,,,,,,,,,,,,,,,,,,,,,,,,,,,,,,,,,,,,None,,445.763054080063,None,445.763054080063,None,2021-07-29-12:47:17.260198,445.7640268000541,446.07989040005486,445.7640268000541,None,None,445.7640268000541,None,446.56397958005545,None,,,,12003,0001,2021_Jul_29_1239,localizer,2021.1.3,60.90152528038905,
block,scrambled,scrambled061.bmp,,,,,0,37,37,37,,,,,,,,,,,,,,,,,,,,,,,,,,,,,,,,,,,,None,,446.56397958005545,None,446.56397958005545,None,2021-07-29-12:47:18.064254,446.56809479999356,446.87977080000564,446.56809479999356,446.56809479999356,None,446.56809479999356,446.56809479999356,447.38000058009055,None,,,,12003,0001,2021_Jul_29_1239,localizer,2021.1.3,60.90152528038905,
block,scrambled,scrambled035.bmp,,,,,0,38,38,38,,,,,,,,,,,,,,,,,,,,,,,,,,,,,,,,,,,,None,,447.38000058009055,None,447.38000058009055,None,2021-07-29-12:47:18.877136,447.38092060002964,447.6800785000669,447.38092060002964,None,None,447.38092060002964,None,448.19662678007734,None,,,,12003,0001,2021_Jul_29_1239,localizer,2021.1.3,60.90152528038905,
block,scrambled,scrambled011.bmp,,,,,0,39,39,39,,,,,,,,,,,,,,,,,,,,,,,,,,,,,,,,,,,,None,,448.19662678007734,None,448.19662678007734,None,2021-07-29-12:47:19.694762,448.1979013000382,448.51335070002824,448.1979013000382,None,None,448.1979013000382,None,449.01338478002,None,,,,12003,0001,2021_Jul_29_1239,localizer,2021.1.3,60.90152528038905,
block,scrambled,scrambled056.bmp,,,,,0,40,40,40,,,,,,,,,,,,,,,,,,,,,,,,,,,,,,,,,,,,None,,449.01338478002,None,449.01338478002,None,2021-07-29-12:47:20.510704,449.0142225000309,449.32967700005975,449.0142225000309,None,None,449.0142225000309,None,449.82964568001915,None,,,,12003,0001,2021_Jul_29_1239,localizer,2021.1.3,60.90152528038905,
block,scrambled,scrambled033.bmp,,,,,0,41,41,41,,,,,,,,,,,,,,,,,,,,,,,,,,,,,,,,,,,,None,,449.82964568001915,None,449.82964568001915,None,2021-07-29-12:47:21.326790,449.8308484000154,450.13045360008255,449.8308484000154,None,None,449.8308484000154,None,450.6301313800388,None,,,,12003,0001,2021_Jul_29_1239,localizer,2021.1.3,60.90152528038905,
block,scrambled,scrambled082.bmp,,,,,0,42,42,42,,,,,,,,,,,,,,,,,,,,,,,,,,,,,,,,,,,,None,,450.6301313800388,None,450.6301313800388,None,2021-07-29-12:47:22.128765,450.6322268000804,450.95311660005245,450.6322268000804,450.6322268000804,None,450.6322268000804,450.6322268000804,451.44659847997826,None,,,,12003,0001,2021_Jul_29_1239,localizer,2021.1.3,60.90152528038905,
block,scrambled,scrambled042.bmp,,,,,0,43,43,43,,,,,,,,,,,,,,,,,,,,,,,,,,,,,,,,,,,,None,,451.44659847997826,None,451.44659847997826,None,2021-07-29-12:47:22.943813,451.44753280002624,451.7469763000263,451.44753280002624,None,None,451.44753280002624,None,452.24937557998345,None,,,,12003,0001,2021_Jul_29_1239,localizer,2021.1.3,60.90152528038905,
block,scrambled,scrambled071.bmp,,,,,0,44,44,44,,,,,,,,,,,,,,,,,,,,,,,,,,,,,,,,,,,,None,,452.24937557998345,None,452.24937557998345,None,2021-07-29-12:47:23.749602,452.2564712000312,452.5630792999873,452.2564712000312,452.2564712000312,None,452.2564712000312,452.2564712000312,453.06319378000916,None,,,,12003,0001,2021_Jul_29_1239,localizer,2021.1.3,60.90152528038905,
block_end,scrambled,scrambled025.bmp,,,,,0,45,45,45,,,,,,,,,,,,,,,,,,,,,,,,,,,,,,,,,,,,None,,453.06319378000916,None,453.06319378000916,None,2021-07-29-12:47:24.560331,453.06422559998464,453.3635345000075,453.06422559998464,None,None,453.06422559998464,None,453.86325967997544,None,,,,12003,0001,2021_Jul_29_1239,localizer,2021.1.3,60.90152528038905,
block_start,scenes,scenes048.bmp,,,,,0,46,46,46,,,,,,,,,,,,,,,,,,,,,,,,,,,,,,,,,,,,t,1.8347300000023097,453.8639539000578,None,453.8639539000578,None,2021-07-29-12:47:27.225796,455.73116980004124,456.04664750001393,455.73116980004124,None,None,455.73116980004124,None,456.5468739800737,None,,,,12003,0001,2021_Jul_29_1239,localizer,2021.1.3,60.90152528038905,
block,scenes,scenes088.bmp,,,,,0,47,47,47,,,,,,,,,,,,,,,,,,,,,,,,,,,,,,,,,,,,None,,456.5468739800737,None,456.5468739800737,None,2021-07-29-12:47:28.044212,456.5475974000292,456.863215600024,456.5475974000292,None,None,456.5475974000292,None,457.3632271800772,None,,,,12003,0001,2021_Jul_29_1239,localizer,2021.1.3,60.90152528038905,
block,scenes,scenes047.bmp,,,,,0,48,48,48,,,,,,,,,,,,,,,,,,,,,,,,,,,,,,,,,,,,None,,457.3632271800772,None,457.3632271800772,None,2021-07-29-12:47:28.860369,457.36419210000895,457.6638842000393,457.36419210000895,None,None,457.36419210000895,None,458.1639711800846,None,,,,12003,0001,2021_Jul_29_1239,localizer,2021.1.3,60.90152528038905,
block,scenes,scenes042.bmp,,,,,0,49,49,49,,,,,,,,,,,,,,,,,,,,,,,,,,,,,,,,,,,,None,,458.1639711800846,None,458.1639711800846,None,2021-07-29-12:47:29.664287,458.1672614000272,458.4798930999823,458.1672614000272,458.1672614000272,None,458.1672614000272,458.1672614000272,458.9801590799936,None,,,,12003,0001,2021_Jul_29_1239,localizer,2021.1.3,60.90152528038905,
block,scenes,scenes089.bmp,,,,,0,50,50,50,,,,,,,,,,,,,,,,,,,,,,,,,,,,,,,,,,,,None,,458.9801590799936,None,458.9801590799936,None,2021-07-29-12:47:30.477296,458.9810304000275,459.2966119000921,458.9810304000275,None,None,458.9810304000275,None,459.78048378006787,None,,,,12003,0001,2021_Jul_29_1239,localizer,2021.1.3,60.90152528038905,
block,scenes,scenes009.bmp,,,,,0,51,51,51,,,,,,,,,,,,,,,,,,,,,,,,,,,,,,,,,,,,None,,459.78048378006787,None,459.78048378006787,None,2021-07-29-12:47:31.280606,459.78368140000384,460.08040219999384,459.78368140000384,459.78368140000384,None,459.78368140000384,459.78368140000384,460.59719588001025,None,,,,12003,0001,2021_Jul_29_1239,localizer,2021.1.3,60.90152528038905,
block,scenes,scenes080.bmp,,,,,0,52,52,52,,,,,,,,,,,,,,,,,,,,,,,,,,,,,,,,,,,,None,,460.59719588001025,None,460.59719588001025,None,2021-07-29-12:47:32.095324,460.59865970001556,460.9139098000014,460.59865970001556,None,None,460.59865970001556,None,461.41399568003834,None,,,,12003,0001,2021_Jul_29_1239,localizer,2021.1.3,60.90152528038905,
block,scenes,scenes054.bmp,,,,,0,53,53,53,,,,,,,,,,,,,,,,,,,,,,,,,,,,,,,,,,,,None,,461.41399568003834,None,461.41399568003834,None,2021-07-29-12:47:32.912323,461.41610370005947,461.72996200004127,461.41610370005947,None,None,461.41610370005947,None,462.23019078000215,None,,,,12003,0001,2021_Jul_29_1239,localizer,2021.1.3,60.90152528038905,
block,scenes,scenes068.bmp,,,,,0,54,54,54,,,,,,,,,,,,,,,,,,,,,,,,,,,,,,,,,,,,None,,462.23019078000215,None,462.23019078000215,None,2021-07-29-12:47:33.727536,462.2310062000761,462.54645210003946,462.2310062000761,None,None,462.2310062000761,None,463.0466807799996,None,,,,12003,0001,2021_Jul_29_1239,localizer,2021.1.3,60.90152528038905,
block,scenes,scenes033.bmp,,,,,0,55,55,55,,,,,,,,,,,,,,,,,,,,,,,,,,,,,,,,,,,,None,,463.0466807799996,None,463.0466807799996,None,2021-07-29-12:47:34.544243,463.0477016000077,463.3631302000722,463.0477016000077,None,None,463.0477016000077,None,463.8467558800359,None,,,,12003,0001,2021_Jul_29_1239,localizer,2021.1.3,60.90152528038905,
block,scenes,scenes011.bmp,,,,,0,56,56,56,,,,,,,,,,,,,,,,,,,,,,,,,,,,,,,,,,,,None,,463.8467558800359,None,463.8467558800359,None,2021-07-29-12:47:35.345908,463.8496475000866,464.163746300037,463.8496475000866,463.8496475000866,None,463.8496475000866,463.8496475000866,464.6636650800821,None,,,,12003,0001,2021_Jul_29_1239,localizer,2021.1.3,60.90152528038905,
block,scenes,scenes011.bmp,,,,,0,57,57,57,,,,,,,,,,,,,,,,,,,,,,,,,,,,,,,,,,,,None,,464.6636650800821,None,464.6636650800821,None,2021-07-29-12:47:36.161798,464.66451780009083,464.97996590007097,464.66451780009083,None,y,464.66451780009083,None,465.46361008005914,None,0.7346462999703363,,,12003,0001,2021_Jul_29_1239,localizer,2021.1.3,60.90152528038905,
block,scenes,scenes061.bmp,,,,,0,58,58,58,,,,,,,,,,,,,,,,,,,,,,,,,,,,,,,,,,,,None,,465.46361008005914,None,465.46361008005914,None,2021-07-29-12:47:36.962743,465.4663133000722,465.7799160000868,465.4663133000722,465.4663133000722,None,465.4663133000722,465.4663133000722,466.2801626800676,None,,,,12003,0001,2021_Jul_29_1239,localizer,2021.1.3,60.90152528038905,
block,scenes,scenes040.bmp,,,,,0,59,59,59,,,,,,,,,,,,,,,,,,,,,,,,,,,,,,,,,,,,None,,466.2801626800676,None,466.2801626800676,None,2021-07-29-12:47:37.777503,466.28108920005616,466.58093520009425,466.28108920005616,None,None,466.28108920005616,None,467.0809016800369,None,,,,12003,0001,2021_Jul_29_1239,localizer,2021.1.3,60.90152528038905,
block_end,scenes,scenes050.bmp,,,,,0,60,60,60,,,,,,,,,,,,,,,,,,,,,,,,,,,,,,,,,,,,None,,467.0809016800369,None,467.0809016800369,None,2021-07-29-12:47:38.580838,467.0848773000762,467.39703410002403,467.0848773000762,467.0848773000762,None,467.0848773000762,467.0848773000762,467.89684518006396,None,,,,12003,0001,2021_Jul_29_1239,localizer,2021.1.3,60.90152528038905,
block_start,scenes,scenes055.bmp,,,,,0,61,61,61,,,,,,,,,,,,,,,,,,,,,,,,,,,,,,,,,,,,t,1.8018962999340147,467.8965315000387,None,467.8965315000387,None,2021-07-29-12:47:41.210990,469.7145527000539,470.0302431000164,469.7145527000539,None,None,469.7145527000539,None,470.513749480003,None,,,,12003,0001,2021_Jul_29_1239,localizer,2021.1.3,60.90152528038905,
block,scenes,scenes016.bmp,,,,,0,62,62,62,,,,,,,,,,,,,,,,,,,,,,,,,,,,,,,,,,,,None,,470.513749480003,None,470.513749480003,None,2021-07-29-12:47:42.013092,470.51662880007643,470.8307053000899,470.51662880007643,470.51662880007643,None,470.51662880007643,470.51662880007643,471.3300116800121,None,,,,12003,0001,2021_Jul_29_1239,localizer,2021.1.3,60.90152528038905,
block,scenes,scenes032.bmp,,,,,0,63,63,63,,,,,,,,,,,,,,,,,,,,,,,,,,,,,,,,,,,,None,,471.3300116800121,None,471.3300116800121,None,2021-07-29-12:47:42.826881,471.3310230000643,471.6303877000464,471.3310230000643,None,None,471.3310230000643,None,472.13047358008333,None,,,,12003,0001,2021_Jul_29_1239,localizer,2021.1.3,60.90152528038905,
block,scenes,scenes052.bmp,,,,,0,64,64,64,,,,,,,,,,,,,,,,,,,,,,,,,,,,,,,,,,,,None,,472.13047358008333,None,472.13047358008333,None,2021-07-29-12:47:43.628683,472.1310182000743,472.4310012999922,472.1310182000743,472.1310182000743,None,472.1310182000743,472.1310182000743,472.9464811800164,None,,,,12003,0001,2021_Jul_29_1239,localizer,2021.1.3,60.90152528038905,
block,scenes,scenes026.bmp,,,,,0,65,65,65,,,,,,,,,,,,,,,,,,,,,,,,,,,,,,,,,,,,None,,472.9464811800164,None,472.9464811800164,None,2021-07-29-12:47:44.443608,472.9476767000742,473.2465934000211,472.9476767000742,None,None,472.9476767000742,None,473.74743718000826,None,,,,12003,0001,2021_Jul_29_1239,localizer,2021.1.3,60.90152528038905,
block,scenes,scenes023.bmp,,,,,0,66,66,66,,,,,,,,,,,,,,,,,,,,,,,,,,,,,,,,,,,,None,,473.74743718000826,None,473.74743718000826,None,2021-07-29-12:47:45.247762,473.7506742000114,474.06404970004223,473.7506742000114,473.7506742000114,None,473.7506742000114,473.7506742000114,474.5632482800749,None,,,,12003,0001,2021_Jul_29_1239,localizer,2021.1.3,60.90152528038905,
block,scenes,scenes091.bmp,,,,,0,67,67,67,,,,,,,,,,,,,,,,,,,,,,,,,,,,,,,,,,,,None,,474.5632482800749,None,474.5632482800749,None,2021-07-29-12:47:46.060389,474.56427040009294,474.8633470000932,474.56427040009294,None,None,474.56427040009294,None,475.36399038006783,None,,,,12003,0001,2021_Jul_29_1239,localizer,2021.1.3,60.90152528038905,
block,scenes,scenes056.bmp,,,,,0,68,68,68,,,,,,,,,,,,,,,,,,,,,,,,,,,,,,,,,,,,None,,475.36399038006783,None,475.36399038006783,None,2021-07-29-12:47:46.864269,475.3672144000884,475.6840507000452,475.3672144000884,475.3672144000884,None,475.3672144000884,475.3672144000884,476.1804192800657,None,,,,12003,0001,2021_Jul_29_1239,localizer,2021.1.3,60.90152528038905,
block,scenes,scenes037.bmp,,,,,0,69,69,69,,,,,,,,,,,,,,,,,,,,,,,,,,,,,,,,,,,,None,,476.1804192800657,None,476.1804192800657,None,2021-07-29-12:47:47.677557,476.1813046000898,476.50048679998145,476.1813046000898,None,None,476.1813046000898,None,476.9966965800733,None,,,,12003,0001,2021_Jul_29_1239,localizer,2021.1.3,60.90152528038905,
block,scenes,scenes079.bmp,,,,,0,70,70,70,,,,,,,,,,,,,,,,,,,,,,,,,,,,,,,,,,,,None,,476.9966965800733,None,476.9966965800733,None,2021-07-29-12:47:48.494051,476.9976731000934,477.3134506000206,476.9976731000934,None,None,476.9976731000934,None,477.79957548003875,None,,,,12003,0001,2021_Jul_29_1239,localizer,2021.1.3,60.90152528038905,
block,scenes,scenes030.bmp,,,,,0,71,71,71,,,,,,,,,,,,,,,,,,,,,,,,,,,,,,,,,,,,None,,477.79957548003875,None,477.79957548003875,None,2021-07-29-12:47:49.302426,477.8067381000146,478.1131076000165,477.8067381000146,477.8067381000146,None,477.8067381000146,477.8067381000146,478.61383198002585,None,,,,12003,0001,2021_Jul_29_1239,localizer,2021.1.3,60.90152528038905,
block,scenes,scenes063.bmp,,,,,0,72,72,72,,,,,,,,,,,,,,,,,,,,,,,,,,,,,,,,,,,,None,,478.61383198002585,None,478.61383198002585,None,2021-07-29-12:47:50.111071,478.614573400002,478.93029250006657,478.614573400002,None,None,478.614573400002,None,479.4299490799778,None,,,,12003,0001,2021_Jul_29_1239,localizer,2021.1.3,60.90152528038905,
block,scenes,scenes020.bmp,,,,,0,73,73,73,,,,,,,,,,,,,,,,,,,,,,,,,,,,,,,,,,,,None,,479.4299490799778,None,479.4299490799778,None,2021-07-29-12:47:50.927091,479.4311561000068,479.74660070007667,479.4311561000068,None,None,479.4311561000068,None,480.23793288004816,None,,,,12003,0001,2021_Jul_29_1239,localizer,2021.1.3,60.90152528038905,
block,scenes,scenes008.bmp,,,,,0,74,74,74,,,,,,,,,,,,,,,,,,,,,,,,,,,,,,,,,,,,None,,480.23793288004816,None,480.23793288004816,None,2021-07-29-12:47:51.743761,480.24930700007826,480.56349540001247,480.24930700007826,None,None,480.24930700007826,None,481.04737838007276,None,,,,12003,0001,2021_Jul_29_1239,localizer,2021.1.3,60.90152528038905,
block_end,scenes,scenes002.bmp,,,,,0,75,75,75,,,,,,,,,,,,,,,,,,,,,,,,,,,,,,,,,,,,None,,481.04737838007276,None,481.04737838007276,None,2021-07-29-12:47:52.546690,481.04902730009053,481.34805480006617,481.04902730009053,None,None,481.04902730009053,None,481.86311788005986,None,,,,12003,0001,2021_Jul_29_1239,localizer,2021.1.3,60.90152528038905,
null_block,null_block,null_block.bmp,,,,,0,76,76,76,,,,,,,,,,,,,,,,,,,,,,,,,,,,,,,,,,,,t,1.8354208000237122,481.86309250001796,None,481.86309250001796,None,2021-07-29-12:47:55.208651,483.7132034799899,None,483.7132034799899,None,None,483.7132034799899,None,483.71466900000814,None,,,,12003,0001,2021_Jul_29_1239,localizer,2021.1.3,60.90152528038905,
block_start,faces,faces062.bmp,,,,,0,77,77,77,,,,,,,,,,,,,,,,,,,,,,,,,,,,,,,,,,,,t,1.9683747000526637,495.73020290001296,None,495.73020290001296,None,2021-07-29-12:48:09.210564,497.71444570005406,498.0139097000938,497.71444570005406,None,None,497.71444570005406,None,498.51397597998147,None,,,,12003,0001,2021_Jul_29_1239,localizer,2021.1.3,60.90152528038905,
block,faces,faces070.bmp,,,,,0,78,78,78,,,,,,,,,,,,,,,,,,,,,,,,,,,,,,,,,,,,None,,498.51397597998147,None,498.51397597998147,None,2021-07-29-12:48:10.012315,498.51602800004184,498.83073210006114,498.51602800004184,498.51602800004184,None,498.51602800004184,498.51602800004184,499.32988168006995,None,,,,12003,0001,2021_Jul_29_1239,localizer,2021.1.3,60.90152528038905,
block,faces,faces065.bmp,,,,,0,79,79,79,,,,,,,,,,,,,,,,,,,,,,,,,,,,,,,,,,,,None,,499.32988168006995,None,499.32988168006995,None,2021-07-29-12:48:10.827030,499.33132220001426,499.6470112000825,499.33132220001426,None,None,499.33132220001426,None,500.1308798800339,None,,,,12003,0001,2021_Jul_29_1239,localizer,2021.1.3,60.90152528038905,
block,faces,faces015.bmp,,,,,0,80,80,80,,,,,,,,,,,,,,,,,,,,,,,,,,,,,,,,,,,,None,,500.1308798800339,None,500.1308798800339,None,2021-07-29-12:48:11.630232,500.13292860006914,500.446970900055,500.13292860006914,500.13292860006914,None,500.13292860006914,500.13292860006914,500.94710068007697,None,,,,12003,0001,2021_Jul_29_1239,localizer,2021.1.3,60.90152528038905,
block,faces,faces069.bmp,,,,,0,81,81,81,,,,,,,,,,,,,,,,,,,,,,,,,,,,,,,,,,,,None,,500.94710068007697,None,500.94710068007697,None,2021-07-29-12:48:12.444971,500.94801739999093,501.263311500079,500.94801739999093,None,None,500.94801739999093,None,501.74715218005,None,,,,12003,0001,2021_Jul_29_1239,localizer,2021.1.3,60.90152528038905,
block,faces,faces074.bmp,,,,,0,82,82,82,,,,,,,,,,,,,,,,,,,,,,,,,,,,,,,,,,,,None,,501.74715218005,None,501.74715218005,None,2021-07-29-12:48:13.246497,501.7501377000008,502.064016600023,501.7501377000008,501.7501377000008,None,501.7501377000008,501.7501377000008,502.56430268007097,None,,,,12003,0001,2021_Jul_29_1239,localizer,2021.1.3,60.90152528038905,
block,faces,faces064.bmp,,,,,0,83,83,83,,,,,,,,,,,,,,,,,,,,,,,,,,,,,,,,,,,,None,,502.56430268007097,None,502.56430268007097,None,2021-07-29-12:48:14.062433,502.56512570008636,502.8643298000097,502.56512570008636,None,None,502.56512570008636,None,503.3642445800244,None,,,,12003,0001,2021_Jul_29_1239,localizer,2021.1.3,60.90152528038905,
block,faces,faces087.bmp,,,,,0,84,84,84,,,,,,,,,,,,,,,,,,,,,,,,,,,,,,,,,,,,None,,503.3642445800244,None,503.3642445800244,None,2021-07-29-12:48:14.864370,503.367337499978,503.6804357999936,503.367337499978,503.367337499978,None,503.367337499978,503.367337499978,504.1805573800695,None,,,,12003,0001,2021_Jul_29_1239,localizer,2021.1.3,60.90152528038905,
block,faces,faces056.bmp,,,,,0,85,85,85,,,,,,,,,,,,,,,,,,,,,,,,,,,,,,,,,,,,None,,504.1805573800695,None,504.1805573800695,None,2021-07-29-12:48:15.677997,504.1814825000474,504.4799246999901,504.1814825000474,None,None,504.1814825000474,None,504.99684578004525,None,,,,12003,0001,2021_Jul_29_1239,localizer,2021.1.3,60.90152528038905,
block,faces,faces042.bmp,,,,,0,86,86,86,,,,,,,,,,,,,,,,,,,,,,,,,,,,,,,,,,,,None,,504.99684578004525,None,504.99684578004525,None,2021-07-29-12:48:16.493996,504.9977685000049,505.3135976000922,504.9977685000049,None,None,504.9977685000049,None,505.7975484800874,None,,,,12003,0001,2021_Jul_29_1239,localizer,2021.1.3,60.90152528038905,
block,faces,faces072.bmp,,,,,0,87,87,87,,,,,,,,,,,,,,,,,,,,,,,,,,,,,,,,,,,,None,,505.7975484800874,None,505.7975484800874,None,2021-07-29-12:48:17.298715,505.80682190007064,506.11621430004016,505.80682190007064,505.80682190007064,None,505.80682190007064,505.80682190007064,506.615815979999,None,,,,12003,0001,2021_Jul_29_1239,localizer,2021.1.3,60.90152528038905,
block,faces,faces072.bmp,,,,,0,88,88,88,,,,,,,,,,,,,,,,,,,,,,,,,,,,,,,,,,,,None,,506.615815979999,None,506.615815979999,None,2021-07-29-12:48:18.115994,506.6204175000312,506.9305251000915,506.6204175000312,None,y,506.6204175000312,None,507.4304652800667,None,0.5965769999893382,,,12003,0001,2021_Jul_29_1239,localizer,2021.1.3,60.90152528038905,
block,faces,faces057.bmp,,,,,0,89,89,89,,,,,,,,,,,,,,,,,,,,,,,,,,,,,,,,,,,,None,,507.4304652800667,None,507.4304652800667,None,2021-07-29-12:48:18.927691,507.4314859000733,507.7467993000755,507.4314859000733,None,None,507.4314859000733,None,508.2368287800229,None,,,,12003,0001,2021_Jul_29_1239,localizer,2021.1.3,60.90152528038905,
block,faces,faces061.bmp,,,,,0,90,90,90,,,,,,,,,,,,,,,,,,,,,,,,,,,,,,,,,,,,None,,508.2368287800229,None,508.2368287800229,None,2021-07-29-12:48:19.740855,508.24532290000934,508.5469175000908,508.24532290000934,None,None,508.24532290000934,None,509.0472452799906,None,,,,12003,0001,2021_Jul_29_1239,localizer,2021.1.3,60.90152528038905,
block_end,faces,faces073.bmp,,,,,0,91,91,91,,,,,,,,,,,,,,,,,,,,,,,,,,,,,,,,,,,,None,,509.0472452799906,None,509.0472452799906,None,2021-07-29-12:48:20.544579,509.0480258000316,509.34743309998885,509.0480258000316,None,None,509.0480258000316,None,509.848210280051,None,,,,12003,0001,2021_Jul_29_1239,localizer,2021.1.3,60.90152528038905,
block_start,objects,objects052.bmp,,,,,0,92,92,92,,,,,,,,,,,,,,,,,,,,,,,,,,,,,,,,,,,,t,1.8487893000710756,509.8499041000614,None,509.8499041000614,None,2021-07-29-12:48:23.210997,511.7145291999914,512.013635499985,511.7145291999914,None,None,511.7145291999914,None,512.5138650800684,None,,,,12003,0001,2021_Jul_29_1239,localizer,2021.1.3,60.90152528038905,
block,objects,objects003.bmp,,,,,0,93,93,93,,,,,,,,,,,,,,,,,,,,,,,,,,,,,,,,,,,,None,,512.5138650800684,None,512.5138650800684,None,2021-07-29-12:48:24.013980,512.5166272000642,512.8307106000138,512.5166272000642,512.5166272000642,None,512.5166272000642,512.5166272000642,513.3309514800669,None,,,,12003,0001,2021_Jul_29_1239,localizer,2021.1.3,60.90152528038905,
block,objects,objects049.bmp,,,,,0,94,94,94,,,,,,,,,,,,,,,,,,,,,,,,,,,,,,,,,,,,None,,513.3309514800669,None,513.3309514800669,None,2021-07-29-12:48:24.829102,513.3315827000188,513.6467580000171,513.3315827000188,None,None,513.3315827000188,None,514.1469619800221,None,,,,12003,0001,2021_Jul_29_1239,localizer,2021.1.3,60.90152528038905,
block,objects,objects001.bmp,,,,,0,95,95,95,,,,,,,,,,,,,,,,,,,,,,,,,,,,,,,,,,,,None,,514.1469619800221,None,514.1469619800221,None,2021-07-29-12:48:25.644105,514.1480200000806,514.4471725000767,514.1480200000806,None,None,514.1480200000806,None,514.9479772799998,None,,,,12003,0001,2021_Jul_29_1239,localizer,2021.1.3,60.90152528038905,
block,objects,objects042.bmp,,,,,0,96,96,96,,,,,,,,,,,,,,,,,,,,,,,,,,,,,,,,,,,,None,,514.9479772799998,None,514.9479772799998,None,2021-07-29-12:48:26.448101,514.9510733000934,515.2631834000349,514.9510733000934,514.9510733000934,None,514.9510733000934,514.9510733000934,515.7634704800905,None,,,,12003,0001,2021_Jul_29_1239,localizer,2021.1.3,60.90152528038905,
block,objects,objects032.bmp,,,,,0,97,97,97,,,,,,,,,,,,,,,,,,,,,,,,,,,,,,,,,,,,None,,515.7634704800905,None,515.7634704800905,None,2021-07-29-12:48:27.260620,515.7644751000917,516.0635826999787,515.7644751000917,None,None,515.7644751000917,None,516.5639355800697,None,,,,12003,0001,2021_Jul_29_1239,localizer,2021.1.3,60.90152528038905,
block,objects,objects047.bmp,,,,,0,98,98,98,,,,,,,,,,,,,,,,,,,,,,,,,,,,,,,,,,,,None,,516.5639355800697,None,516.5639355800697,None,2021-07-29-12:48:28.063074,516.5652241000207,516.880309500033,516.5652241000207,516.5652241000207,None,516.5652241000207,516.5652241000207,517.3804944800097,None,,,,12003,0001,2021_Jul_29_1239,localizer,2021.1.3,60.90152528038905,
block,objects,objects083.bmp,,,,,0,99,99,99,,,,,,,,,,,,,,,,,,,,,,,,,,,,,,,,,,,,None,,517.3804944800097,None,517.3804944800097,None,2021-07-29-12:48:28.877548,517.3813683000626,517.6807829000754,517.3813683000626,None,None,517.3813683000626,None,518.1811152800103,None,,,,12003,0001,2021_Jul_29_1239,localizer,2021.1.3,60.90152528038905,
block,objects,objects036.bmp,,,,,0,100,100,100,,,,,,,,,,,,,,,,,,,,,,,,,,,,,,,,,,,,None,,518.1811152800103,None,518.1811152800103,None,2021-07-29-12:48:29.681446,518.1842477000318,518.496806900017,518.1842477000318,518.1842477000318,None,518.1842477000318,518.1842477000318,518.9977285800153,None,,,,12003,0001,2021_Jul_29_1239,localizer,2021.1.3,60.90152528038905,
block,objects,objects027.bmp,,,,,0,101,101,101,,,,,,,,,,,,,,,,,,,,,,,,,,,,,,,,,,,,None,,518.9977285800153,None,518.9977285800153,None,2021-07-29-12:48:30.495842,518.9984595000278,519.3133123000152,518.9984595000278,None,None,518.9984595000278,None,519.8029121800676,None,,,,12003,0001,2021_Jul_29_1239,localizer,2021.1.3,60.90152528038905,
block,objects,objects021.bmp,,,,,0,102,102,102,,,,,,,,,,,,,,,,,,,,,,,,,,,,,,,,,,,,None,,519.8029121800676,None,519.8029121800676,None,2021-07-29-12:48:31.303003,519.8067967999959,520.1134413999971,519.8067967999959,None,None,519.8067967999959,None,520.6136170800194,None,,,,12003,0001,2021_Jul_29_1239,localizer,2021.1.3,60.90152528038905,
block,objects,objects084.bmp,,,,,0,103,103,103,,,,,,,,,,,,,,,,,,,,,,,,,,,,,,,,,,,,None,,520.6136170800194,None,520.6136170800194,None,2021-07-29-12:48:32.110565,520.6146800999995,520.9300722000189,520.6146800999995,None,None,520.6146800999995,None,521.4302191800555,None,,,,12003,0001,2021_Jul_29_1239,localizer,2021.1.3,60.90152528038905,
block,objects,objects059.bmp,,,,,0,104,104,104,,,,,,,,,,,,,,,,,,,,,,,,,,,,,,,,,,,,None,,521.4302191800555,None,521.4302191800555,None,2021-07-29-12:48:32.927368,521.431201600004,521.7300966000184,521.431201600004,None,None,521.431201600004,None,522.2378756800783,None,,,,12003,0001,2021_Jul_29_1239,localizer,2021.1.3,60.90152528038905,
block,objects,objects011.bmp,,,,,0,105,105,105,,,,,,,,,,,,,,,,,,,,,,,,,,,,,,,,,,,,None,,522.2378756800783,None,522.2378756800783,None,2021-07-29-12:48:33.741970,522.2464093000162,522.5468854000792,522.2464093000162,None,None,522.2464093000162,None,523.0465363800643,None,,,,12003,0001,2021_Jul_29_1239,localizer,2021.1.3,60.90152528038905,
block_end,objects,objects079.bmp,,,,,0,106,106,106,,,,,,,,,,,,,,,,,,,,,,,,,,,,,,,,,,,,None,,523.0465363800643,None,523.0465363800643,None,2021-07-29-12:48:34.543715,523.048006099998,523.3634757000254,523.048006099998,None,None,523.048006099998,None,523.8637550800224,None,,,,12003,0001,2021_Jul_29_1239,localizer,2021.1.3,60.90152528038905,
block_start,scrambled,scrambled052.bmp,,,,,0,107,107,107,,,,,,,,,,,,,,,,,,,,,,,,,,,,,,,,,,,,t,1.8347643999150023,523.8635764999781,None,523.8635764999781,None,2021-07-29-12:48:37.211012,525.7149491000455,526.0143732000142,525.7149491000455,None,None,525.7149491000455,None,526.5144193799817,None,,,,12003,0001,2021_Jul_29_1239,localizer,2021.1.3,60.90152528038905,
block,scrambled,scrambled049.bmp,,,,,0,108,108,108,,,,,,,,,,,,,,,,,,,,,,,,,,,,,,,,,,,,None,,526.5144193799817,None,526.5144193799817,None,2021-07-29-12:48:38.014680,526.5173027000856,526.8309527999954,526.5173027000856,526.5173027000856,None,526.5173027000856,526.5173027000856,527.3302281800309,None,,,,12003,0001,2021_Jul_29_1239,localizer,2021.1.3,60.90152528038905,
block,scrambled,scrambled084.bmp,,,,,0,109,109,109,,,,,,,,,,,,,,,,,,,,,,,,,,,,,,,,,,,,None,,527.3302281800309,None,527.3302281800309,None,2021-07-29-12:48:38.827491,527.3313411000418,527.6303188999882,527.3313411000418,None,None,527.3313411000418,None,528.1305679799873,None,,,,12003,0001,2021_Jul_29_1239,localizer,2021.1.3,60.90152528038905,
block,scrambled,scrambled027.bmp,,,,,0,110,110,110,,,,,,,,,,,,,,,,,,,,,,,,,,,,,,,,,,,,None,,528.1305679799873,None,528.1305679799873,None,2021-07-29-12:48:39.630056,528.1320841000415,528.447183500044,528.1320841000415,528.1320841000415,None,528.1320841000415,528.1320841000415,528.9474218800781,None,,,,12003,0001,2021_Jul_29_1239,localizer,2021.1.3,60.90152528038905,
block,scrambled,scrambled032.bmp,,,,,0,111,111,111,,,,,,,,,,,,,,,,,,,,,,,,,,,,,,,,,,,,None,,528.9474218800781,None,528.9474218800781,None,2021-07-29-12:48:40.444749,528.9481290000258,529.2638532000128,528.9481290000258,None,None,528.9481290000258,None,529.7474122800515,None,,,,12003,0001,2021_Jul_29_1239,localizer,2021.1.3,60.90152528038905,
block,scrambled,scrambled030.bmp,,,,,0,112,112,112,,,,,,,,,,,,,,,,,,,,,,,,,,,,,,,,,,,,None,,529.7474122800515,None,529.7474122800515,None,2021-07-29-12:48:41.246936,529.7497345000738,530.0638098000782,529.7497345000738,529.7497345000738,None,529.7497345000738,529.7497345000738,530.5639154800331,None,,,,12003,0001,2021_Jul_29_1239,localizer,2021.1.3,60.90152528038905,
block,scrambled,scrambled039.bmp,,,,,0,113,113,113,,,,,,,,,,,,,,,,,,,,,,,,,,,,,,,,,,,,None,,530.5639154800331,None,530.5639154800331,None,2021-07-29-12:48:42.061450,530.5649182000197,530.8642329000868,530.5649182000197,None,None,530.5649182000197,None,531.3639982800116,None,,,,12003,0001,2021_Jul_29_1239,localizer,2021.1.3,60.90152528038905,
block,scrambled,scrambled015.bmp,,,,,0,114,114,114,,,,,,,,,,,,,,,,,,,,,,,,,,,,,,,,,,,,None,,531.3639982800116,None,531.3639982800116,None,2021-07-29-12:48:42.863317,531.3669372000732,531.6807299000211,531.3669372000732,531.3669372000732,None,531.3669372000732,531.3669372000732,532.1808555800119,None,,,,12003,0001,2021_Jul_29_1239,localizer,2021.1.3,60.90152528038905,
block,scrambled,scrambled037.bmp,,,,,0,115,115,115,,,,,,,,,,,,,,,,,,,,,,,,,,,,,,,,,,,,None,,532.1808555800119,None,532.1808555800119,None,2021-07-29-12:48:43.678135,532.1816269999836,532.496980200056,532.1816269999836,None,None,532.1816269999836,None,532.9885697800084,None,,,,12003,0001,2021_Jul_29_1239,localizer,2021.1.3,60.90152528038905,
block,scrambled,scrambled073.bmp,,,,,0,116,116,116,,,,,,,,,,,,,,,,,,,,,,,,,,,,,,,,,,,,None,,532.9885697800084,None,532.9885697800084,None,2021-07-29-12:48:44.493586,532.9999940000707,533.3137059999863,532.9999940000707,None,None,532.9999940000707,None,533.7977781800903,None,,,,12003,0001,2021_Jul_29_1239,localizer,2021.1.3,60.90152528038905,
block,scrambled,scrambled008.bmp,,,,,0,117,117,117,,,,,,,,,,,,,,,,,,,,,,,,,,,,,,,,,,,,None,,533.7977781800903,None,533.7977781800903,None,2021-07-29-12:48:45.296182,533.798466200009,534.0972926000832,533.798466200009,None,None,533.798466200009,None,534.6139470800874,None,,,,12003,0001,2021_Jul_29_1239,localizer,2021.1.3,60.90152528038905,
block,scrambled,scrambled002.bmp,,,,,0,118,118,118,,,,,,,,,,,,,,,,,,,,,,,,,,,,,,,,,,,,None,,534.6139470800874,None,534.6139470800874,None,2021-07-29-12:48:46.111357,534.6147851999849,534.9138216000283,534.6147851999849,None,None,534.6147851999849,None,535.4138263800298,None,,,,12003,0001,2021_Jul_29_1239,localizer,2021.1.3,60.90152528038905,
block,scrambled,scrambled031.bmp,,,,,0,119,119,119,,,,,,,,,,,,,,,,,,,,,,,,,,,,,,,,,,,,None,,535.4138263800298,None,535.4138263800298,None,2021-07-29-12:48:46.913131,535.4147973000072,535.7303315000609,535.4147973000072,535.4147973000072,None,535.4147973000072,535.4147973000072,536.2173177800025,None,,,,12003,0001,2021_Jul_29_1239,localizer,2021.1.3,60.90152528038905,
block,scrambled,scrambled056.bmp,,,,,0,120,120,120,,,,,,,,,,,,,,,,,,,,,,,,,,,,,,,,,,,,None,,536.2173177800025,None,536.2173177800025,None,2021-07-29-12:48:47.724694,536.2264113000128,536.530644500046,536.2264113000128,536.2264113000128,None,536.2264113000128,536.2264113000128,537.0306284800056,None,,,,12003,0001,2021_Jul_29_1239,localizer,2021.1.3,60.90152528038905,
block_end,scrambled,scrambled044.bmp,,,,,0,121,121,121,,,,,,,,,,,,,,,,,,,,,,,,,,,,,,,,,,,,None,,537.0306284800056,None,537.0306284800056,None,2021-07-29-12:48:48.528086,537.0315122000175,537.3306774999946,537.0315122000175,None,None,537.0315122000175,None,537.846947679983,None,,,,12003,0001,2021_Jul_29_1239,localizer,2021.1.3,60.90152528038905,
block_start,scenes,scenes034.bmp,,,,,0,122,122,122,,,,,,,,,,,,,,,,,,,,,,,,,,,,,,,,,,,,t,1.8514571000123397,537.846845000051,None,537.846845000051,None,2021-07-29-12:48:51.211962,539.7152218000265,540.0143574000103,539.7152218000265,None,None,539.7152218000265,None,540.5305590800592,None,,,,12003,0001,2021_Jul_29_1239,localizer,2021.1.3,60.90152528038905,
block,scenes,scenes057.bmp,,,,,0,123,123,123,,,,,,,,,,,,,,,,,,,,,,,,,,,,,,,,,,,,None,,540.5305590800592,None,540.5305590800592,None,2021-07-29-12:48:52.028092,540.5316695000511,540.8470425000414,540.5316695000511,None,None,540.5316695000511,None,541.3319008800784,None,,,,12003,0001,2021_Jul_29_1239,localizer,2021.1.3,60.90152528038905,
block,scenes,scenes038.bmp,,,,,0,124,124,124,,,,,,,,,,,,,,,,,,,,,,,,,,,,,,,,,,,,None,,541.3319008800784,None,541.3319008800784,None,2021-07-29-12:48:52.833572,541.3361622000812,541.6475914000766,541.3361622000812,541.3361622000812,None,541.3361622000812,541.3361622000812,542.1478133799858,None,,,,12003,0001,2021_Jul_29_1239,localizer,2021.1.3,60.90152528038905,
block,scenes,scenes028.bmp,,,,,0,125,125,125,,,,,,,,,,,,,,,,,,,,,,,,,,,,,,,,,,,,None,,542.1478133799858,None,542.1478133799858,None,2021-07-29-12:48:53.646369,542.1486946999794,542.4637679000152,542.1486946999794,None,None,542.1486946999794,None,542.9636524800328,None,,,,12003,0001,2021_Jul_29_1239,localizer,2021.1.3,60.90152528038905,
block,scenes,scenes082.bmp,,,,,0,126,126,126,,,,,,,,,,,,,,,,,,,,,,,,,,,,,,,,,,,,None,,542.9636524800328,None,542.9636524800328,None,2021-07-29-12:48:54.461272,542.9649443000089,543.280783400056,542.9649443000089,None,None,542.9649443000089,None,543.7805170800887,None,,,,12003,0001,2021_Jul_29_1239,localizer,2021.1.3,60.90152528038905,
block,scenes,scenes074.bmp,,,,,0,127,127,127,,,,,,,,,,,,,,,,,,,,,,,,,,,,,,,,,,,,None,,543.7805170800887,None,543.7805170800887,None,2021-07-29-12:48:55.278088,543.7814210000215,544.080672500073,543.7814210000215,None,None,543.7814210000215,None,544.5807523800643,None,,,,12003,0001,2021_Jul_29_1239,localizer,2021.1.3,60.90152528038905,
block,scenes,scenes059.bmp,,,,,0,128,128,128,,,,,,,,,,,,,,,,,,,,,,,,,,,,,,,,,,,,None,,544.5807523800643,None,544.5807523800643,None,2021-07-29-12:48:56.080365,544.582095400081,544.8818949999986,544.582095400081,544.582095400081,None,544.582095400081,544.582095400081,545.397307380091,None,,,,12003,0001,2021_Jul_29_1239,localizer,2021.1.3,60.90152528038905,
block,scenes,scenes076.bmp,,,,,0,129,129,129,,,,,,,,,,,,,,,,,,,,,,,,,,,,,,,,,,,,None,,545.397307380091,None,545.397307380091,None,2021-07-29-12:48:56.894921,545.3982368999859,545.7136849000817,545.3982368999859,None,None,545.3982368999859,None,546.213442280062,None,,,,12003,0001,2021_Jul_29_1239,localizer,2021.1.3,60.90152528038905,
block,scenes,scenes029.bmp,,,,,0,130,130,130,,,,,,,,,,,,,,,,,,,,,,,,,,,,,,,,,,,,None,,546.213442280062,None,546.213442280062,None,2021-07-29-12:48:57.711386,546.2149863999803,546.5305648000212,546.2149863999803,None,None,546.2149863999803,None,547.0140052800882,None,,,,12003,0001,2021_Jul_29_1239,localizer,2021.1.3,60.90152528038905,
block,scenes,scenes060.bmp,,,,,0,131,131,131,,,,,,,,,,,,,,,,,,,,,,,,,,,,,,,,,,,,None,,547.0140052800882,None,547.0140052800882,None,2021-07-29-12:48:58.513665,547.015347699984,547.3302625999786,547.015347699984,547.015347699984,None,547.015347699984,547.015347699984,547.8305277799839,None,,,,12003,0001,2021_Jul_29_1239,localizer,2021.1.3,60.90152528038905,
block,scenes,scenes035.bmp,,,,,0,132,132,132,,,,,,,,,,,,,,,,,,,,,,,,,,,,,,,,,,,,None,,547.8305277799839,None,547.8305277799839,None,2021-07-29-12:48:59.328215,547.8315071000252,548.1469096000073,547.8315071000252,None,None,547.8315071000252,None,548.6466193800909,None,,,,12003,0001,2021_Jul_29_1239,localizer,2021.1.3,60.90152528038905,
block,scenes,scenes018.bmp,,,,,0,133,133,133,,,,,,,,,,,,,,,,,,,,,,,,,,,,,,,,,,,,None,,548.6466193800909,None,548.6466193800909,None,2021-07-29-12:49:00.143836,548.6490793999983,548.963531400077,548.6490793999983,None,None,548.6490793999983,None,549.4485201800592,None,,,,12003,0001,2021_Jul_29_1239,localizer,2021.1.3,60.90152528038905,
block,scenes,scenes071.bmp,,,,,0,134,134,134,,,,,,,,,,,,,,,,,,,,,,,,,,,,,,,,,,,,None,,549.4485201800592,None,549.4485201800592,None,2021-07-29-12:49:00.951344,549.4541453000857,549.7637792000314,549.4541453000857,549.4541453000857,None,549.4541453000857,549.4541453000857,550.2644076800091,None,,,,12003,0001,2021_Jul_29_1239,localizer,2021.1.3,60.90152528038905,
block,scenes,scenes013.bmp,,,,,0,135,135,135,,,,,,,,,,,,,,,,,,,,,,,,,,,,,,,,,,,,None,,550.2644076800091,None,550.2644076800091,None,2021-07-29-12:49:01.762175,550.2650101000909,550.5643461000873,550.2650101000909,None,None,550.2650101000909,None,551.0653171799961,None,,,,12003,0001,2021_Jul_29_1239,localizer,2021.1.3,60.90152528038905,
block_end,scenes,scenes046.bmp,,,,,0,136,136,136,,,,,,,,,,,,,,,,,,,,,,,,,,,,,,,,,,,,None,,551.0653171799961,None,551.0653171799961,None,2021-07-29-12:49:02.568188,551.0706348000094,551.3803471000865,551.0706348000094,551.0706348000094,None,551.0706348000094,551.0706348000094,551.8801380800899,None,,,,12003,0001,2021_Jul_29_1239,localizer,2021.1.3,60.90152528038905,
block_start,faces,faces075.bmp,,,,,0,137,137,137,,,,,,,,,,,,,,,,,,,,,,,,,,,,,,,,,,,,t,1.8170163000468165,551.8803263000445,None,551.8803263000445,None,2021-07-29-12:49:05.217635,553.7245519000571,554.0318442999851,553.7245519000571,None,None,553.7245519000571,None,554.5308523800807,None,,,,12003,0001,2021_Jul_29_1239,localizer,2021.1.3,60.90152528038905,
block,faces,faces067.bmp,,,,,0,138,138,138,,,,,,,,,,,,,,,,,,,,,,,,,,,,,,,,,,,,None,,554.5308523800807,None,554.5308523800807,None,2021-07-29-12:49:06.028689,554.5316354000242,554.8309271000326,554.5316354000242,None,None,554.5316354000242,None,555.3309151800233,None,,,,12003,0001,2021_Jul_29_1239,localizer,2021.1.3,60.90152528038905,
block,faces,faces008.bmp,,,,,0,139,139,139,,,,,,,,,,,,,,,,,,,,,,,,,,,,,,,,,,,,None,,555.3309151800233,None,555.3309151800233,None,2021-07-29-12:49:06.830744,555.3339809000026,555.6476585000055,555.3339809000026,555.3339809000026,None,555.3339809000026,555.3339809000026,556.1481976800017,None,,,,12003,0001,2021_Jul_29_1239,localizer,2021.1.3,60.90152528038905,
block,faces,faces022.bmp,,,,,0,140,140,140,,,,,,,,,,,,,,,,,,,,,,,,,,,,,,,,,,,,None,,556.1481976800017,None,556.1481976800017,None,2021-07-29-12:49:07.647229,556.1503607000923,556.4640328000532,556.1503607000923,None,None,556.1503607000923,None,556.9638774799998,None,,,,12003,0001,2021_Jul_29_1239,localizer,2021.1.3,60.90152528038905,
block,faces,faces016.bmp,,,,,0,141,141,141,,,,,,,,,,,,,,,,,,,,,,,,,,,,,,,,,,,,None,,556.9638774799998,None,556.9638774799998,None,2021-07-29-12:49:08.461999,556.9649159000255,557.2805226000492,556.9649159000255,None,None,556.9649159000255,None,557.7647154800245,None,,,,12003,0001,2021_Jul_29_1239,localizer,2021.1.3,60.90152528038905,
block,faces,faces055.bmp,,,,,0,142,142,142,,,,,,,,,,,,,,,,,,,,,,,,,,,,,,,,,,,,None,,557.7647154800245,None,557.7647154800245,None,2021-07-29-12:49:09.265779,557.7678964000661,558.0803717999952,557.7678964000661,557.7678964000661,None,557.7678964000661,557.7678964000661,558.5818949800334,None,,,,12003,0001,2021_Jul_29_1239,localizer,2021.1.3,60.90152528038905,
block,faces,faces049.bmp,,,,,0,143,143,143,,,,,,,,,,,,,,,,,,,,,,,,,,,,,,,,,,,,None,,558.5818949800334,None,558.5818949800334,None,2021-07-29-12:49:10.082778,558.5849937000312,558.8975455000764,558.5849937000312,None,None,558.5849937000312,None,559.3965794800199,None,,,,12003,0001,2021_Jul_29_1239,localizer,2021.1.3,60.90152528038905,
block,faces,faces073.bmp,,,,,0,144,144,144,,,,,,,,,,,,,,,,,,,,,,,,,,,,,,,,,,,,None,,559.3965794800199,None,559.3965794800199,None,2021-07-29-12:49:10.894519,559.3991036000662,559.7220196999842,559.3991036000662,None,None,559.3991036000662,None,560.1994467800134,None,,,,12003,0001,2021_Jul_29_1239,localizer,2021.1.3,60.90152528038905,
block,faces,faces011.bmp,,,,,0,145,145,145,,,,,,,,,,,,,,,,,,,,,,,,,,,,,,,,,,,,None,,560.1994467800134,None,560.1994467800134,None,2021-07-29-12:49:11.704340,560.206978400005,560.5146920999978,560.206978400005,560.206978400005,None,560.206978400005,560.206978400005,561.0146022799775,None,,,,12003,0001,2021_Jul_29_1239,localizer,2021.1.3,60.90152528038905,
block,faces,faces050.bmp,,,,,0,146,146,146,,,,,,,,,,,,,,,,,,,,,,,,,,,,,,,,,,,,None,,561.0146022799775,None,561.0146022799775,None,2021-07-29-12:49:12.512552,561.0151544000255,561.314252500073,561.0151544000255,None,None,561.0151544000255,None,561.8144055800396,None,,,,12003,0001,2021_Jul_29_1239,localizer,2021.1.3,60.90152528038905,
block,faces,faces059.bmp,,,,,0,147,147,147,,,,,,,,,,,,,,,,,,,,,,,,,,,,,,,,,,,,None,,561.8144055800396,None,561.8144055800396,None,2021-07-29-12:49:13.315546,561.8172141000396,562.118449700065,561.8172141000396,561.8172141000396,None,561.8172141000396,561.8172141000396,562.6307372799959,None,,,,12003,0001,2021_Jul_29_1239,localizer,2021.1.3,60.90152528038905,
block,faces,faces040.bmp,,,,,0,148,148,148,,,,,,,,,,,,,,,,,,,,,,,,,,,,,,,,,,,,None,,562.6307372799959,None,562.6307372799959,None,2021-07-29-12:49:14.128728,562.6316668000072,562.9539035999915,562.6316668000072,None,None,562.6316668000072,None,563.4307923799963,None,,,,12003,0001,2021_Jul_29_1239,localizer,2021.1.3,60.90152528038905,
block,faces,faces086.bmp,,,,,0,149,149,149,,,,,,,,,,,,,,,,,,,,,,,,,,,,,,,,,,,,None,,563.4307923799963,None,563.4307923799963,None,2021-07-29-12:49:14.929797,563.4316902999999,563.7472109000664,563.4316902999999,563.4316902999999,None,563.4316902999999,563.4316902999999,564.2379862799892,None,,,,12003,0001,2021_Jul_29_1239,localizer,2021.1.3,60.90152528038905,
block,faces,faces029.bmp,,,,,0,150,150,150,,,,,,,,,,,,,,,,,,,,,,,,,,,,,,,,,,,,None,,564.2379862799892,None,564.2379862799892,None,2021-07-29-12:49:15.743812,564.2473071999848,564.5480801999802,564.2473071999848,None,None,564.2473071999848,None,565.0480401799898,None,,,,12003,0001,2021_Jul_29_1239,localizer,2021.1.3,60.90152528038905,
block_end,faces,faces043.bmp,,,,,0,151,151,151,,,,,,,,,,,,,,,,,,,,,,,,,,,,,,,,,,,,None,,565.0480401799898,None,565.0480401799898,None,2021-07-29-12:49:16.547248,565.0501994000515,565.3636275000172,565.0501994000515,None,None,565.0501994000515,None,565.8647587799817,None,,,,12003,0001,2021_Jul_29_1239,localizer,2021.1.3,60.90152528038905,
null_block,null_block,null_block.bmp,,,,,0,152,152,152,,,,,,,,,,,,,,,,,,,,,,,,,,,,,,,,,,,,t,1.8329139000270516,565.8648335000034,None,565.8648335000034,None,2021-07-29-12:49:19.219660,567.7176499800873,None,567.7176499800873,None,None,567.7176499800873,None,567.7251246999949,None,,,,12003,0001,2021_Jul_29_1239,localizer,2021.1.3,60.90152528038905,
block_start,objects,objects087.bmp,,,,,0,153,153,153,,,,,,,,,,,,,,,,,,,,,,,,,,,,,,,,,,,,t,1.9606849999399856,579.736827100045,None,579.736827100045,None,2021-07-29-12:49:33.214303,581.7168757000472,582.0305275000865,581.7168757000472,None,None,581.7168757000472,None,582.5310558800004,None,,,,12003,0001,2021_Jul_29_1239,localizer,2021.1.3,60.90152528038905,
block,objects,objects064.bmp,,,,,0,154,154,154,,,,,,,,,,,,,,,,,,,,,,,,,,,,,,,,,,,,None,,582.5310558800004,None,582.5310558800004,None,2021-07-29-12:49:34.029731,582.531787600019,582.8309093000134,582.531787600019,None,None,582.531787600019,None,583.3308619800839,None,,,,12003,0001,2021_Jul_29_1239,localizer,2021.1.3,60.90152528038905,
block,objects,objects039.bmp,,,,,0,155,155,155,,,,,,,,,,,,,,,,,,,,,,,,,,,,,,,,,,,,None,,583.3308619800839,None,583.3308619800839,None,2021-07-29-12:49:34.831272,583.3337788000936,583.6478032000596,583.3337788000936,583.3337788000936,None,583.3337788000936,583.3337788000936,584.1472935799859,None,,,,12003,0001,2021_Jul_29_1239,localizer,2021.1.3,60.90152528038905,
block,objects,objects069.bmp,,,,,0,156,156,156,,,,,,,,,,,,,,,,,,,,,,,,,,,,,,,,,,,,None,,584.1472935799859,None,584.1472935799859,None,2021-07-29-12:49:35.645729,584.1483976000454,584.4478492999915,584.1483976000454,None,None,584.1483976000454,None,584.9642809800455,None,,,,12003,0001,2021_Jul_29_1239,localizer,2021.1.3,60.90152528038905,
block,objects,objects075.bmp,,,,,0,157,157,157,,,,,,,,,,,,,,,,,,,,,,,,,,,,,,,,,,,,None,,584.9642809800455,None,584.9642809800455,None,2021-07-29-12:49:36.462732,584.9651796000544,585.2807909999974,584.9651796000544,None,None,584.9651796000544,None,585.7673404799891,None,,,,12003,0001,2021_Jul_29_1239,localizer,2021.1.3,60.90152528038905,
block,objects,objects083.bmp,,,,,0,158,158,158,,,,,,,,,,,,,,,,,,,,,,,,,,,,,,,,,,,,None,,585.7673404799891,None,585.7673404799891,None,2021-07-29-12:49:37.268039,585.7740007999819,586.0807070999872,585.7740007999819,585.7740007999819,None,585.7740007999819,585.7740007999819,586.5808874800452,None,,,,12003,0001,2021_Jul_29_1239,localizer,2021.1.3,60.90152528038905,
block,objects,objects030.bmp,,,,,0,159,159,159,,,,,,,,,,,,,,,,,,,,,,,,,,,,,,,,,,,,None,,586.5808874800452,None,586.5808874800452,None,2021-07-29-12:49:38.079500,586.5818629000569,586.8817969000665,586.5818629000569,None,None,586.5818629000569,None,587.3973246799899,None,,,,12003,0001,2021_Jul_29_1239,localizer,2021.1.3,60.90152528038905,
block,objects,objects002.bmp,,,,,0,160,160,160,,,,,,,,,,,,,,,,,,,,,,,,,,,,,,,,,,,,None,,587.3973246799899,None,587.3973246799899,None,2021-07-29-12:49:38.895831,587.3984401000198,587.7140366000822,587.3984401000198,None,None,587.3984401000198,None,588.197597980022,None,,,,12003,0001,2021_Jul_29_1239,localizer,2021.1.3,60.90152528038905,
block,objects,objects082.bmp,,,,,0,161,161,161,,,,,,,,,,,,,,,,,,,,,,,,,,,,,,,,,,,,None,,588.197597980022,None,588.197597980022,None,2021-07-29-12:49:39.698121,588.199655000004,588.5140347999986,588.199655000004,588.199655000004,None,588.199655000004,588.199655000004,589.0149725800031,None,,,,12003,0001,2021_Jul_29_1239,localizer,2021.1.3,60.90152528038905,
block,objects,objects022.bmp,,,,,0,162,162,162,,,,,,,,,,,,,,,,,,,,,,,,,,,,,,,,,,,,None,,589.0149725800031,None,589.0149725800031,None,2021-07-29-12:49:40.513906,589.0151558000362,589.3146005000453,589.0151558000362,None,None,589.0151558000362,None,589.8144206800382,None,,,,12003,0001,2021_Jul_29_1239,localizer,2021.1.3,60.90152528038905,
block,objects,objects003.bmp,,,,,0,163,163,163,,,,,,,,,,,,,,,,,,,,,,,,,,,,,,,,,,,,None,,589.8144206800382,None,589.8144206800382,None,2021-07-29-12:49:41.315166,589.8172444000375,590.1315734999953,589.8172444000375,589.8172444000375,None,589.8172444000375,589.8172444000375,590.6315087800497,None,,,,12003,0001,2021_Jul_29_1239,localizer,2021.1.3,60.90152528038905,
block,objects,objects068.bmp,,,,,0,164,164,164,,,,,,,,,,,,,,,,,,,,,,,,,,,,,,,,,,,,None,,590.6315087800497,None,590.6315087800497,None,2021-07-29-12:49:42.131258,590.6336847000057,590.948230399983,590.6336847000057,None,None,590.6336847000057,None,591.4339221800794,None,,,,12003,0001,2021_Jul_29_1239,localizer,2021.1.3,60.90152528038905,
block,objects,objects088.bmp,,,,,0,165,165,165,,,,,,,,,,,,,,,,,,,,,,,,,,,,,,,,,,,,None,,591.4339221800794,None,591.4339221800794,None,2021-07-29-12:49:42.934428,591.4407067000866,591.7475847000023,591.4407067000866,591.4407067000866,None,591.4407067000866,591.4407067000866,592.2542167800596,None,,,,12003,0001,2021_Jul_29_1239,localizer,2021.1.3,60.90152528038905,
block,objects,objects042.bmp,,,,,0,166,166,166,,,,,,,,,,,,,,,,,,,,,,,,,,,,,,,,,,,,None,,592.2542167800596,None,592.2542167800596,None,2021-07-29-12:49:43.756824,592.2586279000388,592.5641914000735,592.2586279000388,None,None,592.2586279000388,None,593.0640884800698,None,,,,12003,0001,2021_Jul_29_1239,localizer,2021.1.3,60.90152528038905,
block_end,objects,objects010.bmp,,,,,0,167,167,167,,,,,,,,,,,,,,,,,,,,,,,,,,,,,,,,,,,,None,,593.0640884800698,None,593.0640884800698,None,2021-07-29-12:49:44.562712,593.0649322000099,593.3641059000511,593.0649322000099,None,None,593.0649322000099,None,593.8805900800392,None,,,,12003,0001,2021_Jul_29_1239,localizer,2021.1.3,60.90152528038905,
block_start,scrambled,scrambled055.bmp,,,,,0,168,168,168,,,,,,,,,,,,,,,,,,,,,,,,,,,,,,,,,,,,t,1.8167489001061767,593.8806089999853,None,593.8806089999853,None,2021-07-29-12:49:47.211567,595.7151753000217,596.0142061000224,595.7151753000217,None,None,595.7151753000217,None,596.5154107800802,None,,,,12003,0001,2021_Jul_29_1239,localizer,2021.1.3,60.90152528038905,
block,scrambled,scrambled046.bmp,,,,,0,169,169,169,,,,,,,,,,,,,,,,,,,,,,,,,,,,,,,,,,,,None,,596.5154107800802,None,596.5154107800802,None,2021-07-29-12:49:48.018152,596.5196388000622,596.8304110000608,596.5196388000622,596.5196388000622,None,596.5196388000622,596.5196388000622,597.3321327799815,None,,,,12003,0001,2021_Jul_29_1239,localizer,2021.1.3,60.90152528038905,
block,scrambled,scrambled046.bmp,,,,,0,170,170,170,,,,,,,,,,,,,,,,,,,,,,,,,,,,,,,,,,,,None,,597.3321327799815,None,597.3321327799815,None,2021-07-29-12:49:48.832416,597.3408420000924,597.6479786999989,597.3408420000924,None,y,597.3408420000924,None,598.1477526799893,None,0.504985100007616,,,12003,0001,2021_Jul_29_1239,localizer,2021.1.3,60.90152528038905,
block,scrambled,scrambled006.bmp,,,,,0,171,171,171,,,,,,,,,,,,,,,,,,,,,,,,,,,,,,,,,,,,None,,598.1477526799893,None,598.1477526799893,None,2021-07-29-12:49:49.646710,598.148548200028,598.4643769999966,598.148548200028,None,None,598.148548200028,None,598.947801980062,None,,,,12003,0001,2021_Jul_29_1239,localizer,2021.1.3,60.90152528038905,
block,scrambled,scrambled068.bmp,,,,,0,172,172,172,,,,,,,,,,,,,,,,,,,,,,,,,,,,,,,,,,,,None,,598.947801980062,None,598.947801980062,None,2021-07-29-12:49:50.448753,598.9506641000044,599.2706861000042,598.9506641000044,598.9506641000044,None,598.9506641000044,598.9506641000044,599.7638746800251,None,,,,12003,0001,2021_Jul_29_1239,localizer,2021.1.3,60.90152528038905,
block,scrambled,scrambled015.bmp,,,,,0,173,173,173,,,,,,,,,,,,,,,,,,,,,,,,,,,,,,,,,,,,None,,599.7638746800251,None,599.7638746800251,None,2021-07-29-12:49:51.262797,599.765350200003,600.081055500079,599.765350200003,None,None,599.765350200003,None,600.5646456800052,None,,,,12003,0001,2021_Jul_29_1239,localizer,2021.1.3,60.90152528038905,
block,scrambled,scrambled053.bmp,,,,,0,174,174,174,,,,,,,,,,,,,,,,,,,,,,,,,,,,,,,,,,,,None,,600.5646456800052,None,600.5646456800052,None,2021-07-29-12:49:52.066380,600.5675684000598,600.8814473000821,600.5675684000598,600.5675684000598,None,600.5675684000598,600.5675684000598,601.3809893800528,None,,,,12003,0001,2021_Jul_29_1239,localizer,2021.1.3,60.90152528038905,
block,scrambled,scrambled013.bmp,,,,,0,175,175,175,,,,,,,,,,,,,,,,,,,,,,,,,,,,,,,,,,,,None,,601.3809893800528,None,601.3809893800528,None,2021-07-29-12:49:52.879776,601.3820150999818,601.6810845000437,601.3820150999818,None,None,601.3820150999818,None,602.1822539800662,None,,,,12003,0001,2021_Jul_29_1239,localizer,2021.1.3,60.90152528038905,
block,scrambled,scrambled078.bmp,,,,,0,176,176,176,,,,,,,,,,,,,,,,,,,,,,,,,,,,,,,,,,,,None,,602.1822539800662,None,602.1822539800662,None,2021-07-29-12:49:53.685118,602.1886151999934,602.4976072000572,602.1886151999934,602.1886151999934,None,602.1886151999934,602.1886151999934,602.997694279987,None,,,,12003,0001,2021_Jul_29_1239,localizer,2021.1.3,60.90152528038905,
block,scrambled,scrambled073.bmp,,,,,0,177,177,177,,,,,,,,,,,,,,,,,,,,,,,,,,,,,,,,,,,,None,,602.997694279987,None,602.997694279987,None,2021-07-29-12:49:54.496513,602.9987068000482,603.3143388000317,602.9987068000482,None,None,602.9987068000482,None,603.7982296800358,None,,,,12003,0001,2021_Jul_29_1239,localizer,2021.1.3,60.90152528038905,
block,scrambled,scrambled071.bmp,,,,,0,178,178,178,,,,,,,,,,,,,,,,,,,,,,,,,,,,,,,,,,,,None,,603.7982296800358,None,603.7982296800358,None,2021-07-29-12:49:55.300063,603.8012434000848,604.1148688000394,603.8012434000848,603.8012434000848,None,603.8012434000848,603.8012434000848,604.6148549800157,None,,,,12003,0001,2021_Jul_29_1239,localizer,2021.1.3,60.90152528038905,
block,scrambled,scrambled051.bmp,,,,,0,179,179,179,,,,,,,,,,,,,,,,,,,,,,,,,,,,,,,,,,,,None,,604.6148549800157,None,604.6148549800157,None,2021-07-29-12:49:56.115775,604.6168237000238,604.9315392000135,604.6168237000238,None,None,604.6168237000238,None,605.4316039800062,None,,,,12003,0001,2021_Jul_29_1239,localizer,2021.1.3,60.90152528038905,
block,scrambled,scrambled047.bmp,,,,,0,180,180,180,,,,,,,,,,,,,,,,,,,,,,,,,,,,,,,,,,,,None,,605.4316039800062,None,605.4316039800062,None,2021-07-29-12:49:56.931664,605.4321015999885,605.7311622999841,605.4321015999885,None,None,605.4321015999885,None,606.2374887800427,None,,,,12003,0001,2021_Jul_29_1239,localizer,2021.1.3,60.90152528038905,
block,scrambled,scrambled049.bmp,,,,,0,181,181,181,,,,,,,,,,,,,,,,,,,,,,,,,,,,,,,,,,,,None,,606.2374887800427,None,606.2374887800427,None,2021-07-29-12:49:57.744140,606.2442616000772,606.5474315000465,606.2442616000772,None,None,606.2442616000772,None,607.0477741800598,None,,,,12003,0001,2021_Jul_29_1239,localizer,2021.1.3,60.90152528038905,
block_end,scrambled,scrambled061.bmp,,,,,0,182,182,182,,,,,,,,,,,,,,,,,,,,,,,,,,,,,,,,,,,,None,,607.0477741800598,None,607.0477741800598,None,2021-07-29-12:49:58.546689,607.0487663000822,607.3639201000333,607.0487663000822,None,None,607.0487663000822,None,607.8641793799936,None,,,,12003,0001,2021_Jul_29_1239,localizer,2021.1.3,60.90152528038905,
block_start,objects,objects054.bmp,,,,,0,183,183,183,,,,,,,,,,,,,,,,,,,,,,,,,,,,,,,,,,,,t,1.8332560000708327,607.864159299992,None,607.864159299992,None,2021-07-29-12:50:01.212348,609.7151656000642,610.014394100057,609.7151656000642,None,None,609.7151656000642,None,610.53098858007,None,,,,12003,0001,2021_Jul_29_1239,localizer,2021.1.3,60.90152528038905,
block,objects,objects048.bmp,,,,,0,184,184,184,,,,,,,,,,,,,,,,,,,,,,,,,,,,,,,,,,,,None,,610.53098858007,None,610.53098858007,None,2021-07-29-12:50:02.029744,610.5318358000368,610.8340060000774,610.5318358000368,None,None,610.5318358000368,None,611.331685080065,None,,,,12003,0001,2021_Jul_29_1239,localizer,2021.1.3,60.90152528038905,
block,objects,objects023.bmp,,,,,0,185,185,185,,,,,,,,,,,,,,,,,,,,,,,,,,,,,,,,,,,,None,,611.331685080065,None,611.331685080065,None,2021-07-29-12:50:02.833838,611.3349135000026,611.649131800048,611.3349135000026,611.3349135000026,None,611.3349135000026,611.3349135000026,612.1475581800216,None,,,,12003,0001,2021_Jul_29_1239,localizer,2021.1.3,60.90152528038905,
block,objects,objects082.bmp,,,,,0,186,186,186,,,,,,,,,,,,,,,,,,,,,,,,,,,,,,,,,,,,None,,612.1475581800216,None,612.1475581800216,None,2021-07-29-12:50:03.646571,612.148616700084,612.4486090000719,612.148616700084,None,None,612.148616700084,None,612.9483245800832,None,,,,12003,0001,2021_Jul_29_1239,localizer,2021.1.3,60.90152528038905,
block,objects,objects024.bmp,,,,,0,187,187,187,,,,,,,,,,,,,,,,,,,,,,,,,,,,,,,,,,,,None,,612.9483245800832,None,612.9483245800832,None,2021-07-29-12:50:04.450313,612.9512743999949,613.2521254000021,612.9512743999949,612.9512743999949,None,612.9512743999949,612.9512743999949,613.7543224800495,None,,,,12003,0001,2021_Jul_29_1239,localizer,2021.1.3,60.90152528038905,
block,objects,objects063.bmp,,,,,0,188,188,188,,,,,,,,,,,,,,,,,,,,,,,,,,,,,,,,,,,,None,,613.7543224800495,None,613.7543224800495,None,2021-07-29-12:50:05.259397,613.7593166000443,614.0648049000883,613.7593166000443,613.7593166000443,None,613.7593166000443,613.7593166000443,614.5643905800418,None,,,,12003,0001,2021_Jul_29_1239,localizer,2021.1.3,60.90152528038905,
block,objects,objects074.bmp,,,,,0,189,189,189,,,,,,,,,,,,,,,,,,,,,,,,,,,,,,,,,,,,None,,614.5643905800418,None,614.5643905800418,None,2021-07-29-12:50:06.063455,614.5652209999971,614.8650881000794,614.5652209999971,None,None,614.5652209999971,None,615.3644380799844,None,,,,12003,0001,2021_Jul_29_1239,localizer,2021.1.3,60.90152528038905,
block,objects,objects084.bmp,,,,,0,190,190,190,,,,,,,,,,,,,,,,,,,,,,,,,,,,,,,,,,,,None,,615.3644380799844,None,615.3644380799844,None,2021-07-29-12:50:06.865704,615.3672750000842,615.6811459000455,615.3672750000842,615.3672750000842,None,615.3672750000842,615.3672750000842,616.1813060800662,None,,,,12003,0001,2021_Jul_29_1239,localizer,2021.1.3,60.90152528038905,
block,objects,objects067.bmp,,,,,0,191,191,191,,,,,,,,,,,,,,,,,,,,,,,,,,,,,,,,,,,,None,,616.1813060800662,None,616.1813060800662,None,2021-07-29-12:50:07.680399,616.1818868999835,616.4817585999845,616.1818868999835,None,None,616.1818868999835,None,616.9818716799957,None,,,,12003,0001,2021_Jul_29_1239,localizer,2021.1.3,60.90152528038905,
block,objects,objects008.bmp,,,,,0,192,192,192,,,,,,,,,,,,,,,,,,,,,,,,,,,,,,,,,,,,None,,616.9818716799957,None,616.9818716799957,None,2021-07-29-12:50:08.483961,616.9848794999998,617.2984676000196,616.9848794999998,616.9848794999998,None,616.9848794999998,616.9848794999998,617.797448680026,None,,,,12003,0001,2021_Jul_29_1239,localizer,2021.1.3,60.90152528038905,
block,objects,objects034.bmp,,,,,0,193,193,193,,,,,,,,,,,,,,,,,,,,,,,,,,,,,,,,,,,,None,,617.797448680026,None,617.797448680026,None,2021-07-29-12:50:09.296616,617.7988000999903,618.1143193000462,617.7988000999903,None,None,617.7988000999903,None,618.5979906800087,None,,,,12003,0001,2021_Jul_29_1239,localizer,2021.1.3,60.90152528038905,
block,objects,objects002.bmp,,,,,0,194,194,194,,,,,,,,,,,,,,,,,,,,,,,,,,,,,,,,,,,,None,,618.5979906800087,None,618.5979906800087,None,2021-07-29-12:50:10.099350,618.6008892999962,618.9151081000455,618.6008892999962,618.6008892999962,None,618.6008892999962,618.6008892999962,619.4151030800888,None,,,,12003,0001,2021_Jul_29_1239,localizer,2021.1.3,60.90152528038905,
block,objects,objects002.bmp,,,,,0,195,195,195,,,,,,,,,,,,,,,,,,,,,,,,,,,,,,,,,,,,None,,619.4151030800888,None,619.4151030800888,None,2021-07-29-12:50:10.914228,619.4165691999951,619.7308404999785,619.4165691999951,None,None,619.4165691999951,None,620.2309864800075,None,,,,12003,0001,2021_Jul_29_1239,localizer,2021.1.3,60.90152528038905,
block,objects,objects032.bmp,,,,,0,196,196,196,,,,,,,,,,,,,,,,,,,,,,,,,,,,,,,,,,,,None,,620.2309864800075,None,620.2309864800075,None,2021-07-29-12:50:11.730167,620.2322495999979,620.532008200069,620.2322495999979,None,y,620.2322495999979,None,621.0316460800707,None,0.12243689992465079,,,12003,0001,2021_Jul_29_1239,localizer,2021.1.3,60.90152528038905,
block_end,objects,objects004.bmp,,,,,0,197,197,197,,,,,,,,,,,,,,,,,,,,,,,,,,,,,,,,,,,,None,,621.0316460800707,None,621.0316460800707,None,2021-07-29-12:50:12.533875,621.034410100081,621.347980300081,621.034410100081,621.034410100081,None,621.034410100081,621.034410100081,621.8490709800856,None,,,,12003,0001,2021_Jul_29_1239,localizer,2021.1.3,60.90152528038905,
block_start,scenes,scenes092.bmp,,,,,0,198,198,198,,,,,,,,,,,,,,,,,,,,,,,,,,,,,,,,,,,,t,1.8478224999271333,621.849638100015,None,621.849638100015,None,2021-07-29-12:50:15.213641,623.7152700000443,624.0151284000603,623.7152700000443,None,None,623.7152700000443,None,624.5151937800576,None,,,,12003,0001,2021_Jul_29_1239,localizer,2021.1.3,60.90152528038905,
block,scenes,scenes036.bmp,,,,,0,199,199,199,,,,,,,,,,,,,,,,,,,,,,,,,,,,,,,,,,,,None,,624.5151937800576,None,624.5151937800576,None,2021-07-29-12:50:16.018485,624.5190739000682,624.8310465000104,624.5190739000682,624.5190739000682,None,624.5190739000682,624.5190739000682,625.3316513800412,None,,,,12003,0001,2021_Jul_29_1239,localizer,2021.1.3,60.90152528038905,
block,scenes,scenes075.bmp,,,,,0,200,200,200,,,,,,,,,,,,,,,,,,,,,,,,,,,,,,,,,,,,None,,625.3316513800412,None,625.3316513800412,None,2021-07-29-12:50:16.830886,625.3322161000688,625.6479579000734,625.3322161000688,None,None,625.3322161000688,None,626.1314755800297,None,,,,12003,0001,2021_Jul_29_1239,localizer,2021.1.3,60.90152528038905,
block,scenes,scenes018.bmp,,,,,0,201,201,201,,,,,,,,,,,,,,,,,,,,,,,,,,,,,,,,,,,,None,,626.1314755800297,None,626.1314755800297,None,2021-07-29-12:50:17.633961,626.1343848999823,626.4480800000019,626.1343848999823,626.1343848999823,None,626.1343848999823,626.1343848999823,626.9480543800048,None,,,,12003,0001,2021_Jul_29_1239,localizer,2021.1.3,60.90152528038905,
block,scenes,scenes060.bmp,,,,,0,202,202,202,,,,,,,,,,,,,,,,,,,,,,,,,,,,,,,,,,,,None,,626.9480543800048,None,626.9480543800048,None,2021-07-29-12:50:18.447368,626.9489014000865,627.2482362000737,626.9489014000865,None,None,626.9489014000865,None,627.7542397800019,None,,,,12003,0001,2021_Jul_29_1239,localizer,2021.1.3,60.90152528038905,
block,scenes,scenes037.bmp,,,,,0,203,203,203,,,,,,,,,,,,,,,,,,,,,,,,,,,,,,,,,,,,None,,627.7542397800019,None,627.7542397800019,None,2021-07-29-12:50:19.256561,627.7576836000662,628.0650287000462,627.7576836000662,None,None,627.7576836000662,None,628.5642983800383,None,,,,12003,0001,2021_Jul_29_1239,localizer,2021.1.3,60.90152528038905,
block,scenes,scenes005.bmp,,,,,0,204,204,204,,,,,,,,,,,,,,,,,,,,,,,,,,,,,,,,,,,,None,,628.5642983800383,None,628.5642983800383,None,2021-07-29-12:50:20.063828,628.5654481999809,628.8650966000278,628.5654481999809,None,None,628.5654481999809,None,629.3649017800228,None,,,,12003,0001,2021_Jul_29_1239,localizer,2021.1.3,60.90152528038905,
block,scenes,scenes069.bmp,,,,,0,205,205,205,,,,,,,,,,,,,,,,,,,,,,,,,,,,,,,,,,,,None,,629.3649017800228,None,629.3649017800228,None,2021-07-29-12:50:20.866331,629.3677528999979,629.6815497000935,629.3677528999979,629.3677528999979,None,629.3677528999979,629.3677528999979,630.1667764800252,None,,,,12003,0001,2021_Jul_29_1239,localizer,2021.1.3,60.90152528038905,
block,scenes,scenes061.bmp,,,,,0,206,206,206,,,,,,,,,,,,,,,,,,,,,,,,,,,,,,,,,,,,None,,630.1667764800252,None,630.1667764800252,None,2021-07-29-12:50:21.672179,630.1744356000563,630.4811555000488,630.1744356000563,630.1744356000563,None,630.1744356000563,630.1744356000563,630.9814270799864,None,,,,12003,0001,2021_Jul_29_1239,localizer,2021.1.3,60.90152528038905,
block,scenes,scenes035.bmp,,,,,0,207,207,207,,,,,,,,,,,,,,,,,,,,,,,,,,,,,,,,,,,,None,,630.9814270799864,None,630.9814270799864,None,2021-07-29-12:50:22.480929,630.9823272000067,631.2980280000484,630.9823272000067,None,None,630.9823272000067,None,631.7820180799929,None,,,,12003,0001,2021_Jul_29_1239,localizer,2021.1.3,60.90152528038905,
block,scenes,scenes074.bmp,,,,,0,208,208,208,,,,,,,,,,,,,,,,,,,,,,,,,,,,,,,,,,,,None,,631.7820180799929,None,631.7820180799929,None,2021-07-29-12:50:23.284519,631.7851266000653,632.098579499987,631.7851266000653,631.7851266000653,None,631.7851266000653,631.7851266000653,632.597984880081,None,,,,12003,0001,2021_Jul_29_1239,localizer,2021.1.3,60.90152528038905,
block,scenes,scenes010.bmp,,,,,0,209,209,209,,,,,,,,,,,,,,,,,,,,,,,,,,,,,,,,,,,,None,,632.597984880081,None,632.597984880081,None,2021-07-29-12:50:24.097415,632.5988735000137,632.8980527999811,632.5988735000137,None,None,632.5988735000137,None,633.4002988800523,None,,,,12003,0001,2021_Jul_29_1239,localizer,2021.1.3,60.90152528038905,
block,scenes,scenes039.bmp,,,,,0,210,210,210,,,,,,,,,,,,,,,,,,,,,,,,,,,,,,,,,,,,None,,633.4002988800523,None,633.4002988800523,None,2021-07-29-12:50:24.906699,633.4077362000244,633.714295700076,633.4077362000244,633.4077362000244,None,633.4077362000244,633.4077362000244,634.2148738800199,None,,,,12003,0001,2021_Jul_29_1239,localizer,2021.1.3,60.90152528038905,
block,scenes,scenes003.bmp,,,,,0,211,211,211,,,,,,,,,,,,,,,,,,,,,,,,,,,,,,,,,,,,None,,634.2148738800199,None,634.2148738800199,None,2021-07-29-12:50:25.713504,634.2156215000432,634.5306960000889,634.2156215000432,None,None,634.2156215000432,None,635.0149384799763,None,,,,12003,0001,2021_Jul_29_1239,localizer,2021.1.3,60.90152528038905,
block_end,scenes,scenes001.bmp,,,,,0,212,212,212,,,,,,,,,,,,,,,,,,,,,,,,,,,,,,,,,,,,None,,635.0149384799763,None,635.0149384799763,None,2021-07-29-12:50:26.516443,635.0178419000003,635.331271699979,635.0178419000003,635.0178419000003,None,635.0178419000003,635.0178419000003,635.8176393799833,None,,,,12003,0001,2021_Jul_29_1239,localizer,2021.1.3,60.90152528038905,
block_start,scrambled,scrambled041.bmp,,,,,0,213,213,213,,,,,,,,,,,,,,,,,,,,,,,,,,,,,,,,,,,,t,1.8816001999657601,635.8158651000122,None,635.8158651000122,None,2021-07-29-12:50:29.214414,637.7161200999981,638.0315949000651,637.7161200999981,None,None,637.7161200999981,None,638.5158142800094,None,,,,12003,0001,2021_Jul_29_1239,localizer,2021.1.3,60.90152528038905,
block,scrambled,scrambled077.bmp,,,,,0,214,214,214,,,,,,,,,,,,,,,,,,,,,,,,,,,,,,,,,,,,None,,638.5158142800094,None,638.5158142800094,None,2021-07-29-12:50:30.021480,638.5224452000111,638.8314655000577,638.5224452000111,638.5224452000111,None,638.5224452000111,638.5224452000111,639.3313508800813,None,,,,12003,0001,2021_Jul_29_1239,localizer,2021.1.3,60.90152528038905,
block,scrambled,scrambled074.bmp,,,,,0,215,215,215,,,,,,,,,,,,,,,,,,,,,,,,,,,,,,,,,,,,None,,639.3313508800813,None,639.3313508800813,None,2021-07-29-12:50:30.831011,639.3322766000638,639.6478105999995,639.3322766000638,None,None,639.3322766000638,None,640.1312767800293,None,,,,12003,0001,2021_Jul_29_1239,localizer,2021.1.3,60.90152528038905,
block,scrambled,scrambled006.bmp,,,,,0,216,216,216,,,,,,,,,,,,,,,,,,,,,,,,,,,,,,,,,,,,None,,640.1312767800293,None,640.1312767800293,None,2021-07-29-12:50:31.633042,640.1326910000062,640.4479101999896,640.1326910000062,640.1326910000062,None,640.1326910000062,640.1326910000062,640.932339380018,None,,,,12003,0001,2021_Jul_29_1239,localizer,2021.1.3,60.90152528038905,
block,scrambled,scrambled060.bmp,,,,,0,217,217,217,,,,,,,,,,,,,,,,,,,,,,,,,,,,,,,,,,,,None,,640.932339380018,None,640.932339380018,None,2021-07-29-12:50:32.435920,640.936400800012,641.2475723000243,640.936400800012,640.936400800012,None,640.936400800012,640.936400800012,641.7483038800885,None,,,,12003,0001,2021_Jul_29_1239,localizer,2021.1.3,60.90152528038905,
block,scrambled,scrambled045.bmp,,,,,0,218,218,218,,,,,,,,,,,,,,,,,,,,,,,,,,,,,,,,,,,,None,,641.7483038800885,None,641.7483038800885,None,2021-07-29-12:50:33.248113,641.7491126999957,642.048450000002,641.7491126999957,None,None,641.7491126999957,None,642.5482876800118,None,,,,12003,0001,2021_Jul_29_1239,localizer,2021.1.3,60.90152528038905,
block,scrambled,scrambled067.bmp,,,,,0,219,219,219,,,,,,,,,,,,,,,,,,,,,,,,,,,,,,,,,,,,None,,642.5482876800118,None,642.5482876800118,None,2021-07-29-12:50:34.050910,642.5510359000182,642.8649620000506,642.5510359000182,642.5510359000182,None,642.5510359000182,642.5510359000182,643.3648152800627,None,,,,12003,0001,2021_Jul_29_1239,localizer,2021.1.3,60.90152528038905,
block,scrambled,scrambled015.bmp,,,,,0,220,220,220,,,,,,,,,,,,,,,,,,,,,,,,,,,,,,,,,,,,None,,643.3648152800627,None,643.3648152800627,None,2021-07-29-12:50:34.864508,643.3656338000437,643.6648430000059,643.3656338000437,None,None,643.3656338000437,None,644.1813179800404,None,,,,12003,0001,2021_Jul_29_1239,localizer,2021.1.3,60.90152528038905,
block,scrambled,scrambled085.bmp,,,,,0,221,221,221,,,,,,,,,,,,,,,,,,,,,,,,,,,,,,,,,,,,None,,644.1813179800404,None,644.1813179800404,None,2021-07-29-12:50:35.681059,644.182322000037,644.481457100017,644.182322000037,None,None,644.182322000037,None,644.9814133799985,None,,,,12003,0001,2021_Jul_29_1239,localizer,2021.1.3,60.90152528038905,
block,scrambled,scrambled016.bmp,,,,,0,222,222,222,,,,,,,,,,,,,,,,,,,,,,,,,,,,,,,,,,,,None,,644.9814133799985,None,644.9814133799985,None,2021-07-29-12:50:36.482574,644.9836668000789,645.2828265000135,644.9836668000789,644.9836668000789,None,644.9836668000789,644.9836668000789,645.7839467800106,None,,,,12003,0001,2021_Jul_29_1239,localizer,2021.1.3,60.90152528038905,
block,scrambled,scrambled054.bmp,,,,,0,223,223,223,,,,,,,,,,,,,,,,,,,,,,,,,,,,,,,,,,,,None,,645.7839467800106,None,645.7839467800106,None,2021-07-29-12:50:37.288951,645.7894610000076,646.0982330000261,645.7894610000076,645.7894610000076,None,645.7894610000076,645.7894610000076,646.5983229799779,None,,,,12003,0001,2021_Jul_29_1239,localizer,2021.1.3,60.90152528038905,
block,scrambled,scrambled082.bmp,,,,,0,224,224,224,,,,,,,,,,,,,,,,,,,,,,,,,,,,,,,,,,,,None,,646.5983229799779,None,646.5983229799779,None,2021-07-29-12:50:38.098053,646.5990949000698,646.9148110999959,646.5990949000698,None,None,646.5990949000698,None,647.3982070800732,None,,,,12003,0001,2021_Jul_29_1239,localizer,2021.1.3,60.90152528038905,
block,scrambled,scrambled010.bmp,,,,,0,225,225,225,,,,,,,,,,,,,,,,,,,,,,,,,,,,,,,,,,,,None,,647.3982070800732,None,647.3982070800732,None,2021-07-29-12:50:38.899938,647.4010454000672,647.7183528000023,647.4010454000672,647.4010454000672,None,647.4010454000672,647.4010454000672,648.2147450800869,None,,,,12003,0001,2021_Jul_29_1239,localizer,2021.1.3,60.90152528038905,
block,scrambled,scrambled076.bmp,,,,,0,226,226,226,,,,,,,,,,,,,,,,,,,,,,,,,,,,,,,,,,,,None,,648.2147450800869,None,648.2147450800869,None,2021-07-29-12:50:39.721566,648.2256816000445,648.5313973000739,648.2256816000445,None,None,648.2256816000445,None,649.0315106800874,None,,,,12003,0001,2021_Jul_29_1239,localizer,2021.1.3,60.90152528038905,
block_end,scrambled,scrambled014.bmp,,,,,0,227,227,227,,,,,,,,,,,,,,,,,,,,,,,,,,,,,,,,,,,,None,,649.0315106800874,None,649.0315106800874,None,2021-07-29-12:50:40.531976,649.0323773000855,649.3479690999957,649.0323773000855,None,None,649.0323773000855,None,649.847607580002,None,,,,12003,0001,2021_Jul_29_1239,localizer,2021.1.3,60.90152528038905,
null_block,null_block,null_block.bmp,,,,,0,228,228,228,,,,,,,,,,,,,,,,,,,,,,,,,,,,,,,,,,,,t,1.8494601000566036,649.847936199978,None,649.847936199978,None,2021-07-29-12:50:43.213998,651.7149816800259,None,651.7149816800259,None,None,651.7149816800259,None,651.7241104000714,None,,,,12003,0001,2021_Jul_29_1239,localizer,2021.1.3,60.90152528038905,
block_start,faces,faces034.bmp,,,,,0,229,229,229,,,,,,,,,,,,,,,,,,,,,,,,,,,,,,,,,,,,t,1.9594624999444932,663.7377341000829,None,663.7377341000829,None,2021-07-29-12:50:57.215391,665.7157320000697,666.031435700017,665.7157320000697,None,None,665.7157320000697,None,666.5313850800624,None,,,,12003,0001,2021_Jul_29_1239,localizer,2021.1.3,60.90152528038905,
block,faces,faces069.bmp,,,,,0,230,230,230,,,,,,,,,,,,,,,,,,,,,,,,,,,,,,,,,,,,None,,666.5313850800624,None,666.5313850800624,None,2021-07-29-12:50:58.031756,666.532287399983,666.8314532000804,666.532287399983,None,None,666.532287399983,None,667.3314744800912,None,,,,12003,0001,2021_Jul_29_1239,localizer,2021.1.3,60.90152528038905,
block,faces,faces018.bmp,,,,,0,231,231,231,,,,,,,,,,,,,,,,,,,,,,,,,,,,,,,,,,,,None,,667.3314744800912,None,667.3314744800912,None,2021-07-29-12:50:58.832620,667.3323633000255,667.6480790000642,667.3323633000255,667.3323633000255,None,667.3323633000255,667.3323633000255,668.1315160799888,None,,,,12003,0001,2021_Jul_29_1239,localizer,2021.1.3,60.90152528038905,
block,faces,faces027.bmp,,,,,0,232,232,232,,,,,,,,,,,,,,,,,,,,,,,,,,,,,,,,,,,,None,,668.1315160799888,None,668.1315160799888,None,2021-07-29-12:50:59.633184,668.1338610000676,668.44810160005,668.1338610000676,668.1338610000676,None,668.1338610000676,668.1338610000676,668.9480391800055,None,,,,12003,0001,2021_Jul_29_1239,localizer,2021.1.3,60.90152528038905,
block,faces,faces002.bmp,,,,,0,233,233,233,,,,,,,,,,,,,,,,,,,,,,,,,,,,,,,,,,,,None,,668.9480391800055,None,668.9480391800055,None,2021-07-29-12:51:00.448237,668.9490328000393,669.2646752999863,668.9490328000393,None,None,668.9490328000393,None,669.7480385800475,None,,,,12003,0001,2021_Jul_29_1239,localizer,2021.1.3,60.90152528038905,
block,faces,faces086.bmp,,,,,0,234,234,234,,,,,,,,,,,,,,,,,,,,,,,,,,,,,,,,,,,,None,,669.7480385800475,None,669.7480385800475,None,2021-07-29-12:51:01.250231,669.7494161000941,670.0647190000163,669.7494161000941,669.7494161000941,None,669.7494161000941,669.7494161000941,670.5650277800044,None,,,,12003,0001,2021_Jul_29_1239,localizer,2021.1.3,60.90152528038905,
block,faces,faces047.bmp,,,,,0,235,235,235,,,,,,,,,,,,,,,,,,,,,,,,,,,,,,,,,,,,None,,670.5650277800044,None,670.5650277800044,None,2021-07-29-12:51:02.065470,670.5664506000467,670.8810816000914,670.5664506000467,None,None,670.5664506000467,None,671.3814186800621,None,,,,12003,0001,2021_Jul_29_1239,localizer,2021.1.3,60.90152528038905,
block,faces,faces053.bmp,,,,,0,236,236,236,,,,,,,,,,,,,,,,,,,,,,,,,,,,,,,,,,,,None,,671.3814186800621,None,671.3814186800621,None,2021-07-29-12:51:02.881652,671.382356200018,671.697785400087,671.382356200018,None,None,671.382356200018,None,672.1816285800771,None,,,,12003,0001,2021_Jul_29_1239,localizer,2021.1.3,60.90152528038905,
block,faces,faces082.bmp,,,,,0,237,237,237,,,,,,,,,,,,,,,,,,,,,,,,,,,,,,,,,,,,None,,672.1816285800771,None,672.1816285800771,None,2021-07-29-12:51:03.684306,672.184271999984,672.4980936000356,672.184271999984,672.184271999984,None,672.184271999984,672.184271999984,672.9979289800278,None,,,,12003,0001,2021_Jul_29_1239,localizer,2021.1.3,60.90152528038905,
block,faces,faces065.bmp,,,,,0,238,238,238,,,,,,,,,,,,,,,,,,,,,,,,,,,,,,,,,,,,None,,672.9979289800278,None,672.9979289800278,None,2021-07-29-12:51:04.498197,672.9989653000375,673.2987774000503,672.9989653000375,None,None,672.9989653000375,None,673.7987752799993,None,,,,12003,0001,2021_Jul_29_1239,localizer,2021.1.3,60.90152528038905,
block,faces,faces025.bmp,,,,,0,239,239,239,,,,,,,,,,,,,,,,,,,,,,,,,,,,,,,,,,,,None,,673.7987752799993,None,673.7987752799993,None,2021-07-29-12:51:05.302236,673.8019770000828,674.1148602000903,673.8019770000828,673.8019770000828,None,673.8019770000828,673.8019770000828,674.6149263799773,None,,,,12003,0001,2021_Jul_29_1239,localizer,2021.1.3,60.90152528038905,
block,faces,faces026.bmp,,,,,0,240,240,240,,,,,,,,,,,,,,,,,,,,,,,,,,,,,,,,,,,,None,,674.6149263799773,None,674.6149263799773,None,2021-07-29-12:51:06.115607,674.6158211000729,674.9148988000816,674.6158211000729,None,None,674.6158211000729,None,675.4176677800599,None,,,,12003,0001,2021_Jul_29_1239,localizer,2021.1.3,60.90152528038905,
block,faces,faces033.bmp,,,,,0,241,241,241,,,,,,,,,,,,,,,,,,,,,,,,,,,,,,,,,,,,None,,675.4176677800599,None,675.4176677800599,None,2021-07-29-12:51:06.922726,675.4216326000169,675.7314328000648,675.4216326000169,675.4216326000169,None,675.4216326000169,675.4216326000169,676.2317379800254,None,,,,12003,0001,2021_Jul_29_1239,localizer,2021.1.3,60.90152528038905,
block,faces,faces074.bmp,,,,,0,242,242,242,,,,,,,,,,,,,,,,,,,,,,,,,,,,,,,,,,,,None,,676.2317379800254,None,676.2317379800254,None,2021-07-29-12:51:07.732176,676.2327087000012,676.5482912000734,676.2327087000012,None,None,676.2327087000012,None,677.048348080006,None,,,,12003,0001,2021_Jul_29_1239,localizer,2021.1.3,60.90152528038905,
block_end,faces,faces013.bmp,,,,,0,243,243,243,,,,,,,,,,,,,,,,,,,,,,,,,,,,,,,,,,,,None,,677.048348080006,None,677.048348080006,None,2021-07-29-12:51:08.548887,677.0492467000149,677.3483257000335,677.0492467000149,None,None,677.0492467000149,None,677.8485284800292,None,,,,12003,0001,2021_Jul_29_1239,localizer,2021.1.3,60.90152528038905,
,,,,,,,,,,,,,,,,,,,,,,,,,,,,,,,,,,,,,,,,,,,,,,,,,,,,,,,,,,,,,,,677.8483846000163,None,,,,,,,
