block_type,condition,img_name,Button.thisRepN,Button.thisTrialN,Button.thisN,Button.thisIndex,trials.thisRepN,trials.thisTrialN,trials.thisN,trials.thisIndex,Ready_experimenter_text.started,Ready_experimenter_text.stopped,Ready_experimenter_resp.keys,Ready_experimenter_resp.rt,Ready_experimenter_resp.started,Ready_experimenter_resp.stopped,Alignment_background.started,Alignment_background.stopped,Alignment_image.started,Alignment_image.stopped,Alignment_resp.keys,Alignment_resp.rt,Alignment_resp.started,Alignment_resp.stopped,Button_text.started,Button_text.stopped,Index_text.started,Index_text.stopped,Index_resp.keys,Index_resp.rt,Index_resp.started,Index_resp.stopped,Middle_text.started,Middle_text.stopped,Middle_resp.keys,Middle_resp.rt,Middle_resp.started,Middle_resp.stopped,Repeat_text.started,Repeat_text.stopped,Repeat_resp.keys,Repeat_resp.corr,Repeat_resp.rt,Repeat_resp.started,Repeat_resp.stopped,instruction_text.started,instruction_text.stopped,key_resp.keys,key_resp.rt,key_resp.started,key_resp.stopped,scanner_t.keys,scanner_t.rt,scanner_t.started,scanner_t.stopped,fixation_wait_for_t.started,fixation_wait_for_t.stopped,real_timestamp_trial_start,image.started,image.stopped,fixation.started,fixation.stopped,repeat_response.keys,repeat_response.started,repeat_response.stopped,fixation_null.started,fixation_null.stopped,repeat_response.rt,end_text.started,end_text.stopped,participant,run,date,expName,psychopyVersion,frameRate,
,,,,,,,,,,,25.81950649999999,None,return,119.4668542999998,25.81950649999999,None,,,,,,,,,,,,,,,,,,,,,,,,,,,,,,,,,,,,,,,,,,,,,,,,,,,,,,,22003,0002,2022_Jan_21_1132,localizer,2021.1.3,60.35662314351249,
,,,,,,,,,,,,,,,,,145.34029050000026,None,145.34029050000026,None,return,0.8986758999999438,145.34029050000026,None,,,,,,,,,,,,,,,,,,,,,,,,,,,,,,,,,,,,,,,,,,,,,,,22003,0002,2022_Jan_21_1132,localizer,2021.1.3,60.35662314351249,
,,,0,0,0,0,,,,,,,,,,,,,,,,,,,146.2519355000004,None,147.26769760000025,None,y,1.4906606000004103,147.26769760000025,None,148.78487230000064,None,b,4.786369500000546,148.78487230000064,None,153.60164930000064,None,n,0,1.5896066000004794,153.60164930000064,None,,,,,,,,,,,,,,,,,,,,,,,,,,22003,0002,2022_Jan_21_1132,localizer,2021.1.3,60.35662314351249,
,,,,,,,,,,,,,,,,,,,,,,,,,,,,,,,,,,,,,,,,,,,,,,155.21836170000006,None,y,6.3339852999997674,155.21836170000006,None,,,,,,,,,,,,,,,,,,,,22003,0002,2022_Jan_21_1132,localizer,2021.1.3,60.35662314351249,
null_block,null_block,null_block.bmp,,,,,0,0,0,0,,,,,,,,,,,,,,,,,,,,,,,,,,,,,,,,,,,,,,,,,,t,15.314796700000443,161.59450990000005,None,161.59450990000005,None,2022-01-21-11:34:44.367553,176.9348354999999,None,176.9348354999999,None,None,176.9348354999999,None,176.94049220000034,None,,,,22003,0002,2022_Jan_21_1132,localizer,2021.1.3,60.35662314351249,
block_start,scenes,scenes022.bmp,,,,,0,1,1,1,,,,,,,,,,,,,,,,,,,,,,,,,,,,,,,,,,,,,,,,,,t,1.957482899999377,188.95173780000005,None,188.95173780000005,None,2022-01-21-11:34:58.371456,190.9492393999999,191.2515686000006,190.9492393999999,None,None,190.9492393999999,None,191.75205950000026,None,,,,22003,0002,2022_Jan_21_1132,localizer,2021.1.3,60.35662314351249,
block,scenes,scenes007.bmp,,,,,0,2,2,2,,,,,,,,,,,,,,,,,,,,,,,,,,,,,,,,,,,,,,,,,,None,,191.75205950000026,None,191.75205950000026,None,2022-01-21-11:34:59.185962,191.76808970000002,192.06825949999984,191.76808970000002,None,None,191.76808970000002,None,192.56849310000024,None,,,,22003,0002,2022_Jan_21_1132,localizer,2021.1.3,60.35662314351249,
block,scenes,scenes008.bmp,,,,,0,3,3,3,,,,,,,,,,,,,,,,,,,,,,,,,,,,,,,,,,,,,,,,,,None,,192.56849310000024,None,192.56849310000024,None,2022-01-21-11:35:00.001330,192.56957160000002,192.88506599999982,192.56957160000002,None,None,192.56957160000002,None,193.38500900000025,None,,,,22003,0002,2022_Jan_21_1132,localizer,2021.1.3,60.35662314351249,
block,scenes,scenes038.bmp,,,,,0,4,4,4,,,,,,,,,,,,,,,,,,,,,,,,,,,,,,,,,,,,,,,,,,None,,193.38500900000025,None,193.38500900000025,None,2022-01-21-11:35:00.818090,193.3860725000004,193.70147830000042,193.3860725000004,None,None,193.3860725000004,None,194.20168510000047,None,,,,22003,0002,2022_Jan_21_1132,localizer,2021.1.3,60.35662314351249,
block,scenes,scenes041.bmp,,,,,0,5,5,5,,,,,,,,,,,,,,,,,,,,,,,,,,,,,,,,,,,,,,,,,,None,,194.20168510000047,None,194.20168510000047,None,2022-01-21-11:35:01.634568,194.2079487000001,194.52477790000012,194.2079487000001,None,None,194.2079487000001,None,195.01792480000012,None,,,,22003,0002,2022_Jan_21_1132,localizer,2021.1.3,60.35662314351249,
block,scenes,scenes089.bmp,,,,,0,6,6,6,,,,,,,,,,,,,,,,,,,,,,,,,,,,,,,,,,,,,,,,,,None,,195.01792480000012,None,195.01792480000012,None,2022-01-21-11:35:02.450788,195.01956940000036,195.33491610000056,195.01956940000036,None,None,195.01956940000036,None,195.83492040000027,None,,,,22003,0002,2022_Jan_21_1132,localizer,2021.1.3,60.35662314351249,
block,scenes,scenes020.bmp,,,,,0,7,7,7,,,,,,,,,,,,,,,,,,,,,,,,,,,,,,,,,,,,,,,,,,None,,195.83492040000027,None,195.83492040000027,None,2022-01-21-11:35:03.267769,195.8360145000006,196.13480489999984,195.8360145000006,None,None,195.8360145000006,None,196.6513681000003,None,,,,22003,0002,2022_Jan_21_1132,localizer,2021.1.3,60.35662314351249,
block,scenes,scenes091.bmp,,,,,0,8,8,8,,,,,,,,,,,,,,,,,,,,,,,,,,,,,,,,,,,,,,,,,,None,,196.6513681000003,None,196.6513681000003,None,2022-01-21-11:35:04.084524,196.65277890000016,196.96834690000014,196.65277890000016,None,None,196.65277890000016,None,197.46830190000009,None,,,,22003,0002,2022_Jan_21_1132,localizer,2021.1.3,60.35662314351249,
block,scenes,scenes058.bmp,,,,,0,9,9,9,,,,,,,,,,,,,,,,,,,,,,,,,,,,,,,,,,,,,,,,,,None,,197.46830190000009,None,197.46830190000009,None,2022-01-21-11:35:04.901387,197.4782251000006,197.78513290000046,197.4782251000006,None,None,197.4782251000006,None,198.2847921999998,None,,,,22003,0002,2022_Jan_21_1132,localizer,2021.1.3,60.35662314351249,
block,scenes,scenes045.bmp,,,,,0,10,10,10,,,,,,,,,,,,,,,,,,,,,,,,,,,,,,,,,,,,,,,,,,None,,198.2847921999998,None,198.2847921999998,None,2022-01-21-11:35:05.717679,198.28987400000005,198.6019623000002,198.28987400000005,None,None,198.28987400000005,None,199.10178390000027,None,,,,22003,0002,2022_Jan_21_1132,localizer,2021.1.3,60.35662314351249,
block,scenes,scenes019.bmp,,,,,0,11,11,11,,,,,,,,,,,,,,,,,,,,,,,,,,,,,,,,,,,,,,,,,,None,,199.10178390000027,None,199.10178390000027,None,2022-01-21-11:35:06.534668,199.11162590000004,199.41843599999993,199.11162590000004,None,None,199.11162590000004,None,199.91813260000043,None,,,,22003,0002,2022_Jan_21_1132,localizer,2021.1.3,60.35662314351249,
block,scenes,scenes025.bmp,,,,,0,12,12,12,,,,,,,,,,,,,,,,,,,,,,,,,,,,,,,,,,,,,,,,,,None,,199.91813260000043,None,199.91813260000043,None,2022-01-21-11:35:07.351029,199.9336985,200.23535540000012,199.9336985,None,None,199.9336985,None,200.73478240000048,None,,,,22003,0002,2022_Jan_21_1132,localizer,2021.1.3,60.35662314351249,
block,scenes,scenes014.bmp,,,,,0,13,13,13,,,,,,,,,,,,,,,,,,,,,,,,,,,,,,,,,,,,,,,,,,None,,200.73478240000048,None,200.73478240000048,None,2022-01-21-11:35:08.167685,200.74423240000033,201.05156650000026,200.74423240000033,None,None,200.74423240000033,None,201.55174570000025,None,,,,22003,0002,2022_Jan_21_1132,localizer,2021.1.3,60.35662314351249,
block,scenes,scenes084.bmp,,,,,0,14,14,14,,,,,,,,,,,,,,,,,,,,,,,,,,,,,,,,,,,,,,,,,,None,,201.55174570000025,None,201.55174570000025,None,2022-01-21-11:35:08.984651,201.5614986999999,201.86866610000015,201.5614986999999,None,None,201.5614986999999,None,202.3682880000003,None,,,,22003,0002,2022_Jan_21_1132,localizer,2021.1.3,60.35662314351249,
block_end,scenes,scenes053.bmp,,,,,0,15,15,15,,,,,,,,,,,,,,,,,,,,,,,,,,,,,,,,,,,,,,,,,,None,,202.3682880000003,None,202.3682880000003,None,2022-01-21-11:35:09.801201,202.37456040000052,202.6847742,202.37456040000052,None,None,202.37456040000052,None,203.18503759999993,None,,,,22003,0002,2022_Jan_21_1132,localizer,2021.1.3,60.35662314351249,
block_start,objects,objects042.bmp,,,,,0,16,16,16,,,,,,,,,,,,,,,,,,,,,,,,,,,,,,,,,,,,,,,,,,t,1.7239734000004319,203.18526509999992,None,203.18526509999992,None,2022-01-21-11:35:12.367901,204.9359940000004,205.23552160000054,204.9359940000004,None,None,204.9359940000004,None,205.75145980000042,None,,,,22003,0002,2022_Jan_21_1132,localizer,2021.1.3,60.35662314351249,
block,objects,objects078.bmp,,,,,0,17,17,17,,,,,,,,,,,,,,,,,,,,,,,,,,,,,,,,,,,,,,,,,,None,,205.75145980000042,None,205.75145980000042,None,2022-01-21-11:35:13.184401,205.75998380000055,206.06820419999985,205.75998380000055,None,None,205.75998380000055,None,206.567976,None,,,,22003,0002,2022_Jan_21_1132,localizer,2021.1.3,60.35662314351249,
block,objects,objects029.bmp,,,,,0,18,18,18,,,,,,,,,,,,,,,,,,,,,,,,,,,,,,,,,,,,,,,,,,None,,206.567976,None,206.567976,None,2022-01-21-11:35:14.000830,206.56944830000066,206.88491010000052,206.56944830000066,None,None,206.56944830000066,None,207.36882810000014,None,,,,22003,0002,2022_Jan_21_1132,localizer,2021.1.3,60.35662314351249,
block,objects,objects039.bmp,,,,,0,19,19,19,,,,,,,,,,,,,,,,,,,,,,,,,,,,,,,,,,,,,,,,,,None,,207.36882810000014,None,207.36882810000014,None,2022-01-21-11:35:14.804974,207.37185670000054,207.68581780000022,207.37185670000054,207.37185670000054,None,207.37185670000054,207.37185670000054,208.18480510000035,None,,,,22003,0002,2022_Jan_21_1132,localizer,2021.1.3,60.35662314351249,
block,objects,objects072.bmp,,,,,0,20,20,20,,,,,,,,,,,,,,,,,,,,,,,,,,,,,,,,,,,,,,,,,,None,,208.18480510000035,None,208.18480510000035,None,2022-01-21-11:35:15.617046,208.19348600000012,208.50157240000044,208.19348600000012,None,None,208.19348600000012,None,209.0018553000006,None,,,,22003,0002,2022_Jan_21_1132,localizer,2021.1.3,60.35662314351249,
block,objects,objects082.bmp,,,,,0,21,21,21,,,,,,,,,,,,,,,,,,,,,,,,,,,,,,,,,,,,,,,,,,None,,209.0018553000006,None,209.0018553000006,None,2022-01-21-11:35:16.434815,209.0028130999999,209.31860419999975,209.0028130999999,None,None,209.0028130999999,None,209.8183837000003,None,,,,22003,0002,2022_Jan_21_1132,localizer,2021.1.3,60.35662314351249,
block,objects,objects077.bmp,,,,,0,22,22,22,,,,,,,,,,,,,,,,,,,,,,,,,,,,,,,,,,,,,,,,,,None,,209.8183837000003,None,209.8183837000003,None,2022-01-21-11:35:17.251478,209.82798430000003,210.1348678000004,209.82798430000003,None,None,209.82798430000003,None,210.637085,None,,,,22003,0002,2022_Jan_21_1132,localizer,2021.1.3,60.35662314351249,
block,objects,objects088.bmp,,,,,0,23,23,23,,,,,,,,,,,,,,,,,,,,,,,,,,,,,,,,,,,,,,,,,,None,,210.637085,None,210.637085,None,2022-01-21-11:35:18.073804,210.64248550000048,210.95244679999996,210.64248550000048,None,None,210.64248550000048,None,211.45221540000028,None,,,,22003,0002,2022_Jan_21_1132,localizer,2021.1.3,60.35662314351249,
block,objects,objects016.bmp,,,,,0,24,24,24,,,,,,,,,,,,,,,,,,,,,,,,,,,,,,,,,,,,,,,,,,None,,211.45221540000028,None,211.45221540000028,None,2022-01-21-11:35:18.886182,211.46314510000047,211.76866390000032,211.46314510000047,None,None,211.46314510000047,None,212.26848639999997,None,,,,22003,0002,2022_Jan_21_1132,localizer,2021.1.3,60.35662314351249,
block,objects,objects016.bmp,,,,,0,25,25,25,,,,,,,,,,,,,,,,,,,,,,,,,,,,,,,,,,,,,,,,,,None,,212.26848639999997,None,212.26848639999997,None,2022-01-21-11:35:19.701468,212.26937670000007,212.5851517000001,212.26937670000007,None,y,212.26937670000007,None,213.06954269999977,None,0.45661589999963326,,,22003,0002,2022_Jan_21_1132,localizer,2021.1.3,60.35662314351249,
block,objects,objects044.bmp,,,,,0,26,26,26,,,,,,,,,,,,,,,,,,,,,,,,,,,,,,,,,,,,,,,,,,None,,213.06954269999977,None,213.06954269999977,None,2022-01-21-11:35:20.504606,213.07968270000038,213.38489440000012,213.07968270000038,213.07968270000038,None,213.07968270000038,213.07968270000038,213.88494450000024,None,,,,22003,0002,2022_Jan_21_1132,localizer,2021.1.3,60.35662314351249,
block,objects,objects030.bmp,,,,,0,27,27,27,,,,,,,,,,,,,,,,,,,,,,,,,,,,,,,,,,,,,,,,,,None,,213.88494450000024,None,213.88494450000024,None,2022-01-21-11:35:21.317944,213.88603460000013,214.20180820000041,213.88603460000013,None,None,213.88603460000013,None,214.68513570000022,None,,,,22003,0002,2022_Jan_21_1132,localizer,2021.1.3,60.35662314351249,
block,objects,objects024.bmp,,,,,0,28,28,28,,,,,,,,,,,,,,,,,,,,,,,,,,,,,,,,,,,,,,,,,,None,,214.68513570000022,None,214.68513570000022,None,2022-01-21-11:35:22.120129,214.68646890000036,215.00160289999985,214.68646890000036,214.68646890000036,None,214.68646890000036,214.68646890000036,215.50161929999985,None,,,,22003,0002,2022_Jan_21_1132,localizer,2021.1.3,60.35662314351249,
block,objects,objects031.bmp,,,,,0,29,29,29,,,,,,,,,,,,,,,,,,,,,,,,,,,,,,,,,,,,,,,,,,None,,215.50161929999985,None,215.50161929999985,None,2022-01-21-11:35:22.933846,215.50974289999976,215.8184054000003,215.50974289999976,None,None,215.50974289999976,None,216.31846950000062,None,,,,22003,0002,2022_Jan_21_1132,localizer,2021.1.3,60.35662314351249,
block_end,objects,objects046.bmp,,,,,0,30,30,30,,,,,,,,,,,,,,,,,,,,,,,,,,,,,,,,,,,,,,,,,,None,,216.31846950000062,None,216.31846950000062,None,2022-01-21-11:35:23.751482,216.3247768000001,216.63550100000066,216.3247768000001,None,None,216.3247768000001,None,217.13633480000016,None,,,,22003,0002,2022_Jan_21_1132,localizer,2021.1.3,60.35662314351249,
block_start,faces,faces053.bmp,,,,,0,31,31,31,,,,,,,,,,,,,,,,,,,,,,,,,,,,,,,,,,,,,,,,,,t,1.7727816999995412,217.13640450000003,None,217.13640450000003,None,2022-01-21-11:35:26.369737,218.93676270000014,219.25192810000044,218.93676270000014,None,None,218.93676270000014,None,219.73923020000046,None,,,,22003,0002,2022_Jan_21_1132,localizer,2021.1.3,60.35662314351249,
block,faces,faces040.bmp,,,,,0,32,32,32,,,,,,,,,,,,,,,,,,,,,,,,,,,,,,,,,,,,,,,,,,None,,219.73923020000046,None,219.73923020000046,None,2022-01-21-11:35:27.176254,219.74358980000034,220.0518202000003,219.74358980000034,219.74358980000034,None,219.74358980000034,219.74358980000034,220.5518757000006,None,,,,22003,0002,2022_Jan_21_1132,localizer,2021.1.3,60.35662314351249,
block,faces,faces089.bmp,,,,,0,33,33,33,,,,,,,,,,,,,,,,,,,,,,,,,,,,,,,,,,,,,,,,,,None,,220.5518757000006,None,220.5518757000006,None,2022-01-21-11:35:27.985002,220.56308290000015,220.8687885999998,220.56308290000015,None,None,220.56308290000015,None,221.36882980000036,None,,,,22003,0002,2022_Jan_21_1132,localizer,2021.1.3,60.35662314351249,
block,faces,faces072.bmp,,,,,0,34,34,34,,,,,,,,,,,,,,,,,,,,,,,,,,,,,,,,,,,,,,,,,,None,,221.36882980000036,None,221.36882980000036,None,2022-01-21-11:35:28.802083,221.36970380000002,221.68557899999996,221.36970380000002,None,None,221.36970380000002,None,222.16927100000038,None,,,,22003,0002,2022_Jan_21_1132,localizer,2021.1.3,60.35662314351249,
block,faces,faces013.bmp,,,,,0,35,35,35,,,,,,,,,,,,,,,,,,,,,,,,,,,,,,,,,,,,,,,,,,None,,222.16927100000038,None,222.16927100000038,None,2022-01-21-11:35:29.605308,222.17270100000042,222.48530440000013,222.17270100000042,222.17270100000042,None,222.17270100000042,222.17270100000042,222.98499560000045,None,,,,22003,0002,2022_Jan_21_1132,localizer,2021.1.3,60.35662314351249,
block,faces,faces052.bmp,,,,,0,36,36,36,,,,,,,,,,,,,,,,,,,,,,,,,,,,,,,,,,,,,,,,,,None,,222.98499560000045,None,222.98499560000045,None,2022-01-21-11:35:30.418060,222.99538050000046,223.30173970000033,222.99538050000046,None,None,222.99538050000046,None,223.8016026000002,None,,,,22003,0002,2022_Jan_21_1132,localizer,2021.1.3,60.35662314351249,
block,faces,faces085.bmp,,,,,0,37,37,37,,,,,,,,,,,,,,,,,,,,,,,,,,,,,,,,,,,,,,,,,,None,,223.8016026000002,None,223.8016026000002,None,2022-01-21-11:35:31.234676,223.80284089999986,224.11844160000055,223.80284089999986,None,None,223.80284089999986,None,224.6183994,None,,,,22003,0002,2022_Jan_21_1132,localizer,2021.1.3,60.35662314351249,
block,faces,faces003.bmp,,,,,0,38,38,38,,,,,,,,,,,,,,,,,,,,,,,,,,,,,,,,,,,,,,,,,,None,,224.6183994,None,224.6183994,None,2022-01-21-11:35:32.051713,224.62850789999993,224.9355440999998,224.62850789999993,None,None,224.62850789999993,None,225.43534280000011,None,,,,22003,0002,2022_Jan_21_1132,localizer,2021.1.3,60.35662314351249,
block,faces,faces034.bmp,,,,,0,39,39,39,,,,,,,,,,,,,,,,,,,,,,,,,,,,,,,,,,,,,,,,,,None,,225.43534280000011,None,225.43534280000011,None,2022-01-21-11:35:32.868627,225.43619170000056,225.7353788999999,225.43619170000056,None,None,225.43619170000056,None,226.25212700000037,None,,,,22003,0002,2022_Jan_21_1132,localizer,2021.1.3,60.35662314351249,
block,faces,faces058.bmp,,,,,0,40,40,40,,,,,,,,,,,,,,,,,,,,,,,,,,,,,,,,,,,,,,,,,,None,,226.25212700000037,None,226.25212700000037,None,2022-01-21-11:35:33.685690,226.2641450000001,226.5683525000004,226.2641450000001,None,None,226.2641450000001,None,227.05843580000027,None,,,,22003,0002,2022_Jan_21_1132,localizer,2021.1.3,60.35662314351249,
block,faces,faces081.bmp,,,,,0,41,41,41,,,,,,,,,,,,,,,,,,,,,,,,,,,,,,,,,,,,,,,,,,None,,227.05843580000027,None,227.05843580000027,None,2022-01-21-11:35:34.499387,227.07896380000057,227.38518639999984,227.07896380000057,None,None,227.07896380000057,None,227.86955920000008,None,,,,22003,0002,2022_Jan_21_1132,localizer,2021.1.3,60.35662314351249,
block,faces,faces001.bmp,,,,,0,42,42,42,,,,,,,,,,,,,,,,,,,,,,,,,,,,,,,,,,,,,,,,,,None,,227.86955920000008,None,227.86955920000008,None,2022-01-21-11:35:35.303620,227.88317030000053,228.1852088000005,227.88317030000053,None,None,227.88317030000053,None,228.6847977000004,None,,,,22003,0002,2022_Jan_21_1132,localizer,2021.1.3,60.35662314351249,
block,faces,faces031.bmp,,,,,0,43,43,43,,,,,,,,,,,,,,,,,,,,,,,,,,,,,,,,,,,,,,,,,,None,,228.6847977000004,None,228.6847977000004,None,2022-01-21-11:35:36.116913,228.69314480000048,229.00157820000004,228.69314480000048,None,None,228.69314480000048,None,229.50204490000004,None,,,,22003,0002,2022_Jan_21_1132,localizer,2021.1.3,60.35662314351249,
block,faces,faces080.bmp,,,,,0,44,44,44,,,,,,,,,,,,,,,,,,,,,,,,,,,,,,,,,,,,,,,,,,None,,229.50204490000004,None,229.50204490000004,None,2022-01-21-11:35:36.935153,229.5048867000005,229.80367970000043,229.5048867000005,None,None,229.5048867000005,None,230.31912859999983,None,,,,22003,0002,2022_Jan_21_1132,localizer,2021.1.3,60.35662314351249,
block_end,faces,faces038.bmp,,,,,0,45,45,45,,,,,,,,,,,,,,,,,,,,,,,,,,,,,,,,,,,,,,,,,,None,,230.31912859999983,None,230.31912859999983,None,2022-01-21-11:35:37.753446,230.3383272000001,230.65197549999993,230.3383272000001,None,None,230.3383272000001,None,231.1348878000005,None,,,,22003,0002,2022_Jan_21_1132,localizer,2021.1.3,60.35662314351249,
block_start,scrambled,scrambled038.bmp,,,,,0,46,46,46,,,,,,,,,,,,,,,,,,,,,,,,,,,,,,,,,,,,,,,,,,t,1.7743017999991935,231.1350481999998,None,231.1350481999998,None,2022-01-21-11:35:40.367625,232.94599759999983,233.25204530000065,232.94599759999983,None,None,232.94599759999983,None,233.7519097000001,None,,,,22003,0002,2022_Jan_21_1132,localizer,2021.1.3,60.35662314351249,
block,scrambled,scrambled076.bmp,,,,,0,47,47,47,,,,,,,,,,,,,,,,,,,,,,,,,,,,,,,,,,,,,,,,,,None,,233.7519097000001,None,233.7519097000001,None,2022-01-21-11:35:41.185052,233.75295430000006,234.05500889999985,233.75295430000006,None,None,233.75295430000006,None,234.5529438999999,None,,,,22003,0002,2022_Jan_21_1132,localizer,2021.1.3,60.35662314351249,
block,scrambled,scrambled017.bmp,,,,,0,48,48,48,,,,,,,,,,,,,,,,,,,,,,,,,,,,,,,,,,,,,,,,,,None,,234.5529438999999,None,234.5529438999999,None,2022-01-21-11:35:41.989183,234.56737479999993,234.86883170000056,234.56737479999993,234.56737479999993,None,234.56737479999993,234.56737479999993,235.3696440999999,None,,,,22003,0002,2022_Jan_21_1132,localizer,2021.1.3,60.35662314351249,
block,scrambled,scrambled040.bmp,,,,,0,49,49,49,,,,,,,,,,,,,,,,,,,,,,,,,,,,,,,,,,,,,,,,,,None,,235.3696440999999,None,235.3696440999999,None,2022-01-21-11:35:42.804833,235.3834910000005,235.6852233999998,235.3834910000005,None,None,235.3834910000005,None,236.1853125000004,None,,,,22003,0002,2022_Jan_21_1132,localizer,2021.1.3,60.35662314351249,
block,scrambled,scrambled079.bmp,,,,,0,50,50,50,,,,,,,,,,,,,,,,,,,,,,,,,,,,,,,,,,,,,,,,,,None,,236.1853125000004,None,236.1853125000004,None,2022-01-21-11:35:43.619045,236.19540700000016,236.50277970000025,236.19540700000016,None,None,236.19540700000016,None,237.00268569999997,None,,,,22003,0002,2022_Jan_21_1132,localizer,2021.1.3,60.35662314351249,
block,scrambled,scrambled072.bmp,,,,,0,51,51,51,,,,,,,,,,,,,,,,,,,,,,,,,,,,,,,,,,,,,,,,,,None,,237.00268569999997,None,237.00268569999997,None,2022-01-21-11:35:44.437030,237.0147474000005,237.3185529000002,237.0147474000005,None,None,237.0147474000005,None,237.81958290000028,None,,,,22003,0002,2022_Jan_21_1132,localizer,2021.1.3,60.35662314351249,
block,scrambled,scrambled070.bmp,,,,,0,52,52,52,,,,,,,,,,,,,,,,,,,,,,,,,,,,,,,,,,,,,,,,,,None,,237.81958290000028,None,237.81958290000028,None,2022-01-21-11:35:45.253918,237.82888710000043,238.13516919999984,237.82888710000043,None,None,237.82888710000043,None,238.63630859999984,None,,,,22003,0002,2022_Jan_21_1132,localizer,2021.1.3,60.35662314351249,
block,scrambled,scrambled032.bmp,,,,,0,53,53,53,,,,,,,,,,,,,,,,,,,,,,,,,,,,,,,,,,,,,,,,,,None,,238.63630859999984,None,238.63630859999984,None,2022-01-21-11:35:46.070646,238.63859310000043,238.95217270000012,238.63859310000043,None,None,238.63859310000043,None,239.45209140000014,None,,,,22003,0002,2022_Jan_21_1132,localizer,2021.1.3,60.35662314351249,
block,scrambled,scrambled035.bmp,,,,,0,54,54,54,,,,,,,,,,,,,,,,,,,,,,,,,,,,,,,,,,,,,,,,,,None,,239.45209140000014,None,239.45209140000014,None,2022-01-21-11:35:46.885378,239.45317290000003,239.76851200000056,239.45317290000003,None,None,239.45317290000003,None,240.2685040000003,None,,,,22003,0002,2022_Jan_21_1132,localizer,2021.1.3,60.35662314351249,
block,scrambled,scrambled081.bmp,,,,,0,55,55,55,,,,,,,,,,,,,,,,,,,,,,,,,,,,,,,,,,,,,,,,,,None,,240.2685040000003,None,240.2685040000003,None,2022-01-21-11:35:47.701698,240.27996330000042,240.58533290000014,240.27996330000042,None,None,240.27996330000042,None,241.0743691000004,None,,,,22003,0002,2022_Jan_21_1132,localizer,2021.1.3,60.35662314351249,
block,scrambled,scrambled073.bmp,,,,,0,56,56,56,,,,,,,,,,,,,,,,,,,,,,,,,,,,,,,,,,,,,,,,,,None,,241.0743691000004,None,241.0743691000004,None,2022-01-21-11:35:48.510537,241.0777738000006,241.38518170000043,241.0777738000006,None,None,241.0777738000006,None,241.8863134,None,,,,22003,0002,2022_Jan_21_1132,localizer,2021.1.3,60.35662314351249,
block,scrambled,scrambled080.bmp,,,,,0,57,57,57,,,,,,,,,,,,,,,,,,,,,,,,,,,,,,,,,,,,,,,,,,None,,241.8863134,None,241.8863134,None,2022-01-21-11:35:49.321799,241.89949460000025,242.20215650000046,241.89949460000025,None,None,241.89949460000025,None,242.70184240000043,None,,,,22003,0002,2022_Jan_21_1132,localizer,2021.1.3,60.35662314351249,
block,scrambled,scrambled029.bmp,,,,,0,58,58,58,,,,,,,,,,,,,,,,,,,,,,,,,,,,,,,,,,,,,,,,,,None,,242.70184240000043,None,242.70184240000043,None,2022-01-21-11:35:50.135054,242.7122162000005,243.01802159999988,242.7122162000005,None,None,242.7122162000005,None,243.51878170000026,None,,,,22003,0002,2022_Jan_21_1132,localizer,2021.1.3,60.35662314351249,
block,scrambled,scrambled042.bmp,,,,,0,59,59,59,,,,,,,,,,,,,,,,,,,,,,,,,,,,,,,,,,,,,,,,,,None,,243.51878170000026,None,243.51878170000026,None,2022-01-21-11:35:50.951994,243.51949500000046,243.81892120000066,243.51949500000046,None,None,243.51949500000046,None,244.32018269999998,None,,,,22003,0002,2022_Jan_21_1132,localizer,2021.1.3,60.35662314351249,
block_end,scrambled,scrambled018.bmp,,,,,0,60,60,60,,,,,,,,,,,,,,,,,,,,,,,,,,,,,,,,,,,,,,,,,,None,,244.32018269999998,None,244.32018269999998,None,2022-01-21-11:35:51.759274,244.33718070000032,244.65179910000006,244.33718070000032,244.33718070000032,None,244.33718070000032,244.33718070000032,245.13559200000026,None,,,,22003,0002,2022_Jan_21_1132,localizer,2021.1.3,60.35662314351249,
block_start,scrambled,scrambled012.bmp,,,,,0,61,61,61,,,,,,,,,,,,,,,,,,,,,,,,,,,,,,,,,,,,,,,,,,t,1.7736250999996628,245.13571589999992,None,245.13571589999992,None,2022-01-21-11:35:54.367345,246.94500040000003,247.2519925000006,246.94500040000003,None,None,246.94500040000003,None,247.75204420000017,None,,,,22003,0002,2022_Jan_21_1132,localizer,2021.1.3,60.35662314351249,
block,scrambled,scrambled016.bmp,,,,,0,62,62,62,,,,,,,,,,,,,,,,,,,,,,,,,,,,,,,,,,,,,,,,,,None,,247.75204420000017,None,247.75204420000017,None,2022-01-21-11:35:55.185292,247.75284700000066,248.06849950000014,247.75284700000066,None,None,247.75284700000066,None,248.55277799999993,None,,,,22003,0002,2022_Jan_21_1132,localizer,2021.1.3,60.35662314351249,
block,scrambled,scrambled055.bmp,,,,,0,63,63,63,,,,,,,,,,,,,,,,,,,,,,,,,,,,,,,,,,,,,,,,,,None,,248.55277799999993,None,248.55277799999993,None,2022-01-21-11:35:55.989185,248.55633600000056,248.86874540000008,248.55633600000056,248.55633600000056,None,248.55633600000056,248.55633600000056,249.37453599999998,None,,,,22003,0002,2022_Jan_21_1132,localizer,2021.1.3,60.35662314351249,
block,scrambled,scrambled055.bmp,,,,,0,64,64,64,,,,,,,,,,,,,,,,,,,,,,,,,,,,,,,,,,,,,,,,,,None,,249.37453599999998,None,249.37453599999998,None,2022-01-21-11:35:56.814751,249.38332160000027,249.68608140000015,249.38332160000027,None,None,249.38332160000027,None,250.18578860000042,None,,,,22003,0002,2022_Jan_21_1132,localizer,2021.1.3,60.35662314351249,
block,scrambled,scrambled029.bmp,,,,,0,65,65,65,,,,,,,,,,,,,,,,,,,,,,,,,,,,,,,,,,,,,,,,,,None,,250.18578860000042,None,250.18578860000042,None,2022-01-21-11:35:57.620131,250.18646900000022,250.50234199999977,250.18646900000022,None,None,250.18646900000022,None,251.00193819999976,None,,,,22003,0002,2022_Jan_21_1132,localizer,2021.1.3,60.35662314351249,
block,scrambled,scrambled081.bmp,,,,,0,66,66,66,,,,,,,,,,,,,,,,,,,,,,,,,,,,,,,,,,,,,,,,,,None,,251.00193819999976,None,251.00193819999976,None,2022-01-21-11:35:58.435216,251.0037798000003,251.31913590000022,251.0037798000003,None,None,251.0037798000003,None,251.81852620000035,None,,,,22003,0002,2022_Jan_21_1132,localizer,2021.1.3,60.35662314351249,
block,scrambled,scrambled086.bmp,,,,,0,67,67,67,,,,,,,,,,,,,,,,,,,,,,,,,,,,,,,,,,,,,,,,,,None,,251.81852620000035,None,251.81852620000035,None,2022-01-21-11:35:59.252038,251.82875729999978,252.13669140000002,251.82875729999978,None,None,251.82875729999978,None,252.63485499999996,None,,,,22003,0002,2022_Jan_21_1132,localizer,2021.1.3,60.35662314351249,
block,scrambled,scrambled032.bmp,,,,,0,68,68,68,,,,,,,,,,,,,,,,,,,,,,,,,,,,,,,,,,,,,,,,,,None,,252.63485499999996,None,252.63485499999996,None,2022-01-21-11:36:00.068432,252.63656660000015,252.9523435000001,252.63656660000015,None,None,252.63656660000015,None,253.43585039999988,None,,,,22003,0002,2022_Jan_21_1132,localizer,2021.1.3,60.35662314351249,
block,scrambled,scrambled020.bmp,,,,,0,69,69,69,,,,,,,,,,,,,,,,,,,,,,,,,,,,,,,,,,,,,,,,,,None,,253.43585039999988,None,253.43585039999988,None,2022-01-21-11:36:00.872332,253.45109740000044,253.75257409999995,253.45109740000044,253.45109740000044,None,253.45109740000044,253.45109740000044,254.25258700000057,None,,,,22003,0002,2022_Jan_21_1132,localizer,2021.1.3,60.35662314351249,
block,scrambled,scrambled088.bmp,,,,,0,70,70,70,,,,,,,,,,,,,,,,,,,,,,,,,,,,,,,,,,,,,,,,,,None,,254.25258700000057,None,254.25258700000057,None,2022-01-21-11:36:01.686869,254.26350809999985,254.5686454000006,254.26350809999985,None,None,254.26350809999985,None,255.05824610000008,None,,,,22003,0002,2022_Jan_21_1132,localizer,2021.1.3,60.35662314351249,
block,scrambled,scrambled007.bmp,,,,,0,71,71,71,,,,,,,,,,,,,,,,,,,,,,,,,,,,,,,,,,,,,,,,,,None,,255.05824610000008,None,255.05824610000008,None,2022-01-21-11:36:02.498688,255.07681880000018,255.38562000000002,255.07681880000018,None,None,255.07681880000018,None,255.86881890000012,None,,,,22003,0002,2022_Jan_21_1132,localizer,2021.1.3,60.35662314351249,
block,scrambled,scrambled024.bmp,,,,,0,72,72,72,,,,,,,,,,,,,,,,,,,,,,,,,,,,,,,,,,,,,,,,,,None,,255.86881890000012,None,255.86881890000012,None,2022-01-21-11:36:03.302125,255.87865340000008,256.1853283999999,255.87865340000008,None,None,255.87865340000008,None,256.6851487999999,None,,,,22003,0002,2022_Jan_21_1132,localizer,2021.1.3,60.35662314351249,
block,scrambled,scrambled068.bmp,,,,,0,73,73,73,,,,,,,,,,,,,,,,,,,,,,,,,,,,,,,,,,,,,,,,,,None,,256.6851487999999,None,256.6851487999999,None,2022-01-21-11:36:04.118751,256.68607880000036,256.9855690000004,256.68607880000036,None,None,256.68607880000036,None,257.48549260000044,None,,,,22003,0002,2022_Jan_21_1132,localizer,2021.1.3,60.35662314351249,
block,scrambled,scrambled031.bmp,,,,,0,74,74,74,,,,,,,,,,,,,,,,,,,,,,,,,,,,,,,,,,,,,,,,,,None,,257.48549260000044,None,257.48549260000044,None,2022-01-21-11:36:04.920805,257.4870099999998,257.8026733000006,257.4870099999998,257.4870099999998,None,257.4870099999998,257.4870099999998,258.3017824000005,None,,,,22003,0002,2022_Jan_21_1132,localizer,2021.1.3,60.35662314351249,
block_end,scrambled,scrambled033.bmp,,,,,0,75,75,75,,,,,,,,,,,,,,,,,,,,,,,,,,,,,,,,,,,,,,,,,,None,,258.3017824000005,None,258.3017824000005,None,2022-01-21-11:36:05.735114,258.30288089999976,258.6187154999998,258.30288089999976,None,None,258.30288089999976,None,259.1025720000004,None,,,,22003,0002,2022_Jan_21_1132,localizer,2021.1.3,60.35662314351249,
block_start,faces,faces044.bmp,,,,,0,76,76,76,,,,,,,,,,,,,,,,,,,,,,,,,,,,,,,,,,,,,,,,,,t,1.8059626000003846,259.10322910000014,None,259.10322910000014,None,2022-01-21-11:36:08.368961,260.93647950000013,261.2520218999998,260.93647950000013,None,None,260.93647950000013,None,261.7356215000006,None,,,,22003,0002,2022_Jan_21_1132,localizer,2021.1.3,60.35662314351249,
block,faces,faces045.bmp,,,,,0,77,77,77,,,,,,,,,,,,,,,,,,,,,,,,,,,,,,,,,,,,,,,,,,None,,261.7356215000006,None,261.7356215000006,None,2022-01-21-11:36:09.170965,261.7481667000002,262.0524340000002,261.7481667000002,261.7481667000002,None,261.7481667000002,261.7481667000002,262.55265370000023,None,,,,22003,0002,2022_Jan_21_1132,localizer,2021.1.3,60.35662314351249,
block,faces,faces084.bmp,,,,,0,78,78,78,,,,,,,,,,,,,,,,,,,,,,,,,,,,,,,,,,,,,,,,,,None,,262.55265370000023,None,262.55265370000023,None,2022-01-21-11:36:09.986996,262.5644092000002,262.8689204000002,262.5644092000002,None,None,262.5644092000002,None,263.3687714000004,None,,,,22003,0002,2022_Jan_21_1132,localizer,2021.1.3,60.35662314351249,
block,faces,faces004.bmp,,,,,0,79,79,79,,,,,,,,,,,,,,,,,,,,,,,,,,,,,,,,,,,,,,,,,,None,,263.3687714000004,None,263.3687714000004,None,2022-01-21-11:36:10.803132,263.38408140000047,263.6858548,263.38408140000047,None,None,263.38408140000047,None,264.18542600000063,None,,,,22003,0002,2022_Jan_21_1132,localizer,2021.1.3,60.35662314351249,
block,faces,faces027.bmp,,,,,0,80,80,80,,,,,,,,,,,,,,,,,,,,,,,,,,,,,,,,,,,,,,,,,,None,,264.18542600000063,None,264.18542600000063,None,2022-01-21-11:36:11.618792,264.18640760000017,264.5023390000006,264.18640760000017,None,None,264.18640760000017,None,265.0019917000006,None,,,,22003,0002,2022_Jan_21_1132,localizer,2021.1.3,60.35662314351249,
block,faces,faces024.bmp,,,,,0,81,81,81,,,,,,,,,,,,,,,,,,,,,,,,,,,,,,,,,,,,,,,,,,None,,265.0019917000006,None,265.0019917000006,None,2022-01-21-11:36:12.435368,265.00310790000003,265.30270310000014,265.00310790000003,None,None,265.00310790000003,None,265.81866789999975,None,,,,22003,0002,2022_Jan_21_1132,localizer,2021.1.3,60.35662314351249,
block,faces,faces050.bmp,,,,,0,82,82,82,,,,,,,,,,,,,,,,,,,,,,,,,,,,,,,,,,,,,,,,,,None,,265.81866789999975,None,265.81866789999975,None,2022-01-21-11:36:13.252051,265.81969070000014,266.13552549999986,265.81969070000014,None,None,265.81969070000014,None,266.63533950000027,None,,,,22003,0002,2022_Jan_21_1132,localizer,2021.1.3,60.35662314351249,
block,faces,faces082.bmp,,,,,0,83,83,83,,,,,,,,,,,,,,,,,,,,,,,,,,,,,,,,,,,,,,,,,,None,,266.63533950000027,None,266.63533950000027,None,2022-01-21-11:36:14.067758,266.6365372999999,266.95220900000004,266.6365372999999,None,None,266.6365372999999,None,267.43556680000046,None,,,,22003,0002,2022_Jan_21_1132,localizer,2021.1.3,60.35662314351249,
block,faces,faces006.bmp,,,,,0,84,84,84,,,,,,,,,,,,,,,,,,,,,,,,,,,,,,,,,,,,,,,,,,None,,267.43556680000046,None,267.43556680000046,None,2022-01-21-11:36:14.870952,267.43712959999993,267.7415732999998,267.43712959999993,267.43712959999993,None,267.43712959999993,267.43712959999993,268.2523003000003,None,,,,22003,0002,2022_Jan_21_1132,localizer,2021.1.3,60.35662314351249,
block,faces,faces060.bmp,,,,,0,85,85,85,,,,,,,,,,,,,,,,,,,,,,,,,,,,,,,,,,,,,,,,,,None,,268.2523003000003,None,268.2523003000003,None,2022-01-21-11:36:15.685695,268.2874376,268.6023161000003,268.2874376,None,None,268.2874376,None,269.06909870000044,None,,,,22003,0002,2022_Jan_21_1132,localizer,2021.1.3,60.35662314351249,
block,faces,faces081.bmp,,,,,0,86,86,86,,,,,,,,,,,,,,,,,,,,,,,,,,,,,,,,,,,,,,,,,,None,,269.06909870000044,None,269.06909870000044,None,2022-01-21-11:36:16.502563,269.0699003,269.38565130000006,269.0699003,None,None,269.0699003,None,269.86986980000046,None,,,,22003,0002,2022_Jan_21_1132,localizer,2021.1.3,60.35662314351249,
block,faces,faces047.bmp,,,,,0,87,87,87,,,,,,,,,,,,,,,,,,,,,,,,,,,,,,,,,,,,,,,,,,None,,269.86986980000046,None,269.86986980000046,None,2022-01-21-11:36:17.307429,269.87436400000024,270.1852832000004,269.87436400000024,269.87436400000024,None,269.87436400000024,269.87436400000024,270.6855287000005,None,,,,22003,0002,2022_Jan_21_1132,localizer,2021.1.3,60.35662314351249,
block,faces,faces003.bmp,,,,,0,88,88,88,,,,,,,,,,,,,,,,,,,,,,,,,,,,,,,,,,,,,,,,,,None,,270.6855287000005,None,270.6855287000005,None,2022-01-21-11:36:18.118943,270.68638999999985,270.9859395000003,270.68638999999985,None,None,270.68638999999985,None,271.48579970000054,None,,,,22003,0002,2022_Jan_21_1132,localizer,2021.1.3,60.35662314351249,
block,faces,faces070.bmp,,,,,0,89,89,89,,,,,,,,,,,,,,,,,,,,,,,,,,,,,,,,,,,,,,,,,,None,,271.48579970000054,None,271.48579970000054,None,2022-01-21-11:36:18.921405,271.48904760000005,271.8022467999999,271.48904760000005,271.48904760000005,None,271.48904760000005,271.48904760000005,272.3017335000001,None,,,,22003,0002,2022_Jan_21_1132,localizer,2021.1.3,60.35662314351249,
block_end,faces,faces068.bmp,,,,,0,90,90,90,,,,,,,,,,,,,,,,,,,,,,,,,,,,,,,,,,,,,,,,,,None,,272.3017335000001,None,272.3017335000001,None,2022-01-21-11:36:19.734105,272.31078479999996,272.61889820000033,272.31078479999996,None,None,272.31078479999996,None,273.1186824000003,None,,,,22003,0002,2022_Jan_21_1132,localizer,2021.1.3,60.35662314351249,
null_block,null_block,null_block.bmp,,,,,0,91,91,91,,,,,,,,,,,,,,,,,,,,,,,,,,,,,,,,,,,,,,,,,,t,1.7898721999999907,273.1183918000006,None,273.1183918000006,None,2022-01-21-11:36:22.370335,274.9358826000004,None,274.9358826000004,None,None,274.9358826000004,None,274.9421075,None,,,,22003,0002,2022_Jan_21_1132,localizer,2021.1.3,60.35662314351249,
block_start,objects,objects002.bmp,,,,,0,92,92,92,,,,,,,,,,,,,,,,,,,,,,,,,,,,,,,,,,,,,,,,,,t,1.9552367000005688,286.9529002999998,None,286.9529002999998,None,2022-01-21-11:36:36.370588,288.93793730000016,289.25218140000015,288.93793730000016,None,None,288.93793730000016,None,289.7522646000004,None,,,,22003,0002,2022_Jan_21_1132,localizer,2021.1.3,60.35662314351249,
block,objects,objects057.bmp,,,,,0,93,93,93,,,,,,,,,,,,,,,,,,,,,,,,,,,,,,,,,,,,,,,,,,None,,289.7522646000004,None,289.7522646000004,None,2022-01-21-11:36:37.185907,289.7624800000003,290.06886010000017,289.7624800000003,None,None,289.7624800000003,None,290.5689693000001,None,,,,22003,0002,2022_Jan_21_1132,localizer,2021.1.3,60.35662314351249,
block,objects,objects078.bmp,,,,,0,94,94,94,,,,,,,,,,,,,,,,,,,,,,,,,,,,,,,,,,,,,,,,,,None,,290.5689693000001,None,290.5689693000001,None,2022-01-21-11:36:38.002533,290.5698362000003,290.8691280000003,290.5698362000003,None,None,290.5698362000003,None,291.3688577,None,,,,22003,0002,2022_Jan_21_1132,localizer,2021.1.3,60.35662314351249,
block,objects,objects007.bmp,,,,,0,95,95,95,,,,,,,,,,,,,,,,,,,,,,,,,,,,,,,,,,,,,,,,,,None,,291.3688577,None,291.3688577,None,2022-01-21-11:36:38.804197,291.38009299999976,291.6855845,291.38009299999976,291.38009299999976,None,291.38009299999976,291.38009299999976,292.1859462999998,None,,,,22003,0002,2022_Jan_21_1132,localizer,2021.1.3,60.35662314351249,
block,objects,objects049.bmp,,,,,0,96,96,96,,,,,,,,,,,,,,,,,,,,,,,,,,,,,,,,,,,,,,,,,,None,,292.1859462999998,None,292.1859462999998,None,2022-01-21-11:36:39.621507,292.1874951,292.50298889999976,292.1874951,None,None,292.1874951,None,293.00218319999993,None,,,,22003,0002,2022_Jan_21_1132,localizer,2021.1.3,60.35662314351249,
block,objects,objects015.bmp,,,,,0,97,97,97,,,,,,,,,,,,,,,,,,,,,,,,,,,,,,,,,,,,,,,,,,None,,293.00218319999993,None,293.00218319999993,None,2022-01-21-11:36:40.435766,293.0124304000001,293.3190125000001,293.0124304000001,None,None,293.0124304000001,None,293.8184870000002,None,,,,22003,0002,2022_Jan_21_1132,localizer,2021.1.3,60.35662314351249,
block,objects,objects077.bmp,,,,,0,98,98,98,,,,,,,,,,,,,,,,,,,,,,,,,,,,,,,,,,,,,,,,,,None,,293.8184870000002,None,293.8184870000002,None,2022-01-21-11:36:41.251318,293.81976680000025,294.13552830000026,293.81976680000025,None,None,293.81976680000025,None,294.61936230000055,None,,,,22003,0002,2022_Jan_21_1132,localizer,2021.1.3,60.35662314351249,
block,objects,objects047.bmp,,,,,0,99,99,99,,,,,,,,,,,,,,,,,,,,,,,,,,,,,,,,,,,,,,,,,,None,,294.61936230000055,None,294.61936230000055,None,2022-01-21-11:36:42.056117,294.6224564000004,294.9355507,294.6224564000004,294.6224564000004,None,294.6224564000004,294.6224564000004,295.43583629999983,None,,,,22003,0002,2022_Jan_21_1132,localizer,2021.1.3,60.35662314351249,
block,objects,objects062.bmp,,,,,0,100,100,100,,,,,,,,,,,,,,,,,,,,,,,,,,,,,,,,,,,,,,,,,,None,,295.43583629999983,None,295.43583629999983,None,2022-01-21-11:36:42.869455,295.4468273000002,295.7521157000001,295.4468273000002,None,None,295.4468273000002,None,296.2526865000006,None,,,,22003,0002,2022_Jan_21_1132,localizer,2021.1.3,60.35662314351249,
block,objects,objects048.bmp,,,,,0,101,101,101,,,,,,,,,,,,,,,,,,,,,,,,,,,,,,,,,,,,,,,,,,None,,296.2526865000006,None,296.2526865000006,None,2022-01-21-11:36:43.687263,296.25350179999987,296.55609970000023,296.25350179999987,None,None,296.25350179999987,None,297.06889050000035,None,,,,22003,0002,2022_Jan_21_1132,localizer,2021.1.3,60.35662314351249,
block,objects,objects019.bmp,,,,,0,102,102,102,,,,,,,,,,,,,,,,,,,,,,,,,,,,,,,,,,,,,,,,,,None,,297.06889050000035,None,297.06889050000035,None,2022-01-21-11:36:44.502501,297.0698544000006,297.3856233000006,297.0698544000006,None,None,297.0698544000006,None,297.8854336000001,None,,,,22003,0002,2022_Jan_21_1132,localizer,2021.1.3,60.35662314351249,
block,objects,objects036.bmp,,,,,0,103,103,103,,,,,,,,,,,,,,,,,,,,,,,,,,,,,,,,,,,,,,,,,,None,,297.8854336000001,None,297.8854336000001,None,2022-01-21-11:36:45.319054,297.8865506000002,298.2021413000002,297.8865506000002,None,None,297.8865506000002,None,298.7022197000003,None,,,,22003,0002,2022_Jan_21_1132,localizer,2021.1.3,60.35662314351249,
block,objects,objects020.bmp,,,,,0,104,104,104,,,,,,,,,,,,,,,,,,,,,,,,,,,,,,,,,,,,,,,,,,None,,298.7022197000003,None,298.7022197000003,None,2022-01-21-11:36:46.135842,298.70319780000045,299.0024830000002,298.70319780000045,None,None,298.70319780000045,None,299.5022434999998,None,,,,22003,0002,2022_Jan_21_1132,localizer,2021.1.3,60.35662314351249,
block,objects,objects038.bmp,,,,,0,105,105,105,,,,,,,,,,,,,,,,,,,,,,,,,,,,,,,,,,,,,,,,,,None,,299.5022434999998,None,299.5022434999998,None,2022-01-21-11:36:46.936870,299.51348620000044,299.81885130000046,299.51348620000044,299.51348620000044,None,299.51348620000044,299.51348620000044,300.3212693000002,None,,,,22003,0002,2022_Jan_21_1132,localizer,2021.1.3,60.35662314351249,
block_end,objects,objects068.bmp,,,,,0,106,106,106,,,,,,,,,,,,,,,,,,,,,,,,,,,,,,,,,,,,,,,,,,None,,300.3212693000002,None,300.3212693000002,None,2022-01-21-11:36:47.757871,300.32459110000036,300.63555710000037,300.32459110000036,None,None,300.32459110000036,None,301.13571720000044,None,,,,22003,0002,2022_Jan_21_1132,localizer,2021.1.3,60.35662314351249,
block_start,scenes,scenes010.bmp,,,,,0,107,107,107,,,,,,,,,,,,,,,,,,,,,,,,,,,,,,,,,,,,,,,,,,t,1.7725398000002315,301.1359308000001,None,301.1359308000001,None,2022-01-21-11:36:50.360852,302.9293183,303.2362670000002,302.9293183,None,None,302.9293183,None,303.73603429999974,None,,,,22003,0002,2022_Jan_21_1132,localizer,2021.1.3,60.35662314351249,
block,scenes,scenes012.bmp,,,,,0,108,108,108,,,,,,,,,,,,,,,,,,,,,,,,,,,,,,,,,,,,,,,,,,None,,303.73603429999974,None,303.73603429999974,None,2022-01-21-11:36:51.170807,303.74804330000006,304.0524013000004,303.74804330000006,None,None,303.74804330000006,None,304.55280439999996,None,,,,22003,0002,2022_Jan_21_1132,localizer,2021.1.3,60.35662314351249,
block,scenes,scenes033.bmp,,,,,0,109,109,109,,,,,,,,,,,,,,,,,,,,,,,,,,,,,,,,,,,,,,,,,,None,,304.55280439999996,None,304.55280439999996,None,2022-01-21-11:36:51.987462,304.5537553000004,304.86890349999976,304.5537553000004,None,None,304.5537553000004,None,305.3534279000002,None,,,,22003,0002,2022_Jan_21_1132,localizer,2021.1.3,60.35662314351249,
block,scenes,scenes080.bmp,,,,,0,110,110,110,,,,,,,,,,,,,,,,,,,,,,,,,,,,,,,,,,,,,,,,,,None,,305.3534279000002,None,305.3534279000002,None,2022-01-21-11:36:52.790270,305.35809190000055,305.6694157000002,305.35809190000055,305.35809190000055,None,305.35809190000055,305.35809190000055,306.1692885999998,None,,,,22003,0002,2022_Jan_21_1132,localizer,2021.1.3,60.35662314351249,
block,scenes,scenes014.bmp,,,,,0,111,111,111,,,,,,,,,,,,,,,,,,,,,,,,,,,,,,,,,,,,,,,,,,None,,306.1692885999998,None,306.1692885999998,None,2022-01-21-11:36:53.603165,306.17028329999994,306.48597470000004,306.17028329999994,None,None,306.17028329999994,None,306.9696166999999,None,,,,22003,0002,2022_Jan_21_1132,localizer,2021.1.3,60.35662314351249,
block,scenes,scenes052.bmp,,,,,0,112,112,112,,,,,,,,,,,,,,,,,,,,,,,,,,,,,,,,,,,,,,,,,,None,,306.9696166999999,None,306.9696166999999,None,2022-01-21-11:36:54.406468,306.9721881000005,307.28541029999997,306.9721881000005,306.9721881000005,None,306.9721881000005,306.9721881000005,307.78545079999975,None,,,,22003,0002,2022_Jan_21_1132,localizer,2021.1.3,60.35662314351249,
block,scenes,scenes059.bmp,,,,,0,113,113,113,,,,,,,,,,,,,,,,,,,,,,,,,,,,,,,,,,,,,,,,,,None,,307.78545079999975,None,307.78545079999975,None,2022-01-21-11:36:55.219147,307.78666090000024,308.08633310000005,307.78666090000024,None,None,307.78666090000024,None,308.58749360000064,None,,,,22003,0002,2022_Jan_21_1132,localizer,2021.1.3,60.35662314351249,
block,scenes,scenes039.bmp,,,,,0,114,114,114,,,,,,,,,,,,,,,,,,,,,,,,,,,,,,,,,,,,,,,,,,None,,308.58749360000064,None,308.58749360000064,None,2022-01-21-11:36:56.027216,308.59436300000016,308.9026793000003,308.59436300000016,308.59436300000016,None,308.59436300000016,308.59436300000016,309.4027942999998,None,,,,22003,0002,2022_Jan_21_1132,localizer,2021.1.3,60.35662314351249,
block,scenes,scenes056.bmp,,,,,0,115,115,115,,,,,,,,,,,,,,,,,,,,,,,,,,,,,,,,,,,,,,,,,,None,,309.4027942999998,None,309.4027942999998,None,2022-01-21-11:36:56.837482,309.4037960000005,309.7193865999998,309.4037960000005,None,None,309.4037960000005,None,310.20291719999994,None,,,,22003,0002,2022_Jan_21_1132,localizer,2021.1.3,60.35662314351249,
block,scenes,scenes021.bmp,,,,,0,116,116,116,,,,,,,,,,,,,,,,,,,,,,,,,,,,,,,,,,,,,,,,,,None,,310.20291719999994,None,310.20291719999994,None,2022-01-21-11:36:57.639610,310.21792170000026,310.5195236999998,310.21792170000026,310.21792170000026,None,310.21792170000026,310.21792170000026,311.01962539999994,None,,,,22003,0002,2022_Jan_21_1132,localizer,2021.1.3,60.35662314351249,
block,scenes,scenes062.bmp,,,,,0,117,117,117,,,,,,,,,,,,,,,,,,,,,,,,,,,,,,,,,,,,,,,,,,None,,311.01962539999994,None,311.01962539999994,None,2022-01-21-11:36:58.454532,311.03236449999986,311.3361839999998,311.03236449999986,None,None,311.03236449999986,None,311.8360315000006,None,,,,22003,0002,2022_Jan_21_1132,localizer,2021.1.3,60.35662314351249,
block,scenes,scenes041.bmp,,,,,0,118,118,118,,,,,,,,,,,,,,,,,,,,,,,,,,,,,,,,,,,,,,,,,,None,,311.8360315000006,None,311.8360315000006,None,2022-01-21-11:36:59.269837,311.83679440000014,312.1360601000006,311.83679440000014,None,None,311.83679440000014,None,312.6520913000001,None,,,,22003,0002,2022_Jan_21_1132,localizer,2021.1.3,60.35662314351249,
block,scenes,scenes083.bmp,,,,,0,119,119,119,,,,,,,,,,,,,,,,,,,,,,,,,,,,,,,,,,,,,,,,,,None,,312.6520913000001,None,312.6520913000001,None,2022-01-21-11:37:00.084828,312.6602391000006,312.9690539000003,312.6602391000006,None,None,312.6602391000006,None,313.4692186999998,None,,,,22003,0002,2022_Jan_21_1132,localizer,2021.1.3,60.35662314351249,
block,scenes,scenes055.bmp,,,,,0,120,120,120,,,,,,,,,,,,,,,,,,,,,,,,,,,,,,,,,,,,,,,,,,None,,313.4692186999998,None,313.4692186999998,None,2022-01-21-11:37:00.903649,313.4700907000006,313.78572710000026,313.4700907000006,None,None,313.4700907000006,None,314.2692184000004,None,,,,22003,0002,2022_Jan_21_1132,localizer,2021.1.3,60.35662314351249,
block_end,scenes,scenes089.bmp,,,,,0,121,121,121,,,,,,,,,,,,,,,,,,,,,,,,,,,,,,,,,,,,,,,,,,None,,314.2692184000004,None,314.2692184000004,None,2022-01-21-11:37:01.705140,314.2712763999998,314.5859672000006,314.2712763999998,314.2712763999998,None,314.2712763999998,314.2712763999998,315.07597289999984,None,,,,22003,0002,2022_Jan_21_1132,localizer,2021.1.3,60.35662314351249,
block_start,scrambled,scrambled031.bmp,,,,,0,122,122,122,,,,,,,,,,,,,,,,,,,,,,,,,,,,,,,,,,,,,,,,,,t,1.8345789000004515,315.0735931999998,None,315.0735931999998,None,2022-01-21-11:37:04.367886,316.9368814999998,317.2361928999999,316.9368814999998,None,None,316.9368814999998,None,317.7523671000005,None,,,,22003,0002,2022_Jan_21_1132,localizer,2021.1.3,60.35662314351249,
block,scrambled,scrambled069.bmp,,,,,0,123,123,123,,,,,,,,,,,,,,,,,,,,,,,,,,,,,,,,,,,,,,,,,,None,,317.7523671000005,None,317.7523671000005,None,2022-01-21-11:37:05.186132,317.7617525000005,318.06964550000066,317.7617525000005,None,None,317.7617525000005,None,318.5696725000004,None,,,,22003,0002,2022_Jan_21_1132,localizer,2021.1.3,60.35662314351249,
block,scrambled,scrambled011.bmp,,,,,0,124,124,124,,,,,,,,,,,,,,,,,,,,,,,,,,,,,,,,,,,,,,,,,,None,,318.5696725000004,None,318.5696725000004,None,2022-01-21-11:37:06.004621,318.57071200000064,318.8695880000005,318.57071200000064,None,None,318.57071200000064,None,319.3861193999998,None,,,,22003,0002,2022_Jan_21_1132,localizer,2021.1.3,60.35662314351249,
block,scrambled,scrambled080.bmp,,,,,0,125,125,125,,,,,,,,,,,,,,,,,,,,,,,,,,,,,,,,,,,,,,,,,,None,,319.3861193999998,None,319.3861193999998,None,2022-01-21-11:37:06.820796,319.38691930000005,319.70274599999993,319.38691930000005,None,None,319.38691930000005,None,320.2022055000004,None,,,,22003,0002,2022_Jan_21_1132,localizer,2021.1.3,60.35662314351249,
block,scrambled,scrambled083.bmp,,,,,0,126,126,126,,,,,,,,,,,,,,,,,,,,,,,,,,,,,,,,,,,,,,,,,,None,,320.2022055000004,None,320.2022055000004,None,2022-01-21-11:37:07.635993,320.2110676000002,320.5190124999999,320.2110676000002,None,None,320.2110676000002,None,321.01872500000053,None,,,,22003,0002,2022_Jan_21_1132,localizer,2021.1.3,60.35662314351249,
block,scrambled,scrambled004.bmp,,,,,0,127,127,127,,,,,,,,,,,,,,,,,,,,,,,,,,,,,,,,,,,,,,,,,,None,,321.01872500000053,None,321.01872500000053,None,2022-01-21-11:37:08.451522,321.0264095000002,321.3361236999999,321.0264095000002,None,None,321.0264095000002,None,321.8354769000004,None,,,,22003,0002,2022_Jan_21_1132,localizer,2021.1.3,60.35662314351249,
block,scrambled,scrambled029.bmp,,,,,0,128,128,128,,,,,,,,,,,,,,,,,,,,,,,,,,,,,,,,,,,,,,,,,,None,,321.8354769000004,None,321.8354769000004,None,2022-01-21-11:37:09.269279,321.8369403000006,322.1361123000006,321.8369403000006,None,None,321.8369403000006,None,322.6528989000005,None,,,,22003,0002,2022_Jan_21_1132,localizer,2021.1.3,60.35662314351249,
block,scrambled,scrambled052.bmp,,,,,0,129,129,129,,,,,,,,,,,,,,,,,,,,,,,,,,,,,,,,,,,,,,,,,,None,,322.6528989000005,None,322.6528989000005,None,2022-01-21-11:37:10.087686,322.65379140000005,322.9688950999998,322.65379140000005,None,None,322.65379140000005,None,323.4543758000006,None,,,,22003,0002,2022_Jan_21_1132,localizer,2021.1.3,60.35662314351249,
block,scrambled,scrambled032.bmp,,,,,0,130,130,130,,,,,,,,,,,,,,,,,,,,,,,,,,,,,,,,,,,,,,,,,,None,,323.4543758000006,None,323.4543758000006,None,2022-01-21-11:37:10.894129,323.4618298000005,323.7690462999999,323.4618298000005,323.4618298000005,None,323.4618298000005,323.4618298000005,324.26970839999984,None,,,,22003,0002,2022_Jan_21_1132,localizer,2021.1.3,60.35662314351249,
block,scrambled,scrambled061.bmp,,,,,0,131,131,131,,,,,,,,,,,,,,,,,,,,,,,,,,,,,,,,,,,,,,,,,,None,,324.26970839999984,None,324.26970839999984,None,2022-01-21-11:37:11.704505,324.2718482999999,324.58641119999993,324.2718482999999,None,None,324.2718482999999,None,325.08637140000036,None,,,,22003,0002,2022_Jan_21_1132,localizer,2021.1.3,60.35662314351249,
block,scrambled,scrambled075.bmp,,,,,0,132,132,132,,,,,,,,,,,,,,,,,,,,,,,,,,,,,,,,,,,,,,,,,,None,,325.08637140000036,None,325.08637140000036,None,2022-01-21-11:37:12.521203,325.09810650000054,325.4024725999998,325.09810650000054,None,None,325.09810650000054,None,325.90279720000007,None,,,,22003,0002,2022_Jan_21_1132,localizer,2021.1.3,60.35662314351249,
block,scrambled,scrambled040.bmp,,,,,0,133,133,133,,,,,,,,,,,,,,,,,,,,,,,,,,,,,,,,,,,,,,,,,,None,,325.90279720000007,None,325.90279720000007,None,2022-01-21-11:37:13.337609,325.9035891000003,326.2027705999999,325.9035891000003,None,None,325.9035891000003,None,326.71899249999996,None,,,,22003,0002,2022_Jan_21_1132,localizer,2021.1.3,60.35662314351249,
block,scrambled,scrambled077.bmp,,,,,0,134,134,134,,,,,,,,,,,,,,,,,,,,,,,,,,,,,,,,,,,,,,,,,,None,,326.71899249999996,None,326.71899249999996,None,2022-01-21-11:37:14.153046,326.7199639999999,327.03580800000054,326.7199639999999,None,None,326.7199639999999,None,327.51921120000014,None,,,,22003,0002,2022_Jan_21_1132,localizer,2021.1.3,60.35662314351249,
block,scrambled,scrambled060.bmp,,,,,0,135,135,135,,,,,,,,,,,,,,,,,,,,,,,,,,,,,,,,,,,,,,,,,,None,,327.51921120000014,None,327.51921120000014,None,2022-01-21-11:37:14.955042,327.52207610000005,327.8361534000005,327.52207610000005,327.52207610000005,None,327.52207610000005,327.52207610000005,328.33567420000026,None,,,,22003,0002,2022_Jan_21_1132,localizer,2021.1.3,60.35662314351249,
block_end,scrambled,scrambled072.bmp,,,,,0,136,136,136,,,,,,,,,,,,,,,,,,,,,,,,,,,,,,,,,,,,,,,,,,None,,328.33567420000026,None,328.33567420000026,None,2022-01-21-11:37:15.769520,328.33713890000035,328.6528969000001,328.33713890000035,None,None,328.33713890000035,None,329.1519006000005,None,,,,22003,0002,2022_Jan_21_1132,localizer,2021.1.3,60.35662314351249,
block_start,faces,faces031.bmp,,,,,0,137,137,137,,,,,,,,,,,,,,,,,,,,,,,,,,,,,,,,,,,,,,,,,,t,1.7558324000001448,329.1522214000006,None,329.1522214000006,None,2022-01-21-11:37:18.371506,330.9397157000003,331.2534513999999,330.9397157000003,None,None,330.9397157000003,None,331.75224980000047,None,,,,22003,0002,2022_Jan_21_1132,localizer,2021.1.3,60.35662314351249,
block,faces,faces059.bmp,,,,,0,138,138,138,,,,,,,,,,,,,,,,,,,,,,,,,,,,,,,,,,,,,,,,,,None,,331.75224980000047,None,331.75224980000047,None,2022-01-21-11:37:19.186125,331.75331259999984,332.05866700000024,331.75331259999984,None,None,331.75331259999984,None,332.55247600000047,None,,,,22003,0002,2022_Jan_21_1132,localizer,2021.1.3,60.35662314351249,
block,faces,faces005.bmp,,,,,0,139,139,139,,,,,,,,,,,,,,,,,,,,,,,,,,,,,,,,,,,,,,,,,,None,,332.55247600000047,None,332.55247600000047,None,2022-01-21-11:37:19.988346,332.5646655999999,332.86919970000054,332.5646655999999,332.5646655999999,None,332.5646655999999,332.5646655999999,333.36949429999976,None,,,,22003,0002,2022_Jan_21_1132,localizer,2021.1.3,60.35662314351249,
block,faces,faces005.bmp,,,,,0,140,140,140,,,,,,,,,,,,,,,,,,,,,,,,,,,,,,,,,,,,,,,,,,None,,333.36949429999976,None,333.36949429999976,None,2022-01-21-11:37:20.804363,333.3707060000006,333.6858766000005,333.3707060000006,None,y,333.3707060000006,None,334.18578959999985,None,0.6952148000000307,,,22003,0002,2022_Jan_21_1132,localizer,2021.1.3,60.35662314351249,
block,faces,faces048.bmp,,,,,0,141,141,141,,,,,,,,,,,,,,,,,,,,,,,,,,,,,,,,,,,,,,,,,,None,,334.18578959999985,None,334.18578959999985,None,2022-01-21-11:37:21.619882,334.1967904000003,334.50314870000057,334.1967904000003,None,None,334.1967904000003,None,335.00241330000034,None,,,,22003,0002,2022_Jan_21_1132,localizer,2021.1.3,60.35662314351249,
block,faces,faces071.bmp,,,,,0,142,142,142,,,,,,,,,,,,,,,,,,,,,,,,,,,,,,,,,,,,,,,,,,None,,335.00241330000034,None,335.00241330000034,None,2022-01-21-11:37:22.436307,335.00882080000065,335.3197504,335.00882080000065,None,None,335.00882080000065,None,335.81883160000024,None,,,,22003,0002,2022_Jan_21_1132,localizer,2021.1.3,60.35662314351249,
block,faces,faces053.bmp,,,,,0,143,143,143,,,,,,,,,,,,,,,,,,,,,,,,,,,,,,,,,,,,,,,,,,None,,335.81883160000024,None,335.81883160000024,None,2022-01-21-11:37:23.252735,335.8200940000006,336.13587280000047,335.8200940000006,None,None,335.8200940000006,None,336.6356726000001,None,,,,22003,0002,2022_Jan_21_1132,localizer,2021.1.3,60.35662314351249,
block,faces,faces037.bmp,,,,,0,144,144,144,,,,,,,,,,,,,,,,,,,,,,,,,,,,,,,,,,,,,,,,,,None,,336.6356726000001,None,336.6356726000001,None,2022-01-21-11:37:24.069741,336.6446950999998,336.9528786000001,336.6446950999998,None,None,336.6446950999998,None,337.4524494000004,None,,,,22003,0002,2022_Jan_21_1132,localizer,2021.1.3,60.35662314351249,
block,faces,faces056.bmp,,,,,0,145,145,145,,,,,,,,,,,,,,,,,,,,,,,,,,,,,,,,,,,,,,,,,,None,,337.4524494000004,None,337.4524494000004,None,2022-01-21-11:37:24.886605,337.4535609000004,337.76910360000056,337.4535609000004,None,None,337.4535609000004,None,338.2690907000003,None,,,,22003,0002,2022_Jan_21_1132,localizer,2021.1.3,60.35662314351249,
block,faces,faces002.bmp,,,,,0,146,146,146,,,,,,,,,,,,,,,,,,,,,,,,,,,,,,,,,,,,,,,,,,None,,338.2690907000003,None,338.2690907000003,None,2022-01-21-11:37:25.703007,338.27004860000034,338.5755815000002,338.27004860000034,None,None,338.27004860000034,None,339.08587360000064,None,,,,22003,0002,2022_Jan_21_1132,localizer,2021.1.3,60.35662314351249,
block,faces,faces016.bmp,,,,,0,147,147,147,,,,,,,,,,,,,,,,,,,,,,,,,,,,,,,,,,,,,,,,,,None,,339.08587360000064,None,339.08587360000064,None,2022-01-21-11:37:26.519804,339.08705420000024,339.4024323000003,339.08705420000024,None,None,339.08705420000024,None,339.9025411999998,None,,,,22003,0002,2022_Jan_21_1132,localizer,2021.1.3,60.35662314351249,
block,faces,faces003.bmp,,,,,0,148,148,148,,,,,,,,,,,,,,,,,,,,,,,,,,,,,,,,,,,,,,,,,,None,,339.9025411999998,None,339.9025411999998,None,2022-01-21-11:37:27.336767,339.90335159999995,340.21925310000006,339.90335159999995,None,None,339.90335159999995,None,340.7037533999998,None,,,,22003,0002,2022_Jan_21_1132,localizer,2021.1.3,60.35662314351249,
block,faces,faces050.bmp,,,,,0,149,149,149,,,,,,,,,,,,,,,,,,,,,,,,,,,,,,,,,,,,,,,,,,None,,340.7037533999998,None,340.7037533999998,None,2022-01-21-11:37:28.143655,340.7102693000006,341.0192543000003,340.7102693000006,340.7102693000006,None,340.7102693000006,340.7102693000006,341.5201764999999,None,,,,22003,0002,2022_Jan_21_1132,localizer,2021.1.3,60.35662314351249,
block,faces,faces047.bmp,,,,,0,150,150,150,,,,,,,,,,,,,,,,,,,,,,,,,,,,,,,,,,,,,,,,,,None,,341.5201764999999,None,341.5201764999999,None,2022-01-21-11:37:28.958226,341.52448559999993,341.8364638000003,341.52448559999993,None,None,341.52448559999993,None,342.33580990000036,None,,,,22003,0002,2022_Jan_21_1132,localizer,2021.1.3,60.35662314351249,
block_end,faces,faces075.bmp,,,,,0,151,151,151,,,,,,,,,,,,,,,,,,,,,,,,,,,,,,,,,,,,,,,,,,None,,342.33580990000036,None,342.33580990000036,None,2022-01-21-11:37:29.769756,342.33676079999987,342.63611089999995,342.33676079999987,None,None,342.33676079999987,None,343.1383749000003,None,,,,22003,0002,2022_Jan_21_1132,localizer,2021.1.3,60.35662314351249,
block_start,scenes,scenes027.bmp,,,,,0,152,152,152,,,,,,,,,,,,,,,,,,,,,,,,,,,,,,,,,,,,,,,,,,t,1.7697720999995,343.1383467000005,None,343.1383467000005,None,2022-01-21-11:37:32.368550,344.93987650000054,345.2527226000002,344.93987650000054,None,None,344.93987650000054,None,345.7536772999999,None,,,,22003,0002,2022_Jan_21_1132,localizer,2021.1.3,60.35662314351249,
block,scenes,scenes088.bmp,,,,,0,153,153,153,,,,,,,,,,,,,,,,,,,,,,,,,,,,,,,,,,,,,,,,,,None,,345.7536772999999,None,345.7536772999999,None,2022-01-21-11:37:33.189629,345.7559974000005,346.06915910000043,345.7559974000005,None,None,345.7559974000005,None,346.5710659000003,None,,,,22003,0002,2022_Jan_21_1132,localizer,2021.1.3,60.35662314351249,
block,scenes,scenes056.bmp,,,,,0,154,154,154,,,,,,,,,,,,,,,,,,,,,,,,,,,,,,,,,,,,,,,,,,None,,346.5710659000003,None,346.5710659000003,None,2022-01-21-11:37:34.005051,346.5704727000002,346.88567890000013,346.5704727000002,None,None,346.5704727000002,None,347.3860261000006,None,,,,22003,0002,2022_Jan_21_1132,localizer,2021.1.3,60.35662314351249,
block,scenes,scenes064.bmp,,,,,0,155,155,155,,,,,,,,,,,,,,,,,,,,,,,,,,,,,,,,,,,,,,,,,,None,,347.3860261000006,None,347.3860261000006,None,2022-01-21-11:37:34.819936,347.3974758000004,347.7025628000001,347.3974758000004,None,None,347.3974758000004,None,348.19195760000065,None,,,,22003,0002,2022_Jan_21_1132,localizer,2021.1.3,60.35662314351249,
block,scenes,scenes014.bmp,,,,,0,156,156,156,,,,,,,,,,,,,,,,,,,,,,,,,,,,,,,,,,,,,,,,,,None,,348.19195760000065,None,348.19195760000065,None,2022-01-21-11:37:35.633893,348.1992578999998,348.50242720000006,348.1992578999998,None,None,348.1992578999998,None,349.0022646000004,None,,,,22003,0002,2022_Jan_21_1132,localizer,2021.1.3,60.35662314351249,
block,scenes,scenes063.bmp,,,,,0,157,157,157,,,,,,,,,,,,,,,,,,,,,,,,,,,,,,,,,,,,,,,,,,None,,349.0022646000004,None,349.0022646000004,None,2022-01-21-11:37:36.436499,349.00361109999994,349.31914140000026,349.00361109999994,None,None,349.00361109999994,None,349.8192837000003,None,,,,22003,0002,2022_Jan_21_1132,localizer,2021.1.3,60.35662314351249,
block,scenes,scenes017.bmp,,,,,0,158,158,158,,,,,,,,,,,,,,,,,,,,,,,,,,,,,,,,,,,,,,,,,,None,,349.8192837000003,None,349.8192837000003,None,2022-01-21-11:37:37.253403,349.83048469999994,350.1361480000005,349.83048469999994,None,None,349.83048469999994,None,350.63603519999987,None,,,,22003,0002,2022_Jan_21_1132,localizer,2021.1.3,60.35662314351249,
block,scenes,scenes058.bmp,,,,,0,159,159,159,,,,,,,,,,,,,,,,,,,,,,,,,,,,,,,,,,,,,,,,,,None,,350.63603519999987,None,350.63603519999987,None,2022-01-21-11:37:38.070267,350.6369702000002,350.952319,350.6369702000002,None,None,350.6369702000002,None,351.4524036999998,None,,,,22003,0002,2022_Jan_21_1132,localizer,2021.1.3,60.35662314351249,
block,scenes,scenes077.bmp,,,,,0,160,160,160,,,,,,,,,,,,,,,,,,,,,,,,,,,,,,,,,,,,,,,,,,None,,351.4524036999998,None,351.4524036999998,None,2022-01-21-11:37:38.886420,351.4627625000003,351.7701011999998,351.4627625000003,None,None,351.4627625000003,None,352.2583964000002,None,,,,22003,0002,2022_Jan_21_1132,localizer,2021.1.3,60.35662314351249,
block,scenes,scenes074.bmp,,,,,0,161,161,161,,,,,,,,,,,,,,,,,,,,,,,,,,,,,,,,,,,,,,,,,,None,,352.2583964000002,None,352.2583964000002,None,2022-01-21-11:37:39.700360,352.2644158000003,352.5747416000004,352.2644158000003,None,None,352.2644158000003,None,353.06885570000003,None,,,,22003,0002,2022_Jan_21_1132,localizer,2021.1.3,60.35662314351249,
block,scenes,scenes020.bmp,,,,,0,162,162,162,,,,,,,,,,,,,,,,,,,,,,,,,,,,,,,,,,,,,,,,,,None,,353.06885570000003,None,353.06885570000003,None,2022-01-21-11:37:40.501893,353.07042550000006,353.38580809999985,353.07042550000006,None,None,353.07042550000006,None,353.8857783,None,,,,22003,0002,2022_Jan_21_1132,localizer,2021.1.3,60.35662314351249,
block,scenes,scenes078.bmp,,,,,0,163,163,163,,,,,,,,,,,,,,,,,,,,,,,,,,,,,,,,,,,,,,,,,,None,,353.8857783,None,353.8857783,None,2022-01-21-11:37:41.319813,353.89637550000043,354.2029385000005,353.89637550000043,None,None,353.89637550000043,None,354.70270279999994,None,,,,22003,0002,2022_Jan_21_1132,localizer,2021.1.3,60.35662314351249,
block,scenes,scenes019.bmp,,,,,0,164,164,164,,,,,,,,,,,,,,,,,,,,,,,,,,,,,,,,,,,,,,,,,,None,,354.70270279999994,None,354.70270279999994,None,2022-01-21-11:37:42.137333,354.70366470000045,355.01944530000037,354.70366470000045,None,None,354.70366470000045,None,355.50307740000034,None,,,,22003,0002,2022_Jan_21_1132,localizer,2021.1.3,60.35662314351249,
block,scenes,scenes008.bmp,,,,,0,165,165,165,,,,,,,,,,,,,,,,,,,,,,,,,,,,,,,,,,,,,,,,,,None,,355.50307740000034,None,355.50307740000034,None,2022-01-21-11:37:42.940101,355.50633149999976,355.81997370000045,355.50633149999976,355.50633149999976,None,355.50633149999976,355.50633149999976,356.3249738000001,None,,,,22003,0002,2022_Jan_21_1132,localizer,2021.1.3,60.35662314351249,
block_end,scenes,scenes051.bmp,,,,,0,166,166,166,,,,,,,,,,,,,,,,,,,,,,,,,,,,,,,,,,,,,,,,,,None,,356.3249738000001,None,356.3249738000001,None,2022-01-21-11:37:43.765001,356.3409089000006,356.65248919999976,356.3409089000006,None,None,356.3409089000006,None,357.1357286999998,None,,,,22003,0002,2022_Jan_21_1132,localizer,2021.1.3,60.35662314351249,
null_block,null_block,null_block.bmp,,,,,0,167,167,167,,,,,,,,,,,,,,,,,,,,,,,,,,,,,,,,,,,,,,,,,,t,1.7722695000002204,357.13588359999994,None,357.13588359999994,None,2022-01-21-11:37:46.368502,358.9354237000004,None,358.9354237000004,None,None,358.9354237000004,None,358.9383544000002,None,,,,22003,0002,2022_Jan_21_1132,localizer,2021.1.3,60.35662314351249,
block_start,objects,objects060.bmp,,,,,0,168,168,168,,,,,,,,,,,,,,,,,,,,,,,,,,,,,,,,,,,,,,,,,,t,1.955124899999646,370.95300399999996,None,370.95300399999996,None,2022-01-21-11:38:00.371214,372.94789970000056,373.2526886000005,372.94789970000056,None,None,372.94789970000056,None,373.7532480000006,None,,,,22003,0002,2022_Jan_21_1132,localizer,2021.1.3,60.35662314351249,
block,objects,objects012.bmp,,,,,0,169,169,169,,,,,,,,,,,,,,,,,,,,,,,,,,,,,,,,,,,,,,,,,,None,,373.7532480000006,None,373.7532480000006,None,2022-01-21-11:38:01.188267,373.7662908000002,374.0700020000004,373.7662908000002,None,None,373.7662908000002,None,374.57663569999994,None,,,,22003,0002,2022_Jan_21_1132,localizer,2021.1.3,60.35662314351249,
block,objects,objects018.bmp,,,,,0,170,170,170,,,,,,,,,,,,,,,,,,,,,,,,,,,,,,,,,,,,,,,,,,None,,374.57663569999994,None,374.57663569999994,None,2022-01-21-11:38:02.016543,374.59450950000064,374.90266020000035,374.59450950000064,None,None,374.59450950000064,None,375.3862685000001,None,,,,22003,0002,2022_Jan_21_1132,localizer,2021.1.3,60.35662314351249,
block,objects,objects006.bmp,,,,,0,171,171,171,,,,,,,,,,,,,,,,,,,,,,,,,,,,,,,,,,,,,,,,,,None,,375.3862685000001,None,375.3862685000001,None,2022-01-21-11:38:02.821564,375.39736600000015,375.7026018000006,375.39736600000015,None,None,375.39736600000015,None,376.20260449999995,None,,,,22003,0002,2022_Jan_21_1132,localizer,2021.1.3,60.35662314351249,
block,objects,objects074.bmp,,,,,0,172,172,172,,,,,,,,,,,,,,,,,,,,,,,,,,,,,,,,,,,,,,,,,,None,,376.20260449999995,None,376.20260449999995,None,2022-01-21-11:38:03.636799,376.2035777000001,376.5194233000002,376.2035777000001,None,None,376.2035777000001,None,377.0191780000002,None,,,,22003,0002,2022_Jan_21_1132,localizer,2021.1.3,60.35662314351249,
block,objects,objects056.bmp,,,,,0,173,173,173,,,,,,,,,,,,,,,,,,,,,,,,,,,,,,,,,,,,,,,,,,None,,377.0191780000002,None,377.0191780000002,None,2022-01-21-11:38:04.453385,377.02880189999996,377.33593800000017,377.02880189999996,None,None,377.02880189999996,None,377.8364066000001,None,,,,22003,0002,2022_Jan_21_1132,localizer,2021.1.3,60.35662314351249,
block,objects,objects035.bmp,,,,,0,174,174,174,,,,,,,,,,,,,,,,,,,,,,,,,,,,,,,,,,,,,,,,,,None,,377.8364066000001,None,377.8364066000001,None,2022-01-21-11:38:05.271650,377.84732410000015,378.15239160000056,377.84732410000015,None,None,377.84732410000015,None,378.6530668000002,None,,,,22003,0002,2022_Jan_21_1132,localizer,2021.1.3,60.35662314351249,
block,objects,objects064.bmp,,,,,0,175,175,175,,,,,,,,,,,,,,,,,,,,,,,,,,,,,,,,,,,,,,,,,,None,,378.6530668000002,None,378.6530668000002,None,2022-01-21-11:38:06.088157,378.65411720000066,378.95320790000005,378.65411720000066,None,None,378.65411720000066,None,379.45316880000036,None,,,,22003,0002,2022_Jan_21_1132,localizer,2021.1.3,60.35662314351249,
block,objects,objects066.bmp,,,,,0,176,176,176,,,,,,,,,,,,,,,,,,,,,,,,,,,,,,,,,,,,,,,,,,None,,379.45316880000036,None,379.45316880000036,None,2022-01-21-11:38:06.890373,379.46671289999995,379.7694031000001,379.46671289999995,379.46671289999995,None,379.46671289999995,379.46671289999995,380.2691163000006,None,,,,22003,0002,2022_Jan_21_1132,localizer,2021.1.3,60.35662314351249,
block,objects,objects019.bmp,,,,,0,177,177,177,,,,,,,,,,,,,,,,,,,,,,,,,,,,,,,,,,,,,,,,,,None,,380.2691163000006,None,380.2691163000006,None,2022-01-21-11:38:07.703393,380.2705169000001,380.58600620000016,380.2705169000001,None,None,380.2705169000001,None,381.0754826999998,None,,,,22003,0002,2022_Jan_21_1132,localizer,2021.1.3,60.35662314351249,
block,objects,objects063.bmp,,,,,0,178,178,178,,,,,,,,,,,,,,,,,,,,,,,,,,,,,,,,,,,,,,,,,,None,,381.0754826999998,None,381.0754826999998,None,2022-01-21-11:38:08.517575,381.08161310000014,381.38625760000014,381.08161310000014,None,None,381.08161310000014,None,381.885911,None,,,,22003,0002,2022_Jan_21_1132,localizer,2021.1.3,60.35662314351249,
block,objects,objects005.bmp,,,,,0,179,179,179,,,,,,,,,,,,,,,,,,,,,,,,,,,,,,,,,,,,,,,,,,None,,381.885911,None,381.885911,None,2022-01-21-11:38:09.320226,381.89628750000065,382.20333220000066,381.89628750000065,None,None,381.89628750000065,None,382.70383569999984,None,,,,22003,0002,2022_Jan_21_1132,localizer,2021.1.3,60.35662314351249,
block,objects,objects059.bmp,,,,,0,180,180,180,,,,,,,,,,,,,,,,,,,,,,,,,,,,,,,,,,,,,,,,,,None,,382.70383569999984,None,382.70383569999984,None,2022-01-21-11:38:10.139243,382.7134194999999,383.0197484,382.7134194999999,None,None,382.7134194999999,None,383.5196348000006,None,,,,22003,0002,2022_Jan_21_1132,localizer,2021.1.3,60.35662314351249,
block,objects,objects051.bmp,,,,,0,181,181,181,,,,,,,,,,,,,,,,,,,,,,,,,,,,,,,,,,,,,,,,,,None,,383.5196348000006,None,383.5196348000006,None,2022-01-21-11:38:10.953922,383.52956240000003,383.8366581,383.52956240000003,None,None,383.52956240000003,None,384.3367132999999,None,,,,22003,0002,2022_Jan_21_1132,localizer,2021.1.3,60.35662314351249,
block_end,objects,objects058.bmp,,,,,0,182,182,182,,,,,,,,,,,,,,,,,,,,,,,,,,,,,,,,,,,,,,,,,,None,,384.3367132999999,None,384.3367132999999,None,2022-01-21-11:38:11.772697,384.3501900000001,384.6527630999999,384.3501900000001,None,None,384.3501900000001,None,385.15392519999995,None,,,,22003,0002,2022_Jan_21_1132,localizer,2021.1.3,60.35662314351249,
block_start,faces,faces005.bmp,,,,,0,183,183,183,,,,,,,,,,,,,,,,,,,,,,,,,,,,,,,,,,,,,,,,,,t,1.7540805999997247,385.1540313000005,None,385.1540313000005,None,2022-01-21-11:38:14.370788,386.93717710000055,387.25288739999996,386.93717710000055,None,None,386.93717710000055,None,387.75269160000033,None,,,,22003,0002,2022_Jan_21_1132,localizer,2021.1.3,60.35662314351249,
block,faces,faces055.bmp,,,,,0,184,184,184,,,,,,,,,,,,,,,,,,,,,,,,,,,,,,,,,,,,,,,,,,None,,387.75269160000033,None,387.75269160000033,None,2022-01-21-11:38:15.186976,387.7536770000006,388.05290310000055,387.7536770000006,None,None,387.7536770000006,None,388.55290459999986,None,,,,22003,0002,2022_Jan_21_1132,localizer,2021.1.3,60.35662314351249,
block,faces,faces042.bmp,,,,,0,185,185,185,,,,,,,,,,,,,,,,,,,,,,,,,,,,,,,,,,,,,,,,,,None,,388.55290459999986,None,388.55290459999986,None,2022-01-21-11:38:15.989216,388.55411840000033,388.8694819000002,388.55411840000033,388.55411840000033,None,388.55411840000033,388.55411840000033,389.3693428000003,None,,,,22003,0002,2022_Jan_21_1132,localizer,2021.1.3,60.35662314351249,
block,faces,faces077.bmp,,,,,0,186,186,186,,,,,,,,,,,,,,,,,,,,,,,,,,,,,,,,,,,,,,,,,,None,,389.3693428000003,None,389.3693428000003,None,2022-01-21-11:38:16.803640,389.38055350000013,389.6860267000002,389.38055350000013,None,None,389.38055350000013,None,390.18620100000015,None,,,,22003,0002,2022_Jan_21_1132,localizer,2021.1.3,60.35662314351249,
block,faces,faces012.bmp,,,,,0,187,187,187,,,,,,,,,,,,,,,,,,,,,,,,,,,,,,,,,,,,,,,,,,None,,390.18620100000015,None,390.18620100000015,None,2022-01-21-11:38:17.620522,390.1963873000004,390.50277170000027,390.1963873000004,None,None,390.1963873000004,None,391.0028994000001,None,,,,22003,0002,2022_Jan_21_1132,localizer,2021.1.3,60.35662314351249,
block,faces,faces064.bmp,,,,,0,188,188,188,,,,,,,,,,,,,,,,,,,,,,,,,,,,,,,,,,,,,,,,,,None,,391.0028994000001,None,391.0028994000001,None,2022-01-21-11:38:18.437283,391.0037444999998,391.3194416000006,391.0037444999998,None,None,391.0037444999998,None,391.8193183999999,None,,,,22003,0002,2022_Jan_21_1132,localizer,2021.1.3,60.35662314351249,
block,faces,faces050.bmp,,,,,0,189,189,189,,,,,,,,,,,,,,,,,,,,,,,,,,,,,,,,,,,,,,,,,,None,,391.8193183999999,None,391.8193183999999,None,2022-01-21-11:38:19.253634,391.8204302000004,392.1204452000002,391.8204302000004,None,None,391.8204302000004,None,392.61946140000026,None,,,,22003,0002,2022_Jan_21_1132,localizer,2021.1.3,60.35662314351249,
block,faces,faces047.bmp,,,,,0,190,190,190,,,,,,,,,,,,,,,,,,,,,,,,,,,,,,,,,,,,,,,,,,None,,392.61946140000026,None,392.61946140000026,None,2022-01-21-11:38:20.055713,392.6209641000005,392.92011830000047,392.6209641000005,392.6209641000005,None,392.6209641000005,392.6209641000005,393.4365278000002,None,,,,22003,0002,2022_Jan_21_1132,localizer,2021.1.3,60.35662314351249,
block,faces,faces035.bmp,,,,,0,191,191,191,,,,,,,,,,,,,,,,,,,,,,,,,,,,,,,,,,,,,,,,,,None,,393.4365278000002,None,393.4365278000002,None,2022-01-21-11:38:20.872030,393.44904140000017,393.7525277000004,393.44904140000017,None,None,393.44904140000017,None,394.2529793999999,None,,,,22003,0002,2022_Jan_21_1132,localizer,2021.1.3,60.35662314351249,
block,faces,faces051.bmp,,,,,0,192,192,192,,,,,,,,,,,,,,,,,,,,,,,,,,,,,,,,,,,,,,,,,,None,,394.2529793999999,None,394.2529793999999,None,2022-01-21-11:38:21.688332,394.2648327000006,394.5696274000002,394.2648327000006,None,None,394.2648327000006,None,395.0692556999999,None,,,,22003,0002,2022_Jan_21_1132,localizer,2021.1.3,60.35662314351249,
block,faces,faces086.bmp,,,,,0,193,193,193,,,,,,,,,,,,,,,,,,,,,,,,,,,,,,,,,,,,,,,,,,None,,395.0692556999999,None,395.0692556999999,None,2022-01-21-11:38:22.504378,395.07055709999986,395.3863858000004,395.07055709999986,None,None,395.07055709999986,None,395.86965220000064,None,,,,22003,0002,2022_Jan_21_1132,localizer,2021.1.3,60.35662314351249,
block,faces,faces078.bmp,,,,,0,194,194,194,,,,,,,,,,,,,,,,,,,,,,,,,,,,,,,,,,,,,,,,,,None,,395.86965220000064,None,395.86965220000064,None,2022-01-21-11:38:23.305989,395.87253969999983,396.1861534999998,395.87253969999983,395.87253969999983,None,395.87253969999983,395.87253969999983,396.6862716000002,None,,,,22003,0002,2022_Jan_21_1132,localizer,2021.1.3,60.35662314351249,
block,faces,faces007.bmp,,,,,0,195,195,195,,,,,,,,,,,,,,,,,,,,,,,,,,,,,,,,,,,,,,,,,,None,,396.6862716000002,None,396.6862716000002,None,2022-01-21-11:38:24.121253,396.6983682,397.0087757000001,396.6983682,None,None,396.6983682,None,397.50334340000035,None,,,,22003,0002,2022_Jan_21_1132,localizer,2021.1.3,60.35662314351249,
block,faces,faces014.bmp,,,,,0,196,196,196,,,,,,,,,,,,,,,,,,,,,,,,,,,,,,,,,,,,,,,,,,None,,397.50334340000035,None,397.50334340000035,None,2022-01-21-11:38:24.938665,397.5116732000006,397.8199543999999,397.5116732000006,None,None,397.5116732000006,None,398.32546450000035,None,,,,22003,0002,2022_Jan_21_1132,localizer,2021.1.3,60.35662314351249,
block_end,faces,faces018.bmp,,,,,0,197,197,197,,,,,,,,,,,,,,,,,,,,,,,,,,,,,,,,,,,,,,,,,,None,,398.32546450000035,None,398.32546450000035,None,2022-01-21-11:38:25.767775,398.3326385999999,398.63676230000056,398.3326385999999,None,None,398.3326385999999,None,399.13851349999976,None,,,,22003,0002,2022_Jan_21_1132,localizer,2021.1.3,60.35662314351249,
block_start,scrambled,scrambled033.bmp,,,,,0,198,198,198,,,,,,,,,,,,,,,,,,,,,,,,,,,,,,,,,,,,,,,,,,t,1.769017900000108,399.1393238999999,None,399.1393238999999,None,2022-01-21-11:38:28.373674,400.9399844999998,401.2529921000005,400.9399844999998,None,None,400.9399844999998,None,401.7528760000002,None,,,,22003,0002,2022_Jan_21_1132,localizer,2021.1.3,60.35662314351249,
block,scrambled,scrambled061.bmp,,,,,0,199,199,199,,,,,,,,,,,,,,,,,,,,,,,,,,,,,,,,,,,,,,,,,,None,,401.7528760000002,None,401.7528760000002,None,2022-01-21-11:38:29.188051,401.7538015,402.0530740000004,401.7538015,None,None,401.7538015,None,402.553071,None,,,,22003,0002,2022_Jan_21_1132,localizer,2021.1.3,60.35662314351249,
block,scrambled,scrambled057.bmp,,,,,0,200,200,200,,,,,,,,,,,,,,,,,,,,,,,,,,,,,,,,,,,,,,,,,,None,,402.553071,None,402.553071,None,2022-01-21-11:38:29.989458,402.5651889999999,402.86974350000037,402.5651889999999,402.5651889999999,None,402.5651889999999,402.5651889999999,403.36958040000053,None,,,,22003,0002,2022_Jan_21_1132,localizer,2021.1.3,60.35662314351249,
block,scrambled,scrambled012.bmp,,,,,0,201,201,201,,,,,,,,,,,,,,,,,,,,,,,,,,,,,,,,,,,,,,,,,,None,,403.36958040000053,None,403.36958040000053,None,2022-01-21-11:38:30.803980,403.3705294000001,403.67037489999984,403.3705294000001,None,None,403.3705294000001,None,404.1860807,None,,,,22003,0002,2022_Jan_21_1132,localizer,2021.1.3,60.35662314351249,
block,scrambled,scrambled013.bmp,,,,,0,202,202,202,,,,,,,,,,,,,,,,,,,,,,,,,,,,,,,,,,,,,,,,,,None,,404.1860807,None,404.1860807,None,2022-01-21-11:38:31.620594,404.1871603999998,404.4864773999998,404.1871603999998,None,None,404.1871603999998,None,404.98690419999974,None,,,,22003,0002,2022_Jan_21_1132,localizer,2021.1.3,60.35662314351249,
block,scrambled,scrambled062.bmp,,,,,0,203,203,203,,,,,,,,,,,,,,,,,,,,,,,,,,,,,,,,,,,,,,,,,,None,,404.98690419999974,None,404.98690419999974,None,2022-01-21-11:38:32.424340,405.0012864999999,405.3029882000001,405.0012864999999,405.0012864999999,None,405.0012864999999,405.0012864999999,405.8030531000001,None,,,,22003,0002,2022_Jan_21_1132,localizer,2021.1.3,60.35662314351249,
block,scrambled,scrambled068.bmp,,,,,0,204,204,204,,,,,,,,,,,,,,,,,,,,,,,,,,,,,,,,,,,,,,,,,,None,,405.8030531000001,None,405.8030531000001,None,2022-01-21-11:38:33.237466,405.80395080000017,406.1196295999998,405.80395080000017,None,None,405.80395080000017,None,406.60325189999975,None,,,,22003,0002,2022_Jan_21_1132,localizer,2021.1.3,60.35662314351249,
block,scrambled,scrambled050.bmp,,,,,0,205,205,205,,,,,,,,,,,,,,,,,,,,,,,,,,,,,,,,,,,,,,,,,,None,,406.60325189999975,None,406.60325189999975,None,2022-01-21-11:38:34.040869,406.6164711000001,406.92001679999976,406.6164711000001,406.6164711000001,None,406.6164711000001,406.6164711000001,407.4198551000006,None,,,,22003,0002,2022_Jan_21_1132,localizer,2021.1.3,60.35662314351249,
block,scrambled,scrambled085.bmp,,,,,0,206,206,206,,,,,,,,,,,,,,,,,,,,,,,,,,,,,,,,,,,,,,,,,,None,,407.4198551000006,None,407.4198551000006,None,2022-01-21-11:38:34.855395,407.4205929999998,407.7205254999999,407.4205929999998,None,None,407.4205929999998,None,408.22019880000033,None,,,,22003,0002,2022_Jan_21_1132,localizer,2021.1.3,60.35662314351249,
block,scrambled,scrambled048.bmp,,,,,0,207,207,207,,,,,,,,,,,,,,,,,,,,,,,,,,,,,,,,,,,,,,,,,,None,,408.22019880000033,None,408.22019880000033,None,2022-01-21-11:38:35.657616,408.2337744000006,408.53622859999996,408.2337744000006,408.2337744000006,None,408.2337744000006,408.2337744000006,409.03726310000064,None,,,,22003,0002,2022_Jan_21_1132,localizer,2021.1.3,60.35662314351249,
block,scrambled,scrambled064.bmp,,,,,0,208,208,208,,,,,,,,,,,,,,,,,,,,,,,,,,,,,,,,,,,,,,,,,,None,,409.03726310000064,None,409.03726310000064,None,2022-01-21-11:38:36.473868,409.0404957999999,409.35301400000026,409.0404957999999,None,None,409.0404957999999,None,409.85300140000044,None,,,,22003,0002,2022_Jan_21_1132,localizer,2021.1.3,60.35662314351249,
block,scrambled,scrambled027.bmp,,,,,0,209,209,209,,,,,,,,,,,,,,,,,,,,,,,,,,,,,,,,,,,,,,,,,,None,,409.85300140000044,None,409.85300140000044,None,2022-01-21-11:38:37.287449,409.8539144000006,410.1694643999999,409.8539144000006,None,None,409.8539144000006,None,410.66939690000044,None,,,,22003,0002,2022_Jan_21_1132,localizer,2021.1.3,60.35662314351249,
block,scrambled,scrambled036.bmp,,,,,0,210,210,210,,,,,,,,,,,,,,,,,,,,,,,,,,,,,,,,,,,,,,,,,,None,,410.66939690000044,None,410.66939690000044,None,2022-01-21-11:38:38.103701,410.67836030000035,410.98626220000006,410.67836030000035,None,None,410.67836030000035,None,411.48616139999984,None,,,,22003,0002,2022_Jan_21_1132,localizer,2021.1.3,60.35662314351249,
block,scrambled,scrambled088.bmp,,,,,0,211,211,211,,,,,,,,,,,,,,,,,,,,,,,,,,,,,,,,,,,,,,,,,,None,,411.48616139999984,None,411.48616139999984,None,2022-01-21-11:38:38.920623,411.48703750000004,411.7864166999998,411.48703750000004,None,None,411.48703750000004,None,412.3029215000003,None,,,,22003,0002,2022_Jan_21_1132,localizer,2021.1.3,60.35662314351249,
block_end,scrambled,scrambled053.bmp,,,,,0,212,212,212,,,,,,,,,,,,,,,,,,,,,,,,,,,,,,,,,,,,,,,,,,None,,412.3029215000003,None,412.3029215000003,None,2022-01-21-11:38:39.737389,412.30386270000054,412.6197066000004,412.30386270000054,None,None,412.30386270000054,None,413.10336520000027,None,,,,22003,0002,2022_Jan_21_1132,localizer,2021.1.3,60.35662314351249,
null_block,null_block,null_block.bmp,,,,,0,213,213,213,,,,,,,,,,,,,,,,,,,,,,,,,,,,,,,,,,,,,,,,,,t,1.8042225999997754,413.10385339999993,None,413.10385339999993,None,2022-01-21-11:38:42.369660,414.9361698999998,None,414.9361698999998,None,None,414.9361698999998,None,414.93884979999984,None,,,,22003,0002,2022_Jan_21_1132,localizer,2021.1.3,60.35662314351249,
block_start,scenes,scenes081.bmp,,,,,0,214,214,214,,,,,,,,,,,,,,,,,,,,,,,,,,,,,,,,,,,,,,,,,,t,1.9538695999999618,426.9531532000001,None,426.9531532000001,None,2022-01-21-11:38:56.371524,428.94705760000033,429.25292460000037,428.94705760000033,None,None,428.94705760000033,None,429.7541168000004,None,,,,22003,0002,2022_Jan_21_1132,localizer,2021.1.3,60.35662314351249,
block,scenes,scenes081.bmp,,,,,0,215,215,215,,,,,,,,,,,,,,,,,,,,,,,,,,,,,,,,,,,,,,,,,,None,,429.7541168000004,None,429.7541168000004,None,2022-01-21-11:38:57.190768,429.75760400000036,430.0710362,429.75760400000036,None,y,429.75760400000036,None,430.57077290000024,None,0.44739639999988867,,,22003,0002,2022_Jan_21_1132,localizer,2021.1.3,60.35662314351249,
block,scenes,scenes054.bmp,,,,,0,216,216,216,,,,,,,,,,,,,,,,,,,,,,,,,,,,,,,,,,,,,,,,,,None,,430.57077290000024,None,430.57077290000024,None,2022-01-21-11:38:58.007535,430.5744730000006,430.8876104000001,430.5744730000006,None,None,430.5744730000006,None,431.38752710000034,None,,,,22003,0002,2022_Jan_21_1132,localizer,2021.1.3,60.35662314351249,
block,scenes,scenes065.bmp,,,,,0,217,217,217,,,,,,,,,,,,,,,,,,,,,,,,,,,,,,,,,,,,,,,,,,None,,431.38752710000034,None,431.38752710000034,None,2022-01-21-11:38:58.823114,431.40036229999987,431.7036278000005,431.40036229999987,None,None,431.40036229999987,None,432.2036190000005,None,,,,22003,0002,2022_Jan_21_1132,localizer,2021.1.3,60.35662314351249,
block,scenes,scenes008.bmp,,,,,0,218,218,218,,,,,,,,,,,,,,,,,,,,,,,,,,,,,,,,,,,,,,,,,,None,,432.2036190000005,None,432.2036190000005,None,2022-01-21-11:38:59.639410,432.2061186000001,432.5204035000006,432.2061186000001,None,None,432.2061186000001,None,433.0192020000001,None,,,,22003,0002,2022_Jan_21_1132,localizer,2021.1.3,60.35662314351249,
block,scenes,scenes058.bmp,,,,,0,219,219,219,,,,,,,,,,,,,,,,,,,,,,,,,,,,,,,,,,,,,,,,,,None,,433.0192020000001,None,433.0192020000001,None,2022-01-21-11:39:00.453828,433.02120170000035,433.33634359999996,433.02120170000035,None,None,433.02120170000035,None,433.83610730000026,None,,,,22003,0002,2022_Jan_21_1132,localizer,2021.1.3,60.35662314351249,
block,scenes,scenes031.bmp,,,,,0,220,220,220,,,,,,,,,,,,,,,,,,,,,,,,,,,,,,,,,,,,,,,,,,None,,433.83610730000026,None,433.83610730000026,None,2022-01-21-11:39:01.270735,433.84562300000016,434.15304879999985,433.84562300000016,None,None,433.84562300000016,None,434.6528468000003,None,,,,22003,0002,2022_Jan_21_1132,localizer,2021.1.3,60.35662314351249,
block,scenes,scenes060.bmp,,,,,0,221,221,221,,,,,,,,,,,,,,,,,,,,,,,,,,,,,,,,,,,,,,,,,,None,,434.6528468000003,None,434.6528468000003,None,2022-01-21-11:39:02.087480,434.65406950000033,434.96967180000047,434.65406950000033,None,None,434.65406950000033,None,435.45347250000003,None,,,,22003,0002,2022_Jan_21_1132,localizer,2021.1.3,60.35662314351249,
block,scenes,scenes013.bmp,,,,,0,222,222,222,,,,,,,,,,,,,,,,,,,,,,,,,,,,,,,,,,,,,,,,,,None,,435.45347250000003,None,435.45347250000003,None,2022-01-21-11:39:02.891089,435.45671519999996,435.7697224000003,435.45671519999996,435.45671519999996,None,435.45671519999996,435.45671519999996,436.26947720000015,None,,,,22003,0002,2022_Jan_21_1132,localizer,2021.1.3,60.35662314351249,
block,scenes,scenes043.bmp,,,,,0,223,223,223,,,,,,,,,,,,,,,,,,,,,,,,,,,,,,,,,,,,,,,,,,None,,436.26947720000015,None,436.26947720000015,None,2022-01-21-11:39:03.704123,436.27902859999995,436.58645700000034,436.27902859999995,None,None,436.27902859999995,None,437.08599360000034,None,,,,22003,0002,2022_Jan_21_1132,localizer,2021.1.3,60.35662314351249,
block,scenes,scenes078.bmp,,,,,0,224,224,224,,,,,,,,,,,,,,,,,,,,,,,,,,,,,,,,,,,,,,,,,,None,,437.08599360000034,None,437.08599360000034,None,2022-01-21-11:39:04.520648,437.08738600000015,437.38672190000034,437.08738600000015,None,None,437.08738600000015,None,437.90277099999975,None,,,,22003,0002,2022_Jan_21_1132,localizer,2021.1.3,60.35662314351249,
block,scenes,scenes009.bmp,,,,,0,225,225,225,,,,,,,,,,,,,,,,,,,,,,,,,,,,,,,,,,,,,,,,,,None,,437.90277099999975,None,437.90277099999975,None,2022-01-21-11:39:05.337903,437.90428260000044,438.2197003000001,437.90428260000044,None,None,437.90428260000044,None,438.71941120000037,None,,,,22003,0002,2022_Jan_21_1132,localizer,2021.1.3,60.35662314351249,
block,scenes,scenes077.bmp,,,,,0,226,226,226,,,,,,,,,,,,,,,,,,,,,,,,,,,,,,,,,,,,,,,,,,None,,438.71941120000037,None,438.71941120000037,None,2022-01-21-11:39:06.154076,438.72076780000043,439.0204485000004,438.72076780000043,None,None,438.72076780000043,None,439.5201063000001,None,,,,22003,0002,2022_Jan_21_1132,localizer,2021.1.3,60.35662314351249,
block,scenes,scenes086.bmp,,,,,0,227,227,227,,,,,,,,,,,,,,,,,,,,,,,,,,,,,,,,,,,,,,,,,,None,,439.5201063000001,None,439.5201063000001,None,2022-01-21-11:39:06.957776,439.5340829000006,439.8369489000006,439.5340829000006,439.5340829000006,None,439.5340829000006,439.5340829000006,440.33526709999995,None,,,,22003,0002,2022_Jan_21_1132,localizer,2021.1.3,60.35662314351249,
block_end,scenes,scenes027.bmp,,,,,0,228,228,228,,,,,,,,,,,,,,,,,,,,,,,,,,,,,,,,,,,,,,,,,,None,,440.33526709999995,None,440.33526709999995,None,2022-01-21-11:39:07.768620,440.33765010000025,440.65297120000014,440.33765010000025,None,None,440.33765010000025,None,441.15300689999975,None,,,,22003,0002,2022_Jan_21_1132,localizer,2021.1.3,60.35662314351249,
block_start,objects,objects065.bmp,,,,,0,229,229,229,,,,,,,,,,,,,,,,,,,,,,,,,,,,,,,,,,,,,,,,,,t,1.7540759000003163,441.15294059999997,None,441.15294059999997,None,2022-01-21-11:39:10.370062,442.9457704000006,443.25304980000055,442.9457704000006,None,None,442.9457704000006,None,443.7528681999999,None,,,,22003,0002,2022_Jan_21_1132,localizer,2021.1.3,60.35662314351249,
block,objects,objects023.bmp,,,,,0,230,230,230,,,,,,,,,,,,,,,,,,,,,,,,,,,,,,,,,,,,,,,,,,None,,443.7528681999999,None,443.7528681999999,None,2022-01-21-11:39:11.187569,443.75395170000047,444.0696619999999,443.75395170000047,None,None,443.75395170000047,None,444.55699990000056,None,,,,22003,0002,2022_Jan_21_1132,localizer,2021.1.3,60.35662314351249,
block,objects,objects025.bmp,,,,,0,231,231,231,,,,,,,,,,,,,,,,,,,,,,,,,,,,,,,,,,,,,,,,,,None,,444.55699990000056,None,444.55699990000056,None,2022-01-21-11:39:12.001494,444.57799049999994,444.8865172000005,444.57799049999994,444.57799049999994,None,444.57799049999994,444.57799049999994,445.369531,None,,,,22003,0002,2022_Jan_21_1132,localizer,2021.1.3,60.35662314351249,
block,objects,objects087.bmp,,,,,0,232,232,232,,,,,,,,,,,,,,,,,,,,,,,,,,,,,,,,,,,,,,,,,,None,,445.369531,None,445.369531,None,2022-01-21-11:39:12.804246,445.37056910000047,445.68634290000045,445.37056910000047,None,None,445.37056910000047,None,446.1697213000004,None,,,,22003,0002,2022_Jan_21_1132,localizer,2021.1.3,60.35662314351249,
block,objects,objects078.bmp,,,,,0,233,233,233,,,,,,,,,,,,,,,,,,,,,,,,,,,,,,,,,,,,,,,,,,None,,446.1697213000004,None,446.1697213000004,None,2022-01-21-11:39:13.606632,446.17269900000065,446.48656389999996,446.17269900000065,446.17269900000065,None,446.17269900000065,446.17269900000065,446.9862280000004,None,,,,22003,0002,2022_Jan_21_1132,localizer,2021.1.3,60.35662314351249,
block,objects,objects041.bmp,,,,,0,234,234,234,,,,,,,,,,,,,,,,,,,,,,,,,,,,,,,,,,,,,,,,,,None,,446.9862280000004,None,446.9862280000004,None,2022-01-21-11:39:14.420953,446.9955869000005,447.3028912999998,446.9955869000005,None,None,446.9955869000005,None,447.8033849999999,None,,,,22003,0002,2022_Jan_21_1132,localizer,2021.1.3,60.35662314351249,
block,objects,objects024.bmp,,,,,0,235,235,235,,,,,,,,,,,,,,,,,,,,,,,,,,,,,,,,,,,,,,,,,,None,,447.8033849999999,None,447.8033849999999,None,2022-01-21-11:39:15.239128,447.8041536999999,448.1196213000003,447.8041536999999,None,None,447.8041536999999,None,448.6196678000003,None,,,,22003,0002,2022_Jan_21_1132,localizer,2021.1.3,60.35662314351249,
block,objects,objects016.bmp,,,,,0,236,236,236,,,,,,,,,,,,,,,,,,,,,,,,,,,,,,,,,,,,,,,,,,None,,448.6196678000003,None,448.6196678000003,None,2022-01-21-11:39:16.054403,448.6206821000005,448.91986180000004,448.6206821000005,None,None,448.6206821000005,None,449.41972440000035,None,,,,22003,0002,2022_Jan_21_1132,localizer,2021.1.3,60.35662314351249,
block,objects,objects035.bmp,,,,,0,237,237,237,,,,,,,,,,,,,,,,,,,,,,,,,,,,,,,,,,,,,,,,,,None,,449.41972440000035,None,449.41972440000035,None,2022-01-21-11:39:16.855462,449.4207565000006,449.7365024999999,449.4207565000006,449.4207565000006,None,449.4207565000006,449.4207565000006,450.23634100000044,None,,,,22003,0002,2022_Jan_21_1132,localizer,2021.1.3,60.35662314351249,
block,objects,objects059.bmp,,,,,0,238,238,238,,,,,,,,,,,,,,,,,,,,,,,,,,,,,,,,,,,,,,,,,,None,,450.23634100000044,None,450.23634100000044,None,2022-01-21-11:39:17.671088,450.2373988999998,450.5527566999999,450.2373988999998,None,None,450.2373988999998,None,451.03643359999995,None,,,,22003,0002,2022_Jan_21_1132,localizer,2021.1.3,60.35662314351249,
block,objects,objects011.bmp,,,,,0,239,239,239,,,,,,,,,,,,,,,,,,,,,,,,,,,,,,,,,,,,,,,,,,None,,451.03643359999995,None,451.03643359999995,None,2022-01-21-11:39:18.472185,451.04070219999994,451.35304630000064,451.04070219999994,451.04070219999994,None,451.04070219999994,451.04070219999994,451.8531497000001,None,,,,22003,0002,2022_Jan_21_1132,localizer,2021.1.3,60.35662314351249,
block,objects,objects052.bmp,,,,,0,240,240,240,,,,,,,,,,,,,,,,,,,,,,,,,,,,,,,,,,,,,,,,,,None,,451.8531497000001,None,451.8531497000001,None,2022-01-21-11:39:19.287735,451.8540326000002,452.1696960999998,451.8540326000002,None,None,451.8540326000002,None,452.6695768000006,None,,,,22003,0002,2022_Jan_21_1132,localizer,2021.1.3,60.35662314351249,
block,objects,objects079.bmp,,,,,0,241,241,241,,,,,,,,,,,,,,,,,,,,,,,,,,,,,,,,,,,,,,,,,,None,,452.6695768000006,None,452.6695768000006,None,2022-01-21-11:39:20.104345,452.6706899999999,452.98650160000034,452.6706899999999,None,None,452.6706899999999,None,453.46971249999996,None,,,,22003,0002,2022_Jan_21_1132,localizer,2021.1.3,60.35662314351249,
block,objects,objects068.bmp,,,,,0,242,242,242,,,,,,,,,,,,,,,,,,,,,,,,,,,,,,,,,,,,,,,,,,None,,453.46971249999996,None,453.46971249999996,None,2022-01-21-11:39:20.905481,453.4707306,453.7862618999998,453.4707306,453.4707306,None,453.4707306,453.4707306,454.2863721999999,None,,,,22003,0002,2022_Jan_21_1132,localizer,2021.1.3,60.35662314351249,
block_end,objects,objects051.bmp,,,,,0,243,243,243,,,,,,,,,,,,,,,,,,,,,,,,,,,,,,,,,,,,,,,,,,None,,454.2863721999999,None,454.2863721999999,None,2022-01-21-11:39:21.721148,454.28734600000007,454.5867868000005,454.28734600000007,None,None,454.28734600000007,None,455.0867122000006,None,,,,22003,0002,2022_Jan_21_1132,localizer,2021.1.3,60.35662314351249,
,,,,,,,,,,,,,,,,,,,,,,,,,,,,,,,,,,,,,,,,,,,,,,,,,,,,,,,,,,,,,,,,,,,,,455.0913827000004,None,,,,,,,
