block_type,condition,img_name,Button.thisRepN,Button.thisTrialN,Button.thisN,Button.thisIndex,trials.thisRepN,trials.thisTrialN,trials.thisN,trials.thisIndex,Ready_experimenter_text.started,Ready_experimenter_text.stopped,Ready_experimenter_resp.keys,Ready_experimenter_resp.rt,Ready_experimenter_resp.started,Ready_experimenter_resp.stopped,Alignment_background.started,Alignment_background.stopped,Alignment_image.started,Alignment_image.stopped,Alignment_resp.keys,Alignment_resp.rt,Alignment_resp.started,Alignment_resp.stopped,Button_text.started,Button_text.stopped,Index_text.started,Index_text.stopped,Index_resp.keys,Index_resp.rt,Index_resp.started,Index_resp.stopped,Middle_text.started,Middle_text.stopped,Middle_resp.keys,Middle_resp.rt,Middle_resp.started,Middle_resp.stopped,Repeat_text.started,Repeat_text.stopped,Repeat_resp.keys,Repeat_resp.corr,Repeat_resp.rt,Repeat_resp.started,Repeat_resp.stopped,instruction_text.started,instruction_text.stopped,key_resp.keys,key_resp.rt,key_resp.started,key_resp.stopped,scanner_t.keys,scanner_t.rt,scanner_t.started,scanner_t.stopped,fixation_wait_for_t.started,fixation_wait_for_t.stopped,real_timestamp_trial_start,image.started,image.stopped,fixation.started,fixation.stopped,repeat_response.keys,repeat_response.started,repeat_response.stopped,fixation_null.started,fixation_null.stopped,repeat_response.rt,end_text.started,end_text.stopped,participant,run,date,expName,psychopyVersion,frameRate,
,,,,,,,,,,,8.839067899854854,None,return,79.25706969993189,8.839067899854854,None,,,,,,,,,,,,,,,,,,,,,,,,,,,,,,,,,,,,,,,,,,,,,,,,,,,,,,,12013,0001,2022_Mar_09_1456,localizer,2021.1.3,60.61711866575837,
,,,,,,,,,,,,,,,,,88.15388799994253,None,88.15388799994253,None,return,10.07552419998683,88.15388799994253,None,,,,,,,,,,,,,,,,,,,,,,,,,,,,,,,,,,,,,,,,,,,,,,,12013,0001,2022_Mar_09_1456,localizer,2021.1.3,60.61711866575837,
,,,0,0,0,0,,,,,,,,,,,,,,,,,,,98.24788999999873,None,99.2593947998248,None,y,3.0717945999931544,99.2593947998248,None,102.35911599989049,None,b,1.048040600027889,102.35911599989049,None,103.42643140000291,None,n,0,31.776738800108433,103.42643140000291,None,,,,,,,,,,,,,,,,,,,,,,,,,,12013,0001,2022_Mar_09_1456,localizer,2021.1.3,60.61711866575837,
,,,,,,,,,,,,,,,,,,,,,,,,,,,,,,,,,,,,,,,,,,,,,,135.22569189989008,None,y,10.244663400109857,135.22569189989008,None,,,,,,,,,,,,,,,,,,,,12013,0001,2022_Mar_09_1456,localizer,2021.1.3,60.61711866575837,
null_block,null_block,null_block.bmp,,,,,0,0,0,0,,,,,,,,,,,,,,,,,,,,,,,,,,,,,,,,,,,,,,,,,,t,16.443054399918765,145.56229119980708,None,145.56229119980708,None,2022-03-09-14:58:53.362676,162.04380695987493,None,162.04380695987493,None,None,162.04380695987493,None,162.0439029999543,None,,,,12013,0001,2022_Mar_09_1456,localizer,2021.1.3,60.61711866575837,
block_start,scenes,scenes076.bmp,,,,,0,1,1,1,,,,,,,,,,,,,,,,,,,,,,,,,,,,,,,,,,,,,,,,,,t,1.9627628999296576,174.04248999990523,None,174.04248999990523,None,2022-03-09-14:59:07.363933,176.03737989999354,176.34237409988418,176.03737989999354,None,None,176.03737989999354,None,176.84353942982852,None,,,,12013,0001,2022_Mar_09_1456,localizer,2021.1.3,60.61711866575837,
block,scenes,scenes005.bmp,,,,,0,2,2,2,,,,,,,,,,,,,,,,,,,,,,,,,,,,,,,,,,,,,,,,,,None,,176.84353942982852,None,176.84353942982852,None,2022-03-09-14:59:08.181182,176.85517049999908,177.1593577999156,176.85517049999908,None,None,176.85517049999908,None,177.66104342998005,None,,,,12013,0001,2022_Mar_09_1456,localizer,2021.1.3,60.61711866575837,
block,scenes,scenes057.bmp,,,,,0,3,3,3,,,,,,,,,,,,,,,,,,,,,,,,,,,,,,,,,,,,,,,,,,None,,177.66104342998005,None,177.66104342998005,None,2022-03-09-14:59:08.999751,177.6767877000384,177.97606369992718,177.6767877000384,None,None,177.6767877000384,None,178.4763013299089,None,,,,12013,0001,2022_Mar_09_1456,localizer,2021.1.3,60.61711866575837,
block,scenes,scenes066.bmp,,,,,0,4,4,4,,,,,,,,,,,,,,,,,,,,,,,,,,,,,,,,,,,,,,,,,,None,,178.4763013299089,None,178.4763013299089,None,2022-03-09-14:59:09.812952,178.48732670000754,178.7930729999207,178.48732670000754,None,None,178.48732670000754,None,179.2929006300401,None,,,,12013,0001,2022_Mar_09_1456,localizer,2021.1.3,60.61711866575837,
block,scenes,scenes033.bmp,,,,,0,5,5,5,,,,,,,,,,,,,,,,,,,,,,,,,,,,,,,,,,,,,,,,,,None,,179.2929006300401,None,179.2929006300401,None,2022-03-09-14:59:10.629557,179.30287879984826,179.60926959989592,179.30287879984826,None,None,179.30287879984826,None,180.10952612990513,None,,,,12013,0001,2022_Mar_09_1456,localizer,2021.1.3,60.61711866575837,
block,scenes,scenes017.bmp,,,,,0,6,6,6,,,,,,,,,,,,,,,,,,,,,,,,,,,,,,,,,,,,,,,,,,None,,180.10952612990513,None,180.10952612990513,None,2022-03-09-14:59:11.446184,180.11919509992003,180.42610399983823,180.11919509992003,None,None,180.11919509992003,None,180.9264791298192,None,,,,12013,0001,2022_Mar_09_1456,localizer,2021.1.3,60.61711866575837,
block,scenes,scenes070.bmp,,,,,0,7,7,7,,,,,,,,,,,,,,,,,,,,,,,,,,,,,,,,,,,,,,,,,,None,,180.9264791298192,None,180.9264791298192,None,2022-03-09-14:59:12.263369,180.9373376998119,181.24302109982818,180.9373376998119,None,None,180.9373376998119,None,181.7431128299795,None,,,,12013,0001,2022_Mar_09_1456,localizer,2021.1.3,60.61711866575837,
block,scenes,scenes045.bmp,,,,,0,8,8,8,,,,,,,,,,,,,,,,,,,,,,,,,,,,,,,,,,,,,,,,,,None,,181.7431128299795,None,181.7431128299795,None,2022-03-09-14:59:13.079766,181.75416049989872,182.05918270000257,181.75416049989872,None,None,181.75416049989872,None,182.5597724299878,None,,,,12013,0001,2022_Mar_09_1456,localizer,2021.1.3,60.61711866575837,
block,scenes,scenes018.bmp,,,,,0,9,9,9,,,,,,,,,,,,,,,,,,,,,,,,,,,,,,,,,,,,,,,,,,None,,182.5597724299878,None,182.5597724299878,None,2022-03-09-14:59:13.896427,182.57086209999397,182.8762133999262,182.57086209999397,None,None,182.57086209999397,None,183.3785964299459,None,,,,12013,0001,2022_Mar_09_1456,localizer,2021.1.3,60.61711866575837,
block,scenes,scenes073.bmp,,,,,0,10,10,10,,,,,,,,,,,,,,,,,,,,,,,,,,,,,,,,,,,,,,,,,,None,,183.3785964299459,None,183.3785964299459,None,2022-03-09-14:59:14.719211,183.39578030002303,183.70926719997078,183.39578030002303,None,None,183.39578030002303,None,184.19298192998394,None,,,,12013,0001,2022_Mar_09_1456,localizer,2021.1.3,60.61711866575837,
block,scenes,scenes088.bmp,,,,,0,11,11,11,,,,,,,,,,,,,,,,,,,,,,,,,,,,,,,,,,,,,,,,,,None,,184.19298192998394,None,184.19298192998394,None,2022-03-09-14:59:15.528643,184.20292469998822,184.50909209996462,184.20292469998822,None,None,184.20292469998822,None,185.00977932987735,None,,,,12013,0001,2022_Mar_09_1456,localizer,2021.1.3,60.61711866575837,
block,scenes,scenes004.bmp,,,,,0,12,12,12,,,,,,,,,,,,,,,,,,,,,,,,,,,,,,,,,,,,,,,,,,None,,185.00977932987735,None,185.00977932987735,None,2022-03-09-14:59:16.346434,185.0255576998461,185.32690600003116,185.0255576998461,None,None,185.0255576998461,None,185.8267934299074,None,,,,12013,0001,2022_Mar_09_1456,localizer,2021.1.3,60.61711866575837,
block,scenes,scenes009.bmp,,,,,0,13,13,13,,,,,,,,,,,,,,,,,,,,,,,,,,,,,,,,,,,,,,,,,,None,,185.8267934299074,None,185.8267934299074,None,2022-03-09-14:59:17.164439,185.838546999963,186.14290650002658,185.838546999963,None,None,185.838546999963,None,186.6436721298378,None,,,,12013,0001,2022_Mar_09_1456,localizer,2021.1.3,60.61711866575837,
block,scenes,scenes049.bmp,,,,,0,14,14,14,,,,,,,,,,,,,,,,,,,,,,,,,,,,,,,,,,,,,,,,,,None,,186.6436721298378,None,186.6436721298378,None,2022-03-09-14:59:17.981344,186.6553883999586,186.95938090002164,186.6553883999586,None,None,186.6553883999586,None,187.4593441300094,None,,,,12013,0001,2022_Mar_09_1456,localizer,2021.1.3,60.61711866575837,
block_end,scenes,scenes020.bmp,,,,,0,15,15,15,,,,,,,,,,,,,,,,,,,,,,,,,,,,,,,,,,,,,,,,,,None,,187.4593441300094,None,187.4593441300094,None,2022-03-09-14:59:18.796151,187.46784409997053,187.77640410000458,187.46784409997053,None,None,187.46784409997053,None,188.27760432986543,None,,,,12013,0001,2022_Mar_09_1456,localizer,2021.1.3,60.61711866575837,
block_start,scrambled,scrambled070.bmp,,,,,0,16,16,16,,,,,,,,,,,,,,,,,,,,,,,,,,,,,,,,,,,,,,,,,,t,1.7277456000447273,188.2775242999196,None,188.2775242999196,None,2022-03-09-14:59:21.363196,190.0370528998319,190.34304949990474,190.0370528998319,None,None,190.0370528998319,None,190.8432037299499,None,,,,12013,0001,2022_Mar_09_1456,localizer,2021.1.3,60.61711866575837,
block,scrambled,scrambled082.bmp,,,,,0,17,17,17,,,,,,,,,,,,,,,,,,,,,,,,,,,,,,,,,,,,,,,,,,None,,190.8432037299499,None,190.8432037299499,None,2022-03-09-14:59:22.180093,190.85408369987272,191.15936259995215,190.85408369987272,None,None,190.85408369987272,None,191.6610127298627,None,,,,12013,0001,2022_Mar_09_1456,localizer,2021.1.3,60.61711866575837,
block,scrambled,scrambled063.bmp,,,,,0,18,18,18,,,,,,,,,,,,,,,,,,,,,,,,,,,,,,,,,,,,,,,,,,None,,191.6610127298627,None,191.6610127298627,None,2022-03-09-14:59:22.999624,191.67385619995184,191.97622449998744,191.67385619995184,None,None,191.67385619995184,None,192.47618812997825,None,,,,12013,0001,2022_Mar_09_1456,localizer,2021.1.3,60.61711866575837,
block,scrambled,scrambled023.bmp,,,,,0,19,19,19,,,,,,,,,,,,,,,,,,,,,,,,,,,,,,,,,,,,,,,,,,None,,192.47618812997825,None,192.47618812997825,None,2022-03-09-14:59:23.811852,192.48507289984263,192.79350229981355,192.48507289984263,None,None,192.48507289984263,None,193.29307462996803,None,,,,12013,0001,2022_Mar_09_1456,localizer,2021.1.3,60.61711866575837,
block,scrambled,scrambled001.bmp,,,,,0,20,20,20,,,,,,,,,,,,,,,,,,,,,,,,,,,,,,,,,,,,,,,,,,None,,193.29307462996803,None,193.29307462996803,None,2022-03-09-14:59:24.629730,193.30290309991688,193.60971620003693,193.30290309991688,None,None,193.30290309991688,None,194.1097598299384,None,,,,12013,0001,2022_Mar_09_1456,localizer,2021.1.3,60.61711866575837,
block,scrambled,scrambled061.bmp,,,,,0,21,21,21,,,,,,,,,,,,,,,,,,,,,,,,,,,,,,,,,,,,,,,,,,None,,194.1097598299384,None,194.1097598299384,None,2022-03-09-14:59:25.446416,194.11984269996174,194.42598399985582,194.11984269996174,None,None,194.11984269996174,None,194.92639852990396,None,,,,12013,0001,2022_Mar_09_1456,localizer,2021.1.3,60.61711866575837,
block,scrambled,scrambled022.bmp,,,,,0,22,22,22,,,,,,,,,,,,,,,,,,,,,,,,,,,,,,,,,,,,,,,,,,None,,194.92639852990396,None,194.92639852990396,None,2022-03-09-14:59:26.262633,194.93724059988745,195.24290889990516,194.93724059988745,None,None,194.93724059988745,None,195.74308912991546,None,,,,12013,0001,2022_Mar_09_1456,localizer,2021.1.3,60.61711866575837,
block,scrambled,scrambled040.bmp,,,,,0,23,23,23,,,,,,,,,,,,,,,,,,,,,,,,,,,,,,,,,,,,,,,,,,None,,195.74308912991546,None,195.74308912991546,None,2022-03-09-14:59:27.079745,195.75292070000432,196.0591947999783,195.75292070000432,None,None,195.75292070000432,None,196.55999143002555,None,,,,12013,0001,2022_Mar_09_1456,localizer,2021.1.3,60.61711866575837,
block,scrambled,scrambled031.bmp,,,,,0,24,24,24,,,,,,,,,,,,,,,,,,,,,,,,,,,,,,,,,,,,,,,,,,None,,196.55999143002555,None,196.55999143002555,None,2022-03-09-14:59:27.896667,196.5710109998472,196.87592220003717,196.5710109998472,None,None,196.5710109998472,None,197.375381229911,None,,,,12013,0001,2022_Mar_09_1456,localizer,2021.1.3,60.61711866575837,
block,scrambled,scrambled024.bmp,,,,,0,25,25,25,,,,,,,,,,,,,,,,,,,,,,,,,,,,,,,,,,,,,,,,,,None,,197.375381229911,None,197.375381229911,None,2022-03-09-14:59:28.711486,197.38394319987856,197.69308099988848,197.38394319987856,None,None,197.38394319987856,None,198.1931243299041,None,,,,12013,0001,2022_Mar_09_1456,localizer,2021.1.3,60.61711866575837,
block,scrambled,scrambled051.bmp,,,,,0,26,26,26,,,,,,,,,,,,,,,,,,,,,,,,,,,,,,,,,,,,,,,,,,None,,198.1931243299041,None,198.1931243299041,None,2022-03-09-14:59:29.529828,198.20351389981806,198.5093614999205,198.20351389981806,None,None,198.20351389981806,None,199.00966392992996,None,,,,12013,0001,2022_Mar_09_1456,localizer,2021.1.3,60.61711866575837,
block,scrambled,scrambled007.bmp,,,,,0,27,27,27,,,,,,,,,,,,,,,,,,,,,,,,,,,,,,,,,,,,,,,,,,None,,199.00966392992996,None,199.00966392992996,None,2022-03-09-14:59:30.346323,199.01814399985597,199.32630830002017,199.01814399985597,None,y,199.01814399985597,None,199.82669913000427,None,0.03708969987928867,,,12013,0001,2022_Mar_09_1456,localizer,2021.1.3,60.61711866575837,
block,scrambled,scrambled055.bmp,,,,,0,28,28,28,,,,,,,,,,,,,,,,,,,,,,,,,,,,,,,,,,,,,,,,,,None,,199.82669913000427,None,199.82669913000427,None,2022-03-09-14:59:31.163349,199.83650979981758,200.1442268998362,199.83650979981758,None,None,199.83650979981758,None,200.6430540299043,None,,,,12013,0001,2022_Mar_09_1456,localizer,2021.1.3,60.61711866575837,
block,scrambled,scrambled088.bmp,,,,,0,29,29,29,,,,,,,,,,,,,,,,,,,,,,,,,,,,,,,,,,,,,,,,,,None,,200.6430540299043,None,200.6430540299043,None,2022-03-09-14:59:31.980470,200.65420269989409,200.95961029990576,200.65420269989409,None,None,200.65420269989409,None,201.4597684298642,None,,,,12013,0001,2022_Mar_09_1456,localizer,2021.1.3,60.61711866575837,
block_end,scrambled,scrambled012.bmp,,,,,0,30,30,30,,,,,,,,,,,,,,,,,,,,,,,,,,,,,,,,,,,,,,,,,,None,,201.4597684298642,None,201.4597684298642,None,2022-03-09-14:59:32.796425,201.46995349996723,201.77621419983916,201.46995349996723,None,None,201.46995349996723,None,202.27648123004474,None,,,,12013,0001,2022_Mar_09_1456,localizer,2021.1.3,60.61711866575837,
block_start,objects,objects047.bmp,,,,,0,31,31,31,,,,,,,,,,,,,,,,,,,,,,,,,,,,,,,,,,,,,,,,,,t,1.7289054000284523,202.2763566998765,None,202.2763566998765,None,2022-03-09-14:59:35.362417,204.03645909996703,204.34338660002686,204.03645909996703,None,None,204.03645909996703,None,204.84386462997645,None,,,,12013,0001,2022_Mar_09_1456,localizer,2021.1.3,60.61711866575837,
block,objects,objects030.bmp,,,,,0,32,32,32,,,,,,,,,,,,,,,,,,,,,,,,,,,,,,,,,,,,,,,,,,None,,204.84386462997645,None,204.84386462997645,None,2022-03-09-14:59:36.181437,204.85532999993302,205.16007489990443,204.85532999993302,None,None,204.85532999993302,None,205.65988072985783,None,,,,12013,0001,2022_Mar_09_1456,localizer,2021.1.3,60.61711866575837,
block,objects,objects072.bmp,,,,,0,33,33,33,,,,,,,,,,,,,,,,,,,,,,,,,,,,,,,,,,,,,,,,,,None,,205.65988072985783,None,205.65988072985783,None,2022-03-09-14:59:36.996535,205.67008630000055,205.97642359999008,205.67008630000055,None,None,205.67008630000055,None,206.47617932991125,None,,,,12013,0001,2022_Mar_09_1456,localizer,2021.1.3,60.61711866575837,
block,objects,objects012.bmp,,,,,0,34,34,34,,,,,,,,,,,,,,,,,,,,,,,,,,,,,,,,,,,,,,,,,,None,,206.47617932991125,None,206.47617932991125,None,2022-03-09-14:59:37.811842,206.4844318998512,206.79352669999935,206.4844318998512,None,None,206.4844318998512,None,207.2932379299309,None,,,,12013,0001,2022_Mar_09_1456,localizer,2021.1.3,60.61711866575837,
block,objects,objects023.bmp,,,,,0,35,35,35,,,,,,,,,,,,,,,,,,,,,,,,,,,,,,,,,,,,,,,,,,None,,207.2932379299309,None,207.2932379299309,None,2022-03-09-14:59:38.629892,207.30423899996094,207.60979010001756,207.30423899996094,None,None,207.30423899996094,None,208.10933412984014,None,,,,12013,0001,2022_Mar_09_1456,localizer,2021.1.3,60.61711866575837,
block,objects,objects033.bmp,,,,,0,36,36,36,,,,,,,,,,,,,,,,,,,,,,,,,,,,,,,,,,,,,,,,,,None,,208.10933412984014,None,208.10933412984014,None,2022-03-09-14:59:39.446071,208.11823190003633,208.42710489989258,208.11823190003633,None,None,208.11823190003633,None,208.92727872985415,None,,,,12013,0001,2022_Mar_09_1456,localizer,2021.1.3,60.61711866575837,
block,objects,objects052.bmp,,,,,0,37,37,37,,,,,,,,,,,,,,,,,,,,,,,,,,,,,,,,,,,,,,,,,,None,,208.92727872985415,None,208.92727872985415,None,2022-03-09-14:59:40.264918,208.93839699984528,209.24439410003833,208.93839699984528,None,None,208.93839699984528,None,209.74296403001063,None,,,,12013,0001,2022_Mar_09_1456,localizer,2021.1.3,60.61711866575837,
block,objects,objects008.bmp,,,,,0,38,38,38,,,,,,,,,,,,,,,,,,,,,,,,,,,,,,,,,,,,,,,,,,None,,209.74296403001063,None,209.74296403001063,None,2022-03-09-14:59:41.079621,209.7522924998775,210.0645329998806,209.7522924998775,None,None,209.7522924998775,None,210.56127062998712,None,,,,12013,0001,2022_Mar_09_1456,localizer,2021.1.3,60.61711866575837,
block,objects,objects065.bmp,,,,,0,39,39,39,,,,,,,,,,,,,,,,,,,,,,,,,,,,,,,,,,,,,,,,,,None,,210.56127062998712,None,210.56127062998712,None,2022-03-09-14:59:41.900081,210.5749784000218,210.87624689983204,210.5749784000218,None,None,210.5749784000218,None,211.3765185298398,None,,,,12013,0001,2022_Mar_09_1456,localizer,2021.1.3,60.61711866575837,
block,objects,objects086.bmp,,,,,0,40,40,40,,,,,,,,,,,,,,,,,,,,,,,,,,,,,,,,,,,,,,,,,,None,,211.3765185298398,None,211.3765185298398,None,2022-03-09-14:59:42.713175,211.38592229993083,211.69372639991343,211.38592229993083,None,None,211.38592229993083,None,212.19387062988244,None,,,,12013,0001,2022_Mar_09_1456,localizer,2021.1.3,60.61711866575837,
block,objects,objects032.bmp,,,,,0,41,41,41,,,,,,,,,,,,,,,,,,,,,,,,,,,,,,,,,,,,,,,,,,None,,212.19387062988244,None,212.19387062988244,None,2022-03-09-14:59:43.531711,212.20607149996795,212.50968629983254,212.20607149996795,None,None,212.20607149996795,None,213.0100892300252,None,,,,12013,0001,2022_Mar_09_1456,localizer,2021.1.3,60.61711866575837,
block,objects,objects036.bmp,,,,,0,42,42,42,,,,,,,,,,,,,,,,,,,,,,,,,,,,,,,,,,,,,,,,,,None,,213.0100892300252,None,213.0100892300252,None,2022-03-09-14:59:44.346948,213.02092869998887,213.32663409993984,213.02092869998887,None,None,213.02092869998887,None,213.8266519298777,None,,,,12013,0001,2022_Mar_09_1456,localizer,2021.1.3,60.61711866575837,
block,objects,objects080.bmp,,,,,0,43,43,43,,,,,,,,,,,,,,,,,,,,,,,,,,,,,,,,,,,,,,,,,,None,,213.8266519298777,None,213.8266519298777,None,2022-03-09-14:59:45.163246,213.83735879999585,214.14334299997427,213.83735879999585,None,None,213.83735879999585,None,214.64346783002838,None,,,,12013,0001,2022_Mar_09_1456,localizer,2021.1.3,60.61711866575837,
block,objects,objects056.bmp,,,,,0,44,44,44,,,,,,,,,,,,,,,,,,,,,,,,,,,,,,,,,,,,,,,,,,None,,214.64346783002838,None,214.64346783002838,None,2022-03-09-14:59:45.980448,214.65313320001587,214.96690199989825,214.65313320001587,None,None,214.65313320001587,None,215.45954403001815,None,,,,12013,0001,2022_Mar_09_1456,localizer,2021.1.3,60.61711866575837,
block_end,objects,objects010.bmp,,,,,0,45,45,45,,,,,,,,,,,,,,,,,,,,,,,,,,,,,,,,,,,,,,,,,,None,,215.45954403001815,None,215.45954403001815,None,2022-03-09-14:59:46.795223,215.4671745998785,215.7763835999649,215.4671745998785,None,None,215.4671745998785,None,216.2772070299834,None,,,,12013,0001,2022_Mar_09_1456,localizer,2021.1.3,60.61711866575837,
block_start,faces,faces028.bmp,,,,,0,46,46,46,,,,,,,,,,,,,,,,,,,,,,,,,,,,,,,,,,,,,,,,,,t,1.7281390998978168,216.27710870001465,None,216.27710870001465,None,2022-03-09-14:59:49.363737,218.0380370998755,218.34294059989043,218.0380370998755,None,None,218.0380370998755,None,218.84319912991486,None,,,,12013,0001,2022_Mar_09_1456,localizer,2021.1.3,60.61711866575837,
block,faces,faces048.bmp,,,,,0,47,47,47,,,,,,,,,,,,,,,,,,,,,,,,,,,,,,,,,,,,,,,,,,None,,218.84319912991486,None,218.84319912991486,None,2022-03-09-14:59:50.179911,218.85438829986379,219.15992869995534,218.85438829986379,None,None,218.85438829986379,None,219.65986692998558,None,,,,12013,0001,2022_Mar_09_1456,localizer,2021.1.3,60.61711866575837,
block,faces,faces015.bmp,,,,,0,48,48,48,,,,,,,,,,,,,,,,,,,,,,,,,,,,,,,,,,,,,,,,,,None,,219.65986692998558,None,219.65986692998558,None,2022-03-09-14:59:50.996523,219.675029899925,219.97610459988937,219.675029899925,None,None,219.675029899925,None,220.4766012299806,None,,,,12013,0001,2022_Mar_09_1456,localizer,2021.1.3,60.61711866575837,
block,faces,faces071.bmp,,,,,0,49,49,49,,,,,,,,,,,,,,,,,,,,,,,,,,,,,,,,,,,,,,,,,,None,,220.4766012299806,None,220.4766012299806,None,2022-03-09-14:59:51.813258,220.4868266999256,220.793117800029,220.4868266999256,None,None,220.4868266999256,None,221.29335142998025,None,,,,12013,0001,2022_Mar_09_1456,localizer,2021.1.3,60.61711866575837,
block,faces,faces025.bmp,,,,,0,50,50,50,,,,,,,,,,,,,,,,,,,,,,,,,,,,,,,,,,,,,,,,,,None,,221.29335142998025,None,221.29335142998025,None,2022-03-09-14:59:52.630006,221.30330929998308,221.6097583998926,221.30330929998308,None,None,221.30330929998308,None,222.10985412984155,None,,,,12013,0001,2022_Mar_09_1456,localizer,2021.1.3,60.61711866575837,
block,faces,faces036.bmp,,,,,0,51,51,51,,,,,,,,,,,,,,,,,,,,,,,,,,,,,,,,,,,,,,,,,,None,,222.10985412984155,None,222.10985412984155,None,2022-03-09-14:59:53.446513,222.11894259997644,222.4262951000128,222.11894259997644,None,None,222.11894259997644,None,222.92662052996457,None,,,,12013,0001,2022_Mar_09_1456,localizer,2021.1.3,60.61711866575837,
block,faces,faces029.bmp,,,,,0,52,52,52,,,,,,,,,,,,,,,,,,,,,,,,,,,,,,,,,,,,,,,,,,None,,222.92662052996457,None,222.92662052996457,None,2022-03-09-14:59:54.263275,222.93745870003477,223.2429177998565,222.93745870003477,None,None,222.93745870003477,None,223.7432905298192,None,,,,12013,0001,2022_Mar_09_1456,localizer,2021.1.3,60.61711866575837,
block,faces,faces059.bmp,,,,,0,53,53,53,,,,,,,,,,,,,,,,,,,,,,,,,,,,,,,,,,,,,,,,,,None,,223.7432905298192,None,223.7432905298192,None,2022-03-09-14:59:55.080070,223.74952019983903,224.0595946998801,223.74952019983903,None,None,223.74952019983903,None,224.5598740298301,None,,,,12013,0001,2022_Mar_09_1456,localizer,2021.1.3,60.61711866575837,
block,faces,faces057.bmp,,,,,0,54,54,54,,,,,,,,,,,,,,,,,,,,,,,,,,,,,,,,,,,,,,,,,,None,,224.5598740298301,None,224.5598740298301,None,2022-03-09-14:59:55.896527,224.57091619982384,224.8767605999019,224.57091619982384,None,None,224.57091619982384,None,225.37641572998837,None,,,,12013,0001,2022_Mar_09_1456,localizer,2021.1.3,60.61711866575837,
block,faces,faces067.bmp,,,,,0,55,55,55,,,,,,,,,,,,,,,,,,,,,,,,,,,,,,,,,,,,,,,,,,None,,225.37641572998837,None,225.37641572998837,None,2022-03-09-14:59:56.712081,225.38631059997715,225.69309249985963,225.38631059997715,None,None,225.38631059997715,None,226.19363492983393,None,,,,12013,0001,2022_Mar_09_1456,localizer,2021.1.3,60.61711866575837,
block,faces,faces072.bmp,,,,,0,56,56,56,,,,,,,,,,,,,,,,,,,,,,,,,,,,,,,,,,,,,,,,,,None,,226.19363492983393,None,226.19363492983393,None,2022-03-09-14:59:57.530520,226.20479539991356,226.5106638998259,226.20479539991356,None,None,226.20479539991356,None,227.01057983003557,None,,,,12013,0001,2022_Mar_09_1456,localizer,2021.1.3,60.61711866575837,
block,faces,faces053.bmp,,,,,0,57,57,57,,,,,,,,,,,,,,,,,,,,,,,,,,,,,,,,,,,,,,,,,,None,,227.01057983003557,None,227.01057983003557,None,2022-03-09-14:59:58.348222,227.02221519988962,227.32650489988737,227.02221519988962,None,None,227.02221519988962,None,227.8269272299949,None,,,,12013,0001,2022_Mar_09_1456,localizer,2021.1.3,60.61711866575837,
block,faces,faces020.bmp,,,,,0,58,58,58,,,,,,,,,,,,,,,,,,,,,,,,,,,,,,,,,,,,,,,,,,None,,227.8269272299949,None,227.8269272299949,None,2022-03-09-14:59:59.163806,227.83768330002204,228.14307229989208,227.83768330002204,None,None,227.83768330002204,None,228.64333962998353,None,,,,12013,0001,2022_Mar_09_1456,localizer,2021.1.3,60.61711866575837,
block,faces,faces024.bmp,,,,,0,59,59,59,,,,,,,,,,,,,,,,,,,,,,,,,,,,,,,,,,,,,,,,,,None,,228.64333962998353,None,228.64333962998353,None,2022-03-09-14:59:59.979995,228.65384549996816,228.95975339994766,228.65384549996816,None,None,228.65384549996816,None,229.4596820299048,None,,,,12013,0001,2022_Mar_09_1456,localizer,2021.1.3,60.61711866575837,
block_end,faces,faces024.bmp,,,,,0,60,60,60,,,,,,,,,,,,,,,,,,,,,,,,,,,,,,,,,,,,,,,,,,None,,229.4596820299048,None,229.4596820299048,None,2022-03-09-15:00:00.796339,229.461366500007,229.76054379995912,229.461366500007,None,y,229.461366500007,None,230.26119642984122,None,0.5136381001211703,,,12013,0001,2022_Mar_09_1456,localizer,2021.1.3,60.61711866575837,
block_start,scenes,scenes084.bmp,,,,,0,61,61,61,,,,,,,,,,,,,,,,,,,,,,,,,,,,,,,,,,,,,,,,,,t,1.7440307000651956,230.26120810001157,None,230.26120810001157,None,2022-03-09-15:00:03.362265,232.0353768998757,232.34334030002356,232.0353768998757,None,None,232.0353768998757,None,232.84375222981907,None,,,,12013,0001,2022_Mar_09_1456,localizer,2021.1.3,60.61711866575837,
block,scenes,scenes045.bmp,,,,,0,62,62,62,,,,,,,,,,,,,,,,,,,,,,,,,,,,,,,,,,,,,,,,,,None,,232.84375222981907,None,232.84375222981907,None,2022-03-09-15:00:04.180480,232.8442394998856,233.14315319992602,232.8442394998856,None,None,232.8442394998856,None,233.64350272994488,None,,,,12013,0001,2022_Mar_09_1456,localizer,2021.1.3,60.61711866575837,
block,scenes,scenes046.bmp,,,,,0,63,63,63,,,,,,,,,,,,,,,,,,,,,,,,,,,,,,,,,,,,,,,,,,None,,233.64350272994488,None,233.64350272994488,None,2022-03-09-15:00:04.982351,233.65576189989224,233.95976189989597,233.65576189989224,233.65576189989224,None,233.65576189989224,233.65576189989224,234.45992433000356,None,,,,12013,0001,2022_Mar_09_1456,localizer,2021.1.3,60.61711866575837,
block,scenes,scenes009.bmp,,,,,0,64,64,64,,,,,,,,,,,,,,,,,,,,,,,,,,,,,,,,,,,,,,,,,,None,,234.45992433000356,None,234.45992433000356,None,2022-03-09-15:00:05.796583,234.46092179999687,234.77630759985186,234.46092179999687,None,None,234.46092179999687,None,235.26020162994973,None,,,,12013,0001,2022_Mar_09_1456,localizer,2021.1.3,60.61711866575837,
block,scenes,scenes062.bmp,,,,,0,65,65,65,,,,,,,,,,,,,,,,,,,,,,,,,,,,,,,,,,,,,,,,,,None,,235.26020162994973,None,235.26020162994973,None,2022-03-09-15:00:06.599041,235.2737041998189,235.57624389999546,235.2737041998189,235.2737041998189,None,235.2737041998189,235.2737041998189,236.07699742983095,None,,,,12013,0001,2022_Mar_09_1456,localizer,2021.1.3,60.61711866575837,
block,scenes,scenes072.bmp,,,,,0,66,66,66,,,,,,,,,,,,,,,,,,,,,,,,,,,,,,,,,,,,,,,,,,None,,236.07699742983095,None,236.07699742983095,None,2022-03-09-15:00:07.413648,236.08764529996552,236.39302919991314,236.08764529996552,None,None,236.08764529996552,None,236.8934734298382,None,,,,12013,0001,2022_Mar_09_1456,localizer,2021.1.3,60.61711866575837,
block,scenes,scenes002.bmp,,,,,0,67,67,67,,,,,,,,,,,,,,,,,,,,,,,,,,,,,,,,,,,,,,,,,,None,,236.8934734298382,None,236.8934734298382,None,2022-03-09-15:00:08.230148,236.90367349982262,237.20999239990488,236.90367349982262,None,None,236.90367349982262,None,237.70994802983478,None,,,,12013,0001,2022_Mar_09_1456,localizer,2021.1.3,60.61711866575837,
block,scenes,scenes054.bmp,,,,,0,68,68,68,,,,,,,,,,,,,,,,,,,,,,,,,,,,,,,,,,,,,,,,,,None,,237.70994802983478,None,237.70994802983478,None,2022-03-09-15:00:09.046605,237.72084710001945,238.02733579999767,237.72084710001945,None,None,237.72084710001945,None,238.52713342988864,None,,,,12013,0001,2022_Mar_09_1456,localizer,2021.1.3,60.61711866575837,
block,scenes,scenes064.bmp,,,,,0,69,69,69,,,,,,,,,,,,,,,,,,,,,,,,,,,,,,,,,,,,,,,,,,None,,238.52713342988864,None,238.52713342988864,None,2022-03-09-15:00:09.864958,238.5376408000011,238.84327999991365,238.5376408000011,None,None,238.5376408000011,None,239.34406222985126,None,,,,12013,0001,2022_Mar_09_1456,localizer,2021.1.3,60.61711866575837,
block,scenes,scenes020.bmp,,,,,0,70,70,70,,,,,,,,,,,,,,,,,,,,,,,,,,,,,,,,,,,,,,,,,,None,,239.34406222985126,None,239.34406222985126,None,2022-03-09-15:00:10.681810,239.34454869991168,239.65998269990087,239.34454869991168,None,None,239.34454869991168,None,240.16010223003104,None,,,,12013,0001,2022_Mar_09_1456,localizer,2021.1.3,60.61711866575837,
block,scenes,scenes073.bmp,,,,,0,71,71,71,,,,,,,,,,,,,,,,,,,,,,,,,,,,,,,,,,,,,,,,,,None,,240.16010223003104,None,240.16010223003104,None,2022-03-09-15:00:11.496756,240.16266090003774,240.47681269980967,240.16266090003774,None,None,240.16266090003774,None,240.96620652987622,None,,,,12013,0001,2022_Mar_09_1456,localizer,2021.1.3,60.61711866575837,
block,scenes,scenes050.bmp,,,,,0,72,72,72,,,,,,,,,,,,,,,,,,,,,,,,,,,,,,,,,,,,,,,,,,None,,240.96620652987622,None,240.96620652987622,None,2022-03-09-15:00:12.308766,240.98574679996818,241.2932294998318,240.98574679996818,None,None,240.98574679996818,None,241.77692982996814,None,,,,12013,0001,2022_Mar_09_1456,localizer,2021.1.3,60.61711866575837,
block,scenes,scenes066.bmp,,,,,0,73,73,73,,,,,,,,,,,,,,,,,,,,,,,,,,,,,,,,,,,,,,,,,,None,,241.77692982996814,None,241.77692982996814,None,2022-03-09-15:00:13.113798,241.77751279994845,242.0763601998333,241.77751279994845,None,None,241.77751279994845,None,242.59325643000193,None,,,,12013,0001,2022_Mar_09_1456,localizer,2021.1.3,60.61711866575837,
block,scenes,scenes027.bmp,,,,,0,74,74,74,,,,,,,,,,,,,,,,,,,,,,,,,,,,,,,,,,,,,,,,,,None,,242.59325643000193,None,242.59325643000193,None,2022-03-09-15:00:13.930129,242.60339730000123,242.90986599982716,242.60339730000123,None,None,242.60339730000123,None,243.41039522993378,None,,,,12013,0001,2022_Mar_09_1456,localizer,2021.1.3,60.61711866575837,
block_end,scenes,scenes080.bmp,,,,,0,75,75,75,,,,,,,,,,,,,,,,,,,,,,,,,,,,,,,,,,,,,,,,,,None,,243.41039522993378,None,243.41039522993378,None,2022-03-09-15:00:14.747265,243.42109850002453,243.72687479993328,243.42109850002453,None,None,243.42109850002453,None,244.2289493298158,None,,,,12013,0001,2022_Mar_09_1456,localizer,2021.1.3,60.61711866575837,
null_block,null_block,null_block.bmp,,,,,0,76,76,76,,,,,,,,,,,,,,,,,,,,,,,,,,,,,,,,,,,,,,,,,,t,1.7760670001152903,244.2291442998685,None,244.2291442998685,None,2022-03-09-15:00:17.362680,246.0270228299778,None,246.0270228299778,None,None,246.0270228299778,None,246.0280662998557,None,,,,12013,0001,2022_Mar_09_1456,localizer,2021.1.3,60.61711866575837,
block_start,objects,objects002.bmp,,,,,0,77,77,77,,,,,,,,,,,,,,,,,,,,,,,,,,,,,,,,,,,,,,,,,,t,1.9771796001587063,258.027948099887,None,258.027948099887,None,2022-03-09-15:00:31.365399,260.03475490002893,260.34317719982937,260.03475490002893,None,None,260.03475490002893,None,260.8438277300447,None,,,,12013,0001,2022_Mar_09_1456,localizer,2021.1.3,60.61711866575837,
block,objects,objects053.bmp,,,,,0,78,78,78,,,,,,,,,,,,,,,,,,,,,,,,,,,,,,,,,,,,,,,,,,None,,260.8438277300447,None,260.8438277300447,None,2022-03-09-15:00:32.181473,260.8545488000382,261.16000649984926,260.8545488000382,None,None,260.8545488000382,None,261.6602394299116,None,,,,12013,0001,2022_Mar_09_1456,localizer,2021.1.3,60.61711866575837,
block,objects,objects083.bmp,,,,,0,79,79,79,,,,,,,,,,,,,,,,,,,,,,,,,,,,,,,,,,,,,,,,,,None,,261.6602394299116,None,261.6602394299116,None,2022-03-09-15:00:32.996895,261.67023449996486,261.97678119991906,261.67023449996486,None,None,261.67023449996486,None,262.47724603000097,None,,,,12013,0001,2022_Mar_09_1456,localizer,2021.1.3,60.61711866575837,
block,objects,objects080.bmp,,,,,0,80,80,80,,,,,,,,,,,,,,,,,,,,,,,,,,,,,,,,,,,,,,,,,,None,,262.47724603000097,None,262.47724603000097,None,2022-03-09-15:00:33.815105,262.4778726999648,262.7771283998154,262.4778726999648,None,None,262.4778726999648,None,263.27692792983726,None,,,,12013,0001,2022_Mar_09_1456,localizer,2021.1.3,60.61711866575837,
block,objects,objects043.bmp,,,,,0,81,81,81,,,,,,,,,,,,,,,,,,,,,,,,,,,,,,,,,,,,,,,,,,None,,263.27692792983726,None,263.27692792983726,None,2022-03-09-15:00:34.615825,263.2889966999646,263.59335609991103,263.2889966999646,263.2889966999646,None,263.2889966999646,263.2889966999646,264.0937866298482,None,,,,12013,0001,2022_Mar_09_1456,localizer,2021.1.3,60.61711866575837,
block,objects,objects030.bmp,,,,,0,82,82,82,,,,,,,,,,,,,,,,,,,,,,,,,,,,,,,,,,,,,,,,,,None,,264.0937866298482,None,264.0937866298482,None,2022-03-09-15:00:35.430439,264.09425999992527,264.39329669997096,264.09425999992527,None,None,264.09425999992527,None,264.89361642999575,None,,,,12013,0001,2022_Mar_09_1456,localizer,2021.1.3,60.61711866575837,
block,objects,objects030.bmp,,,,,0,83,83,83,,,,,,,,,,,,,,,,,,,,,,,,,,,,,,,,,,,,,,,,,,None,,264.89361642999575,None,264.89361642999575,None,2022-03-09-15:00:36.232265,264.8947274000384,265.2100445998367,264.8947274000384,264.8947274000384,y,264.8947274000384,264.8947274000384,265.6949121300131,None,0.374310800107196,,,12013,0001,2022_Mar_09_1456,localizer,2021.1.3,60.61711866575837,
block,objects,objects011.bmp,,,,,0,84,84,84,,,,,,,,,,,,,,,,,,,,,,,,,,,,,,,,,,,,,,,,,,None,,265.6949121300131,None,265.6949121300131,None,2022-03-09-15:00:37.035729,265.71032630000263,266.00983839994296,265.71032630000263,265.71032630000263,None,265.71032630000263,265.71032630000263,266.5097965300083,None,,,,12013,0001,2022_Mar_09_1456,localizer,2021.1.3,60.61711866575837,
block,objects,objects014.bmp,,,,,0,85,85,85,,,,,,,,,,,,,,,,,,,,,,,,,,,,,,,,,,,,,,,,,,None,,266.5097965300083,None,266.5097965300083,None,2022-03-09-15:00:37.846458,266.51865709992126,266.8267709999345,266.51865709992126,None,None,266.51865709992126,None,267.32716922997497,None,,,,12013,0001,2022_Mar_09_1456,localizer,2021.1.3,60.61711866575837,
block,objects,objects056.bmp,,,,,0,86,86,86,,,,,,,,,,,,,,,,,,,,,,,,,,,,,,,,,,,,,,,,,,None,,267.32716922997497,None,267.32716922997497,None,2022-03-09-15:00:38.664026,267.3277644999325,267.6279887999408,267.3277644999325,None,None,267.3277644999325,None,268.128197229933,None,,,,12013,0001,2022_Mar_09_1456,localizer,2021.1.3,60.61711866575837,
block,objects,objects044.bmp,,,,,0,87,87,87,,,,,,,,,,,,,,,,,,,,,,,,,,,,,,,,,,,,,,,,,,None,,268.128197229933,None,268.128197229933,None,2022-03-09-15:00:39.470062,268.1439131000079,268.44302669982426,268.1439131000079,268.1439131000079,None,268.1439131000079,268.1439131000079,268.9435137298424,None,,,,12013,0001,2022_Mar_09_1456,localizer,2021.1.3,60.61711866575837,
block,objects,objects037.bmp,,,,,0,88,88,88,,,,,,,,,,,,,,,,,,,,,,,,,,,,,,,,,,,,,,,,,,None,,268.9435137298424,None,268.9435137298424,None,2022-03-09-15:00:40.280170,268.95367829990573,269.25976599985734,268.95367829990573,None,None,268.95367829990573,None,269.76011803001165,None,,,,12013,0001,2022_Mar_09_1456,localizer,2021.1.3,60.61711866575837,
block,objects,objects075.bmp,,,,,0,89,89,89,,,,,,,,,,,,,,,,,,,,,,,,,,,,,,,,,,,,,,,,,,None,,269.76011803001165,None,269.76011803001165,None,2022-03-09-15:00:41.096773,269.7701838000212,270.08128879987635,269.7701838000212,None,None,269.7701838000212,None,270.5780850299634,None,,,,12013,0001,2022_Mar_09_1456,localizer,2021.1.3,60.61711866575837,
block,objects,objects015.bmp,,,,,0,90,90,90,,,,,,,,,,,,,,,,,,,,,,,,,,,,,,,,,,,,,,,,,,None,,270.5780850299634,None,270.5780850299634,None,2022-03-09-15:00:41.915925,270.5912327999249,270.89333749981597,270.5912327999249,None,None,270.5912327999249,None,271.3936856298242,None,,,,12013,0001,2022_Mar_09_1456,localizer,2021.1.3,60.61711866575837,
block_end,objects,objects046.bmp,,,,,0,91,91,91,,,,,,,,,,,,,,,,,,,,,,,,,,,,,,,,,,,,,,,,,,None,,271.3936856298242,None,271.3936856298242,None,2022-03-09-15:00:42.730989,271.4044889998622,271.71001679985784,271.4044889998622,None,None,271.4044889998622,None,272.2115042300429,None,,,,12013,0001,2022_Mar_09_1456,localizer,2021.1.3,60.61711866575837,
block_start,scrambled,scrambled084.bmp,,,,,0,92,92,92,,,,,,,,,,,,,,,,,,,,,,,,,,,,,,,,,,,,,,,,,,t,1.7938515001442283,272.21125659998506,None,272.21125659998506,None,2022-03-09-15:00:45.362606,274.037288099993,274.3432793999091,274.037288099993,None,None,274.037288099993,None,274.84425632981583,None,,,,12013,0001,2022_Mar_09_1456,localizer,2021.1.3,60.61711866575837,
block,scrambled,scrambled039.bmp,,,,,0,93,93,93,,,,,,,,,,,,,,,,,,,,,,,,,,,,,,,,,,,,,,,,,,None,,274.84425632981583,None,274.84425632981583,None,2022-03-09-15:00:46.181851,274.8523046998307,275.1600684998557,274.8523046998307,None,None,274.8523046998307,None,275.66014332999475,None,,,,12013,0001,2022_Mar_09_1456,localizer,2021.1.3,60.61711866575837,
block,scrambled,scrambled025.bmp,,,,,0,94,94,94,,,,,,,,,,,,,,,,,,,,,,,,,,,,,,,,,,,,,,,,,,None,,275.66014332999475,None,275.66014332999475,None,2022-03-09-15:00:46.997044,275.670120799914,275.97680890001357,275.670120799914,None,None,275.670120799914,None,276.476792230038,None,,,,12013,0001,2022_Mar_09_1456,localizer,2021.1.3,60.61711866575837,
block,scrambled,scrambled064.bmp,,,,,0,95,95,95,,,,,,,,,,,,,,,,,,,,,,,,,,,,,,,,,,,,,,,,,,None,,276.476792230038,None,276.476792230038,None,2022-03-09-15:00:47.813718,276.4856206998229,276.79307959997095,276.4856206998229,None,None,276.4856206998229,None,277.29364793002605,None,,,,12013,0001,2022_Mar_09_1456,localizer,2021.1.3,60.61711866575837,
block,scrambled,scrambled061.bmp,,,,,0,96,96,96,,,,,,,,,,,,,,,,,,,,,,,,,,,,,,,,,,,,,,,,,,None,,277.29364793002605,None,277.29364793002605,None,2022-03-09-15:00:48.630304,277.29420399991795,277.59321819990873,277.29420399991795,None,None,277.29420399991795,None,278.09518723003566,None,,,,12013,0001,2022_Mar_09_1456,localizer,2021.1.3,60.61711866575837,
block,scrambled,scrambled030.bmp,,,,,0,97,97,97,,,,,,,,,,,,,,,,,,,,,,,,,,,,,,,,,,,,,,,,,,None,,278.09518723003566,None,278.09518723003566,None,2022-03-09-15:00:49.437809,278.11158649995923,278.4268258998636,278.11158649995923,278.11158649995923,None,278.11158649995923,278.11158649995923,278.9104042300023,None,,,,12013,0001,2022_Mar_09_1456,localizer,2021.1.3,60.61711866575837,
block,scrambled,scrambled048.bmp,,,,,0,98,98,98,,,,,,,,,,,,,,,,,,,,,,,,,,,,,,,,,,,,,,,,,,None,,278.9104042300023,None,278.9104042300023,None,2022-03-09-15:00:50.247059,278.9202195999678,279.22676879982464,278.9202195999678,None,None,278.9202195999678,None,279.7270128298551,None,,,,12013,0001,2022_Mar_09_1456,localizer,2021.1.3,60.61711866575837,
block,scrambled,scrambled071.bmp,,,,,0,99,99,99,,,,,,,,,,,,,,,,,,,,,,,,,,,,,,,,,,,,,,,,,,None,,279.7270128298551,None,279.7270128298551,None,2022-03-09-15:00:51.063798,279.73721880000085,280.04314349987544,279.73721880000085,None,None,279.73721880000085,None,280.54479352990165,None,,,,12013,0001,2022_Mar_09_1456,localizer,2021.1.3,60.61711866575837,
block,scrambled,scrambled047.bmp,,,,,0,100,100,100,,,,,,,,,,,,,,,,,,,,,,,,,,,,,,,,,,,,,,,,,,None,,280.54479352990165,None,280.54479352990165,None,2022-03-09-15:00:51.883085,280.55813589994796,280.86008859984577,280.55813589994796,None,None,280.55813589994796,None,281.3606266300194,None,,,,12013,0001,2022_Mar_09_1456,localizer,2021.1.3,60.61711866575837,
block,scrambled,scrambled011.bmp,,,,,0,101,101,101,,,,,,,,,,,,,,,,,,,,,,,,,,,,,,,,,,,,,,,,,,None,,281.3606266300194,None,281.3606266300194,None,2022-03-09-15:00:52.698347,281.37135799997486,281.6767945999745,281.37135799997486,None,None,281.37135799997486,None,282.1772258300334,None,,,,12013,0001,2022_Mar_09_1456,localizer,2021.1.3,60.61711866575837,
block,scrambled,scrambled075.bmp,,,,,0,102,102,102,,,,,,,,,,,,,,,,,,,,,,,,,,,,,,,,,,,,,,,,,,None,,282.1772258300334,None,282.1772258300334,None,2022-03-09-15:00:53.514160,282.18785869982094,282.4933322998695,282.18785869982094,None,None,282.18785869982094,None,282.99358922988176,None,,,,12013,0001,2022_Mar_09_1456,localizer,2021.1.3,60.61711866575837,
block,scrambled,scrambled012.bmp,,,,,0,103,103,103,,,,,,,,,,,,,,,,,,,,,,,,,,,,,,,,,,,,,,,,,,None,,282.99358922988176,None,282.99358922988176,None,2022-03-09-15:00:54.330512,282.9946481999941,283.31029759999365,282.9946481999941,None,None,282.9946481999941,None,283.79383602994494,None,,,,12013,0001,2022_Mar_09_1456,localizer,2021.1.3,60.61711866575837,
block,scrambled,scrambled014.bmp,,,,,0,104,104,104,,,,,,,,,,,,,,,,,,,,,,,,,,,,,,,,,,,,,,,,,,None,,283.79383602994494,None,283.79383602994494,None,2022-03-09-15:00:55.132482,283.80650569987483,284.11008889996447,283.80650569987483,283.80650569987483,None,283.80650569987483,283.80650569987483,284.61025672988035,None,,,,12013,0001,2022_Mar_09_1456,localizer,2021.1.3,60.61711866575837,
block,scrambled,scrambled008.bmp,,,,,0,105,105,105,,,,,,,,,,,,,,,,,,,,,,,,,,,,,,,,,,,,,,,,,,None,,284.61025672988035,None,284.61025672988035,None,2022-03-09-15:00:55.946626,284.61973479995504,284.92672669980675,284.61973479995504,None,None,284.61973479995504,None,285.4266814298462,None,,,,12013,0001,2022_Mar_09_1456,localizer,2021.1.3,60.61711866575837,
block_end,scrambled,scrambled007.bmp,,,,,0,106,106,106,,,,,,,,,,,,,,,,,,,,,,,,,,,,,,,,,,,,,,,,,,None,,285.4266814298462,None,285.4266814298462,None,2022-03-09-15:00:56.763340,285.42777179996483,285.7268511999864,285.42777179996483,None,None,285.42777179996483,None,286.22737363004126,None,,,,12013,0001,2022_Mar_09_1456,localizer,2021.1.3,60.61711866575837,
block_start,faces,faces063.bmp,,,,,0,107,107,107,,,,,,,,,,,,,,,,,,,,,,,,,,,,,,,,,,,,,,,,,,t,1.7782584000378847,286.2268901998177,None,286.2268901998177,None,2022-03-09-15:00:59.362695,288.0370084999595,288.34345149993896,288.0370084999595,None,None,288.0370084999595,None,288.84344982984476,None,,,,12013,0001,2022_Mar_09_1456,localizer,2021.1.3,60.61711866575837,
block,faces,faces087.bmp,,,,,0,108,108,108,,,,,,,,,,,,,,,,,,,,,,,,,,,,,,,,,,,,,,,,,,None,,288.84344982984476,None,288.84344982984476,None,2022-03-09-15:01:00.180109,288.849741499871,289.1602175999433,288.849741499871,None,None,288.849741499871,None,289.66025012987666,None,,,,12013,0001,2022_Mar_09_1456,localizer,2021.1.3,60.61711866575837,
block,faces,faces012.bmp,,,,,0,109,109,109,,,,,,,,,,,,,,,,,,,,,,,,,,,,,,,,,,,,,,,,,,None,,289.66025012987666,None,289.66025012987666,None,2022-03-09-15:01:00.996477,289.6660978998989,289.97670739982277,289.6660978998989,None,None,289.6660978998989,None,290.47681892989203,None,,,,12013,0001,2022_Mar_09_1456,localizer,2021.1.3,60.61711866575837,
block,faces,faces044.bmp,,,,,0,110,110,110,,,,,,,,,,,,,,,,,,,,,,,,,,,,,,,,,,,,,,,,,,None,,290.47681892989203,None,290.47681892989203,None,2022-03-09-15:01:01.813479,290.4862214999739,290.79350619995967,290.4862214999739,None,None,290.4862214999739,None,291.29380182991736,None,,,,12013,0001,2022_Mar_09_1456,localizer,2021.1.3,60.61711866575837,
block,faces,faces003.bmp,,,,,0,111,111,111,,,,,,,,,,,,,,,,,,,,,,,,,,,,,,,,,,,,,,,,,,None,,291.29380182991736,None,291.29380182991736,None,2022-03-09-15:01:02.630454,291.3044354999438,291.61051319981925,291.3044354999438,None,None,291.3044354999438,None,292.11069032992236,None,,,,12013,0001,2022_Mar_09_1456,localizer,2021.1.3,60.61711866575837,
block,faces,faces018.bmp,,,,,0,112,112,112,,,,,,,,,,,,,,,,,,,,,,,,,,,,,,,,,,,,,,,,,,None,,292.11069032992236,None,292.11069032992236,None,2022-03-09-15:01:03.448552,292.12238730001263,292.4273055999074,292.12238730001263,None,None,292.12238730001263,None,292.9272540300153,None,,,,12013,0001,2022_Mar_09_1456,localizer,2021.1.3,60.61711866575837,
block,faces,faces034.bmp,,,,,0,113,113,113,,,,,,,,,,,,,,,,,,,,,,,,,,,,,,,,,,,,,,,,,,None,,292.9272540300153,None,292.9272540300153,None,2022-03-09-15:01:04.264902,292.93794359988533,293.2434417998884,292.93794359988533,None,None,292.93794359988533,None,293.7437896300107,None,,,,12013,0001,2022_Mar_09_1456,localizer,2021.1.3,60.61711866575837,
block,faces,faces073.bmp,,,,,0,114,114,114,,,,,,,,,,,,,,,,,,,,,,,,,,,,,,,,,,,,,,,,,,None,,293.7437896300107,None,293.7437896300107,None,2022-03-09-15:01:05.080415,293.7499639999587,294.06036529992707,293.7499639999587,None,None,293.7499639999587,None,294.56008092989214,None,,,,12013,0001,2022_Mar_09_1456,localizer,2021.1.3,60.61711866575837,
block,faces,faces078.bmp,,,,,0,115,115,115,,,,,,,,,,,,,,,,,,,,,,,,,,,,,,,,,,,,,,,,,,None,,294.56008092989214,None,294.56008092989214,None,2022-03-09-15:01:05.896931,294.5696394999977,294.8769161000382,294.5696394999977,None,None,294.5696394999977,None,295.37737452983856,None,,,,12013,0001,2022_Mar_09_1456,localizer,2021.1.3,60.61711866575837,
block,faces,faces065.bmp,,,,,0,116,116,116,,,,,,,,,,,,,,,,,,,,,,,,,,,,,,,,,,,,,,,,,,None,,295.37737452983856,None,295.37737452983856,None,2022-03-09-15:01:06.714028,295.3949590998236,295.710392100038,295.3949590998236,None,None,295.3949590998236,None,296.1936912299134,None,,,,12013,0001,2022_Mar_09_1456,localizer,2021.1.3,60.61711866575837,
block,faces,faces011.bmp,,,,,0,117,117,117,,,,,,,,,,,,,,,,,,,,,,,,,,,,,,,,,,,,,,,,,,None,,296.1936912299134,None,296.1936912299134,None,2022-03-09-15:01:07.530346,296.20352169987746,296.51032539992593,296.20352169987746,None,None,296.20352169987746,None,297.01022413000464,None,,,,12013,0001,2022_Mar_09_1456,localizer,2021.1.3,60.61711866575837,
block,faces,faces042.bmp,,,,,0,118,118,118,,,,,,,,,,,,,,,,,,,,,,,,,,,,,,,,,,,,,,,,,,None,,297.01022413000464,None,297.01022413000464,None,2022-03-09-15:01:08.346881,297.0186605998315,297.3272126999218,297.0186605998315,None,None,297.0186605998315,None,297.82776762987487,None,,,,12013,0001,2022_Mar_09_1456,localizer,2021.1.3,60.61711866575837,
block,faces,faces066.bmp,,,,,0,119,119,119,,,,,,,,,,,,,,,,,,,,,,,,,,,,,,,,,,,,,,,,,,None,,297.82776762987487,None,297.82776762987487,None,2022-03-09-15:01:09.165441,297.84030209993944,298.1435570998583,297.84030209993944,None,None,297.84030209993944,None,298.6439868300222,None,,,,12013,0001,2022_Mar_09_1456,localizer,2021.1.3,60.61711866575837,
block,faces,faces062.bmp,,,,,0,120,120,120,,,,,,,,,,,,,,,,,,,,,,,,,,,,,,,,,,,,,,,,,,None,,298.6439868300222,None,298.6439868300222,None,2022-03-09-15:01:09.980852,298.65473839989863,298.9602673999034,298.65473839989863,None,None,298.65473839989863,None,299.4666772298515,None,,,,12013,0001,2022_Mar_09_1456,localizer,2021.1.3,60.61711866575837,
block_end,faces,faces043.bmp,,,,,0,121,121,121,,,,,,,,,,,,,,,,,,,,,,,,,,,,,,,,,,,,,,,,,,None,,299.4666772298515,None,299.4666772298515,None,2022-03-09-15:01:10.811243,299.4876915998757,299.79361849999987,299.4876915998757,None,None,299.4876915998757,None,300.27715822984464,None,,,,12013,0001,2022_Mar_09_1456,localizer,2021.1.3,60.61711866575837,
block_start,scenes,scenes077.bmp,,,,,0,122,122,122,,,,,,,,,,,,,,,,,,,,,,,,,,,,,,,,,,,,,,,,,,t,1.7269065000582486,300.27721480000764,None,300.27721480000764,None,2022-03-09-15:01:13.364370,302.03825720003806,302.34330229996704,302.03825720003806,None,None,302.03825720003806,None,302.84445912996307,None,,,,12013,0001,2022_Mar_09_1456,localizer,2021.1.3,60.61711866575837,
block,scenes,scenes067.bmp,,,,,0,123,123,123,,,,,,,,,,,,,,,,,,,,,,,,,,,,,,,,,,,,,,,,,,None,,302.84445912996307,None,302.84445912996307,None,2022-03-09-15:01:14.182101,302.85591669986024,303.16094189998694,302.85591669986024,None,None,302.85591669986024,None,303.6613377300091,None,,,,12013,0001,2022_Mar_09_1456,localizer,2021.1.3,60.61711866575837,
block,scenes,scenes029.bmp,,,,,0,124,124,124,,,,,,,,,,,,,,,,,,,,,,,,,,,,,,,,,,,,,,,,,,None,,303.6613377300091,None,303.6613377300091,None,2022-03-09-15:01:14.998980,303.6732669000048,303.97682500001974,303.6732669000048,None,None,303.6732669000048,None,304.477054429939,None,,,,12013,0001,2022_Mar_09_1456,localizer,2021.1.3,60.61711866575837,
block,scenes,scenes025.bmp,,,,,0,125,125,125,,,,,,,,,,,,,,,,,,,,,,,,,,,,,,,,,,,,,,,,,,None,,304.477054429939,None,304.477054429939,None,2022-03-09-15:01:15.814016,304.48746509989724,304.79349459987134,304.48746509989724,None,None,304.48746509989724,None,305.29496732982807,None,,,,12013,0001,2022_Mar_09_1456,localizer,2021.1.3,60.61711866575837,
block,scenes,scenes046.bmp,,,,,0,126,126,126,,,,,,,,,,,,,,,,,,,,,,,,,,,,,,,,,,,,,,,,,,None,,305.29496732982807,None,305.29496732982807,None,2022-03-09-15:01:16.634243,305.30425659986213,305.61003650003113,305.30425659986213,None,None,305.30425659986213,None,306.1105632300023,None,,,,12013,0001,2022_Mar_09_1456,localizer,2021.1.3,60.61711866575837,
block,scenes,scenes046.bmp,,,,,0,127,127,127,,,,,,,,,,,,,,,,,,,,,,,,,,,,,,,,,,,,,,,,,,None,,306.1105632300023,None,306.1105632300023,None,2022-03-09-15:01:17.447218,306.1110801999457,306.41041839984246,306.1110801999457,None,y,306.1110801999457,None,306.910424730042,None,0.5099735001567751,,,12013,0001,2022_Mar_09_1456,localizer,2021.1.3,60.61711866575837,
block,scenes,scenes064.bmp,,,,,0,128,128,128,,,,,,,,,,,,,,,,,,,,,,,,,,,,,,,,,,,,,,,,,,None,,306.910424730042,None,306.910424730042,None,2022-03-09-15:01:18.248536,306.91120840003714,307.2168441999238,306.91120840003714,306.91120840003714,None,306.91120840003714,306.91120840003714,307.7107586299535,None,,,,12013,0001,2022_Mar_09_1456,localizer,2021.1.3,60.61711866575837,
block,scenes,scenes069.bmp,,,,,0,129,129,129,,,,,,,,,,,,,,,,,,,,,,,,,,,,,,,,,,,,,,,,,,None,,307.7107586299535,None,307.7107586299535,None,2022-03-09-15:01:19.050633,307.72418959997594,308.0269203998614,307.72418959997594,307.72418959997594,None,307.72418959997594,307.72418959997594,308.52726712985896,None,,,,12013,0001,2022_Mar_09_1456,localizer,2021.1.3,60.61711866575837,
block,scenes,scenes066.bmp,,,,,0,130,130,130,,,,,,,,,,,,,,,,,,,,,,,,,,,,,,,,,,,,,,,,,,None,,308.52726712985896,None,308.52726712985896,None,2022-03-09-15:01:19.864136,308.5279371999204,308.82671139994636,308.5279371999204,None,None,308.5279371999204,None,309.3275055298582,None,,,,12013,0001,2022_Mar_09_1456,localizer,2021.1.3,60.61711866575837,
block,scenes,scenes007.bmp,,,,,0,131,131,131,,,,,,,,,,,,,,,,,,,,,,,,,,,,,,,,,,,,,,,,,,None,,309.3275055298582,None,309.3275055298582,None,2022-03-09-15:01:20.667147,309.34587579988874,309.660456799902,309.34587579988874,309.34587579988874,None,309.34587579988874,309.34587579988874,310.14372922992334,None,,,,12013,0001,2022_Mar_09_1456,localizer,2021.1.3,60.61711866575837,
block,scenes,scenes016.bmp,,,,,0,132,132,132,,,,,,,,,,,,,,,,,,,,,,,,,,,,,,,,,,,,,,,,,,None,,310.14372922992334,None,310.14372922992334,None,2022-03-09-15:01:21.480384,310.1598155000247,310.46010939986445,310.1598155000247,None,None,310.1598155000247,None,310.9604419299867,None,,,,12013,0001,2022_Mar_09_1456,localizer,2021.1.3,60.61711866575837,
block,scenes,scenes042.bmp,,,,,0,133,133,133,,,,,,,,,,,,,,,,,,,,,,,,,,,,,,,,,,,,,,,,,,None,,310.9604419299867,None,310.9604419299867,None,2022-03-09-15:01:22.297526,310.97021389985457,311.2769845998846,310.97021389985457,None,None,310.97021389985457,None,311.7774620298296,None,,,,12013,0001,2022_Mar_09_1456,localizer,2021.1.3,60.61711866575837,
block,scenes,scenes087.bmp,,,,,0,134,134,134,,,,,,,,,,,,,,,,,,,,,,,,,,,,,,,,,,,,,,,,,,None,,311.7774620298296,None,311.7774620298296,None,2022-03-09-15:01:23.114096,311.7879393999465,312.0932849999517,311.7879393999465,None,None,311.7879393999465,None,312.593869430013,None,,,,12013,0001,2022_Mar_09_1456,localizer,2021.1.3,60.61711866575837,
block,scenes,scenes074.bmp,,,,,0,135,135,135,,,,,,,,,,,,,,,,,,,,,,,,,,,,,,,,,,,,,,,,,,None,,312.593869430013,None,312.593869430013,None,2022-03-09-15:01:23.930521,312.60441739996895,312.91036849981174,312.60441739996895,None,None,312.60441739996895,None,313.4118455299176,None,,,,12013,0001,2022_Mar_09_1456,localizer,2021.1.3,60.61711866575837,
block_end,scenes,scenes080.bmp,,,,,0,136,136,136,,,,,,,,,,,,,,,,,,,,,,,,,,,,,,,,,,,,,,,,,,None,,313.4118455299176,None,313.4118455299176,None,2022-03-09-15:01:24.749977,313.4208982998971,313.72726950002834,313.4208982998971,None,None,313.4208982998971,None,314.2276368299499,None,,,,12013,0001,2022_Mar_09_1456,localizer,2021.1.3,60.61711866575837,
block_start,faces,faces033.bmp,,,,,0,137,137,137,,,,,,,,,,,,,,,,,,,,,,,,,,,,,,,,,,,,,,,,,,t,1.7768743999768049,314.22736259992234,None,314.22736259992234,None,2022-03-09-15:01:27.362619,316.04292849986814,316.34367850003764,316.04292849986814,None,None,316.04292849986814,None,316.84394942992367,None,,,,12013,0001,2022_Mar_09_1456,localizer,2021.1.3,60.61711866575837,
block,faces,faces074.bmp,,,,,0,138,138,138,,,,,,,,,,,,,,,,,,,,,,,,,,,,,,,,,,,,,,,,,,None,,316.84394942992367,None,316.84394942992367,None,2022-03-09-15:01:28.180607,316.8545406998601,317.16024479991756,316.8545406998601,None,None,316.8545406998601,None,317.66704092989676,None,,,,12013,0001,2022_Mar_09_1456,localizer,2021.1.3,60.61711866575837,
block,faces,faces039.bmp,,,,,0,139,139,139,,,,,,,,,,,,,,,,,,,,,,,,,,,,,,,,,,,,,,,,,,None,,317.66704092989676,None,317.66704092989676,None,2022-03-09-15:01:29.008865,317.68329369998537,317.97894389997236,317.68329369998537,None,None,317.68329369998537,None,318.47683112998493,None,,,,12013,0001,2022_Mar_09_1456,localizer,2021.1.3,60.61711866575837,
block,faces,faces023.bmp,,,,,0,140,140,140,,,,,,,,,,,,,,,,,,,,,,,,,,,,,,,,,,,,,,,,,,None,,318.47683112998493,None,318.47683112998493,None,2022-03-09-15:01:29.813492,318.4859943999909,318.7933989998419,318.4859943999909,None,None,318.4859943999909,None,319.2941394299269,None,,,,12013,0001,2022_Mar_09_1456,localizer,2021.1.3,60.61711866575837,
block,faces,faces083.bmp,,,,,0,141,141,141,,,,,,,,,,,,,,,,,,,,,,,,,,,,,,,,,,,,,,,,,,None,,319.2941394299269,None,319.2941394299269,None,2022-03-09-15:01:30.631787,319.30510500003584,319.61036339984275,319.30510500003584,None,None,319.30510500003584,None,320.1116798298899,None,,,,12013,0001,2022_Mar_09_1456,localizer,2021.1.3,60.61711866575837,
block,faces,faces061.bmp,,,,,0,142,142,142,,,,,,,,,,,,,,,,,,,,,,,,,,,,,,,,,,,,,,,,,,None,,320.1116798298899,None,320.1116798298899,None,2022-03-09-15:01:31.449489,320.12605650001206,320.42985549988225,320.12605650001206,None,None,320.12605650001206,None,320.92796072992496,None,,,,12013,0001,2022_Mar_09_1456,localizer,2021.1.3,60.61711866575837,
block,faces,faces060.bmp,,,,,0,143,143,143,,,,,,,,,,,,,,,,,,,,,,,,,,,,,,,,,,,,,,,,,,None,,320.92796072992496,None,320.92796072992496,None,2022-03-09-15:01:32.265599,320.9400149998255,321.2438554998953,320.9400149998255,None,None,320.9400149998255,None,321.744141229894,None,,,,12013,0001,2022_Mar_09_1456,localizer,2021.1.3,60.61711866575837,
block,faces,faces080.bmp,,,,,0,144,144,144,,,,,,,,,,,,,,,,,,,,,,,,,,,,,,,,,,,,,,,,,,None,,321.744141229894,None,321.744141229894,None,2022-03-09-15:01:33.081305,321.7588759998325,322.06036849995144,321.7588759998325,None,None,321.7588759998325,None,322.56094712996855,None,,,,12013,0001,2022_Mar_09_1456,localizer,2021.1.3,60.61711866575837,
block,faces,faces040.bmp,,,,,0,145,145,145,,,,,,,,,,,,,,,,,,,,,,,,,,,,,,,,,,,,,,,,,,None,,322.56094712996855,None,322.56094712996855,None,2022-03-09-15:01:33.898791,322.5730542000383,322.87697519990616,322.5730542000383,None,None,322.5730542000383,None,323.37745922990143,None,,,,12013,0001,2022_Mar_09_1456,localizer,2021.1.3,60.61711866575837,
block,faces,faces036.bmp,,,,,0,146,146,146,,,,,,,,,,,,,,,,,,,,,,,,,,,,,,,,,,,,,,,,,,None,,323.37745922990143,None,323.37745922990143,None,2022-03-09-15:01:34.714113,323.3779068000149,323.6768246998545,323.3779068000149,None,None,323.3779068000149,None,324.1783013299573,None,,,,12013,0001,2022_Mar_09_1456,localizer,2021.1.3,60.61711866575837,
block,faces,faces064.bmp,,,,,0,147,147,147,,,,,,,,,,,,,,,,,,,,,,,,,,,,,,,,,,,,,,,,,,None,,324.1783013299573,None,324.1783013299573,None,2022-03-09-15:01:35.518929,324.19482099986635,324.4935597998556,324.19482099986635,324.19482099986635,None,324.19482099986635,324.19482099986635,325.0003828299232,None,,,,12013,0001,2022_Mar_09_1456,localizer,2021.1.3,60.61711866575837,
block,faces,faces020.bmp,,,,,0,148,148,148,,,,,,,,,,,,,,,,,,,,,,,,,,,,,,,,,,,,,,,,,,None,,325.0003828299232,None,325.0003828299232,None,2022-03-09-15:01:36.342976,325.00652309996076,325.3110548998229,325.00652309996076,None,None,325.00652309996076,None,325.8109146298375,None,,,,12013,0001,2022_Mar_09_1456,localizer,2021.1.3,60.61711866575837,
block,faces,faces063.bmp,,,,,0,149,149,149,,,,,,,,,,,,,,,,,,,,,,,,,,,,,,,,,,,,,,,,,,None,,325.8109146298375,None,325.8109146298375,None,2022-03-09-15:01:37.147913,325.81140149990097,326.1106208998244,325.81140149990097,None,None,325.81140149990097,None,326.610451629851,None,,,,12013,0001,2022_Mar_09_1456,localizer,2021.1.3,60.61711866575837,
block,faces,faces030.bmp,,,,,0,150,150,150,,,,,,,,,,,,,,,,,,,,,,,,,,,,,,,,,,,,,,,,,,None,,326.610451629851,None,326.610451629851,None,2022-03-09-15:01:37.949101,326.62241670000367,326.92698229989037,326.62241670000367,326.62241670000367,None,326.62241670000367,326.62241670000367,327.42725992994383,None,,,,12013,0001,2022_Mar_09_1456,localizer,2021.1.3,60.61711866575837,
block_end,faces,faces050.bmp,,,,,0,151,151,151,,,,,,,,,,,,,,,,,,,,,,,,,,,,,,,,,,,,,,,,,,None,,327.42725992994383,None,327.42725992994383,None,2022-03-09-15:01:38.764176,327.43656509998254,327.7440355999861,327.43656509998254,None,None,327.43656509998254,None,328.24345732992515,None,,,,12013,0001,2022_Mar_09_1456,localizer,2021.1.3,60.61711866575837,
block_start,scrambled,scrambled025.bmp,,,,,0,152,152,152,,,,,,,,,,,,,,,,,,,,,,,,,,,,,,,,,,,,,,,,,,t,1.760754100047052,328.2434202998411,None,328.2434202998411,None,2022-03-09-15:01:41.364153,330.0279405999463,330.3273924998939,330.0279405999463,None,None,330.0279405999463,None,330.8279895298183,None,,,,12013,0001,2022_Mar_09_1456,localizer,2021.1.3,60.61711866575837,
block,scrambled,scrambled005.bmp,,,,,0,153,153,153,,,,,,,,,,,,,,,,,,,,,,,,,,,,,,,,,,,,,,,,,,None,,330.8279895298183,None,330.8279895298183,None,2022-03-09-15:01:42.167625,330.84166939998977,331.14373399992473,330.84166939998977,330.84166939998977,None,330.84166939998977,330.84166939998977,331.6439358298667,None,,,,12013,0001,2022_Mar_09_1456,localizer,2021.1.3,60.61711866575837,
block,scrambled,scrambled020.bmp,,,,,0,154,154,154,,,,,,,,,,,,,,,,,,,,,,,,,,,,,,,,,,,,,,,,,,None,,331.6439358298667,None,331.6439358298667,None,2022-03-09-15:01:42.979593,331.65156119992025,331.96666809986345,331.65156119992025,None,None,331.65156119992025,None,332.46032892982475,None,,,,12013,0001,2022_Mar_09_1456,localizer,2021.1.3,60.61711866575837,
block,scrambled,scrambled036.bmp,,,,,0,155,155,155,,,,,,,,,,,,,,,,,,,,,,,,,,,,,,,,,,,,,,,,,,None,,332.46032892982475,None,332.46032892982475,None,2022-03-09-15:01:43.797036,332.4692108000163,332.77687029982917,332.4692108000163,None,None,332.4692108000163,None,333.27732432982884,None,,,,12013,0001,2022_Mar_09_1456,localizer,2021.1.3,60.61711866575837,
block,scrambled,scrambled071.bmp,,,,,0,156,156,156,,,,,,,,,,,,,,,,,,,,,,,,,,,,,,,,,,,,,,,,,,None,,333.27732432982884,None,333.27732432982884,None,2022-03-09-15:01:44.613978,333.2779170998838,333.5770928999409,333.2779170998838,None,None,333.2779170998838,None,334.0784819298424,None,,,,12013,0001,2022_Mar_09_1456,localizer,2021.1.3,60.61711866575837,
block,scrambled,scrambled029.bmp,,,,,0,157,157,157,,,,,,,,,,,,,,,,,,,,,,,,,,,,,,,,,,,,,,,,,,None,,334.0784819298424,None,334.0784819298424,None,2022-03-09-15:01:45.419110,334.0941639000084,334.39377099997364,334.0941639000084,334.0941639000084,None,334.0941639000084,334.0941639000084,334.8941939298529,None,,,,12013,0001,2022_Mar_09_1456,localizer,2021.1.3,60.61711866575837,
block,scrambled,scrambled014.bmp,,,,,0,158,158,158,,,,,,,,,,,,,,,,,,,,,,,,,,,,,,,,,,,,,,,,,,None,,334.8941939298529,None,334.8941939298529,None,2022-03-09-15:01:46.230949,334.89458779990673,335.1932053999044,334.89458779990673,None,None,334.89458779990673,None,335.69379632989876,None,,,,12013,0001,2022_Mar_09_1456,localizer,2021.1.3,60.61711866575837,
block,scrambled,scrambled044.bmp,,,,,0,159,159,159,,,,,,,,,,,,,,,,,,,,,,,,,,,,,,,,,,,,,,,,,,None,,335.69379632989876,None,335.69379632989876,None,2022-03-09-15:01:47.031396,335.7011911999434,336.01060499995947,335.7011911999434,335.7011911999434,None,335.7011911999434,335.7011911999434,336.51098862988874,None,,,,12013,0001,2022_Mar_09_1456,localizer,2021.1.3,60.61711866575837,
block,scrambled,scrambled066.bmp,,,,,0,160,160,160,,,,,,,,,,,,,,,,,,,,,,,,,,,,,,,,,,,,,,,,,,None,,336.51098862988874,None,336.51098862988874,None,2022-03-09-15:01:47.847920,336.5219196998514,336.8270185999572,336.5219196998514,None,None,336.5219196998514,None,337.32941792998463,None,,,,12013,0001,2022_Mar_09_1456,localizer,2021.1.3,60.61711866575837,
block,scrambled,scrambled087.bmp,,,,,0,161,161,161,,,,,,,,,,,,,,,,,,,,,,,,,,,,,,,,,,,,,,,,,,None,,337.32941792998463,None,337.32941792998463,None,2022-03-09-15:01:48.669214,337.340029399842,337.6436281998176,337.340029399842,None,None,337.340029399842,None,338.1438142298721,None,,,,12013,0001,2022_Mar_09_1456,localizer,2021.1.3,60.61711866575837,
block,scrambled,scrambled064.bmp,,,,,0,162,162,162,,,,,,,,,,,,,,,,,,,,,,,,,,,,,,,,,,,,,,,,,,None,,338.1438142298721,None,338.1438142298721,None,2022-03-09-15:01:49.480662,338.1446350000333,338.4439139999449,338.1446350000333,None,None,338.1446350000333,None,338.9439600298647,None,,,,12013,0001,2022_Mar_09_1456,localizer,2021.1.3,60.61711866575837,
block,scrambled,scrambled068.bmp,,,,,0,163,163,163,,,,,,,,,,,,,,,,,,,,,,,,,,,,,,,,,,,,,,,,,,None,,338.9439600298647,None,338.9439600298647,None,2022-03-09-15:01:50.281613,338.95474729989655,339.26061589992605,338.95474729989655,338.95474729989655,None,338.95474729989655,338.95474729989655,339.76159842987545,None,,,,12013,0001,2022_Mar_09_1456,localizer,2021.1.3,60.61711866575837,
block,scrambled,scrambled080.bmp,,,,,0,164,164,164,,,,,,,,,,,,,,,,,,,,,,,,,,,,,,,,,,,,,,,,,,None,,339.76159842987545,None,339.76159842987545,None,2022-03-09-15:01:51.098242,339.77268860000186,340.0770403998904,339.77268860000186,None,None,339.77268860000186,None,340.5770933299791,None,,,,12013,0001,2022_Mar_09_1456,localizer,2021.1.3,60.61711866575837,
block,scrambled,scrambled054.bmp,,,,,0,165,165,165,,,,,,,,,,,,,,,,,,,,,,,,,,,,,,,,,,,,,,,,,,None,,340.5770933299791,None,340.5770933299791,None,2022-03-09-15:01:51.913746,340.5859800998587,340.8936683998909,340.5859800998587,None,None,340.5859800998587,None,341.39411262981594,None,,,,12013,0001,2022_Mar_09_1456,localizer,2021.1.3,60.61711866575837,
block_end,scrambled,scrambled004.bmp,,,,,0,166,166,166,,,,,,,,,,,,,,,,,,,,,,,,,,,,,,,,,,,,,,,,,,None,,341.39411262981594,None,341.39411262981594,None,2022-03-09-15:01:52.730786,341.4040023998823,341.71168820001185,341.4040023998823,None,None,341.4040023998823,None,342.2105515298899,None,,,,12013,0001,2022_Mar_09_1456,localizer,2021.1.3,60.61711866575837,
block_start,objects,objects038.bmp,,,,,0,167,167,167,,,,,,,,,,,,,,,,,,,,,,,,,,,,,,,,,,,,,,,,,,t,1.7936943999957293,342.21045999997295,None,342.21045999997295,None,2022-03-09-15:01:55.366640,344.04227799992077,344.34357539983466,344.04227799992077,None,None,344.04227799992077,None,344.84463452990167,None,,,,12013,0001,2022_Mar_09_1456,localizer,2021.1.3,60.61711866575837,
block,objects,objects061.bmp,,,,,0,168,168,168,,,,,,,,,,,,,,,,,,,,,,,,,,,,,,,,,,,,,,,,,,None,,344.84463452990167,None,344.84463452990167,None,2022-03-09-15:01:56.182347,344.8541152998805,345.16031519998796,344.8541152998805,None,None,344.8541152998805,None,345.6603889300022,None,,,,12013,0001,2022_Mar_09_1456,localizer,2021.1.3,60.61711866575837,
block,objects,objects010.bmp,,,,,0,169,169,169,,,,,,,,,,,,,,,,,,,,,,,,,,,,,,,,,,,,,,,,,,None,,345.6603889300022,None,345.6603889300022,None,2022-03-09-15:01:56.997048,345.66149159986526,345.96035990002565,345.66149159986526,None,None,345.66149159986526,None,346.46095272991806,None,,,,12013,0001,2022_Mar_09_1456,localizer,2021.1.3,60.61711866575837,
block,objects,objects085.bmp,,,,,0,170,170,170,,,,,,,,,,,,,,,,,,,,,,,,,,,,,,,,,,,,,,,,,,None,,346.46095272991806,None,346.46095272991806,None,2022-03-09-15:01:57.799880,346.47355569992214,346.77731559984386,346.47355569992214,346.47355569992214,None,346.47355569992214,346.47355569992214,347.2796013299376,None,,,,12013,0001,2022_Mar_09_1456,localizer,2021.1.3,60.61711866575837,
block,objects,objects026.bmp,,,,,0,171,171,171,,,,,,,,,,,,,,,,,,,,,,,,,,,,,,,,,,,,,,,,,,None,,347.2796013299376,None,347.2796013299376,None,2022-03-09-15:01:58.616248,347.28702869988047,347.5938997999765,347.28702869988047,None,None,347.28702869988047,None,348.09416242991574,None,,,,12013,0001,2022_Mar_09_1456,localizer,2021.1.3,60.61711866575837,
block,objects,objects042.bmp,,,,,0,172,172,172,,,,,,,,,,,,,,,,,,,,,,,,,,,,,,,,,,,,,,,,,,None,,348.09416242991574,None,348.09416242991574,None,2022-03-09-15:01:59.431030,348.1045582999941,348.4102954999544,348.1045582999941,None,None,348.1045582999941,None,348.9106625299901,None,,,,12013,0001,2022_Mar_09_1456,localizer,2021.1.3,60.61711866575837,
block,objects,objects014.bmp,,,,,0,173,173,173,,,,,,,,,,,,,,,,,,,,,,,,,,,,,,,,,,,,,,,,,,None,,348.9106625299901,None,348.9106625299901,None,2022-03-09-15:02:00.247318,348.9113107000012,349.210687499959,348.9113107000012,None,None,348.9113107000012,None,349.7107242299244,None,,,,12013,0001,2022_Mar_09_1456,localizer,2021.1.3,60.61711866575837,
block,objects,objects068.bmp,,,,,0,174,174,174,,,,,,,,,,,,,,,,,,,,,,,,,,,,,,,,,,,,,,,,,,None,,349.7107242299244,None,349.7107242299244,None,2022-03-09-15:02:01.049370,349.72238929988816,350.0273338998668,349.72238929988816,349.72238929988816,None,349.72238929988816,349.72238929988816,350.52757192985155,None,,,,12013,0001,2022_Mar_09_1456,localizer,2021.1.3,60.61711866575837,
block,objects,objects031.bmp,,,,,0,175,175,175,,,,,,,,,,,,,,,,,,,,,,,,,,,,,,,,,,,,,,,,,,None,,350.52757192985155,None,350.52757192985155,None,2022-03-09-15:02:01.864224,350.53727919980884,350.84357459982857,350.53727919980884,None,None,350.53727919980884,None,351.34401672985405,None,,,,12013,0001,2022_Mar_09_1456,localizer,2021.1.3,60.61711866575837,
block,objects,objects036.bmp,,,,,0,176,176,176,,,,,,,,,,,,,,,,,,,,,,,,,,,,,,,,,,,,,,,,,,None,,351.34401672985405,None,351.34401672985405,None,2022-03-09-15:02:02.680163,351.344815999968,351.64417969994247,351.344815999968,None,None,351.344815999968,None,352.1450175298378,None,,,,12013,0001,2022_Mar_09_1456,localizer,2021.1.3,60.61711866575837,
block,objects,objects022.bmp,,,,,0,177,177,177,,,,,,,,,,,,,,,,,,,,,,,,,,,,,,,,,,,,,,,,,,None,,352.1450175298378,None,352.1450175298378,None,2022-03-09-15:02:03.482674,352.15402429993264,352.46008099988103,352.15402429993264,352.15402429993264,None,352.15402429993264,352.15402429993264,352.9610049298499,None,,,,12013,0001,2022_Mar_09_1456,localizer,2021.1.3,60.61711866575837,
block,objects,objects002.bmp,,,,,0,178,178,178,,,,,,,,,,,,,,,,,,,,,,,,,,,,,,,,,,,,,,,,,,None,,352.9610049298499,None,352.9610049298499,None,2022-03-09-15:02:04.297672,352.96146949985996,353.2607793000061,352.96146949985996,None,None,352.96146949985996,None,353.7619765298441,None,,,,12013,0001,2022_Mar_09_1456,localizer,2021.1.3,60.61711866575837,
block,objects,objects053.bmp,,,,,0,179,179,179,,,,,,,,,,,,,,,,,,,,,,,,,,,,,,,,,,,,,,,,,,None,,353.7619765298441,None,353.7619765298441,None,2022-03-09-15:02:05.102586,353.76717639993876,354.077835700009,353.76717639993876,353.76717639993876,None,353.76717639993876,353.76717639993876,354.5772643298842,None,,,,12013,0001,2022_Mar_09_1456,localizer,2021.1.3,60.61711866575837,
block,objects,objects086.bmp,,,,,0,180,180,180,,,,,,,,,,,,,,,,,,,,,,,,,,,,,,,,,,,,,,,,,,None,,354.5772643298842,None,354.5772643298842,None,2022-03-09-15:02:05.913921,354.5784159998875,354.8939053998329,354.5784159998875,None,None,354.5784159998875,None,355.3776396298781,None,,,,12013,0001,2022_Mar_09_1456,localizer,2021.1.3,60.61711866575837,
block_end,objects,objects081.bmp,,,,,0,181,181,181,,,,,,,,,,,,,,,,,,,,,,,,,,,,,,,,,,,,,,,,,,None,,355.3776396298781,None,355.3776396298781,None,2022-03-09-15:02:06.716492,355.3897007999476,355.69402779988013,355.3897007999476,355.3897007999476,None,355.3897007999476,355.3897007999476,356.1942627299577,None,,,,12013,0001,2022_Mar_09_1456,localizer,2021.1.3,60.61711866575837,
null_block,null_block,null_block.bmp,,,,,0,182,182,182,,,,,,,,,,,,,,,,,,,,,,,,,,,,,,,,,,,,,,,,,,t,1.8101996001787484,356.1939281998202,None,356.1939281998202,None,2022-03-09-15:02:09.365927,358.0286990299355,None,358.0286990299355,None,None,358.0286990299355,None,358.03467520000413,None,,,,12013,0001,2022_Mar_09_1456,localizer,2021.1.3,60.61711866575837,
block_start,scrambled,scrambled048.bmp,,,,,0,183,183,183,,,,,,,,,,,,,,,,,,,,,,,,,,,,,,,,,,,,,,,,,,t,1.9605266000144184,370.0440988999326,None,370.0440988999326,None,2022-03-09-15:02:23.377363,372.04026569984853,372.3439115998335,372.04026569984853,None,None,372.04026569984853,None,372.8443165300414,None,,,,12013,0001,2022_Mar_09_1456,localizer,2021.1.3,60.61711866575837,
block,scrambled,scrambled021.bmp,,,,,0,184,184,184,,,,,,,,,,,,,,,,,,,,,,,,,,,,,,,,,,,,,,,,,,None,,372.8443165300414,None,372.8443165300414,None,2022-03-09-15:02:24.181531,372.85609419993125,373.1607911000028,372.85609419993125,None,None,372.85609419993125,None,373.6611371298786,None,,,,12013,0001,2022_Mar_09_1456,localizer,2021.1.3,60.61711866575837,
block,scrambled,scrambled087.bmp,,,,,0,185,185,185,,,,,,,,,,,,,,,,,,,,,,,,,,,,,,,,,,,,,,,,,,None,,373.6611371298786,None,373.6611371298786,None,2022-03-09-15:02:24.998086,373.66168279992417,373.960908500012,373.66168279992417,None,None,373.66168279992417,None,374.4614564299118,None,,,,12013,0001,2022_Mar_09_1456,localizer,2021.1.3,60.61711866575837,
block,scrambled,scrambled073.bmp,,,,,0,186,186,186,,,,,,,,,,,,,,,,,,,,,,,,,,,,,,,,,,,,,,,,,,None,,374.4614564299118,None,374.4614564299118,None,2022-03-09-15:02:25.800094,374.4715268998407,374.77771639986895,374.4715268998407,374.4715268998407,None,374.4715268998407,374.4715268998407,375.2777904300019,None,,,,12013,0001,2022_Mar_09_1456,localizer,2021.1.3,60.61711866575837,
block,scrambled,scrambled039.bmp,,,,,0,187,187,187,,,,,,,,,,,,,,,,,,,,,,,,,,,,,,,,,,,,,,,,,,None,,375.2777904300019,None,375.2777904300019,None,2022-03-09-15:02:26.614658,375.27845979994163,375.5779824999627,375.27845979994163,None,None,375.27845979994163,None,376.07873403001577,None,,,,12013,0001,2022_Mar_09_1456,localizer,2021.1.3,60.61711866575837,
block,scrambled,scrambled063.bmp,,,,,0,188,188,188,,,,,,,,,,,,,,,,,,,,,,,,,,,,,,,,,,,,,,,,,,None,,376.07873403001577,None,376.07873403001577,None,2022-03-09-15:02:27.419362,376.08379559987225,376.3939118999988,376.08379559987225,376.08379559987225,None,376.08379559987225,376.08379559987225,376.89388802996837,None,,,,12013,0001,2022_Mar_09_1456,localizer,2021.1.3,60.61711866575837,
block,scrambled,scrambled063.bmp,,,,,0,189,189,189,,,,,,,,,,,,,,,,,,,,,,,,,,,,,,,,,,,,,,,,,,None,,376.89388802996837,None,376.89388802996837,None,2022-03-09-15:02:28.230547,376.8954763999209,377.2106445999816,376.8954763999209,None,y,376.8954763999209,None,377.71095562982373,None,0.5492860001977533,,,12013,0001,2022_Mar_09_1456,localizer,2021.1.3,60.61711866575837,
block,scrambled,scrambled010.bmp,,,,,0,190,190,190,,,,,,,,,,,,,,,,,,,,,,,,,,,,,,,,,,,,,,,,,,None,,377.71095562982373,None,377.71095562982373,None,2022-03-09-15:02:29.047611,377.72120229993016,378.0279436998535,377.72120229993016,None,None,377.72120229993016,None,378.51583843003027,None,,,,12013,0001,2022_Mar_09_1456,localizer,2021.1.3,60.61711866575837,
block,scrambled,scrambled001.bmp,,,,,0,191,191,191,,,,,,,,,,,,,,,,,,,,,,,,,,,,,,,,,,,,,,,,,,None,,378.51583843003027,None,378.51583843003027,None,2022-03-09-15:02:29.855633,378.5190028999932,378.82749309996143,378.5190028999932,None,None,378.5190028999932,None,379.3288640298415,None,,,,12013,0001,2022_Mar_09_1456,localizer,2021.1.3,60.61711866575837,
block,scrambled,scrambled062.bmp,,,,,0,192,192,192,,,,,,,,,,,,,,,,,,,,,,,,,,,,,,,,,,,,,,,,,,None,,379.3288640298415,None,379.3288640298415,None,2022-03-09-15:02:30.666498,379.3410791999195,379.64478129986674,379.3410791999195,None,None,379.3410791999195,None,380.14738572994247,None,,,,12013,0001,2022_Mar_09_1456,localizer,2021.1.3,60.61711866575837,
block,scrambled,scrambled005.bmp,,,,,0,193,193,193,,,,,,,,,,,,,,,,,,,,,,,,,,,,,,,,,,,,,,,,,,None,,380.14738572994247,None,380.14738572994247,None,2022-03-09-15:02:31.483256,380.145616899943,380.4630279999692,380.145616899943,None,None,380.145616899943,None,380.9606804298237,None,,,,12013,0001,2022_Mar_09_1456,localizer,2021.1.3,60.61711866575837,
block,scrambled,scrambled072.bmp,,,,,0,194,194,194,,,,,,,,,,,,,,,,,,,,,,,,,,,,,,,,,,,,,,,,,,None,,380.9606804298237,None,380.9606804298237,None,2022-03-09-15:02:32.297337,380.97024119994603,381.2773213000037,380.97024119994603,None,None,380.97024119994603,None,381.7774212299846,None,,,,12013,0001,2022_Mar_09_1456,localizer,2021.1.3,60.61711866575837,
block,scrambled,scrambled081.bmp,,,,,0,195,195,195,,,,,,,,,,,,,,,,,,,,,,,,,,,,,,,,,,,,,,,,,,None,,381.7774212299846,None,381.7774212299846,None,2022-03-09-15:02:33.114285,381.787958699977,382.09360309992917,381.787958699977,None,None,381.787958699977,None,382.59453062992543,None,,,,12013,0001,2022_Mar_09_1456,localizer,2021.1.3,60.61711866575837,
block,scrambled,scrambled019.bmp,,,,,0,196,196,196,,,,,,,,,,,,,,,,,,,,,,,,,,,,,,,,,,,,,,,,,,None,,382.59453062992543,None,382.59453062992543,None,2022-03-09-15:02:33.931177,382.60523630003445,382.9164632000029,382.60523630003445,None,None,382.60523630003445,None,383.4122282299213,None,,,,12013,0001,2022_Mar_09_1456,localizer,2021.1.3,60.61711866575837,
block_end,scrambled,scrambled012.bmp,,,,,0,197,197,197,,,,,,,,,,,,,,,,,,,,,,,,,,,,,,,,,,,,,,,,,,None,,383.4122282299213,None,383.4122282299213,None,2022-03-09-15:02:34.749863,383.4143586999271,383.7277657999657,383.4143586999271,None,None,383.4143586999271,None,384.21732753003016,None,,,,12013,0001,2022_Mar_09_1456,localizer,2021.1.3,60.61711866575837,
null_block,null_block,null_block.bmp,,,,,0,198,198,198,,,,,,,,,,,,,,,,,,,,,,,,,,,,,,,,,,,,,,,,,,t,1.7908513001166284,384.2131479999516,None,384.2131479999516,None,2022-03-09-15:02:37.364628,386.0277284299955,None,386.0277284299955,None,None,386.0277284299955,None,386.03049409994856,None,,,,12013,0001,2022_Mar_09_1456,localizer,2021.1.3,60.61711866575837,
block_start,objects,objects064.bmp,,,,,0,199,199,199,,,,,,,,,,,,,,,,,,,,,,,,,,,,,,,,,,,,,,,,,,t,1.9595397000666708,398.04442129982635,None,398.04442129982635,None,2022-03-09-15:02:51.367095,400.0364804000128,400.3441881998442,400.0364804000128,None,None,400.0364804000128,None,400.84483972983435,None,,,,12013,0001,2022_Mar_09_1456,localizer,2021.1.3,60.61711866575837,
block,objects,objects066.bmp,,,,,0,200,200,200,,,,,,,,,,,,,,,,,,,,,,,,,,,,,,,,,,,,,,,,,,None,,400.84483972983435,None,400.84483972983435,None,2022-03-09-15:02:52.182484,400.8554316998925,401.1607691999525,400.8554316998925,None,None,400.8554316998925,None,401.66104292985983,None,,,,12013,0001,2022_Mar_09_1456,localizer,2021.1.3,60.61711866575837,
block,objects,objects057.bmp,,,,,0,201,201,201,,,,,,,,,,,,,,,,,,,,,,,,,,,,,,,,,,,,,,,,,,None,,401.66104292985983,None,401.66104292985983,None,2022-03-09-15:02:52.997698,401.67101869988255,401.97750619985163,401.67101869988255,None,None,401.67101869988255,None,402.4777998300269,None,,,,12013,0001,2022_Mar_09_1456,localizer,2021.1.3,60.61711866575837,
block,objects,objects082.bmp,,,,,0,202,202,202,,,,,,,,,,,,,,,,,,,,,,,,,,,,,,,,,,,,,,,,,,None,,402.4777998300269,None,402.4777998300269,None,2022-03-09-15:02:53.814198,402.487361199921,402.7953378998209,402.487361199921,None,None,402.487361199921,None,403.2956172300037,None,,,,12013,0001,2022_Mar_09_1456,localizer,2021.1.3,60.61711866575837,
block,objects,objects073.bmp,,,,,0,203,203,203,,,,,,,,,,,,,,,,,,,,,,,,,,,,,,,,,,,,,,,,,,None,,403.2956172300037,None,403.2956172300037,None,2022-03-09-15:02:54.635313,403.30990659981035,403.6106530998368,403.30990659981035,None,None,403.30990659981035,None,404.1111644299235,None,,,,12013,0001,2022_Mar_09_1456,localizer,2021.1.3,60.61711866575837,
block,objects,objects054.bmp,,,,,0,204,204,204,,,,,,,,,,,,,,,,,,,,,,,,,,,,,,,,,,,,,,,,,,None,,404.1111644299235,None,404.1111644299235,None,2022-03-09-15:02:55.447784,404.1167431999929,404.4277914999984,404.1167431999929,None,None,404.1167431999929,None,404.928631729912,None,,,,12013,0001,2022_Mar_09_1456,localizer,2021.1.3,60.61711866575837,
block,objects,objects056.bmp,,,,,0,205,205,205,,,,,,,,,,,,,,,,,,,,,,,,,,,,,,,,,,,,,,,,,,None,,404.928631729912,None,404.928631729912,None,2022-03-09-15:02:56.266268,404.93028139998205,405.245040099835,404.93028139998205,None,None,404.93028139998205,None,405.74452352989465,None,,,,12013,0001,2022_Mar_09_1456,localizer,2021.1.3,60.61711866575837,
block,objects,objects060.bmp,,,,,0,206,206,206,,,,,,,,,,,,,,,,,,,,,,,,,,,,,,,,,,,,,,,,,,None,,405.74452352989465,None,405.74452352989465,None,2022-03-09-15:02:57.081379,405.75540019990876,406.0610714999493,405.75540019990876,None,None,405.75540019990876,None,406.5609174298588,None,,,,12013,0001,2022_Mar_09_1456,localizer,2021.1.3,60.61711866575837,
block,objects,objects047.bmp,,,,,0,207,207,207,,,,,,,,,,,,,,,,,,,,,,,,,,,,,,,,,,,,,,,,,,None,,406.5609174298588,None,406.5609174298588,None,2022-03-09-15:02:57.903133,406.56974209984764,406.87870460003614,406.56974209984764,None,None,406.56974209984764,None,407.37778343004175,None,,,,12013,0001,2022_Mar_09_1456,localizer,2021.1.3,60.61711866575837,
block,objects,objects023.bmp,,,,,0,208,208,208,,,,,,,,,,,,,,,,,,,,,,,,,,,,,,,,,,,,,,,,,,None,,407.37778343004175,None,407.37778343004175,None,2022-03-09-15:02:58.714918,407.3783853999339,407.6774110000115,407.3783853999339,None,None,407.3783853999339,None,408.17751373001374,None,,,,12013,0001,2022_Mar_09_1456,localizer,2021.1.3,60.61711866575837,
block,objects,objects009.bmp,,,,,0,209,209,209,,,,,,,,,,,,,,,,,,,,,,,,,,,,,,,,,,,,,,,,,,None,,408.17751373001374,None,408.17751373001374,None,2022-03-09-15:02:59.515437,408.1868344999384,408.49443620000966,408.1868344999384,408.1868344999384,None,408.1868344999384,408.1868344999384,408.9943319298327,None,,,,12013,0001,2022_Mar_09_1456,localizer,2021.1.3,60.61711866575837,
block,objects,objects083.bmp,,,,,0,210,210,210,,,,,,,,,,,,,,,,,,,,,,,,,,,,,,,,,,,,,,,,,,None,,408.9943319298327,None,408.9943319298327,None,2022-03-09-15:03:00.330988,408.99512539990246,409.2940189000219,408.99512539990246,None,None,408.99512539990246,None,409.79427762981504,None,,,,12013,0001,2022_Mar_09_1456,localizer,2021.1.3,60.61711866575837,
block,objects,objects059.bmp,,,,,0,211,211,211,,,,,,,,,,,,,,,,,,,,,,,,,,,,,,,,,,,,,,,,,,None,,409.79427762981504,None,409.79427762981504,None,2022-03-09-15:03:01.131931,409.8042229998391,410.1111098998226,409.8042229998391,409.8042229998391,None,409.8042229998391,409.8042229998391,410.6112597298343,None,,,,12013,0001,2022_Mar_09_1456,localizer,2021.1.3,60.61711866575837,
block,objects,objects043.bmp,,,,,0,212,212,212,,,,,,,,,,,,,,,,,,,,,,,,,,,,,,,,,,,,,,,,,,None,,410.6112597298343,None,410.6112597298343,None,2022-03-09-15:03:01.948146,410.6118018999696,410.9144331999123,410.6118018999696,None,None,410.6118018999696,None,411.41245452989824,None,,,,12013,0001,2022_Mar_09_1456,localizer,2021.1.3,60.61711866575837,
block_end,objects,objects071.bmp,,,,,0,213,213,213,,,,,,,,,,,,,,,,,,,,,,,,,,,,,,,,,,,,,,,,,,None,,411.41245452989824,None,411.41245452989824,None,2022-03-09-15:03:02.753636,411.4279503999278,411.7275973998476,411.4279503999278,411.4279503999278,None,411.4279503999278,411.4279503999278,412.2278042298276,None,,,,12013,0001,2022_Mar_09_1456,localizer,2021.1.3,60.61711866575837,
block_start,scenes,scenes030.bmp,,,,,0,214,214,214,,,,,,,,,,,,,,,,,,,,,,,,,,,,,,,,,,,,,,,,,,t,1.7763177000451833,412.22760479990393,None,412.22760479990393,None,2022-03-09-15:03:05.363328,414.0367564999033,414.34439609991387,414.0367564999033,None,None,414.0367564999033,None,414.8452962299343,None,,,,12013,0001,2022_Mar_09_1456,localizer,2021.1.3,60.61711866575837,
block,scenes,scenes048.bmp,,,,,0,215,215,215,,,,,,,,,,,,,,,,,,,,,,,,,,,,,,,,,,,,,,,,,,None,,414.8452962299343,None,414.8452962299343,None,2022-03-09-15:03:06.183116,414.86147769982927,415.1609028999228,414.86147769982927,None,None,414.86147769982927,None,415.66259533003904,None,,,,12013,0001,2022_Mar_09_1456,localizer,2021.1.3,60.61711866575837,
block,scenes,scenes017.bmp,,,,,0,216,216,216,,,,,,,,,,,,,,,,,,,,,,,,,,,,,,,,,,,,,,,,,,None,,415.66259533003904,None,415.66259533003904,None,2022-03-09-15:03:07.000639,415.6647783999797,415.977450999897,415.6647783999797,None,None,415.6647783999797,None,416.4779150299728,None,,,,12013,0001,2022_Mar_09_1456,localizer,2021.1.3,60.61711866575837,
block,scenes,scenes059.bmp,,,,,0,217,217,217,,,,,,,,,,,,,,,,,,,,,,,,,,,,,,,,,,,,,,,,,,None,,416.4779150299728,None,416.4779150299728,None,2022-03-09-15:03:07.814515,416.4863847999368,416.79490849981084,416.4863847999368,None,None,416.4863847999368,None,417.29449652996846,None,,,,12013,0001,2022_Mar_09_1456,localizer,2021.1.3,60.61711866575837,
block,scenes,scenes031.bmp,,,,,0,218,218,218,,,,,,,,,,,,,,,,,,,,,,,,,,,,,,,,,,,,,,,,,,None,,417.29449652996846,None,417.29449652996846,None,2022-03-09-15:03:08.631152,417.30482889991254,417.6121590998955,417.30482889991254,None,None,417.30482889991254,None,418.11123843002133,None,,,,12013,0001,2022_Mar_09_1456,localizer,2021.1.3,60.61711866575837,
block,scenes,scenes081.bmp,,,,,0,219,219,219,,,,,,,,,,,,,,,,,,,,,,,,,,,,,,,,,,,,,,,,,,None,,418.11123843002133,None,418.11123843002133,None,2022-03-09-15:03:09.448095,418.1212517998647,418.42776009999216,418.1212517998647,None,None,418.1212517998647,None,418.9274750298355,None,,,,12013,0001,2022_Mar_09_1456,localizer,2021.1.3,60.61711866575837,
block,scenes,scenes076.bmp,,,,,0,220,220,220,,,,,,,,,,,,,,,,,,,,,,,,,,,,,,,,,,,,,,,,,,None,,418.9274750298355,None,418.9274750298355,None,2022-03-09-15:03:10.264135,418.9287737000268,419.2442494998686,418.9287737000268,None,None,418.9287737000268,None,419.7282873298973,None,,,,12013,0001,2022_Mar_09_1456,localizer,2021.1.3,60.61711866575837,
block,scenes,scenes080.bmp,,,,,0,221,221,221,,,,,,,,,,,,,,,,,,,,,,,,,,,,,,,,,,,,,,,,,,None,,419.7282873298973,None,419.7282873298973,None,2022-03-09-15:03:11.073059,419.73906369996257,420.0440729998518,419.73906369996257,419.73906369996257,None,419.73906369996257,419.73906369996257,420.54447502992116,None,,,,12013,0001,2022_Mar_09_1456,localizer,2021.1.3,60.61711866575837,
block,scenes,scenes012.bmp,,,,,0,222,222,222,,,,,,,,,,,,,,,,,,,,,,,,,,,,,,,,,,,,,,,,,,None,,420.54447502992116,None,420.54447502992116,None,2022-03-09-15:03:11.881373,420.55448299995624,420.8607927998528,420.55448299995624,None,None,420.55448299995624,None,421.3610168299638,None,,,,12013,0001,2022_Mar_09_1456,localizer,2021.1.3,60.61711866575837,
block,scenes,scenes088.bmp,,,,,0,223,223,223,,,,,,,,,,,,,,,,,,,,,,,,,,,,,,,,,,,,,,,,,,None,,421.3610168299638,None,421.3610168299638,None,2022-03-09-15:03:12.697933,421.36182369990274,421.66099420003593,421.36182369990274,None,None,421.36182369990274,None,422.1615618299693,None,,,,12013,0001,2022_Mar_09_1456,localizer,2021.1.3,60.61711866575837,
block,scenes,scenes044.bmp,,,,,0,224,224,224,,,,,,,,,,,,,,,,,,,,,,,,,,,,,,,,,,,,,,,,,,None,,422.1615618299693,None,422.1615618299693,None,2022-03-09-15:03:13.500206,422.1747804998886,422.47775850002654,422.1747804998886,422.1747804998886,None,422.1747804998886,422.1747804998886,422.9781898299698,None,,,,12013,0001,2022_Mar_09_1456,localizer,2021.1.3,60.61711866575837,
block,scenes,scenes011.bmp,,,,,0,225,225,225,,,,,,,,,,,,,,,,,,,,,,,,,,,,,,,,,,,,,,,,,,None,,422.9781898299698,None,422.9781898299698,None,2022-03-09-15:03:14.314939,422.9888595000375,423.29431629995815,422.9888595000375,None,None,422.9888595000375,None,423.7948531298898,None,,,,12013,0001,2022_Mar_09_1456,localizer,2021.1.3,60.61711866575837,
block,scenes,scenes053.bmp,,,,,0,226,226,226,,,,,,,,,,,,,,,,,,,,,,,,,,,,,,,,,,,,,,,,,,None,,423.7948531298898,None,423.7948531298898,None,2022-03-09-15:03:15.131502,423.8056597998366,424.1111035000067,423.8056597998366,None,None,423.8056597998366,None,424.6111777299084,None,,,,12013,0001,2022_Mar_09_1456,localizer,2021.1.3,60.61711866575837,
block,scenes,scenes002.bmp,,,,,0,227,227,227,,,,,,,,,,,,,,,,,,,,,,,,,,,,,,,,,,,,,,,,,,None,,424.6111777299084,None,424.6111777299084,None,2022-03-09-15:03:15.947832,424.6118336999789,424.9117186998483,424.6118336999789,None,None,424.6118336999789,None,425.4114154300187,None,,,,12013,0001,2022_Mar_09_1456,localizer,2021.1.3,60.61711866575837,
block_end,scenes,scenes046.bmp,,,,,0,228,228,228,,,,,,,,,,,,,,,,,,,,,,,,,,,,,,,,,,,,,,,,,,None,,425.4114154300187,None,425.4114154300187,None,2022-03-09-15:03:16.750061,425.4126327999402,425.71160459984094,425.4126327999402,425.4126327999402,None,425.4126327999402,425.4126327999402,426.2119619299192,None,,,,12013,0001,2022_Mar_09_1456,localizer,2021.1.3,60.61711866575837,
block_start,faces,faces017.bmp,,,,,0,229,229,229,,,,,,,,,,,,,,,,,,,,,,,,,,,,,,,,,,,,,,,,,,t,1.7913138000294566,426.212800799869,None,426.212800799869,None,2022-03-09-15:03:19.362641,428.03685749997385,428.34493899997324,428.03685749997385,None,None,428.03685749997385,None,428.84520122990943,None,,,,12013,0001,2022_Mar_09_1456,localizer,2021.1.3,60.61711866575837,
block,faces,faces058.bmp,,,,,0,230,230,230,,,,,,,,,,,,,,,,,,,,,,,,,,,,,,,,,,,,,,,,,,None,,428.84520122990943,None,428.84520122990943,None,2022-03-09-15:03:20.182884,428.85834099981,429.16120729991235,428.85834099981,None,None,428.85834099981,None,429.6613160299603,None,,,,12013,0001,2022_Mar_09_1456,localizer,2021.1.3,60.61711866575837,
block,faces,faces071.bmp,,,,,0,231,231,231,,,,,,,,,,,,,,,,,,,,,,,,,,,,,,,,,,,,,,,,,,None,,429.6613160299603,None,429.6613160299603,None,2022-03-09-15:03:20.998199,429.6619706999045,429.9612409998663,429.6619706999045,None,None,429.6619706999045,None,430.46154362987727,None,,,,12013,0001,2022_Mar_09_1456,localizer,2021.1.3,60.61711866575837,
block,faces,faces057.bmp,,,,,0,232,232,232,,,,,,,,,,,,,,,,,,,,,,,,,,,,,,,,,,,,,,,,,,None,,430.46154362987727,None,430.46154362987727,None,2022-03-09-15:03:21.799489,430.4633932998404,430.777967199916,430.4633932998404,430.4633932998404,None,430.4633932998404,430.4633932998404,431.27841382985935,None,,,,12013,0001,2022_Mar_09_1456,localizer,2021.1.3,60.61711866575837,
block,faces,faces076.bmp,,,,,0,233,233,233,,,,,,,,,,,,,,,,,,,,,,,,,,,,,,,,,,,,,,,,,,None,,431.27841382985935,None,431.27841382985935,None,2022-03-09-15:03:22.616057,431.2901611998677,431.59433589992113,431.2901611998677,None,None,431.2901611998677,None,432.0942580299452,None,,,,12013,0001,2022_Mar_09_1456,localizer,2021.1.3,60.61711866575837,
block,faces,faces039.bmp,,,,,0,234,234,234,,,,,,,,,,,,,,,,,,,,,,,,,,,,,,,,,,,,,,,,,,None,,432.0942580299452,None,432.0942580299452,None,2022-03-09-15:03:23.430916,432.0954165000003,432.39429669990204,432.0954165000003,None,None,432.0954165000003,None,432.89504322991706,None,,,,12013,0001,2022_Mar_09_1456,localizer,2021.1.3,60.61711866575837,
block,faces,faces078.bmp,,,,,0,235,235,235,,,,,,,,,,,,,,,,,,,,,,,,,,,,,,,,,,,,,,,,,,None,,432.89504322991706,None,432.89504322991706,None,2022-03-09-15:03:24.235886,432.8981416998431,433.2108409998473,432.8981416998431,432.8981416998431,None,432.8981416998431,432.8981416998431,433.7114780298434,None,,,,12013,0001,2022_Mar_09_1456,localizer,2021.1.3,60.61711866575837,
block,faces,faces038.bmp,,,,,0,236,236,236,,,,,,,,,,,,,,,,,,,,,,,,,,,,,,,,,,,,,,,,,,None,,433.7114780298434,None,433.7114780298434,None,2022-03-09-15:03:25.048323,433.7281916998327,434.0276450999081,433.7281916998327,None,None,433.7281916998327,None,434.52770622982644,None,,,,12013,0001,2022_Mar_09_1456,localizer,2021.1.3,60.61711866575837,
block,faces,faces050.bmp,,,,,0,237,237,237,,,,,,,,,,,,,,,,,,,,,,,,,,,,,,,,,,,,,,,,,,None,,434.52770622982644,None,434.52770622982644,None,2022-03-09-15:03:25.863370,434.52866459987126,434.827861599857,434.52866459987126,None,None,434.52866459987126,None,435.32802382996306,None,,,,12013,0001,2022_Mar_09_1456,localizer,2021.1.3,60.61711866575837,
block,faces,faces080.bmp,,,,,0,238,238,238,,,,,,,,,,,,,,,,,,,,,,,,,,,,,,,,,,,,,,,,,,None,,435.32802382996306,None,435.32802382996306,None,2022-03-09-15:03:26.666603,435.33808319992386,435.6450199999381,435.33808319992386,435.33808319992386,None,435.33808319992386,435.33808319992386,436.1453215298243,None,,,,12013,0001,2022_Mar_09_1456,localizer,2021.1.3,60.61711866575837,
block,faces,faces022.bmp,,,,,0,239,239,239,,,,,,,,,,,,,,,,,,,,,,,,,,,,,,,,,,,,,,,,,,None,,436.1453215298243,None,436.1453215298243,None,2022-03-09-15:03:27.482936,436.1581751999911,436.4611265999265,436.1581751999911,None,None,436.1581751999911,None,436.96178953000344,None,,,,12013,0001,2022_Mar_09_1456,localizer,2021.1.3,60.61711866575837,
block,faces,faces031.bmp,,,,,0,240,240,240,,,,,,,,,,,,,,,,,,,,,,,,,,,,,,,,,,,,,,,,,,None,,436.96178953000344,None,436.96178953000344,None,2022-03-09-15:03:28.299520,436.9733916998375,437.27749909996055,436.9733916998375,None,None,436.9733916998375,None,437.7775853299536,None,,,,12013,0001,2022_Mar_09_1456,localizer,2021.1.3,60.61711866575837,
block,faces,faces088.bmp,,,,,0,241,241,241,,,,,,,,,,,,,,,,,,,,,,,,,,,,,,,,,,,,,,,,,,None,,437.7775853299536,None,437.7775853299536,None,2022-03-09-15:03:29.113545,437.7869835998863,438.0935478999745,437.7869835998863,None,None,437.7869835998863,None,438.59477122989483,None,,,,12013,0001,2022_Mar_09_1456,localizer,2021.1.3,60.61711866575837,
block,faces,faces018.bmp,,,,,0,242,242,242,,,,,,,,,,,,,,,,,,,,,,,,,,,,,,,,,,,,,,,,,,None,,438.59477122989483,None,438.59477122989483,None,2022-03-09-15:03:29.931423,438.5953785998281,438.89447989990003,438.5953785998281,None,None,438.5953785998281,None,439.39478043001145,None,,,,12013,0001,2022_Mar_09_1456,localizer,2021.1.3,60.61711866575837,
block_end,faces,faces081.bmp,,,,,0,243,243,243,,,,,,,,,,,,,,,,,,,,,,,,,,,,,,,,,,,,,,,,,,None,,439.39478043001145,None,439.39478043001145,None,2022-03-09-15:03:30.733536,439.40771189983934,439.7112276998814,439.40771189983934,439.40771189983934,None,439.40771189983934,439.40771189983934,440.2118447299581,None,,,,12013,0001,2022_Mar_09_1456,localizer,2021.1.3,60.61711866575837,
,,,,,,,,,,,,,,,,,,,,,,,,,,,,,,,,,,,,,,,,,,,,,,,,,,,,,,,,,,,,,,,,,,,,,440.2108145998791,None,,,,,,,
