block_type,condition,img_name,Button.thisRepN,Button.thisTrialN,Button.thisN,Button.thisIndex,trials.thisRepN,trials.thisTrialN,trials.thisN,trials.thisIndex,Ready_experimenter_text.started,Ready_experimenter_text.stopped,Ready_experimenter_resp.keys,Ready_experimenter_resp.rt,Ready_experimenter_resp.started,Ready_experimenter_resp.stopped,Alignment_background.started,Alignment_background.stopped,Alignment_image.started,Alignment_image.stopped,Alignment_resp.keys,Alignment_resp.rt,Alignment_resp.started,Alignment_resp.stopped,Button_text.started,Button_text.stopped,Index_text.started,Index_text.stopped,Index_resp.keys,Index_resp.rt,Index_resp.started,Index_resp.stopped,Middle_text.started,Middle_text.stopped,Middle_resp.keys,Middle_resp.rt,Middle_resp.started,Middle_resp.stopped,Repeat_text.started,Repeat_text.stopped,Repeat_resp.keys,Repeat_resp.corr,Repeat_resp.rt,Repeat_resp.started,Repeat_resp.stopped,instruction_text.started,instruction_text.stopped,key_resp.keys,key_resp.rt,key_resp.started,key_resp.stopped,scanner_t.keys,scanner_t.rt,scanner_t.started,scanner_t.stopped,fixation_wait_for_t.started,fixation_wait_for_t.stopped,real_timestamp_trial_start,image.started,image.stopped,fixation.started,fixation.stopped,repeat_response.keys,repeat_response.started,repeat_response.stopped,fixation_null.started,fixation_null.stopped,repeat_response.rt,end_text.started,end_text.stopped,participant,run,date,expName,psychopyVersion,frameRate,
,,,,,,,,,,,9.88081340000008,None,return,41.441421000000446,9.88081340000008,None,,,,,,,,,,,,,,,,,,,,,,,,,,,,,,,,,,,,,,,,,,,,,,,,,,,,,,,22015,0001,2022_Oct_03_0952,localizer,2021.1.3,59.07962219776272,
,,,,,,,,,,,,,,,,,51.36518510000042,None,51.36518510000042,None,return,4.548744900000202,51.36518510000042,None,,,,,,,,,,,,,,,,,,,,,,,,,,,,,,,,,,,,,,,,,,,,,,,22015,0001,2022_Oct_03_0952,localizer,2021.1.3,59.07962219776272,
,,,0,0,0,0,,,,,,,,,,,,,,,,,,,55.93186239999977,None,56.942528700000366,None,y,2.6901892999994743,56.942528700000366,None,59.6599170999998,None,b,1.4295126999995773,59.6599170999998,None,61.10931460000029,None,n,0,1.2291417999995247,61.10931460000029,None,,,,,,,,,,,,,,,,,,,,,,,,,,22015,0001,2022_Oct_03_0952,localizer,2021.1.3,59.07962219776272,
,,,,,,,,,,,,,,,,,,,,,,,,,,,,,,,,,,,,,,,,,,,,,,62.36074929999995,None,y,37.359963799999605,62.36074929999995,None,,,,,,,,,,,,,,,,,,,,22015,0001,2022_Oct_03_0952,localizer,2021.1.3,59.07962219776272,
null_block,null_block,null_block.bmp,,,,,0,0,0,0,,,,,,,,,,,,,,,,,,,,,,,,,,,,,,,,,,,,,,,,,,t,15.83950139999979,99.80917339999996,None,99.80917339999996,None,2022-10-03-09:54:15.303052,115.69370481999994,None,115.69370481999994,None,None,115.69370481999994,None,115.69201210000028,None,,,,22015,0001,2022_Oct_03_0952,localizer,2021.1.3,59.07962219776272,
block_start,scenes,scenes060.bmp,,,,,0,1,1,1,,,,,,,,,,,,,,,,,,,,,,,,,,,,,,,,,,,,,,,,,,t,1.954575599999771,127.69394480000028,None,127.69394480000028,None,2022-10-03-09:54:29.307786,129.6925240999999,129.99373110000033,129.6925240999999,None,None,129.6925240999999,None,130.49410051000004,None,,,,22015,0001,2022_Oct_03_0952,localizer,2021.1.3,59.07962219776272,
block,scenes,scenes037.bmp,,,,,0,2,2,2,,,,,,,,,,,,,,,,,,,,,,,,,,,,,,,,,,,,,,,,,,None,,130.49410051000004,None,130.49410051000004,None,2022-10-03-09:54:30.122431,130.50202179999997,130.80967359999977,130.50202179999997,None,None,130.50202179999997,None,131.31058871000013,None,,,,22015,0001,2022_Oct_03_0952,localizer,2021.1.3,59.07962219776272,
block,scenes,scenes010.bmp,,,,,0,3,3,3,,,,,,,,,,,,,,,,,,,,,,,,,,,,,,,,,,,,,,,,,,None,,131.31058871000013,None,131.31058871000013,None,2022-10-03-09:54:30.938138,131.32174229999964,131.6261489999997,131.32174229999964,None,None,131.32174229999964,None,132.1265795099999,None,,,,22015,0001,2022_Oct_03_0952,localizer,2021.1.3,59.07962219776272,
block,scenes,scenes049.bmp,,,,,0,4,4,4,,,,,,,,,,,,,,,,,,,,,,,,,,,,,,,,,,,,,,,,,,None,,132.1265795099999,None,132.1265795099999,None,2022-10-03-09:54:31.753957,132.13634430000002,132.44294040000023,132.13634430000002,None,None,132.13634430000002,None,132.94342370999956,None,,,,22015,0001,2022_Oct_03_0952,localizer,2021.1.3,59.07962219776272,
block,scenes,scenes020.bmp,,,,,0,5,5,5,,,,,,,,,,,,,,,,,,,,,,,,,,,,,,,,,,,,,,,,,,None,,132.94342370999956,None,132.94342370999956,None,2022-10-03-09:54:32.570963,132.95344579999983,133.25972830000046,132.95344579999983,None,None,132.95344579999983,None,133.7599888100004,None,,,,22015,0001,2022_Oct_03_0952,localizer,2021.1.3,59.07962219776272,
block,scenes,scenes050.bmp,,,,,0,6,6,6,,,,,,,,,,,,,,,,,,,,,,,,,,,,,,,,,,,,,,,,,,None,,133.7599888100004,None,133.7599888100004,None,2022-10-03-09:54:33.386399,133.76761019999958,134.07636029999958,133.76761019999958,None,None,133.76761019999958,None,134.57662680999974,None,,,,22015,0001,2022_Oct_03_0952,localizer,2021.1.3,59.07962219776272,
block,scenes,scenes082.bmp,,,,,0,7,7,7,,,,,,,,,,,,,,,,,,,,,,,,,,,,,,,,,,,,,,,,,,None,,134.57662680999974,None,134.57662680999974,None,2022-10-03-09:54:34.204049,134.58515830000033,134.8931064999997,134.58515830000033,None,None,134.58515830000033,None,135.39323521000014,None,,,,22015,0001,2022_Oct_03_0952,localizer,2021.1.3,59.07962219776272,
block,scenes,scenes065.bmp,,,,,0,8,8,8,,,,,,,,,,,,,,,,,,,,,,,,,,,,,,,,,,,,,,,,,,None,,135.39323521000014,None,135.39323521000014,None,2022-10-03-09:54:35.020899,135.40263159999995,135.71001259999957,135.40263159999995,None,None,135.40263159999995,None,136.21014770999963,None,,,,22015,0001,2022_Oct_03_0952,localizer,2021.1.3,59.07962219776272,
block,scenes,scenes043.bmp,,,,,0,9,9,9,,,,,,,,,,,,,,,,,,,,,,,,,,,,,,,,,,,,,,,,,,None,,136.21014770999963,None,136.21014770999963,None,2022-10-03-09:54:35.837722,136.21987999999965,136.52638099999967,136.21987999999965,None,None,136.21987999999965,None,137.02680790999975,None,,,,22015,0001,2022_Oct_03_0952,localizer,2021.1.3,59.07962219776272,
block,scenes,scenes014.bmp,,,,,0,10,10,10,,,,,,,,,,,,,,,,,,,,,,,,,,,,,,,,,,,,,,,,,,None,,137.02680790999975,None,137.02680790999975,None,2022-10-03-09:54:36.654266,137.03800919999958,137.34303530000034,137.03800919999958,None,None,137.03800919999958,None,137.84322961000007,None,,,,22015,0001,2022_Oct_03_0952,localizer,2021.1.3,59.07962219776272,
block,scenes,scenes008.bmp,,,,,0,11,11,11,,,,,,,,,,,,,,,,,,,,,,,,,,,,,,,,,,,,,,,,,,None,,137.84322961000007,None,137.84322961000007,None,2022-10-03-09:54:37.470848,137.85256010000012,138.15986090000024,137.85256010000012,None,None,137.85256010000012,None,138.6599773099998,None,,,,22015,0001,2022_Oct_03_0952,localizer,2021.1.3,59.07962219776272,
block,scenes,scenes005.bmp,,,,,0,12,12,12,,,,,,,,,,,,,,,,,,,,,,,,,,,,,,,,,,,,,,,,,,None,,138.6599773099998,None,138.6599773099998,None,2022-10-03-09:54:38.287463,138.6689365000002,138.97628650000024,138.6689365000002,None,None,138.6689365000002,None,139.48032321000036,None,,,,22015,0001,2022_Oct_03_0952,localizer,2021.1.3,59.07962219776272,
block,scenes,scenes036.bmp,,,,,0,13,13,13,,,,,,,,,,,,,,,,,,,,,,,,,,,,,,,,,,,,,,,,,,None,,139.48032321000036,None,139.48032321000036,None,2022-10-03-09:54:39.114043,139.4974671,139.80970789999992,139.4974671,None,None,139.4974671,None,140.2934442099996,None,,,,22015,0001,2022_Oct_03_0952,localizer,2021.1.3,59.07962219776272,
block,scenes,scenes054.bmp,,,,,0,14,14,14,,,,,,,,,,,,,,,,,,,,,,,,,,,,,,,,,,,,,,,,,,None,,140.2934442099996,None,140.2934442099996,None,2022-10-03-09:54:39.920956,140.304623,140.61041509999995,140.304623,None,None,140.304623,None,141.11002801000004,None,,,,22015,0001,2022_Oct_03_0952,localizer,2021.1.3,59.07962219776272,
block_end,scenes,scenes009.bmp,,,,,0,15,15,15,,,,,,,,,,,,,,,,,,,,,,,,,,,,,,,,,,,,,,,,,,None,,141.11002801000004,None,141.11002801000004,None,2022-10-03-09:54:40.738070,141.11993090000033,141.4264350000003,141.11993090000033,None,None,141.11993090000033,None,141.92656560999976,None,,,,22015,0001,2022_Oct_03_0952,localizer,2021.1.3,59.07962219776272,
block_start,objects,objects083.bmp,,,,,0,16,16,16,,,,,,,,,,,,,,,,,,,,,,,,,,,,,,,,,,,,,,,,,,t,1.7214240000002974,141.92609989999983,None,141.92609989999983,None,2022-10-03-09:54:43.303360,143.6849070999997,143.99314159999994,143.6849070999997,None,None,143.6849070999997,None,144.48060661000008,None,,,,22015,0001,2022_Oct_03_0952,localizer,2021.1.3,59.07962219776272,
block,objects,objects068.bmp,,,,,0,17,17,17,,,,,,,,,,,,,,,,,,,,,,,,,,,,,,,,,,,,,,,,,,None,,144.48060661000008,None,144.48060661000008,None,2022-10-03-09:54:44.117072,144.49887109999963,144.8096145999998,144.49887109999963,None,None,144.49887109999963,None,145.29382450999955,None,,,,22015,0001,2022_Oct_03_0952,localizer,2021.1.3,59.07962219776272,
block,objects,objects011.bmp,,,,,0,18,18,18,,,,,,,,,,,,,,,,,,,,,,,,,,,,,,,,,,,,,,,,,,None,,145.29382450999955,None,145.29382450999955,None,2022-10-03-09:54:44.921395,145.30354330000046,145.60971960000006,145.30354330000046,None,None,145.30354330000046,None,146.11006671000004,None,,,,22015,0001,2022_Oct_03_0952,localizer,2021.1.3,59.07962219776272,
block,objects,objects046.bmp,,,,,0,19,19,19,,,,,,,,,,,,,,,,,,,,,,,,,,,,,,,,,,,,,,,,,,None,,146.11006671000004,None,146.11006671000004,None,2022-10-03-09:54:45.737674,146.1187947999997,146.42682839999998,146.1187947999997,None,None,146.1187947999997,None,146.92722621000038,None,,,,22015,0001,2022_Oct_03_0952,localizer,2021.1.3,59.07962219776272,
block,objects,objects066.bmp,,,,,0,20,20,20,,,,,,,,,,,,,,,,,,,,,,,,,,,,,,,,,,,,,,,,,,None,,146.92722621000038,None,146.92722621000038,None,2022-10-03-09:54:46.555060,146.93685519999963,147.2430972000002,146.93685519999963,None,None,146.93685519999963,None,147.74326311000013,None,,,,22015,0001,2022_Oct_03_0952,localizer,2021.1.3,59.07962219776272,
block,objects,objects060.bmp,,,,,0,21,21,21,,,,,,,,,,,,,,,,,,,,,,,,,,,,,,,,,,,,,,,,,,None,,147.74326311000013,None,147.74326311000013,None,2022-10-03-09:54:47.369880,147.7516155000003,148.05983300000025,147.7516155000003,None,None,147.7516155000003,None,148.56029011000018,None,,,,22015,0001,2022_Oct_03_0952,localizer,2021.1.3,59.07962219776272,
block,objects,objects029.bmp,,,,,0,22,22,22,,,,,,,,,,,,,,,,,,,,,,,,,,,,,,,,,,,,,,,,,,None,,148.56029011000018,None,148.56029011000018,None,2022-10-03-09:54:48.188176,148.5693928999999,148.87697610000032,148.5693928999999,None,None,148.5693928999999,None,149.3769049100002,None,,,,22015,0001,2022_Oct_03_0952,localizer,2021.1.3,59.07962219776272,
block,objects,objects088.bmp,,,,,0,23,23,23,,,,,,,,,,,,,,,,,,,,,,,,,,,,,,,,,,,,,,,,,,None,,149.3769049100002,None,149.3769049100002,None,2022-10-03-09:54:49.004778,149.3865808999999,149.69334170000002,149.3865808999999,None,None,149.3865808999999,None,150.19360240999967,None,,,,22015,0001,2022_Oct_03_0952,localizer,2021.1.3,59.07962219776272,
block,objects,objects047.bmp,,,,,0,24,24,24,,,,,,,,,,,,,,,,,,,,,,,,,,,,,,,,,,,,,,,,,,None,,150.19360240999967,None,150.19360240999967,None,2022-10-03-09:54:49.821274,150.2034517000002,150.50980049999998,150.2034517000002,None,None,150.2034517000002,None,151.01035581000005,None,,,,22015,0001,2022_Oct_03_0952,localizer,2021.1.3,59.07962219776272,
block,objects,objects042.bmp,,,,,0,25,25,25,,,,,,,,,,,,,,,,,,,,,,,,,,,,,,,,,,,,,,,,,,None,,151.01035581000005,None,151.01035581000005,None,2022-10-03-09:54:50.638039,151.02040990000023,151.3264154999997,151.02040990000023,None,None,151.02040990000023,None,151.82670120999964,None,,,,22015,0001,2022_Oct_03_0952,localizer,2021.1.3,59.07962219776272,
block,objects,objects023.bmp,,,,,0,26,26,26,,,,,,,,,,,,,,,,,,,,,,,,,,,,,,,,,,,,,,,,,,None,,151.82670120999964,None,151.82670120999964,None,2022-10-03-09:54:51.454403,151.83523090000017,152.14687460000005,151.83523090000017,None,None,151.83523090000017,None,152.6441383100001,None,,,,22015,0001,2022_Oct_03_0952,localizer,2021.1.3,59.07962219776272,
block,objects,objects081.bmp,,,,,0,27,27,27,,,,,,,,,,,,,,,,,,,,,,,,,,,,,,,,,,,,,,,,,,None,,152.6441383100001,None,152.6441383100001,None,2022-10-03-09:54:52.272839,152.65583289999995,152.95982850000019,152.65583289999995,None,None,152.65583289999995,None,153.4601912099998,None,,,,22015,0001,2022_Oct_03_0952,localizer,2021.1.3,59.07962219776272,
block,objects,objects065.bmp,,,,,0,28,28,28,,,,,,,,,,,,,,,,,,,,,,,,,,,,,,,,,,,,,,,,,,None,,153.4601912099998,None,153.4601912099998,None,2022-10-03-09:54:53.088171,153.46640620000016,153.77662630000032,153.46640620000016,None,None,153.46640620000016,None,154.27682001000002,None,,,,22015,0001,2022_Oct_03_0952,localizer,2021.1.3,59.07962219776272,
block,objects,objects073.bmp,,,,,0,29,29,29,,,,,,,,,,,,,,,,,,,,,,,,,,,,,,,,,,,,,,,,,,None,,154.27682001000002,None,154.27682001000002,None,2022-10-03-09:54:53.904561,154.2858395000003,154.59335829999964,154.2858395000003,None,None,154.2858395000003,None,155.09359980999952,None,,,,22015,0001,2022_Oct_03_0952,localizer,2021.1.3,59.07962219776272,
block_end,objects,objects030.bmp,,,,,0,30,30,30,,,,,,,,,,,,,,,,,,,,,,,,,,,,,,,,,,,,,,,,,,None,,155.09359980999952,None,155.09359980999952,None,2022-10-03-09:54:54.721356,155.10252049999963,155.41003069999988,155.10252049999963,None,None,155.10252049999963,None,155.91020371000022,None,,,,22015,0001,2022_Oct_03_0952,localizer,2021.1.3,59.07962219776272,
block_start,scrambled,scrambled052.bmp,,,,,0,31,31,31,,,,,,,,,,,,,,,,,,,,,,,,,,,,,,,,,,,,,,,,,,t,1.7375489000005473,155.9100400999996,None,155.9100400999996,None,2022-10-03-09:54:57.303043,157.68568719999985,157.99343580000004,157.68568719999985,None,None,157.68568719999985,None,158.49737380999986,None,,,,22015,0001,2022_Oct_03_0952,localizer,2021.1.3,59.07962219776272,
block,scrambled,scrambled032.bmp,,,,,0,32,32,32,,,,,,,,,,,,,,,,,,,,,,,,,,,,,,,,,,,,,,,,,,None,,158.49737380999986,None,158.49737380999986,None,2022-10-03-09:54:58.133213,158.51341860000048,158.8265454000002,158.51341860000048,None,None,158.51341860000048,None,159.3104122100004,None,,,,22015,0001,2022_Oct_03_0952,localizer,2021.1.3,59.07962219776272,
block,scrambled,scrambled068.bmp,,,,,0,33,33,33,,,,,,,,,,,,,,,,,,,,,,,,,,,,,,,,,,,,,,,,,,None,,159.3104122100004,None,159.3104122100004,None,2022-10-03-09:54:58.938231,159.32019789999958,159.6267767999998,159.32019789999958,None,None,159.32019789999958,None,160.12695250999977,None,,,,22015,0001,2022_Oct_03_0952,localizer,2021.1.3,59.07962219776272,
block,scrambled,scrambled084.bmp,,,,,0,34,34,34,,,,,,,,,,,,,,,,,,,,,,,,,,,,,,,,,,,,,,,,,,None,,160.12695250999977,None,160.12695250999977,None,2022-10-03-09:54:59.754736,160.1381067000002,160.44505019999997,160.1381067000002,None,None,160.1381067000002,None,160.94267170999964,None,,,,22015,0001,2022_Oct_03_0952,localizer,2021.1.3,59.07962219776272,
block,scrambled,scrambled063.bmp,,,,,0,35,35,35,,,,,,,,,,,,,,,,,,,,,,,,,,,,,,,,,,,,,,,,,,None,,160.94267170999964,None,160.94267170999964,None,2022-10-03-09:55:00.569583,160.9457126999996,161.24303679999957,160.9457126999996,None,None,160.9457126999996,None,161.76011731000025,None,,,,22015,0001,2022_Oct_03_0952,localizer,2021.1.3,59.07962219776272,
block,scrambled,scrambled041.bmp,,,,,0,36,36,36,,,,,,,,,,,,,,,,,,,,,,,,,,,,,,,,,,,,,,,,,,None,,161.76011731000025,None,161.76011731000025,None,2022-10-03-09:55:01.387981,161.7692251999997,162.07682620000014,161.7692251999997,None,None,161.7692251999997,None,162.57703621000027,None,,,,22015,0001,2022_Oct_03_0952,localizer,2021.1.3,59.07962219776272,
block,scrambled,scrambled025.bmp,,,,,0,37,37,37,,,,,,,,,,,,,,,,,,,,,,,,,,,,,,,,,,,,,,,,,,None,,162.57703621000027,None,162.57703621000027,None,2022-10-03-09:55:02.204912,162.58287850000033,162.8933718999997,162.58287850000033,None,None,162.58287850000033,None,163.39363110999975,None,,,,22015,0001,2022_Oct_03_0952,localizer,2021.1.3,59.07962219776272,
block,scrambled,scrambled004.bmp,,,,,0,38,38,38,,,,,,,,,,,,,,,,,,,,,,,,,,,,,,,,,,,,,,,,,,None,,163.39363110999975,None,163.39363110999975,None,2022-10-03-09:55:03.021523,163.4026432999999,163.710102,163.4026432999999,None,None,163.4026432999999,None,164.2103753100001,None,,,,22015,0001,2022_Oct_03_0952,localizer,2021.1.3,59.07962219776272,
block,scrambled,scrambled039.bmp,,,,,0,39,39,39,,,,,,,,,,,,,,,,,,,,,,,,,,,,,,,,,,,,,,,,,,None,,164.2103753100001,None,164.2103753100001,None,2022-10-03-09:55:03.838501,164.22029720000046,164.52655099999993,164.22029720000046,None,None,164.22029720000046,None,165.02699950999985,None,,,,22015,0001,2022_Oct_03_0952,localizer,2021.1.3,59.07962219776272,
block,scrambled,scrambled011.bmp,,,,,0,40,40,40,,,,,,,,,,,,,,,,,,,,,,,,,,,,,,,,,,,,,,,,,,None,,165.02699950999985,None,165.02699950999985,None,2022-10-03-09:55:04.654918,165.03588180000042,165.34340760000032,165.03588180000042,None,None,165.03588180000042,None,165.84371351000036,None,,,,22015,0001,2022_Oct_03_0952,localizer,2021.1.3,59.07962219776272,
block,scrambled,scrambled012.bmp,,,,,0,41,41,41,,,,,,,,,,,,,,,,,,,,,,,,,,,,,,,,,,,,,,,,,,None,,165.84371351000036,None,165.84371351000036,None,2022-10-03-09:55:05.471645,165.85276559999966,166.16001400000005,165.85276559999966,None,None,165.85276559999966,None,166.65997130999958,None,,,,22015,0001,2022_Oct_03_0952,localizer,2021.1.3,59.07962219776272,
block,scrambled,scrambled059.bmp,,,,,0,42,42,42,,,,,,,,,,,,,,,,,,,,,,,,,,,,,,,,,,,,,,,,,,None,,166.65997130999958,None,166.65997130999958,None,2022-10-03-09:55:06.286925,166.66316929999994,166.97667619999993,166.66316929999994,None,None,166.66316929999994,None,167.47680420999959,None,,,,22015,0001,2022_Oct_03_0952,localizer,2021.1.3,59.07962219776272,
block,scrambled,scrambled088.bmp,,,,,0,43,43,43,,,,,,,,,,,,,,,,,,,,,,,,,,,,,,,,,,,,,,,,,,None,,167.47680420999959,None,167.47680420999959,None,2022-10-03-09:55:07.104765,167.48579080000036,167.79349180000008,167.48579080000036,None,None,167.48579080000036,None,168.2947773099996,None,,,,22015,0001,2022_Oct_03_0952,localizer,2021.1.3,59.07962219776272,
block,scrambled,scrambled048.bmp,,,,,0,44,44,44,,,,,,,,,,,,,,,,,,,,,,,,,,,,,,,,,,,,,,,,,,None,,168.2947773099996,None,168.2947773099996,None,2022-10-03-09:55:07.924709,168.30801380000048,168.6100790999999,168.30801380000048,None,None,168.30801380000048,None,169.1103541100002,None,,,,22015,0001,2022_Oct_03_0952,localizer,2021.1.3,59.07962219776272,
block_end,scrambled,scrambled035.bmp,,,,,0,45,45,45,,,,,,,,,,,,,,,,,,,,,,,,,,,,,,,,,,,,,,,,,,None,,169.1103541100002,None,169.1103541100002,None,2022-10-03-09:55:08.738341,169.1194287999997,169.42685110000002,169.1194287999997,None,None,169.1194287999997,None,169.92754290999991,None,,,,22015,0001,2022_Oct_03_0952,localizer,2021.1.3,59.07962219776272,
block_start,faces,faces009.bmp,,,,,0,46,46,46,,,,,,,,,,,,,,,,,,,,,,,,,,,,,,,,,,,,,,,,,,t,1.7202493999993749,169.92737940000006,None,169.92737940000006,None,2022-10-03-09:55:11.306735,171.68886649999968,171.99335119999978,171.68886649999968,None,None,171.68886649999968,None,172.49371781,None,,,,22015,0001,2022_Oct_03_0952,localizer,2021.1.3,59.07962219776272,
block,faces,faces075.bmp,,,,,0,47,47,47,,,,,,,,,,,,,,,,,,,,,,,,,,,,,,,,,,,,,,,,,,None,,172.49371781,None,172.49371781,None,2022-10-03-09:55:12.121759,172.50387930000034,172.8101717999998,172.50387930000034,None,None,172.50387930000034,None,173.31037580999973,None,,,,22015,0001,2022_Oct_03_0952,localizer,2021.1.3,59.07962219776272,
block,faces,faces051.bmp,,,,,0,48,48,48,,,,,,,,,,,,,,,,,,,,,,,,,,,,,,,,,,,,,,,,,,None,,173.31037580999973,None,173.31037580999973,None,2022-10-03-09:55:12.938788,173.32195909999973,173.62661500000013,173.32195909999973,None,None,173.32195909999973,None,174.12773100999956,None,,,,22015,0001,2022_Oct_03_0952,localizer,2021.1.3,59.07962219776272,
block,faces,faces035.bmp,,,,,0,49,49,49,,,,,,,,,,,,,,,,,,,,,,,,,,,,,,,,,,,,,,,,,,None,,174.12773100999956,None,174.12773100999956,None,2022-10-03-09:55:13.756937,174.14309520000006,174.4434113999996,174.14309520000006,None,None,174.14309520000006,None,174.9440189099997,None,,,,22015,0001,2022_Oct_03_0952,localizer,2021.1.3,59.07962219776272,
block,faces,faces085.bmp,,,,,0,50,50,50,,,,,,,,,,,,,,,,,,,,,,,,,,,,,,,,,,,,,,,,,,None,,174.9440189099997,None,174.9440189099997,None,2022-10-03-09:55:14.572098,174.94973500000015,175.2602264999996,174.94973500000015,None,None,174.94973500000015,None,175.76057230999967,None,,,,22015,0001,2022_Oct_03_0952,localizer,2021.1.3,59.07962219776272,
block,faces,faces052.bmp,,,,,0,51,51,51,,,,,,,,,,,,,,,,,,,,,,,,,,,,,,,,,,,,,,,,,,None,,175.76057230999967,None,175.76057230999967,None,2022-10-03-09:55:15.388667,175.77158229999986,176.0766819999999,175.77158229999986,None,None,175.77158229999986,None,176.57711450999986,None,,,,22015,0001,2022_Oct_03_0952,localizer,2021.1.3,59.07962219776272,
block,faces,faces019.bmp,,,,,0,52,52,52,,,,,,,,,,,,,,,,,,,,,,,,,,,,,,,,,,,,,,,,,,None,,176.57711450999986,None,176.57711450999986,None,2022-10-03-09:55:16.205611,176.59402080000018,176.8936137999999,176.59402080000018,None,None,176.59402080000018,None,177.3939078100003,None,,,,22015,0001,2022_Oct_03_0952,localizer,2021.1.3,59.07962219776272,
block,faces,faces044.bmp,,,,,0,53,53,53,,,,,,,,,,,,,,,,,,,,,,,,,,,,,,,,,,,,,,,,,,None,,177.3939078100003,None,177.3939078100003,None,2022-10-03-09:55:17.022029,177.40397719999964,177.71022689999972,177.40397719999964,None,None,177.40397719999964,None,178.21057611000023,None,,,,22015,0001,2022_Oct_03_0952,localizer,2021.1.3,59.07962219776272,
block,faces,faces013.bmp,,,,,0,54,54,54,,,,,,,,,,,,,,,,,,,,,,,,,,,,,,,,,,,,,,,,,,None,,178.21057611000023,None,178.21057611000023,None,2022-10-03-09:55:17.839478,178.22140279999985,178.52687659999992,178.22140279999985,None,None,178.22140279999985,None,179.02694161000008,None,,,,22015,0001,2022_Oct_03_0952,localizer,2021.1.3,59.07962219776272,
block,faces,faces055.bmp,,,,,0,55,55,55,,,,,,,,,,,,,,,,,,,,,,,,,,,,,,,,,,,,,,,,,,None,,179.02694161000008,None,179.02694161000008,None,2022-10-03-09:55:18.655091,179.03754779999963,179.34345589999975,179.03754779999963,None,None,179.03754779999963,None,179.8437777099999,None,,,,22015,0001,2022_Oct_03_0952,localizer,2021.1.3,59.07962219776272,
block,faces,faces022.bmp,,,,,0,56,56,56,,,,,,,,,,,,,,,,,,,,,,,,,,,,,,,,,,,,,,,,,,None,,179.8437777099999,None,179.8437777099999,None,2022-10-03-09:55:19.472366,179.8547834000001,180.16024199999993,179.8547834000001,None,None,179.8547834000001,None,180.66042950999972,None,,,,22015,0001,2022_Oct_03_0952,localizer,2021.1.3,59.07962219776272,
block,faces,faces022.bmp,,,,,0,57,57,57,,,,,,,,,,,,,,,,,,,,,,,,,,,,,,,,,,,,,,,,,,None,,180.66042950999972,None,180.66042950999972,None,2022-10-03-09:55:20.288606,180.66099880000002,180.9601689000001,180.66099880000002,None,y,180.66099880000002,None,181.46114700999996,None,0.6691798000001654,,,22015,0001,2022_Oct_03_0952,localizer,2021.1.3,59.07962219776272,
block,faces,faces059.bmp,,,,,0,58,58,58,,,,,,,,,,,,,,,,,,,,,,,,,,,,,,,,,,,,,,,,,,None,,181.46114700999996,None,181.46114700999996,None,2022-10-03-09:55:21.092515,181.47480509999968,181.77668879999965,181.47480509999968,181.47480509999968,None,181.47480509999968,181.47480509999968,182.27701841000007,None,,,,22015,0001,2022_Oct_03_0952,localizer,2021.1.3,59.07962219776272,
block,faces,faces077.bmp,,,,,0,59,59,59,,,,,,,,,,,,,,,,,,,,,,,,,,,,,,,,,,,,,,,,,,None,,182.27701841000007,None,182.27701841000007,None,2022-10-03-09:55:21.905224,182.28855790000034,182.5934940999996,182.28855790000034,None,None,182.28855790000034,None,183.09381350999965,None,,,,22015,0001,2022_Oct_03_0952,localizer,2021.1.3,59.07962219776272,
block_end,faces,faces049.bmp,,,,,0,60,60,60,,,,,,,,,,,,,,,,,,,,,,,,,,,,,,,,,,,,,,,,,,None,,183.09381350999965,None,183.09381350999965,None,2022-10-03-09:55:22.722032,183.10336160000043,183.41025790000003,183.10336160000043,None,None,183.10336160000043,None,183.9107863099999,None,,,,22015,0001,2022_Oct_03_0952,localizer,2021.1.3,59.07962219776272,
block_start,scenes,scenes033.bmp,,,,,0,61,61,61,,,,,,,,,,,,,,,,,,,,,,,,,,,,,,,,,,,,,,,,,,t,1.7372847999995429,183.91044640000018,None,183.91044640000018,None,2022-10-03-09:55:25.305293,185.6858315999998,185.9935099000004,185.6858315999998,None,None,185.6858315999998,None,186.49393651,None,,,,22015,0001,2022_Oct_03_0952,localizer,2021.1.3,59.07962219776272,
block,scenes,scenes019.bmp,,,,,0,62,62,62,,,,,,,,,,,,,,,,,,,,,,,,,,,,,,,,,,,,,,,,,,None,,186.49393651,None,186.49393651,None,2022-10-03-09:55:26.122391,186.50414980000005,186.81013660000008,186.50414980000005,None,None,186.50414980000005,None,187.3108004099996,None,,,,22015,0001,2022_Oct_03_0952,localizer,2021.1.3,59.07962219776272,
block,scenes,scenes002.bmp,,,,,0,63,63,63,,,,,,,,,,,,,,,,,,,,,,,,,,,,,,,,,,,,,,,,,,None,,187.3108004099996,None,187.3108004099996,None,2022-10-03-09:55:26.939102,187.32145029999992,187.6270883999996,187.32145029999992,None,None,187.32145029999992,None,188.1275331099997,None,,,,22015,0001,2022_Oct_03_0952,localizer,2021.1.3,59.07962219776272,
block,scenes,scenes070.bmp,,,,,0,64,64,64,,,,,,,,,,,,,,,,,,,,,,,,,,,,,,,,,,,,,,,,,,None,,188.1275331099997,None,188.1275331099997,None,2022-10-03-09:55:27.755830,188.13726440000028,188.44341580000037,188.13726440000028,None,None,188.13726440000028,None,188.94379830999978,None,,,,22015,0001,2022_Oct_03_0952,localizer,2021.1.3,59.07962219776272,
block,scenes,scenes056.bmp,,,,,0,65,65,65,,,,,,,,,,,,,,,,,,,,,,,,,,,,,,,,,,,,,,,,,,None,,188.94379830999978,None,188.94379830999978,None,2022-10-03-09:55:28.572114,188.95319389999986,189.26022470000044,188.95319389999986,None,None,188.95319389999986,None,189.76055680999988,None,,,,22015,0001,2022_Oct_03_0952,localizer,2021.1.3,59.07962219776272,
block,scenes,scenes084.bmp,,,,,0,66,66,66,,,,,,,,,,,,,,,,,,,,,,,,,,,,,,,,,,,,,,,,,,None,,189.76055680999988,None,189.76055680999988,None,2022-10-03-09:55:29.389174,189.76887830000032,190.0768392,189.76887830000032,None,None,189.76887830000032,None,190.57671621000017,None,,,,22015,0001,2022_Oct_03_0952,localizer,2021.1.3,59.07962219776272,
block,scenes,scenes021.bmp,,,,,0,67,67,67,,,,,,,,,,,,,,,,,,,,,,,,,,,,,,,,,,,,,,,,,,None,,190.57671621000017,None,190.57671621000017,None,2022-10-03-09:55:30.205201,190.58720240000002,190.89357070000005,190.58720240000002,None,None,190.58720240000002,None,191.39446480999968,None,,,,22015,0001,2022_Oct_03_0952,localizer,2021.1.3,59.07962219776272,
block,scenes,scenes028.bmp,,,,,0,68,68,68,,,,,,,,,,,,,,,,,,,,,,,,,,,,,,,,,,,,,,,,,,None,,191.39446480999968,None,191.39446480999968,None,2022-10-03-09:55:31.023997,191.4059115,191.71018900000036,191.4059115,None,None,191.4059115,None,192.2102523100003,None,,,,22015,0001,2022_Oct_03_0952,localizer,2021.1.3,59.07962219776272,
block,scenes,scenes041.bmp,,,,,0,69,69,69,,,,,,,,,,,,,,,,,,,,,,,,,,,,,,,,,,,,,,,,,,None,,192.2102523100003,None,192.2102523100003,None,2022-10-03-09:55:31.838484,192.21822299999985,192.51415090000046,192.21822299999985,None,None,192.21822299999985,None,193.0273237100001,None,,,,22015,0001,2022_Oct_03_0952,localizer,2021.1.3,59.07962219776272,
block,scenes,scenes003.bmp,,,,,0,70,70,70,,,,,,,,,,,,,,,,,,,,,,,,,,,,,,,,,,,,,,,,,,None,,193.0273237100001,None,193.0273237100001,None,2022-10-03-09:55:32.655954,193.03925020000042,193.3439139000002,193.03925020000042,None,None,193.03925020000042,None,193.84407950999966,None,,,,22015,0001,2022_Oct_03_0952,localizer,2021.1.3,59.07962219776272,
block,scenes,scenes024.bmp,,,,,0,71,71,71,,,,,,,,,,,,,,,,,,,,,,,,,,,,,,,,,,,,,,,,,,None,,193.84407950999966,None,193.84407950999966,None,2022-10-03-09:55:33.472585,193.85594120000042,194.1606052999996,193.85594120000042,None,None,193.85594120000042,None,194.66096390999982,None,,,,22015,0001,2022_Oct_03_0952,localizer,2021.1.3,59.07962219776272,
block,scenes,scenes065.bmp,,,,,0,72,72,72,,,,,,,,,,,,,,,,,,,,,,,,,,,,,,,,,,,,,,,,,,None,,194.66096390999982,None,194.66096390999982,None,2022-10-03-09:55:34.289551,194.66152340000008,194.97699759999978,194.66152340000008,None,None,194.66152340000008,None,195.46098570999956,None,,,,22015,0001,2022_Oct_03_0952,localizer,2021.1.3,59.07962219776272,
block,scenes,scenes045.bmp,,,,,0,73,73,73,,,,,,,,,,,,,,,,,,,,,,,,,,,,,,,,,,,,,,,,,,None,,195.46098570999956,None,195.46098570999956,None,2022-10-03-09:55:35.091404,195.47349730000042,195.7767799000003,195.47349730000042,195.47349730000042,y,195.47349730000042,195.47349730000042,196.27747241000006,None,0.12506829999983893,,,22015,0001,2022_Oct_03_0952,localizer,2021.1.3,59.07962219776272,
block,scenes,scenes022.bmp,,,,,0,74,74,74,,,,,,,,,,,,,,,,,,,,,,,,,,,,,,,,,,,,,,,,,,None,,196.27747241000006,None,196.27747241000006,None,2022-10-03-09:55:35.906116,196.29017889999977,196.59348729999965,196.29017889999977,None,None,196.29017889999977,None,197.09361250999982,None,,,,22015,0001,2022_Oct_03_0952,localizer,2021.1.3,59.07962219776272,
block_end,scenes,scenes059.bmp,,,,,0,75,75,75,,,,,,,,,,,,,,,,,,,,,,,,,,,,,,,,,,,,,,,,,,None,,197.09361250999982,None,197.09361250999982,None,2022-10-03-09:55:36.722574,197.10200689999965,197.41032259999974,197.10200689999965,None,None,197.10200689999965,None,197.91064221000042,None,,,,22015,0001,2022_Oct_03_0952,localizer,2021.1.3,59.07962219776272,
block_start,objects,objects034.bmp,,,,,0,76,76,76,,,,,,,,,,,,,,,,,,,,,,,,,,,,,,,,,,,,,,,,,,t,1.737286900000072,197.91033489999973,None,197.91033489999973,None,2022-10-03-09:55:39.304738,199.68569730000036,199.99362010000004,199.68569730000036,None,None,199.68569730000036,None,200.49414560999966,None,,,,22015,0001,2022_Oct_03_0952,localizer,2021.1.3,59.07962219776272,
block,objects,objects070.bmp,,,,,0,77,77,77,,,,,,,,,,,,,,,,,,,,,,,,,,,,,,,,,,,,,,,,,,None,,200.49414560999966,None,200.49414560999966,None,2022-10-03-09:55:40.122818,200.50425520000044,200.8102356999998,200.50425520000044,None,y,200.50425520000044,None,201.3105533099998,None,0.17113659999995434,,,22015,0001,2022_Oct_03_0952,localizer,2021.1.3,59.07962219776272,
block,objects,objects076.bmp,,,,,0,78,78,78,,,,,,,,,,,,,,,,,,,,,,,,,,,,,,,,,,,,,,,,,,None,,201.3105533099998,None,201.3105533099998,None,2022-10-03-09:55:40.939224,201.32023639999989,201.62731770000028,201.32023639999989,None,None,201.32023639999989,None,202.12761400999997,None,,,,22015,0001,2022_Oct_03_0952,localizer,2021.1.3,59.07962219776272,
block,objects,objects003.bmp,,,,,0,79,79,79,,,,,,,,,,,,,,,,,,,,,,,,,,,,,,,,,,,,,,,,,,None,,202.12761400999997,None,202.12761400999997,None,2022-10-03-09:55:41.756084,202.13470849999976,202.44401749999997,202.13470849999976,None,None,202.13470849999976,None,202.94400180999955,None,,,,22015,0001,2022_Oct_03_0952,localizer,2021.1.3,59.07962219776272,
block,objects,objects003.bmp,,,,,0,80,80,80,,,,,,,,,,,,,,,,,,,,,,,,,,,,,,,,,,,,,,,,,,None,,202.94400180999955,None,202.94400180999955,None,2022-10-03-09:55:42.572478,202.9446509999998,203.26017990000037,202.9446509999998,None,y,202.9446509999998,None,203.74586921,None,0.6638620000003357,,,22015,0001,2022_Oct_03_0952,localizer,2021.1.3,59.07962219776272,
block,objects,objects007.bmp,,,,,0,81,81,81,,,,,,,,,,,,,,,,,,,,,,,,,,,,,,,,,,,,,,,,,,None,,203.74586921,None,203.74586921,None,2022-10-03-09:55:43.379398,203.76202980000016,204.07710839999982,203.76202980000016,203.76202980000016,None,203.76202980000016,203.76202980000016,204.56069861000023,None,,,,22015,0001,2022_Oct_03_0952,localizer,2021.1.3,59.07962219776272,
block,objects,objects005.bmp,,,,,0,82,82,82,,,,,,,,,,,,,,,,,,,,,,,,,,,,,,,,,,,,,,,,,,None,,204.56069861000023,None,204.56069861000023,None,2022-10-03-09:55:44.189412,204.57080779999978,204.87706379999963,204.57080779999978,None,None,204.57080779999978,None,205.3776058100003,None,,,,22015,0001,2022_Oct_03_0952,localizer,2021.1.3,59.07962219776272,
block,objects,objects022.bmp,,,,,0,83,83,83,,,,,,,,,,,,,,,,,,,,,,,,,,,,,,,,,,,,,,,,,,None,,205.3776058100003,None,205.3776058100003,None,2022-10-03-09:55:45.006099,205.38817350000045,205.69381710000016,205.38817350000045,None,None,205.38817350000045,None,206.1942389099996,None,,,,22015,0001,2022_Oct_03_0952,localizer,2021.1.3,59.07962219776272,
block,objects,objects071.bmp,,,,,0,84,84,84,,,,,,,,,,,,,,,,,,,,,,,,,,,,,,,,,,,,,,,,,,None,,206.1942389099996,None,206.1942389099996,None,2022-10-03-09:55:45.822738,206.20006209999974,206.50006140000005,206.20006209999974,None,None,206.20006209999974,None,207.0105411100004,None,,,,22015,0001,2022_Oct_03_0952,localizer,2021.1.3,59.07962219776272,
block,objects,objects052.bmp,,,,,0,85,85,85,,,,,,,,,,,,,,,,,,,,,,,,,,,,,,,,,,,,,,,,,,None,,207.0105411100004,None,207.0105411100004,None,2022-10-03-09:55:46.639049,207.01918829999977,207.32707779999964,207.01918829999977,None,None,207.01918829999977,None,207.8272701099996,None,,,,22015,0001,2022_Oct_03_0952,localizer,2021.1.3,59.07962219776272,
block,objects,objects055.bmp,,,,,0,86,86,86,,,,,,,,,,,,,,,,,,,,,,,,,,,,,,,,,,,,,,,,,,None,,207.8272701099996,None,207.8272701099996,None,2022-10-03-09:55:47.455786,207.8360862999998,208.1436520999996,207.8360862999998,None,None,207.8360862999998,None,208.64420780999998,None,,,,22015,0001,2022_Oct_03_0952,localizer,2021.1.3,59.07962219776272,
block,objects,objects041.bmp,,,,,0,87,87,87,,,,,,,,,,,,,,,,,,,,,,,,,,,,,,,,,,,,,,,,,,None,,208.64420780999998,None,208.64420780999998,None,2022-10-03-09:55:48.272727,208.6547870000004,208.96011569999973,208.6547870000004,None,None,208.6547870000004,None,209.46046030999977,None,,,,22015,0001,2022_Oct_03_0952,localizer,2021.1.3,59.07962219776272,
block,objects,objects025.bmp,,,,,0,88,88,88,,,,,,,,,,,,,,,,,,,,,,,,,,,,,,,,,,,,,,,,,,None,,209.46046030999977,None,209.46046030999977,None,2022-10-03-09:55:49.088989,209.4693256999999,209.77699740000025,209.4693256999999,None,None,209.4693256999999,None,210.26708331000017,None,,,,22015,0001,2022_Oct_03_0952,localizer,2021.1.3,59.07962219776272,
block,objects,objects002.bmp,,,,,0,89,89,89,,,,,,,,,,,,,,,,,,,,,,,,,,,,,,,,,,,,,,,,,,None,,210.26708331000017,None,210.26708331000017,None,2022-10-03-09:55:49.901495,210.28206409999984,210.59371190000002,210.28206409999984,None,None,210.28206409999984,None,211.07732470999971,None,,,,22015,0001,2022_Oct_03_0952,localizer,2021.1.3,59.07962219776272,
block_end,objects,objects056.bmp,,,,,0,90,90,90,,,,,,,,,,,,,,,,,,,,,,,,,,,,,,,,,,,,,,,,,,None,,211.07732470999971,None,211.07732470999971,None,2022-10-03-09:55:50.705864,211.0868657000001,211.3937138000001,211.0868657000001,None,None,211.0868657000001,None,211.89371050999952,None,,,,22015,0001,2022_Oct_03_0952,localizer,2021.1.3,59.07962219776272,
null_block,null_block,null_block.bmp,,,,,0,91,91,91,,,,,,,,,,,,,,,,,,,,,,,,,,,,,,,,,,,,,,,,,,t,1.75400720000016,211.89354540000022,None,211.89354540000022,None,2022-10-03-09:55:53.303942,213.67711490999963,None,213.67711490999963,None,None,213.67711490999963,None,213.67723819999992,None,,,,22015,0001,2022_Oct_03_0952,localizer,2021.1.3,59.07962219776272,
block_start,scrambled,scrambled012.bmp,,,,,0,92,92,92,,,,,,,,,,,,,,,,,,,,,,,,,,,,,,,,,,,,,,,,,,t,1.9703243000003567,225.67741149999983,None,225.67741149999983,None,2022-10-03-09:56:07.307098,227.67868530000032,228.00013750000016,227.67868530000032,None,None,227.67868530000032,None,228.47843781000037,None,,,,22015,0001,2022_Oct_03_0952,localizer,2021.1.3,59.07962219776272,
block,scrambled,scrambled045.bmp,,,,,0,93,93,93,,,,,,,,,,,,,,,,,,,,,,,,,,,,,,,,,,,,,,,,,,None,,228.47843781000037,None,228.47843781000037,None,2022-10-03-09:56:08.109746,228.48948029999974,228.7938009999998,228.48948029999974,228.48948029999974,None,228.48948029999974,228.48948029999974,229.29528900999966,None,,,,22015,0001,2022_Oct_03_0952,localizer,2021.1.3,59.07962219776272,
block,scrambled,scrambled002.bmp,,,,,0,94,94,94,,,,,,,,,,,,,,,,,,,,,,,,,,,,,,,,,,,,,,,,,,None,,229.29528900999966,None,229.29528900999966,None,2022-10-03-09:56:08.926102,229.31267349999962,229.62756549999995,229.31267349999962,None,None,229.31267349999962,None,230.11081191000002,None,,,,22015,0001,2022_Oct_03_0952,localizer,2021.1.3,59.07962219776272,
block,scrambled,scrambled080.bmp,,,,,0,95,95,95,,,,,,,,,,,,,,,,,,,,,,,,,,,,,,,,,,,,,,,,,,None,,230.11081191000002,None,230.11081191000002,None,2022-10-03-09:56:09.739486,230.11948120000034,230.4272208000002,230.11948120000034,None,None,230.11948120000034,None,230.9295369100001,None,,,,22015,0001,2022_Oct_03_0952,localizer,2021.1.3,59.07962219776272,
block,scrambled,scrambled066.bmp,,,,,0,96,96,96,,,,,,,,,,,,,,,,,,,,,,,,,,,,,,,,,,,,,,,,,,None,,230.9295369100001,None,230.9295369100001,None,2022-10-03-09:56:10.562163,230.94495350000034,231.24408310000035,230.94495350000034,None,None,230.94495350000034,None,231.74426391000006,None,,,,22015,0001,2022_Oct_03_0952,localizer,2021.1.3,59.07962219776272,
block,scrambled,scrambled068.bmp,,,,,0,97,97,97,,,,,,,,,,,,,,,,,,,,,,,,,,,,,,,,,,,,,,,,,,None,,231.74426391000006,None,231.74426391000006,None,2022-10-03-09:56:11.373182,231.74473579999994,232.0477351999998,231.74473579999994,None,y,231.74473579999994,None,232.5438599099999,None,0.20359099999950558,,,22015,0001,2022_Oct_03_0952,localizer,2021.1.3,59.07962219776272,
block,scrambled,scrambled018.bmp,,,,,0,98,98,98,,,,,,,,,,,,,,,,,,,,,,,,,,,,,,,,,,,,,,,,,,None,,232.5438599099999,None,232.5438599099999,None,2022-10-03-09:56:12.172555,232.55231170000025,232.8606646999997,232.55231170000025,232.55231170000025,None,232.55231170000025,232.55231170000025,233.36078981,None,,,,22015,0001,2022_Oct_03_0952,localizer,2021.1.3,59.07962219776272,
block,scrambled,scrambled031.bmp,,,,,0,99,99,99,,,,,,,,,,,,,,,,,,,,,,,,,,,,,,,,,,,,,,,,,,None,,233.36078981,None,233.36078981,None,2022-10-03-09:56:12.989485,233.36592380000002,233.67704950000007,233.36592380000002,None,None,233.36592380000002,None,234.17733890999997,None,,,,22015,0001,2022_Oct_03_0952,localizer,2021.1.3,59.07962219776272,
block,scrambled,scrambled030.bmp,,,,,0,100,100,100,,,,,,,,,,,,,,,,,,,,,,,,,,,,,,,,,,,,,,,,,,None,,234.17733890999997,None,234.17733890999997,None,2022-10-03-09:56:13.805202,234.18579880000016,234.4940802000001,234.18579880000016,None,None,234.18579880000016,None,234.99482800999985,None,,,,22015,0001,2022_Oct_03_0952,localizer,2021.1.3,59.07962219776272,
block,scrambled,scrambled067.bmp,,,,,0,101,101,101,,,,,,,,,,,,,,,,,,,,,,,,,,,,,,,,,,,,,,,,,,None,,234.99482800999985,None,234.99482800999985,None,2022-10-03-09:56:14.624537,235.0062541999996,235.31288980000045,235.0062541999996,None,None,235.0062541999996,None,235.81194670999966,None,,,,22015,0001,2022_Oct_03_0952,localizer,2021.1.3,59.07962219776272,
block,scrambled,scrambled070.bmp,,,,,0,102,102,102,,,,,,,,,,,,,,,,,,,,,,,,,,,,,,,,,,,,,,,,,,None,,235.81194670999966,None,235.81194670999966,None,2022-10-03-09:56:15.441855,235.8240109999997,236.12713989999975,235.8240109999997,None,y,235.8240109999997,None,236.62799210999955,None,0.21257109999987733,,,22015,0001,2022_Oct_03_0952,localizer,2021.1.3,59.07962219776272,
block,scrambled,scrambled039.bmp,,,,,0,103,103,103,,,,,,,,,,,,,,,,,,,,,,,,,,,,,,,,,,,,,,,,,,None,,236.62799210999955,None,236.62799210999955,None,2022-10-03-09:56:16.256714,236.6283886000001,236.94386889999987,236.6283886000001,None,None,236.6283886000001,None,237.42763010999997,None,,,,22015,0001,2022_Oct_03_0952,localizer,2021.1.3,59.07962219776272,
block,scrambled,scrambled078.bmp,,,,,0,104,104,104,,,,,,,,,,,,,,,,,,,,,,,,,,,,,,,,,,,,,,,,,,None,,237.42763010999997,None,237.42763010999997,None,2022-10-03-09:56:17.058491,237.43940209999982,237.7436934999996,237.43940209999982,237.43940209999982,None,237.43940209999982,237.43940209999982,238.2444836100004,None,,,,22015,0001,2022_Oct_03_0952,localizer,2021.1.3,59.07962219776272,
block,scrambled,scrambled015.bmp,,,,,0,105,105,105,,,,,,,,,,,,,,,,,,,,,,,,,,,,,,,,,,,,,,,,,,None,,238.2444836100004,None,238.2444836100004,None,2022-10-03-09:56:17.873405,238.25513800000044,238.56086609999966,238.25513800000044,None,y,238.25513800000044,None,239.06559241000022,None,0.013233699999545934,,,22015,0001,2022_Oct_03_0952,localizer,2021.1.3,59.07962219776272,
block_end,scrambled,scrambled024.bmp,,,,,0,106,106,106,,,,,,,,,,,,,,,,,,,,,,,,,,,,,,,,,,,,,,,,,,None,,239.06559241000022,None,239.06559241000022,None,2022-10-03-09:56:18.699362,239.08303510000042,239.39445429999978,239.08303510000042,None,y,239.08303510000042,None,239.8770505100002,None,0.084748799999943,,,22015,0001,2022_Oct_03_0952,localizer,2021.1.3,59.07962219776272,
block_start,faces,faces089.bmp,,,,,0,107,107,107,,,,,,,,,,,,,,,,,,,,,,,,,,,,,,,,,,,,,,,,,,t,1.7710228999994797,239.87668500000018,None,239.87668500000018,None,2022-10-03-09:56:21.293729,241.6767246999998,241.97691740000027,241.6767246999998,None,None,241.6767246999998,None,242.47735681000003,None,,,,22015,0001,2022_Oct_03_0952,localizer,2021.1.3,59.07962219776272,
block,faces,faces076.bmp,,,,,0,108,108,108,,,,,,,,,,,,,,,,,,,,,,,,,,,,,,,,,,,,,,,,,,None,,242.47735681000003,None,242.47735681000003,None,2022-10-03-09:56:22.105091,242.49235320000025,242.79840979999972,242.49235320000025,None,None,242.49235320000025,None,243.2963517099998,None,,,,22015,0001,2022_Oct_03_0952,localizer,2021.1.3,59.07962219776272,
block,faces,faces042.bmp,,,,,0,109,109,109,,,,,,,,,,,,,,,,,,,,,,,,,,,,,,,,,,,,,,,,,,None,,243.2963517099998,None,243.2963517099998,None,2022-10-03-09:56:22.929070,243.3112946000001,243.61078120000002,243.3112946000001,None,None,243.3112946000001,None,244.1166541100002,None,,,,22015,0001,2022_Oct_03_0952,localizer,2021.1.3,59.07962219776272,
block,faces,faces058.bmp,,,,,0,110,110,110,,,,,,,,,,,,,,,,,,,,,,,,,,,,,,,,,,,,,,,,,,None,,244.1166541100002,None,244.1166541100002,None,2022-10-03-09:56:23.748474,244.1341714,244.4438041000003,244.1341714,None,None,244.1341714,None,244.92889510999984,None,,,,22015,0001,2022_Oct_03_0952,localizer,2021.1.3,59.07962219776272,
block,faces,faces053.bmp,,,,,0,111,111,111,,,,,,,,,,,,,,,,,,,,,,,,,,,,,,,,,,,,,,,,,,None,,244.92889510999984,None,244.92889510999984,None,2022-10-03-09:56:24.559054,244.9393673000004,245.24388790000012,244.9393673000004,None,y,244.9393673000004,None,245.74492741000003,None,0.3999359999997978,,,22015,0001,2022_Oct_03_0952,localizer,2021.1.3,59.07962219776272,
block,faces,faces057.bmp,,,,,0,112,112,112,,,,,,,,,,,,,,,,,,,,,,,,,,,,,,,,,,,,,,,,,,None,,245.74492741000003,None,245.74492741000003,None,2022-10-03-09:56:25.374587,245.7563596,246.06051039999966,245.7563596,None,None,245.7563596,None,246.56156710999957,None,,,,22015,0001,2022_Oct_03_0952,localizer,2021.1.3,59.07962219776272,
block,faces,faces012.bmp,,,,,0,113,113,113,,,,,,,,,,,,,,,,,,,,,,,,,,,,,,,,,,,,,,,,,,None,,246.56156710999957,None,246.56156710999957,None,2022-10-03-09:56:26.190167,246.56963720000022,246.87797669999964,246.56963720000022,None,None,246.56963720000022,None,247.3672122099998,None,,,,22015,0001,2022_Oct_03_0952,localizer,2021.1.3,59.07962219776272,
block,faces,faces041.bmp,,,,,0,114,114,114,,,,,,,,,,,,,,,,,,,,,,,,,,,,,,,,,,,,,,,,,,None,,247.3672122099998,None,247.3672122099998,None,2022-10-03-09:56:27.003937,247.3841763999999,247.6936201999997,247.3841763999999,None,None,247.3841763999999,None,248.17746891000033,None,,,,22015,0001,2022_Oct_03_0952,localizer,2021.1.3,59.07962219776272,
block,faces,faces003.bmp,,,,,0,115,115,115,,,,,,,,,,,,,,,,,,,,,,,,,,,,,,,,,,,,,,,,,,None,,248.17746891000033,None,248.17746891000033,None,2022-10-03-09:56:27.806272,248.1854169999997,248.49371789999987,248.1854169999997,None,None,248.1854169999997,None,248.9949292100001,None,,,,22015,0001,2022_Oct_03_0952,localizer,2021.1.3,59.07962219776272,
block,faces,faces004.bmp,,,,,0,116,116,116,,,,,,,,,,,,,,,,,,,,,,,,,,,,,,,,,,,,,,,,,,None,,248.9949292100001,None,248.9949292100001,None,2022-10-03-09:56:28.624748,249.01138869999977,249.31035169999996,249.01138869999977,None,y,249.01138869999977,None,249.80025121000025,None,0.10871299999962503,,,22015,0001,2022_Oct_03_0952,localizer,2021.1.3,59.07962219776272,
block,faces,faces029.bmp,,,,,0,117,117,117,,,,,,,,,,,,,,,,,,,,,,,,,,,,,,,,,,,,,,,,,,None,,249.80025121000025,None,249.80025121000025,None,2022-10-03-09:56:29.437935,249.8246591999996,250.12714349999987,249.8246591999996,None,None,249.8246591999996,None,250.61060940999968,None,,,,22015,0001,2022_Oct_03_0952,localizer,2021.1.3,59.07962219776272,
block,faces,faces077.bmp,,,,,0,118,118,118,,,,,,,,,,,,,,,,,,,,,,,,,,,,,,,,,,,,,,,,,,None,,250.61060940999968,None,250.61060940999968,None,2022-10-03-09:56:30.239427,250.61173409999992,250.9170522000004,250.61173409999992,None,None,250.61173409999992,None,251.41304001000034,None,,,,22015,0001,2022_Oct_03_0952,localizer,2021.1.3,59.07962219776272,
block,faces,faces084.bmp,,,,,0,119,119,119,,,,,,,,,,,,,,,,,,,,,,,,,,,,,,,,,,,,,,,,,,None,,251.41304001000034,None,251.41304001000034,None,2022-10-03-09:56:31.048026,251.4335471000004,251.7480114,251.4335471000004,251.4335471000004,None,251.4335471000004,251.4335471000004,252.2288113100004,None,,,,22015,0001,2022_Oct_03_0952,localizer,2021.1.3,59.07962219776272,
block,faces,faces006.bmp,,,,,0,120,120,120,,,,,,,,,,,,,,,,,,,,,,,,,,,,,,,,,,,,,,,,,,None,,252.2288113100004,None,252.2288113100004,None,2022-10-03-09:56:31.859506,252.24393429999964,252.54387479999968,252.24393429999964,None,None,252.24393429999964,None,253.04543041000042,None,,,,22015,0001,2022_Oct_03_0952,localizer,2021.1.3,59.07962219776272,
block_end,faces,faces045.bmp,,,,,0,121,121,121,,,,,,,,,,,,,,,,,,,,,,,,,,,,,,,,,,,,,,,,,,None,,253.04543041000042,None,253.04543041000042,None,2022-10-03-09:56:32.676109,253.06074869999975,253.36096069999985,253.06074869999975,None,None,253.06074869999975,None,253.8607997099999,None,,,,22015,0001,2022_Oct_03_0952,localizer,2021.1.3,59.07962219776272,
block_start,scenes,scenes055.bmp,,,,,0,122,122,122,,,,,,,,,,,,,,,,,,,,,,,,,,,,,,,,,,,,,,,,,,t,1.7873719999997775,253.86032989999967,None,253.86032989999967,None,2022-10-03-09:56:35.305256,255.68613050000022,255.99454979999973,255.68613050000022,None,None,255.68613050000022,None,256.49810511000044,None,,,,22015,0001,2022_Oct_03_0952,localizer,2021.1.3,59.07962219776272,
block,scenes,scenes088.bmp,,,,,0,123,123,123,,,,,,,,,,,,,,,,,,,,,,,,,,,,,,,,,,,,,,,,,,None,,256.49810511000044,None,256.49810511000044,None,2022-10-03-09:56:36.134021,256.51770000000033,256.8335966000004,256.51770000000033,None,None,256.51770000000033,None,257.3186557099999,None,,,,22015,0001,2022_Oct_03_0952,localizer,2021.1.3,59.07962219776272,
block,scenes,scenes075.bmp,,,,,0,124,124,124,,,,,,,,,,,,,,,,,,,,,,,,,,,,,,,,,,,,,,,,,,None,,257.3186557099999,None,257.3186557099999,None,2022-10-03-09:56:36.954488,257.3390271999997,257.64597440000034,257.3390271999997,None,None,257.3390271999997,None,258.1290187100004,None,,,,22015,0001,2022_Oct_03_0952,localizer,2021.1.3,59.07962219776272,
block,scenes,scenes051.bmp,,,,,0,125,125,125,,,,,,,,,,,,,,,,,,,,,,,,,,,,,,,,,,,,,,,,,,None,,258.1290187100004,None,258.1290187100004,None,2022-10-03-09:56:37.759697,258.1463695000002,258.46065069999986,258.1463695000002,None,None,258.1463695000002,None,258.9438673100004,None,,,,22015,0001,2022_Oct_03_0952,localizer,2021.1.3,59.07962219776272,
block,scenes,scenes071.bmp,,,,,0,126,126,126,,,,,,,,,,,,,,,,,,,,,,,,,,,,,,,,,,,,,,,,,,None,,258.9438673100004,None,258.9438673100004,None,2022-10-03-09:56:38.572745,258.9523998000004,259.26049669999975,258.9523998000004,None,y,258.9523998000004,None,259.76066640999954,None,0.5299579000002268,,,22015,0001,2022_Oct_03_0952,localizer,2021.1.3,59.07962219776272,
block,scenes,scenes065.bmp,,,,,0,127,127,127,,,,,,,,,,,,,,,,,,,,,,,,,,,,,,,,,,,,,,,,,,None,,259.76066640999954,None,259.76066640999954,None,2022-10-03-09:56:39.389552,259.76195110000026,260.06117449999965,259.76195110000026,None,None,259.76195110000026,None,260.57740150999973,None,,,,22015,0001,2022_Oct_03_0952,localizer,2021.1.3,59.07962219776272,
block,scenes,scenes083.bmp,,,,,0,128,128,128,,,,,,,,,,,,,,,,,,,,,,,,,,,,,,,,,,,,,,,,,,None,,260.57740150999973,None,260.57740150999973,None,2022-10-03-09:56:40.206433,260.5855002999997,260.8941187999999,260.5855002999997,None,None,260.5855002999997,None,261.39780110999993,None,,,,22015,0001,2022_Oct_03_0952,localizer,2021.1.3,59.07962219776272,
block,scenes,scenes011.bmp,,,,,0,129,129,129,,,,,,,,,,,,,,,,,,,,,,,,,,,,,,,,,,,,,,,,,,None,,261.39780110999993,None,261.39780110999993,None,2022-10-03-09:56:41.030673,261.41241830000035,261.7117119000004,261.41241830000035,None,None,261.41241830000035,None,262.21221031000016,None,,,,22015,0001,2022_Oct_03_0952,localizer,2021.1.3,59.07962219776272,
block,scenes,scenes053.bmp,,,,,0,130,130,130,,,,,,,,,,,,,,,,,,,,,,,,,,,,,,,,,,,,,,,,,,None,,262.21221031000016,None,262.21221031000016,None,2022-10-03-09:56:41.842572,262.2250199,262.5293670000001,262.2250199,None,None,262.2250199,None,263.02734970999984,None,,,,22015,0001,2022_Oct_03_0952,localizer,2021.1.3,59.07962219776272,
block,scenes,scenes046.bmp,,,,,0,131,131,131,,,,,,,,,,,,,,,,,,,,,,,,,,,,,,,,,,,,,,,,,,None,,263.02734970999984,None,263.02734970999984,None,2022-10-03-09:56:42.656355,263.0370034999996,263.3446998999998,263.0370034999996,None,y,263.0370034999996,None,263.84430581000026,None,0.018475500000022294,,,22015,0001,2022_Oct_03_0952,localizer,2021.1.3,59.07962219776272,
block,scenes,scenes013.bmp,,,,,0,132,132,132,,,,,,,,,,,,,,,,,,,,,,,,,,,,,,,,,,,,,,,,,,None,,263.84430581000026,None,263.84430581000026,None,2022-10-03-09:56:43.472551,263.8526364999998,264.1605462999996,263.8526364999998,None,None,263.8526364999998,None,264.6613649100001,None,,,,22015,0001,2022_Oct_03_0952,localizer,2021.1.3,59.07962219776272,
block,scenes,scenes069.bmp,,,,,0,133,133,133,,,,,,,,,,,,,,,,,,,,,,,,,,,,,,,,,,,,,,,,,,None,,264.6613649100001,None,264.6613649100001,None,2022-10-03-09:56:44.290575,264.67211750000024,264.9781347999997,264.67211750000024,None,None,264.67211750000024,None,265.47765531000016,None,,,,22015,0001,2022_Oct_03_0952,localizer,2021.1.3,59.07962219776272,
block,scenes,scenes008.bmp,,,,,0,134,134,134,,,,,,,,,,,,,,,,,,,,,,,,,,,,,,,,,,,,,,,,,,None,,265.47765531000016,None,265.47765531000016,None,2022-10-03-09:56:45.105538,265.4782306999996,265.77706469999976,265.4782306999996,None,None,265.4782306999996,None,266.2777408100002,None,,,,22015,0001,2022_Oct_03_0952,localizer,2021.1.3,59.07962219776272,
block,scenes,scenes090.bmp,,,,,0,135,135,135,,,,,,,,,,,,,,,,,,,,,,,,,,,,,,,,,,,,,,,,,,None,,266.2777408100002,None,266.2777408100002,None,2022-10-03-09:56:45.908742,266.2893377999999,266.6005922000004,266.2893377999999,266.2893377999999,None,266.2893377999999,266.2893377999999,267.09553701000016,None,,,,22015,0001,2022_Oct_03_0952,localizer,2021.1.3,59.07962219776272,
block_end,scenes,scenes078.bmp,,,,,0,136,136,136,,,,,,,,,,,,,,,,,,,,,,,,,,,,,,,,,,,,,,,,,,None,,267.09553701000016,None,267.09553701000016,None,2022-10-03-09:56:46.726064,267.1125179999999,267.4165462000001,267.1125179999999,None,None,267.1125179999999,None,267.91114390999985,None,,,,22015,0001,2022_Oct_03_0952,localizer,2021.1.3,59.07962219776272,
block_start,objects,objects009.bmp,,,,,0,137,137,137,,,,,,,,,,,,,,,,,,,,,,,,,,,,,,,,,,,,,,,,,,t,1.7357480000000578,267.91076799999973,None,267.91076799999973,None,2022-10-03-09:56:49.305196,269.6851445000002,269.99482530000023,269.6851445000002,None,None,269.6851445000002,None,270.49743410999974,None,,,,22015,0001,2022_Oct_03_0952,localizer,2021.1.3,59.07962219776272,
block,objects,objects044.bmp,,,,,0,138,138,138,,,,,,,,,,,,,,,,,,,,,,,,,,,,,,,,,,,,,,,,,,None,,270.49743410999974,None,270.49743410999974,None,2022-10-03-09:56:50.129364,270.51030189999983,270.8106721000004,270.51030189999983,None,None,270.51030189999983,None,271.3130585099999,None,,,,22015,0001,2022_Oct_03_0952,localizer,2021.1.3,59.07962219776272,
block,objects,objects063.bmp,,,,,0,139,139,139,,,,,,,,,,,,,,,,,,,,,,,,,,,,,,,,,,,,,,,,,,None,,271.3130585099999,None,271.3130585099999,None,2022-10-03-09:56:50.946087,271.3285452,271.65058899999985,271.3285452,None,None,271.3285452,None,272.1278435100004,None,,,,22015,0001,2022_Oct_03_0952,localizer,2021.1.3,59.07962219776272,
block,objects,objects064.bmp,,,,,0,140,140,140,,,,,,,,,,,,,,,,,,,,,,,,,,,,,,,,,,,,,,,,,,None,,272.1278435100004,None,272.1278435100004,None,2022-10-03-09:56:51.757045,272.13730570000007,272.44801610000013,272.13730570000007,None,None,272.13730570000007,None,272.9441016100001,None,,,,22015,0001,2022_Oct_03_0952,localizer,2021.1.3,59.07962219776272,
block,objects,objects088.bmp,,,,,0,141,141,141,,,,,,,,,,,,,,,,,,,,,,,,,,,,,,,,,,,,,,,,,,None,,272.9441016100001,None,272.9441016100001,None,2022-10-03-09:56:52.572922,272.9454738000004,273.2444552999996,272.9454738000004,None,None,272.9454738000004,None,273.7462654100001,None,,,,22015,0001,2022_Oct_03_0952,localizer,2021.1.3,59.07962219776272,
block,objects,objects041.bmp,,,,,0,142,142,142,,,,,,,,,,,,,,,,,,,,,,,,,,,,,,,,,,,,,,,,,,None,,273.7462654100001,None,273.7462654100001,None,2022-10-03-09:56:53.376285,273.7466531,274.0614978000003,273.7466531,273.7466531,None,273.7466531,273.7466531,274.5623179100004,None,,,,22015,0001,2022_Oct_03_0952,localizer,2021.1.3,59.07962219776272,
block,objects,objects058.bmp,,,,,0,143,143,143,,,,,,,,,,,,,,,,,,,,,,,,,,,,,,,,,,,,,,,,,,None,,274.5623179100004,None,274.5623179100004,None,2022-10-03-09:56:54.193312,274.57414100000005,274.87972850000006,274.57414100000005,None,None,274.57414100000005,None,275.3803192099996,None,,,,22015,0001,2022_Oct_03_0952,localizer,2021.1.3,59.07962219776272,
block,objects,objects015.bmp,,,,,0,144,144,144,,,,,,,,,,,,,,,,,,,,,,,,,,,,,,,,,,,,,,,,,,None,,275.3803192099996,None,275.3803192099996,None,2022-10-03-09:56:55.010454,275.3904056000001,275.69693110000026,275.3904056000001,None,None,275.3904056000001,None,276.1939071099997,None,,,,22015,0001,2022_Oct_03_0952,localizer,2021.1.3,59.07962219776272,
block,objects,objects023.bmp,,,,,0,145,145,145,,,,,,,,,,,,,,,,,,,,,,,,,,,,,,,,,,,,,,,,,,None,,276.1939071099997,None,276.1939071099997,None,2022-10-03-09:56:55.823211,276.19505019999997,276.4948709,276.19505019999997,None,None,276.19505019999997,None,276.9956477099996,None,,,,22015,0001,2022_Oct_03_0952,localizer,2021.1.3,59.07962219776272,
block,objects,objects006.bmp,,,,,0,146,146,146,,,,,,,,,,,,,,,,,,,,,,,,,,,,,,,,,,,,,,,,,,None,,276.9956477099996,None,276.9956477099996,None,2022-10-03-09:56:56.627495,277.01004999999986,277.3112011000003,277.01004999999986,277.01004999999986,None,277.01004999999986,277.01004999999986,277.8122301100003,None,,,,22015,0001,2022_Oct_03_0952,localizer,2021.1.3,59.07962219776272,
block,objects,objects074.bmp,,,,,0,147,147,147,,,,,,,,,,,,,,,,,,,,,,,,,,,,,,,,,,,,,,,,,,None,,277.8122301100003,None,277.8122301100003,None,2022-10-03-09:56:57.443285,277.8272667000001,278.1279532999997,277.8272667000001,None,None,277.8272667000001,None,278.6335022100003,None,,,,22015,0001,2022_Oct_03_0952,localizer,2021.1.3,59.07962219776272,
block,objects,objects061.bmp,,,,,0,148,148,148,,,,,,,,,,,,,,,,,,,,,,,,,,,,,,,,,,,,,,,,,,None,,278.6335022100003,None,278.6335022100003,None,2022-10-03-09:56:58.262519,278.64046580000013,278.9448957000004,278.64046580000013,None,None,278.64046580000013,None,279.44436461,None,,,,22015,0001,2022_Oct_03_0952,localizer,2021.1.3,59.07962219776272,
block,objects,objects019.bmp,,,,,0,149,149,149,,,,,,,,,,,,,,,,,,,,,,,,,,,,,,,,,,,,,,,,,,None,,279.44436461,None,279.44436461,None,2022-10-03-09:56:59.074064,279.4541255000004,279.76147889999993,279.4541255000004,None,None,279.4541255000004,None,280.26100040999984,None,,,,22015,0001,2022_Oct_03_0952,localizer,2021.1.3,59.07962219776272,
block,objects,objects024.bmp,,,,,0,150,150,150,,,,,,,,,,,,,,,,,,,,,,,,,,,,,,,,,,,,,,,,,,None,,280.26100040999984,None,280.26100040999984,None,2022-10-03-09:56:59.889707,280.26505180000004,280.56245149999995,280.26505180000004,None,None,280.26505180000004,None,281.0674323100003,None,,,,22015,0001,2022_Oct_03_0952,localizer,2021.1.3,59.07962219776272,
block_end,objects,objects026.bmp,,,,,0,151,151,151,,,,,,,,,,,,,,,,,,,,,,,,,,,,,,,,,,,,,,,,,,None,,281.0674323100003,None,281.0674323100003,None,2022-10-03-09:57:00.704163,281.0832368000001,281.39479949999986,281.0832368000001,None,None,281.0832368000001,None,281.8789645099997,None,,,,22015,0001,2022_Oct_03_0952,localizer,2021.1.3,59.07962219776272,
null_block,null_block,null_block.bmp,,,,,0,152,152,152,,,,,,,,,,,,,,,,,,,,,,,,,,,,,,,,,,,,,,,,,,t,1.7679284000005282,281.87869580000006,None,281.87869580000006,None,2022-10-03-09:57:03.291792,283.6618109100001,None,283.6618109100001,None,None,283.6618109100001,None,283.6672576000001,None,,,,22015,0001,2022_Oct_03_0952,localizer,2021.1.3,59.07962219776272,
block_start,scrambled,scrambled004.bmp,,,,,0,153,153,153,,,,,,,,,,,,,,,,,,,,,,,,,,,,,,,,,,,,,,,,,,t,1.9695267000006424,295.6771753000003,None,295.6771753000003,None,2022-10-03-09:57:17.294011,297.6641861999997,297.9775545000002,297.6641861999997,None,None,297.6641861999997,None,298.47864280999977,None,,,,22015,0001,2022_Oct_03_0952,localizer,2021.1.3,59.07962219776272,
block,scrambled,scrambled022.bmp,,,,,0,154,154,154,,,,,,,,,,,,,,,,,,,,,,,,,,,,,,,,,,,,,,,,,,None,,298.47864280999977,None,298.47864280999977,None,2022-10-03-09:57:18.107763,298.4899544,298.7949101000004,298.4899544,None,None,298.4899544,None,299.29475640999965,None,,,,22015,0001,2022_Oct_03_0952,localizer,2021.1.3,59.07962219776272,
block,scrambled,scrambled056.bmp,,,,,0,155,155,155,,,,,,,,,,,,,,,,,,,,,,,,,,,,,,,,,,,,,,,,,,None,,299.29475640999965,None,299.29475640999965,None,2022-10-03-09:57:18.923967,299.30255060000036,299.61101580000013,299.30255060000036,None,None,299.30255060000036,None,300.11516681000023,None,,,,22015,0001,2022_Oct_03_0952,localizer,2021.1.3,59.07962219776272,
block,scrambled,scrambled076.bmp,,,,,0,156,156,156,,,,,,,,,,,,,,,,,,,,,,,,,,,,,,,,,,,,,,,,,,None,,300.11516681000023,None,300.11516681000023,None,2022-10-03-09:57:19.753373,300.12881860000016,300.4282254,300.12881860000016,None,None,300.12881860000016,None,300.93414850999955,None,,,,22015,0001,2022_Oct_03_0952,localizer,2021.1.3,59.07962219776272,
block,scrambled,scrambled086.bmp,,,,,0,157,157,157,,,,,,,,,,,,,,,,,,,,,,,,,,,,,,,,,,,,,,,,,,None,,300.93414850999955,None,300.93414850999955,None,2022-10-03-09:57:20.567366,300.9486753000001,301.2606917000003,300.9486753000001,None,None,300.9486753000001,None,301.7444148100004,None,,,,22015,0001,2022_Oct_03_0952,localizer,2021.1.3,59.07962219776272,
block,scrambled,scrambled025.bmp,,,,,0,158,158,158,,,,,,,,,,,,,,,,,,,,,,,,,,,,,,,,,,,,,,,,,,None,,301.7444148100004,None,301.7444148100004,None,2022-10-03-09:57:21.372508,301.74592570000004,302.0464039999997,301.74592570000004,None,None,301.74592570000004,None,302.5612077099996,None,,,,22015,0001,2022_Oct_03_0952,localizer,2021.1.3,59.07962219776272,
block,scrambled,scrambled014.bmp,,,,,0,159,159,159,,,,,,,,,,,,,,,,,,,,,,,,,,,,,,,,,,,,,,,,,,None,,302.5612077099996,None,302.5612077099996,None,2022-10-03-09:57:22.190449,302.5697232000002,302.87831730000016,302.5697232000002,None,None,302.5697232000002,None,303.3786179099999,None,,,,22015,0001,2022_Oct_03_0952,localizer,2021.1.3,59.07962219776272,
block,scrambled,scrambled033.bmp,,,,,0,160,160,160,,,,,,,,,,,,,,,,,,,,,,,,,,,,,,,,,,,,,,,,,,None,,303.3786179099999,None,303.3786179099999,None,2022-10-03-09:57:23.008786,303.3892201999997,303.6943419999998,303.3892201999997,None,None,303.3892201999997,None,304.19463390999965,None,,,,22015,0001,2022_Oct_03_0952,localizer,2021.1.3,59.07962219776272,
block,scrambled,scrambled033.bmp,,,,,0,161,161,161,,,,,,,,,,,,,,,,,,,,,,,,,,,,,,,,,,,,,,,,,,None,,304.19463390999965,None,304.19463390999965,None,2022-10-03-09:57:23.823790,304.1951468999996,304.4940955000002,304.1951468999996,None,None,304.1951468999996,None,304.99459820999994,None,,,,22015,0001,2022_Oct_03_0952,localizer,2021.1.3,59.07962219776272,
block,scrambled,scrambled024.bmp,,,,,0,162,162,162,,,,,,,,,,,,,,,,,,,,,,,,,,,,,,,,,,,,,,,,,,None,,304.99459820999994,None,304.99459820999994,None,2022-10-03-09:57:24.625813,304.9954706999997,305.2944803999999,304.9954706999997,304.9954706999997,y,304.9954706999997,304.9954706999997,305.7946522100002,None,0.0910479000003761,,,22015,0001,2022_Oct_03_0952,localizer,2021.1.3,59.07962219776272,
block,scrambled,scrambled085.bmp,,,,,0,163,163,163,,,,,,,,,,,,,,,,,,,,,,,,,,,,,,,,,,,,,,,,,,None,,305.7946522100002,None,305.7946522100002,None,2022-10-03-09:57:25.425753,305.8065878999996,306.11102349999965,305.8065878999996,305.8065878999996,None,305.8065878999996,305.8065878999996,306.61272311000005,None,,,,22015,0001,2022_Oct_03_0952,localizer,2021.1.3,59.07962219776272,
block,scrambled,scrambled062.bmp,,,,,0,164,164,164,,,,,,,,,,,,,,,,,,,,,,,,,,,,,,,,,,,,,,,,,,None,,306.61272311000005,None,306.61272311000005,None,2022-10-03-09:57:26.243429,306.62585899999976,306.92782799999986,306.62585899999976,None,None,306.62585899999976,None,307.42775430999984,None,,,,22015,0001,2022_Oct_03_0952,localizer,2021.1.3,59.07962219776272,
block,scrambled,scrambled065.bmp,,,,,0,165,165,165,,,,,,,,,,,,,,,,,,,,,,,,,,,,,,,,,,,,,,,,,,None,,307.42775430999984,None,307.42775430999984,None,2022-10-03-09:57:27.057031,307.43647560000045,307.7449808000001,307.43647560000045,None,None,307.43647560000045,None,308.2452118100001,None,,,,22015,0001,2022_Oct_03_0952,localizer,2021.1.3,59.07962219776272,
block,scrambled,scrambled032.bmp,,,,,0,166,166,166,,,,,,,,,,,,,,,,,,,,,,,,,,,,,,,,,,,,,,,,,,None,,308.2452118100001,None,308.2452118100001,None,2022-10-03-09:57:27.875405,308.2458348,308.5504269000003,308.2458348,None,y,308.2458348,None,309.06127320999997,None,0.25243289999980334,,,22015,0001,2022_Oct_03_0952,localizer,2021.1.3,59.07962219776272,
block_end,scrambled,scrambled037.bmp,,,,,0,167,167,167,,,,,,,,,,,,,,,,,,,,,,,,,,,,,,,,,,,,,,,,,,None,,309.06127320999997,None,309.06127320999997,None,2022-10-03-09:57:28.690670,309.0714490999999,309.3779783,309.0714490999999,None,None,309.0714490999999,None,309.8786929099998,None,,,,22015,0001,2022_Oct_03_0952,localizer,2021.1.3,59.07962219776272,
block_start,faces,faces048.bmp,,,,,0,168,168,168,,,,,,,,,,,,,,,,,,,,,,,,,,,,,,,,,,,,,,,,,,t,1.7683692999999039,309.87836179999977,None,309.87836179999977,None,2022-10-03-09:57:31.307286,311.6887993,311.99475789999997,311.6887993,None,None,311.6887993,None,312.4942531099997,None,,,,22015,0001,2022_Oct_03_0952,localizer,2021.1.3,59.07962219776272,
block,faces,faces088.bmp,,,,,0,169,169,169,,,,,,,,,,,,,,,,,,,,,,,,,,,,,,,,,,,,,,,,,,None,,312.4942531099997,None,312.4942531099997,None,2022-10-03-09:57:32.123072,312.5002053999997,312.811068,312.5002053999997,None,None,312.5002053999997,None,313.3114076100002,None,,,,22015,0001,2022_Oct_03_0952,localizer,2021.1.3,59.07962219776272,
block,faces,faces019.bmp,,,,,0,170,170,170,,,,,,,,,,,,,,,,,,,,,,,,,,,,,,,,,,,,,,,,,,None,,313.3114076100002,None,313.3114076100002,None,2022-10-03-09:57:32.940883,313.3119942000003,313.61091229999965,313.3119942000003,None,None,313.3119942000003,None,314.11125020999964,None,,,,22015,0001,2022_Oct_03_0952,localizer,2021.1.3,59.07962219776272,
block,faces,faces024.bmp,,,,,0,171,171,171,,,,,,,,,,,,,,,,,,,,,,,,,,,,,,,,,,,,,,,,,,None,,314.11125020999964,None,314.11125020999964,None,2022-10-03-09:57:33.742389,314.12282529999993,314.4277242999997,314.12282529999993,314.12282529999993,None,314.12282529999993,314.12282529999993,314.92809271,None,,,,22015,0001,2022_Oct_03_0952,localizer,2021.1.3,59.07962219776272,
block,faces,faces045.bmp,,,,,0,172,172,172,,,,,,,,,,,,,,,,,,,,,,,,,,,,,,,,,,,,,,,,,,None,,314.92809271,None,314.92809271,None,2022-10-03-09:57:34.557576,314.9286195000004,315.23499379999976,314.9286195000004,None,None,314.9286195000004,None,315.72785340999974,None,,,,22015,0001,2022_Oct_03_0952,localizer,2021.1.3,59.07962219776272,
block,faces,faces017.bmp,,,,,0,173,173,173,,,,,,,,,,,,,,,,,,,,,,,,,,,,,,,,,,,,,,,,,,None,,315.72785340999974,None,315.72785340999974,None,2022-10-03-09:57:35.358374,315.7378012999998,316.04463529999975,315.7378012999998,315.7378012999998,None,315.7378012999998,315.7378012999998,316.5445531099996,None,,,,22015,0001,2022_Oct_03_0952,localizer,2021.1.3,59.07962219776272,
block,faces,faces020.bmp,,,,,0,174,174,174,,,,,,,,,,,,,,,,,,,,,,,,,,,,,,,,,,,,,,,,,,None,,316.5445531099996,None,316.5445531099996,None,2022-10-03-09:57:36.174050,316.54982029999974,316.86180090000016,316.54982029999974,None,None,316.54982029999974,None,317.3620899099998,None,,,,22015,0001,2022_Oct_03_0952,localizer,2021.1.3,59.07962219776272,
block,faces,faces027.bmp,,,,,0,175,175,175,,,,,,,,,,,,,,,,,,,,,,,,,,,,,,,,,,,,,,,,,,None,,317.3620899099998,None,317.3620899099998,None,2022-10-03-09:57:36.992357,317.3747179000002,317.67780870000024,317.3747179000002,None,None,317.3747179000002,None,318.1782273099999,None,,,,22015,0001,2022_Oct_03_0952,localizer,2021.1.3,59.07962219776272,
block,faces,faces009.bmp,,,,,0,176,176,176,,,,,,,,,,,,,,,,,,,,,,,,,,,,,,,,,,,,,,,,,,None,,318.1782273099999,None,318.1782273099999,None,2022-10-03-09:57:37.807518,318.1790626000002,318.50047189999987,318.1790626000002,None,y,318.1790626000002,None,318.9793021099996,None,0.5415378999996392,,,22015,0001,2022_Oct_03_0952,localizer,2021.1.3,59.07962219776272,
block,faces,faces013.bmp,,,,,0,177,177,177,,,,,,,,,,,,,,,,,,,,,,,,,,,,,,,,,,,,,,,,,,None,,318.9793021099996,None,318.9793021099996,None,2022-10-03-09:57:38.612638,318.9829190999999,319.29488779999974,318.9829190999999,318.9829190999999,None,318.9829190999999,318.9829190999999,319.7948040100001,None,,,,22015,0001,2022_Oct_03_0952,localizer,2021.1.3,59.07962219776272,
block,faces,faces086.bmp,,,,,0,178,178,178,,,,,,,,,,,,,,,,,,,,,,,,,,,,,,,,,,,,,,,,,,None,,319.7948040100001,None,319.7948040100001,None,2022-10-03-09:57:39.424102,319.8045831999998,320.1112518,319.8045831999998,None,None,319.8045831999998,None,320.6112651100003,None,,,,22015,0001,2022_Oct_03_0952,localizer,2021.1.3,59.07962219776272,
block,faces,faces087.bmp,,,,,0,179,179,179,,,,,,,,,,,,,,,,,,,,,,,,,,,,,,,,,,,,,,,,,,None,,320.6112651100003,None,320.6112651100003,None,2022-10-03-09:57:40.240569,320.6216919999997,320.92753040000025,320.6216919999997,None,None,320.6216919999997,None,321.4279432100003,None,,,,22015,0001,2022_Oct_03_0952,localizer,2021.1.3,59.07962219776272,
block,faces,faces016.bmp,,,,,0,180,180,180,,,,,,,,,,,,,,,,,,,,,,,,,,,,,,,,,,,,,,,,,,None,,321.4279432100003,None,321.4279432100003,None,2022-10-03-09:57:41.056858,321.4379336000002,321.74423540000043,321.4379336000002,None,None,321.4379336000002,None,322.24511221000023,None,,,,22015,0001,2022_Oct_03_0952,localizer,2021.1.3,59.07962219776272,
block,faces,faces052.bmp,,,,,0,181,181,181,,,,,,,,,,,,,,,,,,,,,,,,,,,,,,,,,,,,,,,,,,None,,322.24511221000023,None,322.24511221000023,None,2022-10-03-09:57:41.874618,322.2457621000003,322.5608460000003,322.2457621000003,None,y,322.2457621000003,None,323.0612120099996,None,0.5410260999997263,,,22015,0001,2022_Oct_03_0952,localizer,2021.1.3,59.07962219776272,
block_end,faces,faces044.bmp,,,,,0,182,182,182,,,,,,,,,,,,,,,,,,,,,,,,,,,,,,,,,,,,,,,,,,None,,323.0612120099996,None,323.0612120099996,None,2022-10-03-09:57:42.690535,323.0623819000002,323.3774956999996,323.0623819000002,None,None,323.0623819000002,None,323.8780037099997,None,,,,22015,0001,2022_Oct_03_0952,localizer,2021.1.3,59.07962219776272,
block_start,faces,faces018.bmp,,,,,0,183,183,183,,,,,,,,,,,,,,,,,,,,,,,,,,,,,,,,,,,,,,,,,,t,1.7690109000004668,323.8776135999997,None,323.8776135999997,None,2022-10-03-09:57:45.305876,325.68744849999985,325.99487769999996,325.68744849999985,None,None,325.68744849999985,None,326.4941983099999,None,,,,22015,0001,2022_Oct_03_0952,localizer,2021.1.3,59.07962219776272,
block,faces,faces044.bmp,,,,,0,184,184,184,,,,,,,,,,,,,,,,,,,,,,,,,,,,,,,,,,,,,,,,,,None,,326.4941983099999,None,326.4941983099999,None,2022-10-03-09:57:46.123861,326.4960036000002,326.8110322000002,326.4960036000002,None,y,326.4960036000002,None,327.31145011,None,0.7299313000003167,,,22015,0001,2022_Oct_03_0952,localizer,2021.1.3,59.07962219776272,
block,faces,faces046.bmp,,,,,0,185,185,185,,,,,,,,,,,,,,,,,,,,,,,,,,,,,,,,,,,,,,,,,,None,,327.31145011,None,327.31145011,None,2022-10-03-09:57:46.940807,327.32169859999976,327.6276942000004,327.32169859999976,None,None,327.32169859999976,None,328.1282428100004,None,,,,22015,0001,2022_Oct_03_0952,localizer,2021.1.3,59.07962219776272,
block,faces,faces019.bmp,,,,,0,186,186,186,,,,,,,,,,,,,,,,,,,,,,,,,,,,,,,,,,,,,,,,,,None,,328.1282428100004,None,328.1282428100004,None,2022-10-03-09:57:47.757692,328.1287629999997,328.42795430000024,328.1287629999997,None,None,328.1287629999997,None,328.92812610999965,None,,,,22015,0001,2022_Oct_03_0952,localizer,2021.1.3,59.07962219776272,
block,faces,faces029.bmp,,,,,0,187,187,187,,,,,,,,,,,,,,,,,,,,,,,,,,,,,,,,,,,,,,,,,,None,,328.92812610999965,None,328.92812610999965,None,2022-10-03-09:57:48.559486,328.92869580000024,329.22826499999974,328.92869580000024,328.92869580000024,y,328.92869580000024,328.92869580000024,329.7280457099997,None,0.026811899999302113,,,22015,0001,2022_Oct_03_0952,localizer,2021.1.3,59.07962219776272,
block,faces,faces034.bmp,,,,,0,188,188,188,,,,,,,,,,,,,,,,,,,,,,,,,,,,,,,,,,,,,,,,,,None,,329.7280457099997,None,329.7280457099997,None,2022-10-03-09:57:49.358632,329.7373864000001,330.0444673000002,329.7373864000001,329.7373864000001,None,329.7373864000001,329.7373864000001,330.54614611000045,None,,,,22015,0001,2022_Oct_03_0952,localizer,2021.1.3,59.07962219776272,
block,faces,faces012.bmp,,,,,0,189,189,189,,,,,,,,,,,,,,,,,,,,,,,,,,,,,,,,,,,,,,,,,,None,,330.54614611000045,None,330.54614611000045,None,2022-10-03-09:57:50.176500,330.54761039999994,330.8613059999998,330.54761039999994,None,y,330.54761039999994,None,331.3620477100004,None,0.6695275000001857,,,22015,0001,2022_Oct_03_0952,localizer,2021.1.3,59.07962219776272,
block,faces,faces053.bmp,,,,,0,190,190,190,,,,,,,,,,,,,,,,,,,,,,,,,,,,,,,,,,,,,,,,,,None,,331.3620477100004,None,331.3620477100004,None,2022-10-03-09:57:50.991400,331.3624768999998,331.6619856999996,331.3624768999998,None,None,331.3624768999998,None,332.17806691,None,,,,22015,0001,2022_Oct_03_0952,localizer,2021.1.3,59.07962219776272,
block,faces,faces052.bmp,,,,,0,191,191,191,,,,,,,,,,,,,,,,,,,,,,,,,,,,,,,,,,,,,,,,,,None,,332.17806691,None,332.17806691,None,2022-10-03-09:57:51.807453,332.17895099999987,332.48162200000024,332.17895099999987,None,y,332.17895099999987,None,332.97872630999984,None,0.6697359999998298,,,22015,0001,2022_Oct_03_0952,localizer,2021.1.3,59.07962219776272,
block,faces,faces013.bmp,,,,,0,192,192,192,,,,,,,,,,,,,,,,,,,,,,,,,,,,,,,,,,,,,,,,,,None,,332.97872630999984,None,332.97872630999984,None,2022-10-03-09:57:52.611441,332.9812600000005,333.2945120000004,332.9812600000005,332.9812600000005,None,332.9812600000005,332.9812600000005,333.7946684099999,None,,,,22015,0001,2022_Oct_03_0952,localizer,2021.1.3,59.07962219776272,
block,faces,faces026.bmp,,,,,0,193,193,193,,,,,,,,,,,,,,,,,,,,,,,,,,,,,,,,,,,,,,,,,,None,,333.7946684099999,None,333.7946684099999,None,2022-10-03-09:57:53.423854,333.833474,334.14446729999963,333.833474,None,None,333.833474,None,334.6009088100001,None,,,,22015,0001,2022_Oct_03_0952,localizer,2021.1.3,59.07962219776272,
block,faces,faces030.bmp,,,,,0,194,194,194,,,,,,,,,,,,,,,,,,,,,,,,,,,,,,,,,,,,,,,,,,None,,334.6009088100001,None,334.6009088100001,None,2022-10-03-09:57:54.239019,334.63146440000037,334.9446340000004,334.63146440000037,None,y,334.63146440000037,None,335.41129661000025,None,0.5080381000007037,,,22015,0001,2022_Oct_03_0952,localizer,2021.1.3,59.07962219776272,
block,faces,faces064.bmp,,,,,0,195,195,195,,,,,,,,,,,,,,,,,,,,,,,,,,,,,,,,,,,,,,,,,,None,,335.41129661000025,None,335.41129661000025,None,2022-10-03-09:57:55.040707,335.42011040000034,335.7278561000003,335.42011040000034,None,None,335.42011040000034,None,336.2281522100003,None,,,,22015,0001,2022_Oct_03_0952,localizer,2021.1.3,59.07962219776272,
block,faces,faces016.bmp,,,,,0,196,196,196,,,,,,,,,,,,,,,,,,,,,,,,,,,,,,,,,,,,,,,,,,None,,336.2281522100003,None,336.2281522100003,None,2022-10-03-09:57:55.858064,336.22893999999997,336.5294160000003,336.22893999999997,None,None,336.22893999999997,None,337.02886150999996,None,,,,22015,0001,2022_Oct_03_0952,localizer,2021.1.3,59.07962219776272,
block_end,faces,faces065.bmp,,,,,0,197,197,197,,,,,,,,,,,,,,,,,,,,,,,,,,,,,,,,,,,,,,,,,,None,,337.02886150999996,None,337.02886150999996,None,2022-10-03-09:57:56.660282,337.0426974000002,337.3452821000001,337.0426974000002,337.0426974000002,None,337.0426974000002,337.0426974000002,337.8447468100004,None,,,,22015,0001,2022_Oct_03_0952,localizer,2021.1.3,59.07962219776272,
block_start,objects,objects052.bmp,,,,,0,198,198,198,,,,,,,,,,,,,,,,,,,,,,,,,,,,,,,,,,,,,,,,,,t,1.8021839000002728,337.84452539999984,None,337.84452539999984,None,2022-10-03-09:57:59.307540,339.67900329999975,339.9777674999996,339.67900329999975,None,None,339.67900329999975,None,340.4787266100003,None,,,,22015,0001,2022_Oct_03_0952,localizer,2021.1.3,59.07962219776272,
block,objects,objects071.bmp,,,,,0,199,199,199,,,,,,,,,,,,,,,,,,,,,,,,,,,,,,,,,,,,,,,,,,None,,340.4787266100003,None,340.4787266100003,None,2022-10-03-09:58:00.108937,340.47869850000006,340.7775730000003,340.47869850000006,340.47869850000006,None,340.47869850000006,340.47869850000006,341.27869330999977,None,,,,22015,0001,2022_Oct_03_0952,localizer,2021.1.3,59.07962219776272,
block,objects,objects024.bmp,,,,,0,200,200,200,,,,,,,,,,,,,,,,,,,,,,,,,,,,,,,,,,,,,,,,,,None,,341.27869330999977,None,341.27869330999977,None,2022-10-03-09:58:00.911149,341.28130899999996,341.5943911000004,341.28130899999996,341.28130899999996,None,341.28130899999996,341.28130899999996,342.0950118100001,None,,,,22015,0001,2022_Oct_03_0952,localizer,2021.1.3,59.07962219776272,
block,objects,objects027.bmp,,,,,0,201,201,201,,,,,,,,,,,,,,,,,,,,,,,,,,,,,,,,,,,,,,,,,,None,,342.0950118100001,None,342.0950118100001,None,2022-10-03-09:58:01.724654,342.1042590999996,342.41110990000016,342.1042590999996,None,None,342.1042590999996,None,342.91152711000007,None,,,,22015,0001,2022_Oct_03_0952,localizer,2021.1.3,59.07962219776272,
block,objects,objects062.bmp,,,,,0,202,202,202,,,,,,,,,,,,,,,,,,,,,,,,,,,,,,,,,,,,,,,,,,None,,342.91152711000007,None,342.91152711000007,None,2022-10-03-09:58:02.540989,342.91982910000024,343.2281063999999,342.91982910000024,None,None,342.91982910000024,None,343.7285272099999,None,,,,22015,0001,2022_Oct_03_0952,localizer,2021.1.3,59.07962219776272,
block,objects,objects084.bmp,,,,,0,203,203,203,,,,,,,,,,,,,,,,,,,,,,,,,,,,,,,,,,,,,,,,,,None,,343.7285272099999,None,343.7285272099999,None,2022-10-03-09:58:03.358147,343.7387974000003,344.0445030000001,343.7387974000003,None,None,343.7387974000003,None,344.5512064100004,None,,,,22015,0001,2022_Oct_03_0952,localizer,2021.1.3,59.07962219776272,
block,objects,objects043.bmp,,,,,0,204,204,204,,,,,,,,,,,,,,,,,,,,,,,,,,,,,,,,,,,,,,,,,,None,,344.5512064100004,None,344.5512064100004,None,2022-10-03-09:58:04.189473,344.5630709999996,344.8778677,344.5630709999996,None,None,344.5630709999996,None,345.36169170999995,None,,,,22015,0001,2022_Oct_03_0952,localizer,2021.1.3,59.07962219776272,
block,objects,objects010.bmp,,,,,0,205,205,205,,,,,,,,,,,,,,,,,,,,,,,,,,,,,,,,,,,,,,,,,,None,,345.36169170999995,None,345.36169170999995,None,2022-10-03-09:58:04.991387,345.36940930000037,345.6837667,345.36940930000037,None,None,345.36940930000037,None,346.1813389099999,None,,,,22015,0001,2022_Oct_03_0952,localizer,2021.1.3,59.07962219776272,
block,objects,objects016.bmp,,,,,0,206,206,206,,,,,,,,,,,,,,,,,,,,,,,,,,,,,,,,,,,,,,,,,,None,,346.1813389099999,None,346.1813389099999,None,2022-10-03-09:58:05.814809,346.1945136000004,346.50151149999965,346.1945136000004,None,None,346.1945136000004,None,346.99478961000034,None,,,,22015,0001,2022_Oct_03_0952,localizer,2021.1.3,59.07962219776272,
block,objects,objects029.bmp,,,,,0,207,207,207,,,,,,,,,,,,,,,,,,,,,,,,,,,,,,,,,,,,,,,,,,None,,346.99478961000034,None,346.99478961000034,None,2022-10-03-09:58:06.624279,346.995594,347.30047840000043,346.995594,None,None,346.995594,None,347.7970251099997,None,,,,22015,0001,2022_Oct_03_0952,localizer,2021.1.3,59.07962219776272,
block,objects,objects015.bmp,,,,,0,208,208,208,,,,,,,,,,,,,,,,,,,,,,,,,,,,,,,,,,,,,,,,,,None,,347.7970251099997,None,347.7970251099997,None,2022-10-03-09:58:07.432654,347.80434030000015,348.1111314,347.80434030000015,347.80434030000015,y,347.80434030000015,347.80434030000015,348.6115787099999,None,0.7631642000005741,,,22015,0001,2022_Oct_03_0952,localizer,2021.1.3,59.07962219776272,
block,objects,objects013.bmp,,,,,0,209,209,209,,,,,,,,,,,,,,,,,,,,,,,,,,,,,,,,,,,,,,,,,,None,,348.6115787099999,None,348.6115787099999,None,2022-10-03-09:58:08.241085,348.6194340000002,348.9315157000001,348.6194340000002,None,None,348.6194340000002,None,349.4279896099998,None,,,,22015,0001,2022_Oct_03_0952,localizer,2021.1.3,59.07962219776272,
block,objects,objects003.bmp,,,,,0,210,210,210,,,,,,,,,,,,,,,,,,,,,,,,,,,,,,,,,,,,,,,,,,None,,349.4279896099998,None,349.4279896099998,None,2022-10-03-09:58:09.062380,349.43328250000013,349.74491670000043,349.43328250000013,None,None,349.43328250000013,None,350.2457985100001,None,,,,22015,0001,2022_Oct_03_0952,localizer,2021.1.3,59.07962219776272,
block,objects,objects046.bmp,,,,,0,211,211,211,,,,,,,,,,,,,,,,,,,,,,,,,,,,,,,,,,,,,,,,,,None,,350.2457985100001,None,350.2457985100001,None,2022-10-03-09:58:09.876472,350.24630979999984,350.5454778000003,350.24630979999984,None,None,350.24630979999984,None,351.0617652100001,None,,,,22015,0001,2022_Oct_03_0952,localizer,2021.1.3,59.07962219776272,
block_end,objects,objects063.bmp,,,,,0,212,212,212,,,,,,,,,,,,,,,,,,,,,,,,,,,,,,,,,,,,,,,,,,None,,351.0617652100001,None,351.0617652100001,None,2022-10-03-09:58:10.691480,351.06229989999974,351.36139079999975,351.06229989999974,None,None,351.06229989999974,None,351.8621783099999,None,,,,22015,0001,2022_Oct_03_0952,localizer,2021.1.3,59.07962219776272,
block_start,scrambled,scrambled013.bmp,,,,,0,213,213,213,,,,,,,,,,,,,,,,,,,,,,,,,,,,,,,,,,,,,,,,,,t,1.7842616999996608,351.86229770000045,None,351.86229770000045,None,2022-10-03-09:58:13.290743,353.6722464000004,353.9788705000001,353.6722464000004,None,None,353.6722464000004,None,354.47929811000006,None,,,,22015,0001,2022_Oct_03_0952,localizer,2021.1.3,59.07962219776272,
block,scrambled,scrambled027.bmp,,,,,0,214,214,214,,,,,,,,,,,,,,,,,,,,,,,,,,,,,,,,,,,,,,,,,,None,,354.47929811000006,None,354.47929811000006,None,2022-10-03-09:58:14.108348,354.4880039999998,354.79449380000005,354.4880039999998,None,y,354.4880039999998,None,355.29573601000004,None,0.10242469999957393,,,22015,0001,2022_Oct_03_0952,localizer,2021.1.3,59.07962219776272,
block,scrambled,scrambled028.bmp,,,,,0,215,215,215,,,,,,,,,,,,,,,,,,,,,,,,,,,,,,,,,,,,,,,,,,None,,355.29573601000004,None,355.29573601000004,None,2022-10-03-09:58:14.926721,355.30464329999995,355.61187710000013,355.30464329999995,None,None,355.30464329999995,None,356.1123240099997,None,,,,22015,0001,2022_Oct_03_0952,localizer,2021.1.3,59.07962219776272,
block,scrambled,scrambled002.bmp,,,,,0,216,216,216,,,,,,,,,,,,,,,,,,,,,,,,,,,,,,,,,,,,,,,,,,None,,356.1123240099997,None,356.1123240099997,None,2022-10-03-09:58:15.742863,356.1126617,356.41216280000026,356.1126617,None,None,356.1126617,None,356.9118102100002,None,,,,22015,0001,2022_Oct_03_0952,localizer,2021.1.3,59.07962219776272,
block,scrambled,scrambled078.bmp,,,,,0,217,217,217,,,,,,,,,,,,,,,,,,,,,,,,,,,,,,,,,,,,,,,,,,None,,356.9118102100002,None,356.9118102100002,None,2022-10-03-09:58:16.543404,356.91310559999965,357.2283008000004,356.91310559999965,356.91310559999965,None,356.91310559999965,356.91310559999965,357.72863021000023,None,,,,22015,0001,2022_Oct_03_0952,localizer,2021.1.3,59.07962219776272,
block,scrambled,scrambled034.bmp,,,,,0,218,218,218,,,,,,,,,,,,,,,,,,,,,,,,,,,,,,,,,,,,,,,,,,None,,357.72863021000023,None,357.72863021000023,None,2022-10-03-09:58:17.358208,357.7382141999997,358.0509599999996,357.7382141999997,None,None,357.7382141999997,None,358.54509060999965,None,,,,22015,0001,2022_Oct_03_0952,localizer,2021.1.3,59.07962219776272,
block,scrambled,scrambled059.bmp,,,,,0,219,219,219,,,,,,,,,,,,,,,,,,,,,,,,,,,,,,,,,,,,,,,,,,None,,358.54509060999965,None,358.54509060999965,None,2022-10-03-09:58:18.174659,358.54566109999996,358.86128069999995,358.54566109999996,None,None,358.54566109999996,None,359.3454085100003,None,,,,22015,0001,2022_Oct_03_0952,localizer,2021.1.3,59.07962219776272,
block,scrambled,scrambled051.bmp,,,,,0,220,220,220,,,,,,,,,,,,,,,,,,,,,,,,,,,,,,,,,,,,,,,,,,None,,359.3454085100003,None,359.3454085100003,None,2022-10-03-09:58:18.977034,359.35734130000037,359.66117289999966,359.35734130000037,359.35734130000037,y,359.35734130000037,359.35734130000037,360.1625062100003,None,0.7141096000004836,,,22015,0001,2022_Oct_03_0952,localizer,2021.1.3,59.07962219776272,
block,scrambled,scrambled039.bmp,,,,,0,221,221,221,,,,,,,,,,,,,,,,,,,,,,,,,,,,,,,,,,,,,,,,,,None,,360.1625062100003,None,360.1625062100003,None,2022-10-03-09:58:19.793258,360.1630860000005,360.4619998999997,360.1630860000005,None,None,360.1630860000005,None,360.96233330999996,None,,,,22015,0001,2022_Oct_03_0952,localizer,2021.1.3,59.07962219776272,
block,scrambled,scrambled008.bmp,,,,,0,222,222,222,,,,,,,,,,,,,,,,,,,,,,,,,,,,,,,,,,,,,,,,,,None,,360.96233330999996,None,360.96233330999996,None,2022-10-03-09:58:20.595082,360.9777756000003,361.2790709000001,360.9777756000003,360.9777756000003,None,360.9777756000003,360.9777756000003,361.7784631100004,None,,,,22015,0001,2022_Oct_03_0952,localizer,2021.1.3,59.07962219776272,
block,scrambled,scrambled071.bmp,,,,,0,223,223,223,,,,,,,,,,,,,,,,,,,,,,,,,,,,,,,,,,,,,,,,,,None,,361.7784631100004,None,361.7784631100004,None,2022-10-03-09:58:21.408051,361.7876188,362.09513590000006,361.7876188,None,None,361.7876188,None,362.5950160100002,None,,,,22015,0001,2022_Oct_03_0952,localizer,2021.1.3,59.07962219776272,
block,scrambled,scrambled076.bmp,,,,,0,224,224,224,,,,,,,,,,,,,,,,,,,,,,,,,,,,,,,,,,,,,,,,,,None,,362.5950160100002,None,362.5950160100002,None,2022-10-03-09:58:22.224653,362.5958068,362.8953225000005,362.5958068,None,None,362.5958068,None,363.39614560999973,None,,,,22015,0001,2022_Oct_03_0952,localizer,2021.1.3,59.07962219776272,
block,scrambled,scrambled086.bmp,,,,,0,225,225,225,,,,,,,,,,,,,,,,,,,,,,,,,,,,,,,,,,,,,,,,,,None,,363.39614560999973,None,363.39614560999973,None,2022-10-03-09:58:23.028559,363.3997277999997,363.71123650000027,363.3997277999997,363.3997277999997,None,363.3997277999997,363.3997277999997,364.2128938099996,None,,,,22015,0001,2022_Oct_03_0952,localizer,2021.1.3,59.07962219776272,
block,scrambled,scrambled040.bmp,,,,,0,226,226,226,,,,,,,,,,,,,,,,,,,,,,,,,,,,,,,,,,,,,,,,,,None,,364.2128938099996,None,364.2128938099996,None,2022-10-03-09:58:23.843661,364.2248536999996,364.52770560000044,364.2248536999996,None,y,364.2248536999996,None,365.02791641000033,None,0.5615573000004588,,,22015,0001,2022_Oct_03_0952,localizer,2021.1.3,59.07962219776272,
block_end,scrambled,scrambled007.bmp,,,,,0,227,227,227,,,,,,,,,,,,,,,,,,,,,,,,,,,,,,,,,,,,,,,,,,None,,365.02791641000033,None,365.02791641000033,None,2022-10-03-09:58:24.656541,365.0359392999999,365.3510967000002,365.0359392999999,None,None,365.0359392999999,None,365.8458361100003,None,,,,22015,0001,2022_Oct_03_0952,localizer,2021.1.3,59.07962219776272,
block_start,scenes,scenes020.bmp,,,,,0,228,228,228,,,,,,,,,,,,,,,,,,,,,,,,,,,,,,,,,,,,,,,,,,t,1.8012571999997817,365.8455213999996,None,365.8455213999996,None,2022-10-03-09:58:27.307409,367.67957209999986,367.9949496999998,367.67957209999986,None,None,367.67957209999986,None,368.47965400999976,None,,,,22015,0001,2022_Oct_03_0952,localizer,2021.1.3,59.07962219776272,
block,scenes,scenes091.bmp,,,,,0,229,229,229,,,,,,,,,,,,,,,,,,,,,,,,,,,,,,,,,,,,,,,,,,None,,368.47965400999976,None,368.47965400999976,None,2022-10-03-09:58:28.115259,368.4969586999996,368.8122370000001,368.4969586999996,368.4969586999996,None,368.4969586999996,368.4969586999996,369.29725360999976,None,,,,22015,0001,2022_Oct_03_0952,localizer,2021.1.3,59.07962219776272,
block,scenes,scenes042.bmp,,,,,0,230,230,230,,,,,,,,,,,,,,,,,,,,,,,,,,,,,,,,,,,,,,,,,,None,,369.29725360999976,None,369.29725360999976,None,2022-10-03-09:58:28.931726,369.3110548000004,369.6115004000003,369.3110548000004,None,None,369.3110548000004,None,370.11237881000045,None,,,,22015,0001,2022_Oct_03_0952,localizer,2021.1.3,59.07962219776272,
block,scenes,scenes029.bmp,,,,,0,231,231,231,,,,,,,,,,,,,,,,,,,,,,,,,,,,,,,,,,,,,,,,,,None,,370.11237881000045,None,370.11237881000045,None,2022-10-03-09:58:29.743016,370.12286120000044,370.42861040000025,370.12286120000044,None,None,370.12286120000044,None,370.9305813100001,None,,,,22015,0001,2022_Oct_03_0952,localizer,2021.1.3,59.07962219776272,
block,scenes,scenes078.bmp,,,,,0,232,232,232,,,,,,,,,,,,,,,,,,,,,,,,,,,,,,,,,,,,,,,,,,None,,370.9305813100001,None,370.9305813100001,None,2022-10-03-09:58:30.565175,370.93547260000014,371.24568629999976,370.93547260000014,None,None,370.93547260000014,None,371.7449439100002,None,,,,22015,0001,2022_Oct_03_0952,localizer,2021.1.3,59.07962219776272,
block,scenes,scenes024.bmp,,,,,0,233,233,233,,,,,,,,,,,,,,,,,,,,,,,,,,,,,,,,,,,,,,,,,,None,,371.7449439100002,None,371.7449439100002,None,2022-10-03-09:58:31.373613,371.74590960000023,372.0452640000003,371.74590960000023,None,None,371.74590960000023,None,372.5467578099998,None,,,,22015,0001,2022_Oct_03_0952,localizer,2021.1.3,59.07962219776272,
block,scenes,scenes080.bmp,,,,,0,234,234,234,,,,,,,,,,,,,,,,,,,,,,,,,,,,,,,,,,,,,,,,,,None,,372.5467578099998,None,372.5467578099998,None,2022-10-03-09:58:32.182435,372.5637823999996,372.8784261999999,372.5637823999996,372.5637823999996,None,372.5637823999996,372.5637823999996,373.36236851000024,None,,,,22015,0001,2022_Oct_03_0952,localizer,2021.1.3,59.07962219776272,
block,scenes,scenes077.bmp,,,,,0,235,235,235,,,,,,,,,,,,,,,,,,,,,,,,,,,,,,,,,,,,,,,,,,None,,373.36236851000024,None,373.36236851000024,None,2022-10-03-09:58:32.992314,373.3706642999996,373.6787991000001,373.3706642999996,None,y,373.3706642999996,None,374.1779802100001,None,0.5677583999995477,,,22015,0001,2022_Oct_03_0952,localizer,2021.1.3,59.07962219776272,
block,scenes,scenes077.bmp,,,,,0,236,236,236,,,,,,,,,,,,,,,,,,,,,,,,,,,,,,,,,,,,,,,,,,None,,374.1779802100001,None,374.1779802100001,None,2022-10-03-09:58:33.806736,374.1792462000003,374.4807106999997,374.1792462000003,None,None,374.1792462000003,None,374.9950591099997,None,,,,22015,0001,2022_Oct_03_0952,localizer,2021.1.3,59.07962219776272,
block,scenes,scenes055.bmp,,,,,0,237,237,237,,,,,,,,,,,,,,,,,,,,,,,,,,,,,,,,,,,,,,,,,,None,,374.9950591099997,None,374.9950591099997,None,2022-10-03-09:58:34.623749,374.9959109000001,375.2952105000004,374.9959109000001,None,None,374.9959109000001,None,375.79577881000034,None,,,,22015,0001,2022_Oct_03_0952,localizer,2021.1.3,59.07962219776272,
block,scenes,scenes071.bmp,,,,,0,238,238,238,,,,,,,,,,,,,,,,,,,,,,,,,,,,,,,,,,,,,,,,,,None,,375.79577881000034,None,375.79577881000034,None,2022-10-03-09:58:35.428453,375.7986308999998,376.11207019999983,375.7986308999998,375.7986308999998,None,375.7986308999998,375.7986308999998,376.61171530999957,None,,,,22015,0001,2022_Oct_03_0952,localizer,2021.1.3,59.07962219776272,
block,scenes,scenes008.bmp,,,,,0,239,239,239,,,,,,,,,,,,,,,,,,,,,,,,,,,,,,,,,,,,,,,,,,None,,376.61171530999957,None,376.61171530999957,None,2022-10-03-09:58:36.241692,376.61239469999964,376.91223340000033,376.61239469999964,None,y,376.61239469999964,None,377.4116700100004,None,0.6909485999995013,,,22015,0001,2022_Oct_03_0952,localizer,2021.1.3,59.07962219776272,
block,scenes,scenes011.bmp,,,,,0,240,240,240,,,,,,,,,,,,,,,,,,,,,,,,,,,,,,,,,,,,,,,,,,None,,377.4116700100004,None,377.4116700100004,None,2022-10-03-09:58:37.042660,377.4127066000001,377.7284188000003,377.4127066000001,377.4127066000001,None,377.4127066000001,377.4127066000001,378.21227330999966,None,,,,22015,0001,2022_Oct_03_0952,localizer,2021.1.3,59.07962219776272,
block,scenes,scenes045.bmp,,,,,0,241,241,241,,,,,,,,,,,,,,,,,,,,,,,,,,,,,,,,,,,,,,,,,,None,,378.21227330999966,None,378.21227330999966,None,2022-10-03-09:58:37.844965,378.21491760000026,378.5192065000001,378.21491760000026,378.21491760000026,None,378.21491760000026,378.21491760000026,379.0290874100002,None,,,,22015,0001,2022_Oct_03_0952,localizer,2021.1.3,59.07962219776272,
block_end,scenes,scenes076.bmp,,,,,0,242,242,242,,,,,,,,,,,,,,,,,,,,,,,,,,,,,,,,,,,,,,,,,,None,,379.0290874100002,None,379.0290874100002,None,2022-10-03-09:58:38.659972,379.04051189999973,379.3455077999997,379.04051189999973,None,None,379.04051189999973,None,379.84599601,None,,,,22015,0001,2022_Oct_03_0952,localizer,2021.1.3,59.07962219776272,
null_block,null_block,null_block.bmp,,,,,0,243,243,243,,,,,,,,,,,,,,,,,,,,,,,,,,,,,,,,,,,,,,,,,,t,1.8011993000000075,379.8454840000004,None,379.8454840000004,None,2022-10-03-09:58:41.290689,381.6620414099999,None,381.6620414099999,None,None,381.6620414099999,None,381.66422520000015,None,,,,22015,0001,2022_Oct_03_0952,localizer,2021.1.3,59.07962219776272,
,,,,,,,,,,,,,,,,,,,,,,,,,,,,,,,,,,,,,,,,,,,,,,,,,,,,,,,,,,,,,,,,,,,,,393.66377720000037,None,,,,,,,
