block_type,condition,img_name,Button.thisRepN,Button.thisTrialN,Button.thisN,Button.thisIndex,trials.thisRepN,trials.thisTrialN,trials.thisN,trials.thisIndex,Ready_experimenter_text.started,Ready_experimenter_text.stopped,Ready_experimenter_resp.keys,Ready_experimenter_resp.rt,Ready_experimenter_resp.started,Ready_experimenter_resp.stopped,Alignment_background.started,Alignment_background.stopped,Alignment_image.started,Alignment_image.stopped,Alignment_resp.keys,Alignment_resp.rt,Alignment_resp.started,Alignment_resp.stopped,Button_text.started,Button_text.stopped,Index_text.started,Index_text.stopped,Index_resp.keys,Index_resp.rt,Index_resp.started,Index_resp.stopped,Middle_text.started,Middle_text.stopped,Middle_resp.keys,Middle_resp.rt,Middle_resp.started,Middle_resp.stopped,Repeat_text.started,Repeat_text.stopped,Repeat_resp.keys,Repeat_resp.corr,Repeat_resp.rt,Repeat_resp.started,Repeat_resp.stopped,instruction_text.started,instruction_text.stopped,key_resp.keys,key_resp.rt,key_resp.started,key_resp.stopped,scanner_t.keys,scanner_t.rt,scanner_t.started,scanner_t.stopped,fixation_wait_for_t.started,fixation_wait_for_t.stopped,real_timestamp_trial_start,image.started,image.stopped,fixation.started,fixation.stopped,repeat_response.keys,repeat_response.started,repeat_response.stopped,fixation_null.started,fixation_null.stopped,repeat_response.rt,end_text.started,end_text.stopped,participant,run,date,expName,psychopyVersion,frameRate,
,,,,,,,,,,,22.67437249980867,None,return,448.95309210009873,22.67437249980867,None,,,,,,,,,,,,,,,,,,,,,,,,,,,,,,,,,,,,,,,,,,,,,,,,,,,,,,,12007,0002,2021_Oct_29_1145,localizer,2021.1.3,61.517337323281296,
,,,,,,,,,,,,,,,,,471.67860839981586,None,471.67860839981586,None,return,3.096203299704939,471.67860839981586,None,,,,,,,,,,,,,,,,,,,,,,,,,,,,,,,,,,,,,,,,,,,,,,,12007,0002,2021_Oct_29_1145,localizer,2021.1.3,61.517337323281296,
,,,0,0,0,0,,,,,,,,,,,,,,,,,,,474.7850619000383,None,475.785439199768,None,y,3.8940960001200438,475.785439199768,None,479.7030205000192,None,b,3.492593899834901,479.7030205000192,None,483.2187723997049,None,n,0,16.900675099808723,483.2187723997049,None,,,,,,,,,,,,,,,,,,,,,,,,,,12007,0002,2021_Oct_29_1145,localizer,2021.1.3,61.517337323281296,
,,,,,,,,,,,,,,,,,,,,,,,,,,,,,,,,,,,,,,,,,,,,,,500.13559910003096,None,y,7.592928799800575,500.13559910003096,None,,,,,,,,,,,,,,,,,,,,12007,0002,2021_Oct_29_1145,localizer,2021.1.3,61.517337323281296,
block_start,scenes,scenes052.bmp,,,,,0,0,0,0,,,,,,,,,,,,,,,,,,,,,,,,,,,,,,,,,,,,,,,,,,t,13.903265299741179,507.78161439998075,None,507.78161439998075,None,2021-10-29-11:53:27.663226,521.714014899917,522.018626799807,521.714014899917,None,None,521.714014899917,None,522.5180301196873,None,,,,12007,0002,2021_Oct_29_1145,localizer,2021.1.3,61.517337323281296,
block,scenes,scenes035.bmp,,,,,0,1,1,1,,,,,,,,,,,,,,,,,,,,,,,,,,,,,,,,,,,,,,,,,,None,,522.5180301196873,None,522.5180301196873,None,2021-10-29-11:53:28.472105,522.5209365999326,522.8352826000191,522.5209365999326,None,None,522.5209365999326,None,523.3346425198018,None,,,,12007,0002,2021_Oct_29_1145,localizer,2021.1.3,61.517337323281296,
block,scenes,scenes021.bmp,,,,,0,2,2,2,,,,,,,,,,,,,,,,,,,,,,,,,,,,,,,,,,,,,,,,,,None,,523.3346425198018,None,523.3346425198018,None,2021-10-29-11:53:29.287731,523.3362801996991,523.6521499999799,523.3362801996991,None,None,523.3362801996991,None,524.151481520012,None,,,,12007,0002,2021_Oct_29_1145,localizer,2021.1.3,61.517337323281296,
block,scenes,scenes017.bmp,,,,,0,3,3,3,,,,,,,,,,,,,,,,,,,,,,,,,,,,,,,,,,,,,,,,,,None,,524.151481520012,None,524.151481520012,None,2021-10-29-11:53:30.104005,524.1522723999806,524.4526484999806,524.1522723999806,None,None,524.1522723999806,None,524.9521066198125,None,,,,12007,0002,2021_Oct_29_1145,localizer,2021.1.3,61.517337323281296,
block,scenes,scenes037.bmp,,,,,0,4,4,4,,,,,,,,,,,,,,,,,,,,,,,,,,,,,,,,,,,,,,,,,,None,,524.9521066198125,None,524.9521066198125,None,2021-10-29-11:53:30.908387,524.9685992999002,525.2687399997376,524.9685992999002,524.9685992999002,None,524.9685992999002,524.9685992999002,525.768052619975,None,,,,12007,0002,2021_Oct_29_1145,localizer,2021.1.3,61.517337323281296,
block,scenes,scenes012.bmp,,,,,0,5,5,5,,,,,,,,,,,,,,,,,,,,,,,,,,,,,,,,,,,,,,,,,,None,,525.768052619975,None,525.768052619975,None,2021-10-29-11:53:31.720164,525.770036299713,526.0853639999405,525.770036299713,None,None,525.770036299713,None,526.5854088199325,None,,,,12007,0002,2021_Oct_29_1145,localizer,2021.1.3,61.517337323281296,
block,scenes,scenes074.bmp,,,,,0,6,6,6,,,,,,,,,,,,,,,,,,,,,,,,,,,,,,,,,,,,,,,,,,None,,526.5854088199325,None,526.5854088199325,None,2021-10-29-11:53:32.540670,526.5986641999334,526.9021010999568,526.5986641999334,None,None,526.5986641999334,None,527.402364619635,None,,,,12007,0002,2021_Oct_29_1145,localizer,2021.1.3,61.517337323281296,
block,scenes,scenes082.bmp,,,,,0,7,7,7,,,,,,,,,,,,,,,,,,,,,,,,,,,,,,,,,,,,,,,,,,None,,527.402364619635,None,527.402364619635,None,2021-10-29-11:53:33.356443,527.4155528997071,527.7185430997051,527.4155528997071,None,None,527.4155528997071,None,528.2185876198113,None,,,,12007,0002,2021_Oct_29_1145,localizer,2021.1.3,61.517337323281296,
block,scenes,scenes038.bmp,,,,,0,8,8,8,,,,,,,,,,,,,,,,,,,,,,,,,,,,,,,,,,,,,,,,,,None,,528.2185876198113,None,528.2185876198113,None,2021-10-29-11:53:34.171705,528.2196538997814,528.5356647996232,528.2196538997814,None,None,528.2196538997814,None,529.0345744198188,None,,,,12007,0002,2021_Oct_29_1145,localizer,2021.1.3,61.517337323281296,
block,scenes,scenes015.bmp,,,,,0,9,9,9,,,,,,,,,,,,,,,,,,,,,,,,,,,,,,,,,,,,,,,,,,None,,529.0345744198188,None,529.0345744198188,None,2021-10-29-11:53:34.987950,529.0361321000382,529.3522797999904,529.0361321000382,None,None,529.0361321000382,None,529.8515848197043,None,,,,12007,0002,2021_Oct_29_1145,localizer,2021.1.3,61.517337323281296,
block,scenes,scenes072.bmp,,,,,0,10,10,10,,,,,,,,,,,,,,,,,,,,,,,,,,,,,,,,,,,,,,,,,,None,,529.8515848197043,None,529.8515848197043,None,2021-10-29-11:53:35.804824,529.8611488998868,530.168817800004,529.8611488998868,None,None,529.8611488998868,None,530.6686327197589,None,,,,12007,0002,2021_Oct_29_1145,localizer,2021.1.3,61.517337323281296,
block,scenes,scenes031.bmp,,,,,0,11,11,11,,,,,,,,,,,,,,,,,,,,,,,,,,,,,,,,,,,,,,,,,,None,,530.6686327197589,None,530.6686327197589,None,2021-10-29-11:53:36.621768,530.669675800018,530.9855657997541,530.669675800018,None,None,530.669675800018,None,531.4850650197826,None,,,,12007,0002,2021_Oct_29_1145,localizer,2021.1.3,61.517337323281296,
block,scenes,scenes047.bmp,,,,,0,12,12,12,,,,,,,,,,,,,,,,,,,,,,,,,,,,,,,,,,,,,,,,,,None,,531.4850650197826,None,531.4850650197826,None,2021-10-29-11:53:37.438210,531.4862233996391,531.8022252996452,531.4862233996391,None,None,531.4862233996391,None,532.2855293197557,None,,,,12007,0002,2021_Oct_29_1145,localizer,2021.1.3,61.517337323281296,
block,scenes,scenes042.bmp,,,,,0,13,13,13,,,,,,,,,,,,,,,,,,,,,,,,,,,,,,,,,,,,,,,,,,None,,532.2855293197557,None,532.2855293197557,None,2021-10-29-11:53:38.241666,532.288744200021,532.6024499996565,532.288744200021,532.288744200021,None,532.288744200021,532.288744200021,533.1013605199754,None,,,,12007,0002,2021_Oct_29_1145,localizer,2021.1.3,61.517337323281296,
block_end,scenes,scenes044.bmp,,,,,0,14,14,14,,,,,,,,,,,,,,,,,,,,,,,,,,,,,,,,,,,,,,,,,,None,,533.1013605199754,None,533.1013605199754,None,2021-10-29-11:53:39.053527,533.110476499889,533.418822299689,533.110476499889,None,None,533.110476499889,None,533.9194810195826,None,,,,12007,0002,2021_Oct_29_1145,localizer,2021.1.3,61.517337323281296,
block_start,objects,objects003.bmp,,,,,0,15,15,15,,,,,,,,,,,,,,,,,,,,,,,,,,,,,,,,,,,,,,,,,,t,1.7646921002306044,533.9197533000261,None,533.9197533000261,None,2021-10-29-11:53:41.653950,535.7030229000375,536.0189441996627,535.7030229000375,None,None,535.7030229000375,None,536.5183830196969,None,,,,12007,0002,2021_Oct_29_1145,localizer,2021.1.3,61.517337323281296,
block,objects,objects082.bmp,,,,,0,16,16,16,,,,,,,,,,,,,,,,,,,,,,,,,,,,,,,,,,,,,,,,,,None,,536.5183830196969,None,536.5183830196969,None,2021-10-29-11:53:42.471567,536.5291273999028,536.8352405000478,536.5291273999028,None,None,536.5291273999028,None,537.3347176197916,None,,,,12007,0002,2021_Oct_29_1145,localizer,2021.1.3,61.517337323281296,
block,objects,objects028.bmp,,,,,0,17,17,17,,,,,,,,,,,,,,,,,,,,,,,,,,,,,,,,,,,,,,,,,,None,,537.3347176197916,None,537.3347176197916,None,2021-10-29-11:53:43.286884,537.3371562999673,537.6521075000055,537.3371562999673,None,None,537.3371562999673,None,538.1518420196138,None,,,,12007,0002,2021_Oct_29_1145,localizer,2021.1.3,61.517337323281296,
block,objects,objects014.bmp,,,,,0,18,18,18,,,,,,,,,,,,,,,,,,,,,,,,,,,,,,,,,,,,,,,,,,None,,538.1518420196138,None,538.1518420196138,None,2021-10-29-11:53:44.105037,538.1620300998911,538.4686885997653,538.1620300998911,None,None,538.1620300998911,None,538.9694547197781,None,,,,12007,0002,2021_Oct_29_1145,localizer,2021.1.3,61.517337323281296,
block,objects,objects070.bmp,,,,,0,19,19,19,,,,,,,,,,,,,,,,,,,,,,,,,,,,,,,,,,,,,,,,,,None,,538.9694547197781,None,538.9694547197781,None,2021-10-29-11:53:44.923811,538.9722508997656,539.2918890998699,538.9722508997656,None,None,538.9722508997656,None,539.7842793200165,None,,,,12007,0002,2021_Oct_29_1145,localizer,2021.1.3,61.517337323281296,
block,objects,objects066.bmp,,,,,0,20,20,20,,,,,,,,,,,,,,,,,,,,,,,,,,,,,,,,,,,,,,,,,,None,,539.7842793200165,None,539.7842793200165,None,2021-10-29-11:53:45.736564,539.7869770997204,540.1022730995901,539.7869770997204,None,None,539.7869770997204,None,540.586069719959,None,,,,12007,0002,2021_Oct_29_1145,localizer,2021.1.3,61.517337323281296,
block,objects,objects029.bmp,,,,,0,21,21,21,,,,,,,,,,,,,,,,,,,,,,,,,,,,,,,,,,,,,,,,,,None,,540.586069719959,None,540.586069719959,None,2021-10-29-11:53:46.542196,540.5904965000227,540.9020799999125,540.5904965000227,540.5904965000227,None,540.5904965000227,540.5904965000227,541.4017412197776,None,,,,12007,0002,2021_Oct_29_1145,localizer,2021.1.3,61.517337323281296,
block,objects,objects020.bmp,,,,,0,22,22,22,,,,,,,,,,,,,,,,,,,,,,,,,,,,,,,,,,,,,,,,,,None,,541.4017412197776,None,541.4017412197776,None,2021-10-29-11:53:47.354963,541.4028965998441,541.7027056999505,541.4028965998441,None,None,541.4028965998441,None,542.2029214199632,None,,,,12007,0002,2021_Oct_29_1145,localizer,2021.1.3,61.517337323281296,
block,objects,objects069.bmp,,,,,0,23,23,23,,,,,,,,,,,,,,,,,,,,,,,,,,,,,,,,,,,,,,,,,,None,,542.2029214199632,None,542.2029214199632,None,2021-10-29-11:53:48.160935,542.2080270997249,542.5186795997433,542.2080270997249,542.2080270997249,None,542.2080270997249,542.2080270997249,543.0194906197488,None,,,,12007,0002,2021_Oct_29_1145,localizer,2021.1.3,61.517337323281296,
block,objects,objects065.bmp,,,,,0,24,24,24,,,,,,,,,,,,,,,,,,,,,,,,,,,,,,,,,,,,,,,,,,None,,543.0194906197488,None,543.0194906197488,None,2021-10-29-11:53:48.974288,543.0226193997078,543.3350279997103,543.0226193997078,None,None,543.0226193997078,None,543.8224110199138,None,,,,12007,0002,2021_Oct_29_1145,localizer,2021.1.3,61.517337323281296,
block,objects,objects065.bmp,,,,,0,25,25,25,,,,,,,,,,,,,,,,,,,,,,,,,,,,,,,,,,,,,,,,,,None,,543.8224110199138,None,543.8224110199138,None,2021-10-29-11:53:49.781605,543.8291809000075,544.1356456000358,543.8291809000075,543.8291809000075,y,543.8291809000075,543.8291809000075,544.6351705199107,None,0.6204340998083353,,,12007,0002,2021_Oct_29_1145,localizer,2021.1.3,61.517337323281296,
block,objects,objects081.bmp,,,,,0,26,26,26,,,,,,,,,,,,,,,,,,,,,,,,,,,,,,,,,,,,,,,,,,None,,544.6351705199107,None,544.6351705199107,None,2021-10-29-11:53:50.589525,544.6465020999312,544.9519038000144,544.6465020999312,None,None,544.6465020999312,None,545.4518082198687,None,,,,12007,0002,2021_Oct_29_1145,localizer,2021.1.3,61.517337323281296,
block,objects,objects036.bmp,,,,,0,27,27,27,,,,,,,,,,,,,,,,,,,,,,,,,,,,,,,,,,,,,,,,,,None,,545.4518082198687,None,545.4518082198687,None,2021-10-29-11:53:51.405792,545.4630845999345,545.7688431995921,545.4630845999345,None,None,545.4630845999345,None,546.2683463199995,None,,,,12007,0002,2021_Oct_29_1145,localizer,2021.1.3,61.517337323281296,
block,objects,objects054.bmp,,,,,0,28,28,28,,,,,,,,,,,,,,,,,,,,,,,,,,,,,,,,,,,,,,,,,,None,,546.2683463199995,None,546.2683463199995,None,2021-10-29-11:53:52.221604,546.2790220999159,546.5851002000272,546.2790220999159,None,None,546.2790220999159,None,547.0850563199259,None,,,,12007,0002,2021_Oct_29_1145,localizer,2021.1.3,61.517337323281296,
block_end,objects,objects009.bmp,,,,,0,29,29,29,,,,,,,,,,,,,,,,,,,,,,,,,,,,,,,,,,,,,,,,,,None,,547.0850563199259,None,547.0850563199259,None,2021-10-29-11:53:53.038321,547.0862495000474,547.4021965996362,547.0862495000474,None,None,547.0862495000474,None,547.8852858199738,None,,,,12007,0002,2021_Oct_29_1145,localizer,2021.1.3,61.517337323281296,
null_block,null_block,null_block.bmp,,,,,0,30,30,30,,,,,,,,,,,,,,,,,,,,,,,,,,,,,,,,,,,,,,,,,,t,1.7977506997995079,547.8856254997663,None,547.8856254997663,None,2021-10-29-11:53:55.657247,549.7029809198342,None,549.7029809198342,None,None,549.7029809198342,None,549.7109236000106,None,,,,12007,0002,2021_Oct_29_1145,localizer,2021.1.3,61.517337323281296,
block_start,scrambled,scrambled006.bmp,,,,,0,31,31,31,,,,,,,,,,,,,,,,,,,,,,,,,,,,,,,,,,,,,,,,,,t,1.9650163003243506,561.7182946996763,None,561.7182946996763,None,2021-10-29-11:54:09.655644,563.7129265996628,564.019012299832,563.7129265996628,None,None,563.7129265996628,None,564.5188118197024,None,,,,12007,0002,2021_Oct_29_1145,localizer,2021.1.3,61.517337323281296,
block,scrambled,scrambled087.bmp,,,,,0,32,32,32,,,,,,,,,,,,,,,,,,,,,,,,,,,,,,,,,,,,,,,,,,None,,564.5188118197024,None,564.5188118197024,None,2021-10-29-11:54:10.472430,564.5300785000436,564.8351521999575,564.5300785000436,None,None,564.5300785000436,None,565.3346610195935,None,,,,12007,0002,2021_Oct_29_1145,localizer,2021.1.3,61.517337323281296,
block,scrambled,scrambled069.bmp,,,,,0,33,33,33,,,,,,,,,,,,,,,,,,,,,,,,,,,,,,,,,,,,,,,,,,None,,565.3346610195935,None,565.3346610195935,None,2021-10-29-11:54:11.287258,565.336409999989,565.6522706998512,565.336409999989,None,None,565.336409999989,None,566.1516106199473,None,,,,12007,0002,2021_Oct_29_1145,localizer,2021.1.3,61.517337323281296,
block,scrambled,scrambled044.bmp,,,,,0,34,34,34,,,,,,,,,,,,,,,,,,,,,,,,,,,,,,,,,,,,,,,,,,None,,566.1516106199473,None,566.1516106199473,None,2021-10-29-11:54:12.105028,566.1529810996726,566.4685706999153,566.1529810996726,None,None,566.1529810996726,None,566.9685282195918,None,,,,12007,0002,2021_Oct_29_1145,localizer,2021.1.3,61.517337323281296,
block,scrambled,scrambled002.bmp,,,,,0,35,35,35,,,,,,,,,,,,,,,,,,,,,,,,,,,,,,,,,,,,,,,,,,None,,566.9685282195918,None,566.9685282195918,None,2021-10-29-11:54:12.921969,566.9810041999444,567.285389199853,566.9810041999444,None,None,566.9810041999444,None,567.7853314197622,None,,,,12007,0002,2021_Oct_29_1145,localizer,2021.1.3,61.517337323281296,
block,scrambled,scrambled041.bmp,,,,,0,36,36,36,,,,,,,,,,,,,,,,,,,,,,,,,,,,,,,,,,,,,,,,,,None,,567.7853314197622,None,567.7853314197622,None,2021-10-29-11:54:13.738754,567.7864040997811,568.1024122997187,567.7864040997811,None,None,567.7864040997811,None,568.6019354198128,None,,,,12007,0002,2021_Oct_29_1145,localizer,2021.1.3,61.517337323281296,
block,scrambled,scrambled038.bmp,,,,,0,37,37,37,,,,,,,,,,,,,,,,,,,,,,,,,,,,,,,,,,,,,,,,,,None,,568.6019354198128,None,568.6019354198128,None,2021-10-29-11:54:14.555576,568.6140986997634,568.919434600044,568.6140986997634,None,None,568.6140986997634,None,569.4182889197021,None,,,,12007,0002,2021_Oct_29_1145,localizer,2021.1.3,61.517337323281296,
block,scrambled,scrambled059.bmp,,,,,0,38,38,38,,,,,,,,,,,,,,,,,,,,,,,,,,,,,,,,,,,,,,,,,,None,,569.4182889197021,None,569.4182889197021,None,2021-10-29-11:54:15.371732,569.4270687997341,569.7353232000023,569.4270687997341,None,None,569.4270687997341,None,570.2351809196174,None,,,,12007,0002,2021_Oct_29_1145,localizer,2021.1.3,61.517337323281296,
block,scrambled,scrambled012.bmp,,,,,0,39,39,39,,,,,,,,,,,,,,,,,,,,,,,,,,,,,,,,,,,,,,,,,,None,,570.2351809196174,None,570.2351809196174,None,2021-10-29-11:54:16.188625,570.2457101000473,570.5520581998862,570.2457101000473,None,None,570.2457101000473,None,571.0519166198559,None,,,,12007,0002,2021_Oct_29_1145,localizer,2021.1.3,61.517337323281296,
block,scrambled,scrambled023.bmp,,,,,0,40,40,40,,,,,,,,,,,,,,,,,,,,,,,,,,,,,,,,,,,,,,,,,,None,,571.0519166198559,None,571.0519166198559,None,2021-10-29-11:54:17.005551,571.0632310998626,571.3686855998822,571.0632310998626,None,None,571.0632310998626,None,571.8583764197305,None,,,,12007,0002,2021_Oct_29_1145,localizer,2021.1.3,61.517337323281296,
block,scrambled,scrambled003.bmp,,,,,0,41,41,41,,,,,,,,,,,,,,,,,,,,,,,,,,,,,,,,,,,,,,,,,,None,,571.8583764197305,None,571.8583764197305,None,2021-10-29-11:54:17.819704,571.8753288998269,572.1856835000217,571.8753288998269,None,None,571.8753288998269,None,572.6685756199062,None,,,,12007,0002,2021_Oct_29_1145,localizer,2021.1.3,61.517337323281296,
block,scrambled,scrambled029.bmp,,,,,0,42,42,42,,,,,,,,,,,,,,,,,,,,,,,,,,,,,,,,,,,,,,,,,,None,,572.6685756199062,None,572.6685756199062,None,2021-10-29-11:54:18.622250,572.6696782996878,572.9855853999034,572.6696782996878,None,None,572.6696782996878,None,573.4696119200438,None,,,,12007,0002,2021_Oct_29_1145,localizer,2021.1.3,61.517337323281296,
block,scrambled,scrambled053.bmp,,,,,0,43,43,43,,,,,,,,,,,,,,,,,,,,,,,,,,,,,,,,,,,,,,,,,,None,,573.4696119200438,None,573.4696119200438,None,2021-10-29-11:54:19.427243,573.4742951998487,573.7867787997238,573.4742951998487,573.4742951998487,None,573.4742951998487,573.4742951998487,574.2852284196764,None,,,,12007,0002,2021_Oct_29_1145,localizer,2021.1.3,61.517337323281296,
block,scrambled,scrambled010.bmp,,,,,0,44,44,44,,,,,,,,,,,,,,,,,,,,,,,,,,,,,,,,,,,,,,,,,,None,,574.2852284196764,None,574.2852284196764,None,2021-10-29-11:54:20.238682,574.2975449999794,574.6028358000331,574.2975449999794,None,None,574.2975449999794,None,575.1022813200019,None,,,,12007,0002,2021_Oct_29_1145,localizer,2021.1.3,61.517337323281296,
block_end,scrambled,scrambled017.bmp,,,,,0,45,45,45,,,,,,,,,,,,,,,,,,,,,,,,,,,,,,,,,,,,,,,,,,None,,575.1022813200019,None,575.1022813200019,None,2021-10-29-11:54:21.056750,575.1034474000335,575.4188138996251,575.1034474000335,None,None,575.1034474000335,None,575.918635419663,None,,,,12007,0002,2021_Oct_29_1145,localizer,2021.1.3,61.517337323281296,
block_start,faces,faces015.bmp,,,,,0,46,46,46,,,,,,,,,,,,,,,,,,,,,,,,,,,,,,,,,,,,,,,,,,t,1.764311300124973,575.9190253997222,None,575.9190253997222,None,2021-10-29-11:54:23.655806,577.7174664000049,578.0188185996376,577.7174664000049,None,None,577.7174664000049,None,578.5184965199791,None,,,,12007,0002,2021_Oct_29_1145,localizer,2021.1.3,61.517337323281296,
block,faces,faces002.bmp,,,,,0,47,47,47,,,,,,,,,,,,,,,,,,,,,,,,,,,,,,,,,,,,,,,,,,None,,578.5184965199791,None,578.5184965199791,None,2021-10-29-11:54:24.472006,578.5312848999165,578.8352596997283,578.5312848999165,None,None,578.5312848999165,None,579.3349554199725,None,,,,12007,0002,2021_Oct_29_1145,localizer,2021.1.3,61.517337323281296,
block,faces,faces033.bmp,,,,,0,48,48,48,,,,,,,,,,,,,,,,,,,,,,,,,,,,,,,,,,,,,,,,,,None,,579.3349554199725,None,579.3349554199725,None,2021-10-29-11:54:25.288638,579.3516126000322,579.6520698997192,579.3516126000322,None,None,579.3516126000322,None,580.151553219743,None,,,,12007,0002,2021_Oct_29_1145,localizer,2021.1.3,61.517337323281296,
block,faces,faces030.bmp,,,,,0,49,49,49,,,,,,,,,,,,,,,,,,,,,,,,,,,,,,,,,,,,,,,,,,None,,580.151553219743,None,580.151553219743,None,2021-10-29-11:54:26.105081,580.1631120997481,580.4689570995979,580.1631120997481,None,None,580.1631120997481,None,580.9685821198858,None,,,,12007,0002,2021_Oct_29_1145,localizer,2021.1.3,61.517337323281296,
block,faces,faces050.bmp,,,,,0,50,50,50,,,,,,,,,,,,,,,,,,,,,,,,,,,,,,,,,,,,,,,,,,None,,580.9685821198858,None,580.9685821198858,None,2021-10-29-11:54:26.922108,580.9801301998086,581.2856753999367,580.9801301998086,None,None,580.9801301998086,None,581.7749633198604,None,,,,12007,0002,2021_Oct_29_1145,localizer,2021.1.3,61.517337323281296,
block,faces,faces076.bmp,,,,,0,51,51,51,,,,,,,,,,,,,,,,,,,,,,,,,,,,,,,,,,,,,,,,,,None,,581.7749633198604,None,581.7749633198604,None,2021-10-29-11:54:27.736282,581.7850482999347,582.0862816995941,581.7850482999347,None,None,581.7850482999347,None,582.585640219599,None,,,,12007,0002,2021_Oct_29_1145,localizer,2021.1.3,61.517337323281296,
block,faces,faces036.bmp,,,,,0,52,52,52,,,,,,,,,,,,,,,,,,,,,,,,,,,,,,,,,,,,,,,,,,None,,582.585640219599,None,582.585640219599,None,2021-10-29-11:54:28.540382,582.5978818996809,582.901950399857,582.5978818996809,None,None,582.5978818996809,None,583.4025611198507,None,,,,12007,0002,2021_Oct_29_1145,localizer,2021.1.3,61.517337323281296,
block,faces,faces089.bmp,,,,,0,53,53,53,,,,,,,,,,,,,,,,,,,,,,,,,,,,,,,,,,,,,,,,,,None,,583.4025611198507,None,583.4025611198507,None,2021-10-29-11:54:29.357237,583.4035481000319,583.7190020997077,583.4035481000319,None,None,583.4035481000319,None,584.218768419791,None,,,,12007,0002,2021_Oct_29_1145,localizer,2021.1.3,61.517337323281296,
block,faces,faces021.bmp,,,,,0,54,54,54,,,,,,,,,,,,,,,,,,,,,,,,,,,,,,,,,,,,,,,,,,None,,584.218768419791,None,584.218768419791,None,2021-10-29-11:54:30.172271,584.2198640997522,584.5195991997607,584.2198640997522,None,None,584.2198640997522,None,585.019710620027,None,,,,12007,0002,2021_Oct_29_1145,localizer,2021.1.3,61.517337323281296,
block,faces,faces024.bmp,,,,,0,55,55,55,,,,,,,,,,,,,,,,,,,,,,,,,,,,,,,,,,,,,,,,,,None,,585.019710620027,None,585.019710620027,None,2021-10-29-11:54:30.978215,585.0253836996853,585.3420382998884,585.0253836996853,585.0253836996853,None,585.0253836996853,585.0253836996853,585.8348207199946,None,,,,12007,0002,2021_Oct_29_1145,localizer,2021.1.3,61.517337323281296,
block,faces,faces044.bmp,,,,,0,56,56,56,,,,,,,,,,,,,,,,,,,,,,,,,,,,,,,,,,,,,,,,,,None,,585.8348207199946,None,585.8348207199946,None,2021-10-29-11:54:31.788693,585.8445599996485,586.1522674998268,585.8445599996485,None,None,585.8445599996485,None,586.652072319854,None,,,,12007,0002,2021_Oct_29_1145,localizer,2021.1.3,61.517337323281296,
block,faces,faces077.bmp,,,,,0,57,57,57,,,,,,,,,,,,,,,,,,,,,,,,,,,,,,,,,,,,,,,,,,None,,586.652072319854,None,586.652072319854,None,2021-10-29-11:54:32.605611,586.6648887000047,586.9696818999946,586.6648887000047,None,None,586.6648887000047,None,587.4685456199571,None,,,,12007,0002,2021_Oct_29_1145,localizer,2021.1.3,61.517337323281296,
block,faces,faces022.bmp,,,,,0,58,58,58,,,,,,,,,,,,,,,,,,,,,,,,,,,,,,,,,,,,,,,,,,None,,587.4685456199571,None,587.4685456199571,None,2021-10-29-11:54:33.422372,587.4811660000123,587.7856026999652,587.4811660000123,None,None,587.4811660000123,None,588.2853864199482,None,,,,12007,0002,2021_Oct_29_1145,localizer,2021.1.3,61.517337323281296,
block,faces,faces052.bmp,,,,,0,59,59,59,,,,,,,,,,,,,,,,,,,,,,,,,,,,,,,,,,,,,,,,,,None,,588.2853864199482,None,588.2853864199482,None,2021-10-29-11:54:34.238935,588.2864846000448,588.6021777000278,588.2864846000448,None,None,588.2864846000448,None,589.1019601198844,None,,,,12007,0002,2021_Oct_29_1145,localizer,2021.1.3,61.517337323281296,
block_end,faces,faces039.bmp,,,,,0,60,60,60,,,,,,,,,,,,,,,,,,,,,,,,,,,,,,,,,,,,,,,,,,None,,589.1019601198844,None,589.1019601198844,None,2021-10-29-11:54:35.055549,589.1031267996877,589.4186841999181,589.1031267996877,None,None,589.1031267996877,None,589.9183384199627,None,,,,12007,0002,2021_Oct_29_1145,localizer,2021.1.3,61.517337323281296,
block_start,objects,objects078.bmp,,,,,0,61,61,61,,,,,,,,,,,,,,,,,,,,,,,,,,,,,,,,,,,,,,,,,,t,1.7647983999922872,589.9185464000329,None,589.9185464000329,None,2021-10-29-11:54:37.653879,591.7119261999615,592.0190288997255,591.7119261999615,None,None,591.7119261999615,None,592.5185338199138,None,,,,12007,0002,2021_Oct_29_1145,localizer,2021.1.3,61.517337323281296,
block,objects,objects073.bmp,,,,,0,62,62,62,,,,,,,,,,,,,,,,,,,,,,,,,,,,,,,,,,,,,,,,,,None,,592.5185338199138,None,592.5185338199138,None,2021-10-29-11:54:38.472389,592.5197175997309,592.8255096999928,592.5197175997309,None,None,592.5197175997309,None,593.3348933198489,None,,,,12007,0002,2021_Oct_29_1145,localizer,2021.1.3,61.517337323281296,
block,objects,objects080.bmp,,,,,0,63,63,63,,,,,,,,,,,,,,,,,,,,,,,,,,,,,,,,,,,,,,,,,,None,,593.3348933198489,None,593.3348933198489,None,2021-10-29-11:54:39.288870,593.3445580997504,593.6522131999955,593.3445580997504,None,None,593.3445580997504,None,594.1524336199276,None,,,,12007,0002,2021_Oct_29_1145,localizer,2021.1.3,61.517337323281296,
block,objects,objects064.bmp,,,,,0,64,64,64,,,,,,,,,,,,,,,,,,,,,,,,,,,,,,,,,,,,,,,,,,None,,594.1524336199276,None,594.1524336199276,None,2021-10-29-11:54:40.107193,594.153714499902,594.4687387999147,594.153714499902,None,None,594.153714499902,None,594.9530681200325,None,,,,12007,0002,2021_Oct_29_1145,localizer,2021.1.3,61.517337323281296,
block,objects,objects034.bmp,,,,,0,65,65,65,,,,,,,,,,,,,,,,,,,,,,,,,,,,,,,,,,,,,,,,,,None,,594.9530681200325,None,594.9530681200325,None,2021-10-29-11:54:40.910822,594.9573907000013,595.2689713998698,594.9573907000013,594.9573907000013,None,594.9573907000013,594.9573907000013,595.7687743199989,None,,,,12007,0002,2021_Oct_29_1145,localizer,2021.1.3,61.517337323281296,
block,objects,objects070.bmp,,,,,0,66,66,66,,,,,,,,,,,,,,,,,,,,,,,,,,,,,,,,,,,,,,,,,,None,,595.7687743199989,None,595.7687743199989,None,2021-10-29-11:54:41.722697,595.7700136997737,596.08597679995,595.7700136997737,None,None,595.7700136997737,None,596.5692233197391,None,,,,12007,0002,2021_Oct_29_1145,localizer,2021.1.3,61.517337323281296,
block,objects,objects039.bmp,,,,,0,67,67,67,,,,,,,,,,,,,,,,,,,,,,,,,,,,,,,,,,,,,,,,,,None,,596.5692233197391,None,596.5692233197391,None,2021-10-29-11:54:42.526040,596.5728811998852,596.8863442000002,596.5728811998852,596.5728811998852,None,596.5728811998852,596.5728811998852,597.3850017200224,None,,,,12007,0002,2021_Oct_29_1145,localizer,2021.1.3,61.517337323281296,
block,objects,objects044.bmp,,,,,0,68,68,68,,,,,,,,,,,,,,,,,,,,,,,,,,,,,,,,,,,,,,,,,,None,,597.3850017200224,None,597.3850017200224,None,2021-10-29-11:54:43.337663,597.3867063997313,597.7021006997675,597.3867063997313,None,None,597.3867063997313,None,598.2020187197253,None,,,,12007,0002,2021_Oct_29_1145,localizer,2021.1.3,61.517337323281296,
block,objects,objects060.bmp,,,,,0,69,69,69,,,,,,,,,,,,,,,,,,,,,,,,,,,,,,,,,,,,,,,,,,None,,598.2020187197253,None,598.2020187197253,None,2021-10-29-11:54:44.155676,598.2032519998029,598.5188033999875,598.2032519998029,None,None,598.2032519998029,None,599.0188008198514,None,,,,12007,0002,2021_Oct_29_1145,localizer,2021.1.3,61.517337323281296,
block,objects,objects043.bmp,,,,,0,70,70,70,,,,,,,,,,,,,,,,,,,,,,,,,,,,,,,,,,,,,,,,,,None,,599.0188008198514,None,599.0188008198514,None,2021-10-29-11:54:44.972463,599.0198293998837,599.3359357998706,599.0198293998837,None,None,599.0198293998837,None,599.8350458197295,None,,,,12007,0002,2021_Oct_29_1145,localizer,2021.1.3,61.517337323281296,
block,objects,objects042.bmp,,,,,0,71,71,71,,,,,,,,,,,,,,,,,,,,,,,,,,,,,,,,,,,,,,,,,,None,,599.8350458197295,None,599.8350458197295,None,2021-10-29-11:54:45.788865,599.8445764998905,600.1521168998443,599.8445764998905,None,None,599.8445764998905,None,600.6519825198687,None,,,,12007,0002,2021_Oct_29_1145,localizer,2021.1.3,61.517337323281296,
block,objects,objects029.bmp,,,,,0,72,72,72,,,,,,,,,,,,,,,,,,,,,,,,,,,,,,,,,,,,,,,,,,None,,600.6519825198687,None,600.6519825198687,None,2021-10-29-11:54:46.605661,600.6533410996199,600.9589444999583,600.6533410996199,None,None,600.6533410996199,None,601.4689267199486,None,,,,12007,0002,2021_Oct_29_1145,localizer,2021.1.3,61.517337323281296,
block,objects,objects058.bmp,,,,,0,73,73,73,,,,,,,,,,,,,,,,,,,,,,,,,,,,,,,,,,,,,,,,,,None,,601.4689267199486,None,601.4689267199486,None,2021-10-29-11:54:47.422698,601.4700773996301,601.7859636000358,601.4700773996301,None,None,601.4700773996301,None,602.2852638197131,None,,,,12007,0002,2021_Oct_29_1145,localizer,2021.1.3,61.517337323281296,
block,objects,objects077.bmp,,,,,0,74,74,74,,,,,,,,,,,,,,,,,,,,,,,,,,,,,,,,,,,,,,,,,,None,,602.2852638197131,None,602.2852638197131,None,2021-10-29-11:54:48.238957,602.2953076995909,602.6021117996424,602.2953076995909,None,None,602.2953076995909,None,603.1018525199964,None,,,,12007,0002,2021_Oct_29_1145,localizer,2021.1.3,61.517337323281296,
block_end,objects,objects021.bmp,,,,,0,75,75,75,,,,,,,,,,,,,,,,,,,,,,,,,,,,,,,,,,,,,,,,,,None,,603.1018525199964,None,603.1018525199964,None,2021-10-29-11:54:49.055556,603.1118294997141,603.4189610998146,603.1118294997141,None,None,603.1118294997141,None,603.9188012197613,None,,,,12007,0002,2021_Oct_29_1145,localizer,2021.1.3,61.517337323281296,
block_start,faces,faces072.bmp,,,,,0,76,76,76,,,,,,,,,,,,,,,,,,,,,,,,,,,,,,,,,,,,,,,,,,t,1.7643352001905441,603.9189640996046,None,603.9189640996046,None,2021-10-29-11:54:51.653996,605.7033853996545,606.0190104995854,605.7033853996545,None,None,605.7033853996545,None,606.5186661198735,None,,,,12007,0002,2021_Oct_29_1145,localizer,2021.1.3,61.517337323281296,
block,faces,faces019.bmp,,,,,0,77,77,77,,,,,,,,,,,,,,,,,,,,,,,,,,,,,,,,,,,,,,,,,,None,,606.5186661198735,None,606.5186661198735,None,2021-10-29-11:54:52.472388,606.5200298000127,606.8252662997693,606.5200298000127,None,None,606.5200298000127,None,607.341607019864,None,,,,12007,0002,2021_Oct_29_1145,localizer,2021.1.3,61.517337323281296,
block,faces,faces083.bmp,,,,,0,78,78,78,,,,,,,,,,,,,,,,,,,,,,,,,,,,,,,,,,,,,,,,,,None,,607.341607019864,None,607.341607019864,None,2021-10-29-11:54:53.304036,607.372205299791,607.6864440999925,607.372205299791,None,None,607.372205299791,None,608.1527118199505,None,,,,12007,0002,2021_Oct_29_1145,localizer,2021.1.3,61.517337323281296,
block,faces,faces031.bmp,,,,,0,79,79,79,,,,,,,,,,,,,,,,,,,,,,,,,,,,,,,,,,,,,,,,,,None,,608.1527118199505,None,608.1527118199505,None,2021-10-29-11:54:54.107437,608.1538680000231,608.4689501998946,608.1538680000231,None,None,608.1538680000231,None,608.968690219894,None,,,,12007,0002,2021_Oct_29_1145,localizer,2021.1.3,61.517337323281296,
block,faces,faces059.bmp,,,,,0,80,80,80,,,,,,,,,,,,,,,,,,,,,,,,,,,,,,,,,,,,,,,,,,None,,608.968690219894,None,608.968690219894,None,2021-10-29-11:54:54.922432,608.9698886997066,609.2855577999726,608.9698886997066,None,None,608.9698886997066,None,609.785374919977,None,,,,12007,0002,2021_Oct_29_1145,localizer,2021.1.3,61.517337323281296,
block,faces,faces067.bmp,,,,,0,81,81,81,,,,,,,,,,,,,,,,,,,,,,,,,,,,,,,,,,,,,,,,,,None,,609.785374919977,None,609.785374919977,None,2021-10-29-11:54:55.739829,609.7978904996999,610.1028668000363,609.7978904996999,None,None,609.7978904996999,None,610.6020443198271,None,,,,12007,0002,2021_Oct_29_1145,localizer,2021.1.3,61.517337323281296,
block,faces,faces085.bmp,,,,,0,82,82,82,,,,,,,,,,,,,,,,,,,,,,,,,,,,,,,,,,,,,,,,,,None,,610.6020443198271,None,610.6020443198271,None,2021-10-29-11:54:56.556291,610.612522599753,610.9189094998874,610.612522599753,None,None,610.612522599753,None,611.419180519972,None,,,,12007,0002,2021_Oct_29_1145,localizer,2021.1.3,61.517337323281296,
block,faces,faces011.bmp,,,,,0,83,83,83,,,,,,,,,,,,,,,,,,,,,,,,,,,,,,,,,,,,,,,,,,None,,611.419180519972,None,611.419180519972,None,2021-10-29-11:54:57.374129,611.4206762998365,611.7357843997888,611.4206762998365,None,None,611.4206762998365,None,612.2199784196913,None,,,,12007,0002,2021_Oct_29_1145,localizer,2021.1.3,61.517337323281296,
block,faces,faces036.bmp,,,,,0,84,84,84,,,,,,,,,,,,,,,,,,,,,,,,,,,,,,,,,,,,,,,,,,None,,612.2199784196913,None,612.2199784196913,None,2021-10-29-11:54:58.178696,612.2266847998835,612.5355473998934,612.2266847998835,612.2266847998835,None,612.2266847998835,612.2266847998835,613.0353341196663,None,,,,12007,0002,2021_Oct_29_1145,localizer,2021.1.3,61.517337323281296,
block,faces,faces007.bmp,,,,,0,85,85,85,,,,,,,,,,,,,,,,,,,,,,,,,,,,,,,,,,,,,,,,,,None,,613.0353341196663,None,613.0353341196663,None,2021-10-29-11:54:58.989109,613.0462821000256,613.352424599696,613.0462821000256,None,None,613.0462821000256,None,613.8524089200422,None,,,,12007,0002,2021_Oct_29_1145,localizer,2021.1.3,61.517337323281296,
block,faces,faces054.bmp,,,,,0,86,86,86,,,,,,,,,,,,,,,,,,,,,,,,,,,,,,,,,,,,,,,,,,None,,613.8524089200422,None,613.8524089200422,None,2021-10-29-11:54:59.807278,613.8646768997423,614.169044399634,613.8646768997423,None,None,613.8646768997423,None,614.6686521196738,None,,,,12007,0002,2021_Oct_29_1145,localizer,2021.1.3,61.517337323281296,
block,faces,faces004.bmp,,,,,0,87,87,87,,,,,,,,,,,,,,,,,,,,,,,,,,,,,,,,,,,,,,,,,,None,,614.6686521196738,None,614.6686521196738,None,2021-10-29-11:55:00.622434,614.6877894997597,615.0023743999191,614.6877894997597,None,None,614.6877894997597,None,615.4860319198109,None,,,,12007,0002,2021_Oct_29_1145,localizer,2021.1.3,61.517337323281296,
block,faces,faces086.bmp,,,,,0,88,88,88,,,,,,,,,,,,,,,,,,,,,,,,,,,,,,,,,,,,,,,,,,None,,615.4860319198109,None,615.4860319198109,None,2021-10-29-11:55:01.440810,615.4872555998154,615.8030773997307,615.4872555998154,None,None,615.4872555998154,None,616.3026292199269,None,,,,12007,0002,2021_Oct_29_1145,localizer,2021.1.3,61.517337323281296,
block,faces,faces069.bmp,,,,,0,89,89,89,,,,,,,,,,,,,,,,,,,,,,,,,,,,,,,,,,,,,,,,,,None,,616.3026292199269,None,616.3026292199269,None,2021-10-29-11:55:02.257432,616.3039298998192,616.6190600995906,616.3039298998192,None,y,616.3039298998192,None,617.1032183199189,None,0.718030699994415,,,12007,0002,2021_Oct_29_1145,localizer,2021.1.3,61.517337323281296,
block_end,faces,faces027.bmp,,,,,0,90,90,90,,,,,,,,,,,,,,,,,,,,,,,,,,,,,,,,,,,,,,,,,,None,,617.1032183199189,None,617.1032183199189,None,2021-10-29-11:55:03.060140,617.107875699643,617.4188419999555,617.107875699643,617.107875699643,None,617.107875699643,617.107875699643,617.9187548198737,None,,,,12007,0002,2021_Oct_29_1145,localizer,2021.1.3,61.517337323281296,
null_block,null_block,null_block.bmp,,,,,0,91,91,91,,,,,,,,,,,,,,,,,,,,,,,,,,,,,,,,,,,,,,,,,,t,1.7642831997945905,617.9189994996414,None,617.9189994996414,None,2021-10-29-11:55:05.655696,619.7018729197792,None,619.7018729197792,None,None,619.7018729197792,None,619.7046856996603,None,,,,12007,0002,2021_Oct_29_1145,localizer,2021.1.3,61.517337323281296,
block_start,scrambled,scrambled044.bmp,,,,,0,92,92,92,,,,,,,,,,,,,,,,,,,,,,,,,,,,,,,,,,,,,,,,,,t,1.9637246001511812,631.7195196999237,None,631.7195196999237,None,2021-10-29-11:55:19.658343,633.7054884997196,634.0192207000218,633.7054884997196,None,None,633.7054884997196,None,634.5193059198558,None,,,,12007,0002,2021_Oct_29_1145,localizer,2021.1.3,61.517337323281296,
block,scrambled,scrambled076.bmp,,,,,0,93,93,93,,,,,,,,,,,,,,,,,,,,,,,,,,,,,,,,,,,,,,,,,,None,,634.5193059198558,None,634.5193059198558,None,2021-10-29-11:55:20.474338,634.5204693996347,634.8364818999544,634.5204693996347,None,None,634.5204693996347,None,635.3195475196466,None,,,,12007,0002,2021_Oct_29_1145,localizer,2021.1.3,61.517337323281296,
block,scrambled,scrambled067.bmp,,,,,0,94,94,94,,,,,,,,,,,,,,,,,,,,,,,,,,,,,,,,,,,,,,,,,,None,,635.3195475196466,None,635.3195475196466,None,2021-10-29-11:55:21.282612,635.3404091997072,635.6522935996763,635.3404091997072,635.3404091997072,None,635.3404091997072,635.3404091997072,636.135774019733,None,,,,12007,0002,2021_Oct_29_1145,localizer,2021.1.3,61.517337323281296,
block,scrambled,scrambled003.bmp,,,,,0,95,95,95,,,,,,,,,,,,,,,,,,,,,,,,,,,,,,,,,,,,,,,,,,None,,636.135774019733,None,636.135774019733,None,2021-10-29-11:55:22.089877,636.1368177998811,636.4525656998158,636.1368177998811,None,None,636.1368177998811,None,636.9359932198189,None,,,,12007,0002,2021_Oct_29_1145,localizer,2021.1.3,61.517337323281296,
block,scrambled,scrambled063.bmp,,,,,0,96,96,96,,,,,,,,,,,,,,,,,,,,,,,,,,,,,,,,,,,,,,,,,,None,,636.9359932198189,None,636.9359932198189,None,2021-10-29-11:55:22.892877,636.9498271998018,637.2525698998943,636.9498271998018,636.9498271998018,None,636.9498271998018,636.9498271998018,637.752556919679,None,,,,12007,0002,2021_Oct_29_1145,localizer,2021.1.3,61.517337323281296,
block,scrambled,scrambled010.bmp,,,,,0,97,97,97,,,,,,,,,,,,,,,,,,,,,,,,,,,,,,,,,,,,,,,,,,None,,637.752556919679,None,637.752556919679,None,2021-10-29-11:55:23.706458,637.7536459998228,638.0692987996154,637.7536459998228,None,None,637.7536459998228,None,638.5527557196095,None,,,,12007,0002,2021_Oct_29_1145,localizer,2021.1.3,61.517337323281296,
block,scrambled,scrambled016.bmp,,,,,0,98,98,98,,,,,,,,,,,,,,,,,,,,,,,,,,,,,,,,,,,,,,,,,,None,,638.5527557196095,None,638.5527557196095,None,2021-10-29-11:55:24.509707,638.5647817999125,638.8689715997316,638.5647817999125,638.5647817999125,None,638.5647817999125,638.5647817999125,639.3717697198502,None,,,,12007,0002,2021_Oct_29_1145,localizer,2021.1.3,61.517337323281296,
block,scrambled,scrambled058.bmp,,,,,0,99,99,99,,,,,,,,,,,,,,,,,,,,,,,,,,,,,,,,,,,,,,,,,,None,,639.3717697198502,None,639.3717697198502,None,2021-10-29-11:55:25.326660,639.37223359989,639.6858275998384,639.37223359989,None,None,639.37223359989,None,640.1867234200239,None,,,,12007,0002,2021_Oct_29_1145,localizer,2021.1.3,61.517337323281296,
block,scrambled,scrambled080.bmp,,,,,0,100,100,100,,,,,,,,,,,,,,,,,,,,,,,,,,,,,,,,,,,,,,,,,,None,,640.1867234200239,None,640.1867234200239,None,2021-10-29-11:55:26.142743,640.1894940999337,640.5031753997318,640.1894940999337,None,None,640.1894940999337,None,641.001820719894,None,,,,12007,0002,2021_Oct_29_1145,localizer,2021.1.3,61.517337323281296,
block,scrambled,scrambled045.bmp,,,,,0,101,101,101,,,,,,,,,,,,,,,,,,,,,,,,,,,,,,,,,,,,,,,,,,None,,641.001820719894,None,641.001820719894,None,2021-10-29-11:55:26.956115,641.0117826997302,641.3187161996029,641.0117826997302,None,None,641.0117826997302,None,641.8224678198807,None,,,,12007,0002,2021_Oct_29_1145,localizer,2021.1.3,61.517337323281296,
block,scrambled,scrambled074.bmp,,,,,0,102,102,102,,,,,,,,,,,,,,,,,,,,,,,,,,,,,,,,,,,,,,,,,,None,,641.8224678198807,None,641.8224678198807,None,2021-10-29-11:55:27.786429,641.8421745998785,642.1524073998444,641.8421745998785,None,None,641.8421745998785,None,642.6359138196334,None,,,,12007,0002,2021_Oct_29_1145,localizer,2021.1.3,61.517337323281296,
block,scrambled,scrambled002.bmp,,,,,0,103,103,103,,,,,,,,,,,,,,,,,,,,,,,,,,,,,,,,,,,,,,,,,,None,,642.6359138196334,None,642.6359138196334,None,2021-10-29-11:55:28.590824,642.6373042999767,642.9528728998266,642.6373042999767,None,None,642.6373042999767,None,643.4524895195849,None,,,,12007,0002,2021_Oct_29_1145,localizer,2021.1.3,61.517337323281296,
block,scrambled,scrambled046.bmp,,,,,0,104,104,104,,,,,,,,,,,,,,,,,,,,,,,,,,,,,,,,,,,,,,,,,,None,,643.4524895195849,None,643.4524895195849,None,2021-10-29-11:55:29.406835,643.4636689997278,643.7694506999105,643.4636689997278,None,None,643.4636689997278,None,644.2687143200077,None,,,,12007,0002,2021_Oct_29_1145,localizer,2021.1.3,61.517337323281296,
block,scrambled,scrambled047.bmp,,,,,0,105,105,105,,,,,,,,,,,,,,,,,,,,,,,,,,,,,,,,,,,,,,,,,,None,,644.2687143200077,None,644.2687143200077,None,2021-10-29-11:55:30.222647,644.2698917998932,644.574386799708,644.2698917998932,None,None,644.2698917998932,None,645.0700109196827,None,,,,12007,0002,2021_Oct_29_1145,localizer,2021.1.3,61.517337323281296,
block_end,scrambled,scrambled039.bmp,,,,,0,106,106,106,,,,,,,,,,,,,,,,,,,,,,,,,,,,,,,,,,,,,,,,,,None,,645.0700109196827,None,645.0700109196827,None,2021-10-29-11:55:31.027135,645.0737386997789,645.3862008997239,645.0737386997789,645.0737386997789,None,645.0737386997789,645.0737386997789,645.8855648200027,None,,,,12007,0002,2021_Oct_29_1145,localizer,2021.1.3,61.517337323281296,
block_start,scenes,scenes008.bmp,,,,,0,107,107,107,,,,,,,,,,,,,,,,,,,,,,,,,,,,,,,,,,,,,,,,,,t,1.7972025000490248,645.8860076996498,None,645.8860076996498,None,2021-10-29-11:55:33.655442,647.713913299609,648.019653099589,647.713913299609,None,None,647.713913299609,None,648.5193614196963,None,,,,12007,0002,2021_Oct_29_1145,localizer,2021.1.3,61.517337323281296,
block,scenes,scenes052.bmp,,,,,0,108,108,108,,,,,,,,,,,,,,,,,,,,,,,,,,,,,,,,,,,,,,,,,,None,,648.5193614196963,None,648.5193614196963,None,2021-10-29-11:55:34.474430,648.5205087997019,648.8255709996447,648.5205087997019,None,None,648.5205087997019,None,649.3353734198957,None,,,,12007,0002,2021_Oct_29_1145,localizer,2021.1.3,61.517337323281296,
block,scenes,scenes085.bmp,,,,,0,109,109,109,,,,,,,,,,,,,,,,,,,,,,,,,,,,,,,,,,,,,,,,,,None,,649.3353734198957,None,649.3353734198957,None,2021-10-29-11:55:35.289324,649.3447413998656,649.6527410997078,649.3447413998656,None,None,649.3447413998656,None,650.1523406199179,None,,,,12007,0002,2021_Oct_29_1145,localizer,2021.1.3,61.517337323281296,
block,scenes,scenes027.bmp,,,,,0,110,110,110,,,,,,,,,,,,,,,,,,,,,,,,,,,,,,,,,,,,,,,,,,None,,650.1523406199179,None,650.1523406199179,None,2021-10-29-11:55:36.106485,650.153619099874,650.4693469996564,650.153619099874,None,None,650.153619099874,None,650.9690449196845,None,,,,12007,0002,2021_Oct_29_1145,localizer,2021.1.3,61.517337323281296,
block,scenes,scenes087.bmp,,,,,0,111,111,111,,,,,,,,,,,,,,,,,,,,,,,,,,,,,,,,,,,,,,,,,,None,,650.9690449196845,None,650.9690449196845,None,2021-10-29-11:55:36.922994,650.9794453997165,651.2859505997039,650.9794453997165,None,None,650.9794453997165,None,651.7861252199858,None,,,,12007,0002,2021_Oct_29_1145,localizer,2021.1.3,61.517337323281296,
block,scenes,scenes087.bmp,,,,,0,112,112,112,,,,,,,,,,,,,,,,,,,,,,,,,,,,,,,,,,,,,,,,,,None,,651.7861252199858,None,651.7861252199858,None,2021-10-29-11:55:37.741065,651.7875889996067,652.1032023997977,651.7875889996067,None,y,651.7875889996067,None,652.6023134198971,None,0.6797984996810555,,,12007,0002,2021_Oct_29_1145,localizer,2021.1.3,61.517337323281296,
block,scenes,scenes028.bmp,,,,,0,113,113,113,,,,,,,,,,,,,,,,,,,,,,,,,,,,,,,,,,,,,,,,,,None,,652.6023134198971,None,652.6023134198971,None,2021-10-29-11:55:38.556528,652.6128480997868,652.9198399996385,652.6128480997868,None,None,652.6128480997868,None,653.418663319759,None,,,,12007,0002,2021_Oct_29_1145,localizer,2021.1.3,61.517337323281296,
block,scenes,scenes084.bmp,,,,,0,114,114,114,,,,,,,,,,,,,,,,,,,,,,,,,,,,,,,,,,,,,,,,,,None,,653.418663319759,None,653.418663319759,None,2021-10-29-11:55:39.372623,653.4201185996644,653.7357498998754,653.4201185996644,None,None,653.4201185996644,None,654.2210044195875,None,,,,12007,0002,2021_Oct_29_1145,localizer,2021.1.3,61.517337323281296,
block,scenes,scenes069.bmp,,,,,0,115,115,115,,,,,,,,,,,,,,,,,,,,,,,,,,,,,,,,,,,,,,,,,,None,,654.2210044195875,None,654.2210044195875,None,2021-10-29-11:55:40.181062,654.2438200996257,654.5528806997463,654.2438200996257,654.2438200996257,None,654.2438200996257,654.2438200996257,655.0357006197795,None,,,,12007,0002,2021_Oct_29_1145,localizer,2021.1.3,61.517337323281296,
block,scenes,scenes070.bmp,,,,,0,116,116,116,,,,,,,,,,,,,,,,,,,,,,,,,,,,,,,,,,,,,,,,,,None,,655.0357006197795,None,655.0357006197795,None,2021-10-29-11:55:40.989777,655.0370197999291,655.3381115999073,655.0370197999291,None,None,655.0370197999291,None,655.8394616195932,None,,,,12007,0002,2021_Oct_29_1145,localizer,2021.1.3,61.517337323281296,
block,scenes,scenes016.bmp,,,,,0,117,117,117,,,,,,,,,,,,,,,,,,,,,,,,,,,,,,,,,,,,,,,,,,None,,655.8394616195932,None,655.8394616195932,None,2021-10-29-11:55:41.802161,655.8661206997931,656.1693241996691,655.8661206997931,655.8661206997931,None,655.8661206997931,655.8661206997931,656.6524356199428,None,,,,12007,0002,2021_Oct_29_1145,localizer,2021.1.3,61.517337323281296,
block,scenes,scenes079.bmp,,,,,0,118,118,118,,,,,,,,,,,,,,,,,,,,,,,,,,,,,,,,,,,,,,,,,,None,,656.6524356199428,None,656.6524356199428,None,2021-10-29-11:55:42.606484,656.6637329999357,656.9692367999814,656.6637329999357,None,None,656.6637329999357,None,657.4688495198264,None,,,,12007,0002,2021_Oct_29_1145,localizer,2021.1.3,61.517337323281296,
block,scenes,scenes081.bmp,,,,,0,119,119,119,,,,,,,,,,,,,,,,,,,,,,,,,,,,,,,,,,,,,,,,,,None,,657.4688495198264,None,657.4688495198264,None,2021-10-29-11:55:43.422819,657.4702093997039,657.7861251998693,657.4702093997039,None,None,657.4702093997039,None,658.2857868197374,None,,,,12007,0002,2021_Oct_29_1145,localizer,2021.1.3,61.517337323281296,
block,scenes,scenes041.bmp,,,,,0,120,120,120,,,,,,,,,,,,,,,,,,,,,,,,,,,,,,,,,,,,,,,,,,None,,658.2857868197374,None,658.2857868197374,None,2021-10-29-11:55:44.239758,658.2972134999,658.6026864997111,658.2972134999,None,None,658.2972134999,None,659.1014349196106,None,,,,12007,0002,2021_Oct_29_1145,localizer,2021.1.3,61.517337323281296,
block_end,scenes,scenes057.bmp,,,,,0,121,121,121,,,,,,,,,,,,,,,,,,,,,,,,,,,,,,,,,,,,,,,,,,None,,659.1014349196106,None,659.1014349196106,None,2021-10-29-11:55:45.055243,659.1061883997172,659.4192839995958,659.1061883997172,None,None,659.1061883997172,None,659.9191223197616,None,,,,12007,0002,2021_Oct_29_1145,localizer,2021.1.3,61.517337323281296,
block_start,faces,faces077.bmp,,,,,0,122,122,122,,,,,,,,,,,,,,,,,,,,,,,,,,,,,,,,,,,,,,,,,,t,1.763799499720335,659.9194450997747,None,659.9194450997747,None,2021-10-29-11:55:47.658448,661.7066223998554,662.0196479000151,661.7066223998554,None,None,661.7066223998554,None,662.5188198197633,None,,,,12007,0002,2021_Oct_29_1145,localizer,2021.1.3,61.517337323281296,
block,faces,faces040.bmp,,,,,0,123,123,123,,,,,,,,,,,,,,,,,,,,,,,,,,,,,,,,,,,,,,,,,,None,,662.5188198197633,None,662.5188198197633,None,2021-10-29-11:55:48.473116,662.5288684000261,662.8359546000138,662.5288684000261,None,None,662.5288684000261,None,663.3354303199798,None,,,,12007,0002,2021_Oct_29_1145,localizer,2021.1.3,61.517337323281296,
block,faces,faces024.bmp,,,,,0,124,124,124,,,,,,,,,,,,,,,,,,,,,,,,,,,,,,,,,,,,,,,,,,None,,663.3354303199798,None,663.3354303199798,None,2021-10-29-11:55:49.289425,663.3367829998024,663.6523579000495,663.3367829998024,None,y,663.3367829998024,None,664.1524515199475,None,0.5893806000240147,,,12007,0002,2021_Oct_29_1145,localizer,2021.1.3,61.517337323281296,
block,faces,faces073.bmp,,,,,0,125,125,125,,,,,,,,,,,,,,,,,,,,,,,,,,,,,,,,,,,,,,,,,,None,,664.1524515199475,None,664.1524515199475,None,2021-10-29-11:55:50.106572,664.1536365998909,664.4696066998877,664.1536365998909,None,None,664.1536365998909,None,664.9692768199369,None,,,,12007,0002,2021_Oct_29_1145,localizer,2021.1.3,61.517337323281296,
block,faces,faces014.bmp,,,,,0,126,126,126,,,,,,,,,,,,,,,,,,,,,,,,,,,,,,,,,,,,,,,,,,None,,664.9692768199369,None,664.9692768199369,None,2021-10-29-11:55:50.923268,664.9771753996611,665.2860988997854,664.9771753996611,None,None,664.9771753996611,None,665.7867452195845,None,,,,12007,0002,2021_Oct_29_1145,localizer,2021.1.3,61.517337323281296,
block,faces,faces018.bmp,,,,,0,127,127,127,,,,,,,,,,,,,,,,,,,,,,,,,,,,,,,,,,,,,,,,,,None,,665.7867452195845,None,665.7867452195845,None,2021-10-29-11:55:51.742626,665.7900405996479,666.1032856996171,665.7900405996479,None,None,665.7900405996479,None,666.6035467196256,None,,,,12007,0002,2021_Oct_29_1145,localizer,2021.1.3,61.517337323281296,
block,faces,faces021.bmp,,,,,0,128,128,128,,,,,,,,,,,,,,,,,,,,,,,,,,,,,,,,,,,,,,,,,,None,,666.6035467196256,None,666.6035467196256,None,2021-10-29-11:55:52.559504,666.6062730997801,666.9199899998493,666.6062730997801,None,y,666.6062730997801,None,667.4189688196406,None,0.6297887000255287,,,12007,0002,2021_Oct_29_1145,localizer,2021.1.3,61.517337323281296,
block,faces,faces001.bmp,,,,,0,129,129,129,,,,,,,,,,,,,,,,,,,,,,,,,,,,,,,,,,,,,,,,,,None,,667.4189688196406,None,667.4189688196406,None,2021-10-29-11:55:53.372974,667.4313237997703,667.7358633000404,667.4313237997703,None,None,667.4313237997703,None,668.2356943200342,None,,,,12007,0002,2021_Oct_29_1145,localizer,2021.1.3,61.517337323281296,
block,faces,faces080.bmp,,,,,0,130,130,130,,,,,,,,,,,,,,,,,,,,,,,,,,,,,,,,,,,,,,,,,,None,,668.2356943200342,None,668.2356943200342,None,2021-10-29-11:55:54.189911,668.2511379998177,668.5526075996459,668.2511379998177,None,y,668.2511379998177,None,669.0523375199176,None,0.014134999830275774,,,12007,0002,2021_Oct_29_1145,localizer,2021.1.3,61.517337323281296,
block,faces,faces020.bmp,,,,,0,131,131,131,,,,,,,,,,,,,,,,,,,,,,,,,,,,,,,,,,,,,,,,,,None,,669.0523375199176,None,669.0523375199176,None,2021-10-29-11:55:55.006342,669.0540656000376,669.3692920999601,669.0540656000376,None,None,669.0540656000376,None,669.8689493197948,None,,,,12007,0002,2021_Oct_29_1145,localizer,2021.1.3,61.517337323281296,
block,faces,faces019.bmp,,,,,0,132,132,132,,,,,,,,,,,,,,,,,,,,,,,,,,,,,,,,,,,,,,,,,,None,,669.8689493197948,None,669.8689493197948,None,2021-10-29-11:55:55.823448,669.8702912000008,670.1859218999743,669.8702912000008,None,y,669.8702912000008,None,670.6855586200021,None,0.6778705003671348,,,12007,0002,2021_Oct_29_1145,localizer,2021.1.3,61.517337323281296,
block,faces,faces023.bmp,,,,,0,133,133,133,,,,,,,,,,,,,,,,,,,,,,,,,,,,,,,,,,,,,,,,,,None,,670.6855586200021,None,670.6855586200021,None,2021-10-29-11:55:56.639575,670.6955516999587,671.0025883000344,670.6955516999587,None,None,670.6955516999587,None,671.5024716198444,None,,,,12007,0002,2021_Oct_29_1145,localizer,2021.1.3,61.517337323281296,
block,faces,faces063.bmp,,,,,0,134,134,134,,,,,,,,,,,,,,,,,,,,,,,,,,,,,,,,,,,,,,,,,,None,,671.5024716198444,None,671.5024716198444,None,2021-10-29-11:55:57.456688,671.5168453999795,671.8196656997316,671.5168453999795,None,None,671.5168453999795,None,672.3189599198289,None,,,,12007,0002,2021_Oct_29_1145,localizer,2021.1.3,61.517337323281296,
block,faces,faces022.bmp,,,,,0,135,135,135,,,,,,,,,,,,,,,,,,,,,,,,,,,,,,,,,,,,,,,,,,None,,672.3189599198289,None,672.3189599198289,None,2021-10-29-11:55:58.272980,672.3201943999156,672.6352053997107,672.3201943999156,None,None,672.3201943999156,None,673.1201369199902,None,,,,12007,0002,2021_Oct_29_1145,localizer,2021.1.3,61.517337323281296,
block_end,faces,faces041.bmp,,,,,0,136,136,136,,,,,,,,,,,,,,,,,,,,,,,,,,,,,,,,,,,,,,,,,,None,,673.1201369199902,None,673.1201369199902,None,2021-10-29-11:55:59.078215,673.1374478996731,673.4526461996138,673.1374478996731,673.1374478996731,None,673.1374478996731,673.1374478996731,673.9365222198888,None,,,,12007,0002,2021_Oct_29_1145,localizer,2021.1.3,61.517337323281296,
block_start,scenes,scenes080.bmp,,,,,0,137,137,137,,,,,,,,,,,,,,,,,,,,,,,,,,,,,,,,,,,,,,,,,,t,1.7463740999810398,673.9369075000286,None,673.9369075000286,None,2021-10-29-11:56:01.658341,675.7044643997215,676.0201264000498,675.7044643997215,None,None,675.7044643997215,None,676.503711919859,None,,,,12007,0002,2021_Oct_29_1145,localizer,2021.1.3,61.517337323281296,
block,scenes,scenes028.bmp,,,,,0,138,138,138,,,,,,,,,,,,,,,,,,,,,,,,,,,,,,,,,,,,,,,,,,None,,676.503711919859,None,676.503711919859,None,2021-10-29-11:56:02.462857,676.5095710996538,676.8199972999282,676.5095710996538,676.5095710996538,None,676.5095710996538,676.5095710996538,677.3195399195887,None,,,,12007,0002,2021_Oct_29_1145,localizer,2021.1.3,61.517337323281296,
block,scenes,scenes065.bmp,,,,,0,139,139,139,,,,,,,,,,,,,,,,,,,,,,,,,,,,,,,,,,,,,,,,,,None,,677.3195399195887,None,677.3195399195887,None,2021-10-29-11:56:03.274410,677.3203769996762,677.6360985999927,677.3203769996762,None,None,677.3203769996762,None,678.1357139196247,None,,,,12007,0002,2021_Oct_29_1145,localizer,2021.1.3,61.517337323281296,
block,scenes,scenes090.bmp,,,,,0,140,140,140,,,,,,,,,,,,,,,,,,,,,,,,,,,,,,,,,,,,,,,,,,None,,678.1357139196247,None,678.1357139196247,None,2021-10-29-11:56:04.089750,678.1370140998624,678.4525892999955,678.1370140998624,None,None,678.1370140998624,None,678.9363212199881,None,,,,12007,0002,2021_Oct_29_1145,localizer,2021.1.3,61.517337323281296,
block,scenes,scenes038.bmp,,,,,0,141,141,141,,,,,,,,,,,,,,,,,,,,,,,,,,,,,,,,,,,,,,,,,,None,,678.9363212199881,None,678.9363212199881,None,2021-10-29-11:56:04.893347,678.9395220996812,679.2527127997018,678.9395220996812,678.9395220996812,None,678.9395220996812,678.9395220996812,679.7525170199573,None,,,,12007,0002,2021_Oct_29_1145,localizer,2021.1.3,61.517337323281296,
block,scenes,scenes027.bmp,,,,,0,142,142,142,,,,,,,,,,,,,,,,,,,,,,,,,,,,,,,,,,,,,,,,,,None,,679.7525170199573,None,679.7525170199573,None,2021-10-29-11:56:05.706681,679.7536922995932,680.0696743000299,679.7536922995932,None,None,679.7536922995932,None,680.5691234200261,None,,,,12007,0002,2021_Oct_29_1145,localizer,2021.1.3,61.517337323281296,
block,scenes,scenes001.bmp,,,,,0,143,143,143,,,,,,,,,,,,,,,,,,,,,,,,,,,,,,,,,,,,,,,,,,None,,680.5691234200261,None,680.5691234200261,None,2021-10-29-11:56:06.523397,680.5756585998461,680.8858991996385,680.5756585998461,None,None,680.5756585998461,None,681.3863274199888,None,,,,12007,0002,2021_Oct_29_1145,localizer,2021.1.3,61.517337323281296,
block,scenes,scenes067.bmp,,,,,0,144,144,144,,,,,,,,,,,,,,,,,,,,,,,,,,,,,,,,,,,,,,,,,,None,,681.3863274199888,None,681.3863274199888,None,2021-10-29-11:56:07.341365,681.3882160000503,681.7030245000497,681.3882160000503,None,None,681.3882160000503,None,682.2024223200045,None,,,,12007,0002,2021_Oct_29_1145,localizer,2021.1.3,61.517337323281296,
block,scenes,scenes073.bmp,,,,,0,145,145,145,,,,,,,,,,,,,,,,,,,,,,,,,,,,,,,,,,,,,,,,,,None,,682.2024223200045,None,682.2024223200045,None,2021-10-29-11:56:08.156919,682.2130403998308,682.5197286000475,682.2130403998308,None,None,682.2130403998308,None,683.019451419916,None,,,,12007,0002,2021_Oct_29_1145,localizer,2021.1.3,61.517337323281296,
block,scenes,scenes007.bmp,,,,,0,146,146,146,,,,,,,,,,,,,,,,,,,,,,,,,,,,,,,,,,,,,,,,,,None,,683.019451419916,None,683.019451419916,None,2021-10-29-11:56:08.973503,683.0347782997414,683.3358134999871,683.0347782997414,None,None,683.0347782997414,None,683.8250356196426,None,,,,12007,0002,2021_Oct_29_1145,localizer,2021.1.3,61.517337323281296,
block,scenes,scenes003.bmp,,,,,0,147,147,147,,,,,,,,,,,,,,,,,,,,,,,,,,,,,,,,,,,,,,,,,,None,,683.8250356196426,None,683.8250356196426,None,2021-10-29-11:56:09.782088,683.8422837997787,684.1528123999014,683.8422837997787,None,None,683.8422837997787,None,684.637096119672,None,,,,12007,0002,2021_Oct_29_1145,localizer,2021.1.3,61.517337323281296,
block,scenes,scenes053.bmp,,,,,0,148,148,148,,,,,,,,,,,,,,,,,,,,,,,,,,,,,,,,,,,,,,,,,,None,,684.637096119672,None,684.637096119672,None,2021-10-29-11:56:10.592275,684.6399849997833,684.9534364999272,684.6399849997833,None,None,684.6399849997833,None,685.4535878199152,None,,,,12007,0002,2021_Oct_29_1145,localizer,2021.1.3,61.517337323281296,
block,scenes,scenes024.bmp,,,,,0,149,149,149,,,,,,,,,,,,,,,,,,,,,,,,,,,,,,,,,,,,,,,,,,None,,685.4535878199152,None,685.4535878199152,None,2021-10-29-11:56:11.409614,685.4683606997132,685.7695118999109,685.4683606997132,None,None,685.4683606997132,None,686.2690908197313,None,,,,12007,0002,2021_Oct_29_1145,localizer,2021.1.3,61.517337323281296,
block,scenes,scenes017.bmp,,,,,0,150,150,150,,,,,,,,,,,,,,,,,,,,,,,,,,,,,,,,,,,,,,,,,,None,,686.2690908197313,None,686.2690908197313,None,2021-10-29-11:56:12.223157,686.2703943997622,686.585931699723,686.2703943997622,None,y,686.2703943997622,None,687.0859136195853,None,0.7146904999390244,,,12007,0002,2021_Oct_29_1145,localizer,2021.1.3,61.517337323281296,
block_end,scenes,scenes060.bmp,,,,,0,151,151,151,,,,,,,,,,,,,,,,,,,,,,,,,,,,,,,,,,,,,,,,,,None,,687.0859136195853,None,687.0859136195853,None,2021-10-29-11:56:13.040176,687.0954105998389,687.4026151997969,687.0954105998389,None,None,687.0954105998389,None,687.9023241196759,None,,,,12007,0002,2021_Oct_29_1145,localizer,2021.1.3,61.517337323281296,
block_start,scrambled,scrambled043.bmp,,,,,0,152,152,152,,,,,,,,,,,,,,,,,,,,,,,,,,,,,,,,,,,,,,,,,,t,1.779706200119108,687.9026772999205,None,687.9026772999205,None,2021-10-29-11:56:15.654581,689.7044865000062,690.0196509999223,689.7044865000062,None,None,689.7044865000062,None,690.5035482198931,None,,,,12007,0002,2021_Oct_29_1145,localizer,2021.1.3,61.517337323281296,
block,scrambled,scrambled013.bmp,,,,,0,153,153,153,,,,,,,,,,,,,,,,,,,,,,,,,,,,,,,,,,,,,,,,,,None,,690.5035482198931,None,690.5035482198931,None,2021-10-29-11:56:16.462744,690.5106034995988,690.8261170997284,690.5106034995988,690.5106034995988,None,690.5106034995988,690.5106034995988,691.3193720198236,None,,,,12007,0002,2021_Oct_29_1145,localizer,2021.1.3,61.517337323281296,
block,scrambled,scrambled077.bmp,,,,,0,154,154,154,,,,,,,,,,,,,,,,,,,,,,,,,,,,,,,,,,,,,,,,,,None,,691.3193720198236,None,691.3193720198236,None,2021-10-29-11:56:17.272170,691.3326980997808,691.6365612000227,691.3326980997808,None,None,691.3326980997808,None,692.136343419645,None,,,,12007,0002,2021_Oct_29_1145,localizer,2021.1.3,61.517337323281296,
block,scrambled,scrambled031.bmp,,,,,0,155,155,155,,,,,,,,,,,,,,,,,,,,,,,,,,,,,,,,,,,,,,,,,,None,,692.136343419645,None,692.136343419645,None,2021-10-29-11:56:18.091640,692.1373525997624,692.438979299739,692.1373525997624,None,y,692.1373525997624,None,692.9368606196716,None,0.20184160023927689,,,12007,0002,2021_Oct_29_1145,localizer,2021.1.3,61.517337323281296,
block,scrambled,scrambled034.bmp,,,,,0,156,156,156,,,,,,,,,,,,,,,,,,,,,,,,,,,,,,,,,,,,,,,,,,None,,692.9368606196716,None,692.9368606196716,None,2021-10-29-11:56:18.894921,692.9540903996676,693.2696120999753,692.9540903996676,692.9540903996676,None,692.9540903996676,692.9540903996676,693.752997019887,None,,,,12007,0002,2021_Oct_29_1145,localizer,2021.1.3,61.517337323281296,
block,scrambled,scrambled037.bmp,,,,,0,157,157,157,,,,,,,,,,,,,,,,,,,,,,,,,,,,,,,,,,,,,,,,,,None,,693.752997019887,None,693.752997019887,None,2021-10-29-11:56:19.708074,693.7542252000421,694.0702801998705,693.7542252000421,None,None,693.7542252000421,None,694.5535312198102,None,,,,12007,0002,2021_Oct_29_1145,localizer,2021.1.3,61.517337323281296,
block,scrambled,scrambled004.bmp,,,,,0,158,158,158,,,,,,,,,,,,,,,,,,,,,,,,,,,,,,,,,,,,,,,,,,None,,694.5535312198102,None,694.5535312198102,None,2021-10-29-11:56:20.512595,694.5594167998061,694.8717558998615,694.5594167998061,694.5594167998061,None,694.5594167998061,694.5594167998061,695.3696524199098,None,,,,12007,0002,2021_Oct_29_1145,localizer,2021.1.3,61.517337323281296,
block,scrambled,scrambled075.bmp,,,,,0,159,159,159,,,,,,,,,,,,,,,,,,,,,,,,,,,,,,,,,,,,,,,,,,None,,695.3696524199098,None,695.3696524199098,None,2021-10-29-11:56:21.324882,695.3706727996469,695.6859941999428,695.3706727996469,None,None,695.3706727996469,None,696.1860977197997,None,,,,12007,0002,2021_Oct_29_1145,localizer,2021.1.3,61.517337323281296,
block,scrambled,scrambled012.bmp,,,,,0,160,160,160,,,,,,,,,,,,,,,,,,,,,,,,,,,,,,,,,,,,,,,,,,None,,696.1860977197997,None,696.1860977197997,None,2021-10-29-11:56:22.140415,696.1871920996346,696.5028786999173,696.1871920996346,None,None,696.1871920996346,None,697.0022742199711,None,,,,12007,0002,2021_Oct_29_1145,localizer,2021.1.3,61.517337323281296,
block,scrambled,scrambled008.bmp,,,,,0,161,161,161,,,,,,,,,,,,,,,,,,,,,,,,,,,,,,,,,,,,,,,,,,None,,697.0022742199711,None,697.0022742199711,None,2021-10-29-11:56:22.956377,697.0037952000275,697.319426199887,697.0037952000275,None,None,697.0037952000275,None,697.819455719646,None,,,,12007,0002,2021_Oct_29_1145,localizer,2021.1.3,61.517337323281296,
block,scrambled,scrambled061.bmp,,,,,0,162,162,162,,,,,,,,,,,,,,,,,,,,,,,,,,,,,,,,,,,,,,,,,,None,,697.819455719646,None,697.819455719646,None,2021-10-29-11:56:23.773778,697.8311364999972,698.1360623999499,697.8311364999972,None,None,697.8311364999972,None,698.636170919612,None,,,,12007,0002,2021_Oct_29_1145,localizer,2021.1.3,61.517337323281296,
block,scrambled,scrambled026.bmp,,,,,0,163,163,163,,,,,,,,,,,,,,,,,,,,,,,,,,,,,,,,,,,,,,,,,,None,,698.636170919612,None,698.636170919612,None,2021-10-29-11:56:24.590582,698.6373338997364,698.9531701998785,698.6373338997364,None,None,698.6373338997364,None,699.4363412196748,None,,,,12007,0002,2021_Oct_29_1145,localizer,2021.1.3,61.517337323281296,
block,scrambled,scrambled074.bmp,,,,,0,164,164,164,,,,,,,,,,,,,,,,,,,,,,,,,,,,,,,,,,,,,,,,,,None,,699.4363412196748,None,699.4363412196748,None,2021-10-29-11:56:25.393582,699.4399125999771,699.7527732998133,699.4399125999771,699.4399125999771,None,699.4399125999771,699.4399125999771,700.2537065195851,None,,,,12007,0002,2021_Oct_29_1145,localizer,2021.1.3,61.517337323281296,
block,scrambled,scrambled074.bmp,,,,,0,165,165,165,,,,,,,,,,,,,,,,,,,,,,,,,,,,,,,,,,,,,,,,,,None,,700.2537065195851,None,700.2537065195851,None,2021-10-29-11:56:26.209629,700.2568840999156,700.5701092998497,700.2568840999156,None,y,700.2568840999156,None,701.0697078198194,None,0.7782458998262882,,,12007,0002,2021_Oct_29_1145,localizer,2021.1.3,61.517337323281296,
block_end,scrambled,scrambled018.bmp,,,,,0,166,166,166,,,,,,,,,,,,,,,,,,,,,,,,,,,,,,,,,,,,,,,,,,None,,701.0697078198194,None,701.0697078198194,None,2021-10-29-11:56:27.024810,701.0820004995912,701.3862911998294,701.0820004995912,None,None,701.0820004995912,None,701.8856945197098,None,,,,12007,0002,2021_Oct_29_1145,localizer,2021.1.3,61.517337323281296,
null_block,null_block,null_block.bmp,,,,,0,167,167,167,,,,,,,,,,,,,,,,,,,,,,,,,,,,,,,,,,,,,,,,,,t,1.7963048997335136,701.8859996995889,None,701.8859996995889,None,2021-10-29-11:56:29.658193,703.7028782196343,None,703.7028782196343,None,None,703.7028782196343,None,703.7079649996012,None,,,,12007,0002,2021_Oct_29_1145,localizer,2021.1.3,61.517337323281296,
block_start,objects,objects004.bmp,,,,,0,168,168,168,,,,,,,,,,,,,,,,,,,,,,,,,,,,,,,,,,,,,,,,,,t,1.9628154998645186,715.7194429999217,None,715.7194429999217,None,2021-10-29-11:56:43.657650,717.7137978998944,718.0259104999714,717.7137978998944,None,None,717.7137978998944,None,718.5195991197601,None,,,,12007,0002,2021_Oct_29_1145,localizer,2021.1.3,61.517337323281296,
block,objects,objects082.bmp,,,,,0,169,169,169,,,,,,,,,,,,,,,,,,,,,,,,,,,,,,,,,,,,,,,,,,None,,718.5195991197601,None,718.5195991197601,None,2021-10-29-11:56:44.474461,718.520761099644,718.8368012998253,718.520761099644,None,None,718.520761099644,None,719.319771019835,None,,,,12007,0002,2021_Oct_29_1145,localizer,2021.1.3,61.517337323281296,
block,objects,objects006.bmp,,,,,0,170,170,170,,,,,,,,,,,,,,,,,,,,,,,,,,,,,,,,,,,,,,,,,,None,,719.319771019835,None,719.319771019835,None,2021-10-29-11:56:45.276163,719.3312097997405,719.6360907997005,719.3312097997405,719.3312097997405,None,719.3312097997405,719.3312097997405,720.1361769196577,None,,,,12007,0002,2021_Oct_29_1145,localizer,2021.1.3,61.517337323281296,
block,objects,objects068.bmp,,,,,0,171,171,171,,,,,,,,,,,,,,,,,,,,,,,,,,,,,,,,,,,,,,,,,,None,,720.1361769196577,None,720.1361769196577,None,2021-10-29-11:56:46.090352,720.1372403996065,720.4529854999855,720.1372403996065,None,None,720.1372403996065,None,720.9526712196879,None,,,,12007,0002,2021_Oct_29_1145,localizer,2021.1.3,61.517337323281296,
block,objects,objects072.bmp,,,,,0,172,172,172,,,,,,,,,,,,,,,,,,,,,,,,,,,,,,,,,,,,,,,,,,None,,720.9526712196879,None,720.9526712196879,None,2021-10-29-11:56:46.907087,720.964277499821,721.2693393998779,720.964277499821,None,None,720.964277499821,None,721.7591581196524,None,,,,12007,0002,2021_Oct_29_1145,localizer,2021.1.3,61.517337323281296,
block,objects,objects071.bmp,,,,,0,173,173,173,,,,,,,,,,,,,,,,,,,,,,,,,,,,,,,,,,,,,,,,,,None,,721.7591581196524,None,721.7591581196524,None,2021-10-29-11:56:47.717283,721.7705827997997,722.0862944996916,721.7705827997997,None,None,721.7705827997997,None,722.5694669197313,None,,,,12007,0002,2021_Oct_29_1145,localizer,2021.1.3,61.517337323281296,
block,objects,objects085.bmp,,,,,0,174,174,174,,,,,,,,,,,,,,,,,,,,,,,,,,,,,,,,,,,,,,,,,,None,,722.5694669197313,None,722.5694669197313,None,2021-10-29-11:56:48.523651,722.5706874998286,722.8861018996686,722.5706874998286,None,None,722.5706874998286,None,723.3859268199652,None,,,,12007,0002,2021_Oct_29_1145,localizer,2021.1.3,61.517337323281296,
block,objects,objects084.bmp,,,,,0,175,175,175,,,,,,,,,,,,,,,,,,,,,,,,,,,,,,,,,,,,,,,,,,None,,723.3859268199652,None,723.3859268199652,None,2021-10-29-11:56:49.340130,723.395999299828,723.702522599604,723.395999299828,None,None,723.395999299828,None,724.2030163198709,None,,,,12007,0002,2021_Oct_29_1145,localizer,2021.1.3,61.517337323281296,
block,objects,objects063.bmp,,,,,0,176,176,176,,,,,,,,,,,,,,,,,,,,,,,,,,,,,,,,,,,,,,,,,,None,,724.2030163198709,None,724.2030163198709,None,2021-10-29-11:56:50.157203,724.2040103999898,724.5197423999198,724.2040103999898,None,None,724.2040103999898,None,725.0195779195986,None,,,,12007,0002,2021_Oct_29_1145,localizer,2021.1.3,61.517337323281296,
block,objects,objects043.bmp,,,,,0,177,177,177,,,,,,,,,,,,,,,,,,,,,,,,,,,,,,,,,,,,,,,,,,None,,725.0195779195986,None,725.0195779195986,None,2021-10-29-11:56:50.973779,725.0205899998546,725.3365084999241,725.0205899998546,None,y,725.0205899998546,None,725.8420791198499,None,0.5914871003478765,,,12007,0002,2021_Oct_29_1145,localizer,2021.1.3,61.517337323281296,
block,objects,objects074.bmp,,,,,0,178,178,178,,,,,,,,,,,,,,,,,,,,,,,,,,,,,,,,,,,,,,,,,,None,,725.8420791198499,None,725.8420791198499,None,2021-10-29-11:56:51.803160,725.8509550997987,726.1530795996077,725.8509550997987,None,None,725.8509550997987,None,726.6527622198686,None,,,,12007,0002,2021_Oct_29_1145,localizer,2021.1.3,61.517337323281296,
block,objects,objects083.bmp,,,,,0,179,179,179,,,,,,,,,,,,,,,,,,,,,,,,,,,,,,,,,,,,,,,,,,None,,726.6527622198686,None,726.6527622198686,None,2021-10-29-11:56:52.607175,726.693981599994,727.0029305997305,726.693981599994,None,None,726.693981599994,None,727.469263019599,None,,,,12007,0002,2021_Oct_29_1145,localizer,2021.1.3,61.517337323281296,
block,objects,objects077.bmp,,,,,0,180,180,180,,,,,,,,,,,,,,,,,,,,,,,,,,,,,,,,,,,,,,,,,,None,,727.469263019599,None,727.469263019599,None,2021-10-29-11:56:53.423466,727.4704839000478,727.7702269996516,727.4704839000478,None,None,727.4704839000478,None,728.2711206195876,None,,,,12007,0002,2021_Oct_29_1145,localizer,2021.1.3,61.517337323281296,
block,objects,objects066.bmp,,,,,0,181,181,181,,,,,,,,,,,,,,,,,,,,,,,,,,,,,,,,,,,,,,,,,,None,,728.2711206195876,None,728.2711206195876,None,2021-10-29-11:56:54.228106,728.2755701998249,728.5863292999566,728.2755701998249,728.2755701998249,None,728.2755701998249,728.2755701998249,729.0860977197066,None,,,,12007,0002,2021_Oct_29_1145,localizer,2021.1.3,61.517337323281296,
block_end,objects,objects017.bmp,,,,,0,182,182,182,,,,,,,,,,,,,,,,,,,,,,,,,,,,,,,,,,,,,,,,,,None,,729.0860977197066,None,729.0860977197066,None,2021-10-29-11:56:55.040304,729.0973847997375,729.4030372998677,729.0973847997375,None,None,729.0973847997375,None,729.9024741198867,None,,,,12007,0002,2021_Oct_29_1145,localizer,2021.1.3,61.517337323281296,
null_block,null_block,null_block.bmp,,,,,0,183,183,183,,,,,,,,,,,,,,,,,,,,,,,,,,,,,,,,,,,,,,,,,,t,1.77962650032714,729.9026564997621,None,729.9026564997621,None,2021-10-29-11:56:57.658378,731.7031759196892,None,731.7031759196892,None,None,731.7031759196892,None,731.7079808996059,None,,,,12007,0002,2021_Oct_29_1145,localizer,2021.1.3,61.517337323281296,
block_start,objects,objects029.bmp,,,,,0,184,184,184,,,,,,,,,,,,,,,,,,,,,,,,,,,,,,,,,,,,,,,,,,t,1.9558476000092924,743.7264121999033,None,743.7264121999033,None,2021-10-29-11:57:11.657214,745.7039802996442,746.0034010997042,745.7039802996442,None,None,745.7039802996442,None,746.5192138199694,None,,,,12007,0002,2021_Oct_29_1145,localizer,2021.1.3,61.517337323281296,
block,objects,objects072.bmp,,,,,0,185,185,185,,,,,,,,,,,,,,,,,,,,,,,,,,,,,,,,,,,,,,,,,,None,,746.5192138199694,None,746.5192138199694,None,2021-10-29-11:57:12.473479,746.5207818998024,746.8364839996211,746.5207818998024,None,None,746.5207818998024,None,747.3355547199957,None,,,,12007,0002,2021_Oct_29_1145,localizer,2021.1.3,61.517337323281296,
block,objects,objects059.bmp,,,,,0,186,186,186,,,,,,,,,,,,,,,,,,,,,,,,,,,,,,,,,,,,,,,,,,None,,747.3355547199957,None,747.3355547199957,None,2021-10-29-11:57:13.289829,747.3376358998939,747.6529863998294,747.3376358998939,None,None,747.3376358998939,None,748.1375581199303,None,,,,12007,0002,2021_Oct_29_1145,localizer,2021.1.3,61.517337323281296,
block,objects,objects047.bmp,,,,,0,187,187,187,,,,,,,,,,,,,,,,,,,,,,,,,,,,,,,,,,,,,,,,,,None,,748.1375581199303,None,748.1375581199303,None,2021-10-29-11:57:14.094952,748.1544844997115,748.4694540998898,748.1544844997115,748.1544844997115,None,748.1544844997115,748.1544844997115,748.9540088196285,None,,,,12007,0002,2021_Oct_29_1145,localizer,2021.1.3,61.517337323281296,
block,objects,objects061.bmp,,,,,0,188,188,188,,,,,,,,,,,,,,,,,,,,,,,,,,,,,,,,,,,,,,,,,,None,,748.9540088196285,None,748.9540088196285,None,2021-10-29-11:57:14.910184,748.9566409997642,749.2700030999258,748.9566409997642,None,None,748.9566409997642,None,749.7715555197559,None,,,,12007,0002,2021_Oct_29_1145,localizer,2021.1.3,61.517337323281296,
block,objects,objects038.bmp,,,,,0,189,189,189,,,,,,,,,,,,,,,,,,,,,,,,,,,,,,,,,,,,,,,,,,None,,749.7715555197559,None,749.7715555197559,None,2021-10-29-11:57:15.729962,749.7909713997506,750.1034820997156,749.7909713997506,None,None,749.7909713997506,None,750.5862835199572,None,,,,12007,0002,2021_Oct_29_1145,localizer,2021.1.3,61.517337323281296,
block,objects,objects079.bmp,,,,,0,190,190,190,,,,,,,,,,,,,,,,,,,,,,,,,,,,,,,,,,,,,,,,,,None,,750.5862835199572,None,750.5862835199572,None,2021-10-29-11:57:16.540746,750.5875021996908,750.903002999723,750.5875021996908,None,None,750.5875021996908,None,751.4026996196247,None,,,,12007,0002,2021_Oct_29_1145,localizer,2021.1.3,61.517337323281296,
block,objects,objects010.bmp,,,,,0,191,191,191,,,,,,,,,,,,,,,,,,,,,,,,,,,,,,,,,,,,,,,,,,None,,751.4026996196247,None,751.4026996196247,None,2021-10-29-11:57:17.356979,751.4040589998476,751.7196671999991,751.4040589998476,None,None,751.4040589998476,None,752.2034663200378,None,,,,12007,0002,2021_Oct_29_1145,localizer,2021.1.3,61.517337323281296,
block,objects,objects049.bmp,,,,,0,192,192,192,,,,,,,,,,,,,,,,,,,,,,,,,,,,,,,,,,,,,,,,,,None,,752.2034663200378,None,752.2034663200378,None,2021-10-29-11:57:18.164750,752.2148348996416,752.5194607996382,752.2148348996416,752.2148348996416,None,752.2148348996416,752.2148348996416,753.0196203199215,None,,,,12007,0002,2021_Oct_29_1145,localizer,2021.1.3,61.517337323281296,
block,objects,objects088.bmp,,,,,0,193,193,193,,,,,,,,,,,,,,,,,,,,,,,,,,,,,,,,,,,,,,,,,,None,,753.0196203199215,None,753.0196203199215,None,2021-10-29-11:57:18.973918,753.0319608999416,753.3430027998984,753.0319608999416,None,None,753.0319608999416,None,753.8373389198445,None,,,,12007,0002,2021_Oct_29_1145,localizer,2021.1.3,61.517337323281296,
block,objects,objects003.bmp,,,,,0,194,194,194,,,,,,,,,,,,,,,,,,,,,,,,,,,,,,,,,,,,,,,,,,None,,753.8373389198445,None,753.8373389198445,None,2021-10-29-11:57:19.792785,753.8398555000313,754.1537170000374,753.8398555000313,None,None,753.8398555000313,None,754.6526010200381,None,,,,12007,0002,2021_Oct_29_1145,localizer,2021.1.3,61.517337323281296,
block,objects,objects021.bmp,,,,,0,195,195,195,,,,,,,,,,,,,,,,,,,,,,,,,,,,,,,,,,,,,,,,,,None,,754.6526010200381,None,754.6526010200381,None,2021-10-29-11:57:20.605903,754.6550357998349,754.9703102996573,754.6550357998349,None,y,754.6550357998349,None,755.4694200196303,None,0.00399089977145195,,,12007,0002,2021_Oct_29_1145,localizer,2021.1.3,61.517337323281296,
block,objects,objects057.bmp,,,,,0,196,196,196,,,,,,,,,,,,,,,,,,,,,,,,,,,,,,,,,,,,,,,,,,None,,755.4694200196303,None,755.4694200196303,None,2021-10-29-11:57:21.423716,755.4707579999231,755.7865585000254,755.4707579999231,None,None,755.4707579999231,None,756.2863982199691,None,,,,12007,0002,2021_Oct_29_1145,localizer,2021.1.3,61.517337323281296,
block,objects,objects056.bmp,,,,,0,197,197,197,,,,,,,,,,,,,,,,,,,,,,,,,,,,,,,,,,,,,,,,,,None,,756.2863982199691,None,756.2863982199691,None,2021-10-29-11:57:22.240906,756.2977012996562,756.6028904998675,756.2977012996562,None,None,756.2977012996562,None,757.1039700197056,None,,,,12007,0002,2021_Oct_29_1145,localizer,2021.1.3,61.517337323281296,
block_end,objects,objects055.bmp,,,,,0,198,198,198,,,,,,,,,,,,,,,,,,,,,,,,,,,,,,,,,,,,,,,,,,None,,757.1039700197056,None,757.1039700197056,None,2021-10-29-11:57:23.061220,757.1074178996496,757.423167699948,757.1074178996496,None,None,757.1074178996496,None,757.9207646200433,None,,,,12007,0002,2021_Oct_29_1145,localizer,2021.1.3,61.517337323281296,
block_start,scrambled,scrambled040.bmp,,,,,0,199,199,199,,,,,,,,,,,,,,,,,,,,,,,,,,,,,,,,,,,,,,,,,,t,1.7610139003954828,757.9210083000362,None,757.9210083000362,None,2021-10-29-11:57:25.656653,759.7127113998868,760.0210600998253,759.7127113998868,None,None,759.7127113998868,None,760.5196532198228,None,,,,12007,0002,2021_Oct_29_1145,localizer,2021.1.3,61.517337323281296,
block,scrambled,scrambled076.bmp,,,,,0,200,200,200,,,,,,,,,,,,,,,,,,,,,,,,,,,,,,,,,,,,,,,,,,None,,760.5196532198228,None,760.5196532198228,None,2021-10-29-11:57:26.474171,760.5207467,760.8363672997802,760.5207467,None,None,760.5207467,None,761.3359495197423,None,,,,12007,0002,2021_Oct_29_1145,localizer,2021.1.3,61.517337323281296,
block,scrambled,scrambled033.bmp,,,,,0,201,201,201,,,,,,,,,,,,,,,,,,,,,,,,,,,,,,,,,,,,,,,,,,None,,761.3359495197423,None,761.3359495197423,None,2021-10-29-11:57:27.289274,761.3377070999704,761.6537360996008,761.3377070999704,None,None,761.3377070999704,None,762.1372608198784,None,,,,12007,0002,2021_Oct_29_1145,localizer,2021.1.3,61.517337323281296,
block,scrambled,scrambled041.bmp,,,,,0,202,202,202,,,,,,,,,,,,,,,,,,,,,,,,,,,,,,,,,,,,,,,,,,None,,762.1372608198784,None,762.1372608198784,None,2021-10-29-11:57:28.094554,762.1416875999421,762.4531658999622,762.1416875999421,762.1416875999421,None,762.1416875999421,762.1416875999421,762.9527548198588,None,,,,12007,0002,2021_Oct_29_1145,localizer,2021.1.3,61.517337323281296,
block,scrambled,scrambled052.bmp,,,,,0,203,203,203,,,,,,,,,,,,,,,,,,,,,,,,,,,,,,,,,,,,,,,,,,None,,762.9527548198588,None,762.9527548198588,None,2021-10-29-11:57:28.907779,762.9540185998194,763.27004209999,762.9540185998194,None,None,762.9540185998194,None,763.7695507198572,None,,,,12007,0002,2021_Oct_29_1145,localizer,2021.1.3,61.517337323281296,
block,scrambled,scrambled086.bmp,,,,,0,204,204,204,,,,,,,,,,,,,,,,,,,,,,,,,,,,,,,,,,,,,,,,,,None,,763.7695507198572,None,763.7695507198572,None,2021-10-29-11:57:29.724869,763.7809438998811,764.0864758999087,763.7809438998811,None,None,763.7809438998811,None,764.5883743200451,None,,,,12007,0002,2021_Oct_29_1145,localizer,2021.1.3,61.517337323281296,
block,scrambled,scrambled009.bmp,,,,,0,205,205,205,,,,,,,,,,,,,,,,,,,,,,,,,,,,,,,,,,,,,,,,,,None,,764.5883743200451,None,764.5883743200451,None,2021-10-29-11:57:30.546777,764.6056773997843,764.9196930998005,764.6056773997843,None,None,764.6056773997843,None,765.402479519695,None,,,,12007,0002,2021_Oct_29_1145,localizer,2021.1.3,61.517337323281296,
block,scrambled,scrambled014.bmp,,,,,0,206,206,206,,,,,,,,,,,,,,,,,,,,,,,,,,,,,,,,,,,,,,,,,,None,,765.402479519695,None,765.402479519695,None,2021-10-29-11:57:31.356811,765.4041776997037,765.7202471997589,765.4041776997037,None,None,765.4041776997037,None,766.2196960198693,None,,,,12007,0002,2021_Oct_29_1145,localizer,2021.1.3,61.517337323281296,
block,scrambled,scrambled022.bmp,,,,,0,207,207,207,,,,,,,,,,,,,,,,,,,,,,,,,,,,,,,,,,,,,,,,,,None,,766.2196960198693,None,766.2196960198693,None,2021-10-29-11:57:32.174393,766.2310704998672,766.5366583997384,766.2310704998672,None,None,766.2310704998672,None,767.0363006196916,None,,,,12007,0002,2021_Oct_29_1145,localizer,2021.1.3,61.517337323281296,
block,scrambled,scrambled058.bmp,,,,,0,208,208,208,,,,,,,,,,,,,,,,,,,,,,,,,,,,,,,,,,,,,,,,,,None,,767.0363006196916,None,767.0363006196916,None,2021-10-29-11:57:32.990630,767.0374461999163,767.3534112996422,767.0374461999163,None,None,767.0374461999163,None,767.8527712198905,None,,,,12007,0002,2021_Oct_29_1145,localizer,2021.1.3,61.517337323281296,
block,scrambled,scrambled010.bmp,,,,,0,209,209,209,,,,,,,,,,,,,,,,,,,,,,,,,,,,,,,,,,,,,,,,,,None,,767.8527712198905,None,767.8527712198905,None,2021-10-29-11:57:33.807110,767.8540456998162,768.1700911996886,767.8540456998162,None,None,767.8540456998162,None,768.653197920043,None,,,,12007,0002,2021_Oct_29_1145,localizer,2021.1.3,61.517337323281296,
block,scrambled,scrambled026.bmp,,,,,0,210,210,210,,,,,,,,,,,,,,,,,,,,,,,,,,,,,,,,,,,,,,,,,,None,,768.653197920043,None,768.653197920043,None,2021-10-29-11:57:34.610757,768.6564943999983,768.9699808997102,768.6564943999983,768.6564943999983,y,768.6564943999983,768.6564943999983,769.4707319197245,None,0.01670200005173683,,,12007,0002,2021_Oct_29_1145,localizer,2021.1.3,61.517337323281296,
block,scrambled,scrambled060.bmp,,,,,0,211,211,211,,,,,,,,,,,,,,,,,,,,,,,,,,,,,,,,,,,,,,,,,,None,,769.4707319197245,None,769.4707319197245,None,2021-10-29-11:57:35.427200,769.4858631999232,769.7865434996784,769.4858631999232,None,None,769.4858631999232,None,770.2859061198309,None,,,,12007,0002,2021_Oct_29_1145,localizer,2021.1.3,61.517337323281296,
block,scrambled,scrambled056.bmp,,,,,0,212,212,212,,,,,,,,,,,,,,,,,,,,,,,,,,,,,,,,,,,,,,,,,,None,,770.2859061198309,None,770.2859061198309,None,2021-10-29-11:57:36.240251,770.2951839999296,770.6033564996906,770.2951839999296,None,None,770.2951839999296,None,771.1040385198779,None,,,,12007,0002,2021_Oct_29_1145,localizer,2021.1.3,61.517337323281296,
block_end,scrambled,scrambled034.bmp,,,,,0,213,213,213,,,,,,,,,,,,,,,,,,,,,,,,,,,,,,,,,,,,,,,,,,None,,771.1040385198779,None,771.1040385198779,None,2021-10-29-11:57:37.059399,771.1066697998904,771.4205934000202,771.1066697998904,None,None,771.1066697998904,None,771.919416719675,None,,,,12007,0002,2021_Oct_29_1145,localizer,2021.1.3,61.517337323281296,
block_start,scenes,scenes035.bmp,,,,,0,214,214,214,,,,,,,,,,,,,,,,,,,,,,,,,,,,,,,,,,,,,,,,,,t,1.7625715001486242,771.9196236999705,None,771.9196236999705,None,2021-10-29-11:57:39.656421,773.7042516996153,774.0199531996623,773.7042516996153,None,None,773.7042516996153,None,774.5035561198368,None,,,,12007,0002,2021_Oct_29_1145,localizer,2021.1.3,61.517337323281296,
block,scenes,scenes053.bmp,,,,,0,215,215,215,,,,,,,,,,,,,,,,,,,,,,,,,,,,,,,,,,,,,,,,,,None,,774.5035561198368,None,774.5035561198368,None,2021-10-29-11:57:40.460995,774.5070446999744,774.8194226999767,774.5070446999744,774.5070446999744,None,774.5070446999744,774.5070446999744,775.3196888199076,None,,,,12007,0002,2021_Oct_29_1145,localizer,2021.1.3,61.517337323281296,
block,scenes,scenes088.bmp,,,,,0,216,216,216,,,,,,,,,,,,,,,,,,,,,,,,,,,,,,,,,,,,,,,,,,None,,775.3196888199076,None,775.3196888199076,None,2021-10-29-11:57:41.274047,775.3211651998572,775.6366242999211,775.3211651998572,None,None,775.3211651998572,None,776.136427819822,None,,,,12007,0002,2021_Oct_29_1145,localizer,2021.1.3,61.517337323281296,
block,scenes,scenes014.bmp,,,,,0,217,217,217,,,,,,,,,,,,,,,,,,,,,,,,,,,,,,,,,,,,,,,,,,None,,776.136427819822,None,776.136427819822,None,2021-10-29-11:57:42.091012,776.1374754998833,776.4535942999646,776.1374754998833,None,None,776.1374754998833,None,776.9531113198958,None,,,,12007,0002,2021_Oct_29_1145,localizer,2021.1.3,61.517337323281296,
block,scenes,scenes059.bmp,,,,,0,218,218,218,,,,,,,,,,,,,,,,,,,,,,,,,,,,,,,,,,,,,,,,,,None,,776.9531113198958,None,776.9531113198958,None,2021-10-29-11:57:42.907679,776.9542743996717,777.2702159998007,776.9542743996717,None,None,776.9542743996717,None,777.759363019932,None,,,,12007,0002,2021_Oct_29_1145,localizer,2021.1.3,61.517337323281296,
block,scenes,scenes011.bmp,,,,,0,219,219,219,,,,,,,,,,,,,,,,,,,,,,,,,,,,,,,,,,,,,,,,,,None,,777.759363019932,None,777.759363019932,None,2021-10-29-11:57:43.717551,777.7639732998796,778.0708125997335,777.7639732998796,None,None,777.7639732998796,None,778.5704433197155,None,,,,12007,0002,2021_Oct_29_1145,localizer,2021.1.3,61.517337323281296,
block,scenes,scenes070.bmp,,,,,0,220,220,220,,,,,,,,,,,,,,,,,,,,,,,,,,,,,,,,,,,,,,,,,,None,,778.5704433197155,None,778.5704433197155,None,2021-10-29-11:57:44.525798,778.572861999739,778.8865781999193,778.572861999739,None,None,778.572861999739,None,779.3863589196466,None,,,,12007,0002,2021_Oct_29_1145,localizer,2021.1.3,61.517337323281296,
block,scenes,scenes008.bmp,,,,,0,221,221,221,,,,,,,,,,,,,,,,,,,,,,,,,,,,,,,,,,,,,,,,,,None,,779.3863589196466,None,779.3863589196466,None,2021-10-29-11:57:45.340731,779.3875652998686,779.7032824000344,779.3875652998686,None,None,779.3875652998686,None,780.2027475196868,None,,,,12007,0002,2021_Oct_29_1145,localizer,2021.1.3,61.517337323281296,
block,scenes,scenes032.bmp,,,,,0,222,222,222,,,,,,,,,,,,,,,,,,,,,,,,,,,,,,,,,,,,,,,,,,None,,780.2027475196868,None,780.2027475196868,None,2021-10-29-11:57:46.157126,780.2129511996172,780.5198932997882,780.2129511996172,None,None,780.2129511996172,None,781.0196535197086,None,,,,12007,0002,2021_Oct_29_1145,localizer,2021.1.3,61.517337323281296,
block,scenes,scenes078.bmp,,,,,0,223,223,223,,,,,,,,,,,,,,,,,,,,,,,,,,,,,,,,,,,,,,,,,,None,,781.0196535197086,None,781.0196535197086,None,2021-10-29-11:57:46.974009,781.0207819999196,781.3364647999406,781.0207819999196,None,None,781.0207819999196,None,781.8204366197809,None,,,,12007,0002,2021_Oct_29_1145,localizer,2021.1.3,61.517337323281296,
block,scenes,scenes077.bmp,,,,,0,224,224,224,,,,,,,,,,,,,,,,,,,,,,,,,,,,,,,,,,,,,,,,,,None,,781.8204366197809,None,781.8204366197809,None,2021-10-29-11:57:47.778126,781.8339350000024,782.1372660999186,781.8339350000024,781.8339350000024,None,781.8339350000024,781.8339350000024,782.6383776200004,None,,,,12007,0002,2021_Oct_29_1145,localizer,2021.1.3,61.517337323281296,
block,scenes,scenes023.bmp,,,,,0,225,225,225,,,,,,,,,,,,,,,,,,,,,,,,,,,,,,,,,,,,,,,,,,None,,782.6383776200004,None,782.6383776200004,None,2021-10-29-11:57:48.597697,782.6441927999258,782.9540146999061,782.6441927999258,None,None,782.6441927999258,None,783.4529972198419,None,,,,12007,0002,2021_Oct_29_1145,localizer,2021.1.3,61.517337323281296,
block,scenes,scenes058.bmp,,,,,0,226,226,226,,,,,,,,,,,,,,,,,,,,,,,,,,,,,,,,,,,,,,,,,,None,,783.4529972198419,None,783.4529972198419,None,2021-10-29-11:57:49.407384,783.4634022996761,783.7696912996471,783.4634022996761,None,None,783.4634022996761,None,784.2698294200003,None,,,,12007,0002,2021_Oct_29_1145,localizer,2021.1.3,61.517337323281296,
block,scenes,scenes071.bmp,,,,,0,227,227,227,,,,,,,,,,,,,,,,,,,,,,,,,,,,,,,,,,,,,,,,,,None,,784.2698294200003,None,784.2698294200003,None,2021-10-29-11:57:50.224401,784.2710005999543,784.5865223999135,784.2710005999543,None,None,784.2710005999543,None,785.0859995196573,None,,,,12007,0002,2021_Oct_29_1145,localizer,2021.1.3,61.517337323281296,
block_end,scenes,scenes089.bmp,,,,,0,228,228,228,,,,,,,,,,,,,,,,,,,,,,,,,,,,,,,,,,,,,,,,,,None,,785.0859995196573,None,785.0859995196573,None,2021-10-29-11:57:51.040395,785.0959423999302,785.403302999679,785.0959423999302,None,None,785.0959423999302,None,785.9035301200114,None,,,,12007,0002,2021_Oct_29_1145,localizer,2021.1.3,61.517337323281296,
block_start,faces,faces014.bmp,,,,,0,229,229,229,,,,,,,,,,,,,,,,,,,,,,,,,,,,,,,,,,,,,,,,,,t,1.7782220002263784,785.9039602996781,None,785.9039602996781,None,2021-10-29-11:57:53.659122,787.7049187999219,788.0200121998787,787.7049187999219,None,None,787.7049187999219,None,788.5198814199306,None,,,,12007,0002,2021_Oct_29_1145,localizer,2021.1.3,61.517337323281296,
block,faces,faces024.bmp,,,,,0,230,230,230,,,,,,,,,,,,,,,,,,,,,,,,,,,,,,,,,,,,,,,,,,None,,788.5198814199306,None,788.5198814199306,None,2021-10-29-11:57:54.475277,788.5214547999203,788.8436301997863,788.5214547999203,None,y,788.5214547999203,None,789.3359541200101,None,0.6258853999897838,,,12007,0002,2021_Oct_29_1145,localizer,2021.1.3,61.517337323281296,
block,faces,faces024.bmp,,,,,0,231,231,231,,,,,,,,,,,,,,,,,,,,,,,,,,,,,,,,,,,,,,,,,,None,,789.3359541200101,None,789.3359541200101,None,2021-10-29-11:57:55.290367,789.3379600998014,789.6534559000283,789.3379600998014,None,None,789.3379600998014,None,790.1531181196682,None,,,,12007,0002,2021_Oct_29_1145,localizer,2021.1.3,61.517337323281296,
block,faces,faces040.bmp,,,,,0,232,232,232,,,,,,,,,,,,,,,,,,,,,,,,,,,,,,,,,,,,,,,,,,None,,790.1531181196682,None,790.1531181196682,None,2021-10-29-11:57:56.107525,790.1542437998578,790.4697957998142,790.1542437998578,None,None,790.1542437998578,None,790.9696987197734,None,,,,12007,0002,2021_Oct_29_1145,localizer,2021.1.3,61.517337323281296,
block,faces,faces058.bmp,,,,,0,233,233,233,,,,,,,,,,,,,,,,,,,,,,,,,,,,,,,,,,,,,,,,,,None,,790.9696987197734,None,790.9696987197734,None,2021-10-29-11:57:56.924111,790.9823236996308,791.2872444000095,790.9823236996308,None,None,790.9823236996308,None,791.7871333198622,None,,,,12007,0002,2021_Oct_29_1145,localizer,2021.1.3,61.517337323281296,
block,faces,faces080.bmp,,,,,0,234,234,234,,,,,,,,,,,,,,,,,,,,,,,,,,,,,,,,,,,,,,,,,,None,,791.7871333198622,None,791.7871333198622,None,2021-10-29-11:57:57.742531,791.7917204997502,792.103773899842,791.7917204997502,None,None,791.7917204997502,None,792.6035554200411,None,,,,12007,0002,2021_Oct_29_1145,localizer,2021.1.3,61.517337323281296,
block,faces,faces054.bmp,,,,,0,235,235,235,,,,,,,,,,,,,,,,,,,,,,,,,,,,,,,,,,,,,,,,,,None,,792.6035554200411,None,792.6035554200411,None,2021-10-29-11:57:58.559249,792.606779600028,792.920682199765,792.606779600028,None,None,792.606779600028,None,793.4204214197583,None,,,,12007,0002,2021_Oct_29_1145,localizer,2021.1.3,61.517337323281296,
block,faces,faces089.bmp,,,,,0,236,236,236,,,,,,,,,,,,,,,,,,,,,,,,,,,,,,,,,,,,,,,,,,None,,793.4204214197583,None,793.4204214197583,None,2021-10-29-11:57:59.375807,793.4228033996187,793.7363155996427,793.4228033996187,None,None,793.4228033996187,None,794.221943519637,None,,,,12007,0002,2021_Oct_29_1145,localizer,2021.1.3,61.517337323281296,
block,faces,faces042.bmp,,,,,0,237,237,237,,,,,,,,,,,,,,,,,,,,,,,,,,,,,,,,,,,,,,,,,,None,,794.221943519637,None,794.221943519637,None,2021-10-29-11:58:00.182391,794.2298884997144,794.5370096997358,794.2298884997144,794.2298884997144,None,794.2298884997144,794.2298884997144,795.0366097196005,None,,,,12007,0002,2021_Oct_29_1145,localizer,2021.1.3,61.517337323281296,
block,faces,faces041.bmp,,,,,0,238,238,238,,,,,,,,,,,,,,,,,,,,,,,,,,,,,,,,,,,,,,,,,,None,,795.0366097196005,None,795.0366097196005,None,2021-10-29-11:58:00.991233,795.0375923998654,795.3436110997573,795.0375923998654,None,None,795.0375923998654,None,795.8370753196999,None,,,,12007,0002,2021_Oct_29_1145,localizer,2021.1.3,61.517337323281296,
block,faces,faces021.bmp,,,,,0,239,239,239,,,,,,,,,,,,,,,,,,,,,,,,,,,,,,,,,,,,,,,,,,None,,795.8370753196999,None,795.8370753196999,None,2021-10-29-11:58:01.794485,795.84043319989,796.1539755999111,795.84043319989,795.84043319989,None,795.84043319989,795.84043319989,796.65367531972,None,,,,12007,0002,2021_Oct_29_1145,localizer,2021.1.3,61.517337323281296,
block,faces,faces065.bmp,,,,,0,240,240,240,,,,,,,,,,,,,,,,,,,,,,,,,,,,,,,,,,,,,,,,,,None,,796.65367531972,None,796.65367531972,None,2021-10-29-11:58:02.609275,796.6547071998939,796.9529597996734,796.6547071998939,None,None,796.6547071998939,None,797.470265319664,None,,,,12007,0002,2021_Oct_29_1145,localizer,2021.1.3,61.517337323281296,
block,faces,faces052.bmp,,,,,0,241,241,241,,,,,,,,,,,,,,,,,,,,,,,,,,,,,,,,,,,,,,,,,,None,,797.470265319664,None,797.470265319664,None,2021-10-29-11:58:03.425683,797.4713761997409,797.7871051998809,797.4713761997409,None,None,797.4713761997409,None,798.2867008197121,None,,,,12007,0002,2021_Oct_29_1145,localizer,2021.1.3,61.517337323281296,
block,faces,faces043.bmp,,,,,0,242,242,242,,,,,,,,,,,,,,,,,,,,,,,,,,,,,,,,,,,,,,,,,,None,,798.2867008197121,None,798.2867008197121,None,2021-10-29-11:58:04.242129,798.3003991995938,798.6034586997703,798.3003991995938,None,None,798.3003991995938,None,799.1028950196691,None,,,,12007,0002,2021_Oct_29_1145,localizer,2021.1.3,61.517337323281296,
block_end,faces,faces069.bmp,,,,,0,243,243,243,,,,,,,,,,,,,,,,,,,,,,,,,,,,,,,,,,,,,,,,,,None,,799.1028950196691,None,799.1028950196691,None,2021-10-29-11:58:05.057684,799.1043654000387,799.4212381998077,799.1043654000387,None,None,799.1043654000387,None,799.9189505196176,None,,,,12007,0002,2021_Oct_29_1145,localizer,2021.1.3,61.517337323281296,
,,,,,,,,,,,,,,,,,,,,,,,,,,,,,,,,,,,,,,,,,,,,,,,,,,,,,,,,,,,,,,,,,,,,,799.9195057996549,None,,,,,,,
