block_type,condition,img_name,Button.thisRepN,Button.thisTrialN,Button.thisN,Button.thisIndex,trials.thisRepN,trials.thisTrialN,trials.thisN,trials.thisIndex,Ready_experimenter_text.started,Ready_experimenter_text.stopped,Ready_experimenter_resp.keys,Ready_experimenter_resp.rt,Ready_experimenter_resp.started,Ready_experimenter_resp.stopped,Alignment_background.started,Alignment_background.stopped,Alignment_image.started,Alignment_image.stopped,Alignment_resp.keys,Alignment_resp.rt,Alignment_resp.started,Alignment_resp.stopped,Button_text.started,Button_text.stopped,Index_text.started,Index_text.stopped,Index_resp.keys,Index_resp.rt,Index_resp.started,Index_resp.stopped,Middle_text.started,Middle_text.stopped,Middle_resp.keys,Middle_resp.rt,Middle_resp.started,Middle_resp.stopped,Repeat_text.started,Repeat_text.stopped,Repeat_resp.keys,Repeat_resp.corr,Repeat_resp.rt,Repeat_resp.started,Repeat_resp.stopped,instruction_text.started,instruction_text.stopped,key_resp.keys,key_resp.rt,key_resp.started,key_resp.stopped,scanner_t.keys,scanner_t.rt,scanner_t.started,scanner_t.stopped,fixation_wait_for_t.started,fixation_wait_for_t.stopped,real_timestamp_trial_start,image.started,image.stopped,fixation.started,fixation.stopped,repeat_response.keys,repeat_response.started,repeat_response.stopped,fixation_null.started,fixation_null.stopped,repeat_response.rt,end_text.started,end_text.stopped,participant,run,date,expName,psychopyVersion,frameRate,
,,,,,,,,,,,13.310122599825263,None,return,480.5686898001004,13.310122599825263,None,,,,,,,,,,,,,,,,,,,,,,,,,,,,,,,,,,,,,,,,,,,,,,,,,,,,,,,12012,0002,2022_Feb_22_1503,localizer,2021.1.3,60.45481368299659,
,,,,,,,,,,,,,,,,,493.91990639991127,None,493.91990639991127,None,return,1.2234904000069946,493.91990639991127,None,,,,,,,,,,,,,,,,,,,,,,,,,,,,,,,,,,,,,,,,,,,,,,,12012,0002,2022_Feb_22_1503,localizer,2021.1.3,60.45481368299659,
,,,0,0,0,0,,,,,,,,,,,,,,,,,,,495.1672362999525,None,496.16665509995073,None,y,1.3299742001108825,496.16665509995073,None,497.51653549983166,None,b,2.233498200075701,497.51653549983166,None,499.76726779993623,None,n,0,18.024200199870393,499.76726779993623,None,,,,,,,,,,,,,,,,,,,,,,,,,,12012,0002,2022_Feb_22_1503,localizer,2021.1.3,60.45481368299659,
,,,,,,,,,,,,,,,,,,,,,,,,,,,,,,,,,,,,,,,,,,,,,,517.8173377998173,None,y,6.770310099935159,517.8173377998173,None,,,,,,,,,,,,,,,,,,,,12012,0002,2022_Feb_22_1503,localizer,2021.1.3,60.45481368299659,
block_start,faces,faces018.bmp,,,,,0,0,0,0,,,,,,,,,,,,,,,,,,,,,,,,,,,,,,,,,,,,,,,,,,t,15.88973779999651,524.6493122999091,None,524.6493122999091,None,2022-02-22-15:12:01.791669,540.5726955998689,540.88347469992,540.5726955998689,None,None,540.5726955998689,None,541.3845140798716,None,,,,12012,0002,2022_Feb_22_1503,localizer,2021.1.3,60.45481368299659,
block,faces,faces083.bmp,,,,,0,1,1,1,,,,,,,,,,,,,,,,,,,,,,,,,,,,,,,,,,,,,,,,,,None,,541.3845140798716,None,541.3845140798716,None,2022-02-22-15:12:02.615435,541.3891739000101,541.7001187999267,541.3891739000101,None,None,541.3891739000101,None,542.2005953800166,None,,,,12012,0002,2022_Feb_22_1503,localizer,2021.1.3,60.45481368299659,
block,faces,faces081.bmp,,,,,0,2,2,2,,,,,,,,,,,,,,,,,,,,,,,,,,,,,,,,,,,,,,,,,,None,,542.2005953800166,None,542.2005953800166,None,2022-02-22-15:12:03.428394,542.2122317999601,542.5167522998527,542.2122317999601,None,None,542.2122317999601,None,543.0168577800272,None,,,,12012,0002,2022_Feb_22_1503,localizer,2021.1.3,60.45481368299659,
block,faces,faces067.bmp,,,,,0,3,3,3,,,,,,,,,,,,,,,,,,,,,,,,,,,,,,,,,,,,,,,,,,None,,543.0168577800272,None,543.0168577800272,None,2022-02-22-15:12:04.244876,543.0176387999672,543.3169384000357,543.0176387999672,None,None,543.0176387999672,None,543.8172266799724,None,,,,12012,0002,2022_Feb_22_1503,localizer,2021.1.3,60.45481368299659,
block,faces,faces035.bmp,,,,,0,4,4,4,,,,,,,,,,,,,,,,,,,,,,,,,,,,,,,,,,,,,,,,,,None,,543.8172266799724,None,543.8172266799724,None,2022-02-22-15:12:05.047211,543.83078869991,544.1337943000253,543.83078869991,543.83078869991,None,543.83078869991,543.83078869991,544.6328040798893,None,,,,12012,0002,2022_Feb_22_1503,localizer,2021.1.3,60.45481368299659,
block,faces,faces026.bmp,,,,,0,5,5,5,,,,,,,,,,,,,,,,,,,,,,,,,,,,,,,,,,,,,,,,,,None,,544.6328040798893,None,544.6328040798893,None,2022-02-22-15:12:05.859622,544.6350809000432,544.9500114999246,544.6350809000432,None,None,544.6350809000432,None,545.4502238798653,None,,,,12012,0002,2022_Feb_22_1503,localizer,2021.1.3,60.45481368299659,
block,faces,faces029.bmp,,,,,0,6,6,6,,,,,,,,,,,,,,,,,,,,,,,,,,,,,,,,,,,,,,,,,,None,,545.4502238798653,None,545.4502238798653,None,2022-02-22-15:12:06.678261,545.4604807998985,545.7671335998457,545.4604807998985,None,None,545.4604807998985,None,546.2671047800453,None,,,,12012,0002,2022_Feb_22_1503,localizer,2021.1.3,60.45481368299659,
block,faces,faces079.bmp,,,,,0,7,7,7,,,,,,,,,,,,,,,,,,,,,,,,,,,,,,,,,,,,,,,,,,None,,546.2671047800453,None,546.2671047800453,None,2022-02-22-15:12:07.494914,546.277792799985,546.5834508000407,546.277792799985,None,None,546.277792799985,None,547.0832464799518,None,,,,12012,0002,2022_Feb_22_1503,localizer,2021.1.3,60.45481368299659,
block,faces,faces042.bmp,,,,,0,8,8,8,,,,,,,,,,,,,,,,,,,,,,,,,,,,,,,,,,,,,,,,,,None,,547.0832464799518,None,547.0832464799518,None,2022-02-22-15:12:08.310068,547.0850017999765,547.4000130998902,547.0850017999765,None,None,547.0850017999765,None,547.9000855800463,None,,,,12012,0002,2022_Feb_22_1503,localizer,2021.1.3,60.45481368299659,
block,faces,faces044.bmp,,,,,0,9,9,9,,,,,,,,,,,,,,,,,,,,,,,,,,,,,,,,,,,,,,,,,,None,,547.9000855800463,None,547.9000855800463,None,2022-02-22-15:12:09.126904,547.9018808999099,548.2168268999085,547.9018808999099,None,None,547.9018808999099,None,548.717316279863,None,,,,12012,0002,2022_Feb_22_1503,localizer,2021.1.3,60.45481368299659,
block,faces,faces069.bmp,,,,,0,10,10,10,,,,,,,,,,,,,,,,,,,,,,,,,,,,,,,,,,,,,,,,,,None,,548.717316279863,None,548.717316279863,None,2022-02-22-15:12:09.945307,548.7280472998973,549.0337962999474,548.7280472998973,None,None,548.7280472998973,None,549.5335031798808,None,,,,12012,0002,2022_Feb_22_1503,localizer,2021.1.3,60.45481368299659,
block,faces,faces045.bmp,,,,,0,11,11,11,,,,,,,,,,,,,,,,,,,,,,,,,,,,,,,,,,,,,,,,,,None,,549.5335031798808,None,549.5335031798808,None,2022-02-22-15:12:10.760329,549.5354012998287,549.8507719999179,549.5354012998287,None,None,549.5354012998287,None,550.3506907799514,None,,,,12012,0002,2022_Feb_22_1503,localizer,2021.1.3,60.45481368299659,
block,faces,faces016.bmp,,,,,0,12,12,12,,,,,,,,,,,,,,,,,,,,,,,,,,,,,,,,,,,,,,,,,,None,,550.3506907799514,None,550.3506907799514,None,2022-02-22-15:12:11.577601,550.3592081000097,550.6667722999118,550.3592081000097,None,None,550.3592081000097,None,551.166988679883,None,,,,12012,0002,2022_Feb_22_1503,localizer,2021.1.3,60.45481368299659,
block,faces,faces060.bmp,,,,,0,13,13,13,,,,,,,,,,,,,,,,,,,,,,,,,,,,,,,,,,,,,,,,,,None,,551.166988679883,None,551.166988679883,None,2022-02-22-15:12:12.394809,551.1768557999749,551.4833843000233,551.1768557999749,None,None,551.1768557999749,None,551.9838727798546,None,,,,12012,0002,2022_Feb_22_1503,localizer,2021.1.3,60.45481368299659,
block_end,faces,faces014.bmp,,,,,0,14,14,14,,,,,,,,,,,,,,,,,,,,,,,,,,,,,,,,,,,,,,,,,,None,,551.9838727798546,None,551.9838727798546,None,2022-02-22-15:12:13.211690,551.9937859999482,552.3063683998771,551.9937859999482,None,None,551.9937859999482,None,552.7997548798797,None,,,,12012,0002,2022_Feb_22_1503,localizer,2021.1.3,60.45481368299659,
null_block,null_block,null_block.bmp,,,,,0,15,15,15,,,,,,,,,,,,,,,,,,,,,,,,,,,,,,,,,,,,,,,,,,t,1.7380838000681251,552.7998359999619,None,552.7998359999619,None,2022-02-22-15:12:15.794730,554.5669378798688,None,554.5669378798688,None,None,554.5669378798688,None,554.5695203000214,None,,,,12012,0002,2022_Feb_22_1503,localizer,2021.1.3,60.45481368299659,
block_start,scrambled,scrambled028.bmp,,,,,0,16,16,16,,,,,,,,,,,,,,,,,,,,,,,,,,,,,,,,,,,,,,,,,,t,1.954175400082022,566.583617300028,None,566.583617300028,None,2022-02-22-15:12:29.799011,568.5796077998821,568.8834679999854,568.5796077998821,None,None,568.5796077998821,None,569.3833654799731,None,,,,12012,0002,2022_Feb_22_1503,localizer,2021.1.3,60.45481368299659,
block,scrambled,scrambled008.bmp,,,,,0,17,17,17,,,,,,,,,,,,,,,,,,,,,,,,,,,,,,,,,,,,,,,,,,None,,569.3833654799731,None,569.3833654799731,None,2022-02-22-15:12:30.610216,569.3866879998241,569.6996746000368,569.3866879998241,None,None,569.3866879998241,None,570.200268379855,None,,,,12012,0002,2022_Feb_22_1503,localizer,2021.1.3,60.45481368299659,
block,scrambled,scrambled025.bmp,,,,,0,18,18,18,,,,,,,,,,,,,,,,,,,,,,,,,,,,,,,,,,,,,,,,,,None,,570.200268379855,None,570.200268379855,None,2022-02-22-15:12:31.427136,570.202261999948,570.5176685999613,570.202261999948,None,None,570.202261999948,None,571.0015107800485,None,,,,12012,0002,2022_Feb_22_1503,localizer,2021.1.3,60.45481368299659,
block,scrambled,scrambled038.bmp,,,,,0,19,19,19,,,,,,,,,,,,,,,,,,,,,,,,,,,,,,,,,,,,,,,,,,None,,571.0015107800485,None,571.0015107800485,None,2022-02-22-15:12:32.232986,571.0120395999402,571.3167391000316,571.0120395999402,571.0120395999402,None,571.0120395999402,571.0120395999402,571.8179991799174,None,,,,12012,0002,2022_Feb_22_1503,localizer,2021.1.3,60.45481368299659,
block,scrambled,scrambled019.bmp,,,,,0,20,20,20,,,,,,,,,,,,,,,,,,,,,,,,,,,,,,,,,,,,,,,,,,None,,571.8179991799174,None,571.8179991799174,None,2022-02-22-15:12:33.045834,571.8184615999926,572.1336405999027,571.8184615999926,None,None,571.8184615999926,None,572.6182343798922,None,,,,12012,0002,2022_Feb_22_1503,localizer,2021.1.3,60.45481368299659,
block,scrambled,scrambled036.bmp,,,,,0,21,21,21,,,,,,,,,,,,,,,,,,,,,,,,,,,,,,,,,,,,,,,,,,None,,572.6182343798922,None,572.6182343798922,None,2022-02-22-15:12:33.851053,572.6342489998788,572.9341708999127,572.6342489998788,572.6342489998788,None,572.6342489998788,572.6342489998788,573.4333248799434,None,,,,12012,0002,2022_Feb_22_1503,localizer,2021.1.3,60.45481368299659,
block,scrambled,scrambled039.bmp,,,,,0,22,22,22,,,,,,,,,,,,,,,,,,,,,,,,,,,,,,,,,,,,,,,,,,None,,573.4333248799434,None,573.4333248799434,None,2022-02-22-15:12:34.660179,573.442420499865,573.7502280999906,573.442420499865,None,None,573.442420499865,None,574.2507379799848,None,,,,12012,0002,2022_Feb_22_1503,localizer,2021.1.3,60.45481368299659,
block,scrambled,scrambled064.bmp,,,,,0,23,23,23,,,,,,,,,,,,,,,,,,,,,,,,,,,,,,,,,,,,,,,,,,None,,574.2507379799848,None,574.2507379799848,None,2022-02-22-15:12:35.478584,574.2609243998304,574.5669046000112,574.2609243998304,None,None,574.2609243998304,None,575.067132979841,None,,,,12012,0002,2022_Feb_22_1503,localizer,2021.1.3,60.45481368299659,
block,scrambled,scrambled060.bmp,,,,,0,24,24,24,,,,,,,,,,,,,,,,,,,,,,,,,,,,,,,,,,,,,,,,,,None,,575.067132979841,None,575.067132979841,None,2022-02-22-15:12:36.294976,575.0680529999081,575.3834653999656,575.0680529999081,None,None,575.0680529999081,None,575.8835904798237,None,,,,12012,0002,2022_Feb_22_1503,localizer,2021.1.3,60.45481368299659,
block,scrambled,scrambled060.bmp,,,,,0,25,25,25,,,,,,,,,,,,,,,,,,,,,,,,,,,,,,,,,,,,,,,,,,None,,575.8835904798237,None,575.8835904798237,None,2022-02-22-15:12:37.111516,575.8844474998768,576.1839670999907,575.8844474998768,None,None,575.8844474998768,None,576.6848578799749,None,,,,12012,0002,2022_Feb_22_1503,localizer,2021.1.3,60.45481368299659,
block,scrambled,scrambled002.bmp,,,,,0,26,26,26,,,,,,,,,,,,,,,,,,,,,,,,,,,,,,,,,,,,,,,,,,None,,576.6848578799749,None,576.6848578799749,None,2022-02-22-15:12:37.917686,576.6893620998599,577.0000758999959,576.6893620998599,576.6893620998599,None,576.6893620998599,576.6893620998599,577.5003146799048,None,,,,12012,0002,2022_Feb_22_1503,localizer,2021.1.3,60.45481368299659,
block,scrambled,scrambled013.bmp,,,,,0,27,27,27,,,,,,,,,,,,,,,,,,,,,,,,,,,,,,,,,,,,,,,,,,None,,577.5003146799048,None,577.5003146799048,None,2022-02-22-15:12:38.727153,577.5096040000208,577.817068599863,577.5096040000208,None,None,577.5096040000208,None,578.3168692800449,None,,,,12012,0002,2022_Feb_22_1503,localizer,2021.1.3,60.45481368299659,
block,scrambled,scrambled016.bmp,,,,,0,28,28,28,,,,,,,,,,,,,,,,,,,,,,,,,,,,,,,,,,,,,,,,,,None,,578.3168692800449,None,578.3168692800449,None,2022-02-22-15:12:39.543725,578.3258916998748,578.6340339998715,578.3258916998748,None,None,578.3258916998748,None,579.1336148800095,None,,,,12012,0002,2022_Feb_22_1503,localizer,2021.1.3,60.45481368299659,
block,scrambled,scrambled082.bmp,,,,,0,29,29,29,,,,,,,,,,,,,,,,,,,,,,,,,,,,,,,,,,,,,,,,,,None,,579.1336148800095,None,579.1336148800095,None,2022-02-22-15:12:40.360401,579.1427889999468,579.4503662998322,579.1427889999468,None,None,579.1427889999468,None,579.9497786799678,None,,,,12012,0002,2022_Feb_22_1503,localizer,2021.1.3,60.45481368299659,
block_end,scrambled,scrambled032.bmp,,,,,0,30,30,30,,,,,,,,,,,,,,,,,,,,,,,,,,,,,,,,,,,,,,,,,,None,,579.9497786799678,None,579.9497786799678,None,2022-02-22-15:12:41.177285,579.9541364000179,580.2677297999617,579.9541364000179,None,None,579.9541364000179,None,580.7678502800176,None,,,,12012,0002,2022_Feb_22_1503,localizer,2021.1.3,60.45481368299659,
block_start,objects,objects044.bmp,,,,,0,31,31,31,,,,,,,,,,,,,,,,,,,,,,,,,,,,,,,,,,,,,,,,,,t,1.7698784999083728,580.7680142999161,None,580.7680142999161,None,2022-02-22-15:12:43.794541,582.5766410999931,582.8842138999607,582.5766410999931,None,None,582.5766410999931,None,583.3835000798339,None,,,,12012,0002,2022_Feb_22_1503,localizer,2021.1.3,60.45481368299659,
block,objects,objects046.bmp,,,,,0,32,32,32,,,,,,,,,,,,,,,,,,,,,,,,,,,,,,,,,,,,,,,,,,None,,583.3835000798339,None,583.3835000798339,None,2022-02-22-15:12:44.610368,583.3855774998665,583.7004078000318,583.3855774998665,None,None,583.3855774998665,None,584.2004857798805,None,,,,12012,0002,2022_Feb_22_1503,localizer,2021.1.3,60.45481368299659,
block,objects,objects021.bmp,,,,,0,33,33,33,,,,,,,,,,,,,,,,,,,,,,,,,,,,,,,,,,,,,,,,,,None,,584.2004857798805,None,584.2004857798805,None,2022-02-22-15:12:45.427128,584.2020826998632,584.5172141999938,584.2020826998632,None,None,584.2020826998632,None,585.001122379885,None,,,,12012,0002,2022_Feb_22_1503,localizer,2021.1.3,60.45481368299659,
block,objects,objects001.bmp,,,,,0,34,34,34,,,,,,,,,,,,,,,,,,,,,,,,,,,,,,,,,,,,,,,,,,None,,585.001122379885,None,585.001122379885,None,2022-02-22-15:12:46.231169,585.0135370998178,585.3169322998729,585.0135370998178,585.0135370998178,None,585.0135370998178,585.0135370998178,585.817591379839,None,,,,12012,0002,2022_Feb_22_1503,localizer,2021.1.3,60.45481368299659,
block,objects,objects053.bmp,,,,,0,35,35,35,,,,,,,,,,,,,,,,,,,,,,,,,,,,,,,,,,,,,,,,,,None,,585.817591379839,None,585.817591379839,None,2022-02-22-15:12:47.045627,585.8284193999134,586.1336638999637,585.8284193999134,None,None,585.8284193999134,None,586.6339376799064,None,,,,12012,0002,2022_Feb_22_1503,localizer,2021.1.3,60.45481368299659,
block,objects,objects018.bmp,,,,,0,36,36,36,,,,,,,,,,,,,,,,,,,,,,,,,,,,,,,,,,,,,,,,,,None,,586.6339376799064,None,586.6339376799064,None,2022-02-22-15:12:47.862081,586.6345325999428,586.9374469998293,586.6345325999428,None,None,586.6345325999428,None,587.4504264800111,None,,,,12012,0002,2022_Feb_22_1503,localizer,2021.1.3,60.45481368299659,
block,objects,objects017.bmp,,,,,0,37,37,37,,,,,,,,,,,,,,,,,,,,,,,,,,,,,,,,,,,,,,,,,,None,,587.4504264800111,None,587.4504264800111,None,2022-02-22-15:12:48.677318,587.4605977998581,587.7673392000142,587.4605977998581,None,None,587.4605977998581,None,588.26748057988,None,,,,12012,0002,2022_Feb_22_1503,localizer,2021.1.3,60.45481368299659,
block,objects,objects032.bmp,,,,,0,38,38,38,,,,,,,,,,,,,,,,,,,,,,,,,,,,,,,,,,,,,,,,,,None,,588.26748057988,None,588.26748057988,None,2022-02-22-15:12:49.495338,588.2772401999682,588.5834933000151,588.2772401999682,None,None,588.2772401999682,None,589.0843281799229,None,,,,12012,0002,2022_Feb_22_1503,localizer,2021.1.3,60.45481368299659,
block,objects,objects024.bmp,,,,,0,39,39,39,,,,,,,,,,,,,,,,,,,,,,,,,,,,,,,,,,,,,,,,,,None,,589.0843281799229,None,589.0843281799229,None,2022-02-22-15:12:50.312154,589.0853389999829,589.3868866998237,589.0853389999829,None,None,589.0853389999829,None,589.8846977799898,None,,,,12012,0002,2022_Feb_22_1503,localizer,2021.1.3,60.45481368299659,
block,objects,objects029.bmp,,,,,0,40,40,40,,,,,,,,,,,,,,,,,,,,,,,,,,,,,,,,,,,,,,,,,,None,,589.8846977799898,None,589.8846977799898,None,2022-02-22-15:12:51.116568,589.8989700998645,590.2006804000121,589.8989700998645,589.8989700998645,None,589.8989700998645,589.8989700998645,590.7000287798932,None,,,,12012,0002,2022_Feb_22_1503,localizer,2021.1.3,60.45481368299659,
block,objects,objects050.bmp,,,,,0,41,41,41,,,,,,,,,,,,,,,,,,,,,,,,,,,,,,,,,,,,,,,,,,None,,590.7000287798932,None,590.7000287798932,None,2022-02-22-15:12:51.926903,590.7015896998346,591.0165819998365,590.7015896998346,None,None,590.7015896998346,None,591.5007684798678,None,,,,12012,0002,2022_Feb_22_1503,localizer,2021.1.3,60.45481368299659,
block,objects,objects004.bmp,,,,,0,42,42,42,,,,,,,,,,,,,,,,,,,,,,,,,,,,,,,,,,,,,,,,,,None,,591.5007684798678,None,591.5007684798678,None,2022-02-22-15:12:52.730696,591.5020975999068,591.817565199919,591.5020975999068,591.5020975999068,None,591.5020975999068,591.5020975999068,592.3169931799406,None,,,,12012,0002,2022_Feb_22_1503,localizer,2021.1.3,60.45481368299659,
block,objects,objects049.bmp,,,,,0,43,43,43,,,,,,,,,,,,,,,,,,,,,,,,,,,,,,,,,,,,,,,,,,None,,592.3169931799406,None,592.3169931799406,None,2022-02-22-15:12:53.543683,592.3276982000098,592.6341386998538,592.3276982000098,None,None,592.3276982000098,None,593.1342263798928,None,,,,12012,0002,2022_Feb_22_1503,localizer,2021.1.3,60.45481368299659,
block,objects,objects060.bmp,,,,,0,44,44,44,,,,,,,,,,,,,,,,,,,,,,,,,,,,,,,,,,,,,,,,,,None,,593.1342263798928,None,593.1342263798928,None,2022-02-22-15:12:54.362091,593.1456410998944,593.4502631998621,593.1456410998944,None,None,593.1456410998944,None,593.9500799800502,None,,,,12012,0002,2022_Feb_22_1503,localizer,2021.1.3,60.45481368299659,
block_end,objects,objects033.bmp,,,,,0,45,45,45,,,,,,,,,,,,,,,,,,,,,,,,,,,,,,,,,,,,,,,,,,None,,593.9500799800502,None,593.9500799800502,None,2022-02-22-15:12:55.176958,593.9516626999248,594.2673171998467,593.9516626999248,None,None,593.9516626999248,None,594.7511145798256,None,,,,12012,0002,2022_Feb_22_1503,localizer,2021.1.3,60.45481368299659,
block_start,scenes,scenes061.bmp,,,,,0,46,46,46,,,,,,,,,,,,,,,,,,,,,,,,,,,,,,,,,,,,,,,,,,t,1.7866356999147683,594.751211399911,None,594.751211399911,None,2022-02-22-15:12:57.795644,596.5686229998246,596.8676471998915,596.5686229998246,None,None,596.5686229998246,None,597.3733627798268,None,,,,12012,0002,2022_Feb_22_1503,localizer,2021.1.3,60.45481368299659,
block,scenes,scenes048.bmp,,,,,0,47,47,47,,,,,,,,,,,,,,,,,,,,,,,,,,,,,,,,,,,,,,,,,,None,,597.3733627798268,None,597.3733627798268,None,2022-02-22-15:12:58.608211,597.381241499912,597.6836661999114,597.381241499912,None,None,597.381241499912,None,598.183906379831,None,,,,12012,0002,2022_Feb_22_1503,localizer,2021.1.3,60.45481368299659,
block,scenes,scenes010.bmp,,,,,0,48,48,48,,,,,,,,,,,,,,,,,,,,,,,,,,,,,,,,,,,,,,,,,,None,,598.183906379831,None,598.183906379831,None,2022-02-22-15:12:59.411781,598.1848619999364,598.5005856999196,598.1848619999364,None,None,598.1848619999364,None,599.0005567800021,None,,,,12012,0002,2022_Feb_22_1503,localizer,2021.1.3,60.45481368299659,
block,scenes,scenes086.bmp,,,,,0,49,49,49,,,,,,,,,,,,,,,,,,,,,,,,,,,,,,,,,,,,,,,,,,None,,599.0005567800021,None,599.0005567800021,None,2022-02-22-15:13:00.227437,599.0065415999852,599.3168919999152,599.0065415999852,None,None,599.0065415999852,None,599.8172504799207,None,,,,12012,0002,2022_Feb_22_1503,localizer,2021.1.3,60.45481368299659,
block,scenes,scenes036.bmp,,,,,0,50,50,50,,,,,,,,,,,,,,,,,,,,,,,,,,,,,,,,,,,,,,,,,,None,,599.8172504799207,None,599.8172504799207,None,2022-02-22-15:13:01.045126,599.8265155998524,600.1339316000231,599.8265155998524,None,None,599.8265155998524,None,600.6343163798796,None,,,,12012,0002,2022_Feb_22_1503,localizer,2021.1.3,60.45481368299659,
block,scenes,scenes076.bmp,,,,,0,51,51,51,,,,,,,,,,,,,,,,,,,,,,,,,,,,,,,,,,,,,,,,,,None,,600.6343163798796,None,600.6343163798796,None,2022-02-22-15:13:01.862355,600.6442302998621,600.9507901000325,600.6442302998621,None,None,600.6442302998621,None,601.4502429798944,None,,,,12012,0002,2022_Feb_22_1503,localizer,2021.1.3,60.45481368299659,
block,scenes,scenes008.bmp,,,,,0,52,52,52,,,,,,,,,,,,,,,,,,,,,,,,,,,,,,,,,,,,,,,,,,None,,601.4502429798944,None,601.4502429798944,None,2022-02-22-15:13:02.677126,601.4515982000157,601.7671688999981,601.4515982000157,None,None,601.4515982000157,None,602.2512171799084,None,,,,12012,0002,2022_Feb_22_1503,localizer,2021.1.3,60.45481368299659,
block,scenes,scenes020.bmp,,,,,0,53,53,53,,,,,,,,,,,,,,,,,,,,,,,,,,,,,,,,,,,,,,,,,,None,,602.2512171799084,None,602.2512171799084,None,2022-02-22-15:13:03.481282,602.2648269999772,602.5671427999623,602.2648269999772,602.2648269999772,None,602.2648269999772,602.2648269999772,603.0676038800506,None,,,,12012,0002,2022_Feb_22_1503,localizer,2021.1.3,60.45481368299659,
block,scenes,scenes066.bmp,,,,,0,54,54,54,,,,,,,,,,,,,,,,,,,,,,,,,,,,,,,,,,,,,,,,,,None,,603.0676038800506,None,603.0676038800506,None,2022-02-22-15:13:04.295619,603.0783078998793,603.3836798998527,603.0783078998793,None,None,603.0783078998793,None,603.8843593799742,None,,,,12012,0002,2022_Feb_22_1503,localizer,2021.1.3,60.45481368299659,
block,scenes,scenes077.bmp,,,,,0,55,55,55,,,,,,,,,,,,,,,,,,,,,,,,,,,,,,,,,,,,,,,,,,None,,603.8843593799742,None,603.8843593799742,None,2022-02-22-15:13:05.112232,603.895179099869,604.2003845998552,603.895179099869,None,None,603.895179099869,None,604.7003658800153,None,,,,12012,0002,2022_Feb_22_1503,localizer,2021.1.3,60.45481368299659,
block,scenes,scenes033.bmp,,,,,0,56,56,56,,,,,,,,,,,,,,,,,,,,,,,,,,,,,,,,,,,,,,,,,,None,,604.7003658800153,None,604.7003658800153,None,2022-02-22-15:13:05.927256,604.7098056999967,605.0174884998705,604.7098056999967,None,None,604.7098056999967,None,605.5178906798595,None,,,,12012,0002,2022_Feb_22_1503,localizer,2021.1.3,60.45481368299659,
block,scenes,scenes026.bmp,,,,,0,57,57,57,,,,,,,,,,,,,,,,,,,,,,,,,,,,,,,,,,,,,,,,,,None,,605.5178906798595,None,605.5178906798595,None,2022-02-22-15:13:06.746715,605.5187252999749,605.8179102998693,605.5187252999749,None,None,605.5187252999749,None,606.3337579800049,None,,,,12012,0002,2022_Feb_22_1503,localizer,2021.1.3,60.45481368299659,
block,scenes,scenes054.bmp,,,,,0,58,58,58,,,,,,,,,,,,,,,,,,,,,,,,,,,,,,,,,,,,,,,,,,None,,606.3337579800049,None,606.3337579800049,None,2022-02-22-15:13:07.560645,606.3445349999238,606.6506431999151,606.3445349999238,None,None,606.3445349999238,None,607.1507415799191,None,,,,12012,0002,2022_Feb_22_1503,localizer,2021.1.3,60.45481368299659,
block,scenes,scenes024.bmp,,,,,0,59,59,59,,,,,,,,,,,,,,,,,,,,,,,,,,,,,,,,,,,,,,,,,,None,,607.1507415799191,None,607.1507415799191,None,2022-02-22-15:13:08.378519,607.1615165998228,607.4669527998194,607.1615165998228,None,None,607.1615165998228,None,607.9672490800498,None,,,,12012,0002,2022_Feb_22_1503,localizer,2021.1.3,60.45481368299659,
block_end,scenes,scenes017.bmp,,,,,0,60,60,60,,,,,,,,,,,,,,,,,,,,,,,,,,,,,,,,,,,,,,,,,,None,,607.9672490800498,None,607.9672490800498,None,2022-02-22-15:13:09.195544,607.9773688998539,608.2841562000103,607.9773688998539,None,None,607.9773688998539,None,608.7838736800244,None,,,,12012,0002,2022_Feb_22_1503,localizer,2021.1.3,60.45481368299659,
null_block,null_block,null_block.bmp,,,,,0,61,61,61,,,,,,,,,,,,,,,,,,,,,,,,,,,,,,,,,,,,,,,,,,t,1.7540494999848306,608.7838524000254,None,608.7838524000254,None,2022-02-22-15:13:11.794572,610.5674744799966,None,610.5674744799966,None,None,610.5674744799966,None,610.5685749000404,None,,,,12012,0002,2022_Feb_22_1503,localizer,2021.1.3,60.45481368299659,
block_start,scrambled,scrambled070.bmp,,,,,0,62,62,62,,,,,,,,,,,,,,,,,,,,,,,,,,,,,,,,,,,,,,,,,,t,1.9698896000627428,622.5679117999971,None,622.5679117999971,None,2022-02-22-15:13:25.796663,624.5680616998579,624.8721421000082,624.5680616998579,None,None,624.5680616998579,None,625.3838691799668,None,,,,12012,0002,2022_Feb_22_1503,localizer,2021.1.3,60.45481368299659,
block,scrambled,scrambled007.bmp,,,,,0,63,63,63,,,,,,,,,,,,,,,,,,,,,,,,,,,,,,,,,,,,,,,,,,None,,625.3838691799668,None,625.3838691799668,None,2022-02-22-15:13:26.610784,625.3919525998645,625.7008272998501,625.3919525998645,None,None,625.3919525998645,None,626.2018243798287,None,,,,12012,0002,2022_Feb_22_1503,localizer,2021.1.3,60.45481368299659,
block,scrambled,scrambled071.bmp,,,,,0,64,64,64,,,,,,,,,,,,,,,,,,,,,,,,,,,,,,,,,,,,,,,,,,None,,626.2018243798287,None,626.2018243798287,None,2022-02-22-15:13:27.430862,626.2042717000004,626.5171377998777,626.2042717000004,None,None,626.2042717000004,None,627.01735957989,None,,,,12012,0002,2022_Feb_22_1503,localizer,2021.1.3,60.45481368299659,
block,scrambled,scrambled033.bmp,,,,,0,65,65,65,,,,,,,,,,,,,,,,,,,,,,,,,,,,,,,,,,,,,,,,,,None,,627.01735957989,None,627.01735957989,None,2022-02-22-15:13:28.244210,627.0183347000275,627.3339907999616,627.0183347000275,None,None,627.0183347000275,None,627.817947879876,None,,,,12012,0002,2022_Feb_22_1503,localizer,2021.1.3,60.45481368299659,
block,scrambled,scrambled028.bmp,,,,,0,66,66,66,,,,,,,,,,,,,,,,,,,,,,,,,,,,,,,,,,,,,,,,,,None,,627.817947879876,None,627.817947879876,None,2022-02-22-15:13:29.048021,627.820172399981,628.1345053999685,627.820172399981,627.820172399981,None,627.820172399981,627.820172399981,628.6346596800489,None,,,,12012,0002,2022_Feb_22_1503,localizer,2021.1.3,60.45481368299659,
block,scrambled,scrambled088.bmp,,,,,0,67,67,67,,,,,,,,,,,,,,,,,,,,,,,,,,,,,,,,,,,,,,,,,,None,,628.6346596800489,None,628.6346596800489,None,2022-02-22-15:13:29.862560,628.635353300022,628.9346977998503,628.635353300022,None,None,628.635353300022,None,629.4353610798483,None,,,,12012,0002,2022_Feb_22_1503,localizer,2021.1.3,60.45481368299659,
block,scrambled,scrambled053.bmp,,,,,0,68,68,68,,,,,,,,,,,,,,,,,,,,,,,,,,,,,,,,,,,,,,,,,,None,,629.4353610798483,None,629.4353610798483,None,2022-02-22-15:13:30.666430,629.4375185000245,629.7509147999808,629.4375185000245,629.4375185000245,None,629.4375185000245,629.4375185000245,630.2509997798828,None,,,,12012,0002,2022_Feb_22_1503,localizer,2021.1.3,60.45481368299659,
block,scrambled,scrambled058.bmp,,,,,0,69,69,69,,,,,,,,,,,,,,,,,,,,,,,,,,,,,,,,,,,,,,,,,,None,,630.2509997798828,None,630.2509997798828,None,2022-02-22-15:13:31.478931,630.2607974000275,630.5678736998234,630.2607974000275,None,None,630.2607974000275,None,631.068175379862,None,,,,12012,0002,2022_Feb_22_1503,localizer,2021.1.3,60.45481368299659,
block,scrambled,scrambled034.bmp,,,,,0,70,70,70,,,,,,,,,,,,,,,,,,,,,,,,,,,,,,,,,,,,,,,,,,None,,631.068175379862,None,631.068175379862,None,2022-02-22-15:13:32.296077,631.0686916999985,631.3681318999734,631.0686916999985,None,None,631.0686916999985,None,631.8736744799884,None,,,,12012,0002,2022_Feb_22_1503,localizer,2021.1.3,60.45481368299659,
block,scrambled,scrambled081.bmp,,,,,0,71,71,71,,,,,,,,,,,,,,,,,,,,,,,,,,,,,,,,,,,,,,,,,,None,,631.8736744799884,None,631.8736744799884,None,2022-02-22-15:13:33.107379,631.8812893999275,632.1846395998728,631.8812893999275,None,None,631.8812893999275,None,632.6838527798885,None,,,,12012,0002,2022_Feb_22_1503,localizer,2021.1.3,60.45481368299659,
block,scrambled,scrambled047.bmp,,,,,0,72,72,72,,,,,,,,,,,,,,,,,,,,,,,,,,,,,,,,,,,,,,,,,,None,,632.6838527798885,None,632.6838527798885,None,2022-02-22-15:13:33.910769,632.6932333000004,633.000647299923,632.6932333000004,None,None,632.6932333000004,None,633.5007203798508,None,,,,12012,0002,2022_Feb_22_1503,localizer,2021.1.3,60.45481368299659,
block,scrambled,scrambled004.bmp,,,,,0,73,73,73,,,,,,,,,,,,,,,,,,,,,,,,,,,,,,,,,,,,,,,,,,None,,633.5007203798508,None,633.5007203798508,None,2022-02-22-15:13:34.728856,633.5099253000226,633.8173459998798,633.5099253000226,None,None,633.5099253000226,None,634.3176193800522,None,,,,12012,0002,2022_Feb_22_1503,localizer,2021.1.3,60.45481368299659,
block,scrambled,scrambled056.bmp,,,,,0,74,74,74,,,,,,,,,,,,,,,,,,,,,,,,,,,,,,,,,,,,,,,,,,None,,634.3176193800522,None,634.3176193800522,None,2022-02-22-15:13:35.545529,634.3280148999766,634.6338863000274,634.3280148999766,None,None,634.3280148999766,None,635.13423257994,None,,,,12012,0002,2022_Feb_22_1503,localizer,2021.1.3,60.45481368299659,
block,scrambled,scrambled061.bmp,,,,,0,75,75,75,,,,,,,,,,,,,,,,,,,,,,,,,,,,,,,,,,,,,,,,,,None,,635.13423257994,None,635.13423257994,None,2022-02-22-15:13:36.362387,635.1348558999598,635.4340864999685,635.1348558999598,None,None,635.1348558999598,None,635.9340134798316,None,,,,12012,0002,2022_Feb_22_1503,localizer,2021.1.3,60.45481368299659,
block_end,scrambled,scrambled079.bmp,,,,,0,76,76,76,,,,,,,,,,,,,,,,,,,,,,,,,,,,,,,,,,,,,,,,,,None,,635.9340134798316,None,635.9340134798316,None,2022-02-22-15:13:37.163926,635.9349040999077,636.2341088999528,635.9349040999077,635.9349040999077,None,635.9349040999077,635.9349040999077,636.7504499798873,None,,,,12012,0002,2022_Feb_22_1503,localizer,2021.1.3,60.45481368299659,
block_start,scenes,scenes090.bmp,,,,,0,77,77,77,,,,,,,,,,,,,,,,,,,,,,,,,,,,,,,,,,,,,,,,,,t,1.787256200099364,636.7505623998586,None,636.7505623998586,None,2022-02-22-15:13:39.794948,638.5689630999696,638.8848113999702,638.5689630999696,None,None,638.5689630999696,None,639.3848904799437,None,,,,12012,0002,2022_Feb_22_1503,localizer,2021.1.3,60.45481368299659,
block,scenes,scenes027.bmp,,,,,0,78,78,78,,,,,,,,,,,,,,,,,,,,,,,,,,,,,,,,,,,,,,,,,,None,,639.3848904799437,None,639.3848904799437,None,2022-02-22-15:13:40.611851,639.3930076998658,639.7007469998207,639.3930076998658,None,None,639.3930076998658,None,640.2003558799391,None,,,,12012,0002,2022_Feb_22_1503,localizer,2021.1.3,60.45481368299659,
block,scenes,scenes012.bmp,,,,,0,79,79,79,,,,,,,,,,,,,,,,,,,,,,,,,,,,,,,,,,,,,,,,,,None,,640.2003558799391,None,640.2003558799391,None,2022-02-22-15:13:41.427285,640.2020317998249,640.5173349999823,640.2020317998249,None,None,640.2020317998249,None,641.0171171799069,None,,,,12012,0002,2022_Feb_22_1503,localizer,2021.1.3,60.45481368299659,
block,scenes,scenes014.bmp,,,,,0,80,80,80,,,,,,,,,,,,,,,,,,,,,,,,,,,,,,,,,,,,,,,,,,None,,641.0171171799069,None,641.0171171799069,None,2022-02-22-15:13:42.244049,641.0258966998663,641.3341087000445,641.0258966998663,None,None,641.0258966998663,None,641.8352305800421,None,,,,12012,0002,2022_Feb_22_1503,localizer,2021.1.3,60.45481368299659,
block,scenes,scenes017.bmp,,,,,0,81,81,81,,,,,,,,,,,,,,,,,,,,,,,,,,,,,,,,,,,,,,,,,,None,,641.8352305800421,None,641.8352305800421,None,2022-02-22-15:13:43.064310,641.8360590999946,642.1354096999858,641.8360590999946,None,None,641.8360590999946,None,642.650817879918,None,,,,12012,0002,2022_Feb_22_1503,localizer,2021.1.3,60.45481368299659,
block,scenes,scenes038.bmp,,,,,0,82,82,82,,,,,,,,,,,,,,,,,,,,,,,,,,,,,,,,,,,,,,,,,,None,,642.650817879918,None,642.650817879918,None,2022-02-22-15:13:43.878963,642.6517866998911,642.9508702999447,642.6517866998911,None,None,642.6517866998911,None,643.4511086798506,None,,,,12012,0002,2022_Feb_22_1503,localizer,2021.1.3,60.45481368299659,
block,scenes,scenes037.bmp,,,,,0,83,83,83,,,,,,,,,,,,,,,,,,,,,,,,,,,,,,,,,,,,,,,,,,None,,643.4511086798506,None,643.4511086798506,None,2022-02-22-15:13:44.681221,643.4531323998235,643.7677937999833,643.4531323998235,643.4531323998235,None,643.4531323998235,643.4531323998235,644.2676871798234,None,,,,12012,0002,2022_Feb_22_1503,localizer,2021.1.3,60.45481368299659,
block,scenes,scenes020.bmp,,,,,0,84,84,84,,,,,,,,,,,,,,,,,,,,,,,,,,,,,,,,,,,,,,,,,,None,,644.2676871798234,None,644.2676871798234,None,2022-02-22-15:13:45.495827,644.2683945999015,644.5837687000167,644.2683945999015,None,None,644.2683945999015,None,645.0674125798745,None,,,,12012,0002,2022_Feb_22_1503,localizer,2021.1.3,60.45481368299659,
block,scenes,scenes026.bmp,,,,,0,85,85,85,,,,,,,,,,,,,,,,,,,,,,,,,,,,,,,,,,,,,,,,,,None,,645.0674125798745,None,645.0674125798745,None,2022-02-22-15:13:46.297330,645.0685119000264,645.3711380998138,645.0685119000264,645.0685119000264,None,645.0685119000264,645.0685119000264,645.8681454800302,None,,,,12012,0002,2022_Feb_22_1503,localizer,2021.1.3,60.45481368299659,
block,scenes,scenes045.bmp,,,,,0,86,86,86,,,,,,,,,,,,,,,,,,,,,,,,,,,,,,,,,,,,,,,,,,None,,645.8681454800302,None,645.8681454800302,None,2022-02-22-15:13:47.097187,645.8686769998167,646.1838520998135,645.8686769998167,645.8686769998167,None,645.8686769998167,645.8686769998167,646.6841314800316,None,,,,12012,0002,2022_Feb_22_1503,localizer,2021.1.3,60.45481368299659,
block,scenes,scenes064.bmp,,,,,0,87,87,87,,,,,,,,,,,,,,,,,,,,,,,,,,,,,,,,,,,,,,,,,,None,,646.6841314800316,None,646.6841314800316,None,2022-02-22-15:13:47.912510,646.6938704999629,647.0014194999821,646.6938704999629,None,None,646.6938704999629,None,647.5006534799235,None,,,,12012,0002,2022_Feb_22_1503,localizer,2021.1.3,60.45481368299659,
block,scenes,scenes062.bmp,,,,,0,88,88,88,,,,,,,,,,,,,,,,,,,,,,,,,,,,,,,,,,,,,,,,,,None,,647.5006534799235,None,647.5006534799235,None,2022-02-22-15:13:48.727590,647.5109558999538,647.8174878000282,647.5109558999538,None,None,647.5109558999538,None,648.3176941799233,None,,,,12012,0002,2022_Feb_22_1503,localizer,2021.1.3,60.45481368299659,
block,scenes,scenes035.bmp,,,,,0,89,89,89,,,,,,,,,,,,,,,,,,,,,,,,,,,,,,,,,,,,,,,,,,None,,648.3176941799233,None,648.3176941799233,None,2022-02-22-15:13:49.545588,648.3278069999069,648.6342024998739,648.3278069999069,None,None,648.3278069999069,None,649.1342793798307,None,,,,12012,0002,2022_Feb_22_1503,localizer,2021.1.3,60.45481368299659,
block,scenes,scenes049.bmp,,,,,0,90,90,90,,,,,,,,,,,,,,,,,,,,,,,,,,,,,,,,,,,,,,,,,,None,,649.1342793798307,None,649.1342793798307,None,2022-02-22-15:13:50.362443,649.1350719998591,649.4341889999341,649.1350719998591,None,None,649.1350719998591,None,649.9363072798354,None,,,,12012,0002,2022_Feb_22_1503,localizer,2021.1.3,60.45481368299659,
block_end,scenes,scenes032.bmp,,,,,0,91,91,91,,,,,,,,,,,,,,,,,,,,,,,,,,,,,,,,,,,,,,,,,,None,,649.9363072798354,None,649.9363072798354,None,2022-02-22-15:13:51.169098,649.9419223000295,650.2508294999134,649.9419223000295,649.9419223000295,None,649.9419223000295,649.9419223000295,650.7508923799963,None,,,,12012,0002,2022_Feb_22_1503,localizer,2021.1.3,60.45481368299659,
block_start,objects,objects085.bmp,,,,,0,92,92,92,,,,,,,,,,,,,,,,,,,,,,,,,,,,,,,,,,,,,,,,,,t,1.7871628000866622,650.7507988000289,None,650.7507988000289,None,2022-02-22-15:13:53.796036,652.5688038000371,652.8738305999432,652.5688038000371,None,None,652.5688038000371,None,653.3678446798352,None,,,,12012,0002,2022_Feb_22_1503,localizer,2021.1.3,60.45481368299659,
block,objects,objects050.bmp,,,,,0,93,93,93,,,,,,,,,,,,,,,,,,,,,,,,,,,,,,,,,,,,,,,,,,None,,653.3678446798352,None,653.3678446798352,None,2022-02-22-15:13:54.597782,653.3691356999334,653.6846000000369,653.3691356999334,653.3691356999334,None,653.3691356999334,653.3691356999334,654.184681979916,None,,,,12012,0002,2022_Feb_22_1503,localizer,2021.1.3,60.45481368299659,
block,objects,objects047.bmp,,,,,0,94,94,94,,,,,,,,,,,,,,,,,,,,,,,,,,,,,,,,,,,,,,,,,,None,,654.184681979916,None,654.184681979916,None,2022-02-22-15:13:55.412613,654.1851249998435,654.4847305999137,654.1851249998435,None,None,654.1851249998435,None,654.9843472798588,None,,,,12012,0002,2022_Feb_22_1503,localizer,2021.1.3,60.45481368299659,
block,objects,objects069.bmp,,,,,0,95,95,95,,,,,,,,,,,,,,,,,,,,,,,,,,,,,,,,,,,,,,,,,,None,,654.9843472798588,None,654.9843472798588,None,2022-02-22-15:13:56.214491,654.9924311998766,655.3009535998572,654.9924311998766,654.9924311998766,None,654.9924311998766,654.9924311998766,655.8014992798911,None,,,,12012,0002,2022_Feb_22_1503,localizer,2021.1.3,60.45481368299659,
block,objects,objects012.bmp,,,,,0,96,96,96,,,,,,,,,,,,,,,,,,,,,,,,,,,,,,,,,,,,,,,,,,None,,655.8014992798911,None,655.8014992798911,None,2022-02-22-15:13:57.029438,655.8016826999374,656.1009225000162,655.8016826999374,None,None,655.8016826999374,None,656.6009359799558,None,,,,12012,0002,2022_Feb_22_1503,localizer,2021.1.3,60.45481368299659,
block,objects,objects052.bmp,,,,,0,97,97,97,,,,,,,,,,,,,,,,,,,,,,,,,,,,,,,,,,,,,,,,,,None,,656.6009359799558,None,656.6009359799558,None,2022-02-22-15:13:57.831075,656.6134344998281,656.9174403999932,656.6134344998281,656.6134344998281,None,656.6134344998281,656.6134344998281,657.4176640799036,None,,,,12012,0002,2022_Feb_22_1503,localizer,2021.1.3,60.45481368299659,
block,objects,objects044.bmp,,,,,0,98,98,98,,,,,,,,,,,,,,,,,,,,,,,,,,,,,,,,,,,,,,,,,,None,,657.4176640799036,None,657.4176640799036,None,2022-02-22-15:13:58.645601,657.4186028998811,657.7176475999877,657.4186028998811,None,None,657.4186028998811,None,658.2176595800323,None,,,,12012,0002,2022_Feb_22_1503,localizer,2021.1.3,60.45481368299659,
block,objects,objects003.bmp,,,,,0,99,99,99,,,,,,,,,,,,,,,,,,,,,,,,,,,,,,,,,,,,,,,,,,None,,658.2176595800323,None,658.2176595800323,None,2022-02-22-15:13:59.447731,658.2185351999942,658.5177262998186,658.2185351999942,658.2185351999942,None,658.2185351999942,658.2185351999942,659.0175590798957,None,,,,12012,0002,2022_Feb_22_1503,localizer,2021.1.3,60.45481368299659,
block,objects,objects046.bmp,,,,,0,100,100,100,,,,,,,,,,,,,,,,,,,,,,,,,,,,,,,,,,,,,,,,,,None,,659.0175590798957,None,659.0175590798957,None,2022-02-22-15:14:00.247494,659.0185304000042,659.334452799987,659.0185304000042,659.0185304000042,None,659.0185304000042,659.0185304000042,659.8342571798479,None,,,,12012,0002,2022_Feb_22_1503,localizer,2021.1.3,60.45481368299659,
block,objects,objects017.bmp,,,,,0,101,101,101,,,,,,,,,,,,,,,,,,,,,,,,,,,,,,,,,,,,,,,,,,None,,659.8342571798479,None,659.8342571798479,None,2022-02-22-15:14:01.062438,659.8351302999072,660.1508293999359,659.8351302999072,None,None,659.8351302999072,None,660.6345209800405,None,,,,12012,0002,2022_Feb_22_1503,localizer,2021.1.3,60.45481368299659,
block,objects,objects040.bmp,,,,,0,102,102,102,,,,,,,,,,,,,,,,,,,,,,,,,,,,,,,,,,,,,,,,,,None,,660.6345209800405,None,660.6345209800405,None,2022-02-22-15:14:01.864445,660.6466274999548,660.9509435999207,660.6466274999548,660.6466274999548,None,660.6466274999548,660.6466274999548,661.452072579856,None,,,,12012,0002,2022_Feb_22_1503,localizer,2021.1.3,60.45481368299659,
block,objects,objects025.bmp,,,,,0,103,103,103,,,,,,,,,,,,,,,,,,,,,,,,,,,,,,,,,,,,,,,,,,None,,661.452072579856,None,661.452072579856,None,2022-02-22-15:14:02.681142,661.4634899999946,661.7672003998887,661.4634899999946,None,None,661.4634899999946,None,662.2679037798429,None,,,,12012,0002,2022_Feb_22_1503,localizer,2021.1.3,60.45481368299659,
block,objects,objects057.bmp,,,,,0,104,104,104,,,,,,,,,,,,,,,,,,,,,,,,,,,,,,,,,,,,,,,,,,None,,662.2679037798429,None,662.2679037798429,None,2022-02-22-15:14:03.495846,662.268532600021,662.5675333000254,662.268532600021,None,None,662.268532600021,None,663.0676555798622,None,,,,12012,0002,2022_Feb_22_1503,localizer,2021.1.3,60.45481368299659,
block,objects,objects005.bmp,,,,,0,105,105,105,,,,,,,,,,,,,,,,,,,,,,,,,,,,,,,,,,,,,,,,,,None,,663.0676555798622,None,663.0676555798622,None,2022-02-22-15:14:04.297715,663.0686075999402,663.3678134998772,663.0686075999402,663.0686075999402,None,663.0686075999402,663.0686075999402,663.8680351800052,None,,,,12012,0002,2022_Feb_22_1503,localizer,2021.1.3,60.45481368299659,
block_end,objects,objects059.bmp,,,,,0,106,106,106,,,,,,,,,,,,,,,,,,,,,,,,,,,,,,,,,,,,,,,,,,None,,663.8680351800052,None,663.8680351800052,None,2022-02-22-15:14:05.097973,663.8802616000175,664.184519900009,663.8802616000175,663.8802616000175,None,663.8802616000175,663.8802616000175,664.6843524798518,None,,,,12012,0002,2022_Feb_22_1503,localizer,2021.1.3,60.45481368299659,
block_start,faces,faces063.bmp,,,,,0,107,107,107,,,,,,,,,,,,,,,,,,,,,,,,,,,,,,,,,,,,,,,,,,t,1.8535157998558134,664.6843983998988,None,664.6843983998988,None,2022-02-22-15:14:07.795166,666.5815512998961,666.8838722000364,666.5815512998961,None,None,666.5815512998961,None,667.3843254798325,None,,,,12012,0002,2022_Feb_22_1503,localizer,2021.1.3,60.45481368299659,
block,faces,faces032.bmp,,,,,0,108,108,108,,,,,,,,,,,,,,,,,,,,,,,,,,,,,,,,,,,,,,,,,,None,,667.3843254798325,None,667.3843254798325,None,2022-02-22-15:14:08.612234,667.3853491998743,667.701109400019,667.3853491998743,None,None,667.3853491998743,None,668.1885206799255,None,,,,12012,0002,2022_Feb_22_1503,localizer,2021.1.3,60.45481368299659,
block,faces,faces070.bmp,,,,,0,109,109,109,,,,,,,,,,,,,,,,,,,,,,,,,,,,,,,,,,,,,,,,,,None,,668.1885206799255,None,668.1885206799255,None,2022-02-22-15:14:09.419471,668.1947712998372,668.5013695999514,668.1947712998372,668.1947712998372,None,668.1947712998372,668.1947712998372,669.0011752799386,None,,,,12012,0002,2022_Feb_22_1503,localizer,2021.1.3,60.45481368299659,
block,faces,faces039.bmp,,,,,0,110,110,110,,,,,,,,,,,,,,,,,,,,,,,,,,,,,,,,,,,,,,,,,,None,,669.0011752799386,None,669.0011752799386,None,2022-02-22-15:14:10.229128,669.0126817999408,669.3175974998157,669.0126817999408,None,None,669.0126817999408,None,669.8196571799693,None,,,,12012,0002,2022_Feb_22_1503,localizer,2021.1.3,60.45481368299659,
block,faces,faces007.bmp,,,,,0,111,111,111,,,,,,,,,,,,,,,,,,,,,,,,,,,,,,,,,,,,,,,,,,None,,669.8196571799693,None,669.8196571799693,None,2022-02-22-15:14:11.050611,669.8228625999764,670.1351344999857,669.8228625999764,None,None,669.8228625999764,None,670.6349132798845,None,,,,12012,0002,2022_Feb_22_1503,localizer,2021.1.3,60.45481368299659,
block,faces,faces051.bmp,,,,,0,112,112,112,,,,,,,,,,,,,,,,,,,,,,,,,,,,,,,,,,,,,,,,,,None,,670.6349132798845,None,670.6349132798845,None,2022-02-22-15:14:11.863010,670.6360820999835,670.9340551998466,670.6360820999835,None,None,670.6360820999835,None,671.4509228798328,None,,,,12012,0002,2022_Feb_22_1503,localizer,2021.1.3,60.45481368299659,
block,faces,faces052.bmp,,,,,0,113,113,113,,,,,,,,,,,,,,,,,,,,,,,,,,,,,,,,,,,,,,,,,,None,,671.4509228798328,None,671.4509228798328,None,2022-02-22-15:14:12.678032,671.4600353999995,671.7675789999776,671.4600353999995,None,None,671.4600353999995,None,672.2686567799886,None,,,,12012,0002,2022_Feb_22_1503,localizer,2021.1.3,60.45481368299659,
block,faces,faces047.bmp,,,,,0,114,114,114,,,,,,,,,,,,,,,,,,,,,,,,,,,,,,,,,,,,,,,,,,None,,672.2686567799886,None,672.2686567799886,None,2022-02-22-15:14:13.497678,672.2693149000406,672.5846640998498,672.2693149000406,None,None,672.2693149000406,None,673.0843737800373,None,,,,12012,0002,2022_Feb_22_1503,localizer,2021.1.3,60.45481368299659,
block,faces,faces047.bmp,,,,,0,115,115,115,,,,,,,,,,,,,,,,,,,,,,,,,,,,,,,,,,,,,,,,,,None,,673.0843737800373,None,673.0843737800373,None,2022-02-22-15:14:14.312330,673.0853875998873,673.3880000000354,673.0853875998873,None,y,673.0853875998873,None,673.8844164798269,None,0.5063966999296099,,,12012,0002,2022_Feb_22_1503,localizer,2021.1.3,60.45481368299659,
block,faces,faces057.bmp,,,,,0,116,116,116,,,,,,,,,,,,,,,,,,,,,,,,,,,,,,,,,,,,,,,,,,None,,673.8844164798269,None,673.8844164798269,None,2022-02-22-15:14:15.113428,673.8856201998424,674.1846349998377,673.8856201998424,673.8856201998424,None,673.8856201998424,673.8856201998424,674.7010377798928,None,,,,12012,0002,2022_Feb_22_1503,localizer,2021.1.3,60.45481368299659,
block,faces,faces034.bmp,,,,,0,117,117,117,,,,,,,,,,,,,,,,,,,,,,,,,,,,,,,,,,,,,,,,,,None,,674.7010377798928,None,674.7010377798928,None,2022-02-22-15:14:15.928997,674.702016599942,675.0176726998761,674.702016599942,None,None,674.702016599942,None,675.5010301798815,None,,,,12012,0002,2022_Feb_22_1503,localizer,2021.1.3,60.45481368299659,
block,faces,faces045.bmp,,,,,0,118,118,118,,,,,,,,,,,,,,,,,,,,,,,,,,,,,,,,,,,,,,,,,,None,,675.5010301798815,None,675.5010301798815,None,2022-02-22-15:14:16.731014,675.501953799976,675.8010093998164,675.501953799976,675.501953799976,None,675.501953799976,675.501953799976,676.3013548799557,None,,,,12012,0002,2022_Feb_22_1503,localizer,2021.1.3,60.45481368299659,
block,faces,faces013.bmp,,,,,0,119,119,119,,,,,,,,,,,,,,,,,,,,,,,,,,,,,,,,,,,,,,,,,,None,,676.3013548799557,None,676.3013548799557,None,2022-02-22-15:14:17.531309,676.3020275998861,676.6013327999972,676.3020275998861,676.3020275998861,None,676.3020275998861,676.3020275998861,677.1176652798662,None,,,,12012,0002,2022_Feb_22_1503,localizer,2021.1.3,60.45481368299659,
block,faces,faces074.bmp,,,,,0,120,120,120,,,,,,,,,,,,,,,,,,,,,,,,,,,,,,,,,,,,,,,,,,None,,677.1176652798662,None,677.1176652798662,None,2022-02-22-15:14:18.345712,677.1282919999212,677.435106099816,677.1282919999212,None,None,677.1282919999212,None,677.9344221800333,None,,,,12012,0002,2022_Feb_22_1503,localizer,2021.1.3,60.45481368299659,
block_end,faces,faces079.bmp,,,,,0,121,121,121,,,,,,,,,,,,,,,,,,,,,,,,,,,,,,,,,,,,,,,,,,None,,677.9344221800333,None,677.9344221800333,None,2022-02-22-15:14:19.162556,677.9353230998386,678.250920600025,677.9353230998386,None,None,677.9353230998386,None,678.7345451798523,None,,,,12012,0002,2022_Feb_22_1503,localizer,2021.1.3,60.45481368299659,
block_start,scrambled,scrambled088.bmp,,,,,0,122,122,122,,,,,,,,,,,,,,,,,,,,,,,,,,,,,,,,,,,,,,,,,,t,1.8036219000350684,678.7342790998518,None,678.7342790998518,None,2022-02-22-15:14:21.794626,680.5694210999645,680.8839083998464,680.5694210999645,None,None,680.5694210999645,None,681.3843330798903,None,,,,12012,0002,2022_Feb_22_1503,localizer,2021.1.3,60.45481368299659,
block,scrambled,scrambled015.bmp,,,,,0,123,123,123,,,,,,,,,,,,,,,,,,,,,,,,,,,,,,,,,,,,,,,,,,None,,681.3843330798903,None,681.3843330798903,None,2022-02-22-15:14:22.612083,681.3855347000062,681.7009288999252,681.3855347000062,None,None,681.3855347000062,None,682.2011226799572,None,,,,12012,0002,2022_Feb_22_1503,localizer,2021.1.3,60.45481368299659,
block,scrambled,scrambled059.bmp,,,,,0,124,124,124,,,,,,,,,,,,,,,,,,,,,,,,,,,,,,,,,,,,,,,,,,None,,682.2011226799572,None,682.2011226799572,None,2022-02-22-15:14:23.429090,682.2114160000347,682.5175746998284,682.2114160000347,None,None,682.2114160000347,None,683.0178690799279,None,,,,12012,0002,2022_Feb_22_1503,localizer,2021.1.3,60.45481368299659,
block,scrambled,scrambled003.bmp,,,,,0,125,125,125,,,,,,,,,,,,,,,,,,,,,,,,,,,,,,,,,,,,,,,,,,None,,683.0178690799279,None,683.0178690799279,None,2022-02-22-15:14:24.246047,683.02786069992,683.3342116000131,683.02786069992,None,None,683.02786069992,None,683.8349801799981,None,,,,12012,0002,2022_Feb_22_1503,localizer,2021.1.3,60.45481368299659,
block,scrambled,scrambled049.bmp,,,,,0,126,126,126,,,,,,,,,,,,,,,,,,,,,,,,,,,,,,,,,,,,,,,,,,None,,683.8349801799981,None,683.8349801799981,None,2022-02-22-15:14:25.063127,683.8456959999166,684.1507681999356,683.8456959999166,None,None,683.8456959999166,None,684.6511072800262,None,,,,12012,0002,2022_Feb_22_1503,localizer,2021.1.3,60.45481368299659,
block,scrambled,scrambled032.bmp,,,,,0,127,127,127,,,,,,,,,,,,,,,,,,,,,,,,,,,,,,,,,,,,,,,,,,None,,684.6511072800262,None,684.6511072800262,None,2022-02-22-15:14:25.879076,684.6519196999725,684.967356499983,684.6519196999725,None,None,684.6519196999725,None,685.4541734799044,None,,,,12012,0002,2022_Feb_22_1503,localizer,2021.1.3,60.45481368299659,
block,scrambled,scrambled061.bmp,,,,,0,128,128,128,,,,,,,,,,,,,,,,,,,,,,,,,,,,,,,,,,,,,,,,,,None,,685.4541734799044,None,685.4541734799044,None,2022-02-22-15:14:26.687218,685.4586660999339,685.7683878999669,685.4586660999339,685.4586660999339,None,685.4586660999339,685.4586660999339,686.267928279913,None,,,,12012,0002,2022_Feb_22_1503,localizer,2021.1.3,60.45481368299659,
block,scrambled,scrambled054.bmp,,,,,0,129,129,129,,,,,,,,,,,,,,,,,,,,,,,,,,,,,,,,,,,,,,,,,,None,,686.267928279913,None,686.267928279913,None,2022-02-22-15:14:27.495904,686.2686729999259,686.5841216000263,686.2686729999259,None,None,686.2686729999259,None,687.0682878799038,None,,,,12012,0002,2022_Feb_22_1503,localizer,2021.1.3,60.45481368299659,
block,scrambled,scrambled074.bmp,,,,,0,130,130,130,,,,,,,,,,,,,,,,,,,,,,,,,,,,,,,,,,,,,,,,,,None,,687.0682878799038,None,687.0682878799038,None,2022-02-22-15:14:28.306498,687.0792131000198,687.3837947000284,687.0792131000198,687.0792131000198,None,687.0792131000198,687.0792131000198,687.8845853798324,None,,,,12012,0002,2022_Feb_22_1503,localizer,2021.1.3,60.45481368299659,
block,scrambled,scrambled019.bmp,,,,,0,131,131,131,,,,,,,,,,,,,,,,,,,,,,,,,,,,,,,,,,,,,,,,,,None,,687.8845853798324,None,687.8845853798324,None,2022-02-22-15:14:29.112610,687.8853806999978,688.1850990999956,687.8853806999978,None,None,687.8853806999978,None,688.7006780798314,None,,,,12012,0002,2022_Feb_22_1503,localizer,2021.1.3,60.45481368299659,
block,scrambled,scrambled023.bmp,,,,,0,132,132,132,,,,,,,,,,,,,,,,,,,,,,,,,,,,,,,,,,,,,,,,,,None,,688.7006780798314,None,688.7006780798314,None,2022-02-22-15:14:29.927735,688.7090572998859,689.0176822999492,688.7090572998859,None,None,688.7090572998859,None,689.5190952799516,None,,,,12012,0002,2022_Feb_22_1503,localizer,2021.1.3,60.45481368299659,
block,scrambled,scrambled087.bmp,,,,,0,133,133,133,,,,,,,,,,,,,,,,,,,,,,,,,,,,,,,,,,,,,,,,,,None,,689.5190952799516,None,689.5190952799516,None,2022-02-22-15:14:30.748276,689.5199639999773,689.8188922998961,689.5199639999773,None,None,689.5199639999773,None,690.3350402798736,None,,,,12012,0002,2022_Feb_22_1503,localizer,2021.1.3,60.45481368299659,
block,scrambled,scrambled021.bmp,,,,,0,134,134,134,,,,,,,,,,,,,,,,,,,,,,,,,,,,,,,,,,,,,,,,,,None,,690.3350402798736,None,690.3350402798736,None,2022-02-22-15:14:31.563265,690.33558669989,690.651384799974,690.33558669989,None,None,690.33558669989,None,691.1507687798934,None,,,,12012,0002,2022_Feb_22_1503,localizer,2021.1.3,60.45481368299659,
block,scrambled,scrambled069.bmp,,,,,0,135,135,135,,,,,,,,,,,,,,,,,,,,,,,,,,,,,,,,,,,,,,,,,,None,,691.1507687798934,None,691.1507687798934,None,2022-02-22-15:14:32.378937,691.1519418999087,691.4674806999974,691.1519418999087,None,None,691.1519418999087,None,691.9516502800165,None,,,,12012,0002,2022_Feb_22_1503,localizer,2021.1.3,60.45481368299659,
block_end,scrambled,scrambled039.bmp,,,,,0,136,136,136,,,,,,,,,,,,,,,,,,,,,,,,,,,,,,,,,,,,,,,,,,None,,691.9516502800165,None,691.9516502800165,None,2022-02-22-15:14:33.181898,691.9537519000005,692.2682411000133,691.9537519000005,691.9537519000005,None,691.9537519000005,691.9537519000005,692.7683185799746,None,,,,12012,0002,2022_Feb_22_1503,localizer,2021.1.3,60.45481368299659,
null_block,null_block,null_block.bmp,,,,,0,137,137,137,,,,,,,,,,,,,,,,,,,,,,,,,,,,,,,,,,,,,,,,,,t,1.7684973999857903,692.7683267998509,None,692.7683267998509,None,2022-02-22-15:14:35.806218,694.5741950799478,None,694.5741950799478,None,None,694.5741950799478,None,694.5826365998946,None,,,,12012,0002,2022_Feb_22_1503,localizer,2021.1.3,60.45481368299659,
block_start,faces,faces012.bmp,,,,,0,138,138,138,,,,,,,,,,,,,,,,,,,,,,,,,,,,,,,,,,,,,,,,,,t,1.9524751000571996,706.5843890998513,None,706.5843890998513,None,2022-02-22-15:14:49.797078,708.568601799896,708.8679072000086,708.568601799896,None,None,708.568601799896,None,709.3679351799423,None,,,,12012,0002,2022_Feb_22_1503,localizer,2021.1.3,60.45481368299659,
block,faces,faces013.bmp,,,,,0,139,139,139,,,,,,,,,,,,,,,,,,,,,,,,,,,,,,,,,,,,,,,,,,None,,709.3679351799423,None,709.3679351799423,None,2022-02-22-15:14:50.597486,709.3729675998911,709.6844034998212,709.3729675998911,709.3729675998911,None,709.3729675998911,709.3729675998911,710.1846704799449,None,,,,12012,0002,2022_Feb_22_1503,localizer,2021.1.3,60.45481368299659,
block,faces,faces065.bmp,,,,,0,140,140,140,,,,,,,,,,,,,,,,,,,,,,,,,,,,,,,,,,,,,,,,,,None,,710.1846704799449,None,710.1846704799449,None,2022-02-22-15:14:51.412991,710.1856986000203,710.501028199913,710.1856986000203,None,None,710.1856986000203,None,710.9847999799298,None,,,,12012,0002,2022_Feb_22_1503,localizer,2021.1.3,60.45481368299659,
block,faces,faces027.bmp,,,,,0,141,141,141,,,,,,,,,,,,,,,,,,,,,,,,,,,,,,,,,,,,,,,,,,None,,710.9847999799298,None,710.9847999799298,None,2022-02-22-15:14:52.215128,710.9855990000069,711.2848598000128,710.9855990000069,710.9855990000069,None,710.9855990000069,710.9855990000069,711.8012587800389,None,,,,12012,0002,2022_Feb_22_1503,localizer,2021.1.3,60.45481368299659,
block,faces,faces050.bmp,,,,,0,142,142,142,,,,,,,,,,,,,,,,,,,,,,,,,,,,,,,,,,,,,,,,,,None,,711.8012587800389,None,711.8012587800389,None,2022-02-22-15:14:53.029623,711.8115226998925,712.1179173998535,711.8115226998925,None,None,711.8115226998925,None,712.6076590800425,None,,,,12012,0002,2022_Feb_22_1503,localizer,2021.1.3,60.45481368299659,
block,faces,faces059.bmp,,,,,0,143,143,143,,,,,,,,,,,,,,,,,,,,,,,,,,,,,,,,,,,,,,,,,,None,,712.6076590800425,None,712.6076590800425,None,2022-02-22-15:14:53.838943,712.6224634998944,712.9342821999453,712.6224634998944,None,None,712.6224634998944,None,713.4178287798771,None,,,,12012,0002,2022_Feb_22_1503,localizer,2021.1.3,60.45481368299659,
block,faces,faces031.bmp,,,,,0,144,144,144,,,,,,,,,,,,,,,,,,,,,,,,,,,,,,,,,,,,,,,,,,None,,713.4178287798771,None,713.4178287798771,None,2022-02-22-15:14:54.646220,713.4270690998528,713.7347434998956,713.4270690998528,None,None,713.4270690998528,None,714.2343593798345,None,,,,12012,0002,2022_Feb_22_1503,localizer,2021.1.3,60.45481368299659,
block,faces,faces069.bmp,,,,,0,145,145,145,,,,,,,,,,,,,,,,,,,,,,,,,,,,,,,,,,,,,,,,,,None,,714.2343593798345,None,714.2343593798345,None,2022-02-22-15:14:55.462060,714.2364309998229,714.5511172998231,714.2364309998229,None,None,714.2364309998229,None,715.0512431799201,None,,,,12012,0002,2022_Feb_22_1503,localizer,2021.1.3,60.45481368299659,
block,faces,faces033.bmp,,,,,0,146,146,146,,,,,,,,,,,,,,,,,,,,,,,,,,,,,,,,,,,,,,,,,,None,,715.0512431799201,None,715.0512431799201,None,2022-02-22-15:14:56.279659,715.0522306000348,715.3516674998682,715.0522306000348,None,None,715.0522306000348,None,715.8518318799091,None,,,,12012,0002,2022_Feb_22_1503,localizer,2021.1.3,60.45481368299659,
block,faces,faces056.bmp,,,,,0,147,147,147,,,,,,,,,,,,,,,,,,,,,,,,,,,,,,,,,,,,,,,,,,None,,715.8518318799091,None,715.8518318799091,None,2022-02-22-15:14:57.082223,715.8652770000044,716.1678851998877,715.8652770000044,715.8652770000044,None,715.8652770000044,715.8652770000044,716.6679924798431,None,,,,12012,0002,2022_Feb_22_1503,localizer,2021.1.3,60.45481368299659,
block,faces,faces026.bmp,,,,,0,148,148,148,,,,,,,,,,,,,,,,,,,,,,,,,,,,,,,,,,,,,,,,,,None,,716.6679924798431,None,716.6679924798431,None,2022-02-22-15:14:57.896639,716.6689792999532,716.9843716998585,716.6689792999532,None,None,716.6689792999532,None,717.4840757800033,None,,,,12012,0002,2022_Feb_22_1503,localizer,2021.1.3,60.45481368299659,
block,faces,faces049.bmp,,,,,0,149,149,149,,,,,,,,,,,,,,,,,,,,,,,,,,,,,,,,,,,,,,,,,,None,,717.4840757800033,None,717.4840757800033,None,2022-02-22-15:14:58.711534,717.4861549998168,717.7890144998673,717.4861549998168,None,None,717.4861549998168,None,718.3012035798514,None,,,,12012,0002,2022_Feb_22_1503,localizer,2021.1.3,60.45481368299659,
block,faces,faces052.bmp,,,,,0,150,150,150,,,,,,,,,,,,,,,,,,,,,,,,,,,,,,,,,,,,,,,,,,None,,718.3012035798514,None,718.3012035798514,None,2022-02-22-15:14:59.528903,718.3031128998846,718.6191729998682,718.3031128998846,None,None,718.3031128998846,None,719.1179950800491,None,,,,12012,0002,2022_Feb_22_1503,localizer,2021.1.3,60.45481368299659,
block,faces,faces081.bmp,,,,,0,151,151,151,,,,,,,,,,,,,,,,,,,,,,,,,,,,,,,,,,,,,,,,,,None,,719.1179950800491,None,719.1179950800491,None,2022-02-22-15:15:00.346471,719.118987099966,719.4343734998256,719.118987099966,None,None,719.118987099966,None,719.9182211798383,None,,,,12012,0002,2022_Feb_22_1503,localizer,2021.1.3,60.45481368299659,
block_end,faces,faces071.bmp,,,,,0,152,152,152,,,,,,,,,,,,,,,,,,,,,,,,,,,,,,,,,,,,,,,,,,None,,719.9182211798383,None,719.9182211798383,None,2022-02-22-15:15:01.148933,719.9317379998975,720.2352022000123,719.9317379998975,719.9317379998975,None,719.9317379998975,719.9317379998975,720.7352846800117,None,,,,12012,0002,2022_Feb_22_1503,localizer,2021.1.3,60.45481368299659,
block_start,objects,objects032.bmp,,,,,0,153,153,153,,,,,,,,,,,,,,,,,,,,,,,,,,,,,,,,,,,,,,,,,,t,1.801495100138709,720.7353866000194,None,720.7353866000194,None,2022-02-22-15:15:03.794748,722.5697092998307,722.8844220999163,722.5697092998307,None,None,722.5697092998307,None,723.3852489799959,None,,,,12012,0002,2022_Feb_22_1503,localizer,2021.1.3,60.45481368299659,
block,objects,objects057.bmp,,,,,0,154,154,154,,,,,,,,,,,,,,,,,,,,,,,,,,,,,,,,,,,,,,,,,,None,,723.3852489799959,None,723.3852489799959,None,2022-02-22-15:15:04.613295,723.3856750999112,723.701318499865,723.3856750999112,None,None,723.3856750999112,None,724.2011422798736,None,,,,12012,0002,2022_Feb_22_1503,localizer,2021.1.3,60.45481368299659,
block,objects,objects055.bmp,,,,,0,155,155,155,,,,,,,,,,,,,,,,,,,,,,,,,,,,,,,,,,,,,,,,,,None,,724.2011422798736,None,724.2011422798736,None,2022-02-22-15:15:05.428702,724.2056617999915,724.5176547998562,724.2056617999915,None,None,724.2056617999915,None,725.0181715800194,None,,,,12012,0002,2022_Feb_22_1503,localizer,2021.1.3,60.45481368299659,
block,objects,objects058.bmp,,,,,0,156,156,156,,,,,,,,,,,,,,,,,,,,,,,,,,,,,,,,,,,,,,,,,,None,,725.0181715800194,None,725.0181715800194,None,2022-02-22-15:15:06.246732,725.0284129998181,725.3346698998939,725.0284129998181,None,None,725.0284129998181,None,725.835854179901,None,,,,12012,0002,2022_Feb_22_1503,localizer,2021.1.3,60.45481368299659,
block,objects,objects013.bmp,,,,,0,157,157,157,,,,,,,,,,,,,,,,,,,,,,,,,,,,,,,,,,,,,,,,,,None,,725.835854179901,None,725.835854179901,None,2022-02-22-15:15:07.065408,725.8471683999524,726.1511329999194,725.8471683999524,None,None,725.8471683999524,None,726.6516325799515,None,,,,12012,0002,2022_Feb_22_1503,localizer,2021.1.3,60.45481368299659,
block,objects,objects021.bmp,,,,,0,158,158,158,,,,,,,,,,,,,,,,,,,,,,,,,,,,,,,,,,,,,,,,,,None,,726.6516325799515,None,726.6516325799515,None,2022-02-22-15:15:07.880445,726.6522430998739,726.9514093999751,726.6522430998739,None,None,726.6522430998739,None,727.4530884800246,None,,,,12012,0002,2022_Feb_22_1503,localizer,2021.1.3,60.45481368299659,
block,objects,objects024.bmp,,,,,0,159,159,159,,,,,,,,,,,,,,,,,,,,,,,,,,,,,,,,,,,,,,,,,,None,,727.4530884800246,None,727.4530884800246,None,2022-02-22-15:15:08.684806,727.4618814999703,727.7678926000372,727.4618814999703,727.4618814999703,None,727.4618814999703,727.4618814999703,728.2680488799,None,,,,12012,0002,2022_Feb_22_1503,localizer,2021.1.3,60.45481368299659,
block,objects,objects049.bmp,,,,,0,160,160,160,,,,,,,,,,,,,,,,,,,,,,,,,,,,,,,,,,,,,,,,,,None,,728.2680488799,None,728.2680488799,None,2022-02-22-15:15:09.496872,728.2689976999536,728.5846056998707,728.2689976999536,None,None,728.2689976999536,None,729.0845455799484,None,,,,12012,0002,2022_Feb_22_1503,localizer,2021.1.3,60.45481368299659,
block,objects,objects073.bmp,,,,,0,161,161,161,,,,,,,,,,,,,,,,,,,,,,,,,,,,,,,,,,,,,,,,,,None,,729.0845455799484,None,729.0845455799484,None,2022-02-22-15:15:10.313173,729.0862390999682,729.4011347999331,729.0862390999682,None,None,729.0862390999682,None,729.9009895799448,None,,,,12012,0002,2022_Feb_22_1503,localizer,2021.1.3,60.45481368299659,
block,objects,objects037.bmp,,,,,0,162,162,162,,,,,,,,,,,,,,,,,,,,,,,,,,,,,,,,,,,,,,,,,,None,,729.9009895799448,None,729.9009895799448,None,2022-02-22-15:15:11.128633,729.9028439999092,730.2179319998249,729.9028439999092,None,None,729.9028439999092,None,730.7181496799225,None,,,,12012,0002,2022_Feb_22_1503,localizer,2021.1.3,60.45481368299659,
block,objects,objects074.bmp,,,,,0,163,163,163,,,,,,,,,,,,,,,,,,,,,,,,,,,,,,,,,,,,,,,,,,None,,730.7181496799225,None,730.7181496799225,None,2022-02-22-15:15:11.946799,730.7189786999952,731.0345795999747,730.7189786999952,None,None,730.7189786999952,None,731.5181024798425,None,,,,12012,0002,2022_Feb_22_1503,localizer,2021.1.3,60.45481368299659,
block,objects,objects015.bmp,,,,,0,164,164,164,,,,,,,,,,,,,,,,,,,,,,,,,,,,,,,,,,,,,,,,,,None,,731.5181024798425,None,731.5181024798425,None,2022-02-22-15:15:12.747764,731.5188376998994,731.8345887998585,731.5188376998994,731.5188376998994,None,731.5188376998994,731.5188376998994,732.3344847799511,None,,,,12012,0002,2022_Feb_22_1503,localizer,2021.1.3,60.45481368299659,
block,objects,objects014.bmp,,,,,0,165,165,165,,,,,,,,,,,,,,,,,,,,,,,,,,,,,,,,,,,,,,,,,,None,,732.3344847799511,None,732.3344847799511,None,2022-02-22-15:15:13.562373,732.3363361000083,732.6511871998664,732.3363361000083,None,None,732.3363361000083,None,733.1353507798398,None,,,,12012,0002,2022_Feb_22_1503,localizer,2021.1.3,60.45481368299659,
block,objects,objects064.bmp,,,,,0,166,166,166,,,,,,,,,,,,,,,,,,,,,,,,,,,,,,,,,,,,,,,,,,None,,733.1353507798398,None,733.1353507798398,None,2022-02-22-15:15:14.366222,733.1493263999,733.4518676998559,733.1493263999,733.1493263999,None,733.1493263999,733.1493263999,733.9543144800467,None,,,,12012,0002,2022_Feb_22_1503,localizer,2021.1.3,60.45481368299659,
block_end,objects,objects064.bmp,,,,,0,167,167,167,,,,,,,,,,,,,,,,,,,,,,,,,,,,,,,,,,,,,,,,,,None,,733.9543144800467,None,733.9543144800467,None,2022-02-22-15:15:15.183130,733.9553600999061,734.2684803998563,733.9553600999061,None,y,733.9553600999061,None,734.7678284798516,None,0.6713252000045031,,,12012,0002,2022_Feb_22_1503,localizer,2021.1.3,60.45481368299659,
block_start,scenes,scenes061.bmp,,,,,0,168,168,168,,,,,,,,,,,,,,,,,,,,,,,,,,,,,,,,,,,,,,,,,,t,1.769153700210154,734.7678192998283,None,734.7678192998283,None,2022-02-22-15:15:17.794631,736.569752200041,736.8845309999306,736.569752200041,None,None,736.569752200041,None,737.3843176800059,None,,,,12012,0002,2022_Feb_22_1503,localizer,2021.1.3,60.45481368299659,
block,scenes,scenes063.bmp,,,,,0,169,169,169,,,,,,,,,,,,,,,,,,,,,,,,,,,,,,,,,,,,,,,,,,None,,737.3843176800059,None,737.3843176800059,None,2022-02-22-15:15:18.612075,737.3933749999851,737.7014339999296,737.3933749999851,None,None,737.3933749999851,None,738.2011654800502,None,,,,12012,0002,2022_Feb_22_1503,localizer,2021.1.3,60.45481368299659,
block,scenes,scenes029.bmp,,,,,0,170,170,170,,,,,,,,,,,,,,,,,,,,,,,,,,,,,,,,,,,,,,,,,,None,,738.2011654800502,None,738.2011654800502,None,2022-02-22-15:15:19.428931,738.202702099923,738.5178771000355,738.202702099923,None,None,738.202702099923,None,739.0182710799621,None,,,,12012,0002,2022_Feb_22_1503,localizer,2021.1.3,60.45481368299659,
block,scenes,scenes073.bmp,,,,,0,171,171,171,,,,,,,,,,,,,,,,,,,,,,,,,,,,,,,,,,,,,,,,,,None,,739.0182710799621,None,739.0182710799621,None,2022-02-22-15:15:20.247079,739.019743999932,739.3346285999287,739.019743999932,None,None,739.019743999932,None,739.8346547798486,None,,,,12012,0002,2022_Feb_22_1503,localizer,2021.1.3,60.45481368299659,
block,scenes,scenes071.bmp,,,,,0,172,172,172,,,,,,,,,,,,,,,,,,,,,,,,,,,,,,,,,,,,,,,,,,None,,739.8346547798486,None,739.8346547798486,None,2022-02-22-15:15:21.062445,739.8358877999708,740.1514588999562,739.8358877999708,None,None,739.8358877999708,None,740.6350502799963,None,,,,12012,0002,2022_Feb_22_1503,localizer,2021.1.3,60.45481368299659,
block,scenes,scenes022.bmp,,,,,0,173,173,173,,,,,,,,,,,,,,,,,,,,,,,,,,,,,,,,,,,,,,,,,,None,,740.6350502799963,None,740.6350502799963,None,2022-02-22-15:15:21.866033,740.6496551998425,740.9518208999652,740.6496551998425,740.6496551998425,None,740.6496551998425,740.6496551998425,741.4533359799301,None,,,,12012,0002,2022_Feb_22_1503,localizer,2021.1.3,60.45481368299659,
block,scenes,scenes037.bmp,,,,,0,174,174,174,,,,,,,,,,,,,,,,,,,,,,,,,,,,,,,,,,,,,,,,,,None,,741.4533359799301,None,741.4533359799301,None,2022-02-22-15:15:22.682334,741.4525186000392,741.7680412998889,741.4525186000392,None,None,741.4525186000392,None,742.2517031798837,None,,,,12012,0002,2022_Feb_22_1503,localizer,2021.1.3,60.45481368299659,
block,scenes,scenes001.bmp,,,,,0,175,175,175,,,,,,,,,,,,,,,,,,,,,,,,,,,,,,,,,,,,,,,,,,None,,742.2517031798837,None,742.2517031798837,None,2022-02-22-15:15:23.482072,742.2625153998379,742.5679496999364,742.2625153998379,742.2625153998379,None,742.2625153998379,742.2625153998379,743.0693051798502,None,,,,12012,0002,2022_Feb_22_1503,localizer,2021.1.3,60.45481368299659,
block,scenes,scenes044.bmp,,,,,0,176,176,176,,,,,,,,,,,,,,,,,,,,,,,,,,,,,,,,,,,,,,,,,,None,,743.0693051798502,None,743.0693051798502,None,2022-02-22-15:15:24.299098,743.0701519998256,743.3692222998943,743.0701519998256,None,None,743.0701519998256,None,743.8693322799867,None,,,,12012,0002,2022_Feb_22_1503,localizer,2021.1.3,60.45481368299659,
block,scenes,scenes013.bmp,,,,,0,177,177,177,,,,,,,,,,,,,,,,,,,,,,,,,,,,,,,,,,,,,,,,,,None,,743.8693322799867,None,743.8693322799867,None,2022-02-22-15:15:25.102225,743.8858637998346,744.2013307998423,743.8858637998346,743.8858637998346,None,743.8858637998346,743.8858637998346,744.6847648799652,None,,,,12012,0002,2022_Feb_22_1503,localizer,2021.1.3,60.45481368299659,
block,scenes,scenes091.bmp,,,,,0,178,178,178,,,,,,,,,,,,,,,,,,,,,,,,,,,,,,,,,,,,,,,,,,None,,744.6847648799652,None,744.6847648799652,None,2022-02-22-15:15:25.914081,744.6949793999083,745.0010728000198,744.6949793999083,None,None,744.6949793999083,None,745.5016065798467,None,,,,12012,0002,2022_Feb_22_1503,localizer,2021.1.3,60.45481368299659,
block,scenes,scenes036.bmp,,,,,0,179,179,179,,,,,,,,,,,,,,,,,,,,,,,,,,,,,,,,,,,,,,,,,,None,,745.5016065798467,None,745.5016065798467,None,2022-02-22-15:15:26.730705,745.5026024000254,745.8181863999926,745.5026024000254,None,None,745.5026024000254,None,746.3182643798413,None,,,,12012,0002,2022_Feb_22_1503,localizer,2021.1.3,60.45481368299659,
block,scenes,scenes015.bmp,,,,,0,180,180,180,,,,,,,,,,,,,,,,,,,,,,,,,,,,,,,,,,,,,,,,,,None,,746.3182643798413,None,746.3182643798413,None,2022-02-22-15:15:27.547147,746.319276599912,746.6184361998457,746.319276599912,None,None,746.319276599912,None,747.1185836798744,None,,,,12012,0002,2022_Feb_22_1503,localizer,2021.1.3,60.45481368299659,
block,scenes,scenes079.bmp,,,,,0,181,181,181,,,,,,,,,,,,,,,,,,,,,,,,,,,,,,,,,,,,,,,,,,None,,747.1185836798744,None,747.1185836798744,None,2022-02-22-15:15:28.348683,747.1199628999457,747.4351092998404,747.1199628999457,747.1199628999457,None,747.1199628999457,747.1199628999457,747.9355542799225,None,,,,12012,0002,2022_Feb_22_1503,localizer,2021.1.3,60.45481368299659,
block_end,scenes,scenes011.bmp,,,,,0,182,182,182,,,,,,,,,,,,,,,,,,,,,,,,,,,,,,,,,,,,,,,,,,None,,747.9355542799225,None,747.9355542799225,None,2022-02-22-15:15:29.164719,747.9363681999967,748.2354209998157,747.9363681999967,None,None,747.9363681999967,None,748.7354383799014,None,,,,12012,0002,2022_Feb_22_1503,localizer,2021.1.3,60.45481368299659,
block_start,scenes,scenes010.bmp,,,,,0,183,183,183,,,,,,,,,,,,,,,,,,,,,,,,,,,,,,,,,,,,,,,,,,t,1.8002726999111474,748.7364963998552,None,748.7364963998552,None,2022-02-22-15:15:31.779686,750.5527220999356,750.8683549999259,750.5527220999356,None,None,750.5527220999356,None,751.3530197799904,None,,,,12012,0002,2022_Feb_22_1503,localizer,2021.1.3,60.45481368299659,
block,scenes,scenes014.bmp,,,,,0,184,184,184,,,,,,,,,,,,,,,,,,,,,,,,,,,,,,,,,,,,,,,,,,None,,751.3530197799904,None,751.3530197799904,None,2022-02-22-15:15:32.584947,751.3554292998742,751.6687688999809,751.3554292998742,751.3554292998742,None,751.3554292998742,751.3554292998742,752.1702198800398,None,,,,12012,0002,2022_Feb_22_1503,localizer,2021.1.3,60.45481368299659,
block,scenes,scenes092.bmp,,,,,0,185,185,185,,,,,,,,,,,,,,,,,,,,,,,,,,,,,,,,,,,,,,,,,,None,,752.1702198800398,None,752.1702198800398,None,2022-02-22-15:15:33.402151,752.1744513998274,752.4848607999738,752.1744513998274,None,None,752.1744513998274,None,752.9848933799425,None,,,,12012,0002,2022_Feb_22_1503,localizer,2021.1.3,60.45481368299659,
block,scenes,scenes092.bmp,,,,,0,186,186,186,,,,,,,,,,,,,,,,,,,,,,,,,,,,,,,,,,,,,,,,,,None,,752.9848933799425,None,752.9848933799425,None,2022-02-22-15:15:34.213877,752.9866154999472,753.3014483000152,752.9866154999472,None,y,752.9866154999472,None,753.8014575799228,None,0.5330771000590175,,,12012,0002,2022_Feb_22_1503,localizer,2021.1.3,60.45481368299659,
block,scenes,scenes078.bmp,,,,,0,187,187,187,,,,,,,,,,,,,,,,,,,,,,,,,,,,,,,,,,,,,,,,,,None,,753.8014575799228,None,753.8014575799228,None,2022-02-22-15:15:35.030454,753.8023728998378,754.1015504999086,753.8023728998378,None,None,753.8023728998378,None,754.6014033800224,None,,,,12012,0002,2022_Feb_22_1503,localizer,2021.1.3,60.45481368299659,
block,scenes,scenes001.bmp,,,,,0,188,188,188,,,,,,,,,,,,,,,,,,,,,,,,,,,,,,,,,,,,,,,,,,None,,754.6014033800224,None,754.6014033800224,None,2022-02-22-15:15:35.831414,754.6022787999827,754.9015952998307,754.6022787999827,754.6022787999827,None,754.6022787999827,754.6022787999827,755.418101979862,None,,,,12012,0002,2022_Feb_22_1503,localizer,2021.1.3,60.45481368299659,
block,scenes,scenes007.bmp,,,,,0,189,189,189,,,,,,,,,,,,,,,,,,,,,,,,,,,,,,,,,,,,,,,,,,None,,755.418101979862,None,755.418101979862,None,2022-02-22-15:15:36.646130,755.4198230998591,755.7347778000403,755.4198230998591,None,None,755.4198230998591,None,756.2348825798603,None,,,,12012,0002,2022_Feb_22_1503,localizer,2021.1.3,60.45481368299659,
block,scenes,scenes035.bmp,,,,,0,190,190,190,,,,,,,,,,,,,,,,,,,,,,,,,,,,,,,,,,,,,,,,,,None,,756.2348825798603,None,756.2348825798603,None,2022-02-22-15:15:37.464391,756.2358224999625,756.5352650999557,756.2358224999625,None,None,756.2358224999625,None,757.0352183799026,None,,,,12012,0002,2022_Feb_22_1503,localizer,2021.1.3,60.45481368299659,
block,scenes,scenes057.bmp,,,,,0,191,191,191,,,,,,,,,,,,,,,,,,,,,,,,,,,,,,,,,,,,,,,,,,None,,757.0352183799026,None,757.0352183799026,None,2022-02-22-15:15:38.266252,757.0360350999981,757.3353088998701,757.0360350999981,757.0360350999981,None,757.0360350999981,757.0360350999981,757.8516995799495,None,,,,12012,0002,2022_Feb_22_1503,localizer,2021.1.3,60.45481368299659,
block,scenes,scenes058.bmp,,,,,0,192,192,192,,,,,,,,,,,,,,,,,,,,,,,,,,,,,,,,,,,,,,,,,,None,,757.8516995799495,None,757.8516995799495,None,2022-02-22-15:15:39.080945,757.8526816000231,758.1682170999702,757.8526816000231,None,None,757.8526816000231,None,758.6517389798304,None,,,,12012,0002,2022_Feb_22_1503,localizer,2021.1.3,60.45481368299659,
block,scenes,scenes031.bmp,,,,,0,193,193,193,,,,,,,,,,,,,,,,,,,,,,,,,,,,,,,,,,,,,,,,,,None,,758.6517389798304,None,758.6517389798304,None,2022-02-22-15:15:39.882798,758.663272799924,758.968245399883,758.663272799924,758.663272799924,None,758.663272799924,758.663272799924,759.4677536799339,None,,,,12012,0002,2022_Feb_22_1503,localizer,2021.1.3,60.45481368299659,
block,scenes,scenes080.bmp,,,,,0,194,194,194,,,,,,,,,,,,,,,,,,,,,,,,,,,,,,,,,,,,,,,,,,None,,759.4677536799339,None,759.4677536799339,None,2022-02-22-15:15:40.695840,759.4695985999424,759.7848248998635,759.4695985999424,None,None,759.4695985999424,None,760.2688275798922,None,,,,12012,0002,2022_Feb_22_1503,localizer,2021.1.3,60.45481368299659,
block,scenes,scenes045.bmp,,,,,0,195,195,195,,,,,,,,,,,,,,,,,,,,,,,,,,,,,,,,,,,,,,,,,,None,,760.2688275798922,None,760.2688275798922,None,2022-02-22-15:15:41.500097,760.2709261998534,760.5851557999849,760.2709261998534,760.2709261998534,None,760.2709261998534,760.2709261998534,761.0852451799204,None,,,,12012,0002,2022_Feb_22_1503,localizer,2021.1.3,60.45481368299659,
block,scenes,scenes059.bmp,,,,,0,196,196,196,,,,,,,,,,,,,,,,,,,,,,,,,,,,,,,,,,,,,,,,,,None,,761.0852451799204,None,761.0852451799204,None,2022-02-22-15:15:42.314541,761.0960227998439,761.4013821999542,761.0960227998439,None,None,761.0960227998439,None,761.9016087800031,None,,,,12012,0002,2022_Feb_22_1503,localizer,2021.1.3,60.45481368299659,
block_end,scenes,scenes034.bmp,,,,,0,197,197,197,,,,,,,,,,,,,,,,,,,,,,,,,,,,,,,,,,,,,,,,,,None,,761.9016087800031,None,761.9016087800031,None,2022-02-22-15:15:43.130966,761.9115207998548,762.2182306000032,761.9115207998548,None,None,761.9115207998548,None,762.7182367800036,None,,,,12012,0002,2022_Feb_22_1503,localizer,2021.1.3,60.45481368299659,
block_start,objects,objects069.bmp,,,,,0,198,198,198,,,,,,,,,,,,,,,,,,,,,,,,,,,,,,,,,,,,,,,,,,t,1.8182252999395132,762.7184996998403,None,762.7184996998403,None,2022-02-22-15:15:45.796786,764.569372399943,764.8845480999444,764.569372399943,None,None,764.569372399943,None,765.3848006799584,None,,,,12012,0002,2022_Feb_22_1503,localizer,2021.1.3,60.45481368299659,
block,objects,objects070.bmp,,,,,0,199,199,199,,,,,,,,,,,,,,,,,,,,,,,,,,,,,,,,,,,,,,,,,,None,,765.3848006799584,None,765.3848006799584,None,2022-02-22-15:15:46.613584,765.3860899999272,765.7015817998908,765.3860899999272,None,None,765.3860899999272,None,766.1851622799644,None,,,,12012,0002,2022_Feb_22_1503,localizer,2021.1.3,60.45481368299659,
block,objects,objects046.bmp,,,,,0,200,200,200,,,,,,,,,,,,,,,,,,,,,,,,,,,,,,,,,,,,,,,,,,None,,766.1851622799644,None,766.1851622799644,None,2022-02-22-15:15:47.416551,766.1858333998825,766.501610700041,766.1858333998825,766.1858333998825,None,766.1858333998825,766.1858333998825,766.9849860798334,None,,,,12012,0002,2022_Feb_22_1503,localizer,2021.1.3,60.45481368299659,
block,objects,objects038.bmp,,,,,0,201,201,201,,,,,,,,,,,,,,,,,,,,,,,,,,,,,,,,,,,,,,,,,,None,,766.9849860798334,None,766.9849860798334,None,2022-02-22-15:15:48.216379,766.9858144999016,767.2848783000372,766.9858144999016,766.9858144999016,None,766.9858144999016,766.9858144999016,767.7851236799964,None,,,,12012,0002,2022_Feb_22_1503,localizer,2021.1.3,60.45481368299659,
block,objects,objects028.bmp,,,,,0,202,202,202,,,,,,,,,,,,,,,,,,,,,,,,,,,,,,,,,,,,,,,,,,None,,767.7851236799964,None,767.7851236799964,None,2022-02-22-15:15:49.016450,767.7859288000036,768.0853193998337,767.7859288000036,767.7859288000036,None,767.7859288000036,767.7859288000036,768.5854734799126,None,,,,12012,0002,2022_Feb_22_1503,localizer,2021.1.3,60.45481368299659,
block,objects,objects021.bmp,,,,,0,203,203,203,,,,,,,,,,,,,,,,,,,,,,,,,,,,,,,,,,,,,,,,,,None,,768.5854734799126,None,768.5854734799126,None,2022-02-22-15:15:49.817673,768.5882729999721,768.9024936999194,768.5882729999721,768.5882729999721,None,768.5882729999721,768.5882729999721,769.4020095800282,None,,,,12012,0002,2022_Feb_22_1503,localizer,2021.1.3,60.45481368299659,
block,objects,objects050.bmp,,,,,0,204,204,204,,,,,,,,,,,,,,,,,,,,,,,,,,,,,,,,,,,,,,,,,,None,,769.4020095800282,None,769.4020095800282,None,2022-02-22-15:15:50.631237,769.4024386999663,769.701606699964,769.4024386999663,None,None,769.4024386999663,None,770.2018651799066,None,,,,12012,0002,2022_Feb_22_1503,localizer,2021.1.3,60.45481368299659,
block,objects,objects039.bmp,,,,,0,205,205,205,,,,,,,,,,,,,,,,,,,,,,,,,,,,,,,,,,,,,,,,,,None,,770.2018651799066,None,770.2018651799066,None,2022-02-22-15:15:51.433175,770.2025537998416,770.5023684999906,770.2025537998416,770.2025537998416,None,770.2025537998416,770.2025537998416,771.01809127999,None,,,,12012,0002,2022_Feb_22_1503,localizer,2021.1.3,60.45481368299659,
block,objects,objects031.bmp,,,,,0,206,206,206,,,,,,,,,,,,,,,,,,,,,,,,,,,,,,,,,,,,,,,,,,None,,771.01809127999,None,771.01809127999,None,2022-02-22-15:15:52.246351,771.0264570999425,771.3405681999866,771.0264570999425,None,None,771.0264570999425,None,771.8349529800238,None,,,,12012,0002,2022_Feb_22_1503,localizer,2021.1.3,60.45481368299659,
block,objects,objects056.bmp,,,,,0,207,207,207,,,,,,,,,,,,,,,,,,,,,,,,,,,,,,,,,,,,,,,,,,None,,771.8349529800238,None,771.8349529800238,None,2022-02-22-15:15:53.064219,771.8445671999361,772.1522206999362,771.8445671999361,None,None,771.8445671999361,None,772.651831179834,None,,,,12012,0002,2022_Feb_22_1503,localizer,2021.1.3,60.45481368299659,
block,objects,objects006.bmp,,,,,0,208,208,208,,,,,,,,,,,,,,,,,,,,,,,,,,,,,,,,,,,,,,,,,,None,,772.651831179834,None,772.651831179834,None,2022-02-22-15:15:53.881312,772.6628462998196,772.9685412999243,772.6628462998196,None,None,772.6628462998196,None,773.4718063799431,None,,,,12012,0002,2022_Feb_22_1503,localizer,2021.1.3,60.45481368299659,
block,objects,objects034.bmp,,,,,0,209,209,209,,,,,,,,,,,,,,,,,,,,,,,,,,,,,,,,,,,,,,,,,,None,,773.4718063799431,None,773.4718063799431,None,2022-02-22-15:15:54.703970,773.4748449998442,773.7856552999001,773.4748449998442,None,None,773.4748449998442,None,774.2851899799192,None,,,,12012,0002,2022_Feb_22_1503,localizer,2021.1.3,60.45481368299659,
block,objects,objects060.bmp,,,,,0,210,210,210,,,,,,,,,,,,,,,,,,,,,,,,,,,,,,,,,,,,,,,,,,None,,774.2851899799192,None,774.2851899799192,None,2022-02-22-15:15:55.514689,774.285850699991,774.585095499875,774.285850699991,None,None,774.285850699991,None,775.0851641800022,None,,,,12012,0002,2022_Feb_22_1503,localizer,2021.1.3,60.45481368299659,
block,objects,objects085.bmp,,,,,0,211,211,211,,,,,,,,,,,,,,,,,,,,,,,,,,,,,,,,,,,,,,,,,,None,,775.0851641800022,None,775.0851641800022,None,2022-02-22-15:15:56.316455,775.0860564999748,775.4083443998825,775.0860564999748,775.0860564999748,None,775.0860564999748,775.0860564999748,775.886224179971,None,,,,12012,0002,2022_Feb_22_1503,localizer,2021.1.3,60.45481368299659,
block_end,objects,objects032.bmp,,,,,0,212,212,212,,,,,,,,,,,,,,,,,,,,,,,,,,,,,,,,,,,,,,,,,,None,,775.886224179971,None,775.886224179971,None,2022-02-22-15:15:57.118673,775.8888200998772,776.2013197999913,775.8888200998772,775.8888200998772,None,775.8888200998772,775.8888200998772,776.7017138800351,None,,,,12012,0002,2022_Feb_22_1503,localizer,2021.1.3,60.45481368299659,
block_start,scrambled,scrambled030.bmp,,,,,0,213,213,213,,,,,,,,,,,,,,,,,,,,,,,,,,,,,,,,,,,,,,,,,,t,1.8352886999491602,776.701611999888,None,776.701611999888,None,2022-02-22-15:15:59.796764,778.5783926998265,778.8848949000239,778.5783926998265,None,None,778.5783926998265,None,779.3857016798341,None,,,,12012,0002,2022_Feb_22_1503,localizer,2021.1.3,60.45481368299659,
block,scrambled,scrambled012.bmp,,,,,0,214,214,214,,,,,,,,,,,,,,,,,,,,,,,,,,,,,,,,,,,,,,,,,,None,,779.3857016798341,None,779.3857016798341,None,2022-02-22-15:16:00.615173,779.3864609999582,779.7015915999655,779.3864609999582,None,None,779.3864609999582,None,780.1856323799351,None,,,,12012,0002,2022_Feb_22_1503,localizer,2021.1.3,60.45481368299659,
block,scrambled,scrambled075.bmp,,,,,0,215,215,215,,,,,,,,,,,,,,,,,,,,,,,,,,,,,,,,,,,,,,,,,,None,,780.1856323799351,None,780.1856323799351,None,2022-02-22-15:16:01.417124,780.2011529998854,780.501563299913,780.2011529998854,780.2011529998854,None,780.2011529998854,780.2011529998854,781.0023083798354,None,,,,12012,0002,2022_Feb_22_1503,localizer,2021.1.3,60.45481368299659,
block,scrambled,scrambled003.bmp,,,,,0,216,216,216,,,,,,,,,,,,,,,,,,,,,,,,,,,,,,,,,,,,,,,,,,None,,781.0023083798354,None,781.0023083798354,None,2022-02-22-15:16:02.231891,781.0030372999609,781.3181410999969,781.0030372999609,None,None,781.0030372999609,None,781.8184304798255,None,,,,12012,0002,2022_Feb_22_1503,localizer,2021.1.3,60.45481368299659,
block,scrambled,scrambled011.bmp,,,,,0,217,217,217,,,,,,,,,,,,,,,,,,,,,,,,,,,,,,,,,,,,,,,,,,None,,781.8184304798255,None,781.8184304798255,None,2022-02-22-15:16:03.047846,781.819325799821,782.1195393998642,781.819325799821,None,None,781.819325799821,None,782.6185261800186,None,,,,12012,0002,2022_Feb_22_1503,localizer,2021.1.3,60.45481368299659,
block,scrambled,scrambled016.bmp,,,,,0,218,218,218,,,,,,,,,,,,,,,,,,,,,,,,,,,,,,,,,,,,,,,,,,None,,782.6185261800186,None,782.6185261800186,None,2022-02-22-15:16:03.849170,782.6192236000206,782.9198131000157,782.6192236000206,782.6192236000206,None,782.6192236000206,782.6192236000206,783.4182375799631,None,,,,12012,0002,2022_Feb_22_1503,localizer,2021.1.3,60.45481368299659,
block,scrambled,scrambled032.bmp,,,,,0,219,219,219,,,,,,,,,,,,,,,,,,,,,,,,,,,,,,,,,,,,,,,,,,None,,783.4182375799631,None,783.4182375799631,None,2022-02-22-15:16:04.648282,783.4190964999143,783.7186300999019,783.4190964999143,783.4190964999143,None,783.4190964999143,783.4190964999143,784.2187286799075,None,,,,12012,0002,2022_Feb_22_1503,localizer,2021.1.3,60.45481368299659,
block,scrambled,scrambled084.bmp,,,,,0,220,220,220,,,,,,,,,,,,,,,,,,,,,,,,,,,,,,,,,,,,,,,,,,None,,784.2187286799075,None,784.2187286799075,None,2022-02-22-15:16:05.450154,784.219349199906,784.5186147999484,784.219349199906,784.219349199906,None,784.219349199906,784.219349199906,785.0349491799483,None,,,,12012,0002,2022_Feb_22_1503,localizer,2021.1.3,60.45481368299659,
block,scrambled,scrambled083.bmp,,,,,0,221,221,221,,,,,,,,,,,,,,,,,,,,,,,,,,,,,,,,,,,,,,,,,,None,,785.0349491799483,None,785.0349491799483,None,2022-02-22-15:16:06.263667,785.0368204999249,785.3517008998897,785.0368204999249,None,None,785.0368204999249,None,785.8517183798598,None,,,,12012,0002,2022_Feb_22_1503,localizer,2021.1.3,60.45481368299659,
block,scrambled,scrambled081.bmp,,,,,0,222,222,222,,,,,,,,,,,,,,,,,,,,,,,,,,,,,,,,,,,,,,,,,,None,,785.8517183798598,None,785.8517183798598,None,2022-02-22-15:16:07.081196,785.85259949998,786.1517922999337,785.85259949998,None,None,785.85259949998,None,786.6518323798431,None,,,,12012,0002,2022_Feb_22_1503,localizer,2021.1.3,60.45481368299659,
block,scrambled,scrambled057.bmp,,,,,0,223,223,223,,,,,,,,,,,,,,,,,,,,,,,,,,,,,,,,,,,,,,,,,,None,,786.6518323798431,None,786.6518323798431,None,2022-02-22-15:16:07.882548,786.6626668998506,786.9682089998387,786.6626668998506,786.6626668998506,None,786.6626668998506,786.6626668998506,787.4695644799853,None,,,,12012,0002,2022_Feb_22_1503,localizer,2021.1.3,60.45481368299659,
block,scrambled,scrambled068.bmp,,,,,0,224,224,224,,,,,,,,,,,,,,,,,,,,,,,,,,,,,,,,,,,,,,,,,,None,,787.4695644799853,None,787.4695644799853,None,2022-02-22-15:16:08.700167,787.4719100999646,787.7745546000078,787.4719100999646,None,None,787.4719100999646,None,788.2849359798478,None,,,,12012,0002,2022_Feb_22_1503,localizer,2021.1.3,60.45481368299659,
block,scrambled,scrambled022.bmp,,,,,0,225,225,225,,,,,,,,,,,,,,,,,,,,,,,,,,,,,,,,,,,,,,,,,,None,,788.2849359798478,None,788.2849359798478,None,2022-02-22-15:16:09.514448,788.2859745998867,788.5856287998613,788.2859745998867,None,None,788.2859745998867,None,789.1018540798453,None,,,,12012,0002,2022_Feb_22_1503,localizer,2021.1.3,60.45481368299659,
block,scrambled,scrambled064.bmp,,,,,0,226,226,226,,,,,,,,,,,,,,,,,,,,,,,,,,,,,,,,,,,,,,,,,,None,,789.1018540798453,None,789.1018540798453,None,2022-02-22-15:16:10.330598,789.1034730998799,789.4183894000016,789.1034730998799,None,None,789.1034730998799,None,789.9030180799076,None,,,,12012,0002,2022_Feb_22_1503,localizer,2021.1.3,60.45481368299659,
block_end,scrambled,scrambled056.bmp,,,,,0,227,227,227,,,,,,,,,,,,,,,,,,,,,,,,,,,,,,,,,,,,,,,,,,None,,789.9030180799076,None,789.9030180799076,None,2022-02-22-15:16:11.135448,789.9061096999794,790.2190820998512,789.9061096999794,789.9061096999794,None,789.9061096999794,789.9061096999794,790.7191166798351,None,,,,12012,0002,2022_Feb_22_1503,localizer,2021.1.3,60.45481368299659,
null_block,null_block,null_block.bmp,,,,,0,228,228,228,,,,,,,,,,,,,,,,,,,,,,,,,,,,,,,,,,,,,,,,,,t,1.817724599968642,790.7190612999257,None,790.7190612999257,None,2022-02-22-15:16:13.796072,792.5684883799171,None,792.5684883799171,None,None,792.5684883799171,None,792.5686302999966,None,,,,12012,0002,2022_Feb_22_1503,localizer,2021.1.3,60.45481368299659,
block_start,faces,faces003.bmp,,,,,0,229,229,229,,,,,,,,,,,,,,,,,,,,,,,,,,,,,,,,,,,,,,,,,,t,1.9681713001336902,804.5687029999681,None,804.5687029999681,None,2022-02-22-15:16:27.784525,806.5544230998494,806.8685704998206,806.5544230998494,None,None,806.5544230998494,None,807.3687469798373,None,,,,12012,0002,2022_Feb_22_1503,localizer,2021.1.3,60.45481368299659,
block,faces,faces026.bmp,,,,,0,230,230,230,,,,,,,,,,,,,,,,,,,,,,,,,,,,,,,,,,,,,,,,,,None,,807.3687469798373,None,807.3687469798373,None,2022-02-22-15:16:28.598545,807.3697522999719,807.6851458998863,807.3697522999719,None,None,807.3697522999719,None,808.1853111800505,None,,,,12012,0002,2022_Feb_22_1503,localizer,2021.1.3,60.45481368299659,
block,faces,faces046.bmp,,,,,0,231,231,231,,,,,,,,,,,,,,,,,,,,,,,,,,,,,,,,,,,,,,,,,,None,,808.1853111800505,None,808.1853111800505,None,2022-02-22-15:16:29.415330,808.1862184000202,808.4853748998139,808.1862184000202,None,None,808.1862184000202,None,809.0015682799043,None,,,,12012,0002,2022_Feb_22_1503,localizer,2021.1.3,60.45481368299659,
block,faces,faces059.bmp,,,,,0,232,232,232,,,,,,,,,,,,,,,,,,,,,,,,,,,,,,,,,,,,,,,,,,None,,809.0015682799043,None,809.0015682799043,None,2022-02-22-15:16:30.231391,809.0029797998723,809.3186645999085,809.0029797998723,None,None,809.0029797998723,None,809.8020738798426,None,,,,12012,0002,2022_Feb_22_1503,localizer,2021.1.3,60.45481368299659,
block,faces,faces044.bmp,,,,,0,233,233,233,,,,,,,,,,,,,,,,,,,,,,,,,,,,,,,,,,,,,,,,,,None,,809.8020738798426,None,809.8020738798426,None,2022-02-22-15:16:31.034121,809.8029334999155,810.1020420000423,809.8029334999155,809.8029334999155,None,809.8029334999155,809.8029334999155,810.6182886799564,None,,,,12012,0002,2022_Feb_22_1503,localizer,2021.1.3,60.45481368299659,
block,faces,faces045.bmp,,,,,0,234,234,234,,,,,,,,,,,,,,,,,,,,,,,,,,,,,,,,,,,,,,,,,,None,,810.6182886799564,None,810.6182886799564,None,2022-02-22-15:16:31.846871,810.6204343000427,810.9350613998249,810.6204343000427,None,None,810.6204343000427,None,811.4250308798859,None,,,,12012,0002,2022_Feb_22_1503,localizer,2021.1.3,60.45481368299659,
block,faces,faces060.bmp,,,,,0,235,235,235,,,,,,,,,,,,,,,,,,,,,,,,,,,,,,,,,,,,,,,,,,None,,811.4250308798859,None,811.4250308798859,None,2022-02-22-15:16:32.658112,811.428816499887,811.7362434999086,811.428816499887,None,None,811.428816499887,None,812.2353868798585,None,,,,12012,0002,2022_Feb_22_1503,localizer,2021.1.3,60.45481368299659,
block,faces,faces062.bmp,,,,,0,236,236,236,,,,,,,,,,,,,,,,,,,,,,,,,,,,,,,,,,,,,,,,,,None,,812.2353868798585,None,812.2353868798585,None,2022-02-22-15:16:33.465258,812.2363754999824,812.5519296999555,812.2363754999824,None,None,812.2363754999824,None,813.0355812799884,None,,,,12012,0002,2022_Feb_22_1503,localizer,2021.1.3,60.45481368299659,
block,faces,faces011.bmp,,,,,0,237,237,237,,,,,,,,,,,,,,,,,,,,,,,,,,,,,,,,,,,,,,,,,,None,,813.0355812799884,None,813.0355812799884,None,2022-02-22-15:16:34.267671,813.0362980999053,813.3354584998451,813.0362980999053,813.0362980999053,None,813.0362980999053,813.0362980999053,813.8354097800096,None,,,,12012,0002,2022_Feb_22_1503,localizer,2021.1.3,60.45481368299659,
block,faces,faces001.bmp,,,,,0,238,238,238,,,,,,,,,,,,,,,,,,,,,,,,,,,,,,,,,,,,,,,,,,None,,813.8354097800096,None,813.8354097800096,None,2022-02-22-15:16:35.067278,813.8484668999445,814.152104199864,813.8484668999445,813.8484668999445,None,813.8484668999445,813.8484668999445,814.6521626799134,None,,,,12012,0002,2022_Feb_22_1503,localizer,2021.1.3,60.45481368299659,
block,faces,faces039.bmp,,,,,0,239,239,239,,,,,,,,,,,,,,,,,,,,,,,,,,,,,,,,,,,,,,,,,,None,,814.6521626799134,None,814.6521626799134,None,2022-02-22-15:16:35.882070,814.6531483998988,814.9685364998877,814.6531483998988,None,None,814.6531483998988,None,815.45223517993,None,,,,12012,0002,2022_Feb_22_1503,localizer,2021.1.3,60.45481368299659,
block,faces,faces014.bmp,,,,,0,240,240,240,,,,,,,,,,,,,,,,,,,,,,,,,,,,,,,,,,,,,,,,,,None,,815.45223517993,None,815.45223517993,None,2022-02-22-15:16:36.684168,815.4531364999712,815.7522589999717,815.4531364999712,815.4531364999712,None,815.4531364999712,815.4531364999712,816.2522280800389,None,,,,12012,0002,2022_Feb_22_1503,localizer,2021.1.3,60.45481368299659,
block,faces,faces064.bmp,,,,,0,241,241,241,,,,,,,,,,,,,,,,,,,,,,,,,,,,,,,,,,,,,,,,,,None,,816.2522280800389,None,816.2522280800389,None,2022-02-22-15:16:37.484357,816.2651070000138,816.5684513000306,816.2651070000138,816.2651070000138,None,816.2651070000138,816.2651070000138,817.0695687799947,None,,,,12012,0002,2022_Feb_22_1503,localizer,2021.1.3,60.45481368299659,
block,faces,faces058.bmp,,,,,0,242,242,242,,,,,,,,,,,,,,,,,,,,,,,,,,,,,,,,,,,,,,,,,,None,,817.0695687799947,None,817.0695687799947,None,2022-02-22-15:16:38.303491,817.0879575000145,817.4018092998303,817.0879575000145,None,None,817.0879575000145,None,817.8853053799597,None,,,,12012,0002,2022_Feb_22_1503,localizer,2021.1.3,60.45481368299659,
block_end,faces,faces078.bmp,,,,,0,243,243,243,,,,,,,,,,,,,,,,,,,,,,,,,,,,,,,,,,,,,,,,,,None,,817.8853053799597,None,817.8853053799597,None,2022-02-22-15:16:39.115260,817.8862775999587,818.1851981999353,817.8862775999587,None,None,817.8862775999587,None,818.6855893798405,None,,,,12012,0002,2022_Feb_22_1503,localizer,2021.1.3,60.45481368299659,
,,,,,,,,,,,,,,,,,,,,,,,,,,,,,,,,,,,,,,,,,,,,,,,,,,,,,,,,,,,,,,,,,,,,,818.6909898000304,None,,,,,,,
