block_type,condition,img_name,Button.thisRepN,Button.thisTrialN,Button.thisN,Button.thisIndex,trials.thisRepN,trials.thisTrialN,trials.thisN,trials.thisIndex,Ready_experimenter_text.started,Ready_experimenter_text.stopped,Ready_experimenter_resp.keys,Ready_experimenter_resp.rt,Ready_experimenter_resp.started,Ready_experimenter_resp.stopped,Alignment_background.started,Alignment_background.stopped,Alignment_image.started,Alignment_image.stopped,Alignment_resp.keys,Alignment_resp.rt,Alignment_resp.started,Alignment_resp.stopped,Button_text.started,Button_text.stopped,Index_text.started,Index_text.stopped,Index_resp.keys,Index_resp.rt,Index_resp.started,Index_resp.stopped,Middle_text.started,Middle_text.stopped,Middle_resp.keys,Middle_resp.rt,Middle_resp.started,Middle_resp.stopped,Repeat_text.started,Repeat_text.stopped,Repeat_resp.keys,Repeat_resp.corr,Repeat_resp.rt,Repeat_resp.started,Repeat_resp.stopped,instruction_text.started,instruction_text.stopped,key_resp.keys,key_resp.rt,key_resp.started,key_resp.stopped,scanner_t.keys,scanner_t.rt,scanner_t.started,scanner_t.stopped,fixation_wait_for_t.started,fixation_wait_for_t.stopped,real_timestamp_trial_start,image.started,image.stopped,fixation.started,fixation.stopped,repeat_response.keys,repeat_response.started,repeat_response.stopped,fixation_null.started,fixation_null.stopped,repeat_response.rt,end_text.started,end_text.stopped,participant,run,date,expName,psychopyVersion,frameRate,
,,,,,,,,,,,11.890842599968892,None,return,476.93542359996354,11.890842599968892,None,,,,,,,,,,,,,,,,,,,,,,,,,,,,,,,,,,,,,,,,,,,,,,,,,,,,,,,11015,0002,2022_May_26_1159,localizer,2021.1.3,60.018029413580344,
,,,,,,,,,,,,,,,,,488.87030770001,None,488.87030770001,None,return,1.3796756999799982,488.87030770001,None,,,,,,,,,,,,,,,,,,,,,,,,,,,,,,,,,,,,,,,,,,,,,,,11015,0002,2022_May_26_1159,localizer,2021.1.3,60.018029413580344,
,,,0,0,0,0,,,,,,,,,,,,,,,,,,,490.26800390001154,None,491.26705149997724,None,y,0.7723119999864139,491.26705149997724,None,492.06918019999284,None,b,1.6713615999906324,492.06918019999284,None,493.7676375999581,None,n,0,1.7954809000366367,493.7676375999581,None,,,,,,,,,,,,,,,,,,,,,,,,,,11015,0002,2022_May_26_1159,localizer,2021.1.3,60.018029413580344,
,,,,,,,,,,,,,,,,,,,,,,,,,,,,,,,,,,,,,,,,,,,,,,495.58492449996993,None,y,22.308501399995293,495.58492449996993,None,,,,,,,,,,,,,,,,,,,,11015,0002,2022_May_26_1159,localizer,2021.1.3,60.018029413580344,
null_block,null_block,null_block.bmp,,,,,0,0,0,0,,,,,,,,,,,,,,,,,,,,,,,,,,,,,,,,,,,,,,,,,,t,16.021760599978734,517.954670200008,None,517.954670200008,None,2022-05-26-12:07:50.424114,534.0019464199955,None,534.0019464199955,None,None,534.0019464199955,None,534.0062553999596,None,,,,11015,0002,2022_May_26_1159,localizer,2021.1.3,60.018029413580344,
block_start,objects,objects071.bmp,,,,,0,1,1,1,,,,,,,,,,,,,,,,,,,,,,,,,,,,,,,,,,,,,,,,,,t,1.9584219999960624,546.0179760999745,None,546.0179760999745,None,2022-05-26-12:08:04.425307,548.0021117999568,548.3008317999775,548.0021117999568,None,None,548.0021117999568,None,548.8014165199653,None,,,,11015,0002,2022_May_26_1159,localizer,2021.1.3,60.018029413580344,
block,objects,objects061.bmp,,,,,0,2,2,2,,,,,,,,,,,,,,,,,,,,,,,,,,,,,,,,,,,,,,,,,,None,,548.8014165199653,None,548.8014165199653,None,2022-05-26-12:08:05.226603,548.8021521999617,549.1006118999794,548.8021521999617,548.8021521999617,None,548.8021521999617,548.8021521999617,549.6015315199562,None,,,,11015,0002,2022_May_26_1159,localizer,2021.1.3,60.018029413580344,
block,objects,objects076.bmp,,,,,0,3,3,3,,,,,,,,,,,,,,,,,,,,,,,,,,,,,,,,,,,,,,,,,,None,,549.6015315199562,None,549.6015315199562,None,2022-05-26-12:08:06.026512,549.6022018999793,549.9010597000015,549.6022018999793,549.6022018999793,None,549.6022018999793,549.6022018999793,550.4024139199697,None,,,,11015,0002,2022_May_26_1159,localizer,2021.1.3,60.018029413580344,
block,objects,objects039.bmp,,,,,0,4,4,4,,,,,,,,,,,,,,,,,,,,,,,,,,,,,,,,,,,,,,,,,,None,,550.4024139199697,None,550.4024139199697,None,2022-05-26-12:08:06.828559,550.4172058000113,550.7181574999704,550.4172058000113,550.4172058000113,None,550.4172058000113,550.4172058000113,551.2182757199568,None,,,,11015,0002,2022_May_26_1159,localizer,2021.1.3,60.018029413580344,
block,objects,objects008.bmp,,,,,0,5,5,5,,,,,,,,,,,,,,,,,,,,,,,,,,,,,,,,,,,,,,,,,,None,,551.2182757199568,None,551.2182757199568,None,2022-05-26-12:08:07.641263,551.2271918999613,551.5341852999991,551.2271918999613,None,None,551.2271918999613,None,552.0348998199858,None,,,,11015,0002,2022_May_26_1159,localizer,2021.1.3,60.018029413580344,
block,objects,objects030.bmp,,,,,0,6,6,6,,,,,,,,,,,,,,,,,,,,,,,,,,,,,,,,,,,,,,,,,,None,,552.0348998199858,None,552.0348998199858,None,2022-05-26-12:08:08.456938,552.0361004999722,552.3512252999935,552.0361004999722,None,None,552.0361004999722,None,552.8518341199903,None,,,,11015,0002,2022_May_26_1159,localizer,2021.1.3,60.018029413580344,
block,objects,objects054.bmp,,,,,0,7,7,7,,,,,,,,,,,,,,,,,,,,,,,,,,,,,,,,,,,,,,,,,,None,,552.8518341199903,None,552.8518341199903,None,2022-05-26-12:08:09.275123,552.8624935999978,553.1684067999595,552.8624935999978,None,None,552.8624935999978,None,553.669278119976,None,,,,11015,0002,2022_May_26_1159,localizer,2021.1.3,60.018029413580344,
block,objects,objects011.bmp,,,,,0,8,8,8,,,,,,,,,,,,,,,,,,,,,,,,,,,,,,,,,,,,,,,,,,None,,553.669278119976,None,553.669278119976,None,2022-05-26-12:08:10.094219,553.671727399982,553.9852982999873,553.671727399982,None,None,553.671727399982,None,554.4847910199838,None,,,,11015,0002,2022_May_26_1159,localizer,2021.1.3,60.018029413580344,
block,objects,objects075.bmp,,,,,0,9,9,9,,,,,,,,,,,,,,,,,,,,,,,,,,,,,,,,,,,,,,,,,,None,,554.4847910199838,None,554.4847910199838,None,2022-05-26-12:08:10.908024,554.4933017999865,554.8011273999582,554.4933017999865,None,None,554.4933017999865,None,555.3023039199703,None,,,,11015,0002,2022_May_26_1159,localizer,2021.1.3,60.018029413580344,
block,objects,objects050.bmp,,,,,0,10,10,10,,,,,,,,,,,,,,,,,,,,,,,,,,,,,,,,,,,,,,,,,,None,,555.3023039199703,None,555.3023039199703,None,2022-05-26-12:08:11.726274,555.3124202999752,555.6176443999866,555.3124202999752,None,None,555.3124202999752,None,556.118202820007,None,,,,11015,0002,2022_May_26_1159,localizer,2021.1.3,60.018029413580344,
block,objects,objects025.bmp,,,,,0,11,11,11,,,,,,,,,,,,,,,,,,,,,,,,,,,,,,,,,,,,,,,,,,None,,556.118202820007,None,556.118202820007,None,2022-05-26-12:08:12.541188,556.1187705000048,556.4177949999576,556.1187705000048,None,None,556.1187705000048,None,556.9183054199617,None,,,,11015,0002,2022_May_26_1159,localizer,2021.1.3,60.018029413580344,
block,objects,objects047.bmp,,,,,0,12,12,12,,,,,,,,,,,,,,,,,,,,,,,,,,,,,,,,,,,,,,,,,,None,,556.9183054199617,None,556.9183054199617,None,2022-05-26-12:08:13.342815,556.9187001999817,557.2176089999848,556.9187001999817,556.9187001999817,None,556.9187001999817,556.9187001999817,557.7184606199677,None,,,,11015,0002,2022_May_26_1159,localizer,2021.1.3,60.018029413580344,
block,objects,objects079.bmp,,,,,0,13,13,13,,,,,,,,,,,,,,,,,,,,,,,,,,,,,,,,,,,,,,,,,,None,,557.7184606199677,None,557.7184606199677,None,2022-05-26-12:08:14.143438,557.7298565999954,558.0344013999566,557.7298565999954,557.7298565999954,None,557.7298565999954,557.7298565999954,558.5349169199995,None,,,,11015,0002,2022_May_26_1159,localizer,2021.1.3,60.018029413580344,
block,objects,objects023.bmp,,,,,0,14,14,14,,,,,,,,,,,,,,,,,,,,,,,,,,,,,,,,,,,,,,,,,,None,,558.5349169199995,None,558.5349169199995,None,2022-05-26-12:08:14.958207,558.535382299975,558.8346607999993,558.535382299975,None,None,558.535382299975,None,559.3348963200057,None,,,,11015,0002,2022_May_26_1159,localizer,2021.1.3,60.018029413580344,
block_end,objects,objects005.bmp,,,,,0,15,15,15,,,,,,,,,,,,,,,,,,,,,,,,,,,,,,,,,,,,,,,,,,None,,559.3348963200057,None,559.3348963200057,None,2022-05-26-12:08:15.759878,559.3354093999951,559.6344695999869,559.3354093999951,559.3354093999951,None,559.3354093999951,559.3354093999951,560.14021122001,None,,,,11015,0002,2022_May_26_1159,localizer,2021.1.3,60.018029413580344,
block_start,faces,faces032.bmp,,,,,0,16,16,16,,,,,,,,,,,,,,,,,,,,,,,,,,,,,,,,,,,,,,,,,,t,1.8393656999687664,560.1360709999572,None,560.1360709999572,None,2022-05-26-12:08:18.425244,562.0082552999957,562.318543899979,562.0082552999957,None,None,562.0082552999957,None,562.8190532199748,None,,,,11015,0002,2022_May_26_1159,localizer,2021.1.3,60.018029413580344,
block,faces,faces054.bmp,,,,,0,17,17,17,,,,,,,,,,,,,,,,,,,,,,,,,,,,,,,,,,,,,,,,,,None,,562.8190532199748,None,562.8190532199748,None,2022-05-26-12:08:19.243253,562.8301980000106,563.1343658000114,562.8301980000106,None,None,562.8301980000106,None,563.6350232199708,None,,,,11015,0002,2022_May_26_1159,localizer,2021.1.3,60.018029413580344,
block,faces,faces037.bmp,,,,,0,18,18,18,,,,,,,,,,,,,,,,,,,,,,,,,,,,,,,,,,,,,,,,,,None,,563.6350232199708,None,563.6350232199708,None,2022-05-26-12:08:20.058255,563.6441592999618,563.9510282999836,563.6441592999618,None,None,563.6441592999618,None,564.4529921199952,None,,,,11015,0002,2022_May_26_1159,localizer,2021.1.3,60.018029413580344,
block,faces,faces044.bmp,,,,,0,19,19,19,,,,,,,,,,,,,,,,,,,,,,,,,,,,,,,,,,,,,,,,,,None,,564.4529921199952,None,564.4529921199952,None,2022-05-26-12:08:20.877963,564.4549992000102,564.7674570999807,564.4549992000102,None,None,564.4549992000102,None,565.2688207199623,None,,,,11015,0002,2022_May_26_1159,localizer,2021.1.3,60.018029413580344,
block,faces,faces023.bmp,,,,,0,20,20,20,,,,,,,,,,,,,,,,,,,,,,,,,,,,,,,,,,,,,,,,,,None,,565.2688207199623,None,565.2688207199623,None,2022-05-26-12:08:21.691798,565.2790501999552,565.5843833999825,565.2790501999552,None,None,565.2790501999552,None,566.0849705199886,None,,,,11015,0002,2022_May_26_1159,localizer,2021.1.3,60.018029413580344,
block,faces,faces059.bmp,,,,,0,21,21,21,,,,,,,,,,,,,,,,,,,,,,,,,,,,,,,,,,,,,,,,,,None,,566.0849705199886,None,566.0849705199886,None,2022-05-26-12:08:22.508253,566.0856683999882,566.3849422999774,566.0856683999882,None,None,566.0856683999882,None,566.8853873200075,None,,,,11015,0002,2022_May_26_1159,localizer,2021.1.3,60.018029413580344,
block,faces,faces042.bmp,,,,,0,22,22,22,,,,,,,,,,,,,,,,,,,,,,,,,,,,,,,,,,,,,,,,,,None,,566.8853873200075,None,566.8853873200075,None,2022-05-26-12:08:23.309717,566.8869069999782,567.200810899958,566.8869069999782,566.8869069999782,None,566.8869069999782,566.8869069999782,567.7021248199686,None,,,,11015,0002,2022_May_26_1159,localizer,2021.1.3,60.018029413580344,
block,faces,faces075.bmp,,,,,0,23,23,23,,,,,,,,,,,,,,,,,,,,,,,,,,,,,,,,,,,,,,,,,,None,,567.7021248199686,None,567.7021248199686,None,2022-05-26-12:08:24.125304,567.702550499991,568.0016154999612,567.702550499991,None,None,567.702550499991,None,568.5016736199556,None,,,,11015,0002,2022_May_26_1159,localizer,2021.1.3,60.018029413580344,
block,faces,faces065.bmp,,,,,0,24,24,24,,,,,,,,,,,,,,,,,,,,,,,,,,,,,,,,,,,,,,,,,,None,,568.5016736199556,None,568.5016736199556,None,2022-05-26-12:08:24.925655,568.5022006999934,568.8011430999613,568.5022006999934,568.5022006999934,None,568.5022006999934,568.5022006999934,569.3015436200018,None,,,,11015,0002,2022_May_26_1159,localizer,2021.1.3,60.018029413580344,
block,faces,faces012.bmp,,,,,0,25,25,25,,,,,,,,,,,,,,,,,,,,,,,,,,,,,,,,,,,,,,,,,,None,,569.3015436200018,None,569.3015436200018,None,2022-05-26-12:08:25.726527,569.3020544999745,569.6009188999888,569.3020544999745,569.3020544999745,None,569.3020544999745,569.3020544999745,570.1015480199654,None,,,,11015,0002,2022_May_26_1159,localizer,2021.1.3,60.018029413580344,
block,faces,faces050.bmp,,,,,0,26,26,26,,,,,,,,,,,,,,,,,,,,,,,,,,,,,,,,,,,,,,,,,,None,,570.1015480199654,None,570.1015480199654,None,2022-05-26-12:08:26.526533,570.1112069999799,570.4179007000057,570.1112069999799,570.1112069999799,None,570.1112069999799,570.1112069999799,570.9179451200122,None,,,,11015,0002,2022_May_26_1159,localizer,2021.1.3,60.018029413580344,
block,faces,faces024.bmp,,,,,0,27,27,27,,,,,,,,,,,,,,,,,,,,,,,,,,,,,,,,,,,,,,,,,,None,,570.9179451200122,None,570.9179451200122,None,2022-05-26-12:08:27.340931,570.9189251000062,571.2174464999698,570.9189251000062,None,None,570.9189251000062,None,571.7205017199682,None,,,,11015,0002,2022_May_26_1159,localizer,2021.1.3,60.018029413580344,
block,faces,faces052.bmp,,,,,0,28,28,28,,,,,,,,,,,,,,,,,,,,,,,,,,,,,,,,,,,,,,,,,,None,,571.7205017199682,None,571.7205017199682,None,2022-05-26-12:08:28.149573,571.7275420000078,572.0352067999775,571.7275420000078,571.7275420000078,None,571.7275420000078,571.7275420000078,572.5356278199994,None,,,,11015,0002,2022_May_26_1159,localizer,2021.1.3,60.018029413580344,
block,faces,faces014.bmp,,,,,0,29,29,29,,,,,,,,,,,,,,,,,,,,,,,,,,,,,,,,,,,,,,,,,,None,,572.5356278199994,None,572.5356278199994,None,2022-05-26-12:08:28.959682,572.5470683999592,572.8508406999754,572.5470683999592,None,None,572.5470683999592,None,573.3511156199908,None,,,,11015,0002,2022_May_26_1159,localizer,2021.1.3,60.018029413580344,
block_end,faces,faces088.bmp,,,,,0,30,30,30,,,,,,,,,,,,,,,,,,,,,,,,,,,,,,,,,,,,,,,,,,None,,573.3511156199908,None,573.3511156199908,None,2022-05-26-12:08:29.773405,573.351989399991,573.6568657999742,573.351989399991,None,None,573.351989399991,None,574.1516846200044,None,,,,11015,0002,2022_May_26_1159,localizer,2021.1.3,60.018029413580344,
block_start,scrambled,scrambled052.bmp,,,,,0,31,31,31,,,,,,,,,,,,,,,,,,,,,,,,,,,,,,,,,,,,,,,,,,t,1.8245925000519492,574.1508092999575,None,574.1508092999575,None,2022-05-26-12:08:32.426912,576.0049554999568,576.3181616999791,576.0049554999568,None,None,576.0049554999568,None,576.8197540199559,None,,,,11015,0002,2022_May_26_1159,localizer,2021.1.3,60.018029413580344,
block,scrambled,scrambled026.bmp,,,,,0,32,32,32,,,,,,,,,,,,,,,,,,,,,,,,,,,,,,,,,,,,,,,,,,None,,576.8197540199559,None,576.8197540199559,None,2022-05-26-12:08:33.243885,576.8269389999914,577.1344697999884,576.8269389999914,None,None,576.8269389999914,None,577.6349816200033,None,,,,11015,0002,2022_May_26_1159,localizer,2021.1.3,60.018029413580344,
block,scrambled,scrambled036.bmp,,,,,0,33,33,33,,,,,,,,,,,,,,,,,,,,,,,,,,,,,,,,,,,,,,,,,,None,,577.6349816200033,None,577.6349816200033,None,2022-05-26-12:08:34.057613,577.6420566999586,577.951394099975,577.6420566999586,None,None,577.6420566999586,None,578.4529146199872,None,,,,11015,0002,2022_May_26_1159,localizer,2021.1.3,60.018029413580344,
block,scrambled,scrambled017.bmp,,,,,0,34,34,34,,,,,,,,,,,,,,,,,,,,,,,,,,,,,,,,,,,,,,,,,,None,,578.4529146199872,None,578.4529146199872,None,2022-05-26-12:08:34.876860,578.4648191999877,578.7679237999837,578.4648191999877,None,None,578.4648191999877,None,579.2686945199908,None,,,,11015,0002,2022_May_26_1159,localizer,2021.1.3,60.018029413580344,
block,scrambled,scrambled062.bmp,,,,,0,35,35,35,,,,,,,,,,,,,,,,,,,,,,,,,,,,,,,,,,,,,,,,,,None,,579.2686945199908,None,579.2686945199908,None,2022-05-26-12:08:35.691728,579.268789099995,579.5674032999668,579.268789099995,None,None,579.268789099995,None,580.0685699199618,None,,,,11015,0002,2022_May_26_1159,localizer,2021.1.3,60.018029413580344,
block,scrambled,scrambled030.bmp,,,,,0,36,36,36,,,,,,,,,,,,,,,,,,,,,,,,,,,,,,,,,,,,,,,,,,None,,580.0685699199618,None,580.0685699199618,None,2022-05-26-12:08:36.493681,580.0691884999978,580.3678938999656,580.0691884999978,580.0691884999978,None,580.0691884999978,580.0691884999978,580.8696691199963,None,,,,11015,0002,2022_May_26_1159,localizer,2021.1.3,60.018029413580344,
block,scrambled,scrambled059.bmp,,,,,0,37,37,37,,,,,,,,,,,,,,,,,,,,,,,,,,,,,,,,,,,,,,,,,,None,,580.8696691199963,None,580.8696691199963,None,2022-05-26-12:08:37.296625,580.8741424999898,581.1836369999801,580.8741424999898,580.8741424999898,None,580.8741424999898,580.8741424999898,581.6858978199831,None,,,,11015,0002,2022_May_26_1159,localizer,2021.1.3,60.018029413580344,
block,scrambled,scrambled044.bmp,,,,,0,38,38,38,,,,,,,,,,,,,,,,,,,,,,,,,,,,,,,,,,,,,,,,,,None,,581.6858978199831,None,581.6858978199831,None,2022-05-26-12:08:38.110058,581.6972203999758,582.0011395000038,581.6972203999758,None,None,581.6972203999758,None,582.5031470199989,None,,,,11015,0002,2022_May_26_1159,localizer,2021.1.3,60.018029413580344,
block,scrambled,scrambled071.bmp,,,,,0,39,39,39,,,,,,,,,,,,,,,,,,,,,,,,,,,,,,,,,,,,,,,,,,None,,582.5031470199989,None,582.5031470199989,None,2022-05-26-12:08:38.927296,582.5046388999908,582.8181954000029,582.5046388999908,None,None,582.5046388999908,None,583.3189538199746,None,,,,11015,0002,2022_May_26_1159,localizer,2021.1.3,60.018029413580344,
block,scrambled,scrambled068.bmp,,,,,0,40,40,40,,,,,,,,,,,,,,,,,,,,,,,,,,,,,,,,,,,,,,,,,,None,,583.3189538199746,None,583.3189538199746,None,2022-05-26-12:08:39.741933,583.319027599995,583.6183810000075,583.319027599995,None,None,583.319027599995,None,584.1183523199812,None,,,,11015,0002,2022_May_26_1159,localizer,2021.1.3,60.018029413580344,
block,scrambled,scrambled070.bmp,,,,,0,41,41,41,,,,,,,,,,,,,,,,,,,,,,,,,,,,,,,,,,,,,,,,,,None,,584.1183523199812,None,584.1183523199812,None,2022-05-26-12:08:40.542340,584.1189863999607,584.4175240999903,584.1189863999607,584.1189863999607,None,584.1189863999607,584.1189863999607,584.9185017200012,None,,,,11015,0002,2022_May_26_1159,localizer,2021.1.3,60.018029413580344,
block,scrambled,scrambled055.bmp,,,,,0,42,42,42,,,,,,,,,,,,,,,,,,,,,,,,,,,,,,,,,,,,,,,,,,None,,584.9185017200012,None,584.9185017200012,None,2022-05-26-12:08:41.343681,584.9295494999969,585.2352558999555,584.9295494999969,584.9295494999969,None,584.9295494999969,584.9295494999969,585.735193819966,None,,,,11015,0002,2022_May_26_1159,localizer,2021.1.3,60.018029413580344,
block,scrambled,scrambled013.bmp,,,,,0,43,43,43,,,,,,,,,,,,,,,,,,,,,,,,,,,,,,,,,,,,,,,,,,None,,585.735193819966,None,585.735193819966,None,2022-05-26-12:08:42.158180,585.7354486999684,586.0344704999588,585.7354486999684,None,None,585.7354486999684,None,586.5353878199763,None,,,,11015,0002,2022_May_26_1159,localizer,2021.1.3,60.018029413580344,
block,scrambled,scrambled049.bmp,,,,,0,44,44,44,,,,,,,,,,,,,,,,,,,,,,,,,,,,,,,,,,,,,,,,,,None,,586.5353878199763,None,586.5353878199763,None,2022-05-26-12:08:42.960354,586.5470707999775,586.8515217999811,586.5470707999775,586.5470707999775,None,586.5470707999775,586.5470707999775,587.3518387199671,None,,,,11015,0002,2022_May_26_1159,localizer,2021.1.3,60.018029413580344,
block_end,scrambled,scrambled054.bmp,,,,,0,45,45,45,,,,,,,,,,,,,,,,,,,,,,,,,,,,,,,,,,,,,,,,,,None,,587.3518387199671,None,587.3518387199671,None,2022-05-26-12:08:43.774823,587.3610300999717,587.6679982999922,587.3610300999717,None,None,587.3610300999717,None,588.1684901199711,None,,,,11015,0002,2022_May_26_1159,localizer,2021.1.3,60.018029413580344,
block_start,scenes,scenes054.bmp,,,,,0,46,46,46,,,,,,,,,,,,,,,,,,,,,,,,,,,,,,,,,,,,,,,,,,t,1.8074530000449158,588.1679036999703,None,588.1679036999703,None,2022-05-26-12:08:46.427363,590.0053636999801,590.3180759999668,590.0053636999801,None,None,590.0053636999801,None,590.8188040199981,None,,,,11015,0002,2022_May_26_1159,localizer,2021.1.3,60.018029413580344,
block,scenes,scenes083.bmp,,,,,0,47,47,47,,,,,,,,,,,,,,,,,,,,,,,,,,,,,,,,,,,,,,,,,,None,,590.8188040199981,None,590.8188040199981,None,2022-05-26-12:08:47.241785,590.819025099976,591.1179714999744,590.819025099976,None,None,590.819025099976,None,591.6187014199619,None,,,,11015,0002,2022_May_26_1159,localizer,2021.1.3,60.018029413580344,
block,scenes,scenes047.bmp,,,,,0,48,48,48,,,,,,,,,,,,,,,,,,,,,,,,,,,,,,,,,,,,,,,,,,None,,591.6187014199619,None,591.6187014199619,None,2022-05-26-12:08:48.043755,591.6296030000085,591.9347690999857,591.6296030000085,591.6296030000085,None,591.6296030000085,591.6296030000085,592.435436519963,None,,,,11015,0002,2022_May_26_1159,localizer,2021.1.3,60.018029413580344,
block,scenes,scenes047.bmp,,,,,0,49,49,49,,,,,,,,,,,,,,,,,,,,,,,,,,,,,,,,,,,,,,,,,,None,,592.435436519963,None,592.435436519963,None,2022-05-26-12:08:48.858420,592.4357152999728,592.734931199986,592.4357152999728,None,y,592.4357152999728,None,593.2353172199743,None,0.7014255999820307,,,11015,0002,2022_May_26_1159,localizer,2021.1.3,60.018029413580344,
block,scenes,scenes043.bmp,,,,,0,50,50,50,,,,,,,,,,,,,,,,,,,,,,,,,,,,,,,,,,,,,,,,,,None,,593.2353172199743,None,593.2353172199743,None,2022-05-26-12:08:49.660352,593.2359977999586,593.5345482999692,593.2359977999586,593.2359977999586,None,593.2359977999586,593.2359977999586,594.0353153200064,None,,,,11015,0002,2022_May_26_1159,localizer,2021.1.3,60.018029413580344,
block,scenes,scenes005.bmp,,,,,0,51,51,51,,,,,,,,,,,,,,,,,,,,,,,,,,,,,,,,,,,,,,,,,,None,,594.0353153200064,None,594.0353153200064,None,2022-05-26-12:08:50.460176,594.0358867999748,594.3347261999734,594.0358867999748,594.0358867999748,None,594.0358867999748,594.0358867999748,594.8352279199695,None,,,,11015,0002,2022_May_26_1159,localizer,2021.1.3,60.018029413580344,
block,scenes,scenes002.bmp,,,,,0,52,52,52,,,,,,,,,,,,,,,,,,,,,,,,,,,,,,,,,,,,,,,,,,None,,594.8352279199695,None,594.8352279199695,None,2022-05-26-12:08:51.260027,594.8356832999852,595.134724100004,594.8356832999852,594.8356832999852,None,594.8356832999852,594.8356832999852,595.635140019987,None,,,,11015,0002,2022_May_26_1159,localizer,2021.1.3,60.018029413580344,
block,scenes,scenes003.bmp,,,,,0,53,53,53,,,,,,,,,,,,,,,,,,,,,,,,,,,,,,,,,,,,,,,,,,None,,595.635140019987,None,595.635140019987,None,2022-05-26-12:08:52.060093,595.63547009998,595.9347934999969,595.63547009998,595.63547009998,None,595.63547009998,595.63547009998,596.4348887199827,None,,,,11015,0002,2022_May_26_1159,localizer,2021.1.3,60.018029413580344,
block,scenes,scenes042.bmp,,,,,0,54,54,54,,,,,,,,,,,,,,,,,,,,,,,,,,,,,,,,,,,,,,,,,,None,,596.4348887199827,None,596.4348887199827,None,2022-05-26-12:08:52.859870,596.435454499966,596.7345541999675,596.435454499966,596.435454499966,None,596.435454499966,596.435454499966,597.2353808199929,None,,,,11015,0002,2022_May_26_1159,localizer,2021.1.3,60.018029413580344,
block,scenes,scenes067.bmp,,,,,0,55,55,55,,,,,,,,,,,,,,,,,,,,,,,,,,,,,,,,,,,,,,,,,,None,,597.2353808199929,None,597.2353808199929,None,2022-05-26-12:08:53.659586,597.246780299989,597.5514847000013,597.246780299989,597.246780299989,None,597.246780299989,597.246780299989,598.0517406199884,None,,,,11015,0002,2022_May_26_1159,localizer,2021.1.3,60.018029413580344,
block,scenes,scenes009.bmp,,,,,0,56,56,56,,,,,,,,,,,,,,,,,,,,,,,,,,,,,,,,,,,,,,,,,,None,,598.0517406199884,None,598.0517406199884,None,2022-05-26-12:08:54.474977,598.0522759999731,598.3520909000072,598.0522759999731,None,None,598.0522759999731,None,598.8519354200049,None,,,,11015,0002,2022_May_26_1159,localizer,2021.1.3,60.018029413580344,
block,scenes,scenes080.bmp,,,,,0,57,57,57,,,,,,,,,,,,,,,,,,,,,,,,,,,,,,,,,,,,,,,,,,None,,598.8519354200049,None,598.8519354200049,None,2022-05-26-12:08:55.276337,598.8522484999849,599.1514485999942,598.8522484999849,598.8522484999849,None,598.8522484999849,598.8522484999849,599.6520760199579,None,,,,11015,0002,2022_May_26_1159,localizer,2021.1.3,60.018029413580344,
block,scenes,scenes034.bmp,,,,,0,58,58,58,,,,,,,,,,,,,,,,,,,,,,,,,,,,,,,,,,,,,,,,,,None,,599.6520760199579,None,599.6520760199579,None,2022-05-26-12:08:56.077059,599.6639009999926,599.9682109999703,599.6639009999926,599.6639009999926,None,599.6639009999926,599.6639009999926,600.4686787199986,None,,,,11015,0002,2022_May_26_1159,localizer,2021.1.3,60.018029413580344,
block,scenes,scenes088.bmp,,,,,0,59,59,59,,,,,,,,,,,,,,,,,,,,,,,,,,,,,,,,,,,,,,,,,,None,,600.4686787199986,None,600.4686787199986,None,2022-05-26-12:08:56.891672,600.4691514999722,600.7683220999897,600.4691514999722,None,None,600.4691514999722,None,601.2686511200096,None,,,,11015,0002,2022_May_26_1159,localizer,2021.1.3,60.018029413580344,
block_end,scenes,scenes060.bmp,,,,,0,60,60,60,,,,,,,,,,,,,,,,,,,,,,,,,,,,,,,,,,,,,,,,,,None,,601.2686511200096,None,601.2686511200096,None,2022-05-26-12:08:57.693628,601.2694037999609,601.5681510999566,601.2694037999609,601.2694037999609,None,601.2694037999609,601.2694037999609,602.071030220011,None,,,,11015,0002,2022_May_26_1159,localizer,2021.1.3,60.018029413580344,
null_block,null_block,null_block.bmp,,,,,0,61,61,61,,,,,,,,,,,,,,,,,,,,,,,,,,,,,,,,,,,,,,,,,,t,1.9067422999651171,602.0686575999716,None,602.0686575999716,None,2022-05-26-12:09:00.423915,604.0019270199642,None,604.0019270199642,None,None,604.0019270199642,None,604.0038347999798,None,,,,11015,0002,2022_May_26_1159,localizer,2021.1.3,60.018029413580344,
block_start,scrambled,scrambled081.bmp,,,,,0,62,62,62,,,,,,,,,,,,,,,,,,,,,,,,,,,,,,,,,,,,,,,,,,t,1.9573350999853574,616.0181737999665,None,616.0181737999665,None,2022-05-26-12:09:14.429426,618.0168279999634,618.3177170999697,618.0168279999634,None,None,618.0168279999634,None,618.818759320007,None,,,,11015,0002,2022_May_26_1159,localizer,2021.1.3,60.018029413580344,
block,scrambled,scrambled029.bmp,,,,,0,63,63,63,,,,,,,,,,,,,,,,,,,,,,,,,,,,,,,,,,,,,,,,,,None,,618.818759320007,None,618.818759320007,None,2022-05-26-12:09:15.241782,618.8286235999549,619.1344978999696,618.8286235999549,None,None,618.8286235999549,None,619.6354328200047,None,,,,11015,0002,2022_May_26_1159,localizer,2021.1.3,60.018029413580344,
block,scrambled,scrambled082.bmp,,,,,0,64,64,64,,,,,,,,,,,,,,,,,,,,,,,,,,,,,,,,,,,,,,,,,,None,,619.6354328200047,None,619.6354328200047,None,2022-05-26-12:09:16.058649,619.6450354999979,619.9514751000097,619.6450354999979,None,None,619.6450354999979,None,620.4520463200112,None,,,,11015,0002,2022_May_26_1159,localizer,2021.1.3,60.018029413580344,
block,scrambled,scrambled085.bmp,,,,,0,65,65,65,,,,,,,,,,,,,,,,,,,,,,,,,,,,,,,,,,,,,,,,,,None,,620.4520463200112,None,620.4520463200112,None,2022-05-26-12:09:16.875027,620.4522362999851,620.7514233000111,620.4522362999851,None,None,620.4522362999851,None,621.2520837199933,None,,,,11015,0002,2022_May_26_1159,localizer,2021.1.3,60.018029413580344,
block,scrambled,scrambled041.bmp,,,,,0,66,66,66,,,,,,,,,,,,,,,,,,,,,,,,,,,,,,,,,,,,,,,,,,None,,621.2520837199933,None,621.2520837199933,None,2022-05-26-12:09:17.677060,621.2528108999832,621.5515623000101,621.2528108999832,621.2528108999832,None,621.2528108999832,621.2528108999832,622.0683629199572,None,,,,11015,0002,2022_May_26_1159,localizer,2021.1.3,60.018029413580344,
block,scrambled,scrambled034.bmp,,,,,0,67,67,67,,,,,,,,,,,,,,,,,,,,,,,,,,,,,,,,,,,,,,,,,,None,,622.0683629199572,None,622.0683629199572,None,2022-05-26-12:09:18.491349,622.0696733999648,622.3684887999552,622.0696733999648,None,None,622.0696733999648,None,622.8689794199832,None,,,,11015,0002,2022_May_26_1159,localizer,2021.1.3,60.018029413580344,
block,scrambled,scrambled037.bmp,,,,,0,68,68,68,,,,,,,,,,,,,,,,,,,,,,,,,,,,,,,,,,,,,,,,,,None,,622.8689794199832,None,622.8689794199832,None,2022-05-26-12:09:19.293969,622.8697774999891,623.1684938999824,622.8697774999891,622.8697774999891,None,622.8697774999891,622.8697774999891,623.6699604199908,None,,,,11015,0002,2022_May_26_1159,localizer,2021.1.3,60.018029413580344,
block,scrambled,scrambled052.bmp,,,,,0,69,69,69,,,,,,,,,,,,,,,,,,,,,,,,,,,,,,,,,,,,,,,,,,None,,623.6699604199908,None,623.6699604199908,None,2022-05-26-12:09:20.096981,623.6734517999575,623.9845862999791,623.6734517999575,623.6734517999575,None,623.6734517999575,623.6734517999575,624.4853455199569,None,,,,11015,0002,2022_May_26_1159,localizer,2021.1.3,60.018029413580344,
block,scrambled,scrambled053.bmp,,,,,0,70,70,70,,,,,,,,,,,,,,,,,,,,,,,,,,,,,,,,,,,,,,,,,,None,,624.4853455199569,None,624.4853455199569,None,2022-05-26-12:09:20.908226,624.4937191999634,624.8013624000014,624.4937191999634,None,None,624.4937191999634,None,625.3031645200041,None,,,,11015,0002,2022_May_26_1159,localizer,2021.1.3,60.018029413580344,
block,scrambled,scrambled076.bmp,,,,,0,71,71,71,,,,,,,,,,,,,,,,,,,,,,,,,,,,,,,,,,,,,,,,,,None,,625.3031645200041,None,625.3031645200041,None,2022-05-26-12:09:21.727306,625.3048535999842,625.6189131999854,625.3048535999842,None,None,625.3048535999842,None,626.1056950199942,None,,,,11015,0002,2022_May_26_1159,localizer,2021.1.3,60.018029413580344,
block,scrambled,scrambled028.bmp,,,,,0,72,72,72,,,,,,,,,,,,,,,,,,,,,,,,,,,,,,,,,,,,,,,,,,None,,626.1056950199942,None,626.1056950199942,None,2022-05-26-12:09:22.538719,626.1141578999814,626.4186272000079,626.1141578999814,626.1141578999814,None,626.1141578999814,626.1141578999814,626.9191926199652,None,,,,11015,0002,2022_May_26_1159,localizer,2021.1.3,60.018029413580344,
block,scrambled,scrambled030.bmp,,,,,0,73,73,73,,,,,,,,,,,,,,,,,,,,,,,,,,,,,,,,,,,,,,,,,,None,,626.9191926199652,None,626.9191926199652,None,2022-05-26-12:09:23.342170,626.9191189999692,627.2185349999927,626.9191189999692,None,None,626.9191189999692,None,627.7186083199864,None,,,,11015,0002,2022_May_26_1159,localizer,2021.1.3,60.018029413580344,
block,scrambled,scrambled056.bmp,,,,,0,74,74,74,,,,,,,,,,,,,,,,,,,,,,,,,,,,,,,,,,,,,,,,,,None,,627.7186083199864,None,627.7186083199864,None,2022-05-26-12:09:24.143175,627.7189107000013,628.0183010000037,627.7189107000013,627.7189107000013,None,627.7189107000013,627.7189107000013,628.5209572199907,None,,,,11015,0002,2022_May_26_1159,localizer,2021.1.3,60.018029413580344,
block,scrambled,scrambled065.bmp,,,,,0,75,75,75,,,,,,,,,,,,,,,,,,,,,,,,,,,,,,,,,,,,,,,,,,None,,628.5209572199907,None,628.5209572199907,None,2022-05-26-12:09:24.946003,628.5288642999949,628.8346839000005,628.5288642999949,628.5288642999949,None,628.5288642999949,628.5288642999949,629.3357382199553,None,,,,11015,0002,2022_May_26_1159,localizer,2021.1.3,60.018029413580344,
block_end,scrambled,scrambled014.bmp,,,,,0,76,76,76,,,,,,,,,,,,,,,,,,,,,,,,,,,,,,,,,,,,,,,,,,None,,629.3357382199553,None,629.3357382199553,None,2022-05-26-12:09:25.758656,629.3358782999567,629.6352314999676,629.3358782999567,None,None,629.3358782999567,None,630.1350851199765,None,,,,11015,0002,2022_May_26_1159,localizer,2021.1.3,60.018029413580344,
block_start,faces,faces078.bmp,,,,,0,77,77,77,,,,,,,,,,,,,,,,,,,,,,,,,,,,,,,,,,,,,,,,,,t,1.840781099977903,630.1346308999928,None,630.1346308999928,None,2022-05-26-12:09:28.426917,632.0454824999906,632.3514145999798,632.0454824999906,None,None,632.0454824999906,None,632.818780419993,None,,,,11015,0002,2022_May_26_1159,localizer,2021.1.3,60.018029413580344,
block,faces,faces070.bmp,,,,,0,78,78,78,,,,,,,,,,,,,,,,,,,,,,,,,,,,,,,,,,,,,,,,,,None,,632.818780419993,None,632.818780419993,None,2022-05-26-12:09:29.241765,632.8291737000109,633.134770100005,632.8291737000109,None,None,632.8291737000109,None,633.6351632199891,None,,,,11015,0002,2022_May_26_1159,localizer,2021.1.3,60.018029413580344,
block,faces,faces057.bmp,,,,,0,79,79,79,,,,,,,,,,,,,,,,,,,,,,,,,,,,,,,,,,,,,,,,,,None,,633.6351632199891,None,633.6351632199891,None,2022-05-26-12:09:30.057155,633.6359409999568,633.951498499955,633.6359409999568,None,None,633.6359409999568,None,634.4357443199784,None,,,,11015,0002,2022_May_26_1159,localizer,2021.1.3,60.018029413580344,
block,faces,faces002.bmp,,,,,0,80,80,80,,,,,,,,,,,,,,,,,,,,,,,,,,,,,,,,,,,,,,,,,,None,,634.4357443199784,None,634.4357443199784,None,2022-05-26-12:09:30.860765,634.4483934000018,634.7514956999803,634.4483934000018,634.4483934000018,None,634.4483934000018,634.4483934000018,635.2524604200095,None,,,,11015,0002,2022_May_26_1159,localizer,2021.1.3,60.018029413580344,
block,faces,faces067.bmp,,,,,0,81,81,81,,,,,,,,,,,,,,,,,,,,,,,,,,,,,,,,,,,,,,,,,,None,,635.2524604200095,None,635.2524604200095,None,2022-05-26-12:09:31.674892,635.2576282999944,635.5675962999812,635.2576282999944,None,None,635.2576282999944,None,636.0688873199921,None,,,,11015,0002,2022_May_26_1159,localizer,2021.1.3,60.018029413580344,
block,faces,faces021.bmp,,,,,0,82,82,82,,,,,,,,,,,,,,,,,,,,,,,,,,,,,,,,,,,,,,,,,,None,,636.0688873199921,None,636.0688873199921,None,2022-05-26-12:09:32.492105,636.0789226999623,636.3848547000089,636.0789226999623,None,None,636.0789226999623,None,636.8852982199693,None,,,,11015,0002,2022_May_26_1159,localizer,2021.1.3,60.018029413580344,
block,faces,faces008.bmp,,,,,0,83,83,83,,,,,,,,,,,,,,,,,,,,,,,,,,,,,,,,,,,,,,,,,,None,,636.8852982199693,None,636.8852982199693,None,2022-05-26-12:09:33.308283,636.8956430999679,637.2018369999714,636.8956430999679,None,None,636.8956430999679,None,637.7018574199698,None,,,,11015,0002,2022_May_26_1159,localizer,2021.1.3,60.018029413580344,
block,faces,faces025.bmp,,,,,0,84,84,84,,,,,,,,,,,,,,,,,,,,,,,,,,,,,,,,,,,,,,,,,,None,,637.7018574199698,None,637.7018574199698,None,2022-05-26-12:09:34.124842,637.7105384999886,638.0181911999825,637.7105384999886,None,None,637.7105384999886,None,638.5200168199896,None,,,,11015,0002,2022_May_26_1159,localizer,2021.1.3,60.018029413580344,
block,faces,faces062.bmp,,,,,0,85,85,85,,,,,,,,,,,,,,,,,,,,,,,,,,,,,,,,,,,,,,,,,,None,,638.5200168199896,None,638.5200168199896,None,2022-05-26-12:09:34.943961,638.5315854999935,638.8348537999555,638.5315854999935,None,None,638.5315854999935,None,639.3356987200037,None,,,,11015,0002,2022_May_26_1159,localizer,2021.1.3,60.018029413580344,
block,faces,faces019.bmp,,,,,0,86,86,86,,,,,,,,,,,,,,,,,,,,,,,,,,,,,,,,,,,,,,,,,,None,,639.3356987200037,None,639.3356987200037,None,2022-05-26-12:09:35.758887,639.3359522999963,639.6348424999742,639.3359522999963,None,None,639.3359522999963,None,640.1352341200051,None,,,,11015,0002,2022_May_26_1159,localizer,2021.1.3,60.018029413580344,
block,faces,faces033.bmp,,,,,0,87,87,87,,,,,,,,,,,,,,,,,,,,,,,,,,,,,,,,,,,,,,,,,,None,,640.1352341200051,None,640.1352341200051,None,2022-05-26-12:09:36.559465,640.1509978999966,640.4513970999978,640.1509978999966,640.1509978999966,None,640.1509978999966,640.1509978999966,640.9521558199718,None,,,,11015,0002,2022_May_26_1159,localizer,2021.1.3,60.018029413580344,
block,faces,faces061.bmp,,,,,0,88,88,88,,,,,,,,,,,,,,,,,,,,,,,,,,,,,,,,,,,,,,,,,,None,,640.9521558199718,None,640.9521558199718,None,2022-05-26-12:09:37.375140,640.9623475999688,641.2679963999544,640.9623475999688,None,None,640.9623475999688,None,641.7686316199776,None,,,,11015,0002,2022_May_26_1159,localizer,2021.1.3,60.018029413580344,
block,faces,faces018.bmp,,,,,0,89,89,89,,,,,,,,,,,,,,,,,,,,,,,,,,,,,,,,,,,,,,,,,,None,,641.7686316199776,None,641.7686316199776,None,2022-05-26-12:09:38.191765,641.7693669999717,642.0681673999643,641.7693669999717,None,None,641.7693669999717,None,642.5700565199892,None,,,,11015,0002,2022_May_26_1159,localizer,2021.1.3,60.018029413580344,
block,faces,faces072.bmp,,,,,0,90,90,90,,,,,,,,,,,,,,,,,,,,,,,,,,,,,,,,,,,,,,,,,,None,,642.5700565199892,None,642.5700565199892,None,2022-05-26-12:09:38.997240,642.5854440999683,642.885255399975,642.5854440999683,642.5854440999683,None,642.5854440999683,642.5854440999683,643.387647219986,None,,,,11015,0002,2022_May_26_1159,localizer,2021.1.3,60.018029413580344,
block_end,faces,faces072.bmp,,,,,0,91,91,91,,,,,,,,,,,,,,,,,,,,,,,,,,,,,,,,,,,,,,,,,,None,,643.387647219986,None,643.387647219986,None,2022-05-26-12:09:39.814803,643.3903339999961,643.7014475999749,643.3903339999961,None,y,643.3903339999961,None,644.2019102199644,None,0.7577066000085324,,,11015,0002,2022_May_26_1159,localizer,2021.1.3,60.018029413580344,
block_start,scenes,scenes011.bmp,,,,,0,92,92,92,,,,,,,,,,,,,,,,,,,,,,,,,,,,,,,,,,,,,,,,,,t,1.7738985000178218,644.2013537999592,None,644.2013537999592,None,2022-05-26-12:09:42.424937,646.0028359999997,646.3180778999813,646.0028359999997,None,None,646.0028359999997,None,646.8047983199882,None,,,,11015,0002,2022_May_26_1159,localizer,2021.1.3,60.018029413580344,
block,scenes,scenes074.bmp,,,,,0,93,93,93,,,,,,,,,,,,,,,,,,,,,,,,,,,,,,,,,,,,,,,,,,None,,646.8047983199882,None,646.8047983199882,None,2022-05-26-12:09:43.229305,646.8133730999543,647.1181731999968,646.8133730999543,646.8133730999543,None,646.8133730999543,646.8133730999543,647.6200668199978,None,,,,11015,0002,2022_May_26_1159,localizer,2021.1.3,60.018029413580344,
block,scenes,scenes021.bmp,,,,,0,94,94,94,,,,,,,,,,,,,,,,,,,,,,,,,,,,,,,,,,,,,,,,,,None,,647.6200668199978,None,647.6200668199978,None,2022-05-26-12:09:44.044207,647.6218805999961,647.9201337999548,647.6218805999961,None,None,647.6218805999961,None,648.4357410200115,None,,,,11015,0002,2022_May_26_1159,localizer,2021.1.3,60.018029413580344,
block,scenes,scenes014.bmp,,,,,0,95,95,95,,,,,,,,,,,,,,,,,,,,,,,,,,,,,,,,,,,,,,,,,,None,,648.4357410200115,None,648.4357410200115,None,2022-05-26-12:09:44.858704,648.4358807000099,648.7351082999958,648.4358807000099,None,None,648.4358807000099,None,649.2354526199575,None,,,,11015,0002,2022_May_26_1159,localizer,2021.1.3,60.018029413580344,
block,scenes,scenes046.bmp,,,,,0,96,96,96,,,,,,,,,,,,,,,,,,,,,,,,,,,,,,,,,,,,,,,,,,None,,649.2354526199575,None,649.2354526199575,None,2022-05-26-12:09:45.659436,649.2358615999692,649.5350305999746,649.2358615999692,649.2358615999692,None,649.2358615999692,649.2358615999692,650.0419559199887,None,,,,11015,0002,2022_May_26_1159,localizer,2021.1.3,60.018029413580344,
block,scenes,scenes079.bmp,,,,,0,97,97,97,,,,,,,,,,,,,,,,,,,,,,,,,,,,,,,,,,,,,,,,,,None,,650.0419559199887,None,650.0419559199887,None,2022-05-26-12:09:46.471883,650.060942000011,650.3685702999937,650.060942000011,None,None,650.060942000011,None,650.8527786199644,None,,,,11015,0002,2022_May_26_1159,localizer,2021.1.3,60.018029413580344,
block,scenes,scenes035.bmp,,,,,0,98,98,98,,,,,,,,,,,,,,,,,,,,,,,,,,,,,,,,,,,,,,,,,,None,,650.8527786199644,None,650.8527786199644,None,2022-05-26-12:09:47.276734,650.8640570999705,651.168302999984,650.8640570999705,None,None,650.8640570999705,None,651.6690105199756,None,,,,11015,0002,2022_May_26_1159,localizer,2021.1.3,60.018029413580344,
block,scenes,scenes053.bmp,,,,,0,99,99,99,,,,,,,,,,,,,,,,,,,,,,,,,,,,,,,,,,,,,,,,,,None,,651.6690105199756,None,651.6690105199756,None,2022-05-26-12:09:48.092032,651.6692817999865,651.9683857999626,651.6692817999865,None,None,651.6692817999865,None,652.4691576199781,None,,,,11015,0002,2022_May_26_1159,localizer,2021.1.3,60.018029413580344,
block,scenes,scenes029.bmp,,,,,0,100,100,100,,,,,,,,,,,,,,,,,,,,,,,,,,,,,,,,,,,,,,,,,,None,,652.4691576199781,None,652.4691576199781,None,2022-05-26-12:09:48.895129,652.4714600999723,652.7856174999615,652.4714600999723,652.4714600999723,None,652.4714600999723,652.4714600999723,653.2722108199902,None,,,,11015,0002,2022_May_26_1159,localizer,2021.1.3,60.018029413580344,
block,scenes,scenes017.bmp,,,,,0,101,101,101,,,,,,,,,,,,,,,,,,,,,,,,,,,,,,,,,,,,,,,,,,None,,653.2722108199902,None,653.2722108199902,None,2022-05-26-12:09:49.697196,653.2775349000003,653.5869123999728,653.2775349000003,653.2775349000003,None,653.2775349000003,653.2775349000003,654.0855628199585,None,,,,11015,0002,2022_May_26_1159,localizer,2021.1.3,60.018029413580344,
block,scenes,scenes086.bmp,,,,,0,102,102,102,,,,,,,,,,,,,,,,,,,,,,,,,,,,,,,,,,,,,,,,,,None,,654.0855628199585,None,654.0855628199585,None,2022-05-26-12:09:50.508286,654.094526699977,654.4028865,654.094526699977,None,None,654.094526699977,None,654.9034197200032,None,,,,11015,0002,2022_May_26_1159,localizer,2021.1.3,60.018029413580344,
block,scenes,scenes073.bmp,,,,,0,103,103,103,,,,,,,,,,,,,,,,,,,,,,,,,,,,,,,,,,,,,,,,,,None,,654.9034197200032,None,654.9034197200032,None,2022-05-26-12:09:51.327558,654.9126928999904,655.2182463000063,654.9126928999904,None,None,654.9126928999904,None,655.7191540200089,None,,,,11015,0002,2022_May_26_1159,localizer,2021.1.3,60.018029413580344,
block,scenes,scenes016.bmp,,,,,0,104,104,104,,,,,,,,,,,,,,,,,,,,,,,,,,,,,,,,,,,,,,,,,,None,,655.7191540200089,None,655.7191540200089,None,2022-05-26-12:09:52.142103,655.7348394999863,656.0347168999724,655.7348394999863,None,None,655.7348394999863,None,656.5361398199981,None,,,,11015,0002,2022_May_26_1159,localizer,2021.1.3,60.018029413580344,
block,scenes,scenes026.bmp,,,,,0,105,105,105,,,,,,,,,,,,,,,,,,,,,,,,,,,,,,,,,,,,,,,,,,None,,656.5361398199981,None,656.5361398199981,None,2022-05-26-12:09:52.961206,656.5503425999777,656.8521866999799,656.5503425999777,None,None,656.5503425999777,None,657.35220471996,None,,,,11015,0002,2022_May_26_1159,localizer,2021.1.3,60.018029413580344,
block_end,scenes,scenes092.bmp,,,,,0,106,106,106,,,,,,,,,,,,,,,,,,,,,,,,,,,,,,,,,,,,,,,,,,None,,657.35220471996,None,657.35220471996,None,2022-05-26-12:09:53.775172,657.3609015999828,657.6682368000038,657.3609015999828,None,None,657.3609015999828,None,658.1689629199624,None,,,,11015,0002,2022_May_26_1159,localizer,2021.1.3,60.018029413580344,
block_start,objects,objects059.bmp,,,,,0,107,107,107,,,,,,,,,,,,,,,,,,,,,,,,,,,,,,,,,,,,,,,,,,t,1.806874500005506,658.1684270999976,None,658.1684270999976,None,2022-05-26-12:09:56.425227,660.0120566000114,660.3184536999906,660.0120566000114,None,None,660.0120566000114,None,660.8192610199854,None,,,,11015,0002,2022_May_26_1159,localizer,2021.1.3,60.018029413580344,
block,objects,objects060.bmp,,,,,0,108,108,108,,,,,,,,,,,,,,,,,,,,,,,,,,,,,,,,,,,,,,,,,,None,,660.8192610199854,None,660.8192610199854,None,2022-05-26-12:09:57.242549,660.8193411999964,661.1182592000114,660.8193411999964,None,None,660.8193411999964,None,661.6186952199729,None,,,,11015,0002,2022_May_26_1159,localizer,2021.1.3,60.018029413580344,
block,objects,objects013.bmp,,,,,0,109,109,109,,,,,,,,,,,,,,,,,,,,,,,,,,,,,,,,,,,,,,,,,,None,,661.6186952199729,None,661.6186952199729,None,2022-05-26-12:09:58.042683,661.6192198999925,661.9190041999682,661.6192198999925,661.6192198999925,None,661.6192198999925,661.6192198999925,662.4202031199762,None,,,,11015,0002,2022_May_26_1159,localizer,2021.1.3,60.018029413580344,
block,objects,objects010.bmp,,,,,0,110,110,110,,,,,,,,,,,,,,,,,,,,,,,,,,,,,,,,,,,,,,,,,,None,,662.4202031199762,None,662.4202031199762,None,2022-05-26-12:09:58.848157,662.4248404999962,662.7355612000101,662.4248404999962,662.4248404999962,None,662.4248404999962,662.4248404999962,663.2359742199711,None,,,,11015,0002,2022_May_26_1159,localizer,2021.1.3,60.018029413580344,
block,objects,objects051.bmp,,,,,0,111,111,111,,,,,,,,,,,,,,,,,,,,,,,,,,,,,,,,,,,,,,,,,,None,,663.2359742199711,None,663.2359742199711,None,2022-05-26-12:09:59.658953,663.2461486000102,663.5522407999961,663.2461486000102,None,None,663.2461486000102,None,664.0522389199992,None,,,,11015,0002,2022_May_26_1159,localizer,2021.1.3,60.018029413580344,
block,objects,objects034.bmp,,,,,0,112,112,112,,,,,,,,,,,,,,,,,,,,,,,,,,,,,,,,,,,,,,,,,,None,,664.0522389199992,None,664.0522389199992,None,2022-05-26-12:10:00.475225,664.0526293999865,664.3582889999961,664.0526293999865,None,None,664.0526293999865,None,664.8535739199666,None,,,,11015,0002,2022_May_26_1159,localizer,2021.1.3,60.018029413580344,
block,objects,objects019.bmp,,,,,0,113,113,113,,,,,,,,,,,,,,,,,,,,,,,,,,,,,,,,,,,,,,,,,,None,,664.8535739199666,None,664.8535739199666,None,2022-05-26-12:10:01.280716,664.8561625999864,665.1681535000098,664.8561625999864,664.8561625999864,None,664.8561625999864,664.8561625999864,665.6694578200055,None,,,,11015,0002,2022_May_26_1159,localizer,2021.1.3,60.018029413580344,
block,objects,objects031.bmp,,,,,0,114,114,114,,,,,,,,,,,,,,,,,,,,,,,,,,,,,,,,,,,,,,,,,,None,,665.6694578200055,None,665.6694578200055,None,2022-05-26-12:10:02.093626,665.680859999964,665.9849639000022,665.680859999964,None,None,665.680859999964,None,666.4853591200023,None,,,,11015,0002,2022_May_26_1159,localizer,2021.1.3,60.018029413580344,
block,objects,objects057.bmp,,,,,0,115,115,115,,,,,,,,,,,,,,,,,,,,,,,,,,,,,,,,,,,,,,,,,,None,,666.4853591200023,None,666.4853591200023,None,2022-05-26-12:10:02.908346,666.4938101999578,666.8047431999585,666.4938101999578,None,None,666.4938101999578,None,667.3028869199858,None,,,,11015,0002,2022_May_26_1159,localizer,2021.1.3,60.018029413580344,
block,objects,objects072.bmp,,,,,0,116,116,116,,,,,,,,,,,,,,,,,,,,,,,,,,,,,,,,,,,,,,,,,,None,,667.3028869199858,None,667.3028869199858,None,2022-05-26-12:10:03.726829,667.309712599963,667.6183424000046,667.309712599963,None,None,667.309712599963,None,668.1085300199862,None,,,,11015,0002,2022_May_26_1159,localizer,2021.1.3,60.018029413580344,
block,objects,objects018.bmp,,,,,0,117,117,117,,,,,,,,,,,,,,,,,,,,,,,,,,,,,,,,,,,,,,,,,,None,,668.1085300199862,None,668.1085300199862,None,2022-05-26-12:10:04.539459,668.1285290999804,668.4348494999576,668.1285290999804,None,None,668.1285290999804,None,668.9202133199957,None,,,,11015,0002,2022_May_26_1159,localizer,2021.1.3,60.018029413580344,
block,objects,objects004.bmp,,,,,0,118,118,118,,,,,,,,,,,,,,,,,,,,,,,,,,,,,,,,,,,,,,,,,,None,,668.9202133199957,None,668.9202133199957,None,2022-05-26-12:10:05.345105,668.9318079999648,669.2349015999935,668.9318079999648,None,None,668.9318079999648,None,669.7358376199787,None,,,,11015,0002,2022_May_26_1159,localizer,2021.1.3,60.018029413580344,
block,objects,objects064.bmp,,,,,0,119,119,119,,,,,,,,,,,,,,,,,,,,,,,,,,,,,,,,,,,,,,,,,,None,,669.7358376199787,None,669.7358376199787,None,2022-05-26-12:10:06.159026,669.7360498000053,670.0357078000088,669.7360498000053,None,None,669.7360498000053,None,670.5354662199912,None,,,,11015,0002,2022_May_26_1159,localizer,2021.1.3,60.018029413580344,
block,objects,objects048.bmp,,,,,0,120,120,120,,,,,,,,,,,,,,,,,,,,,,,,,,,,,,,,,,,,,,,,,,None,,670.5354662199912,None,670.5354662199912,None,2022-05-26-12:10:06.960446,670.5450782999978,670.8516759999911,670.5450782999978,670.5450782999978,None,670.5450782999978,670.5450782999978,671.3525966199755,None,,,,11015,0002,2022_May_26_1159,localizer,2021.1.3,60.018029413580344,
block_end,objects,objects049.bmp,,,,,0,121,121,121,,,,,,,,,,,,,,,,,,,,,,,,,,,,,,,,,,,,,,,,,,None,,671.3525966199755,None,671.3525966199755,None,2022-05-26-12:10:07.775554,671.3629913000041,671.6681862999685,671.3629913000041,None,None,671.3629913000041,None,672.1695514199615,None,,,,11015,0002,2022_May_26_1159,localizer,2021.1.3,60.018029413580344,
block_start,faces,faces045.bmp,,,,,0,122,122,122,,,,,,,,,,,,,,,,,,,,,,,,,,,,,,,,,,,,,,,,,,t,1.806191299983766,672.1690490999608,None,672.1690490999608,None,2022-05-26-12:10:10.425358,674.0026355999871,674.3015372999944,674.0026355999871,None,None,674.0026355999871,None,674.8024260199687,None,,,,11015,0002,2022_May_26_1159,localizer,2021.1.3,60.018029413580344,
block,faces,faces026.bmp,,,,,0,123,123,123,,,,,,,,,,,,,,,,,,,,,,,,,,,,,,,,,,,,,,,,,,None,,674.8024260199687,None,674.8024260199687,None,2022-05-26-12:10:11.227384,674.8047297999728,675.1079728999757,674.8047297999728,674.8047297999728,None,674.8047297999728,674.8047297999728,675.6189224199567,None,,,,11015,0002,2022_May_26_1159,localizer,2021.1.3,60.018029413580344,
block,faces,faces074.bmp,,,,,0,124,124,124,,,,,,,,,,,,,,,,,,,,,,,,,,,,,,,,,,,,,,,,,,None,,675.6189224199567,None,675.6189224199567,None,2022-05-26-12:10:12.042211,675.627975899959,675.9349213999812,675.627975899959,None,None,675.627975899959,None,676.4364199200005,None,,,,11015,0002,2022_May_26_1159,localizer,2021.1.3,60.018029413580344,
block,faces,faces085.bmp,,,,,0,125,125,125,,,,,,,,,,,,,,,,,,,,,,,,,,,,,,,,,,,,,,,,,,None,,676.4364199200005,None,676.4364199200005,None,2022-05-26-12:10:12.860366,676.4374091000063,676.7358322999789,676.4374091000063,None,None,676.4374091000063,None,677.2529875200067,None,,,,11015,0002,2022_May_26_1159,localizer,2021.1.3,60.018029413580344,
block,faces,faces022.bmp,,,,,0,126,126,126,,,,,,,,,,,,,,,,,,,,,,,,,,,,,,,,,,,,,,,,,,None,,677.2529875200067,None,677.2529875200067,None,2022-05-26-12:10:13.677151,677.2544935999904,677.5690943999798,677.2544935999904,None,None,677.2544935999904,None,678.0689207199554,None,,,,11015,0002,2022_May_26_1159,localizer,2021.1.3,60.018029413580344,
block,faces,faces012.bmp,,,,,0,127,127,127,,,,,,,,,,,,,,,,,,,,,,,,,,,,,,,,,,,,,,,,,,None,,678.0689207199554,None,678.0689207199554,None,2022-05-26-12:10:14.491906,678.069539899996,678.3684310999815,678.069539899996,None,None,678.069539899996,None,678.8693334200012,None,,,,11015,0002,2022_May_26_1159,localizer,2021.1.3,60.018029413580344,
block,faces,faces024.bmp,,,,,0,128,128,128,,,,,,,,,,,,,,,,,,,,,,,,,,,,,,,,,,,,,,,,,,None,,678.8693334200012,None,678.8693334200012,None,2022-05-26-12:10:15.295491,678.8715792999719,679.1698089999845,678.8715792999719,678.8715792999719,None,678.8715792999719,678.8715792999719,679.6869525199814,None,,,,11015,0002,2022_May_26_1159,localizer,2021.1.3,60.018029413580344,
block,faces,faces047.bmp,,,,,0,129,129,129,,,,,,,,,,,,,,,,,,,,,,,,,,,,,,,,,,,,,,,,,,None,,679.6869525199814,None,679.6869525199814,None,2022-05-26-12:10:16.112955,679.7053289999603,680.0181265999563,679.7053289999603,None,None,679.7053289999603,None,680.5023433199909,None,,,,11015,0002,2022_May_26_1159,localizer,2021.1.3,60.018029413580344,
block,faces,faces004.bmp,,,,,0,130,130,130,,,,,,,,,,,,,,,,,,,,,,,,,,,,,,,,,,,,,,,,,,None,,680.5023433199909,None,680.5023433199909,None,2022-05-26-12:10:16.925567,680.5027845999575,680.8017037999816,680.5027845999575,None,None,680.5027845999575,None,681.3023299199937,None,,,,11015,0002,2022_May_26_1159,localizer,2021.1.3,60.018029413580344,
block,faces,faces017.bmp,,,,,0,131,131,131,,,,,,,,,,,,,,,,,,,,,,,,,,,,,,,,,,,,,,,,,,None,,681.3023299199937,None,681.3023299199937,None,2022-05-26-12:10:17.726583,681.3026433999767,681.601856299967,681.3026433999767,681.3026433999767,None,681.3026433999767,681.3026433999767,682.1020736200095,None,,,,11015,0002,2022_May_26_1159,localizer,2021.1.3,60.018029413580344,
block,faces,faces039.bmp,,,,,0,132,132,132,,,,,,,,,,,,,,,,,,,,,,,,,,,,,,,,,,,,,,,,,,None,,682.1020736200095,None,682.1020736200095,None,2022-05-26-12:10:18.526348,682.1124270999571,682.4185854999814,682.1124270999571,682.1124270999571,None,682.1124270999571,682.1124270999571,682.9190789199725,None,,,,11015,0002,2022_May_26_1159,localizer,2021.1.3,60.018029413580344,
block,faces,faces013.bmp,,,,,0,133,133,133,,,,,,,,,,,,,,,,,,,,,,,,,,,,,,,,,,,,,,,,,,None,,682.9190789199725,None,682.9190789199725,None,2022-05-26-12:10:19.342273,682.9193641999736,683.219014399976,682.9193641999736,None,None,682.9193641999736,None,683.7191875199729,None,,,,11015,0002,2022_May_26_1159,localizer,2021.1.3,60.018029413580344,
block,faces,faces060.bmp,,,,,0,134,134,134,,,,,,,,,,,,,,,,,,,,,,,,,,,,,,,,,,,,,,,,,,None,,683.7191875199729,None,683.7191875199729,None,2022-05-26-12:10:20.144396,683.7314129999722,684.0351838999777,683.7314129999722,683.7314129999722,None,683.7314129999722,683.7314129999722,684.5369293199561,None,,,,11015,0002,2022_May_26_1159,localizer,2021.1.3,60.018029413580344,
block,faces,faces027.bmp,,,,,0,135,135,135,,,,,,,,,,,,,,,,,,,,,,,,,,,,,,,,,,,,,,,,,,None,,684.5369293199561,None,684.5369293199561,None,2022-05-26-12:10:20.962067,684.5387632999918,684.8517115999712,684.5387632999918,None,None,684.5387632999918,None,685.3524228199909,None,,,,11015,0002,2022_May_26_1159,localizer,2021.1.3,60.018029413580344,
block_end,faces,faces031.bmp,,,,,0,136,136,136,,,,,,,,,,,,,,,,,,,,,,,,,,,,,,,,,,,,,,,,,,None,,685.3524228199909,None,685.3524228199909,None,2022-05-26-12:10:21.775623,685.3619489999837,685.6684048000025,685.3619489999837,None,None,685.3619489999837,None,686.1708230199816,None,,,,11015,0002,2022_May_26_1159,localizer,2021.1.3,60.018029413580344,
block_start,objects,objects071.bmp,,,,,0,137,137,137,,,,,,,,,,,,,,,,,,,,,,,,,,,,,,,,,,,,,,,,,,t,1.805494499974884,686.1698099999921,None,686.1698099999921,None,2022-05-26-12:10:24.425323,688.0027708999696,688.3026396000059,688.0027708999696,None,None,688.0027708999696,None,688.8026284199965,None,,,,11015,0002,2022_May_26_1159,localizer,2021.1.3,60.018029413580344,
block,objects,objects019.bmp,,,,,0,138,138,138,,,,,,,,,,,,,,,,,,,,,,,,,,,,,,,,,,,,,,,,,,None,,688.8026284199965,None,688.8026284199965,None,2022-05-26-12:10:25.228585,688.8047677999712,689.1186913999845,688.8047677999712,688.8047677999712,None,688.8047677999712,688.8047677999712,689.618973319995,None,,,,11015,0002,2022_May_26_1159,localizer,2021.1.3,60.018029413580344,
block,objects,objects005.bmp,,,,,0,139,139,139,,,,,,,,,,,,,,,,,,,,,,,,,,,,,,,,,,,,,,,,,,None,,689.618973319995,None,689.618973319995,None,2022-05-26-12:10:26.041006,689.6198281999677,689.9185691999737,689.6198281999677,None,None,689.6198281999677,None,690.419070019963,None,,,,11015,0002,2022_May_26_1159,localizer,2021.1.3,60.018029413580344,
block,objects,objects049.bmp,,,,,0,140,140,140,,,,,,,,,,,,,,,,,,,,,,,,,,,,,,,,,,,,,,,,,,None,,690.419070019963,None,690.419070019963,None,2022-05-26-12:10:26.844188,690.4198161999811,690.7186286000069,690.4198161999811,690.4198161999811,None,690.4198161999811,690.4198161999811,691.2188591199753,None,,,,11015,0002,2022_May_26_1159,localizer,2021.1.3,60.018029413580344,
block,objects,objects034.bmp,,,,,0,141,141,141,,,,,,,,,,,,,,,,,,,,,,,,,,,,,,,,,,,,,,,,,,None,,691.2188591199753,None,691.2188591199753,None,2022-05-26-12:10:27.642846,691.2191362999729,691.5183868999593,691.2191362999729,691.2191362999729,None,691.2191362999729,691.2191362999729,692.0196537199605,None,,,,11015,0002,2022_May_26_1159,localizer,2021.1.3,60.018029413580344,
block,objects,objects058.bmp,,,,,0,142,142,142,,,,,,,,,,,,,,,,,,,,,,,,,,,,,,,,,,,,,,,,,,None,,692.0196537199605,None,692.0196537199605,None,2022-05-26-12:10:28.444851,692.0290957000107,692.3352729000035,692.0290957000107,692.0290957000107,None,692.0290957000107,692.0290957000107,692.8357839200122,None,,,,11015,0002,2022_May_26_1159,localizer,2021.1.3,60.018029413580344,
block,objects,objects058.bmp,,,,,0,143,143,143,,,,,,,,,,,,,,,,,,,,,,,,,,,,,,,,,,,,,,,,,,None,,692.8357839200122,None,692.8357839200122,None,2022-05-26-12:10:29.258995,692.8362053000019,693.1354176999885,692.8362053000019,None,y,692.8362053000019,None,693.6355528199871,None,0.5779112000018358,,,11015,0002,2022_May_26_1159,localizer,2021.1.3,60.018029413580344,
block,objects,objects043.bmp,,,,,0,144,144,144,,,,,,,,,,,,,,,,,,,,,,,,,,,,,,,,,,,,,,,,,,None,,693.6355528199871,None,693.6355528199871,None,2022-05-26-12:10:30.060533,693.6360785999568,693.9352082000114,693.6360785999568,693.6360785999568,None,693.6360785999568,693.6360785999568,694.4371772200044,None,,,,11015,0002,2022_May_26_1159,localizer,2021.1.3,60.018029413580344,
block,objects,objects074.bmp,,,,,0,145,145,145,,,,,,,,,,,,,,,,,,,,,,,,,,,,,,,,,,,,,,,,,,None,,694.4371772200044,None,694.4371772200044,None,2022-05-26-12:10:30.865150,694.4404605999589,694.7515872999793,694.4404605999589,694.4404605999589,None,694.4404605999589,694.4404605999589,695.2523159199569,None,,,,11015,0002,2022_May_26_1159,localizer,2021.1.3,60.018029413580344,
block,objects,objects087.bmp,,,,,0,146,146,146,,,,,,,,,,,,,,,,,,,,,,,,,,,,,,,,,,,,,,,,,,None,,695.2523159199569,None,695.2523159199569,None,2022-05-26-12:10:31.675353,695.2617811000091,695.5681451999699,695.2617811000091,None,None,695.2617811000091,None,696.0691038200108,None,,,,11015,0002,2022_May_26_1159,localizer,2021.1.3,60.018029413580344,
block,objects,objects006.bmp,,,,,0,147,147,147,,,,,,,,,,,,,,,,,,,,,,,,,,,,,,,,,,,,,,,,,,None,,696.0691038200108,None,696.0691038200108,None,2022-05-26-12:10:32.492331,696.069827099971,696.3686763999867,696.069827099971,None,None,696.069827099971,None,696.8692706199887,None,,,,11015,0002,2022_May_26_1159,localizer,2021.1.3,60.018029413580344,
block,objects,objects023.bmp,,,,,0,148,148,148,,,,,,,,,,,,,,,,,,,,,,,,,,,,,,,,,,,,,,,,,,None,,696.8692706199887,None,696.8692706199887,None,2022-05-26-12:10:33.295242,696.8715289999964,697.1861754999845,696.8715289999964,696.8715289999964,None,696.8715289999964,696.8715289999964,697.6857094200037,None,,,,11015,0002,2022_May_26_1159,localizer,2021.1.3,60.018029413580344,
block,objects,objects027.bmp,,,,,0,149,149,149,,,,,,,,,,,,,,,,,,,,,,,,,,,,,,,,,,,,,,,,,,None,,697.6857094200037,None,697.6857094200037,None,2022-05-26-12:10:34.108696,697.6859261000063,697.9855529000051,697.6859261000063,None,None,697.6859261000063,None,698.4924268199771,None,,,,11015,0002,2022_May_26_1159,localizer,2021.1.3,60.018029413580344,
block,objects,objects035.bmp,,,,,0,150,150,150,,,,,,,,,,,,,,,,,,,,,,,,,,,,,,,,,,,,,,,,,,None,,698.4924268199771,None,698.4924268199771,None,2022-05-26-12:10:34.919350,698.5071772999945,698.8185043999692,698.5071772999945,None,None,698.5071772999945,None,699.3024656199792,None,,,,11015,0002,2022_May_26_1159,localizer,2021.1.3,60.018029413580344,
block_end,objects,objects084.bmp,,,,,0,151,151,151,,,,,,,,,,,,,,,,,,,,,,,,,,,,,,,,,,,,,,,,,,None,,699.3024656199792,None,699.3024656199792,None,2022-05-26-12:10:35.725451,699.3026480999542,699.6023740000091,699.3026480999542,None,None,699.3026480999542,None,700.1026705199562,None,,,,11015,0002,2022_May_26_1159,localizer,2021.1.3,60.018029413580344,
null_block,null_block,null_block.bmp,,,,,0,152,152,152,,,,,,,,,,,,,,,,,,,,,,,,,,,,,,,,,,,,,,,,,,t,1.8728513999958523,700.1018337999703,None,700.1018337999703,None,2022-05-26-12:10:38.427556,702.0035346199817,None,702.0035346199817,None,None,702.0035346199817,None,702.0106194000109,None,,,,11015,0002,2022_May_26_1159,localizer,2021.1.3,60.018029413580344,
block_start,scenes,scenes069.bmp,,,,,0,153,153,153,,,,,,,,,,,,,,,,,,,,,,,,,,,,,,,,,,,,,,,,,,t,1.9544462999911048,714.0198388999561,None,714.0198388999561,None,2022-05-26-12:10:52.429783,716.0122787999571,716.3183952000109,716.0122787999571,None,None,716.0122787999571,None,716.819353219989,None,,,,11015,0002,2022_May_26_1159,localizer,2021.1.3,60.018029413580344,
block,scenes,scenes035.bmp,,,,,0,154,154,154,,,,,,,,,,,,,,,,,,,,,,,,,,,,,,,,,,,,,,,,,,None,,716.819353219989,None,716.819353219989,None,2022-05-26-12:10:53.242338,716.819498399971,717.1206388999708,716.819498399971,None,None,716.819498399971,None,717.6188480199722,None,,,,11015,0002,2022_May_26_1159,localizer,2021.1.3,60.018029413580344,
block,scenes,scenes077.bmp,,,,,0,155,155,155,,,,,,,,,,,,,,,,,,,,,,,,,,,,,,,,,,,,,,,,,,None,,717.6188480199722,None,717.6188480199722,None,2022-05-26-12:10:54.042835,717.6195830999641,717.918613399961,717.6195830999641,717.6195830999641,None,717.6195830999641,717.6195830999641,718.419576519978,None,,,,11015,0002,2022_May_26_1159,localizer,2021.1.3,60.018029413580344,
block,scenes,scenes064.bmp,,,,,0,156,156,156,,,,,,,,,,,,,,,,,,,,,,,,,,,,,,,,,,,,,,,,,,None,,718.419576519978,None,718.419576519978,None,2022-05-26-12:10:54.844760,718.43187879998,718.7353627999546,718.43187879998,718.43187879998,None,718.43187879998,718.43187879998,719.2366014199739,None,,,,11015,0002,2022_May_26_1159,localizer,2021.1.3,60.018029413580344,
block,scenes,scenes012.bmp,,,,,0,157,157,157,,,,,,,,,,,,,,,,,,,,,,,,,,,,,,,,,,,,,,,,,,None,,719.2366014199739,None,719.2366014199739,None,2022-05-26-12:10:55.660573,719.2476570999715,719.5519638999831,719.2476570999715,None,None,719.2476570999715,None,720.0525852199586,None,,,,11015,0002,2022_May_26_1159,localizer,2021.1.3,60.018029413580344,
block,scenes,scenes088.bmp,,,,,0,158,158,158,,,,,,,,,,,,,,,,,,,,,,,,,,,,,,,,,,,,,,,,,,None,,720.0525852199586,None,720.0525852199586,None,2022-05-26-12:10:56.475570,720.0529615999549,720.352024999971,720.0529615999549,None,None,720.0529615999549,None,720.8526352199784,None,,,,11015,0002,2022_May_26_1159,localizer,2021.1.3,60.018029413580344,
block,scenes,scenes076.bmp,,,,,0,159,159,159,,,,,,,,,,,,,,,,,,,,,,,,,,,,,,,,,,,,,,,,,,None,,720.8526352199784,None,720.8526352199784,None,2022-05-26-12:10:57.277479,720.8531670999946,721.1518777000019,720.8531670999946,720.8531670999946,None,720.8531670999946,720.8531670999946,721.6689817199891,None,,,,11015,0002,2022_May_26_1159,localizer,2021.1.3,60.018029413580344,
block,scenes,scenes085.bmp,,,,,0,160,160,160,,,,,,,,,,,,,,,,,,,,,,,,,,,,,,,,,,,,,,,,,,None,,721.6689817199891,None,721.6689817199891,None,2022-05-26-12:10:58.091969,721.6778855999582,721.9854323999607,721.6778855999582,None,None,721.6778855999582,None,722.485966819973,None,,,,11015,0002,2022_May_26_1159,localizer,2021.1.3,60.018029413580344,
block,scenes,scenes054.bmp,,,,,0,161,161,161,,,,,,,,,,,,,,,,,,,,,,,,,,,,,,,,,,,,,,,,,,None,,722.485966819973,None,722.485966819973,None,2022-05-26-12:10:58.908954,722.48612029996,722.7852872000076,722.48612029996,None,None,722.48612029996,None,723.2859695199819,None,,,,11015,0002,2022_May_26_1159,localizer,2021.1.3,60.018029413580344,
block,scenes,scenes011.bmp,,,,,0,162,162,162,,,,,,,,,,,,,,,,,,,,,,,,,,,,,,,,,,,,,,,,,,None,,723.2859695199819,None,723.2859695199819,None,2022-05-26-12:10:59.710680,723.2863123999559,723.5860263999784,723.2863123999559,723.2863123999559,None,723.2863123999559,723.2863123999559,724.1088697200117,None,,,,11015,0002,2022_May_26_1159,localizer,2021.1.3,60.018029413580344,
block,scenes,scenes089.bmp,,,,,0,163,163,163,,,,,,,,,,,,,,,,,,,,,,,,,,,,,,,,,,,,,,,,,,None,,724.1088697200117,None,724.1088697200117,None,2022-05-26-12:11:00.539807,724.1208461999777,724.4351305000018,724.1208461999777,None,None,724.1208461999777,None,724.9213666199881,None,,,,11015,0002,2022_May_26_1159,localizer,2021.1.3,60.018029413580344,
block,scenes,scenes074.bmp,,,,,0,164,164,164,,,,,,,,,,,,,,,,,,,,,,,,,,,,,,,,,,,,,,,,,,None,,724.9213666199881,None,724.9213666199881,None,2022-05-26-12:11:01.347489,724.9252831999911,725.2361668999656,724.9252831999911,None,None,724.9252831999911,None,725.7361890199769,None,,,,11015,0002,2022_May_26_1159,localizer,2021.1.3,60.018029413580344,
block,scenes,scenes043.bmp,,,,,0,165,165,165,,,,,,,,,,,,,,,,,,,,,,,,,,,,,,,,,,,,,,,,,,None,,725.7361890199769,None,725.7361890199769,None,2022-05-26-12:11:02.159410,725.7362397999968,726.0356088999542,725.7362397999968,None,None,725.7362397999968,None,726.536107919988,None,,,,11015,0002,2022_May_26_1159,localizer,2021.1.3,60.018029413580344,
block,scenes,scenes033.bmp,,,,,0,166,166,166,,,,,,,,,,,,,,,,,,,,,,,,,,,,,,,,,,,,,,,,,,None,,726.536107919988,None,726.536107919988,None,2022-05-26-12:11:02.961307,726.5374368999619,726.8521379999584,726.5374368999619,726.5374368999619,None,726.5374368999619,726.5374368999619,727.3367210199882,None,,,,11015,0002,2022_May_26_1159,localizer,2021.1.3,60.018029413580344,
block_end,scenes,scenes068.bmp,,,,,0,167,167,167,,,,,,,,,,,,,,,,,,,,,,,,,,,,,,,,,,,,,,,,,,None,,727.3367210199882,None,727.3367210199882,None,2022-05-26-12:11:03.762878,727.35083999997,727.6522626999649,727.35083999997,727.35083999997,None,727.35083999997,727.35083999997,728.1524819199636,None,,,,11015,0002,2022_May_26_1159,localizer,2021.1.3,60.018029413580344,
block_start,scrambled,scrambled081.bmp,,,,,0,168,168,168,,,,,,,,,,,,,,,,,,,,,,,,,,,,,,,,,,,,,,,,,,t,1.8221188000170514,728.1519874999649,None,728.1519874999649,None,2022-05-26-12:11:06.426403,730.0063243999612,730.3192964000045,730.0063243999612,None,None,730.0063243999612,None,730.8200082199706,None,,,,11015,0002,2022_May_26_1159,localizer,2021.1.3,60.018029413580344,
block,scrambled,scrambled049.bmp,,,,,0,169,169,169,,,,,,,,,,,,,,,,,,,,,,,,,,,,,,,,,,,,,,,,,,None,,730.8200082199706,None,730.8200082199706,None,2022-05-26-12:11:07.243981,730.8216255999869,731.136158999987,730.8216255999869,None,None,730.8216255999869,None,731.6366274199623,None,,,,11015,0002,2022_May_26_1159,localizer,2021.1.3,60.018029413580344,
block,scrambled,scrambled046.bmp,,,,,0,170,170,170,,,,,,,,,,,,,,,,,,,,,,,,,,,,,,,,,,,,,,,,,,None,,731.6366274199623,None,731.6366274199623,None,2022-05-26-12:11:08.060894,731.6477067999658,731.9520434999722,731.6477067999658,None,None,731.6477067999658,None,732.4530135199835,None,,,,11015,0002,2022_May_26_1159,localizer,2021.1.3,60.018029413580344,
block,scrambled,scrambled082.bmp,,,,,0,171,171,171,,,,,,,,,,,,,,,,,,,,,,,,,,,,,,,,,,,,,,,,,,None,,732.4530135199835,None,732.4530135199835,None,2022-05-26-12:11:08.877190,732.4533046999713,732.7524942999589,732.4533046999713,None,None,732.4533046999713,None,733.253093920002,None,,,,11015,0002,2022_May_26_1159,localizer,2021.1.3,60.018029413580344,
block,scrambled,scrambled004.bmp,,,,,0,172,172,172,,,,,,,,,,,,,,,,,,,,,,,,,,,,,,,,,,,,,,,,,,None,,733.253093920002,None,733.253093920002,None,2022-05-26-12:11:09.679064,733.2553431999986,733.5693130999571,733.2553431999986,733.2553431999986,None,733.2553431999986,733.2553431999986,734.0699072199583,None,,,,11015,0002,2022_May_26_1159,localizer,2021.1.3,60.018029413580344,
block,scrambled,scrambled014.bmp,,,,,0,173,173,173,,,,,,,,,,,,,,,,,,,,,,,,,,,,,,,,,,,,,,,,,,None,,734.0699072199583,None,734.0699072199583,None,2022-05-26-12:11:10.494411,734.0715501999948,734.3849845000077,734.0715501999948,None,None,734.0715501999948,None,734.8857337199676,None,,,,11015,0002,2022_May_26_1159,localizer,2021.1.3,60.018029413580344,
block,scrambled,scrambled056.bmp,,,,,0,174,174,174,,,,,,,,,,,,,,,,,,,,,,,,,,,,,,,,,,,,,,,,,,None,,734.8857337199676,None,734.8857337199676,None,2022-05-26-12:11:11.308719,734.8862812999869,735.1856209000107,734.8862812999869,None,None,734.8862812999869,None,735.685905319982,None,,,,11015,0002,2022_May_26_1159,localizer,2021.1.3,60.018029413580344,
block,scrambled,scrambled037.bmp,,,,,0,175,175,175,,,,,,,,,,,,,,,,,,,,,,,,,,,,,,,,,,,,,,,,,,None,,735.685905319982,None,735.685905319982,None,2022-05-26-12:11:12.110219,735.6862133999821,735.9852541,735.6862133999821,735.6862133999821,None,735.6862133999821,735.6862133999821,736.486029819987,None,,,,11015,0002,2022_May_26_1159,localizer,2021.1.3,60.018029413580344,
block,scrambled,scrambled039.bmp,,,,,0,176,176,176,,,,,,,,,,,,,,,,,,,,,,,,,,,,,,,,,,,,,,,,,,None,,736.486029819987,None,736.486029819987,None,2022-05-26-12:11:12.910013,736.4863735999679,736.7854613999953,736.4863735999679,736.4863735999679,None,736.4863735999679,736.4863735999679,737.2861391199928,None,,,,11015,0002,2022_May_26_1159,localizer,2021.1.3,60.018029413580344,
block,scrambled,scrambled072.bmp,,,,,0,177,177,177,,,,,,,,,,,,,,,,,,,,,,,,,,,,,,,,,,,,,,,,,,None,,737.2861391199928,None,737.2861391199928,None,2022-05-26-12:11:13.711335,737.2988829999813,737.6023843999719,737.2988829999813,737.2988829999813,None,737.2988829999813,737.2988829999813,738.1022981199727,None,,,,11015,0002,2022_May_26_1159,localizer,2021.1.3,60.018029413580344,
block,scrambled,scrambled026.bmp,,,,,0,178,178,178,,,,,,,,,,,,,,,,,,,,,,,,,,,,,,,,,,,,,,,,,,None,,738.1022981199727,None,738.1022981199727,None,2022-05-26-12:11:14.525863,738.1032440999988,738.4021574999788,738.1032440999988,None,None,738.1032440999988,None,738.90385371999,None,,,,11015,0002,2022_May_26_1159,localizer,2021.1.3,60.018029413580344,
block,scrambled,scrambled027.bmp,,,,,0,179,179,179,,,,,,,,,,,,,,,,,,,,,,,,,,,,,,,,,,,,,,,,,,None,,738.90385371999,None,738.90385371999,None,2022-05-26-12:11:15.330823,738.9072576999897,739.2193048999761,738.9072576999897,738.9072576999897,None,738.9072576999897,738.9072576999897,739.7196536199714,None,,,,11015,0002,2022_May_26_1159,localizer,2021.1.3,60.018029413580344,
block,scrambled,scrambled044.bmp,,,,,0,180,180,180,,,,,,,,,,,,,,,,,,,,,,,,,,,,,,,,,,,,,,,,,,None,,739.7196536199714,None,739.7196536199714,None,2022-05-26-12:11:16.143833,739.7200396999833,740.0190979999606,739.7200396999833,None,None,739.7200396999833,None,740.519370419957,None,,,,11015,0002,2022_May_26_1159,localizer,2021.1.3,60.018029413580344,
block,scrambled,scrambled073.bmp,,,,,0,181,181,181,,,,,,,,,,,,,,,,,,,,,,,,,,,,,,,,,,,,,,,,,,None,,740.519370419957,None,740.519370419957,None,2022-05-26-12:11:16.943354,740.5283429999836,740.8357850000029,740.5283429999836,740.5283429999836,None,740.5283429999836,740.5283429999836,741.3373094199866,None,,,,11015,0002,2022_May_26_1159,localizer,2021.1.3,60.018029413580344,
block_end,scrambled,scrambled070.bmp,,,,,0,182,182,182,,,,,,,,,,,,,,,,,,,,,,,,,,,,,,,,,,,,,,,,,,None,,741.3373094199866,None,741.3373094199866,None,2022-05-26-12:11:17.762205,741.3397132999962,741.6523711999762,741.3397132999962,None,None,741.3397132999962,None,742.1524304199789,None,,,,11015,0002,2022_May_26_1159,localizer,2021.1.3,60.018029413580344,
block_start,scenes,scenes012.bmp,,,,,0,183,183,183,,,,,,,,,,,,,,,,,,,,,,,,,,,,,,,,,,,,,,,,,,t,1.8224494999740273,742.1517618999933,None,742.1517618999933,None,2022-05-26-12:11:20.424684,744.0031475999858,744.3024639000068,744.0031475999858,None,None,744.0031475999858,None,744.8029252199864,None,,,,11015,0002,2022_May_26_1159,localizer,2021.1.3,60.018029413580344,
block,scenes,scenes018.bmp,,,,,0,184,184,184,,,,,,,,,,,,,,,,,,,,,,,,,,,,,,,,,,,,,,,,,,None,,744.8029252199864,None,744.8029252199864,None,2022-05-26-12:11:21.228116,744.8154338999884,745.1189834999968,744.8154338999884,744.8154338999884,None,744.8154338999884,744.8154338999884,745.6259562199645,None,,,,11015,0002,2022_May_26_1159,localizer,2021.1.3,60.018029413580344,
block,scenes,scenes009.bmp,,,,,0,185,185,185,,,,,,,,,,,,,,,,,,,,,,,,,,,,,,,,,,,,,,,,,,None,,745.6259562199645,None,745.6259562199645,None,2022-05-26-12:11:22.052984,745.6297379999887,745.9354834000114,745.6297379999887,None,None,745.6297379999887,None,746.436062020011,None,,,,11015,0002,2022_May_26_1159,localizer,2021.1.3,60.018029413580344,
block,scenes,scenes003.bmp,,,,,0,186,186,186,,,,,,,,,,,,,,,,,,,,,,,,,,,,,,,,,,,,,,,,,,None,,746.436062020011,None,746.436062020011,None,2022-05-26-12:11:22.859047,746.4363113999716,746.7353869999642,746.4363113999716,None,None,746.4363113999716,None,747.2358506199613,None,,,,11015,0002,2022_May_26_1159,localizer,2021.1.3,60.018029413580344,
block,scenes,scenes017.bmp,,,,,0,187,187,187,,,,,,,,,,,,,,,,,,,,,,,,,,,,,,,,,,,,,,,,,,None,,747.2358506199613,None,747.2358506199613,None,2022-05-26-12:11:23.660061,747.2363404000062,747.5355182999629,747.2363404000062,747.2363404000062,None,747.2363404000062,747.2363404000062,748.036051119963,None,,,,11015,0002,2022_May_26_1159,localizer,2021.1.3,60.018029413580344,
block,scenes,scenes075.bmp,,,,,0,188,188,188,,,,,,,,,,,,,,,,,,,,,,,,,,,,,,,,,,,,,,,,,,None,,748.036051119963,None,748.036051119963,None,2022-05-26-12:11:24.460034,748.0364487000043,748.3356595999794,748.0364487000043,748.0364487000043,None,748.0364487000043,748.0364487000043,748.8361708199897,None,,,,11015,0002,2022_May_26_1159,localizer,2021.1.3,60.018029413580344,
block,scenes,scenes061.bmp,,,,,0,189,189,189,,,,,,,,,,,,,,,,,,,,,,,,,,,,,,,,,,,,,,,,,,None,,748.8361708199897,None,748.8361708199897,None,2022-05-26-12:11:25.261366,748.849369500007,749.1518008999992,748.849369500007,748.849369500007,None,748.849369500007,748.849369500007,749.6527725199645,None,,,,11015,0002,2022_May_26_1159,localizer,2021.1.3,60.018029413580344,
block,scenes,scenes065.bmp,,,,,0,190,190,190,,,,,,,,,,,,,,,,,,,,,,,,,,,,,,,,,,,,,,,,,,None,,749.6527725199645,None,749.6527725199645,None,2022-05-26-12:11:26.075756,749.6531817999785,749.9520744999754,749.6531817999785,None,None,749.6531817999785,None,750.4530912199931,None,,,,11015,0002,2022_May_26_1159,localizer,2021.1.3,60.018029413580344,
block,scenes,scenes006.bmp,,,,,0,191,191,191,,,,,,,,,,,,,,,,,,,,,,,,,,,,,,,,,,,,,,,,,,None,,750.4530912199931,None,750.4530912199931,None,2022-05-26-12:11:26.879266,750.4661132000037,750.7691854999866,750.4661132000037,750.4661132000037,None,750.4661132000037,750.4661132000037,751.2700732200116,None,,,,11015,0002,2022_May_26_1159,localizer,2021.1.3,60.018029413580344,
block,scenes,scenes091.bmp,,,,,0,192,192,192,,,,,,,,,,,,,,,,,,,,,,,,,,,,,,,,,,,,,,,,,,None,,751.2700732200116,None,751.2700732200116,None,2022-05-26-12:11:27.694348,751.2716744999634,751.585374599963,751.2716744999634,None,None,751.2716744999634,None,752.0858132200025,None,,,,11015,0002,2022_May_26_1159,localizer,2021.1.3,60.018029413580344,
block,scenes,scenes008.bmp,,,,,0,193,193,193,,,,,,,,,,,,,,,,,,,,,,,,,,,,,,,,,,,,,,,,,,None,,752.0858132200025,None,752.0858132200025,None,2022-05-26-12:11:28.507645,752.0866005999851,752.3856183000025,752.0866005999851,None,None,752.0866005999851,None,752.8857075200009,None,,,,11015,0002,2022_May_26_1159,localizer,2021.1.3,60.018029413580344,
block,scenes,scenes057.bmp,,,,,0,194,194,194,,,,,,,,,,,,,,,,,,,,,,,,,,,,,,,,,,,,,,,,,,None,,752.8857075200009,None,752.8857075200009,None,2022-05-26-12:11:29.309695,752.8948030999745,753.202525199973,752.8948030999745,752.8948030999745,None,752.8948030999745,752.8948030999745,753.7031146199967,None,,,,11015,0002,2022_May_26_1159,localizer,2021.1.3,60.018029413580344,
block,scenes,scenes088.bmp,,,,,0,195,195,195,,,,,,,,,,,,,,,,,,,,,,,,,,,,,,,,,,,,,,,,,,None,,753.7031146199967,None,753.7031146199967,None,2022-05-26-12:11:30.127090,753.7034281999804,754.0022832999821,753.7034281999804,None,None,753.7034281999804,None,754.5034985199978,None,,,,11015,0002,2022_May_26_1159,localizer,2021.1.3,60.018029413580344,
block,scenes,scenes036.bmp,,,,,0,196,196,196,,,,,,,,,,,,,,,,,,,,,,,,,,,,,,,,,,,,,,,,,,None,,754.5034985199978,None,754.5034985199978,None,2022-05-26-12:11:30.929658,754.5061973999836,754.8194688999793,754.5061973999836,754.5061973999836,None,754.5061973999836,754.5061973999836,755.3206787200121,None,,,,11015,0002,2022_May_26_1159,localizer,2021.1.3,60.018029413580344,
block_end,scenes,scenes039.bmp,,,,,0,197,197,197,,,,,,,,,,,,,,,,,,,,,,,,,,,,,,,,,,,,,,,,,,None,,755.3206787200121,None,755.3206787200121,None,2022-05-26-12:11:31.746559,755.3339947999921,755.6346933000023,755.3339947999921,None,None,755.3339947999921,None,756.1427080199879,None,,,,11015,0002,2022_May_26_1159,localizer,2021.1.3,60.018029413580344,
null_block,null_block,null_block.bmp,,,,,0,198,198,198,,,,,,,,,,,,,,,,,,,,,,,,,,,,,,,,,,,,,,,,,,t,1.836875700042583,756.1373747999896,None,756.1373747999896,None,2022-05-26-12:11:34.425255,758.0028749199643,None,758.0028749199643,None,None,758.0028749199643,None,758.0053474999731,None,,,,11015,0002,2022_May_26_1159,localizer,2021.1.3,60.018029413580344,
block_start,scrambled,scrambled075.bmp,,,,,0,199,199,199,,,,,,,,,,,,,,,,,,,,,,,,,,,,,,,,,,,,,,,,,,t,1.955021100002341,770.0190429000068,None,770.0190429000068,None,2022-05-26-12:11:48.431074,772.0166762999725,772.3187110999716,772.0166762999725,None,None,772.0166762999725,None,772.8202209199604,None,,,,11015,0002,2022_May_26_1159,localizer,2021.1.3,60.018029413580344,
block,scrambled,scrambled075.bmp,,,,,0,200,200,200,,,,,,,,,,,,,,,,,,,,,,,,,,,,,,,,,,,,,,,,,,None,,772.8202209199604,None,772.8202209199604,None,2022-05-26-12:11:49.244197,772.8203699999722,773.135493299982,772.8203699999722,None,y,772.8203699999722,None,773.6260164199572,None,0.607730099989567,,,11015,0002,2022_May_26_1159,localizer,2021.1.3,60.018029413580344,
block,scrambled,scrambled032.bmp,,,,,0,201,201,201,,,,,,,,,,,,,,,,,,,,,,,,,,,,,,,,,,,,,,,,,,None,,773.6260164199572,None,773.6260164199572,None,2022-05-26-12:11:50.054977,773.6318414999987,773.9353413999779,773.6318414999987,None,None,773.6318414999987,None,774.4368606199802,None,,,,11015,0002,2022_May_26_1159,localizer,2021.1.3,60.018029413580344,
block,scrambled,scrambled052.bmp,,,,,0,202,202,202,,,,,,,,,,,,,,,,,,,,,,,,,,,,,,,,,,,,,,,,,,None,,774.4368606199802,None,774.4368606199802,None,2022-05-26-12:11:50.860831,774.4369297999656,774.7356742999982,774.4369297999656,None,None,774.4369297999656,None,775.2426647199842,None,,,,11015,0002,2022_May_26_1159,localizer,2021.1.3,60.018029413580344,
block,scrambled,scrambled048.bmp,,,,,0,203,203,203,,,,,,,,,,,,,,,,,,,,,,,,,,,,,,,,,,,,,,,,,,None,,775.2426647199842,None,775.2426647199842,None,2022-05-26-12:11:51.671622,775.2497014999972,775.5523281999631,775.2497014999972,None,None,775.2497014999972,None,776.054151020007,None,,,,11015,0002,2022_May_26_1159,localizer,2021.1.3,60.018029413580344,
block,scrambled,scrambled077.bmp,,,,,0,204,204,204,,,,,,,,,,,,,,,,,,,,,,,,,,,,,,,,,,,,,,,,,,None,,776.054151020007,None,776.054151020007,None,2022-05-26-12:11:52.478290,776.0669206999592,776.3692569999839,776.0669206999592,None,None,776.0669206999592,None,776.8699671199953,None,,,,11015,0002,2022_May_26_1159,localizer,2021.1.3,60.018029413580344,
block,scrambled,scrambled024.bmp,,,,,0,205,205,205,,,,,,,,,,,,,,,,,,,,,,,,,,,,,,,,,,,,,,,,,,None,,776.8699671199953,None,776.8699671199953,None,2022-05-26-12:11:53.292955,776.8697213999694,777.168867099972,776.8697213999694,None,None,776.8697213999694,None,777.6695833199716,None,,,,11015,0002,2022_May_26_1159,localizer,2021.1.3,60.018029413580344,
block,scrambled,scrambled062.bmp,,,,,0,206,206,206,,,,,,,,,,,,,,,,,,,,,,,,,,,,,,,,,,,,,,,,,,None,,777.6695833199716,None,777.6695833199716,None,2022-05-26-12:11:54.094561,777.6717598999967,777.9892078000121,777.6717598999967,777.6717598999967,None,777.6717598999967,777.6717598999967,778.4869853199867,None,,,,11015,0002,2022_May_26_1159,localizer,2021.1.3,60.018029413580344,
block,scrambled,scrambled049.bmp,,,,,0,207,207,207,,,,,,,,,,,,,,,,,,,,,,,,,,,,,,,,,,,,,,,,,,None,,778.4869853199867,None,778.4869853199867,None,2022-05-26-12:11:54.911011,778.4867169999634,778.7860595000093,778.4867169999634,None,None,778.4867169999634,None,779.2865279199847,None,,,,11015,0002,2022_May_26_1159,localizer,2021.1.3,60.018029413580344,
block,scrambled,scrambled005.bmp,,,,,0,208,208,208,,,,,,,,,,,,,,,,,,,,,,,,,,,,,,,,,,,,,,,,,,None,,779.2865279199847,None,779.2865279199847,None,2022-05-26-12:11:55.712499,779.2996561999898,779.608591599972,779.2996561999898,779.2996561999898,None,779.2996561999898,779.2996561999898,780.1092562199862,None,,,,11015,0002,2022_May_26_1159,localizer,2021.1.3,60.018029413580344,
block,scrambled,scrambled053.bmp,,,,,0,209,209,209,,,,,,,,,,,,,,,,,,,,,,,,,,,,,,,,,,,,,,,,,,None,,780.1092562199862,None,780.1092562199862,None,2022-05-26-12:11:56.540155,780.1181746000075,780.4193154000095,780.1181746000075,None,None,780.1181746000075,None,780.9196272199566,None,,,,11015,0002,2022_May_26_1159,localizer,2021.1.3,60.018029413580344,
block,scrambled,scrambled040.bmp,,,,,0,210,210,210,,,,,,,,,,,,,,,,,,,,,,,,,,,,,,,,,,,,,,,,,,None,,780.9196272199566,None,780.9196272199566,None,2022-05-26-12:11:57.342718,780.9199011999881,781.2188812000095,780.9199011999881,None,None,780.9199011999881,None,781.7198228199792,None,,,,11015,0002,2022_May_26_1159,localizer,2021.1.3,60.018029413580344,
block,scrambled,scrambled041.bmp,,,,,0,211,211,211,,,,,,,,,,,,,,,,,,,,,,,,,,,,,,,,,,,,,,,,,,None,,781.7198228199792,None,781.7198228199792,None,2022-05-26-12:11:58.145026,781.7220029999735,782.0358600000036,781.7220029999735,781.7220029999735,None,781.7220029999735,781.7220029999735,782.5370002199721,None,,,,11015,0002,2022_May_26_1159,localizer,2021.1.3,60.018029413580344,
block,scrambled,scrambled068.bmp,,,,,0,212,212,212,,,,,,,,,,,,,,,,,,,,,,,,,,,,,,,,,,,,,,,,,,None,,782.5370002199721,None,782.5370002199721,None,2022-05-26-12:11:58.961047,782.5369363999926,782.8356946999556,782.5369363999926,None,None,782.5369363999926,None,783.3525246200094,None,,,,11015,0002,2022_May_26_1159,localizer,2021.1.3,60.018029413580344,
block_end,scrambled,scrambled007.bmp,,,,,0,213,213,213,,,,,,,,,,,,,,,,,,,,,,,,,,,,,,,,,,,,,,,,,,None,,783.3525246200094,None,783.3525246200094,None,2022-05-26-12:11:59.775511,783.3531053999905,783.6532070999965,783.3531053999905,None,None,783.3531053999905,None,784.1527379199921,None,,,,11015,0002,2022_May_26_1159,localizer,2021.1.3,60.018029413580344,
block_start,faces,faces069.bmp,,,,,0,214,214,214,,,,,,,,,,,,,,,,,,,,,,,,,,,,,,,,,,,,,,,,,,t,1.8221961000235751,784.1519476000103,None,784.1519476000103,None,2022-05-26-12:12:02.424560,786.011858999962,786.3190351999947,786.011858999962,None,None,786.011858999962,None,786.8196611200052,None,,,,11015,0002,2022_May_26_1159,localizer,2021.1.3,60.018029413580344,
block,faces,faces027.bmp,,,,,0,215,215,215,,,,,,,,,,,,,,,,,,,,,,,,,,,,,,,,,,,,,,,,,,None,,786.8196611200052,None,786.8196611200052,None,2022-05-26-12:12:03.242644,786.8200124999858,787.119126799982,786.8200124999858,None,None,786.8200124999858,None,787.6192687199742,None,,,,11015,0002,2022_May_26_1159,localizer,2021.1.3,60.018029413580344,
block,faces,faces065.bmp,,,,,0,216,216,216,,,,,,,,,,,,,,,,,,,,,,,,,,,,,,,,,,,,,,,,,,None,,787.6192687199742,None,787.6192687199742,None,2022-05-26-12:12:04.042258,787.6204163999646,787.9191577999736,787.6204163999646,787.6204163999646,None,787.6204163999646,787.6204163999646,788.4195404199942,None,,,,11015,0002,2022_May_26_1159,localizer,2021.1.3,60.018029413580344,
block,faces,faces053.bmp,,,,,0,217,217,217,,,,,,,,,,,,,,,,,,,,,,,,,,,,,,,,,,,,,,,,,,None,,788.4195404199942,None,788.4195404199942,None,2022-05-26-12:12:04.843744,788.4200041999575,788.7190987999784,788.4200041999575,788.4200041999575,None,788.4200041999575,788.4200041999575,789.2196934199834,None,,,,11015,0002,2022_May_26_1159,localizer,2021.1.3,60.018029413580344,
block,faces,faces060.bmp,,,,,0,218,218,218,,,,,,,,,,,,,,,,,,,,,,,,,,,,,,,,,,,,,,,,,,None,,789.2196934199834,None,789.2196934199834,None,2022-05-26-12:12:05.644900,789.2206371999928,789.5354722999618,789.2206371999928,789.2206371999928,None,789.2206371999928,789.2206371999928,790.0362123199681,None,,,,11015,0002,2022_May_26_1159,localizer,2021.1.3,60.018029413580344,
block,faces,faces016.bmp,,,,,0,219,219,219,,,,,,,,,,,,,,,,,,,,,,,,,,,,,,,,,,,,,,,,,,None,,790.0362123199681,None,790.0362123199681,None,2022-05-26-12:12:06.459143,790.0366057999781,790.3357763999957,790.0366057999781,None,None,790.0366057999781,None,790.8359015199763,None,,,,11015,0002,2022_May_26_1159,localizer,2021.1.3,60.018029413580344,
block,faces,faces048.bmp,,,,,0,220,220,220,,,,,,,,,,,,,,,,,,,,,,,,,,,,,,,,,,,,,,,,,,None,,790.8359015199763,None,790.8359015199763,None,2022-05-26-12:12:07.260885,790.8366738999612,791.1353824000107,790.8366738999612,790.8366738999612,None,790.8366738999612,790.8366738999612,791.6364115200064,None,,,,11015,0002,2022_May_26_1159,localizer,2021.1.3,60.018029413580344,
block,faces,faces071.bmp,,,,,0,221,221,221,,,,,,,,,,,,,,,,,,,,,,,,,,,,,,,,,,,,,,,,,,None,,791.6364115200064,None,791.6364115200064,None,2022-05-26-12:12:08.061366,791.6451484999852,791.9522182999644,791.6451484999852,791.6451484999852,None,791.6451484999852,791.6451484999852,792.4530348199711,None,,,,11015,0002,2022_May_26_1159,localizer,2021.1.3,60.018029413580344,
block,faces,faces007.bmp,,,,,0,222,222,222,,,,,,,,,,,,,,,,,,,,,,,,,,,,,,,,,,,,,,,,,,None,,792.4530348199711,None,792.4530348199711,None,2022-05-26-12:12:08.876048,792.4623966999934,792.7689704999793,792.4623966999934,None,None,792.4623966999934,None,793.269932519988,None,,,,11015,0002,2022_May_26_1159,localizer,2021.1.3,60.018029413580344,
block,faces,faces062.bmp,,,,,0,223,223,223,,,,,,,,,,,,,,,,,,,,,,,,,,,,,,,,,,,,,,,,,,None,,793.269932519988,None,793.269932519988,None,2022-05-26-12:12:09.693078,793.2704128999612,793.5694688999793,793.2704128999612,None,None,793.2704128999612,None,794.069974120002,None,,,,11015,0002,2022_May_26_1159,localizer,2021.1.3,60.018029413580344,
block,faces,faces088.bmp,,,,,0,224,224,224,,,,,,,,,,,,,,,,,,,,,,,,,,,,,,,,,,,,,,,,,,None,,794.069974120002,None,794.069974120002,None,2022-05-26-12:12:10.496140,794.0719958999543,794.3733303999761,794.0719958999543,794.0719958999543,None,794.0719958999543,794.0719958999543,794.8862389199727,None,,,,11015,0002,2022_May_26_1159,localizer,2021.1.3,60.018029413580344,
block,faces,faces008.bmp,,,,,0,225,225,225,,,,,,,,,,,,,,,,,,,,,,,,,,,,,,,,,,,,,,,,,,None,,794.8862389199727,None,794.8862389199727,None,2022-05-26-12:12:11.309474,794.8866850999766,795.1857672999613,794.8866850999766,None,None,794.8866850999766,None,795.686091019999,None,,,,11015,0002,2022_May_26_1159,localizer,2021.1.3,60.018029413580344,
block,faces,faces001.bmp,,,,,0,226,226,226,,,,,,,,,,,,,,,,,,,,,,,,,,,,,,,,,,,,,,,,,,None,,795.686091019999,None,795.686091019999,None,2022-05-26-12:12:12.111012,795.6973456999986,796.0023392000003,795.6973456999986,795.6973456999986,None,795.6973456999986,795.6973456999986,796.5030325200001,None,,,,11015,0002,2022_May_26_1159,localizer,2021.1.3,60.018029413580344,
block,faces,faces020.bmp,,,,,0,227,227,227,,,,,,,,,,,,,,,,,,,,,,,,,,,,,,,,,,,,,,,,,,None,,796.5030325200001,None,796.5030325200001,None,2022-05-26-12:12:12.926243,796.5033270999556,796.8026957999682,796.5033270999556,None,None,796.5033270999556,None,797.3027563199809,None,,,,11015,0002,2022_May_26_1159,localizer,2021.1.3,60.018029413580344,
block_end,faces,faces012.bmp,,,,,0,228,228,228,,,,,,,,,,,,,,,,,,,,,,,,,,,,,,,,,,,,,,,,,,None,,797.3027563199809,None,797.3027563199809,None,2022-05-26-12:12:13.726303,797.303649599955,797.6023853999795,797.303649599955,797.303649599955,None,797.303649599955,797.303649599955,798.1029138200043,None,,,,11015,0002,2022_May_26_1159,localizer,2021.1.3,60.018029413580344,
block_start,objects,objects070.bmp,,,,,0,229,229,229,,,,,,,,,,,,,,,,,,,,,,,,,,,,,,,,,,,,,,,,,,t,1.8721523999702185,798.1018603999983,None,798.1018603999983,None,2022-05-26-12:12:16.426340,800.0036876999657,800.3026975999819,800.0036876999657,None,None,800.0036876999657,None,800.8028375199589,None,,,,11015,0002,2022_May_26_1159,localizer,2021.1.3,60.018029413580344,
block,objects,objects026.bmp,,,,,0,230,230,230,,,,,,,,,,,,,,,,,,,,,,,,,,,,,,,,,,,,,,,,,,None,,800.8028375199589,None,800.8028375199589,None,2022-05-26-12:12:17.226822,800.8033493999974,801.1089589999756,800.8033493999974,800.8033493999974,None,800.8033493999974,800.8033493999974,801.609979919967,None,,,,11015,0002,2022_May_26_1159,localizer,2021.1.3,60.018029413580344,
block,objects,objects003.bmp,,,,,0,231,231,231,,,,,,,,,,,,,,,,,,,,,,,,,,,,,,,,,,,,,,,,,,None,,801.609979919967,None,801.609979919967,None,2022-05-26-12:12:18.036857,801.6136696999893,801.918959099974,801.6136696999893,None,None,801.6136696999893,None,802.4197304199857,None,,,,11015,0002,2022_May_26_1159,localizer,2021.1.3,60.018029413580344,
block,objects,objects069.bmp,,,,,0,232,232,232,,,,,,,,,,,,,,,,,,,,,,,,,,,,,,,,,,,,,,,,,,None,,802.4197304199857,None,802.4197304199857,None,2022-05-26-12:12:18.843376,802.4257416999899,802.7355591999949,802.4257416999899,None,None,802.4257416999899,None,803.2364105199755,None,,,,11015,0002,2022_May_26_1159,localizer,2021.1.3,60.018029413580344,
block,objects,objects059.bmp,,,,,0,233,233,233,,,,,,,,,,,,,,,,,,,,,,,,,,,,,,,,,,,,,,,,,,None,,803.2364105199755,None,803.2364105199755,None,2022-05-26-12:12:19.659869,803.2365345999715,803.5358479999704,803.2365345999715,None,None,803.2365345999715,None,804.0364181199635,None,,,,11015,0002,2022_May_26_1159,localizer,2021.1.3,60.018029413580344,
block,objects,objects034.bmp,,,,,0,234,234,234,,,,,,,,,,,,,,,,,,,,,,,,,,,,,,,,,,,,,,,,,,None,,804.0364181199635,None,804.0364181199635,None,2022-05-26-12:12:20.461397,804.0370974999969,804.3357797999633,804.0370974999969,804.0370974999969,None,804.0370974999969,804.0370974999969,804.8364419199585,None,,,,11015,0002,2022_May_26_1159,localizer,2021.1.3,60.018029413580344,
block,objects,objects074.bmp,,,,,0,235,235,235,,,,,,,,,,,,,,,,,,,,,,,,,,,,,,,,,,,,,,,,,,None,,804.8364419199585,None,804.8364419199585,None,2022-05-26-12:12:21.260839,804.8367546999943,805.1356881000102,804.8367546999943,804.8367546999943,None,804.8367546999943,804.8367546999943,805.6361547199718,None,,,,11015,0002,2022_May_26_1159,localizer,2021.1.3,60.018029413580344,
block,objects,objects005.bmp,,,,,0,236,236,236,,,,,,,,,,,,,,,,,,,,,,,,,,,,,,,,,,,,,,,,,,None,,805.6361547199718,None,805.6361547199718,None,2022-05-26-12:12:22.069120,805.64936879999,805.9524810999865,805.64936879999,805.64936879999,None,805.64936879999,805.64936879999,806.4543584199797,None,,,,11015,0002,2022_May_26_1159,localizer,2021.1.3,60.018029413580344,
block,objects,objects033.bmp,,,,,0,237,237,237,,,,,,,,,,,,,,,,,,,,,,,,,,,,,,,,,,,,,,,,,,None,,806.4543584199797,None,806.4543584199797,None,2022-05-26-12:12:22.879496,806.4650135999545,806.7692371999728,806.4650135999545,None,None,806.4650135999545,None,807.2710025199864,None,,,,11015,0002,2022_May_26_1159,localizer,2021.1.3,60.018029413580344,
block,objects,objects028.bmp,,,,,0,238,238,238,,,,,,,,,,,,,,,,,,,,,,,,,,,,,,,,,,,,,,,,,,None,,807.2710025199864,None,807.2710025199864,None,2022-05-26-12:12:23.695479,807.279171800008,807.5922302000108,807.279171800008,None,None,807.279171800008,None,808.0869722199801,None,,,,11015,0002,2022_May_26_1159,localizer,2021.1.3,60.018029413580344,
block,objects,objects014.bmp,,,,,0,239,239,239,,,,,,,,,,,,,,,,,,,,,,,,,,,,,,,,,,,,,,,,,,None,,808.0869722199801,None,808.0869722199801,None,2022-05-26-12:12:24.511142,808.0982064999989,808.4028546999907,808.0982064999989,None,None,808.0982064999989,None,808.9031106199778,None,,,,11015,0002,2022_May_26_1159,localizer,2021.1.3,60.018029413580344,
block,objects,objects016.bmp,,,,,0,240,240,240,,,,,,,,,,,,,,,,,,,,,,,,,,,,,,,,,,,,,,,,,,None,,808.9031106199778,None,808.9031106199778,None,2022-05-26-12:12:25.326095,808.9033719999716,809.2031189999543,808.9033719999716,None,None,808.9033719999716,None,809.7030971199798,None,,,,11015,0002,2022_May_26_1159,localizer,2021.1.3,60.018029413580344,
block,objects,objects008.bmp,,,,,0,241,241,241,,,,,,,,,,,,,,,,,,,,,,,,,,,,,,,,,,,,,,,,,,None,,809.7030971199798,None,809.7030971199798,None,2022-05-26-12:12:26.127547,809.7032661999692,810.0022839999874,809.7032661999692,809.7032661999692,None,809.7032661999692,809.7032661999692,810.5031293199805,None,,,,11015,0002,2022_May_26_1159,localizer,2021.1.3,60.018029413580344,
block,objects,objects084.bmp,,,,,0,242,242,242,,,,,,,,,,,,,,,,,,,,,,,,,,,,,,,,,,,,,,,,,,None,,810.5031293199805,None,810.5031293199805,None,2022-05-26-12:12:26.928108,810.5038364999928,810.802537599986,810.5038364999928,810.5038364999928,None,810.5038364999928,810.5038364999928,811.3033287199738,None,,,,11015,0002,2022_May_26_1159,localizer,2021.1.3,60.018029413580344,
block_end,objects,objects024.bmp,,,,,0,243,243,243,,,,,,,,,,,,,,,,,,,,,,,,,,,,,,,,,,,,,,,,,,None,,811.3033287199738,None,811.3033287199738,None,2022-05-26-12:12:27.728513,811.3055213000043,811.6193811999983,811.3055213000043,811.3055213000043,None,811.3055213000043,811.3055213000043,812.1200238199614,None,,,,11015,0002,2022_May_26_1159,localizer,2021.1.3,60.018029413580344,
,,,,,,,,,,,,,,,,,,,,,,,,,,,,,,,,,,,,,,,,,,,,,,,,,,,,,,,,,,,,,,,,,,,,,812.1188972999807,None,,,,,,,
