block_type,condition,img_name,Button.thisRepN,Button.thisTrialN,Button.thisN,Button.thisIndex,trials.thisRepN,trials.thisTrialN,trials.thisN,trials.thisIndex,Ready_experimenter_text.started,Ready_experimenter_text.stopped,Ready_experimenter_resp.keys,Ready_experimenter_resp.rt,Ready_experimenter_resp.started,Ready_experimenter_resp.stopped,Alignment_background.started,Alignment_background.stopped,Alignment_image.started,Alignment_image.stopped,Alignment_resp.keys,Alignment_resp.rt,Alignment_resp.started,Alignment_resp.stopped,Button_text.started,Button_text.stopped,Index_text.started,Index_text.stopped,Index_resp.keys,Index_resp.rt,Index_resp.started,Index_resp.stopped,Middle_text.started,Middle_text.stopped,Middle_resp.keys,Middle_resp.rt,Middle_resp.started,Middle_resp.stopped,Repeat_text.started,Repeat_text.stopped,Repeat_resp.keys,Repeat_resp.corr,Repeat_resp.rt,Repeat_resp.started,Repeat_resp.stopped,instruction_text.started,instruction_text.stopped,key_resp.keys,key_resp.rt,key_resp.started,key_resp.stopped,scanner_t.keys,scanner_t.rt,scanner_t.started,scanner_t.stopped,fixation_wait_for_t.started,fixation_wait_for_t.stopped,real_timestamp_trial_start,image.started,image.stopped,fixation.started,fixation.stopped,repeat_response.keys,repeat_response.started,repeat_response.stopped,fixation_null.started,fixation_null.stopped,repeat_response.rt,end_text.started,end_text.stopped,participant,run,date,expName,psychopyVersion,frameRate,
,,,,,,,,,,,12.350045999977738,None,return,1.073536500101909,12.350045999977738,None,,,,,,,,,,,,,,,,,,,,,,,,,,,,,,,,,,,,,,,,,,,,,,,,,,,,,,,22019,0001,2022_Dec_11_1126,localizer,2021.1.3,60.84671852685433,
,,,,,,,,,,,,,,,,,13.476548600010574,None,13.476548600010574,None,return,57.239446100080386,13.476548600010574,None,,,,,,,,,,,,,,,,,,,,,,,,,,,,,,,,,,,,,,,,,,,,,,,22019,0001,2022_Dec_11_1126,localizer,2021.1.3,60.84671852685433,
,,,0,0,0,0,,,,,,,,,,,,,,,,,,,70.73456830019131,None,71.75005120015703,None,y,2.074126400053501,71.75005120015703,None,73.85007790010422,None,b,1.0787756000645459,73.85007790010422,None,74.94908310007304,None,n,0,1.3430627000052482,74.94908310007304,None,,,,,,,,,,,,,,,,,,,,,,,,,,22019,0001,2022_Dec_11_1126,localizer,2021.1.3,60.84671852685433,
,,,,,,,,,,,,,,,,,,,,,,,,,,,,,,,,,,,,,,,,,,,,,,76.31695860018954,None,y,34.87569549982436,76.31695860018954,None,,,,,,,,,,,,,,,,,,,,22019,0001,2022_Dec_11_1126,localizer,2021.1.3,60.84671852685433,
block_start,scrambled,scrambled016.bmp,,,,,0,0,0,0,,,,,,,,,,,,,,,,,,,,,,,,,,,,,,,,,,,,,,,,,,t,15.262093199882656,111.27797719999216,None,111.27797719999216,None,2022-12-11-11:28:49.225207,126.58148670010269,126.8840328999795,126.58148670010269,None,None,126.58148670010269,None,127.38422813003417,None,,,,22019,0001,2022_Dec_11_1126,localizer,2021.1.3,60.84671852685433,
block,scrambled,scrambled086.bmp,,,,,0,1,1,1,,,,,,,,,,,,,,,,,,,,,,,,,,,,,,,,,,,,,,,,,,None,,127.38422813003417,None,127.38422813003417,None,2022-12-11-11:28:50.043879,127.39747860003263,127.70054089999758,127.39747860003263,None,None,127.39747860003263,None,128.20064982997718,None,,,,22019,0001,2022_Dec_11_1126,localizer,2021.1.3,60.84671852685433,
block,scrambled,scrambled083.bmp,,,,,0,2,2,2,,,,,,,,,,,,,,,,,,,,,,,,,,,,,,,,,,,,,,,,,,None,,128.20064982997718,None,128.20064982997718,None,2022-12-11-11:28:50.858247,128.211278000148,128.51639930019155,128.211278000148,None,None,128.211278000148,None,129.01754623015876,None,,,,22019,0001,2022_Dec_11_1126,localizer,2021.1.3,60.84671852685433,
block,scrambled,scrambled004.bmp,,,,,0,3,3,3,,,,,,,,,,,,,,,,,,,,,,,,,,,,,,,,,,,,,,,,,,None,,129.01754623015876,None,129.01754623015876,None,2022-12-11-11:28:51.674816,129.02805970003828,129.33411459997296,129.02805970003828,None,None,129.02805970003828,None,129.83432012998964,None,,,,22019,0001,2022_Dec_11_1126,localizer,2021.1.3,60.84671852685433,
block,scrambled,scrambled063.bmp,,,,,0,4,4,4,,,,,,,,,,,,,,,,,,,,,,,,,,,,,,,,,,,,,,,,,,None,,129.83432012998964,None,129.83432012998964,None,2022-12-11-11:28:52.491911,129.84539390006103,130.15057140006684,129.84539390006103,None,None,129.84539390006103,None,130.65070963015313,None,,,,22019,0001,2022_Dec_11_1126,localizer,2021.1.3,60.84671852685433,
block,scrambled,scrambled043.bmp,,,,,0,5,5,5,,,,,,,,,,,,,,,,,,,,,,,,,,,,,,,,,,,,,,,,,,None,,130.65070963015313,None,130.65070963015313,None,2022-12-11-11:28:53.308436,130.6613633001689,130.96721080015413,130.6613633001689,None,None,130.6613633001689,None,131.4678155301837,None,,,,22019,0001,2022_Dec_11_1126,localizer,2021.1.3,60.84671852685433,
block,scrambled,scrambled018.bmp,,,,,0,6,6,6,,,,,,,,,,,,,,,,,,,,,,,,,,,,,,,,,,,,,,,,,,None,,131.4678155301837,None,131.4678155301837,None,2022-12-11-11:28:54.126504,131.47894740011543,131.78412199998274,131.47894740011543,None,None,131.47894740011543,None,132.28449013007338,None,,,,22019,0001,2022_Dec_11_1126,localizer,2021.1.3,60.84671852685433,
block,scrambled,scrambled065.bmp,,,,,0,7,7,7,,,,,,,,,,,,,,,,,,,,,,,,,,,,,,,,,,,,,,,,,,None,,132.28449013007338,None,132.28449013007338,None,2022-12-11-11:28:54.942083,132.29503250005655,132.60066810017452,132.29503250005655,None,None,132.29503250005655,None,133.10072302997577,None,,,,22019,0001,2022_Dec_11_1126,localizer,2021.1.3,60.84671852685433,
block,scrambled,scrambled014.bmp,,,,,0,8,8,8,,,,,,,,,,,,,,,,,,,,,,,,,,,,,,,,,,,,,,,,,,None,,133.10072302997577,None,133.10072302997577,None,2022-12-11-11:28:55.758441,133.1109313000925,133.4173767999746,133.1109313000925,None,None,133.1109313000925,None,133.91798423014114,None,,,,22019,0001,2022_Dec_11_1126,localizer,2021.1.3,60.84671852685433,
block,scrambled,scrambled040.bmp,,,,,0,9,9,9,,,,,,,,,,,,,,,,,,,,,,,,,,,,,,,,,,,,,,,,,,None,,133.91798423014114,None,133.91798423014114,None,2022-12-11-11:28:56.577099,133.93064630008303,134.23403930012137,133.93064630008303,None,None,133.93064630008303,None,134.7352619300829,None,,,,22019,0001,2022_Dec_11_1126,localizer,2021.1.3,60.84671852685433,
block,scrambled,scrambled082.bmp,,,,,0,10,10,10,,,,,,,,,,,,,,,,,,,,,,,,,,,,,,,,,,,,,,,,,,None,,134.7352619300829,None,134.7352619300829,None,2022-12-11-11:28:57.394817,134.7494086001534,135.05132990004495,134.7494086001534,None,None,134.7494086001534,None,135.55112653009127,None,,,,22019,0001,2022_Dec_11_1126,localizer,2021.1.3,60.84671852685433,
block,scrambled,scrambled046.bmp,,,,,0,11,11,11,,,,,,,,,,,,,,,,,,,,,,,,,,,,,,,,,,,,,,,,,,None,,135.55112653009127,None,135.55112653009127,None,2022-12-11-11:28:58.209694,135.5632776999846,135.8678398001939,135.5632776999846,None,None,135.5632776999846,None,136.367550030048,None,,,,22019,0001,2022_Dec_11_1126,localizer,2021.1.3,60.84671852685433,
block,scrambled,scrambled031.bmp,,,,,0,12,12,12,,,,,,,,,,,,,,,,,,,,,,,,,,,,,,,,,,,,,,,,,,None,,136.367550030048,None,136.367550030048,None,2022-12-11-11:28:59.025144,136.37881610007025,136.6840489001479,136.37881610007025,None,None,136.37881610007025,None,137.18382073000538,None,,,,22019,0001,2022_Dec_11_1126,localizer,2021.1.3,60.84671852685433,
block,scrambled,scrambled038.bmp,,,,,0,13,13,13,,,,,,,,,,,,,,,,,,,,,,,,,,,,,,,,,,,,,,,,,,None,,137.18382073000538,None,137.18382073000538,None,2022-12-11-11:28:59.841422,137.1939708001446,137.50071350019425,137.1939708001446,None,None,137.1939708001446,None,138.00083603004458,None,,,,22019,0001,2022_Dec_11_1126,localizer,2021.1.3,60.84671852685433,
block_end,scrambled,scrambled006.bmp,,,,,0,14,14,14,,,,,,,,,,,,,,,,,,,,,,,,,,,,,,,,,,,,,,,,,,None,,138.00083603004458,None,138.00083603004458,None,2022-12-11-11:29:00.658431,138.01211530016735,138.31747080013156,138.01211530016735,None,None,138.01211530016735,None,138.81821703019085,None,,,,22019,0001,2022_Dec_11_1126,localizer,2021.1.3,60.84671852685433,
null_block,null_block,null_block.bmp,,,,,0,15,15,15,,,,,,,,,,,,,,,,,,,,,,,,,,,,,,,,,,,,,,,,,,t,1.7217833001632243,138.81824630009942,None,138.81824630009942,None,2022-12-11-11:29:03.224569,140.58449766002593,None,140.58449766002593,None,None,140.58449766002593,None,140.58205329999328,None,,,,22019,0001,2022_Dec_11_1126,localizer,2021.1.3,60.84671852685433,
block_start,objects,objects037.bmp,,,,,0,16,16,16,,,,,,,,,,,,,,,,,,,,,,,,,,,,,,,,,,,,,,,,,,t,1.955490600084886,152.5846628001891,None,152.5846628001891,None,2022-12-11-11:29:17.226203,154.57922920002602,154.88417570013553,154.57922920002602,None,None,154.57922920002602,None,155.38431563011835,None,,,,22019,0001,2022_Dec_11_1126,localizer,2021.1.3,60.84671852685433,
block,objects,objects047.bmp,,,,,0,17,17,17,,,,,,,,,,,,,,,,,,,,,,,,,,,,,,,,,,,,,,,,,,None,,155.38431563011835,None,155.38431563011835,None,2022-12-11-11:29:18.042120,155.39501810004003,155.7006263001822,155.39501810004003,None,None,155.39501810004003,None,156.20083073007407,None,,,,22019,0001,2022_Dec_11_1126,localizer,2021.1.3,60.84671852685433,
block,objects,objects043.bmp,,,,,0,18,18,18,,,,,,,,,,,,,,,,,,,,,,,,,,,,,,,,,,,,,,,,,,None,,156.20083073007407,None,156.20083073007407,None,2022-12-11-11:29:18.858426,156.20918420003727,156.5174822001718,156.20918420003727,None,None,156.20918420003727,None,157.01755023018922,None,,,,22019,0001,2022_Dec_11_1126,localizer,2021.1.3,60.84671852685433,
block,objects,objects019.bmp,,,,,0,19,19,19,,,,,,,,,,,,,,,,,,,,,,,,,,,,,,,,,,,,,,,,,,None,,157.01755023018922,None,157.01755023018922,None,2022-12-11-11:29:19.675163,157.0285448001232,157.3339888001792,157.0285448001232,None,None,157.0285448001232,None,157.83372943003195,None,,,,22019,0001,2022_Dec_11_1126,localizer,2021.1.3,60.84671852685433,
block,objects,objects040.bmp,,,,,0,20,20,20,,,,,,,,,,,,,,,,,,,,,,,,,,,,,,,,,,,,,,,,,,None,,157.83372943003195,None,157.83372943003195,None,2022-12-11-11:29:20.491258,157.84267390007153,158.15054070018232,157.84267390007153,None,None,157.84267390007153,None,158.65059163018594,None,,,,22019,0001,2022_Dec_11_1126,localizer,2021.1.3,60.84671852685433,
block,objects,objects014.bmp,,,,,0,21,21,21,,,,,,,,,,,,,,,,,,,,,,,,,,,,,,,,,,,,,,,,,,None,,158.65059163018594,None,158.65059163018594,None,2022-12-11-11:29:21.308189,158.66108790016733,158.96743319998495,158.66108790016733,None,None,158.66108790016733,None,159.46740403019356,None,,,,22019,0001,2022_Dec_11_1126,localizer,2021.1.3,60.84671852685433,
block,objects,objects063.bmp,,,,,0,22,22,22,,,,,,,,,,,,,,,,,,,,,,,,,,,,,,,,,,,,,,,,,,None,,159.46740403019356,None,159.46740403019356,None,2022-12-11-11:29:22.124999,159.47827980015427,159.7837434001267,159.47827980015427,None,None,159.47827980015427,None,160.284239630145,None,,,,22019,0001,2022_Dec_11_1126,localizer,2021.1.3,60.84671852685433,
block,objects,objects075.bmp,,,,,0,23,23,23,,,,,,,,,,,,,,,,,,,,,,,,,,,,,,,,,,,,,,,,,,None,,160.284239630145,None,160.284239630145,None,2022-12-11-11:29:22.941834,160.29464470013045,160.60058490000665,160.29464470013045,None,None,160.29464470013045,None,161.10057302999775,None,,,,22019,0001,2022_Dec_11_1126,localizer,2021.1.3,60.84671852685433,
block,objects,objects081.bmp,,,,,0,24,24,24,,,,,,,,,,,,,,,,,,,,,,,,,,,,,,,,,,,,,,,,,,None,,161.10057302999775,None,161.10057302999775,None,2022-12-11-11:29:23.758171,161.11018229997717,161.4173077000305,161.11018229997717,None,None,161.11018229997717,None,161.91854493010322,None,,,,22019,0001,2022_Dec_11_1126,localizer,2021.1.3,60.84671852685433,
block,objects,objects034.bmp,,,,,0,25,25,25,,,,,,,,,,,,,,,,,,,,,,,,,,,,,,,,,,,,,,,,,,None,,161.91854493010322,None,161.91854493010322,None,2022-12-11-11:29:24.578205,161.93280220008455,162.23386360006407,161.93280220008455,None,None,161.93280220008455,None,162.73411033016163,None,,,,22019,0001,2022_Dec_11_1126,localizer,2021.1.3,60.84671852685433,
block,objects,objects005.bmp,,,,,0,26,26,26,,,,,,,,,,,,,,,,,,,,,,,,,,,,,,,,,,,,,,,,,,None,,162.73411033016163,None,162.73411033016163,None,2022-12-11-11:29:25.391882,162.7452599001117,163.05076210014522,162.7452599001117,None,None,162.7452599001117,None,163.5509442299837,None,,,,22019,0001,2022_Dec_11_1126,localizer,2021.1.3,60.84671852685433,
block,objects,objects083.bmp,,,,,0,27,27,27,,,,,,,,,,,,,,,,,,,,,,,,,,,,,,,,,,,,,,,,,,None,,163.5509442299837,None,163.5509442299837,None,2022-12-11-11:29:26.208539,163.56230040010996,163.87093450012617,163.56230040010996,None,None,163.56230040010996,None,164.3671554300701,None,,,,22019,0001,2022_Dec_11_1126,localizer,2021.1.3,60.84671852685433,
block,objects,objects062.bmp,,,,,0,28,28,28,,,,,,,,,,,,,,,,,,,,,,,,,,,,,,,,,,,,,,,,,,None,,164.3671554300701,None,164.3671554300701,None,2022-12-11-11:29:27.024753,164.3769674000796,164.68412020010874,164.3769674000796,None,None,164.3769674000796,None,165.18434683016966,None,,,,22019,0001,2022_Dec_11_1126,localizer,2021.1.3,60.84671852685433,
block,objects,objects059.bmp,,,,,0,29,29,29,,,,,,,,,,,,,,,,,,,,,,,,,,,,,,,,,,,,,,,,,,None,,165.18434683016966,None,165.18434683016966,None,2022-12-11-11:29:27.842139,165.19543640012853,165.50077549996786,165.19543640012853,None,None,165.19543640012853,None,166.00099572998005,None,,,,22019,0001,2022_Dec_11_1126,localizer,2021.1.3,60.84671852685433,
block_end,objects,objects021.bmp,,,,,0,30,30,30,,,,,,,,,,,,,,,,,,,,,,,,,,,,,,,,,,,,,,,,,,None,,166.00099572998005,None,166.00099572998005,None,2022-12-11-11:29:28.659045,166.01044390001334,166.31738540017977,166.01044390001334,None,None,166.01044390001334,None,166.81714673007372,None,,,,22019,0001,2022_Dec_11_1126,localizer,2021.1.3,60.84671852685433,
block_start,scenes,scenes014.bmp,,,,,0,31,31,31,,,,,,,,,,,,,,,,,,,,,,,,,,,,,,,,,,,,,,,,,,t,1.7231646999716759,166.81710360012949,None,166.81710360012949,None,2022-12-11-11:29:31.226644,168.58135330001824,168.88443040009588,168.58135330001824,None,None,168.58135330001824,None,169.38456493003758,None,,,,22019,0001,2022_Dec_11_1126,localizer,2021.1.3,60.84671852685433,
block,scenes,scenes001.bmp,,,,,0,32,32,32,,,,,,,,,,,,,,,,,,,,,,,,,,,,,,,,,,,,,,,,,,None,,169.38456493003758,None,169.38456493003758,None,2022-12-11-11:29:32.042157,169.39623200008646,169.70082790008746,169.39623200008646,None,None,169.39623200008646,None,170.20204483012202,None,,,,22019,0001,2022_Dec_11_1126,localizer,2021.1.3,60.84671852685433,
block,scenes,scenes083.bmp,,,,,0,33,33,33,,,,,,,,,,,,,,,,,,,,,,,,,,,,,,,,,,,,,,,,,,None,,170.20204483012202,None,170.20204483012202,None,2022-12-11-11:29:32.860798,170.21542040002532,170.5173932001926,170.21542040002532,None,None,170.21542040002532,None,171.0177008301718,None,,,,22019,0001,2022_Dec_11_1126,localizer,2021.1.3,60.84671852685433,
block,scenes,scenes018.bmp,,,,,0,34,34,34,,,,,,,,,,,,,,,,,,,,,,,,,,,,,,,,,,,,,,,,,,None,,171.0177008301718,None,171.0177008301718,None,2022-12-11-11:29:33.675317,171.02879460016266,171.33421750017442,171.02879460016266,None,None,171.02879460016266,None,171.8362296299776,None,,,,22019,0001,2022_Dec_11_1126,localizer,2021.1.3,60.84671852685433,
block,scenes,scenes050.bmp,,,,,0,35,35,35,,,,,,,,,,,,,,,,,,,,,,,,,,,,,,,,,,,,,,,,,,None,,171.8362296299776,None,171.8362296299776,None,2022-12-11-11:29:34.497811,171.8522348999977,172.15121969999745,171.8522348999977,None,None,171.8522348999977,None,172.65086063013877,None,,,,22019,0001,2022_Dec_11_1126,localizer,2021.1.3,60.84671852685433,
block,scenes,scenes070.bmp,,,,,0,36,36,36,,,,,,,,,,,,,,,,,,,,,,,,,,,,,,,,,,,,,,,,,,None,,172.65086063013877,None,172.65086063013877,None,2022-12-11-11:29:35.308462,172.66042009997182,172.96745560015552,172.66042009997182,None,None,172.66042009997182,None,173.46765393011736,None,,,,22019,0001,2022_Dec_11_1126,localizer,2021.1.3,60.84671852685433,
block,scenes,scenes052.bmp,,,,,0,37,37,37,,,,,,,,,,,,,,,,,,,,,,,,,,,,,,,,,,,,,,,,,,None,,173.46765393011736,None,173.46765393011736,None,2022-12-11-11:29:36.125561,173.47867590002716,173.78405390004627,173.47867590002716,None,None,173.47867590002716,None,174.2850070301676,None,,,,22019,0001,2022_Dec_11_1126,localizer,2021.1.3,60.84671852685433,
block,scenes,scenes035.bmp,,,,,0,38,38,38,,,,,,,,,,,,,,,,,,,,,,,,,,,,,,,,,,,,,,,,,,None,,174.2850070301676,None,174.2850070301676,None,2022-12-11-11:29:36.943666,174.2974429000169,174.60077970009297,174.2974429000169,None,None,174.2974429000169,None,175.10105283015872,None,,,,22019,0001,2022_Dec_11_1126,localizer,2021.1.3,60.84671852685433,
block,scenes,scenes089.bmp,,,,,0,39,39,39,,,,,,,,,,,,,,,,,,,,,,,,,,,,,,,,,,,,,,,,,,None,,175.10105283015872,None,175.10105283015872,None,2022-12-11-11:29:37.758648,175.11205810005777,175.41759370011277,175.11205810005777,None,None,175.11205810005777,None,175.91754443005192,None,,,,22019,0001,2022_Dec_11_1126,localizer,2021.1.3,60.84671852685433,
block,scenes,scenes058.bmp,,,,,0,40,40,40,,,,,,,,,,,,,,,,,,,,,,,,,,,,,,,,,,,,,,,,,,None,,175.91754443005192,None,175.91754443005192,None,2022-12-11-11:29:38.575144,175.9281605000142,176.23394900001585,175.9281605000142,None,None,175.9281605000142,None,176.73437393007333,None,,,,22019,0001,2022_Dec_11_1126,localizer,2021.1.3,60.84671852685433,
block,scenes,scenes055.bmp,,,,,0,41,41,41,,,,,,,,,,,,,,,,,,,,,,,,,,,,,,,,,,,,,,,,,,None,,176.73437393007333,None,176.73437393007333,None,2022-12-11-11:29:39.392154,176.74618500005454,177.05099870008416,176.74618500005454,None,None,176.74618500005454,None,177.5502173301531,None,,,,22019,0001,2022_Dec_11_1126,localizer,2021.1.3,60.84671852685433,
block,scenes,scenes064.bmp,,,,,0,42,42,42,,,,,,,,,,,,,,,,,,,,,,,,,,,,,,,,,,,,,,,,,,None,,177.5502173301531,None,177.5502173301531,None,2022-12-11-11:29:40.206688,177.5585084001068,177.86786610004492,177.5585084001068,None,None,177.5585084001068,None,178.3685019301949,None,,,,22019,0001,2022_Dec_11_1126,localizer,2021.1.3,60.84671852685433,
block,scenes,scenes064.bmp,,,,,0,43,43,43,,,,,,,,,,,,,,,,,,,,,,,,,,,,,,,,,,,,,,,,,,None,,178.3685019301949,None,178.3685019301949,None,2022-12-11-11:29:41.027265,178.36933230003342,178.684051200049,178.36933230003342,None,y,178.36933230003342,None,179.18426683002616,None,0.6737027000635862,,,22019,0001,2022_Dec_11_1126,localizer,2021.1.3,60.84671852685433,
block,scenes,scenes066.bmp,,,,,0,44,44,44,,,,,,,,,,,,,,,,,,,,,,,,,,,,,,,,,,,,,,,,,,None,,179.18426683002616,None,179.18426683002616,None,2022-12-11-11:29:41.842000,179.19531790004112,179.50087170000188,179.19531790004112,None,None,179.19531790004112,None,180.00228853004518,None,,,,22019,0001,2022_Dec_11_1126,localizer,2021.1.3,60.84671852685433,
block_end,scenes,scenes053.bmp,,,,,0,45,45,45,,,,,,,,,,,,,,,,,,,,,,,,,,,,,,,,,,,,,,,,,,None,,180.00228853004518,None,180.00228853004518,None,2022-12-11-11:29:42.661863,180.0163889999967,180.31733650015667,180.0163889999967,None,None,180.0163889999967,None,180.81752113013061,None,,,,22019,0001,2022_Dec_11_1126,localizer,2021.1.3,60.84671852685433,
block_start,faces,faces028.bmp,,,,,0,46,46,46,,,,,,,,,,,,,,,,,,,,,,,,,,,,,,,,,,,,,,,,,,t,1.7216336999554187,180.81746669998392,None,180.81746669998392,None,2022-12-11-11:29:45.223825,182.57802760018967,182.8842989001423,182.57802760018967,None,None,182.57802760018967,None,183.3844777300721,None,,,,22019,0001,2022_Dec_11_1126,localizer,2021.1.3,60.84671852685433,
block,faces,faces066.bmp,,,,,0,47,47,47,,,,,,,,,,,,,,,,,,,,,,,,,,,,,,,,,,,,,,,,,,None,,183.3844777300721,None,183.3844777300721,None,2022-12-11-11:29:46.042989,183.39631250011735,183.70105380006135,183.39631250011735,None,None,183.39631250011735,None,184.20091523013542,None,,,,22019,0001,2022_Dec_11_1126,localizer,2021.1.3,60.84671852685433,
block,faces,faces014.bmp,,,,,0,48,48,48,,,,,,,,,,,,,,,,,,,,,,,,,,,,,,,,,,,,,,,,,,None,,184.20091523013542,None,184.20091523013542,None,2022-12-11-11:29:46.858507,184.21214920002967,184.51756790000945,184.21214920002967,None,None,184.21214920002967,None,185.01781093019525,None,,,,22019,0001,2022_Dec_11_1126,localizer,2021.1.3,60.84671852685433,
block,faces,faces078.bmp,,,,,0,49,49,49,,,,,,,,,,,,,,,,,,,,,,,,,,,,,,,,,,,,,,,,,,None,,185.01781093019525,None,185.01781093019525,None,2022-12-11-11:29:47.675589,185.02891120011918,185.33415640005842,185.02891120011918,None,None,185.02891120011918,None,185.83434573018457,None,,,,22019,0001,2022_Dec_11_1126,localizer,2021.1.3,60.84671852685433,
block,faces,faces036.bmp,,,,,0,50,50,50,,,,,,,,,,,,,,,,,,,,,,,,,,,,,,,,,,,,,,,,,,None,,185.83434573018457,None,185.83434573018457,None,2022-12-11-11:29:48.491941,185.84474520012736,186.1508671999909,185.84474520012736,None,None,185.84474520012736,None,186.6510346300667,None,,,,22019,0001,2022_Dec_11_1126,localizer,2021.1.3,60.84671852685433,
block,faces,faces068.bmp,,,,,0,51,51,51,,,,,,,,,,,,,,,,,,,,,,,,,,,,,,,,,,,,,,,,,,None,,186.6510346300667,None,186.6510346300667,None,2022-12-11-11:29:49.308650,186.66304909996688,186.9677112000063,186.66304909996688,None,None,186.66304909996688,None,187.46794292998965,None,,,,22019,0001,2022_Dec_11_1126,localizer,2021.1.3,60.84671852685433,
block,faces,faces007.bmp,,,,,0,52,52,52,,,,,,,,,,,,,,,,,,,,,,,,,,,,,,,,,,,,,,,,,,None,,187.46794292998965,None,187.46794292998965,None,2022-12-11-11:29:50.125743,187.4788671999704,187.7838602999691,187.4788671999704,None,None,187.4788671999704,None,188.2844215300167,None,,,,22019,0001,2022_Dec_11_1126,localizer,2021.1.3,60.84671852685433,
block,faces,faces048.bmp,,,,,0,53,53,53,,,,,,,,,,,,,,,,,,,,,,,,,,,,,,,,,,,,,,,,,,None,,188.2844215300167,None,188.2844215300167,None,2022-12-11-11:29:50.941849,188.29535080003552,188.60094640008174,188.29535080003552,None,None,188.29535080003552,None,189.10107813000212,None,,,,22019,0001,2022_Dec_11_1126,localizer,2021.1.3,60.84671852685433,
block,faces,faces060.bmp,,,,,0,54,54,54,,,,,,,,,,,,,,,,,,,,,,,,,,,,,,,,,,,,,,,,,,None,,189.10107813000212,None,189.10107813000212,None,2022-12-11-11:29:51.758669,189.1119417999871,189.41766290017404,189.1119417999871,None,None,189.1119417999871,None,189.91780043013858,None,,,,22019,0001,2022_Dec_11_1126,localizer,2021.1.3,60.84671852685433,
block,faces,faces032.bmp,,,,,0,55,55,55,,,,,,,,,,,,,,,,,,,,,,,,,,,,,,,,,,,,,,,,,,None,,189.91780043013858,None,189.91780043013858,None,2022-12-11-11:29:52.575419,189.92865400016308,190.23421170003712,189.92865400016308,None,None,189.92865400016308,None,190.7344964301912,None,,,,22019,0001,2022_Dec_11_1126,localizer,2021.1.3,60.84671852685433,
block,faces,faces075.bmp,,,,,0,56,56,56,,,,,,,,,,,,,,,,,,,,,,,,,,,,,,,,,,,,,,,,,,None,,190.7344964301912,None,190.7344964301912,None,2022-12-11-11:29:53.392287,190.7415343001485,191.05105560016818,190.7415343001485,None,None,190.7415343001485,None,191.55120292997452,None,,,,22019,0001,2022_Dec_11_1126,localizer,2021.1.3,60.84671852685433,
block,faces,faces053.bmp,,,,,0,57,57,57,,,,,,,,,,,,,,,,,,,,,,,,,,,,,,,,,,,,,,,,,,None,,191.55120292997452,None,191.55120292997452,None,2022-12-11-11:29:54.208797,191.56197500019334,191.8676279000938,191.56197500019334,None,None,191.56197500019334,None,192.36775073006282,None,,,,22019,0001,2022_Dec_11_1126,localizer,2021.1.3,60.84671852685433,
block,faces,faces051.bmp,,,,,0,58,58,58,,,,,,,,,,,,,,,,,,,,,,,,,,,,,,,,,,,,,,,,,,None,,192.36775073006282,None,192.36775073006282,None,2022-12-11-11:29:55.025346,192.37887850007974,192.6844471001532,192.37887850007974,None,None,192.37887850007974,None,193.1845050299773,None,,,,22019,0001,2022_Dec_11_1126,localizer,2021.1.3,60.84671852685433,
block,faces,faces087.bmp,,,,,0,59,59,59,,,,,,,,,,,,,,,,,,,,,,,,,,,,,,,,,,,,,,,,,,None,,193.1845050299773,None,193.1845050299773,None,2022-12-11-11:29:55.842100,193.19644770002924,193.50091630010866,193.19644770002924,None,None,193.19644770002924,None,194.0021800300339,None,,,,22019,0001,2022_Dec_11_1126,localizer,2021.1.3,60.84671852685433,
block_end,faces,faces086.bmp,,,,,0,60,60,60,,,,,,,,,,,,,,,,,,,,,,,,,,,,,,,,,,,,,,,,,,None,,194.0021800300339,None,194.0021800300339,None,2022-12-11-11:29:56.660941,194.0152416001074,194.31763579999097,194.0152416001074,None,None,194.0152416001074,None,194.8178893301403,None,,,,22019,0001,2022_Dec_11_1126,localizer,2021.1.3,60.84671852685433,
null_block,null_block,null_block.bmp,,,,,0,61,61,61,,,,,,,,,,,,,,,,,,,,,,,,,,,,,,,,,,,,,,,,,,t,1.721250400179997,194.8176951999776,None,194.8176951999776,None,2022-12-11-11:29:59.225963,196.56820472998078,None,196.56820472998078,None,None,196.56820472998078,None,196.57303650001995,None,,,,22019,0001,2022_Dec_11_1126,localizer,2021.1.3,60.84671852685433,
block_start,scenes,scenes081.bmp,,,,,0,62,62,62,,,,,,,,,,,,,,,,,,,,,,,,,,,,,,,,,,,,,,,,,,t,1.954171100165695,208.58486300008371,None,208.58486300008371,None,2022-12-11-11:30:13.227469,210.5796156001743,210.8843458001502,210.5796156001743,None,None,210.5796156001743,None,211.3847260299837,None,,,,22019,0001,2022_Dec_11_1126,localizer,2021.1.3,60.84671852685433,
block,scenes,scenes086.bmp,,,,,0,63,63,63,,,,,,,,,,,,,,,,,,,,,,,,,,,,,,,,,,,,,,,,,,None,,211.3847260299837,None,211.3847260299837,None,2022-12-11-11:30:14.042523,211.39563579997048,211.70112660015002,211.39563579997048,None,None,211.39563579997048,None,212.20159143016207,None,,,,22019,0001,2022_Dec_11_1126,localizer,2021.1.3,60.84671852685433,
block,scenes,scenes040.bmp,,,,,0,64,64,64,,,,,,,,,,,,,,,,,,,,,,,,,,,,,,,,,,,,,,,,,,None,,212.20159143016207,None,212.20159143016207,None,2022-12-11-11:30:14.860363,212.21448500012048,212.51774190017022,212.21448500012048,None,None,212.21448500012048,None,213.01806833005975,None,,,,22019,0001,2022_Dec_11_1126,localizer,2021.1.3,60.84671852685433,
block,scenes,scenes024.bmp,,,,,0,65,65,65,,,,,,,,,,,,,,,,,,,,,,,,,,,,,,,,,,,,,,,,,,None,,213.01806833005975,None,213.01806833005975,None,2022-12-11-11:30:15.675662,213.02933729998767,213.33425440010615,213.02933729998767,None,None,213.02933729998767,None,213.83669723004567,None,,,,22019,0001,2022_Dec_11_1126,localizer,2021.1.3,60.84671852685433,
block,scenes,scenes048.bmp,,,,,0,66,66,66,,,,,,,,,,,,,,,,,,,,,,,,,,,,,,,,,,,,,,,,,,None,,213.83669723004567,None,213.83669723004567,None,2022-12-11-11:30:16.498455,213.85500690015033,214.16831220011227,213.85500690015033,None,None,213.85500690015033,None,214.65179653016384,None,,,,22019,0001,2022_Dec_11_1126,localizer,2021.1.3,60.84671852685433,
block,scenes,scenes035.bmp,,,,,0,67,67,67,,,,,,,,,,,,,,,,,,,,,,,,,,,,,,,,,,,,,,,,,,None,,214.65179653016384,None,214.65179653016384,None,2022-12-11-11:30:17.311091,214.65300730010495,214.9679604000412,214.65300730010495,None,None,214.65300730010495,None,215.4680005301954,None,,,,22019,0001,2022_Dec_11_1126,localizer,2021.1.3,60.84671852685433,
block,scenes,scenes038.bmp,,,,,0,68,68,68,,,,,,,,,,,,,,,,,,,,,,,,,,,,,,,,,,,,,,,,,,None,,215.4680005301954,None,215.4680005301954,None,2022-12-11-11:30:18.125717,215.47908680001274,215.78439010004513,215.47908680001274,None,None,215.47908680001274,None,216.2848336300114,None,,,,22019,0001,2022_Dec_11_1126,localizer,2021.1.3,60.84671852685433,
block,scenes,scenes076.bmp,,,,,0,69,69,69,,,,,,,,,,,,,,,,,,,,,,,,,,,,,,,,,,,,,,,,,,None,,216.2848336300114,None,216.2848336300114,None,2022-12-11-11:30:18.942639,216.29666500003077,216.60098930005915,216.29666500003077,None,None,216.29666500003077,None,217.10148543019312,None,,,,22019,0001,2022_Dec_11_1126,localizer,2021.1.3,60.84671852685433,
block,scenes,scenes068.bmp,,,,,0,70,70,70,,,,,,,,,,,,,,,,,,,,,,,,,,,,,,,,,,,,,,,,,,None,,217.10148543019312,None,217.10148543019312,None,2022-12-11-11:30:19.759272,217.1127800999675,217.41767320013605,217.1127800999675,None,None,217.1127800999675,None,217.9199941301951,None,,,,22019,0001,2022_Dec_11_1126,localizer,2021.1.3,60.84671852685433,
block,scenes,scenes061.bmp,,,,,0,71,71,71,,,,,,,,,,,,,,,,,,,,,,,,,,,,,,,,,,,,,,,,,,None,,217.9199941301951,None,217.9199941301951,None,2022-12-11-11:30:20.581537,217.94018990010954,218.25165059999563,217.94018990010954,None,None,217.94018990010954,None,218.7346014300594,None,,,,22019,0001,2022_Dec_11_1126,localizer,2021.1.3,60.84671852685433,
block,scenes,scenes059.bmp,,,,,0,72,72,72,,,,,,,,,,,,,,,,,,,,,,,,,,,,,,,,,,,,,,,,,,None,,218.7346014300594,None,218.7346014300594,None,2022-12-11-11:30:21.392192,218.74539310019463,219.05144200008363,218.74539310019463,None,None,218.74539310019463,None,219.55158383019733,None,,,,22019,0001,2022_Dec_11_1126,localizer,2021.1.3,60.84671852685433,
block,scenes,scenes084.bmp,,,,,0,73,73,73,,,,,,,,,,,,,,,,,,,,,,,,,,,,,,,,,,,,,,,,,,None,,219.55158383019733,None,219.55158383019733,None,2022-12-11-11:30:22.209158,219.5624502999708,219.8683470999822,219.5624502999708,None,None,219.5624502999708,None,220.3684170301305,None,,,,22019,0001,2022_Dec_11_1126,localizer,2021.1.3,60.84671852685433,
block,scenes,scenes003.bmp,,,,,0,74,74,74,,,,,,,,,,,,,,,,,,,,,,,,,,,,,,,,,,,,,,,,,,None,,220.3684170301305,None,220.3684170301305,None,2022-12-11-11:30:23.027000,220.38118520006537,220.6853261999786,220.38118520006537,None,None,220.38118520006537,None,221.18462503019254,None,,,,22019,0001,2022_Dec_11_1126,localizer,2021.1.3,60.84671852685433,
block,scenes,scenes009.bmp,,,,,0,75,75,75,,,,,,,,,,,,,,,,,,,,,,,,,,,,,,,,,,,,,,,,,,None,,221.18462503019254,None,221.18462503019254,None,2022-12-11-11:30:23.842223,221.19508139998652,221.50127360015176,221.19508139998652,None,None,221.19508139998652,None,222.00149153003002,None,,,,22019,0001,2022_Dec_11_1126,localizer,2021.1.3,60.84671852685433,
block_end,scenes,scenes066.bmp,,,,,0,76,76,76,,,,,,,,,,,,,,,,,,,,,,,,,,,,,,,,,,,,,,,,,,None,,222.00149153003002,None,222.00149153003002,None,2022-12-11-11:30:24.659109,222.00222240015864,222.30132970004342,222.00222240015864,None,None,222.00222240015864,None,222.80135483008343,None,,,,22019,0001,2022_Dec_11_1126,localizer,2021.1.3,60.84671852685433,
block_start,objects,objects088.bmp,,,,,0,77,77,77,,,,,,,,,,,,,,,,,,,,,,,,,,,,,,,,,,,,,,,,,,t,1.7378169998992234,222.8012064001523,None,222.8012064001523,None,2022-12-11-11:30:27.223967,224.5774946999736,224.88498309999704,224.5774946999736,None,None,224.5774946999736,None,225.38510053015779,None,,,,22019,0001,2022_Dec_11_1126,localizer,2021.1.3,60.84671852685433,
block,objects,objects080.bmp,,,,,0,78,78,78,,,,,,,,,,,,,,,,,,,,,,,,,,,,,,,,,,,,,,,,,,None,,225.38510053015779,None,225.38510053015779,None,2022-12-11-11:30:28.043686,225.39692590013146,225.70125460019335,225.39692590013146,None,None,225.39692590013146,None,226.2016798301367,None,,,,22019,0001,2022_Dec_11_1126,localizer,2021.1.3,60.84671852685433,
block,objects,objects018.bmp,,,,,0,79,79,79,,,,,,,,,,,,,,,,,,,,,,,,,,,,,,,,,,,,,,,,,,None,,226.2016798301367,None,226.2016798301367,None,2022-12-11-11:30:28.859274,226.2090426001232,226.51826849998906,226.2090426001232,None,None,226.2090426001232,None,227.0182244299678,None,,,,22019,0001,2022_Dec_11_1126,localizer,2021.1.3,60.84671852685433,
block,objects,objects020.bmp,,,,,0,80,80,80,,,,,,,,,,,,,,,,,,,,,,,,,,,,,,,,,,,,,,,,,,None,,227.0182244299678,None,227.0182244299678,None,2022-12-11-11:30:29.676025,227.0289537999779,227.33452700008638,227.0289537999779,None,None,227.0289537999779,None,227.83663053011986,None,,,,22019,0001,2022_Dec_11_1126,localizer,2021.1.3,60.84671852685433,
block,objects,objects035.bmp,,,,,0,81,81,81,,,,,,,,,,,,,,,,,,,,,,,,,,,,,,,,,,,,,,,,,,None,,227.83663053011986,None,227.83663053011986,None,2022-12-11-11:30:30.497336,227.8516524999868,228.1510740001686,227.8516524999868,None,None,227.8516524999868,None,228.65143033016938,None,,,,22019,0001,2022_Dec_11_1126,localizer,2021.1.3,60.84671852685433,
block,objects,objects071.bmp,,,,,0,82,82,82,,,,,,,,,,,,,,,,,,,,,,,,,,,,,,,,,,,,,,,,,,None,,228.65143033016938,None,228.65143033016938,None,2022-12-11-11:30:31.309038,228.66250950004905,228.96794460015371,228.66250950004905,None,None,228.66250950004905,None,229.46814973016734,None,,,,22019,0001,2022_Dec_11_1126,localizer,2021.1.3,60.84671852685433,
block,objects,objects052.bmp,,,,,0,83,83,83,,,,,,,,,,,,,,,,,,,,,,,,,,,,,,,,,,,,,,,,,,None,,229.46814973016734,None,229.46814973016734,None,2022-12-11-11:30:32.125744,229.47903190017678,229.78447110019624,229.47903190017678,None,None,229.47903190017678,None,230.28452402998226,None,,,,22019,0001,2022_Dec_11_1126,localizer,2021.1.3,60.84671852685433,
block,objects,objects013.bmp,,,,,0,84,84,84,,,,,,,,,,,,,,,,,,,,,,,,,,,,,,,,,,,,,,,,,,None,,230.28452402998226,None,230.28452402998226,None,2022-12-11-11:30:32.942163,230.2890316999983,230.6012213001959,230.2890316999983,None,None,230.2890316999983,None,231.10196072997059,None,,,,22019,0001,2022_Dec_11_1126,localizer,2021.1.3,60.84671852685433,
block,objects,objects073.bmp,,,,,0,85,85,85,,,,,,,,,,,,,,,,,,,,,,,,,,,,,,,,,,,,,,,,,,None,,231.10196072997059,None,231.10196072997059,None,2022-12-11-11:30:33.760562,231.11331630009227,231.41789420018904,231.11331630009227,None,None,231.11331630009227,None,231.9200937300222,None,,,,22019,0001,2022_Dec_11_1126,localizer,2021.1.3,60.84671852685433,
block,objects,objects019.bmp,,,,,0,86,86,86,,,,,,,,,,,,,,,,,,,,,,,,,,,,,,,,,,,,,,,,,,None,,231.9200937300222,None,231.9200937300222,None,2022-12-11-11:30:34.580851,231.92443520016968,232.23534270003438,231.92443520016968,None,None,231.92443520016968,None,232.73484653017948,None,,,,22019,0001,2022_Dec_11_1126,localizer,2021.1.3,60.84671852685433,
block,objects,objects032.bmp,,,,,0,87,87,87,,,,,,,,,,,,,,,,,,,,,,,,,,,,,,,,,,,,,,,,,,None,,232.73484653017948,None,232.73484653017948,None,2022-12-11-11:30:35.391526,232.74315039999783,233.0512353000231,232.74315039999783,None,None,232.74315039999783,None,233.55153773019555,None,,,,22019,0001,2022_Dec_11_1126,localizer,2021.1.3,60.84671852685433,
block,objects,objects001.bmp,,,,,0,88,88,88,,,,,,,,,,,,,,,,,,,,,,,,,,,,,,,,,,,,,,,,,,None,,233.55153773019555,None,233.55153773019555,None,2022-12-11-11:30:36.209351,233.5623467999976,233.87446560012177,233.5623467999976,None,None,233.5623467999976,None,234.36785293014253,None,,,,22019,0001,2022_Dec_11_1126,localizer,2021.1.3,60.84671852685433,
block,objects,objects041.bmp,,,,,0,89,89,89,,,,,,,,,,,,,,,,,,,,,,,,,,,,,,,,,,,,,,,,,,None,,234.36785293014253,None,234.36785293014253,None,2022-12-11-11:30:37.025448,234.3768788999878,234.68451800011098,234.3768788999878,None,None,234.3768788999878,None,235.18488983011338,None,,,,22019,0001,2022_Dec_11_1126,localizer,2021.1.3,60.84671852685433,
block,objects,objects014.bmp,,,,,0,90,90,90,,,,,,,,,,,,,,,,,,,,,,,,,,,,,,,,,,,,,,,,,,None,,235.18488983011338,None,235.18488983011338,None,2022-12-11-11:30:37.841979,235.18565230001695,235.48472340009175,235.18565230001695,None,None,235.18565230001695,None,235.98522063011768,None,,,,22019,0001,2022_Dec_11_1126,localizer,2021.1.3,60.84671852685433,
block_end,objects,objects031.bmp,,,,,0,91,91,91,,,,,,,,,,,,,,,,,,,,,,,,,,,,,,,,,,,,,,,,,,None,,235.98522063011768,None,235.98522063011768,None,2022-12-11-11:30:38.645988,235.99922350002453,236.30137230013497,235.99922350002453,235.99922350002453,None,235.99922350002453,235.99922350002453,236.80154613002668,None,,,,22019,0001,2022_Dec_11_1126,localizer,2021.1.3,60.84671852685433,
block_start,faces,faces023.bmp,,,,,0,92,92,92,,,,,,,,,,,,,,,,,,,,,,,,,,,,,,,,,,,,,,,,,,t,1.7377218999899924,236.80141970003024,None,236.80141970003024,None,2022-12-11-11:30:41.224029,238.57821180019528,238.88492680015042,238.57821180019528,None,None,238.57821180019528,None,239.3851074300939,None,,,,22019,0001,2022_Dec_11_1126,localizer,2021.1.3,60.84671852685433,
block,faces,faces053.bmp,,,,,0,93,93,93,,,,,,,,,,,,,,,,,,,,,,,,,,,,,,,,,,,,,,,,,,None,,239.3851074300939,None,239.3851074300939,None,2022-12-11-11:30:42.042852,239.38586589996703,239.685082500102,239.38586589996703,None,None,239.38586589996703,None,240.18486973007674,None,,,,22019,0001,2022_Dec_11_1126,localizer,2021.1.3,60.84671852685433,
block,faces,faces043.bmp,,,,,0,94,94,94,,,,,,,,,,,,,,,,,,,,,,,,,,,,,,,,,,,,,,,,,,None,,240.18486973007674,None,240.18486973007674,None,2022-12-11-11:30:42.844671,240.19771210011095,240.50138749997132,240.19771210011095,240.19771210011095,None,240.19771210011095,240.19771210011095,241.00193423002491,None,,,,22019,0001,2022_Dec_11_1126,localizer,2021.1.3,60.84671852685433,
block,faces,faces068.bmp,,,,,0,95,95,95,,,,,,,,,,,,,,,,,,,,,,,,,,,,,,,,,,,,,,,,,,None,,241.00193423002491,None,241.00193423002491,None,2022-12-11-11:30:43.660710,241.00268410006538,241.31835850002244,241.00268410006538,None,None,241.00268410006538,None,241.81795403005088,None,,,,22019,0001,2022_Dec_11_1126,localizer,2021.1.3,60.84671852685433,
block,faces,faces066.bmp,,,,,0,96,96,96,,,,,,,,,,,,,,,,,,,,,,,,,,,,,,,,,,,,,,,,,,None,,241.81795403005088,None,241.81795403005088,None,2022-12-11-11:30:44.475802,241.8188373001758,242.1183267000597,241.8188373001758,None,None,241.8188373001758,None,242.61861743002663,None,,,,22019,0001,2022_Dec_11_1126,localizer,2021.1.3,60.84671852685433,
block,faces,faces082.bmp,,,,,0,97,97,97,,,,,,,,,,,,,,,,,,,,,,,,,,,,,,,,,,,,,,,,,,None,,242.61861743002663,None,242.61861743002663,None,2022-12-11-11:30:45.279402,242.63321090000682,242.93469590018503,242.63321090000682,242.63321090000682,None,242.63321090000682,242.63321090000682,243.43505393008235,None,,,,22019,0001,2022_Dec_11_1126,localizer,2021.1.3,60.84671852685433,
block,faces,faces054.bmp,,,,,0,98,98,98,,,,,,,,,,,,,,,,,,,,,,,,,,,,,,,,,,,,,,,,,,None,,243.43505393008235,None,243.43505393008235,None,2022-12-11-11:30:46.092647,243.44213060010225,243.7511687001679,243.44213060010225,None,None,243.44213060010225,None,244.25179813003632,None,,,,22019,0001,2022_Dec_11_1126,localizer,2021.1.3,60.84671852685433,
block,faces,faces009.bmp,,,,,0,99,99,99,,,,,,,,,,,,,,,,,,,,,,,,,,,,,,,,,,,,,,,,,,None,,244.25179813003632,None,244.25179813003632,None,2022-12-11-11:30:46.909391,244.2626065001823,244.5681431000121,244.2626065001823,None,None,244.2626065001823,None,245.0685540301958,None,,,,22019,0001,2022_Dec_11_1126,localizer,2021.1.3,60.84671852685433,
block,faces,faces010.bmp,,,,,0,100,100,100,,,,,,,,,,,,,,,,,,,,,,,,,,,,,,,,,,,,,,,,,,None,,245.0685540301958,None,245.0685540301958,None,2022-12-11-11:30:47.727330,245.07668319996446,245.38519790000282,245.07668319996446,None,None,245.07668319996446,None,245.8849884301191,None,,,,22019,0001,2022_Dec_11_1126,localizer,2021.1.3,60.84671852685433,
block,faces,faces076.bmp,,,,,0,101,101,101,,,,,,,,,,,,,,,,,,,,,,,,,,,,,,,,,,,,,,,,,,None,,245.8849884301191,None,245.8849884301191,None,2022-12-11-11:30:48.543310,245.895826500142,246.201405600179,245.895826500142,None,None,245.895826500142,None,246.7015331300674,None,,,,22019,0001,2022_Dec_11_1126,localizer,2021.1.3,60.84671852685433,
block,faces,faces047.bmp,,,,,0,102,102,102,,,,,,,,,,,,,,,,,,,,,,,,,,,,,,,,,,,,,,,,,,None,,246.7015331300674,None,246.7015331300674,None,2022-12-11-11:30:49.359352,246.71752490010113,247.0183457999956,246.71752490010113,None,None,246.71752490010113,None,247.51851183006073,None,,,,22019,0001,2022_Dec_11_1126,localizer,2021.1.3,60.84671852685433,
block,faces,faces047.bmp,,,,,0,103,103,103,,,,,,,,,,,,,,,,,,,,,,,,,,,,,,,,,,,,,,,,,,None,,247.51851183006073,None,247.51851183006073,None,2022-12-11-11:30:50.176226,247.51947250007652,247.8350708000362,247.51947250007652,None,None,247.51947250007652,None,248.33513943005818,None,,,,22019,0001,2022_Dec_11_1126,localizer,2021.1.3,60.84671852685433,
block,faces,faces065.bmp,,,,,0,104,104,104,,,,,,,,,,,,,,,,,,,,,,,,,,,,,,,,,,,,,,,,,,None,,248.33513943005818,None,248.33513943005818,None,2022-12-11-11:30:50.992730,248.3529871001374,248.66765710012987,248.3529871001374,None,None,248.3529871001374,None,249.15263713004532,None,,,,22019,0001,2022_Dec_11_1126,localizer,2021.1.3,60.84671852685433,
block,faces,faces067.bmp,,,,,0,105,105,105,,,,,,,,,,,,,,,,,,,,,,,,,,,,,,,,,,,,,,,,,,None,,249.15263713004532,None,249.15263713004532,None,2022-12-11-11:30:51.811682,249.1669274000451,249.4679151000455,249.1669274000451,None,None,249.1669274000451,None,249.96812103006522,None,,,,22019,0001,2022_Dec_11_1126,localizer,2021.1.3,60.84671852685433,
block_end,faces,faces027.bmp,,,,,0,106,106,106,,,,,,,,,,,,,,,,,,,,,,,,,,,,,,,,,,,,,,,,,,None,,249.96812103006522,None,249.96812103006522,None,2022-12-11-11:30:52.625719,249.9788669999689,250.2847666000016,249.9788669999689,None,None,249.9788669999689,None,250.78507853012997,None,,,,22019,0001,2022_Dec_11_1126,localizer,2021.1.3,60.84671852685433,
block_start,scrambled,scrambled060.bmp,,,,,0,107,107,107,,,,,,,,,,,,,,,,,,,,,,,,,,,,,,,,,,,,,,,,,,t,1.754321499960497,250.78499960014597,None,250.78499960014597,None,2022-12-11-11:30:55.225080,252.5787103001494,252.8848602999933,252.5787103001494,None,None,252.5787103001494,None,253.38617073015774,None,,,,22019,0001,2022_Dec_11_1126,localizer,2021.1.3,60.84671852685433,
block,scrambled,scrambled059.bmp,,,,,0,108,108,108,,,,,,,,,,,,,,,,,,,,,,,,,,,,,,,,,,,,,,,,,,None,,253.38617073015774,None,253.38617073015774,None,2022-12-11-11:30:56.047721,253.3986514999997,253.70175050012767,253.3986514999997,None,None,253.3986514999997,None,254.20166263000573,None,,,,22019,0001,2022_Dec_11_1126,localizer,2021.1.3,60.84671852685433,
block,scrambled,scrambled064.bmp,,,,,0,109,109,109,,,,,,,,,,,,,,,,,,,,,,,,,,,,,,,,,,,,,,,,,,None,,254.20166263000573,None,254.20166263000573,None,2022-12-11-11:30:56.859257,254.21252940013073,254.5181446999777,254.21252940013073,None,None,254.21252940013073,None,255.0184656301746,None,,,,22019,0001,2022_Dec_11_1126,localizer,2021.1.3,60.84671852685433,
block,scrambled,scrambled005.bmp,,,,,0,110,110,110,,,,,,,,,,,,,,,,,,,,,,,,,,,,,,,,,,,,,,,,,,None,,255.0184656301746,None,255.0184656301746,None,2022-12-11-11:30:57.676265,255.0299354000017,255.33479290013202,255.0299354000017,None,None,255.0299354000017,None,255.8347618299769,None,,,,22019,0001,2022_Dec_11_1126,localizer,2021.1.3,60.84671852685433,
block,scrambled,scrambled023.bmp,,,,,0,111,111,111,,,,,,,,,,,,,,,,,,,,,,,,,,,,,,,,,,,,,,,,,,None,,255.8347618299769,None,255.8347618299769,None,2022-12-11-11:30:58.492361,255.8448535001371,256.1514908000827,255.8448535001371,None,None,255.8448535001371,None,256.64100633019115,None,,,,22019,0001,2022_Dec_11_1126,localizer,2021.1.3,60.84671852685433,
block,scrambled,scrambled016.bmp,,,,,0,112,112,112,,,,,,,,,,,,,,,,,,,,,,,,,,,,,,,,,,,,,,,,,,None,,256.64100633019115,None,256.64100633019115,None,2022-12-11-11:30:59.306278,256.65134930005297,256.9511988000013,256.65134930005297,None,None,256.65134930005297,None,257.45149052997584,None,,,,22019,0001,2022_Dec_11_1126,localizer,2021.1.3,60.84671852685433,
block,scrambled,scrambled002.bmp,,,,,0,113,113,113,,,,,,,,,,,,,,,,,,,,,,,,,,,,,,,,,,,,,,,,,,None,,257.45149052997584,None,257.45149052997584,None,2022-12-11-11:31:00.109089,257.45850770012476,257.7710319000762,257.45850770012476,None,None,257.45850770012476,None,258.2694353299914,None,,,,22019,0001,2022_Dec_11_1126,localizer,2021.1.3,60.84671852685433,
block,scrambled,scrambled010.bmp,,,,,0,114,114,114,,,,,,,,,,,,,,,,,,,,,,,,,,,,,,,,,,,,,,,,,,None,,258.2694353299914,None,258.2694353299914,None,2022-12-11-11:31:00.928197,258.28263330017217,258.5852055000141,258.28263330017217,None,None,258.28263330017217,None,259.0853655300336,None,,,,22019,0001,2022_Dec_11_1126,localizer,2021.1.3,60.84671852685433,
block,scrambled,scrambled028.bmp,,,,,0,115,115,115,,,,,,,,,,,,,,,,,,,,,,,,,,,,,,,,,,,,,,,,,,None,,259.0853655300336,None,259.0853655300336,None,2022-12-11-11:31:01.743949,259.0961285000667,259.40172870014794,259.0961285000667,None,None,259.0961285000667,None,259.9027672299882,None,,,,22019,0001,2022_Dec_11_1126,localizer,2021.1.3,60.84671852685433,
block,scrambled,scrambled050.bmp,,,,,0,116,116,116,,,,,,,,,,,,,,,,,,,,,,,,,,,,,,,,,,,,,,,,,,None,,259.9027672299882,None,259.9027672299882,None,2022-12-11-11:31:02.561529,259.9162203001324,260.2184828000609,259.9162203001324,None,None,259.9162203001324,None,260.7185601300327,None,,,,22019,0001,2022_Dec_11_1126,localizer,2021.1.3,60.84671852685433,
block,scrambled,scrambled080.bmp,,,,,0,117,117,117,,,,,,,,,,,,,,,,,,,,,,,,,,,,,,,,,,,,,,,,,,None,,260.7185601300327,None,260.7185601300327,None,2022-12-11-11:31:03.376329,260.72929330007173,261.0351762000937,260.72929330007173,None,None,260.72929330007173,None,261.53522882999386,None,,,,22019,0001,2022_Dec_11_1126,localizer,2021.1.3,60.84671852685433,
block,scrambled,scrambled004.bmp,,,,,0,118,118,118,,,,,,,,,,,,,,,,,,,,,,,,,,,,,,,,,,,,,,,,,,None,,261.53522882999386,None,261.53522882999386,None,2022-12-11-11:31:04.193012,261.53587150014937,261.8515115000773,261.53587150014937,None,None,261.53587150014937,None,262.3352450301638,None,,,,22019,0001,2022_Dec_11_1126,localizer,2021.1.3,60.84671852685433,
block,scrambled,scrambled074.bmp,,,,,0,119,119,119,,,,,,,,,,,,,,,,,,,,,,,,,,,,,,,,,,,,,,,,,,None,,262.3352450301638,None,262.3352450301638,None,2022-12-11-11:31:04.995039,262.34965740004554,262.6515019000508,262.34965740004554,262.34965740004554,None,262.34965740004554,262.34965740004554,263.1517071301816,None,,,,22019,0001,2022_Dec_11_1126,localizer,2021.1.3,60.84671852685433,
block,scrambled,scrambled057.bmp,,,,,0,120,120,120,,,,,,,,,,,,,,,,,,,,,,,,,,,,,,,,,,,,,,,,,,None,,263.1517071301816,None,263.1517071301816,None,2022-12-11-11:31:05.809420,263.16285259998403,263.4682990000583,263.16285259998403,None,None,263.16285259998403,None,263.9719665301265,None,,,,22019,0001,2022_Dec_11_1126,localizer,2021.1.3,60.84671852685433,
block_end,scrambled,scrambled026.bmp,,,,,0,121,121,121,,,,,,,,,,,,,,,,,,,,,,,,,,,,,,,,,,,,,,,,,,None,,263.9719665301265,None,263.9719665301265,None,2022-12-11-11:31:06.637440,263.9927662999835,264.30149500002153,263.9927662999835,None,None,263.9927662999835,None,264.7860414301278,None,,,,22019,0001,2022_Dec_11_1126,localizer,2021.1.3,60.84671852685433,
block_start,objects,objects030.bmp,,,,,0,122,122,122,,,,,,,,,,,,,,,,,,,,,,,,,,,,,,,,,,,,,,,,,,t,1.7531423000618815,264.7860000000801,None,264.7860000000801,None,2022-12-11-11:31:09.225758,266.5793845001608,266.88542630011216,266.5793845001608,None,None,266.5793845001608,None,267.3856174300192,None,,,,22019,0001,2022_Dec_11_1126,localizer,2021.1.3,60.84671852685433,
block,objects,objects056.bmp,,,,,0,123,123,123,,,,,,,,,,,,,,,,,,,,,,,,,,,,,,,,,,,,,,,,,,None,,267.3856174300192,None,267.3856174300192,None,2022-12-11-11:31:10.044380,267.3943541001063,267.7014182000421,267.3943541001063,None,None,267.3943541001063,None,268.2018997300649,None,,,,22019,0001,2022_Dec_11_1126,localizer,2021.1.3,60.84671852685433,
block,objects,objects078.bmp,,,,,0,124,124,124,,,,,,,,,,,,,,,,,,,,,,,,,,,,,,,,,,,,,,,,,,None,,268.2018997300649,None,268.2018997300649,None,2022-12-11-11:31:10.859674,268.212639400037,268.5181706000585,268.212639400037,None,None,268.212639400037,None,269.01906723009887,None,,,,22019,0001,2022_Dec_11_1126,localizer,2021.1.3,60.84671852685433,
block,objects,objects028.bmp,,,,,0,125,125,125,,,,,,,,,,,,,,,,,,,,,,,,,,,,,,,,,,,,,,,,,,None,,269.01906723009887,None,269.01906723009887,None,2022-12-11-11:31:11.677858,269.03111900016665,269.33474489999935,269.03111900016665,None,None,269.03111900016665,None,269.8361709301127,None,,,,22019,0001,2022_Dec_11_1126,localizer,2021.1.3,60.84671852685433,
block,objects,objects046.bmp,,,,,0,126,126,126,,,,,,,,,,,,,,,,,,,,,,,,,,,,,,,,,,,,,,,,,,None,,269.8361709301127,None,269.8361709301127,None,2022-12-11-11:31:12.495719,269.8500674001407,270.1516530001536,269.8500674001407,None,None,269.8500674001407,None,270.6519656301709,None,,,,22019,0001,2022_Dec_11_1126,localizer,2021.1.3,60.84671852685433,
block,objects,objects061.bmp,,,,,0,127,127,127,,,,,,,,,,,,,,,,,,,,,,,,,,,,,,,,,,,,,,,,,,None,,270.6519656301709,None,270.6519656301709,None,2022-12-11-11:31:13.310749,270.6649210001342,270.9687300999649,270.6649210001342,None,None,270.6649210001342,None,271.46878793013747,None,,,,22019,0001,2022_Dec_11_1126,localizer,2021.1.3,60.84671852685433,
block,objects,objects005.bmp,,,,,0,128,128,128,,,,,,,,,,,,,,,,,,,,,,,,,,,,,,,,,,,,,,,,,,None,,271.46878793013747,None,271.46878793013747,None,2022-12-11-11:31:14.127374,271.4693322000094,271.7847502999939,271.4693322000094,None,None,271.4693322000094,None,272.2686881301226,None,,,,22019,0001,2022_Dec_11_1126,localizer,2021.1.3,60.84671852685433,
block,objects,objects008.bmp,,,,,0,129,129,129,,,,,,,,,,,,,,,,,,,,,,,,,,,,,,,,,,,,,,,,,,None,,272.2686881301226,None,272.2686881301226,None,2022-12-11-11:31:14.928485,272.2831327000167,272.5848548000213,272.2831327000167,272.2831327000167,None,272.2831327000167,272.2831327000167,273.08534362998324,None,,,,22019,0001,2022_Dec_11_1126,localizer,2021.1.3,60.84671852685433,
block,objects,objects022.bmp,,,,,0,130,130,130,,,,,,,,,,,,,,,,,,,,,,,,,,,,,,,,,,,,,,,,,,None,,273.08534362998324,None,273.08534362998324,None,2022-12-11-11:31:15.742935,273.0968438000418,273.4017509999685,273.0968438000418,None,None,273.0968438000418,None,273.902745030052,None,,,,22019,0001,2022_Dec_11_1126,localizer,2021.1.3,60.84671852685433,
block,objects,objects062.bmp,,,,,0,131,131,131,,,,,,,,,,,,,,,,,,,,,,,,,,,,,,,,,,,,,,,,,,None,,273.902745030052,None,273.902745030052,None,2022-12-11-11:31:16.562494,273.9051650001202,274.21881380002014,273.9051650001202,None,None,273.9051650001202,None,274.7189588301582,None,,,,22019,0001,2022_Dec_11_1126,localizer,2021.1.3,60.84671852685433,
block,objects,objects060.bmp,,,,,0,132,132,132,,,,,,,,,,,,,,,,,,,,,,,,,,,,,,,,,,,,,,,,,,None,,274.7189588301582,None,274.7189588301582,None,2022-12-11-11:31:17.377732,274.7305219001137,275.03501300001517,274.7305219001137,None,None,274.7305219001137,None,275.53603013015817,None,,,,22019,0001,2022_Dec_11_1126,localizer,2021.1.3,60.84671852685433,
block,objects,objects045.bmp,,,,,0,133,133,133,,,,,,,,,,,,,,,,,,,,,,,,,,,,,,,,,,,,,,,,,,None,,275.53603013015817,None,275.53603013015817,None,2022-12-11-11:31:18.194792,275.5489182001911,275.85216160002165,275.5489182001911,None,None,275.5489182001911,None,276.352146030101,None,,,,22019,0001,2022_Dec_11_1126,localizer,2021.1.3,60.84671852685433,
block,objects,objects010.bmp,,,,,0,134,134,134,,,,,,,,,,,,,,,,,,,,,,,,,,,,,,,,,,,,,,,,,,None,,276.352146030101,None,276.352146030101,None,2022-12-11-11:31:19.010731,276.36382340011187,276.66826459998265,276.36382340011187,None,None,276.36382340011187,None,277.1689241301967,None,,,,22019,0001,2022_Dec_11_1126,localizer,2021.1.3,60.84671852685433,
block,objects,objects035.bmp,,,,,0,135,135,135,,,,,,,,,,,,,,,,,,,,,,,,,,,,,,,,,,,,,,,,,,None,,277.1689241301967,None,277.1689241301967,None,2022-12-11-11:31:19.827706,277.16943930019625,277.4689588001929,277.16943930019625,None,None,277.16943930019625,None,277.985252430127,None,,,,22019,0001,2022_Dec_11_1126,localizer,2021.1.3,60.84671852685433,
block_end,objects,objects040.bmp,,,,,0,136,136,136,,,,,,,,,,,,,,,,,,,,,,,,,,,,,,,,,,,,,,,,,,None,,277.985252430127,None,277.985252430127,None,2022-12-11-11:31:20.642847,277.9858951000497,278.28528319997713,277.9858951000497,None,None,277.9858951000497,None,278.80145693004596,None,,,,22019,0001,2022_Dec_11_1126,localizer,2021.1.3,60.84671852685433,
null_block,null_block,null_block.bmp,,,,,0,137,137,137,,,,,,,,,,,,,,,,,,,,,,,,,,,,,,,,,,,,,,,,,,t,1.7378309001214802,278.80140730016865,None,278.80140730016865,None,2022-12-11-11:31:23.227246,280.5686293301871,None,280.5686293301871,None,None,280.5686293301871,None,280.5731451001484,None,,,,22019,0001,2022_Dec_11_1126,localizer,2021.1.3,60.84671852685433,
block_start,scenes,scenes036.bmp,,,,,0,138,138,138,,,,,,,,,,,,,,,,,,,,,,,,,,,,,,,,,,,,,,,,,,t,1.9538635998032987,292.58525560004637,None,292.58525560004637,None,2022-12-11-11:31:37.228732,294.58208860014565,294.88527780002914,294.58208860014565,None,None,294.58208860014565,None,295.38521213007624,None,,,,22019,0001,2022_Dec_11_1126,localizer,2021.1.3,60.84671852685433,
block,scenes,scenes051.bmp,,,,,0,139,139,139,,,,,,,,,,,,,,,,,,,,,,,,,,,,,,,,,,,,,,,,,,None,,295.38521213007624,None,295.38521213007624,None,2022-12-11-11:31:38.042804,295.39239490008913,295.7019538001623,295.39239490008913,None,None,295.39239490008913,None,296.20233062996994,None,,,,22019,0001,2022_Dec_11_1126,localizer,2021.1.3,60.84671852685433,
block,scenes,scenes038.bmp,,,,,0,140,140,140,,,,,,,,,,,,,,,,,,,,,,,,,,,,,,,,,,,,,,,,,,None,,296.20233062996994,None,296.20233062996994,None,2022-12-11-11:31:38.861109,296.2030379001517,296.5186515999958,296.2030379001517,None,None,296.2030379001517,None,297.0023319301428,None,,,,22019,0001,2022_Dec_11_1126,localizer,2021.1.3,60.84671852685433,
block,scenes,scenes007.bmp,,,,,0,141,141,141,,,,,,,,,,,,,,,,,,,,,,,,,,,,,,,,,,,,,,,,,,None,,297.0023319301428,None,297.0023319301428,None,2022-12-11-11:31:39.662111,297.02059500012547,297.33539200015366,297.02059500012547,297.02059500012547,None,297.02059500012547,297.02059500012547,297.8173478300916,None,,,,22019,0001,2022_Dec_11_1126,localizer,2021.1.3,60.84671852685433,
block,scenes,scenes073.bmp,,,,,0,142,142,142,,,,,,,,,,,,,,,,,,,,,,,,,,,,,,,,,,,,,,,,,,None,,297.8173478300916,None,297.8173478300916,None,2022-12-11-11:31:40.474086,297.8285869001411,298.13523000013083,297.8285869001411,None,None,297.8285869001411,None,298.63600333004723,None,,,,22019,0001,2022_Dec_11_1126,localizer,2021.1.3,60.84671852685433,
block,scenes,scenes069.bmp,,,,,0,143,143,143,,,,,,,,,,,,,,,,,,,,,,,,,,,,,,,,,,,,,,,,,,None,,298.63600333004723,None,298.63600333004723,None,2022-12-11-11:31:41.294586,298.6486119001638,298.95163490017876,298.6486119001638,None,None,298.6486119001638,None,299.4520515300566,None,,,,22019,0001,2022_Dec_11_1126,localizer,2021.1.3,60.84671852685433,
block,scenes,scenes003.bmp,,,,,0,144,144,144,,,,,,,,,,,,,,,,,,,,,,,,,,,,,,,,,,,,,,,,,,None,,299.4520515300566,None,299.4520515300566,None,2022-12-11-11:31:42.109646,299.4526661001146,299.7682638000697,299.4526661001146,None,None,299.4526661001146,None,300.2520833301125,None,,,,22019,0001,2022_Dec_11_1126,localizer,2021.1.3,60.84671852685433,
block,scenes,scenes066.bmp,,,,,0,145,145,145,,,,,,,,,,,,,,,,,,,,,,,,,,,,,,,,,,,,,,,,,,None,,300.2520833301125,None,300.2520833301125,None,2022-12-11-11:31:42.911667,300.25327930017374,300.56863540015183,300.25327930017374,300.25327930017374,None,300.25327930017374,300.25327930017374,301.06875183007213,None,,,,22019,0001,2022_Dec_11_1126,localizer,2021.1.3,60.84671852685433,
block,scenes,scenes076.bmp,,,,,0,146,146,146,,,,,,,,,,,,,,,,,,,,,,,,,,,,,,,,,,,,,,,,,,None,,301.06875183007213,None,301.06875183007213,None,2022-12-11-11:31:43.726344,301.0692965001799,301.3683546001557,301.0692965001799,None,None,301.0692965001799,None,301.86966832999605,None,,,,22019,0001,2022_Dec_11_1126,localizer,2021.1.3,60.84671852685433,
block,scenes,scenes023.bmp,,,,,0,147,147,147,,,,,,,,,,,,,,,,,,,,,,,,,,,,,,,,,,,,,,,,,,None,,301.86966832999605,None,301.86966832999605,None,2022-12-11-11:31:44.531150,301.8865750001278,302.2017378001474,301.8865750001278,301.8865750001278,None,301.8865750001278,301.8865750001278,302.6853829300264,None,,,,22019,0001,2022_Dec_11_1126,localizer,2021.1.3,60.84671852685433,
block,scenes,scenes033.bmp,,,,,0,148,148,148,,,,,,,,,,,,,,,,,,,,,,,,,,,,,,,,,,,,,,,,,,None,,302.6853829300264,None,302.6853829300264,None,2022-12-11-11:31:45.343136,302.69253810006194,303.0018796999939,302.69253810006194,None,None,302.69253810006194,None,303.50207803018856,None,,,,22019,0001,2022_Dec_11_1126,localizer,2021.1.3,60.84671852685433,
block,scenes,scenes092.bmp,,,,,0,149,149,149,,,,,,,,,,,,,,,,,,,,,,,,,,,,,,,,,,,,,,,,,,None,,303.50207803018856,None,303.50207803018856,None,2022-12-11-11:31:46.159673,303.5126319001429,303.8181702999864,303.5126319001429,None,None,303.5126319001429,None,304.31880593013483,None,,,,22019,0001,2022_Dec_11_1126,localizer,2021.1.3,60.84671852685433,
block,scenes,scenes030.bmp,,,,,0,150,150,150,,,,,,,,,,,,,,,,,,,,,,,,,,,,,,,,,,,,,,,,,,None,,304.31880593013483,None,304.31880593013483,None,2022-12-11-11:31:46.976978,304.3293711000588,304.635324700037,304.3293711000588,None,None,304.3293711000588,None,305.13552593013736,None,,,,22019,0001,2022_Dec_11_1126,localizer,2021.1.3,60.84671852685433,
block,scenes,scenes012.bmp,,,,,0,151,151,151,,,,,,,,,,,,,,,,,,,,,,,,,,,,,,,,,,,,,,,,,,None,,305.13552593013736,None,305.13552593013736,None,2022-12-11-11:31:47.793333,305.147149000084,305.4522528001107,305.147149000084,None,None,305.147149000084,None,305.9525240300456,None,,,,22019,0001,2022_Dec_11_1126,localizer,2021.1.3,60.84671852685433,
block_end,scenes,scenes060.bmp,,,,,0,152,152,152,,,,,,,,,,,,,,,,,,,,,,,,,,,,,,,,,,,,,,,,,,None,,305.9525240300456,None,305.9525240300456,None,2022-12-11-11:31:48.611106,305.96515800012276,306.26881420006976,305.96515800012276,None,None,305.96515800012276,None,306.76838863005395,None,,,,22019,0001,2022_Dec_11_1126,localizer,2021.1.3,60.84671852685433,
block_start,faces,faces052.bmp,,,,,0,153,153,153,,,,,,,,,,,,,,,,,,,,,,,,,,,,,,,,,,,,,,,,,,t,1.7697831001132727,306.76830610004254,None,306.76830610004254,None,2022-12-11-11:31:51.223924,308.57145470008254,308.8851912000682,308.57145470008254,None,None,308.57145470008254,None,309.3849227299681,None,,,,22019,0001,2022_Dec_11_1126,localizer,2021.1.3,60.84671852685433,
block,faces,faces066.bmp,,,,,0,154,154,154,,,,,,,,,,,,,,,,,,,,,,,,,,,,,,,,,,,,,,,,,,None,,309.3849227299681,None,309.3849227299681,None,2022-12-11-11:31:52.042524,309.3861931001302,309.70187470014207,309.3861931001302,None,None,309.3861931001302,None,310.18573593015316,None,,,,22019,0001,2022_Dec_11_1126,localizer,2021.1.3,60.84671852685433,
block,faces,faces083.bmp,,,,,0,155,155,155,,,,,,,,,,,,,,,,,,,,,,,,,,,,,,,,,,,,,,,,,,None,,310.18573593015316,None,310.18573593015316,None,2022-12-11-11:31:52.846435,310.20045950007625,310.5079695000313,310.20045950007625,310.20045950007625,None,310.20045950007625,310.20045950007625,311.00171373009215,None,,,,22019,0001,2022_Dec_11_1126,localizer,2021.1.3,60.84671852685433,
block,faces,faces054.bmp,,,,,0,156,156,156,,,,,,,,,,,,,,,,,,,,,,,,,,,,,,,,,,,,,,,,,,None,,311.00171373009215,None,311.00171373009215,None,2022-12-11-11:31:53.659312,311.00253619998693,311.3019239001442,311.00253619998693,None,None,311.00253619998693,None,311.8017080299789,None,,,,22019,0001,2022_Dec_11_1126,localizer,2021.1.3,60.84671852685433,
block,faces,faces040.bmp,,,,,0,157,157,157,,,,,,,,,,,,,,,,,,,,,,,,,,,,,,,,,,,,,,,,,,None,,311.8017080299789,None,311.8017080299789,None,2022-12-11-11:31:54.460304,311.8122941001784,312.11898060003296,311.8122941001784,311.8122941001784,None,311.8122941001784,311.8122941001784,312.6191399301635,None,,,,22019,0001,2022_Dec_11_1126,localizer,2021.1.3,60.84671852685433,
block,faces,faces075.bmp,,,,,0,158,158,158,,,,,,,,,,,,,,,,,,,,,,,,,,,,,,,,,,,,,,,,,,None,,312.6191399301635,None,312.6191399301635,None,2022-12-11-11:31:55.277720,312.6198984000366,312.93542100000195,312.6198984000366,None,None,312.6198984000366,None,313.43544503015,None,,,,22019,0001,2022_Dec_11_1126,localizer,2021.1.3,60.84671852685433,
block,faces,faces016.bmp,,,,,0,159,159,159,,,,,,,,,,,,,,,,,,,,,,,,,,,,,,,,,,,,,,,,,,None,,313.43544503015,None,313.43544503015,None,2022-12-11-11:31:56.093037,313.44706220016815,313.752199199982,313.44706220016815,None,None,313.44706220016815,None,314.25397373007144,None,,,,22019,0001,2022_Dec_11_1126,localizer,2021.1.3,60.84671852685433,
block,faces,faces005.bmp,,,,,0,160,160,160,,,,,,,,,,,,,,,,,,,,,,,,,,,,,,,,,,,,,,,,,,None,,314.25397373007144,None,314.25397373007144,None,2022-12-11-11:31:56.914300,314.26908150012605,314.56834400002845,314.26908150012605,None,None,314.26908150012605,None,315.0691328301793,None,,,,22019,0001,2022_Dec_11_1126,localizer,2021.1.3,60.84671852685433,
block,faces,faces041.bmp,,,,,0,161,161,161,,,,,,,,,,,,,,,,,,,,,,,,,,,,,,,,,,,,,,,,,,None,,315.0691328301793,None,315.0691328301793,None,2022-12-11-11:31:57.727917,315.08141980017535,315.3852994001936,315.08141980017535,None,None,315.08141980017535,None,315.8856606301153,None,,,,22019,0001,2022_Dec_11_1126,localizer,2021.1.3,60.84671852685433,
block,faces,faces014.bmp,,,,,0,162,162,162,,,,,,,,,,,,,,,,,,,,,,,,,,,,,,,,,,,,,,,,,,None,,315.8856606301153,None,315.8856606301153,None,2022-12-11-11:31:58.544276,315.88664930011146,316.18558480008505,315.88664930011146,None,None,315.88664930011146,None,316.7017123300349,None,,,,22019,0001,2022_Dec_11_1126,localizer,2021.1.3,60.84671852685433,
block,faces,faces025.bmp,,,,,0,163,163,163,,,,,,,,,,,,,,,,,,,,,,,,,,,,,,,,,,,,,,,,,,None,,316.7017123300349,None,316.7017123300349,None,2022-12-11-11:31:59.359547,316.7110335000325,317.0185706000775,316.7110335000325,None,None,316.7110335000325,None,317.51916893005836,None,,,,22019,0001,2022_Dec_11_1126,localizer,2021.1.3,60.84671852685433,
block,faces,faces029.bmp,,,,,0,164,164,164,,,,,,,,,,,,,,,,,,,,,,,,,,,,,,,,,,,,,,,,,,None,,317.51916893005836,None,317.51916893005836,None,2022-12-11-11:32:00.177951,317.52847410016693,317.835233699996,317.52847410016693,None,None,317.52847410016693,None,318.33549313007387,None,,,,22019,0001,2022_Dec_11_1126,localizer,2021.1.3,60.84671852685433,
block,faces,faces073.bmp,,,,,0,165,165,165,,,,,,,,,,,,,,,,,,,,,,,,,,,,,,,,,,,,,,,,,,None,,318.33549313007387,None,318.33549313007387,None,2022-12-11-11:32:00.993085,318.34622539998963,318.6519031000789,318.34622539998963,None,None,318.34622539998963,None,319.15299203007015,None,,,,22019,0001,2022_Dec_11_1126,localizer,2021.1.3,60.84671852685433,
block,faces,faces084.bmp,,,,,0,166,166,166,,,,,,,,,,,,,,,,,,,,,,,,,,,,,,,,,,,,,,,,,,None,,319.15299203007015,None,319.15299203007015,None,2022-12-11-11:32:01.812593,319.16757769999094,319.4685323999729,319.16757769999094,None,None,319.16757769999094,None,319.96867723010945,None,,,,22019,0001,2022_Dec_11_1126,localizer,2021.1.3,60.84671852685433,
block_end,faces,faces070.bmp,,,,,0,167,167,167,,,,,,,,,,,,,,,,,,,,,,,,,,,,,,,,,,,,,,,,,,None,,319.96867723010945,None,319.96867723010945,None,2022-12-11-11:32:02.626269,319.97957010008395,320.2852352000773,319.97957010008395,None,None,319.97957010008395,None,320.7854127301136,None,,,,22019,0001,2022_Dec_11_1126,localizer,2021.1.3,60.84671852685433,
block_start,scrambled,scrambled084.bmp,,,,,0,168,168,168,,,,,,,,,,,,,,,,,,,,,,,,,,,,,,,,,,,,,,,,,,t,3.752807700075209,320.78529170015827,None,320.78529170015827,None,2022-12-11-11:32:07.227683,324.5808610001113,324.88498129998334,324.5808610001113,None,None,324.5808610001113,None,325.3856689300621,None,,,,22019,0001,2022_Dec_11_1126,localizer,2021.1.3,60.84671852685433,
block,scrambled,scrambled071.bmp,,,,,0,169,169,169,,,,,,,,,,,,,,,,,,,,,,,,,,,,,,,,,,,,,,,,,,None,,325.3856689300621,None,325.3856689300621,None,2022-12-11-11:32:08.043260,325.3963491001632,325.7016553999856,325.3963491001632,None,None,325.3963491001632,None,326.20316323002334,None,,,,22019,0001,2022_Dec_11_1126,localizer,2021.1.3,60.84671852685433,
block,scrambled,scrambled028.bmp,,,,,0,170,170,170,,,,,,,,,,,,,,,,,,,,,,,,,,,,,,,,,,,,,,,,,,None,,326.20316323002334,None,326.20316323002334,None,2022-12-11-11:32:08.861922,326.20530000003055,326.51883800001815,326.20530000003055,None,None,326.20530000003055,None,327.01885693001094,None,,,,22019,0001,2022_Dec_11_1126,localizer,2021.1.3,60.84671852685433,
block,scrambled,scrambled078.bmp,,,,,0,171,171,171,,,,,,,,,,,,,,,,,,,,,,,,,,,,,,,,,,,,,,,,,,None,,327.01885693001094,None,327.01885693001094,None,2022-12-11-11:32:09.676741,327.0294555001892,327.3354576001875,327.0294555001892,None,None,327.0294555001892,None,327.83647522998507,None,,,,22019,0001,2022_Dec_11_1126,localizer,2021.1.3,60.84671852685433,
block,scrambled,scrambled043.bmp,,,,,0,172,172,172,,,,,,,,,,,,,,,,,,,,,,,,,,,,,,,,,,,,,,,,,,None,,327.83647522998507,None,327.83647522998507,None,2022-12-11-11:32:10.497065,327.8394715001341,328.1523355001118,327.8394715001341,None,None,327.8394715001341,None,328.6524983301526,None,,,,22019,0001,2022_Dec_11_1126,localizer,2021.1.3,60.84671852685433,
block,scrambled,scrambled055.bmp,,,,,0,173,173,173,,,,,,,,,,,,,,,,,,,,,,,,,,,,,,,,,,,,,,,,,,None,,328.6524983301526,None,328.6524983301526,None,2022-12-11-11:32:11.310278,328.6599930000957,328.96855530003086,328.6599930000957,None,None,328.6599930000957,None,329.4688936301274,None,,,,22019,0001,2022_Dec_11_1126,localizer,2021.1.3,60.84671852685433,
block,scrambled,scrambled022.bmp,,,,,0,174,174,174,,,,,,,,,,,,,,,,,,,,,,,,,,,,,,,,,,,,,,,,,,None,,329.4688936301274,None,329.4688936301274,None,2022-12-11-11:32:12.126486,329.4797604000196,329.785257200012,329.4797604000196,None,None,329.4797604000196,None,330.28603323006536,None,,,,22019,0001,2022_Dec_11_1126,localizer,2021.1.3,60.84671852685433,
block,scrambled,scrambled045.bmp,,,,,0,175,175,175,,,,,,,,,,,,,,,,,,,,,,,,,,,,,,,,,,,,,,,,,,None,,330.28603323006536,None,330.28603323006536,None,2022-12-11-11:32:12.945671,330.2985919001512,330.6018292000517,330.2985919001512,None,None,330.2985919001512,None,331.1035197299672,None,,,,22019,0001,2022_Dec_11_1126,localizer,2021.1.3,60.84671852685433,
block,scrambled,scrambled075.bmp,,,,,0,176,176,176,,,,,,,,,,,,,,,,,,,,,,,,,,,,,,,,,,,,,,,,,,None,,331.1035197299672,None,331.1035197299672,None,2022-12-11-11:32:13.763013,331.11384390015155,331.41911839996465,331.11384390015155,None,None,331.11384390015155,None,331.91997223014477,None,,,,22019,0001,2022_Dec_11_1126,localizer,2021.1.3,60.84671852685433,
block,scrambled,scrambled030.bmp,,,,,0,177,177,177,,,,,,,,,,,,,,,,,,,,,,,,,,,,,,,,,,,,,,,,,,None,,331.91997223014477,None,331.91997223014477,None,2022-12-11-11:32:14.578694,331.93337139999494,332.2349849999882,331.93337139999494,None,None,331.93337139999494,None,332.735595930065,None,,,,22019,0001,2022_Dec_11_1126,localizer,2021.1.3,60.84671852685433,
block,scrambled,scrambled033.bmp,,,,,0,178,178,178,,,,,,,,,,,,,,,,,,,,,,,,,,,,,,,,,,,,,,,,,,None,,332.735595930065,None,332.735595930065,None,2022-12-11-11:32:15.393191,332.74640329997055,333.0522390999831,332.74640329997055,None,None,332.74640329997055,None,333.5522151299985,None,,,,22019,0001,2022_Dec_11_1126,localizer,2021.1.3,60.84671852685433,
block,scrambled,scrambled033.bmp,,,,,0,179,179,179,,,,,,,,,,,,,,,,,,,,,,,,,,,,,,,,,,,,,,,,,,None,,333.5522151299985,None,333.5522151299985,None,2022-12-11-11:32:16.209810,333.5529344000388,333.8687907999847,333.5529344000388,None,y,333.5529344000388,None,334.35512123017105,None,0.5521042998880148,,,22019,0001,2022_Dec_11_1126,localizer,2021.1.3,60.84671852685433,
block,scrambled,scrambled039.bmp,,,,,0,180,180,180,,,,,,,,,,,,,,,,,,,,,,,,,,,,,,,,,,,,,,,,,,None,,334.35512123017105,None,334.35512123017105,None,2022-12-11-11:32:17.014695,334.3653663001023,334.669752900023,334.3653663001023,334.3653663001023,None,334.3653663001023,334.3653663001023,335.1689110299805,None,,,,22019,0001,2022_Dec_11_1126,localizer,2021.1.3,60.84671852685433,
block,scrambled,scrambled034.bmp,,,,,0,181,181,181,,,,,,,,,,,,,,,,,,,,,,,,,,,,,,,,,,,,,,,,,,None,,335.1689110299805,None,335.1689110299805,None,2022-12-11-11:32:17.826521,335.17980330018327,335.48528440017253,335.17980330018327,None,None,335.17980330018327,None,335.98595703013706,None,,,,22019,0001,2022_Dec_11_1126,localizer,2021.1.3,60.84671852685433,
block_end,scrambled,scrambled082.bmp,,,,,0,182,182,182,,,,,,,,,,,,,,,,,,,,,,,,,,,,,,,,,,,,,,,,,,None,,335.98595703013706,None,335.98595703013706,None,2022-12-11-11:32:18.643549,335.98632590007037,336.28577499999665,335.98632590007037,None,None,335.98632590007037,None,336.80184043005573,None,,,,22019,0001,2022_Dec_11_1126,localizer,2021.1.3,60.84671852685433,
null_block,null_block,null_block.bmp,,,,,0,183,183,183,,,,,,,,,,,,,,,,,,,,,,,,,,,,,,,,,,,,,,,,,,t,1.7364628000650555,336.8015511999838,None,336.8015511999838,None,2022-12-11-11:32:21.224148,338.5685394300846,None,338.5685394300846,None,None,338.5685394300846,None,338.5693977000192,None,,,,22019,0001,2022_Dec_11_1126,localizer,2021.1.3,60.84671852685433,
block_start,faces,faces029.bmp,,,,,0,184,184,184,,,,,,,,,,,,,,,,,,,,,,,,,,,,,,,,,,,,,,,,,,t,1.9696563999168575,350.56865190016106,None,350.56865190016106,None,2022-12-11-11:32:35.230286,352.5721460999921,352.8856296001468,352.5721460999921,None,None,352.5721460999921,None,353.38575313000473,None,,,,22019,0001,2022_Dec_11_1126,localizer,2021.1.3,60.84671852685433,
block,faces,faces037.bmp,,,,,0,185,185,185,,,,,,,,,,,,,,,,,,,,,,,,,,,,,,,,,,,,,,,,,,None,,353.38575313000473,None,353.38575313000473,None,2022-12-11-11:32:36.043573,353.39665320003405,353.70221340004355,353.39665320003405,None,None,353.39665320003405,None,354.2033196300501,None,,,,22019,0001,2022_Dec_11_1126,localizer,2021.1.3,60.84671852685433,
block,faces,faces083.bmp,,,,,0,186,186,186,,,,,,,,,,,,,,,,,,,,,,,,,,,,,,,,,,,,,,,,,,None,,354.2033196300501,None,354.2033196300501,None,2022-12-11-11:32:36.862893,354.20586020010523,354.51939480006695,354.20586020010523,None,None,354.20586020010523,None,355.01901243014726,None,,,,22019,0001,2022_Dec_11_1126,localizer,2021.1.3,60.84671852685433,
block,faces,faces079.bmp,,,,,0,187,187,187,,,,,,,,,,,,,,,,,,,,,,,,,,,,,,,,,,,,,,,,,,None,,355.01901243014726,None,355.01901243014726,None,2022-12-11-11:32:37.676607,355.0300571999978,355.3356123000849,355.0300571999978,None,None,355.0300571999978,None,355.82354463001246,None,,,,22019,0001,2022_Dec_11_1126,localizer,2021.1.3,60.84671852685433,
block,faces,faces069.bmp,,,,,0,188,188,188,,,,,,,,,,,,,,,,,,,,,,,,,,,,,,,,,,,,,,,,,,None,,355.82354463001246,None,355.82354463001246,None,2022-12-11-11:32:38.484290,355.8383382000029,356.1521607001778,355.8383382000029,None,None,355.8383382000029,None,356.6371074301889,None,,,,22019,0001,2022_Dec_11_1126,localizer,2021.1.3,60.84671852685433,
block,faces,faces071.bmp,,,,,0,189,189,189,,,,,,,,,,,,,,,,,,,,,,,,,,,,,,,,,,,,,,,,,,None,,356.6371074301889,None,356.6371074301889,None,2022-12-11-11:32:39.296862,356.65209170011804,356.9522120000329,356.65209170011804,None,None,356.65209170011804,None,357.45274903012904,None,,,,22019,0001,2022_Dec_11_1126,localizer,2021.1.3,60.84671852685433,
block,faces,faces011.bmp,,,,,0,190,190,190,,,,,,,,,,,,,,,,,,,,,,,,,,,,,,,,,,,,,,,,,,None,,357.45274903012904,None,357.45274903012904,None,2022-12-11-11:32:40.110340,357.464342799969,357.768531100126,357.464342799969,None,None,357.464342799969,None,358.26936763005796,None,,,,22019,0001,2022_Dec_11_1126,localizer,2021.1.3,60.84671852685433,
block,faces,faces075.bmp,,,,,0,191,191,191,,,,,,,,,,,,,,,,,,,,,,,,,,,,,,,,,,,,,,,,,,None,,358.26936763005796,None,358.26936763005796,None,2022-12-11-11:32:40.927928,358.27032590005547,358.56925010005943,358.27032590005547,None,None,358.27032590005547,None,359.06977403017225,None,,,,22019,0001,2022_Dec_11_1126,localizer,2021.1.3,60.84671852685433,
block,faces,faces020.bmp,,,,,0,192,192,192,,,,,,,,,,,,,,,,,,,,,,,,,,,,,,,,,,,,,,,,,,None,,359.06977403017225,None,359.06977403017225,None,2022-12-11-11:32:41.730544,359.0853671000805,359.3856707001105,359.0853671000805,359.0853671000805,None,359.0853671000805,359.0853671000805,359.8867267299676,None,,,,22019,0001,2022_Dec_11_1126,localizer,2021.1.3,60.84671852685433,
block,faces,faces074.bmp,,,,,0,193,193,193,,,,,,,,,,,,,,,,,,,,,,,,,,,,,,,,,,,,,,,,,,None,,359.8867267299676,None,359.8867267299676,None,2022-12-11-11:32:42.545491,359.9011042001657,360.20271380012855,359.9011042001657,None,None,359.9011042001657,None,360.70258213013875,None,,,,22019,0001,2022_Dec_11_1126,localizer,2021.1.3,60.84671852685433,
block,faces,faces088.bmp,,,,,0,194,194,194,,,,,,,,,,,,,,,,,,,,,,,,,,,,,,,,,,,,,,,,,,None,,360.70258213013875,None,360.70258213013875,None,2022-12-11-11:32:43.360362,360.71634629997425,361.01921060006134,360.71634629997425,None,None,360.71634629997425,None,361.520053130039,None,,,,22019,0001,2022_Dec_11_1126,localizer,2021.1.3,60.84671852685433,
block,faces,faces017.bmp,,,,,0,195,195,195,,,,,,,,,,,,,,,,,,,,,,,,,,,,,,,,,,,,,,,,,,None,,361.520053130039,None,361.520053130039,None,2022-12-11-11:32:44.179626,361.53448560019024,361.83530739997514,361.53448560019024,None,None,361.53448560019024,None,362.3357829301851,None,,,,22019,0001,2022_Dec_11_1126,localizer,2021.1.3,60.84671852685433,
block,faces,faces031.bmp,,,,,0,196,196,196,,,,,,,,,,,,,,,,,,,,,,,,,,,,,,,,,,,,,,,,,,None,,362.3357829301851,None,362.3357829301851,None,2022-12-11-11:32:44.993578,362.34684710018337,362.65222200006247,362.34684710018337,None,None,362.34684710018337,None,363.1533655300038,None,,,,22019,0001,2022_Dec_11_1126,localizer,2021.1.3,60.84671852685433,
block,faces,faces056.bmp,,,,,0,197,197,197,,,,,,,,,,,,,,,,,,,,,,,,,,,,,,,,,,,,,,,,,,None,,363.1533655300038,None,363.1533655300038,None,2022-12-11-11:32:45.811941,363.16676100017503,363.4691139999777,363.16676100017503,None,None,363.16676100017503,None,363.96911962998564,None,,,,22019,0001,2022_Dec_11_1126,localizer,2021.1.3,60.84671852685433,
block_end,faces,faces033.bmp,,,,,0,198,198,198,,,,,,,,,,,,,,,,,,,,,,,,,,,,,,,,,,,,,,,,,,None,,363.96911962998564,None,363.96911962998564,None,2022-12-11-11:32:46.626712,363.9867954000365,364.30240750010125,363.9867954000365,None,None,363.9867954000365,None,364.7923261301359,None,,,,22019,0001,2022_Dec_11_1126,localizer,2021.1.3,60.84671852685433,
block_start,scrambled,scrambled080.bmp,,,,,0,199,199,199,,,,,,,,,,,,,,,,,,,,,,,,,,,,,,,,,,,,,,,,,,t,1.7474712999537587,364.7908413000405,None,364.7908413000405,None,2022-12-11-11:32:49.218157,366.56387399998493,366.8690905000549,366.56387399998493,None,None,366.56387399998493,None,367.36910643002483,None,,,,22019,0001,2022_Dec_11_1126,localizer,2021.1.3,60.84671852685433,
block,scrambled,scrambled015.bmp,,,,,0,200,200,200,,,,,,,,,,,,,,,,,,,,,,,,,,,,,,,,,,,,,,,,,,None,,367.36910643002483,None,367.36910643002483,None,2022-12-11-11:32:50.026825,367.3798323001247,367.6856843000278,367.3798323001247,None,None,367.3798323001247,None,368.18597422998863,None,,,,22019,0001,2022_Dec_11_1126,localizer,2021.1.3,60.84671852685433,
block,scrambled,scrambled086.bmp,,,,,0,201,201,201,,,,,,,,,,,,,,,,,,,,,,,,,,,,,,,,,,,,,,,,,,None,,368.18597422998863,None,368.18597422998863,None,2022-12-11-11:32:50.843741,368.1865976001136,368.4857849001419,368.1865976001136,None,None,368.1865976001136,None,368.98593582997563,None,,,,22019,0001,2022_Dec_11_1126,localizer,2021.1.3,60.84671852685433,
block,scrambled,scrambled084.bmp,,,,,0,202,202,202,,,,,,,,,,,,,,,,,,,,,,,,,,,,,,,,,,,,,,,,,,None,,368.98593582997563,None,368.98593582997563,None,2022-12-11-11:32:51.646716,368.9888792000711,369.30261350004,368.9888792000711,368.9888792000711,None,368.9888792000711,368.9888792000711,369.8022653301479,None,,,,22019,0001,2022_Dec_11_1126,localizer,2021.1.3,60.84671852685433,
block,scrambled,scrambled034.bmp,,,,,0,203,203,203,,,,,,,,,,,,,,,,,,,,,,,,,,,,,,,,,,,,,,,,,,None,,369.8022653301479,None,369.8022653301479,None,2022-12-11-11:32:52.458799,369.8040726000909,370.11905960016884,369.8040726000909,None,None,369.8040726000909,None,370.6186209301697,None,,,,22019,0001,2022_Dec_11_1126,localizer,2021.1.3,60.84671852685433,
block,scrambled,scrambled032.bmp,,,,,0,204,204,204,,,,,,,,,,,,,,,,,,,,,,,,,,,,,,,,,,,,,,,,,,None,,370.6186209301697,None,370.6186209301697,None,2022-12-11-11:32:53.275226,370.62705450016074,370.93549369997345,370.62705450016074,None,None,370.62705450016074,None,371.43587713006417,None,,,,22019,0001,2022_Dec_11_1126,localizer,2021.1.3,60.84671852685433,
block,scrambled,scrambled070.bmp,,,,,0,205,205,205,,,,,,,,,,,,,,,,,,,,,,,,,,,,,,,,,,,,,,,,,,None,,371.43587713006417,None,371.43587713006417,None,2022-12-11-11:32:54.093573,371.44681220012717,371.7520267001819,371.44681220012717,None,None,371.44681220012717,None,372.2528660301352,None,,,,22019,0001,2022_Dec_11_1126,localizer,2021.1.3,60.84671852685433,
block,scrambled,scrambled039.bmp,,,,,0,206,206,206,,,,,,,,,,,,,,,,,,,,,,,,,,,,,,,,,,,,,,,,,,None,,372.2528660301352,None,372.2528660301352,None,2022-12-11-11:32:54.911648,372.2536245000083,372.5524834000971,372.2536245000083,None,None,372.2536245000083,None,373.05309193015563,None,,,,22019,0001,2022_Dec_11_1126,localizer,2021.1.3,60.84671852685433,
block,scrambled,scrambled088.bmp,,,,,0,207,207,207,,,,,,,,,,,,,,,,,,,,,,,,,,,,,,,,,,,,,,,,,,None,,373.05309193015563,None,373.05309193015563,None,2022-12-11-11:32:55.713864,373.06735930009745,373.36892420006916,373.06735930009745,373.06735930009745,None,373.06735930009745,373.06735930009745,373.86885562997776,None,,,,22019,0001,2022_Dec_11_1126,localizer,2021.1.3,60.84671852685433,
block,scrambled,scrambled026.bmp,,,,,0,208,208,208,,,,,,,,,,,,,,,,,,,,,,,,,,,,,,,,,,,,,,,,,,None,,373.86885562997776,None,373.86885562997776,None,2022-12-11-11:32:56.526454,373.8697461001575,374.16890010004863,373.8697461001575,None,None,373.8697461001575,None,374.6696531301597,None,,,,22019,0001,2022_Dec_11_1126,localizer,2021.1.3,60.84671852685433,
block,scrambled,scrambled033.bmp,,,,,0,209,209,209,,,,,,,,,,,,,,,,,,,,,,,,,,,,,,,,,,,,,,,,,,None,,374.6696531301597,None,374.6696531301597,None,2022-12-11-11:32:57.330331,374.6725172000006,374.98607450001873,374.6725172000006,374.6725172000006,None,374.6725172000006,374.6725172000006,375.4855111301178,None,,,,22019,0001,2022_Dec_11_1126,localizer,2021.1.3,60.84671852685433,
block,scrambled,scrambled029.bmp,,,,,0,210,210,210,,,,,,,,,,,,,,,,,,,,,,,,,,,,,,,,,,,,,,,,,,None,,375.4855111301178,None,375.4855111301178,None,2022-12-11-11:32:58.143112,375.4946499001235,375.80397070012987,375.4946499001235,None,None,375.4946499001235,None,376.3024620301323,None,,,,22019,0001,2022_Dec_11_1126,localizer,2021.1.3,60.84671852685433,
block,scrambled,scrambled061.bmp,,,,,0,211,211,211,,,,,,,,,,,,,,,,,,,,,,,,,,,,,,,,,,,,,,,,,,None,,376.3024620301323,None,376.3024620301323,None,2022-12-11-11:32:58.960266,376.31334250001237,376.61874340008944,376.31334250001237,None,None,376.31334250001237,None,377.11944893018807,None,,,,22019,0001,2022_Dec_11_1126,localizer,2021.1.3,60.84671852685433,
block,scrambled,scrambled079.bmp,,,,,0,212,212,212,,,,,,,,,,,,,,,,,,,,,,,,,,,,,,,,,,,,,,,,,,None,,377.11944893018807,None,377.11944893018807,None,2022-12-11-11:32:59.778227,377.13128670002334,377.435463400092,377.13128670002334,None,None,377.13128670002334,None,377.93781603004317,None,,,,22019,0001,2022_Dec_11_1126,localizer,2021.1.3,60.84671852685433,
block_end,scrambled,scrambled055.bmp,,,,,0,213,213,213,,,,,,,,,,,,,,,,,,,,,,,,,,,,,,,,,,,,,,,,,,None,,377.93781603004317,None,377.93781603004317,None,2022-12-11-11:33:00.599279,377.94329100009054,378.2521818000823,377.94329100009054,None,None,377.94329100009054,None,378.75273203004616,None,,,,22019,0001,2022_Dec_11_1126,localizer,2021.1.3,60.84671852685433,
block_start,objects,objects078.bmp,,,,,0,214,214,214,,,,,,,,,,,,,,,,,,,,,,,,,,,,,,,,,,,,,,,,,,t,1.78565669991076,378.7525892001577,None,378.7525892001577,None,2022-12-11-11:33:03.224978,380.5699175000191,380.86908520013094,380.5699175000191,None,None,380.5699175000191,None,381.36919923003296,None,,,,22019,0001,2022_Dec_11_1126,localizer,2021.1.3,60.84671852685433,
block,objects,objects063.bmp,,,,,0,215,215,215,,,,,,,,,,,,,,,,,,,,,,,,,,,,,,,,,,,,,,,,,,None,,381.36919923003296,None,381.36919923003296,None,2022-12-11-11:33:04.029000,381.37113370001316,381.6856209000107,381.37113370001316,381.37113370001316,None,381.37113370001316,381.37113370001316,382.18593023011925,None,,,,22019,0001,2022_Dec_11_1126,localizer,2021.1.3,60.84671852685433,
block,objects,objects030.bmp,,,,,0,216,216,216,,,,,,,,,,,,,,,,,,,,,,,,,,,,,,,,,,,,,,,,,,None,,382.18593023011925,None,382.18593023011925,None,2022-12-11-11:33:04.843719,382.1866667000577,382.48590600001626,382.1866667000577,None,None,382.1866667000577,None,382.98623493004123,None,,,,22019,0001,2022_Dec_11_1126,localizer,2021.1.3,60.84671852685433,
block,objects,objects070.bmp,,,,,0,217,217,217,,,,,,,,,,,,,,,,,,,,,,,,,,,,,,,,,,,,,,,,,,None,,382.98623493004123,None,382.98623493004123,None,2022-12-11-11:33:05.647002,383.0006058001891,383.3023399000522,383.0006058001891,383.0006058001891,None,383.0006058001891,383.0006058001891,383.8020593299763,None,,,,22019,0001,2022_Dec_11_1126,localizer,2021.1.3,60.84671852685433,
block,objects,objects034.bmp,,,,,0,218,218,218,,,,,,,,,,,,,,,,,,,,,,,,,,,,,,,,,,,,,,,,,,None,,383.8020593299763,None,383.8020593299763,None,2022-12-11-11:33:06.459661,383.8034100001678,384.1028090000618,383.8034100001678,None,None,383.8034100001678,None,384.6077851300826,None,,,,22019,0001,2022_Dec_11_1126,localizer,2021.1.3,60.84671852685433,
block,objects,objects069.bmp,,,,,0,219,219,219,,,,,,,,,,,,,,,,,,,,,,,,,,,,,,,,,,,,,,,,,,None,,384.6077851300826,None,384.6077851300826,None,2022-12-11-11:33:07.268459,384.62239870009944,384.93569690012373,384.62239870009944,None,None,384.62239870009944,None,385.41940933016593,None,,,,22019,0001,2022_Dec_11_1126,localizer,2021.1.3,60.84671852685433,
block,objects,objects042.bmp,,,,,0,220,220,220,,,,,,,,,,,,,,,,,,,,,,,,,,,,,,,,,,,,,,,,,,None,,385.41940933016593,None,385.41940933016593,None,2022-12-11-11:33:08.077225,385.4300722000189,385.73561990004964,385.4300722000189,None,None,385.4300722000189,None,386.235546330153,None,,,,22019,0001,2022_Dec_11_1126,localizer,2021.1.3,60.84671852685433,
block,objects,objects056.bmp,,,,,0,221,221,221,,,,,,,,,,,,,,,,,,,,,,,,,,,,,,,,,,,,,,,,,,None,,386.235546330153,None,386.235546330153,None,2022-12-11-11:33:08.893375,386.2365172000136,386.5357447001152,386.2365172000136,None,None,386.2365172000136,None,387.0363234301796,None,,,,22019,0001,2022_Dec_11_1126,localizer,2021.1.3,60.84671852685433,
block,objects,objects004.bmp,,,,,0,222,222,222,,,,,,,,,,,,,,,,,,,,,,,,,,,,,,,,,,,,,,,,,,None,,387.0363234301796,None,387.0363234301796,None,2022-12-11-11:33:09.697093,387.04689090000466,387.352160200011,387.04689090000466,387.04689090000466,None,387.04689090000466,387.04689090000466,387.85310853009577,None,,,,22019,0001,2022_Dec_11_1126,localizer,2021.1.3,60.84671852685433,
block,objects,objects038.bmp,,,,,0,223,223,223,,,,,,,,,,,,,,,,,,,,,,,,,,,,,,,,,,,,,,,,,,None,,387.85310853009577,None,387.85310853009577,None,2022-12-11-11:33:10.511692,387.8657275000587,388.16914430004545,387.8657275000587,None,None,387.8657275000587,None,388.6697067301022,None,,,,22019,0001,2022_Dec_11_1126,localizer,2021.1.3,60.84671852685433,
block,objects,objects038.bmp,,,,,0,224,224,224,,,,,,,,,,,,,,,,,,,,,,,,,,,,,,,,,,,,,,,,,,None,,388.6697067301022,None,388.6697067301022,None,2022-12-11-11:33:11.328487,388.6702499000821,388.98539070016704,388.6702499000821,None,y,388.6702499000821,None,389.4858555301791,None,0.4088098998181522,,,22019,0001,2022_Dec_11_1126,localizer,2021.1.3,60.84671852685433,
block,objects,objects087.bmp,,,,,0,225,225,225,,,,,,,,,,,,,,,,,,,,,,,,,,,,,,,,,,,,,,,,,,None,,389.4858555301791,None,389.4858555301791,None,2022-12-11-11:33:12.143451,389.4977317000739,389.80205589998513,389.4977317000739,None,None,389.4977317000739,None,390.30277313005644,None,,,,22019,0001,2022_Dec_11_1126,localizer,2021.1.3,60.84671852685433,
block,objects,objects003.bmp,,,,,0,226,226,226,,,,,,,,,,,,,,,,,,,,,,,,,,,,,,,,,,,,,,,,,,None,,390.30277313005644,None,390.30277313005644,None,2022-12-11-11:33:12.961563,390.31361760012805,390.6187893000897,390.31361760012805,None,None,390.31361760012805,None,391.1096286300337,None,,,,22019,0001,2022_Dec_11_1126,localizer,2021.1.3,60.84671852685433,
block,objects,objects067.bmp,,,,,0,227,227,227,,,,,,,,,,,,,,,,,,,,,,,,,,,,,,,,,,,,,,,,,,None,,391.1096286300337,None,391.1096286300337,None,2022-12-11-11:33:13.773220,391.1233346001245,391.4359862001147,391.1233346001245,None,None,391.1233346001245,None,391.9255908300867,None,,,,22019,0001,2022_Dec_11_1126,localizer,2021.1.3,60.84671852685433,
block_end,objects,objects040.bmp,,,,,0,228,228,228,,,,,,,,,,,,,,,,,,,,,,,,,,,,,,,,,,,,,,,,,,None,,391.9255908300867,None,391.9255908300867,None,2022-12-11-11:33:14.591291,391.9314594999887,392.2357887001708,391.9314594999887,None,None,391.9314594999887,None,392.7363776300801,None,,,,22019,0001,2022_Dec_11_1126,localizer,2021.1.3,60.84671852685433,
block_start,scenes,scenes056.bmp,,,,,0,229,229,229,,,,,,,,,,,,,,,,,,,,,,,,,,,,,,,,,,,,,,,,,,t,1.801907200133428,392.7362413001247,None,392.7362413001247,None,2022-12-11-11:33:17.212334,394.56817740015686,394.869404300116,394.56817740015686,None,None,394.56817740015686,None,395.3692108301213,None,,,,22019,0001,2022_Dec_11_1126,localizer,2021.1.3,60.84671852685433,
block,scenes,scenes049.bmp,,,,,0,230,230,230,,,,,,,,,,,,,,,,,,,,,,,,,,,,,,,,,,,,,,,,,,None,,395.3692108301213,None,395.3692108301213,None,2022-12-11-11:33:18.026999,395.38020190014504,395.6858980001416,395.38020190014504,None,None,395.38020190014504,None,396.1862731300527,None,,,,22019,0001,2022_Dec_11_1126,localizer,2021.1.3,60.84671852685433,
block,scenes,scenes076.bmp,,,,,0,231,231,231,,,,,,,,,,,,,,,,,,,,,,,,,,,,,,,,,,,,,,,,,,None,,396.1862731300527,None,396.1862731300527,None,2022-12-11-11:33:18.844060,396.18694719998166,396.48617430008017,396.18694719998166,None,None,396.18694719998166,None,396.98647573001216,None,,,,22019,0001,2022_Dec_11_1126,localizer,2021.1.3,60.84671852685433,
block,scenes,scenes002.bmp,,,,,0,232,232,232,,,,,,,,,,,,,,,,,,,,,,,,,,,,,,,,,,,,,,,,,,None,,396.98647573001216,None,396.98647573001216,None,2022-12-11-11:33:19.648007,397.0011393001769,397.30224730004556,397.0011393001769,397.0011393001769,None,397.0011393001769,397.0011393001769,397.80228753008413,None,,,,22019,0001,2022_Dec_11_1126,localizer,2021.1.3,60.84671852685433,
block,scenes,scenes035.bmp,,,,,0,233,233,233,,,,,,,,,,,,,,,,,,,,,,,,,,,,,,,,,,,,,,,,,,None,,397.80228753008413,None,397.80228753008413,None,2022-12-11-11:33:20.459889,397.80355309997685,398.1029305001721,397.80355309997685,None,None,397.80355309997685,None,398.60297893004025,None,,,,22019,0001,2022_Dec_11_1126,localizer,2021.1.3,60.84671852685433,
block,scenes,scenes082.bmp,,,,,0,234,234,234,,,,,,,,,,,,,,,,,,,,,,,,,,,,,,,,,,,,,,,,,,None,,398.60297893004025,None,398.60297893004025,None,2022-12-11-11:33:21.262784,398.61564410012215,398.91916420008056,398.61564410012215,398.61564410012215,None,398.61564410012215,398.61564410012215,399.41975903015117,None,,,,22019,0001,2022_Dec_11_1126,localizer,2021.1.3,60.84671852685433,
block,scenes,scenes017.bmp,,,,,0,235,235,235,,,,,,,,,,,,,,,,,,,,,,,,,,,,,,,,,,,,,,,,,,None,,399.41975903015117,None,399.41975903015117,None,2022-12-11-11:33:22.078470,399.4313781000674,399.73659560014494,399.4313781000674,None,None,399.4313781000674,None,400.2356634299969,None,,,,22019,0001,2022_Dec_11_1126,localizer,2021.1.3,60.84671852685433,
block,scenes,scenes092.bmp,,,,,0,236,236,236,,,,,,,,,,,,,,,,,,,,,,,,,,,,,,,,,,,,,,,,,,None,,400.2356634299969,None,400.2356634299969,None,2022-12-11-11:33:22.893261,400.2366472000722,400.53765910002403,400.2366472000722,None,None,400.2366472000722,None,401.03603063004556,None,,,,22019,0001,2022_Dec_11_1126,localizer,2021.1.3,60.84671852685433,
block,scenes,scenes014.bmp,,,,,0,237,237,237,,,,,,,,,,,,,,,,,,,,,,,,,,,,,,,,,,,,,,,,,,None,,401.03603063004556,None,401.03603063004556,None,2022-12-11-11:33:23.695839,401.0382195999846,401.3525028000586,401.0382195999846,401.0382195999846,None,401.0382195999846,401.0382195999846,401.8523080301704,None,,,,22019,0001,2022_Dec_11_1126,localizer,2021.1.3,60.84671852685433,
block,scenes,scenes028.bmp,,,,,0,238,238,238,,,,,,,,,,,,,,,,,,,,,,,,,,,,,,,,,,,,,,,,,,None,,401.8523080301704,None,401.8523080301704,None,2022-12-11-11:33:24.509602,401.8618309001904,402.1690265999641,401.8618309001904,None,None,401.8618309001904,None,402.66957543015013,None,,,,22019,0001,2022_Dec_11_1126,localizer,2021.1.3,60.84671852685433,
block,scenes,scenes057.bmp,,,,,0,239,239,239,,,,,,,,,,,,,,,,,,,,,,,,,,,,,,,,,,,,,,,,,,None,,402.66957543015013,None,402.66957543015013,None,2022-12-11-11:33:25.327370,402.6813185000792,402.98621010011993,402.6813185000792,None,None,402.6813185000792,None,403.48631872998084,None,,,,22019,0001,2022_Dec_11_1126,localizer,2021.1.3,60.84671852685433,
block,scenes,scenes077.bmp,,,,,0,240,240,240,,,,,,,,,,,,,,,,,,,,,,,,,,,,,,,,,,,,,,,,,,None,,403.48631872998084,None,403.48631872998084,None,2022-12-11-11:33:26.143907,403.49813970015384,403.80228250008076,403.49813970015384,None,None,403.49813970015384,None,404.30408023011404,None,,,,22019,0001,2022_Dec_11_1126,localizer,2021.1.3,60.84671852685433,
block,scenes,scenes081.bmp,,,,,0,241,241,241,,,,,,,,,,,,,,,,,,,,,,,,,,,,,,,,,,,,,,,,,,None,,404.30408023011404,None,404.30408023011404,None,2022-12-11-11:33:26.965519,404.30804700008593,404.6059047000017,404.30804700008593,None,None,404.30804700008593,None,405.1195535300532,None,,,,22019,0001,2022_Dec_11_1126,localizer,2021.1.3,60.84671852685433,
block,scenes,scenes005.bmp,,,,,0,242,242,242,,,,,,,,,,,,,,,,,,,,,,,,,,,,,,,,,,,,,,,,,,None,,405.1195535300532,None,405.1195535300532,None,2022-12-11-11:33:27.777143,405.1302871000953,405.4361029001884,405.1302871000953,None,None,405.1302871000953,None,405.93591783002483,None,,,,22019,0001,2022_Dec_11_1126,localizer,2021.1.3,60.84671852685433,
block_end,scenes,scenes032.bmp,,,,,0,243,243,243,,,,,,,,,,,,,,,,,,,,,,,,,,,,,,,,,,,,,,,,,,None,,405.93591783002483,None,405.93591783002483,None,2022-12-11-11:33:28.593513,405.94700650009327,406.25290119997226,405.94700650009327,None,None,405.94700650009327,None,406.75292823014314,None,,,,22019,0001,2022_Dec_11_1126,localizer,2021.1.3,60.84671852685433,
,,,,,,,,,,,,,,,,,,,,,,,,,,,,,,,,,,,,,,,,,,,,,,,,,,,,,,,,,,,,,,,,,,,,,406.7521379000973,None,,,,,,,
