block_type,condition,img_name,Button.thisRepN,Button.thisTrialN,Button.thisN,Button.thisIndex,trials.thisRepN,trials.thisTrialN,trials.thisN,trials.thisIndex,Ready_experimenter_text.started,Ready_experimenter_text.stopped,Ready_experimenter_resp.keys,Ready_experimenter_resp.rt,Ready_experimenter_resp.started,Ready_experimenter_resp.stopped,Alignment_background.started,Alignment_background.stopped,Alignment_image.started,Alignment_image.stopped,Alignment_resp.keys,Alignment_resp.rt,Alignment_resp.started,Alignment_resp.stopped,Button_text.started,Button_text.stopped,Index_text.started,Index_text.stopped,Index_resp.keys,Index_resp.rt,Index_resp.started,Index_resp.stopped,Middle_text.started,Middle_text.stopped,Middle_resp.keys,Middle_resp.rt,Middle_resp.started,Middle_resp.stopped,Repeat_text.started,Repeat_text.stopped,Repeat_resp.keys,Repeat_resp.corr,Repeat_resp.rt,Repeat_resp.started,Repeat_resp.stopped,instruction_text.started,instruction_text.stopped,key_resp.keys,key_resp.rt,key_resp.started,key_resp.stopped,scanner_t.keys,scanner_t.rt,scanner_t.started,scanner_t.stopped,fixation_wait_for_t.started,fixation_wait_for_t.stopped,real_timestamp_trial_start,image.started,image.stopped,fixation.started,fixation.stopped,repeat_response.keys,repeat_response.started,repeat_response.stopped,fixation_null.started,fixation_null.stopped,repeat_response.rt,end_text.started,end_text.stopped,participant,run,date,expName,psychopyVersion,frameRate,
,,,,,,,,,,,14.738529400026891,None,return,75.04893449996598,14.738529400026891,None,,,,,,,,,,,,,,,,,,,,,,,,,,,,,,,,,,,,,,,,,,,,,,,,,,,,,,,11005,0002,2022_Jan_25_1439,localizer,2021.1.3,59.88257027087956,
,,,,,,,,,,,,,,,,,89.82360030000564,None,89.82360030000564,None,return,0.8060509000206366,89.82360030000564,None,,,,,,,,,,,,,,,,,,,,,,,,,,,,,,,,,,,,,,,,,,,,,,,11005,0002,2022_Jan_25_1439,localizer,2021.1.3,59.88257027087956,
,,,0,0,0,0,,,,,,,,,,,,,,,,,,,90.65216100000544,None,91.65276819997234,None,y,2.8373726999852806,91.65276819997234,None,94.52479870000388,None,b,1.26843519997783,94.52479870000388,None,95.81895220000297,None,n,0,1.7942721000290476,95.81895220000297,None,,,,,,,,,,,,,,,,,,,,,,,,,,11005,0002,2022_Jan_25_1439,localizer,2021.1.3,59.88257027087956,
,,,,,,,,,,,,,,,,,,,,,,,,,,,,,,,,,,,,,,,,,,,,,,97.63542529998813,None,y,35.508590800047386,97.63542529998813,None,,,,,,,,,,,,,,,,,,,,11005,0002,2022_Jan_25_1439,localizer,2021.1.3,59.88257027087956,
block_start,scenes,scenes034.bmp,,,,,0,0,0,0,,,,,,,,,,,,,,,,,,,,,,,,,,,,,,,,,,,,,,,,,,t,15.26296610001009,133.22514559997944,None,133.22514559997944,None,2022-01-25-14:41:57.366320,148.52928929997142,148.83620329998666,148.52928929997142,None,None,148.52928929997142,None,149.3352694500063,None,,,,11005,0002,2022_Jan_25_1439,localizer,2021.1.3,59.88257027087956,
block,scenes,scenes023.bmp,,,,,0,1,1,1,,,,,,,,,,,,,,,,,,,,,,,,,,,,,,,,,,,,,,,,,,None,,149.3352694500063,None,149.3352694500063,None,2022-01-25-14:41:58.186114,149.33695239998633,149.65228649997152,149.33695239998633,None,None,149.33695239998633,None,150.13633934999234,None,,,,11005,0002,2022_Jan_25_1439,localizer,2021.1.3,59.88257027087956,
block,scenes,scenes084.bmp,,,,,0,2,2,2,,,,,,,,,,,,,,,,,,,,,,,,,,,,,,,,,,,,,,,,,,None,,150.13633934999234,None,150.13633934999234,None,2022-01-25-14:41:58.990144,150.139939900022,150.4534712000168,150.139939900022,150.139939900022,None,150.139939900022,150.139939900022,150.95309594998253,None,,,,11005,0002,2022_Jan_25_1439,localizer,2021.1.3,59.88257027087956,
block,scenes,scenes019.bmp,,,,,0,3,3,3,,,,,,,,,,,,,,,,,,,,,,,,,,,,,,,,,,,,,,,,,,None,,150.95309594998253,None,150.95309594998253,None,2022-01-25-14:41:59.804086,150.96175539999967,151.2688467000262,150.96175539999967,None,None,150.96175539999967,None,151.76843184998143,None,,,,11005,0002,2022_Jan_25_1439,localizer,2021.1.3,59.88257027087956,
block,scenes,scenes082.bmp,,,,,0,4,4,4,,,,,,,,,,,,,,,,,,,,,,,,,,,,,,,,,,,,,,,,,,None,,151.76843184998143,None,151.76843184998143,None,2022-01-25-14:42:00.617533,151.77748829999473,152.08596120000584,151.77748829999473,None,None,151.77748829999473,None,152.5852373499947,None,,,,11005,0002,2022_Jan_25_1439,localizer,2021.1.3,59.88257027087956,
block,scenes,scenes044.bmp,,,,,0,5,5,5,,,,,,,,,,,,,,,,,,,,,,,,,,,,,,,,,,,,,,,,,,None,,152.5852373499947,None,152.5852373499947,None,2022-01-25-14:42:01.435533,152.58662919997005,152.90232519997517,152.58662919997005,None,None,152.58662919997005,None,153.40187585001695,None,,,,11005,0002,2022_Jan_25_1439,localizer,2021.1.3,59.88257027087956,
block,scenes,scenes073.bmp,,,,,0,6,6,6,,,,,,,,,,,,,,,,,,,,,,,,,,,,,,,,,,,,,,,,,,None,,153.40187585001695,None,153.40187585001695,None,2022-01-25-14:42:02.251721,153.41342659998918,153.7188844999764,153.41342659998918,None,None,153.41342659998918,None,154.21920374999172,None,,,,11005,0002,2022_Jan_25_1439,localizer,2021.1.3,59.88257027087956,
block,scenes,scenes047.bmp,,,,,0,7,7,7,,,,,,,,,,,,,,,,,,,,,,,,,,,,,,,,,,,,,,,,,,None,,154.21920374999172,None,154.21920374999172,None,2022-01-25-14:42:03.069038,154.2205422000261,154.5355885999743,154.2205422000261,None,None,154.2205422000261,None,155.03532325002016,None,,,,11005,0002,2022_Jan_25_1439,localizer,2021.1.3,59.88257027087956,
block,scenes,scenes054.bmp,,,,,0,8,8,8,,,,,,,,,,,,,,,,,,,,,,,,,,,,,,,,,,,,,,,,,,None,,155.03532325002016,None,155.03532325002016,None,2022-01-25-14:42:03.884588,155.03668319998542,155.35238799999934,155.03668319998542,None,None,155.03668319998542,None,155.85218374998658,None,,,,11005,0002,2022_Jan_25_1439,localizer,2021.1.3,59.88257027087956,
block,scenes,scenes065.bmp,,,,,0,9,9,9,,,,,,,,,,,,,,,,,,,,,,,,,,,,,,,,,,,,,,,,,,None,,155.85218374998658,None,155.85218374998658,None,2022-01-25-14:42:04.702031,155.8533357999986,156.15882620000048,155.8533357999986,None,None,155.8533357999986,None,156.6531561499869,None,,,,11005,0002,2022_Jan_25_1439,localizer,2021.1.3,59.88257027087956,
block,scenes,scenes083.bmp,,,,,0,10,10,10,,,,,,,,,,,,,,,,,,,,,,,,,,,,,,,,,,,,,,,,,,None,,156.6531561499869,None,156.6531561499869,None,2022-01-25-14:42:05.506168,156.65599790000124,156.95868779998273,156.65599790000124,156.65599790000124,None,156.65599790000124,156.65599790000124,157.4693269499985,None,,,,11005,0002,2022_Jan_25_1439,localizer,2021.1.3,59.88257027087956,
block,scenes,scenes045.bmp,,,,,0,11,11,11,,,,,,,,,,,,,,,,,,,,,,,,,,,,,,,,,,,,,,,,,,None,,157.4693269499985,None,157.4693269499985,None,2022-01-25-14:42:06.319345,157.48046400002204,157.78569509997033,157.48046400002204,None,None,157.48046400002204,None,158.28524615001515,None,,,,11005,0002,2022_Jan_25_1439,localizer,2021.1.3,59.88257027087956,
block,scenes,scenes062.bmp,,,,,0,12,12,12,,,,,,,,,,,,,,,,,,,,,,,,,,,,,,,,,,,,,,,,,,None,,158.28524615001515,None,158.28524615001515,None,2022-01-25-14:42:07.135311,158.29679180000676,158.6022421999951,158.29679180000676,None,None,158.29679180000676,None,159.10228244998143,None,,,,11005,0002,2022_Jan_25_1439,localizer,2021.1.3,59.88257027087956,
block,scenes,scenes080.bmp,,,,,0,13,13,13,,,,,,,,,,,,,,,,,,,,,,,,,,,,,,,,,,,,,,,,,,None,,159.10228244998143,None,159.10228244998143,None,2022-01-25-14:42:07.952216,159.10349020001013,159.419215300004,159.10349020001013,None,None,159.10349020001013,None,159.9188603500079,None,,,,11005,0002,2022_Jan_25_1439,localizer,2021.1.3,59.88257027087956,
block_end,scenes,scenes005.bmp,,,,,0,14,14,14,,,,,,,,,,,,,,,,,,,,,,,,,,,,,,,,,,,,,,,,,,None,,159.9188603500079,None,159.9188603500079,None,2022-01-25-14:42:08.768902,159.92002700001467,160.21912379999412,159.92002700001467,None,None,159.92002700001467,None,160.71910675000981,None,,,,11005,0002,2022_Jan_25_1439,localizer,2021.1.3,59.88257027087956,
block_start,scrambled,scrambled079.bmp,,,,,0,15,15,15,,,,,,,,,,,,,,,,,,,,,,,,,,,,,,,,,,,,,,,,,,t,1.7691604000283405,160.71902670001145,None,160.71902670001145,None,2022-01-25-14:42:11.365609,162.5198459000094,162.835972699977,162.5198459000094,None,None,162.5198459000094,None,163.3190126499685,None,,,,11005,0002,2022_Jan_25_1439,localizer,2021.1.3,59.88257027087956,
block,scrambled,scrambled014.bmp,,,,,0,16,16,16,,,,,,,,,,,,,,,,,,,,,,,,,,,,,,,,,,,,,,,,,,None,,163.3190126499685,None,163.3190126499685,None,2022-01-25-14:42:12.170846,163.32008109998424,163.63542529998813,163.32008109998424,163.32008109998424,None,163.32008109998424,163.32008109998424,164.13522864997503,None,,,,11005,0002,2022_Jan_25_1439,localizer,2021.1.3,59.88257027087956,
block,scrambled,scrambled051.bmp,,,,,0,17,17,17,,,,,,,,,,,,,,,,,,,,,,,,,,,,,,,,,,,,,,,,,,None,,164.13522864997503,None,164.13522864997503,None,2022-01-25-14:42:12.985071,164.13653030002024,164.45234369998798,164.13653030002024,None,None,164.13653030002024,None,164.93553285000962,None,,,,11005,0002,2022_Jan_25_1439,localizer,2021.1.3,59.88257027087956,
block,scrambled,scrambled087.bmp,,,,,0,18,18,18,,,,,,,,,,,,,,,,,,,,,,,,,,,,,,,,,,,,,,,,,,None,,164.93553285000962,None,164.93553285000962,None,2022-01-25-14:42:13.786374,164.94565070001408,165.25255819997983,164.94565070001408,164.94565070001408,None,164.94565070001408,164.94565070001408,165.75199544997304,None,,,,11005,0002,2022_Jan_25_1439,localizer,2021.1.3,59.88257027087956,
block,scrambled,scrambled027.bmp,,,,,0,19,19,19,,,,,,,,,,,,,,,,,,,,,,,,,,,,,,,,,,,,,,,,,,None,,165.75199544997304,None,165.75199544997304,None,2022-01-25-14:42:14.601840,165.76196540001547,166.06922180001857,165.76196540001547,None,None,165.76196540001547,None,166.56754084999557,None,,,,11005,0002,2022_Jan_25_1439,localizer,2021.1.3,59.88257027087956,
block,scrambled,scrambled037.bmp,,,,,0,20,20,20,,,,,,,,,,,,,,,,,,,,,,,,,,,,,,,,,,,,,,,,,,None,,166.56754084999557,None,166.56754084999557,None,2022-01-25-14:42:15.416273,166.5694317999878,166.8697797000059,166.5694317999878,None,None,166.5694317999878,None,167.36996945002466,None,,,,11005,0002,2022_Jan_25_1439,localizer,2021.1.3,59.88257027087956,
block,scrambled,scrambled020.bmp,,,,,0,21,21,21,,,,,,,,,,,,,,,,,,,,,,,,,,,,,,,,,,,,,,,,,,None,,167.36996945002466,None,167.36996945002466,None,2022-01-25-14:42:16.223334,167.38543269998627,167.6856535000261,167.38543269998627,167.38543269998627,None,167.38543269998627,167.38543269998627,168.1854542499932,None,,,,11005,0002,2022_Jan_25_1439,localizer,2021.1.3,59.88257027087956,
block,scrambled,scrambled011.bmp,,,,,0,22,22,22,,,,,,,,,,,,,,,,,,,,,,,,,,,,,,,,,,,,,,,,,,None,,168.1854542499932,None,168.1854542499932,None,2022-01-25-14:42:17.034521,168.18670889997156,168.5023582999711,168.18670889997156,None,None,168.18670889997156,None,169.0021947499772,None,,,,11005,0002,2022_Jan_25_1439,localizer,2021.1.3,59.88257027087956,
block,scrambled,scrambled011.bmp,,,,,0,23,23,23,,,,,,,,,,,,,,,,,,,,,,,,,,,,,,,,,,,,,,,,,,None,,169.0021947499772,None,169.0021947499772,None,2022-01-25-14:42:17.852036,169.00342819996877,169.31924619997153,169.00342819996877,None,y,169.00342819996877,None,169.81884445002652,None,0.5694627999910153,,,11005,0002,2022_Jan_25_1439,localizer,2021.1.3,59.88257027087956,
block,scrambled,scrambled046.bmp,,,,,0,24,24,24,,,,,,,,,,,,,,,,,,,,,,,,,,,,,,,,,,,,,,,,,,None,,169.81884445002652,None,169.81884445002652,None,2022-01-25-14:42:18.668685,169.8290730000008,170.13577250001254,169.8290730000008,None,None,169.8290730000008,None,170.635124249995,None,,,,11005,0002,2022_Jan_25_1439,localizer,2021.1.3,59.88257027087956,
block,scrambled,scrambled057.bmp,,,,,0,25,25,25,,,,,,,,,,,,,,,,,,,,,,,,,,,,,,,,,,,,,,,,,,None,,170.635124249995,None,170.635124249995,None,2022-01-25-14:42:19.483974,170.64368560002185,170.9551229000208,170.64368560002185,None,None,170.64368560002185,None,171.45323204997112,None,,,,11005,0002,2022_Jan_25_1439,localizer,2021.1.3,59.88257027087956,
block,scrambled,scrambled023.bmp,,,,,0,26,26,26,,,,,,,,,,,,,,,,,,,,,,,,,,,,,,,,,,,,,,,,,,None,,171.45323204997112,None,171.45323204997112,None,2022-01-25-14:42:20.304171,171.45462029997725,171.76964100002078,171.45462029997725,None,None,171.45462029997725,None,172.26930334998178,None,,,,11005,0002,2022_Jan_25_1439,localizer,2021.1.3,59.88257027087956,
block,scrambled,scrambled038.bmp,,,,,0,27,27,27,,,,,,,,,,,,,,,,,,,,,,,,,,,,,,,,,,,,,,,,,,None,,172.26930334998178,None,172.26930334998178,None,2022-01-25-14:42:21.119289,172.28154970001196,172.58569939999143,172.28154970001196,None,None,172.28154970001196,None,173.08546315002604,None,,,,11005,0002,2022_Jan_25_1439,localizer,2021.1.3,59.88257027087956,
block,scrambled,scrambled048.bmp,,,,,0,28,28,28,,,,,,,,,,,,,,,,,,,,,,,,,,,,,,,,,,,,,,,,,,None,,173.08546315002604,None,173.08546315002604,None,2022-01-25-14:42:21.934352,173.08723850001115,173.387280200026,173.08723850001115,None,None,173.08723850001115,None,173.9017885499925,None,,,,11005,0002,2022_Jan_25_1439,localizer,2021.1.3,59.88257027087956,
block_end,scrambled,scrambled004.bmp,,,,,0,29,29,29,,,,,,,,,,,,,,,,,,,,,,,,,,,,,,,,,,,,,,,,,,None,,173.9017885499925,None,173.9017885499925,None,2022-01-25-14:42:22.750728,173.90337309997994,174.21905959997093,173.90337309997994,None,None,173.90337309997994,None,174.71869894998963,None,,,,11005,0002,2022_Jan_25_1439,localizer,2021.1.3,59.88257027087956,
block_start,objects,objects050.bmp,,,,,0,30,30,30,,,,,,,,,,,,,,,,,,,,,,,,,,,,,,,,,,,,,,,,,,t,1.7690091999829747,174.71914000000106,None,174.71914000000106,None,2022-01-25-14:42:25.368835,176.51994690002175,176.81926090002526,176.51994690002175,None,None,176.51994690002175,None,177.33565584997996,None,,,,11005,0002,2022_Jan_25_1439,localizer,2021.1.3,59.88257027087956,
block,objects,objects047.bmp,,,,,0,31,31,31,,,,,,,,,,,,,,,,,,,,,,,,,,,,,,,,,,,,,,,,,,None,,177.33565584997996,None,177.33565584997996,None,2022-01-25-14:42:26.185704,177.3367858999991,177.65260319999652,177.3367858999991,None,None,177.3367858999991,None,178.15202665000106,None,,,,11005,0002,2022_Jan_25_1439,localizer,2021.1.3,59.88257027087956,
block,objects,objects069.bmp,,,,,0,32,32,32,,,,,,,,,,,,,,,,,,,,,,,,,,,,,,,,,,,,,,,,,,None,,178.15202665000106,None,178.15202665000106,None,2022-01-25-14:42:27.001873,178.1620337999775,178.4691300999839,178.1620337999775,None,None,178.1620337999775,None,178.96894414999406,None,,,,11005,0002,2022_Jan_25_1439,localizer,2021.1.3,59.88257027087956,
block,objects,objects014.bmp,,,,,0,33,33,33,,,,,,,,,,,,,,,,,,,,,,,,,,,,,,,,,,,,,,,,,,None,,178.96894414999406,None,178.96894414999406,None,2022-01-25-14:42:27.822780,178.97641990002012,179.285592500004,178.97641990002012,None,None,178.97641990002012,None,179.78552955001942,None,,,,11005,0002,2022_Jan_25_1439,localizer,2021.1.3,59.88257027087956,
block,objects,objects068.bmp,,,,,0,34,34,34,,,,,,,,,,,,,,,,,,,,,,,,,,,,,,,,,,,,,,,,,,None,,179.78552955001942,None,179.78552955001942,None,2022-01-25-14:42:28.635373,179.78692089999095,180.10252900002524,179.78692089999095,None,None,179.78692089999095,None,180.58597975000157,None,,,,11005,0002,2022_Jan_25_1439,localizer,2021.1.3,59.88257027087956,
block,objects,objects016.bmp,,,,,0,35,35,35,,,,,,,,,,,,,,,,,,,,,,,,,,,,,,,,,,,,,,,,,,None,,180.58597975000157,None,180.58597975000157,None,2022-01-25-14:42:29.438806,180.60088530002395,180.9032968999818,180.60088530002395,180.60088530002395,None,180.60088530002395,180.60088530002395,181.40273745000013,None,,,,11005,0002,2022_Jan_25_1439,localizer,2021.1.3,59.88257027087956,
block,objects,objects029.bmp,,,,,0,36,36,36,,,,,,,,,,,,,,,,,,,,,,,,,,,,,,,,,,,,,,,,,,None,,181.40273745000013,None,181.40273745000013,None,2022-01-25-14:42:30.252723,181.41373590001604,181.7197033999837,181.41373590001604,None,None,181.41373590001604,None,182.2194837499701,None,,,,11005,0002,2022_Jan_25_1439,localizer,2021.1.3,59.88257027087956,
block,objects,objects081.bmp,,,,,0,37,37,37,,,,,,,,,,,,,,,,,,,,,,,,,,,,,,,,,,,,,,,,,,None,,182.2194837499701,None,182.2194837499701,None,2022-01-25-14:42:31.069513,182.23038810002618,182.53573389997473,182.23038810002618,None,None,182.23038810002618,None,183.03882935000001,None,,,,11005,0002,2022_Jan_25_1439,localizer,2021.1.3,59.88257027087956,
block,objects,objects071.bmp,,,,,0,38,38,38,,,,,,,,,,,,,,,,,,,,,,,,,,,,,,,,,,,,,,,,,,None,,183.03882935000001,None,183.03882935000001,None,2022-01-25-14:42:31.891619,183.05242379999254,183.35243299999274,183.05242379999254,None,None,183.05242379999254,None,183.85209605001728,None,,,,11005,0002,2022_Jan_25_1439,localizer,2021.1.3,59.88257027087956,
block,objects,objects077.bmp,,,,,0,39,39,39,,,,,,,,,,,,,,,,,,,,,,,,,,,,,,,,,,,,,,,,,,None,,183.85209605001728,None,183.85209605001728,None,2022-01-25-14:42:32.701940,183.85355709999567,184.16917639999883,183.85355709999567,None,None,183.85355709999567,None,184.66889825000544,None,,,,11005,0002,2022_Jan_25_1439,localizer,2021.1.3,59.88257027087956,
block,objects,objects039.bmp,,,,,0,40,40,40,,,,,,,,,,,,,,,,,,,,,,,,,,,,,,,,,,,,,,,,,,None,,184.66889825000544,None,184.66889825000544,None,2022-01-25-14:42:33.518949,184.67008840001654,184.98579429998063,184.67008840001654,None,None,184.67008840001654,None,185.46910914996988,None,,,,11005,0002,2022_Jan_25_1439,localizer,2021.1.3,59.88257027087956,
block,objects,objects019.bmp,,,,,0,41,41,41,,,,,,,,,,,,,,,,,,,,,,,,,,,,,,,,,,,,,,,,,,None,,185.46910914996988,None,185.46910914996988,None,2022-01-25-14:42:34.320361,185.47016750002513,185.7858956999844,185.47016750002513,185.47016750002513,None,185.47016750002513,185.47016750002513,186.2854791499849,None,,,,11005,0002,2022_Jan_25_1439,localizer,2021.1.3,59.88257027087956,
block,objects,objects064.bmp,,,,,0,42,42,42,,,,,,,,,,,,,,,,,,,,,,,,,,,,,,,,,,,,,,,,,,None,,186.2854791499849,None,186.2854791499849,None,2022-01-25-14:42:35.135324,186.2909975000075,186.60243859997718,186.2909975000075,None,None,186.2909975000075,None,187.10267645001295,None,,,,11005,0002,2022_Jan_25_1439,localizer,2021.1.3,59.88257027087956,
block,objects,objects059.bmp,,,,,0,43,43,43,,,,,,,,,,,,,,,,,,,,,,,,,,,,,,,,,,,,,,,,,,None,,187.10267645001295,None,187.10267645001295,None,2022-01-25-14:42:35.952662,187.11381670000264,187.4192061999929,187.11381670000264,None,None,187.11381670000264,None,187.91920214999118,None,,,,11005,0002,2022_Jan_25_1439,localizer,2021.1.3,59.88257027087956,
block_end,objects,objects033.bmp,,,,,0,44,44,44,,,,,,,,,,,,,,,,,,,,,,,,,,,,,,,,,,,,,,,,,,None,,187.91920214999118,None,187.91920214999118,None,2022-01-25-14:42:36.769092,187.93039110000245,188.23594739998225,187.93039110000245,None,None,187.93039110000245,None,188.73656595000648,None,,,,11005,0002,2022_Jan_25_1439,localizer,2021.1.3,59.88257027087956,
block_start,faces,faces065.bmp,,,,,0,45,45,45,,,,,,,,,,,,,,,,,,,,,,,,,,,,,,,,,,,,,,,,,,t,1.7511501999688335,188.73700040002586,None,188.73700040002586,None,2022-01-25-14:42:39.357025,190.526209499978,190.8357299999916,190.526209499978,None,None,190.526209499978,None,191.31913804999203,None,,,,11005,0002,2022_Jan_25_1439,localizer,2021.1.3,59.88257027087956,
block,faces,faces062.bmp,,,,,0,46,46,46,,,,,,,,,,,,,,,,,,,,,,,,,,,,,,,,,,,,,,,,,,None,,191.31913804999203,None,191.31913804999203,None,2022-01-25-14:42:40.169162,191.3204032999929,191.63614939997206,191.3204032999929,None,None,191.3204032999929,None,192.1200792499876,None,,,,11005,0002,2022_Jan_25_1439,localizer,2021.1.3,59.88257027087956,
block,faces,faces076.bmp,,,,,0,47,47,47,,,,,,,,,,,,,,,,,,,,,,,,,,,,,,,,,,,,,,,,,,None,,192.1200792499876,None,192.1200792499876,None,2022-01-25-14:42:40.973046,192.12285029998748,192.43656250002095,192.12285029998748,192.12285029998748,None,192.12285029998748,192.12285029998748,192.9361758500163,None,,,,11005,0002,2022_Jan_25_1439,localizer,2021.1.3,59.88257027087956,
block,faces,faces073.bmp,,,,,0,48,48,48,,,,,,,,,,,,,,,,,,,,,,,,,,,,,,,,,,,,,,,,,,None,,192.9361758500163,None,192.9361758500163,None,2022-01-25-14:42:41.786009,192.94710719998693,193.2524623000063,192.94710719998693,None,None,192.94710719998693,None,193.7522136500047,None,,,,11005,0002,2022_Jan_25_1439,localizer,2021.1.3,59.88257027087956,
block,faces,faces033.bmp,,,,,0,49,49,49,,,,,,,,,,,,,,,,,,,,,,,,,,,,,,,,,,,,,,,,,,None,,193.7522136500047,None,193.7522136500047,None,2022-01-25-14:42:42.602254,193.75351539999247,194.06931320001604,193.75351539999247,None,None,193.75351539999247,None,194.5691805500246,None,,,,11005,0002,2022_Jan_25_1439,localizer,2021.1.3,59.88257027087956,
block,faces,faces079.bmp,,,,,0,50,50,50,,,,,,,,,,,,,,,,,,,,,,,,,,,,,,,,,,,,,,,,,,None,,194.5691805500246,None,194.5691805500246,None,2022-01-25-14:42:43.419021,194.57017129997257,194.88626060000388,194.57017129997257,None,None,194.57017129997257,None,195.38583964997088,None,,,,11005,0002,2022_Jan_25_1439,localizer,2021.1.3,59.88257027087956,
block,faces,faces087.bmp,,,,,0,51,51,51,,,,,,,,,,,,,,,,,,,,,,,,,,,,,,,,,,,,,,,,,,None,,195.38583964997088,None,195.38583964997088,None,2022-01-25-14:42:44.235680,195.3867867999943,195.68647640000563,195.3867867999943,None,None,195.3867867999943,None,196.20223334999173,None,,,,11005,0002,2022_Jan_25_1439,localizer,2021.1.3,59.88257027087956,
block,faces,faces034.bmp,,,,,0,52,52,52,,,,,,,,,,,,,,,,,,,,,,,,,,,,,,,,,,,,,,,,,,None,,196.20223334999173,None,196.20223334999173,None,2022-01-25-14:42:45.052078,196.21247570001287,196.51917200000025,196.21247570001287,None,None,196.21247570001287,None,197.01904625000316,None,,,,11005,0002,2022_Jan_25_1439,localizer,2021.1.3,59.88257027087956,
block,faces,faces039.bmp,,,,,0,53,53,53,,,,,,,,,,,,,,,,,,,,,,,,,,,,,,,,,,,,,,,,,,None,,197.01904625000316,None,197.01904625000316,None,2022-01-25-14:42:45.869100,197.03215639997507,197.33600439998554,197.03215639997507,None,None,197.03215639997507,None,197.83567655002116,None,,,,11005,0002,2022_Jan_25_1439,localizer,2021.1.3,59.88257027087956,
block,faces,faces025.bmp,,,,,0,54,54,54,,,,,,,,,,,,,,,,,,,,,,,,,,,,,,,,,,,,,,,,,,None,,197.83567655002116,None,197.83567655002116,None,2022-01-25-14:42:46.685519,197.84236750000855,198.15261340001598,197.84236750000855,None,None,197.84236750000855,None,198.6525041499699,None,,,,11005,0002,2022_Jan_25_1439,localizer,2021.1.3,59.88257027087956,
block,faces,faces067.bmp,,,,,0,55,55,55,,,,,,,,,,,,,,,,,,,,,,,,,,,,,,,,,,,,,,,,,,None,,198.6525041499699,None,198.6525041499699,None,2022-01-25-14:42:47.502343,198.66361089999555,198.96964790002676,198.66361089999555,None,None,198.66361089999555,None,199.46902094999678,None,,,,11005,0002,2022_Jan_25_1439,localizer,2021.1.3,59.88257027087956,
block,faces,faces047.bmp,,,,,0,56,56,56,,,,,,,,,,,,,,,,,,,,,,,,,,,,,,,,,,,,,,,,,,None,,199.46902094999678,None,199.46902094999678,None,2022-01-25-14:42:48.319029,199.48630009999033,199.7862284000148,199.48630009999033,None,None,199.48630009999033,None,200.2866886499978,None,,,,11005,0002,2022_Jan_25_1439,localizer,2021.1.3,59.88257027087956,
block,faces,faces050.bmp,,,,,0,57,57,57,,,,,,,,,,,,,,,,,,,,,,,,,,,,,,,,,,,,,,,,,,None,,200.2866886499978,None,200.2866886499978,None,2022-01-25-14:42:49.136525,200.29768139997032,200.6028942000121,200.29768139997032,None,None,200.29768139997032,None,201.1025790499698,None,,,,11005,0002,2022_Jan_25_1439,localizer,2021.1.3,59.88257027087956,
block,faces,faces044.bmp,,,,,0,58,58,58,,,,,,,,,,,,,,,,,,,,,,,,,,,,,,,,,,,,,,,,,,None,,201.1025790499698,None,201.1025790499698,None,2022-01-25-14:42:49.952482,201.11360679997597,201.4193004000117,201.11360679997597,None,None,201.11360679997597,None,201.91905604998465,None,,,,11005,0002,2022_Jan_25_1439,localizer,2021.1.3,59.88257027087956,
block_end,faces,faces057.bmp,,,,,0,59,59,59,,,,,,,,,,,,,,,,,,,,,,,,,,,,,,,,,,,,,,,,,,None,,201.91905604998465,None,201.91905604998465,None,2022-01-25-14:42:50.768898,201.93143330002204,202.23609959997702,201.93143330002204,None,None,201.93143330002204,None,202.735420550016,None,,,,11005,0002,2022_Jan_25_1439,localizer,2021.1.3,59.88257027087956,
null_block,null_block,null_block.bmp,,,,,0,60,60,60,,,,,,,,,,,,,,,,,,,,,,,,,,,,,,,,,,,,,,,,,,t,1.7524803999694996,202.73587550001685,None,202.73587550001685,None,2022-01-25-14:42:53.361459,204.50901284997235,None,204.50901284997235,None,None,204.50901284997235,None,204.51778759999434,None,,,,11005,0002,2022_Jan_25_1439,localizer,2021.1.3,59.88257027087956,
block_start,objects,objects044.bmp,,,,,0,61,61,61,,,,,,,,,,,,,,,,,,,,,,,,,,,,,,,,,,,,,,,,,,t,1.9679838999873027,216.51990870002192,None,216.51990870002192,None,2022-01-25-14:43:07.369653,218.52022579999175,218.83583729999373,218.52022579999175,None,None,218.52022579999175,None,219.31925685002352,None,,,,11005,0002,2022_Jan_25_1439,localizer,2021.1.3,59.88257027087956,
block,objects,objects029.bmp,,,,,0,62,62,62,,,,,,,,,,,,,,,,,,,,,,,,,,,,,,,,,,,,,,,,,,None,,219.31925685002352,None,219.31925685002352,None,2022-01-25-14:43:08.171296,219.32025679998333,219.6360229999991,219.32025679998333,219.32025679998333,None,219.32025679998333,219.32025679998333,220.13578325000708,None,,,,11005,0002,2022_Jan_25_1439,localizer,2021.1.3,59.88257027087956,
block,objects,objects031.bmp,,,,,0,63,63,63,,,,,,,,,,,,,,,,,,,,,,,,,,,,,,,,,,,,,,,,,,None,,220.13578325000708,None,220.13578325000708,None,2022-01-25-14:43:08.985624,220.14606250001816,220.452979099995,220.14606250001816,None,None,220.14606250001816,None,220.95241935001104,None,,,,11005,0002,2022_Jan_25_1439,localizer,2021.1.3,59.88257027087956,
block,objects,objects022.bmp,,,,,0,64,64,64,,,,,,,,,,,,,,,,,,,,,,,,,,,,,,,,,,,,,,,,,,None,,220.95241935001104,None,220.95241935001104,None,2022-01-25-14:43:09.802264,220.95362759998534,221.25330789998407,220.95362759998534,None,None,220.95362759998534,None,221.75296305000666,None,,,,11005,0002,2022_Jan_25_1439,localizer,2021.1.3,59.88257027087956,
block,objects,objects041.bmp,,,,,0,65,65,65,,,,,,,,,,,,,,,,,,,,,,,,,,,,,,,,,,,,,,,,,,None,,221.75296305000666,None,221.75296305000666,None,2022-01-25-14:43:10.604941,221.75537670002086,222.0696947000106,221.75537670002086,221.75537670002086,None,221.75537670002086,221.75537670002086,222.56945104998886,None,,,,11005,0002,2022_Jan_25_1439,localizer,2021.1.3,59.88257027087956,
block,objects,objects046.bmp,,,,,0,66,66,66,,,,,,,,,,,,,,,,,,,,,,,,,,,,,,,,,,,,,,,,,,None,,222.56945104998886,None,222.56945104998886,None,2022-01-25-14:43:11.419483,222.5702948999824,222.8697331000003,222.5702948999824,None,None,222.5702948999824,None,223.36933874999522,None,,,,11005,0002,2022_Jan_25_1439,localizer,2021.1.3,59.88257027087956,
block,objects,objects087.bmp,,,,,0,67,67,67,,,,,,,,,,,,,,,,,,,,,,,,,,,,,,,,,,,,,,,,,,None,,223.36933874999522,None,223.36933874999522,None,2022-01-25-14:43:12.221366,223.3716266999836,223.69322209997335,223.3716266999836,223.3716266999836,None,223.3716266999836,223.3716266999836,224.18628754999372,None,,,,11005,0002,2022_Jan_25_1439,localizer,2021.1.3,59.88257027087956,
block,objects,objects077.bmp,,,,,0,68,68,68,,,,,,,,,,,,,,,,,,,,,,,,,,,,,,,,,,,,,,,,,,None,,224.18628754999372,None,224.18628754999372,None,2022-01-25-14:43:13.036572,224.18722750002053,224.50235899997642,224.18722750002053,None,None,224.18722750002053,None,225.00283984999987,None,,,,11005,0002,2022_Jan_25_1439,localizer,2021.1.3,59.88257027087956,
block,objects,objects067.bmp,,,,,0,69,69,69,,,,,,,,,,,,,,,,,,,,,,,,,,,,,,,,,,,,,,,,,,None,,225.00283984999987,None,225.00283984999987,None,2022-01-25-14:43:13.852654,225.0036475000088,225.30315400002291,225.0036475000088,None,None,225.0036475000088,None,225.80277565002325,None,,,,11005,0002,2022_Jan_25_1439,localizer,2021.1.3,59.88257027087956,
block,objects,objects021.bmp,,,,,0,70,70,70,,,,,,,,,,,,,,,,,,,,,,,,,,,,,,,,,,,,,,,,,,None,,225.80277565002325,None,225.80277565002325,None,2022-01-25-14:43:14.654814,225.81609590002336,226.119863800006,225.81609590002336,225.81609590002336,None,225.81609590002336,225.81609590002336,226.61902045001625,None,,,,11005,0002,2022_Jan_25_1439,localizer,2021.1.3,59.88257027087956,
block,objects,objects006.bmp,,,,,0,71,71,71,,,,,,,,,,,,,,,,,,,,,,,,,,,,,,,,,,,,,,,,,,None,,226.61902045001625,None,226.61902045001625,None,2022-01-25-14:43:15.468866,226.62789780000458,226.935960599978,226.62789780000458,None,None,226.62789780000458,None,227.43578734996845,None,,,,11005,0002,2022_Jan_25_1439,localizer,2021.1.3,59.88257027087956,
block,objects,objects008.bmp,,,,,0,72,72,72,,,,,,,,,,,,,,,,,,,,,,,,,,,,,,,,,,,,,,,,,,None,,227.43578734996845,None,227.43578734996845,None,2022-01-25-14:43:16.285630,227.43700939998962,227.73726199998055,227.43700939998962,None,None,227.43700939998962,None,228.25248044999898,None,,,,11005,0002,2022_Jan_25_1439,localizer,2021.1.3,59.88257027087956,
block,objects,objects059.bmp,,,,,0,73,73,73,,,,,,,,,,,,,,,,,,,,,,,,,,,,,,,,,,,,,,,,,,None,,228.25248044999898,None,228.25248044999898,None,2022-01-25-14:43:17.102324,228.25375520001398,228.56950460001826,228.25375520001398,None,None,228.25375520001398,None,229.06916315000854,None,,,,11005,0002,2022_Jan_25_1439,localizer,2021.1.3,59.88257027087956,
block,objects,objects049.bmp,,,,,0,74,74,74,,,,,,,,,,,,,,,,,,,,,,,,,,,,,,,,,,,,,,,,,,None,,229.06916315000854,None,229.06916315000854,None,2022-01-25-14:43:17.919202,229.070333199983,229.38613270001952,229.070333199983,None,None,229.070333199983,None,229.8857187499816,None,,,,11005,0002,2022_Jan_25_1439,localizer,2021.1.3,59.88257027087956,
block_end,objects,objects061.bmp,,,,,0,75,75,75,,,,,,,,,,,,,,,,,,,,,,,,,,,,,,,,,,,,,,,,,,None,,229.8857187499816,None,229.8857187499816,None,2022-01-25-14:43:18.735563,229.89542890002485,230.20295830001123,229.89542890002485,None,None,229.89542890002485,None,230.70254744999693,None,,,,11005,0002,2022_Jan_25_1439,localizer,2021.1.3,59.88257027087956,
block_start,scrambled,scrambled076.bmp,,,,,0,76,76,76,,,,,,,,,,,,,,,,,,,,,,,,,,,,,,,,,,,,,,,,,,t,1.7852042999584228,230.70294330001343,None,230.70294330001343,None,2022-01-25-14:43:21.361807,232.51454459998058,232.8206204000162,232.51454459998058,None,None,232.51454459998058,None,233.31886344999657,None,,,,11005,0002,2022_Jan_25_1439,localizer,2021.1.3,59.88257027087956,
block,scrambled,scrambled042.bmp,,,,,0,77,77,77,,,,,,,,,,,,,,,,,,,,,,,,,,,,,,,,,,,,,,,,,,None,,233.31886344999657,None,233.31886344999657,None,2022-01-25-14:43:22.167716,233.32110130001092,233.636011399969,233.32110130001092,None,None,233.32110130001092,None,234.13590824996936,None,,,,11005,0002,2022_Jan_25_1439,localizer,2021.1.3,59.88257027087956,
block,scrambled,scrambled059.bmp,,,,,0,78,78,78,,,,,,,,,,,,,,,,,,,,,,,,,,,,,,,,,,,,,,,,,,None,,234.13590824996936,None,234.13590824996936,None,2022-01-25-14:43:22.985840,234.14609459997155,234.45497630001046,234.14609459997155,None,None,234.14609459997155,None,234.9530551500211,None,,,,11005,0002,2022_Jan_25_1439,localizer,2021.1.3,59.88257027087956,
block,scrambled,scrambled082.bmp,,,,,0,79,79,79,,,,,,,,,,,,,,,,,,,,,,,,,,,,,,,,,,,,,,,,,,None,,234.9530551500211,None,234.9530551500211,None,2022-01-25-14:43:23.803308,234.96411349996924,235.26953829999547,234.96411349996924,None,None,234.96411349996924,None,235.7697775499837,None,,,,11005,0002,2022_Jan_25_1439,localizer,2021.1.3,59.88257027087956,
block,scrambled,scrambled068.bmp,,,,,0,80,80,80,,,,,,,,,,,,,,,,,,,,,,,,,,,,,,,,,,,,,,,,,,None,,235.7697775499837,None,235.7697775499837,None,2022-01-25-14:43:24.619802,235.78089340002043,236.08604919997742,235.78089340002043,None,None,235.78089340002043,None,236.5755183499714,None,,,,11005,0002,2022_Jan_25_1439,localizer,2021.1.3,59.88257027087956,
block,scrambled,scrambled043.bmp,,,,,0,81,81,81,,,,,,,,,,,,,,,,,,,,,,,,,,,,,,,,,,,,,,,,,,None,,236.5755183499714,None,236.5755183499714,None,2022-01-25-14:43:25.428305,236.589276099985,236.90265850001015,236.589276099985,None,None,236.589276099985,None,237.38572724998812,None,,,,11005,0002,2022_Jan_25_1439,localizer,2021.1.3,59.88257027087956,
block,scrambled,scrambled079.bmp,,,,,0,82,82,82,,,,,,,,,,,,,,,,,,,,,,,,,,,,,,,,,,,,,,,,,,None,,237.38572724998812,None,237.38572724998812,None,2022-01-25-14:43:26.235800,237.38711529999273,237.70281639997847,237.38711529999273,None,None,237.38711529999273,None,238.20230425000773,None,,,,11005,0002,2022_Jan_25_1439,localizer,2021.1.3,59.88257027087956,
block,scrambled,scrambled045.bmp,,,,,0,83,83,83,,,,,,,,,,,,,,,,,,,,,,,,,,,,,,,,,,,,,,,,,,None,,238.20230425000773,None,238.20230425000773,None,2022-01-25-14:43:27.052148,238.21289179997984,238.519382199971,238.21289179997984,None,None,238.21289179997984,None,239.0080595499894,None,,,,11005,0002,2022_Jan_25_1439,localizer,2021.1.3,59.88257027087956,
block,scrambled,scrambled063.bmp,,,,,0,84,84,84,,,,,,,,,,,,,,,,,,,,,,,,,,,,,,,,,,,,,,,,,,None,,239.0080595499894,None,239.0080595499894,None,2022-01-25-14:43:27.860830,239.01672499999404,239.31933700002264,239.01672499999404,None,None,239.01672499999404,None,239.81889025002602,None,,,,11005,0002,2022_Jan_25_1439,localizer,2021.1.3,59.88257027087956,
block,scrambled,scrambled037.bmp,,,,,0,85,85,85,,,,,,,,,,,,,,,,,,,,,,,,,,,,,,,,,,,,,,,,,,None,,239.81889025002602,None,239.81889025002602,None,2022-01-25-14:43:28.668721,239.8205904000206,240.13597890001256,239.8205904000206,None,None,239.8205904000206,None,240.63601844999357,None,,,,11005,0002,2022_Jan_25_1439,localizer,2021.1.3,59.88257027087956,
block,scrambled,scrambled003.bmp,,,,,0,86,86,86,,,,,,,,,,,,,,,,,,,,,,,,,,,,,,,,,,,,,,,,,,None,,240.63601844999357,None,240.63601844999357,None,2022-01-25-14:43:29.485860,240.64582630002405,240.95251949998783,240.64582630002405,None,None,240.64582630002405,None,241.45321054998203,None,,,,11005,0002,2022_Jan_25_1439,localizer,2021.1.3,59.88257027087956,
block,scrambled,scrambled035.bmp,,,,,0,87,87,87,,,,,,,,,,,,,,,,,,,,,,,,,,,,,,,,,,,,,,,,,,None,,241.45321054998203,None,241.45321054998203,None,2022-01-25-14:43:30.303043,241.46411719999742,241.7693459999864,241.46411719999742,None,None,241.46411719999742,None,242.26896054999088,None,,,,11005,0002,2022_Jan_25_1439,localizer,2021.1.3,59.88257027087956,
block,scrambled,scrambled038.bmp,,,,,0,88,88,88,,,,,,,,,,,,,,,,,,,,,,,,,,,,,,,,,,,,,,,,,,None,,242.26896054999088,None,242.26896054999088,None,2022-01-25-14:43:31.118803,242.2703742000158,242.58625430002576,242.2703742000158,None,None,242.2703742000158,None,243.07256994998897,None,,,,11005,0002,2022_Jan_25_1439,localizer,2021.1.3,59.88257027087956,
block,scrambled,scrambled061.bmp,,,,,0,89,89,89,,,,,,,,,,,,,,,,,,,,,,,,,,,,,,,,,,,,,,,,,,None,,243.07256994998897,None,243.07256994998897,None,2022-01-25-14:43:31.927507,243.0785272999783,243.38675260002492,243.0785272999783,243.0785272999783,None,243.0785272999783,243.0785272999783,243.88638955002534,None,,,,11005,0002,2022_Jan_25_1439,localizer,2021.1.3,59.88257027087956,
block_end,scrambled,scrambled017.bmp,,,,,0,90,90,90,,,,,,,,,,,,,,,,,,,,,,,,,,,,,,,,,,,,,,,,,,None,,243.88638955002534,None,243.88638955002534,None,2022-01-25-14:43:32.736414,243.8974095999729,244.20261460001348,243.8974095999729,None,None,243.8974095999729,None,244.7023736500123,None,,,,11005,0002,2022_Jan_25_1439,localizer,2021.1.3,59.88257027087956,
block_start,scenes,scenes045.bmp,,,,,0,91,91,91,,,,,,,,,,,,,,,,,,,,,,,,,,,,,,,,,,,,,,,,,,t,1.7852426000172272,244.7026799999876,None,244.7026799999876,None,2022-01-25-14:43:35.367695,246.52117329998873,246.83588969998527,246.52117329998873,None,None,246.52117329998873,None,247.3358399499848,None,,,,11005,0002,2022_Jan_25_1439,localizer,2021.1.3,59.88257027087956,
block,scenes,scenes028.bmp,,,,,0,92,92,92,,,,,,,,,,,,,,,,,,,,,,,,,,,,,,,,,,,,,,,,,,None,,247.3358399499848,None,247.3358399499848,None,2022-01-25-14:43:36.185916,247.33719250001013,247.65370189998066,247.33719250001013,None,None,247.33719250001013,None,248.1527476500196,None,,,,11005,0002,2022_Jan_25_1439,localizer,2021.1.3,59.88257027087956,
block,scenes,scenes011.bmp,,,,,0,93,93,93,,,,,,,,,,,,,,,,,,,,,,,,,,,,,,,,,,,,,,,,,,None,,248.1527476500196,None,248.1527476500196,None,2022-01-25-14:43:37.002790,248.15378649998456,248.45309919997817,248.15378649998456,None,None,248.15378649998456,None,248.96933795002406,None,,,,11005,0002,2022_Jan_25_1439,localizer,2021.1.3,59.88257027087956,
block,scenes,scenes092.bmp,,,,,0,94,94,94,,,,,,,,,,,,,,,,,,,,,,,,,,,,,,,,,,,,,,,,,,None,,248.96933795002406,None,248.96933795002406,None,2022-01-25-14:43:37.818308,248.9711328999838,249.28617289999966,248.9711328999838,None,None,248.9711328999838,None,249.77024695000728,None,,,,11005,0002,2022_Jan_25_1439,localizer,2021.1.3,59.88257027087956,
block,scenes,scenes021.bmp,,,,,0,95,95,95,,,,,,,,,,,,,,,,,,,,,,,,,,,,,,,,,,,,,,,,,,None,,249.77024695000728,None,249.77024695000728,None,2022-01-25-14:43:38.623251,249.78490289999172,250.08728009997867,249.78490289999172,249.78490289999172,None,249.78490289999172,249.78490289999172,250.58591155000613,None,,,,11005,0002,2022_Jan_25_1439,localizer,2021.1.3,59.88257027087956,
block,scenes,scenes016.bmp,,,,,0,96,96,96,,,,,,,,,,,,,,,,,,,,,,,,,,,,,,,,,,,,,,,,,,None,,250.58591155000613,None,250.58591155000613,None,2022-01-25-14:43:39.434976,250.60184730001492,250.9028511000215,250.60184730001492,None,None,250.60184730001492,None,251.4237942499749,None,,,,11005,0002,2022_Jan_25_1439,localizer,2021.1.3,59.88257027087956,
block,scenes,scenes027.bmp,,,,,0,97,97,97,,,,,,,,,,,,,,,,,,,,,,,,,,,,,,,,,,,,,,,,,,None,,251.4237942499749,None,251.4237942499749,None,2022-01-25-14:43:40.272684,251.42174499999965,251.73626179998973,251.42174499999965,None,None,251.42174499999965,None,252.2357801500184,None,,,,11005,0002,2022_Jan_25_1439,localizer,2021.1.3,59.88257027087956,
block,scenes,scenes020.bmp,,,,,0,98,98,98,,,,,,,,,,,,,,,,,,,,,,,,,,,,,,,,,,,,,,,,,,None,,252.2357801500184,None,252.2357801500184,None,2022-01-25-14:43:41.085833,252.23730769997928,252.55265540000983,252.23730769997928,None,None,252.23730769997928,None,253.05213885000558,None,,,,11005,0002,2022_Jan_25_1439,localizer,2021.1.3,59.88257027087956,
block,scenes,scenes070.bmp,,,,,0,99,99,99,,,,,,,,,,,,,,,,,,,,,,,,,,,,,,,,,,,,,,,,,,None,,253.05213885000558,None,253.05213885000558,None,2022-01-25-14:43:41.900991,253.05731659999583,253.36944949999452,253.05731659999583,None,None,253.05731659999583,None,253.86927014999674,None,,,,11005,0002,2022_Jan_25_1439,localizer,2021.1.3,59.88257027087956,
block,scenes,scenes041.bmp,,,,,0,100,100,100,,,,,,,,,,,,,,,,,,,,,,,,,,,,,,,,,,,,,,,,,,None,,253.86927014999674,None,253.86927014999674,None,2022-01-25-14:43:42.719116,253.87060229998315,254.18666110001504,253.87060229998315,None,None,253.87060229998315,None,254.68572894998943,None,,,,11005,0002,2022_Jan_25_1439,localizer,2021.1.3,59.88257027087956,
block,scenes,scenes044.bmp,,,,,0,101,101,101,,,,,,,,,,,,,,,,,,,,,,,,,,,,,,,,,,,,,,,,,,None,,254.68572894998943,None,254.68572894998943,None,2022-01-25-14:43:43.534548,254.68738929997198,254.9926876000245,254.68738929997198,None,None,254.68738929997198,None,255.50201164997998,None,,,,11005,0002,2022_Jan_25_1439,localizer,2021.1.3,59.88257027087956,
block,scenes,scenes005.bmp,,,,,0,102,102,102,,,,,,,,,,,,,,,,,,,,,,,,,,,,,,,,,,,,,,,,,,None,,255.50201164997998,None,255.50201164997998,None,2022-01-25-14:43:44.350862,255.50392350001493,255.8195974000264,255.50392350001493,None,None,255.50392350001493,None,256.3192439499835,None,,,,11005,0002,2022_Jan_25_1439,localizer,2021.1.3,59.88257027087956,
block,scenes,scenes086.bmp,,,,,0,103,103,103,,,,,,,,,,,,,,,,,,,,,,,,,,,,,,,,,,,,,,,,,,None,,256.3192439499835,None,256.3192439499835,None,2022-01-25-14:43:45.169085,256.32899990002625,256.6360912999953,256.32899990002625,None,None,256.32899990002625,None,257.13582375002443,None,,,,11005,0002,2022_Jan_25_1439,localizer,2021.1.3,59.88257027087956,
block,scenes,scenes029.bmp,,,,,0,104,104,104,,,,,,,,,,,,,,,,,,,,,,,,,,,,,,,,,,,,,,,,,,None,,257.13582375002443,None,257.13582375002443,None,2022-01-25-14:43:45.985669,257.1469277999713,257.4535068999976,257.1469277999713,None,None,257.1469277999713,None,257.95248945002095,None,,,,11005,0002,2022_Jan_25_1439,localizer,2021.1.3,59.88257027087956,
block_end,scenes,scenes046.bmp,,,,,0,105,105,105,,,,,,,,,,,,,,,,,,,,,,,,,,,,,,,,,,,,,,,,,,None,,257.95248945002095,None,257.95248945002095,None,2022-01-25-14:43:46.802552,257.9540911000222,258.26973369996995,257.9540911000222,None,None,257.9540911000222,None,258.75310275002266,None,,,,11005,0002,2022_Jan_25_1439,localizer,2021.1.3,59.88257027087956,
block_start,faces,faces036.bmp,,,,,0,106,106,106,,,,,,,,,,,,,,,,,,,,,,,,,,,,,,,,,,,,,,,,,,t,1.734618299989961,258.75348830001894,None,258.75348830001894,None,2022-01-25-14:43:49.351343,260.51152040000306,260.81956769997487,260.51152040000306,None,None,260.51152040000306,None,261.31931675001397,None,,,,11005,0002,2022_Jan_25_1439,localizer,2021.1.3,59.88257027087956,
block,faces,faces048.bmp,,,,,0,107,107,107,,,,,,,,,,,,,,,,,,,,,,,,,,,,,,,,,,,,,,,,,,None,,261.31931675001397,None,261.31931675001397,None,2022-01-25-14:43:50.168361,261.33071650000056,261.6362248000223,261.33071650000056,None,None,261.33071650000056,None,262.13604644997395,None,,,,11005,0002,2022_Jan_25_1439,localizer,2021.1.3,59.88257027087956,
block,faces,faces070.bmp,,,,,0,108,108,108,,,,,,,,,,,,,,,,,,,,,,,,,,,,,,,,,,,,,,,,,,None,,262.13604644997395,None,262.13604644997395,None,2022-01-25-14:43:50.986012,262.1372661999776,262.4531728000147,262.1372661999776,None,None,262.1372661999776,None,262.9528668499843,None,,,,11005,0002,2022_Jan_25_1439,localizer,2021.1.3,59.88257027087956,
block,faces,faces070.bmp,,,,,0,109,109,109,,,,,,,,,,,,,,,,,,,,,,,,,,,,,,,,,,,,,,,,,,None,,262.9528668499843,None,262.9528668499843,None,2022-01-25-14:43:51.802922,262.95392950001406,263.26955959998304,262.95392950001406,None,y,262.95392950001406,None,263.75313454997377,None,0.4658041000366211,,,11005,0002,2022_Jan_25_1439,localizer,2021.1.3,59.88257027087956,
block,faces,faces077.bmp,,,,,0,110,110,110,,,,,,,,,,,,,,,,,,,,,,,,,,,,,,,,,,,,,,,,,,None,,263.75313454997377,None,263.75313454997377,None,2022-01-25-14:43:52.605163,263.7556787999929,264.07020630000625,263.7556787999929,263.7556787999929,None,263.7556787999929,263.7556787999929,264.569143849978,None,,,,11005,0002,2022_Jan_25_1439,localizer,2021.1.3,59.88257027087956,
block,faces,faces018.bmp,,,,,0,111,111,111,,,,,,,,,,,,,,,,,,,,,,,,,,,,,,,,,,,,,,,,,,None,,264.569143849978,None,264.569143849978,None,2022-01-25-14:43:53.418095,264.57754660001956,264.8868051000172,264.57754660001956,None,None,264.57754660001956,None,265.38591914999415,None,,,,11005,0002,2022_Jan_25_1439,localizer,2021.1.3,59.88257027087956,
block,faces,faces053.bmp,,,,,0,112,112,112,,,,,,,,,,,,,,,,,,,,,,,,,,,,,,,,,,,,,,,,,,None,,265.38591914999415,None,265.38591914999415,None,2022-01-25-14:43:54.235764,265.3948785000248,265.70289720001165,265.3948785000248,None,None,265.3948785000248,None,266.20212484998046,None,,,,11005,0002,2022_Jan_25_1439,localizer,2021.1.3,59.88257027087956,
block,faces,faces004.bmp,,,,,0,113,113,113,,,,,,,,,,,,,,,,,,,,,,,,,,,,,,,,,,,,,,,,,,None,,266.20212484998046,None,266.20212484998046,None,2022-01-25-14:43:55.050976,266.2043380999821,266.51914270001,266.2043380999821,None,None,266.2043380999821,None,267.0191364499915,None,,,,11005,0002,2022_Jan_25_1439,localizer,2021.1.3,59.88257027087956,
block,faces,faces015.bmp,,,,,0,114,114,114,,,,,,,,,,,,,,,,,,,,,,,,,,,,,,,,,,,,,,,,,,None,,267.0191364499915,None,267.0191364499915,None,2022-01-25-14:43:55.868987,267.03364620002685,267.33656319999136,267.03364620002685,None,None,267.03364620002685,None,267.83597335001105,None,,,,11005,0002,2022_Jan_25_1439,localizer,2021.1.3,59.88257027087956,
block,faces,faces061.bmp,,,,,0,115,115,115,,,,,,,,,,,,,,,,,,,,,,,,,,,,,,,,,,,,,,,,,,None,,267.83597335001105,None,267.83597335001105,None,2022-01-25-14:43:56.685814,267.8373460000148,268.1529569000122,267.8373460000148,None,None,267.8373460000148,None,268.65278505001334,None,,,,11005,0002,2022_Jan_25_1439,localizer,2021.1.3,59.88257027087956,
block,faces,faces081.bmp,,,,,0,116,116,116,,,,,,,,,,,,,,,,,,,,,,,,,,,,,,,,,,,,,,,,,,None,,268.65278505001334,None,268.65278505001334,None,2022-01-25-14:43:57.502809,268.6644076000084,268.96933049999643,268.6644076000084,None,None,268.6644076000084,None,269.4692245499755,None,,,,11005,0002,2022_Jan_25_1439,localizer,2021.1.3,59.88257027087956,
block,faces,faces002.bmp,,,,,0,117,117,117,,,,,,,,,,,,,,,,,,,,,,,,,,,,,,,,,,,,,,,,,,None,,269.4692245499755,None,269.4692245499755,None,2022-01-25-14:43:58.319078,269.47070399997756,269.78652869997313,269.47070399997756,None,None,269.47070399997756,None,270.286213149986,None,,,,11005,0002,2022_Jan_25_1439,localizer,2021.1.3,59.88257027087956,
block,faces,faces049.bmp,,,,,0,118,118,118,,,,,,,,,,,,,,,,,,,,,,,,,,,,,,,,,,,,,,,,,,None,,270.286213149986,None,270.286213149986,None,2022-01-25-14:43:59.136256,270.2871343999868,270.59026089997496,270.2871343999868,None,None,270.2871343999868,None,271.10217394997017,None,,,,11005,0002,2022_Jan_25_1439,localizer,2021.1.3,59.88257027087956,
block,faces,faces030.bmp,,,,,0,119,119,119,,,,,,,,,,,,,,,,,,,,,,,,,,,,,,,,,,,,,,,,,,None,,271.10217394997017,None,271.10217394997017,None,2022-01-25-14:43:59.951187,271.1114042000263,271.41972980002174,271.1114042000263,None,None,271.1114042000263,None,271.9194140499749,None,,,,11005,0002,2022_Jan_25_1439,localizer,2021.1.3,59.88257027087956,
block_end,faces,faces006.bmp,,,,,0,120,120,120,,,,,,,,,,,,,,,,,,,,,,,,,,,,,,,,,,,,,,,,,,None,,271.9194140499749,None,271.9194140499749,None,2022-01-25-14:44:00.769279,271.9207544000237,272.2365280999802,271.9207544000237,None,None,271.9207544000237,None,272.73649075001595,None,,,,11005,0002,2022_Jan_25_1439,localizer,2021.1.3,59.88257027087956,
null_block,null_block,null_block.bmp,,,,,0,121,121,121,,,,,,,,,,,,,,,,,,,,,,,,,,,,,,,,,,,,,,,,,,t,1.7515356999938376,272.73685990000376,None,272.73685990000376,None,2022-01-25-14:44:03.362018,274.50909924998996,None,274.50909924998996,None,None,274.50909924998996,None,274.5181982999784,None,,,,11005,0002,2022_Jan_25_1439,localizer,2021.1.3,59.88257027087956,
block_start,scrambled,scrambled004.bmp,,,,,0,122,122,122,,,,,,,,,,,,,,,,,,,,,,,,,,,,,,,,,,,,,,,,,,t,1.9686778000323102,286.51951610000106,None,286.51951610000106,None,2022-01-25-14:44:17.364562,288.5151633999776,288.81951960001606,288.5151633999776,None,None,288.5151633999776,None,289.3194892499887,None,,,,11005,0002,2022_Jan_25_1439,localizer,2021.1.3,59.88257027087956,
block,scrambled,scrambled084.bmp,,,,,0,123,123,123,,,,,,,,,,,,,,,,,,,,,,,,,,,,,,,,,,,,,,,,,,None,,289.3194892499887,None,289.3194892499887,None,2022-01-25-14:44:18.169452,289.33101299998816,289.63664199999766,289.33101299998816,None,None,289.33101299998816,None,290.1382472500263,None,,,,11005,0002,2022_Jan_25_1439,localizer,2021.1.3,59.88257027087956,
block,scrambled,scrambled006.bmp,,,,,0,124,124,124,,,,,,,,,,,,,,,,,,,,,,,,,,,,,,,,,,,,,,,,,,None,,290.1382472500263,None,290.1382472500263,None,2022-01-25-14:44:18.991089,290.15250039997045,290.4528670000145,290.15250039997045,None,None,290.15250039997045,None,290.95272695002495,None,,,,11005,0002,2022_Jan_25_1439,localizer,2021.1.3,59.88257027087956,
block,scrambled,scrambled028.bmp,,,,,0,125,125,125,,,,,,,,,,,,,,,,,,,,,,,,,,,,,,,,,,,,,,,,,,None,,290.95272695002495,None,290.95272695002495,None,2022-01-25-14:44:19.801794,290.9540804999997,291.26970940001775,290.9540804999997,None,None,290.9540804999997,None,291.769305349997,None,,,,11005,0002,2022_Jan_25_1439,localizer,2021.1.3,59.88257027087956,
block,scrambled,scrambled050.bmp,,,,,0,126,126,126,,,,,,,,,,,,,,,,,,,,,,,,,,,,,,,,,,,,,,,,,,None,,291.769305349997,None,291.769305349997,None,2022-01-25-14:44:20.619284,291.77942759997677,292.0876256999909,291.77942759997677,None,None,291.77942759997677,None,292.58736214999226,None,,,,11005,0002,2022_Jan_25_1439,localizer,2021.1.3,59.88257027087956,
block,scrambled,scrambled048.bmp,,,,,0,127,127,127,,,,,,,,,,,,,,,,,,,,,,,,,,,,,,,,,,,,,,,,,,None,,292.58736214999226,None,292.58736214999226,None,2022-01-25-14:44:21.438129,292.5885018000263,292.90304140001535,292.5885018000263,None,None,292.5885018000263,None,293.40290115002426,None,,,,11005,0002,2022_Jan_25_1439,localizer,2021.1.3,59.88257027087956,
block,scrambled,scrambled011.bmp,,,,,0,128,128,128,,,,,,,,,,,,,,,,,,,,,,,,,,,,,,,,,,,,,,,,,,None,,293.40290115002426,None,293.40290115002426,None,2022-01-25-14:44:22.252746,293.4041434000246,293.7197550999699,293.4041434000246,None,None,293.4041434000246,None,294.21947194999666,None,,,,11005,0002,2022_Jan_25_1439,localizer,2021.1.3,59.88257027087956,
block,scrambled,scrambled068.bmp,,,,,0,129,129,129,,,,,,,,,,,,,,,,,,,,,,,,,,,,,,,,,,,,,,,,,,None,,294.21947194999666,None,294.21947194999666,None,2022-01-25-14:44:23.069643,294.2206403000164,294.520429999975,294.2206403000164,None,None,294.2206403000164,None,295.01990265000495,None,,,,11005,0002,2022_Jan_25_1439,localizer,2021.1.3,59.88257027087956,
block,scrambled,scrambled076.bmp,,,,,0,130,130,130,,,,,,,,,,,,,,,,,,,,,,,,,,,,,,,,,,,,,,,,,,None,,295.01990265000495,None,295.01990265000495,None,2022-01-25-14:44:23.871884,295.0223578999867,295.3371928000124,295.0223578999867,295.0223578999867,None,295.0223578999867,295.0223578999867,295.83607504997053,None,,,,11005,0002,2022_Jan_25_1439,localizer,2021.1.3,59.88257027087956,
block,scrambled,scrambled072.bmp,,,,,0,131,131,131,,,,,,,,,,,,,,,,,,,,,,,,,,,,,,,,,,,,,,,,,,None,,295.83607504997053,None,295.83607504997053,None,2022-01-25-14:44:24.685918,295.84606780001195,296.1531248000101,295.84606780001195,None,None,295.84606780001195,None,296.6526669499872,None,,,,11005,0002,2022_Jan_25_1439,localizer,2021.1.3,59.88257027087956,
block,scrambled,scrambled016.bmp,,,,,0,132,132,132,,,,,,,,,,,,,,,,,,,,,,,,,,,,,,,,,,,,,,,,,,None,,296.6526669499872,None,296.6526669499872,None,2022-01-25-14:44:25.502524,296.6624204000109,296.9698084000265,296.6624204000109,None,None,296.6624204000109,None,297.45903524997993,None,,,,11005,0002,2022_Jan_25_1439,localizer,2021.1.3,59.88257027087956,
block,scrambled,scrambled010.bmp,,,,,0,133,133,133,,,,,,,,,,,,,,,,,,,,,,,,,,,,,,,,,,,,,,,,,,None,,297.45903524997993,None,297.45903524997993,None,2022-01-25-14:44:26.315852,297.46743969997624,297.7697838000022,297.46743969997624,None,None,297.46743969997624,None,298.26971044999664,None,,,,11005,0002,2022_Jan_25_1439,localizer,2021.1.3,59.88257027087956,
block,scrambled,scrambled060.bmp,,,,,0,134,134,134,,,,,,,,,,,,,,,,,,,,,,,,,,,,,,,,,,,,,,,,,,None,,298.26971044999664,None,298.26971044999664,None,2022-01-25-14:44:27.119549,298.27073129999917,298.5863483999856,298.27073129999917,None,None,298.27073129999917,None,299.0860117500124,None,,,,11005,0002,2022_Jan_25_1439,localizer,2021.1.3,59.88257027087956,
block,scrambled,scrambled056.bmp,,,,,0,135,135,135,,,,,,,,,,,,,,,,,,,,,,,,,,,,,,,,,,,,,,,,,,None,,299.0860117500124,None,299.0860117500124,None,2022-01-25-14:44:27.935856,299.08736609999323,299.4034319000202,299.08736609999323,None,None,299.08736609999323,None,299.90285485002096,None,,,,11005,0002,2022_Jan_25_1439,localizer,2021.1.3,59.88257027087956,
block_end,scrambled,scrambled049.bmp,,,,,0,136,136,136,,,,,,,,,,,,,,,,,,,,,,,,,,,,,,,,,,,,,,,,,,None,,299.90285485002096,None,299.90285485002096,None,2022-01-25-14:44:28.752910,299.90418319997843,300.22000309999567,299.90418319997843,None,None,299.90418319997843,None,300.71952994997264,None,,,,11005,0002,2022_Jan_25_1439,localizer,2021.1.3,59.88257027087956,
null_block,null_block,null_block.bmp,,,,,0,137,137,137,,,,,,,,,,,,,,,,,,,,,,,,,,,,,,,,,,,,,,,,,,t,1.7671660000341944,300.71999299997697,None,300.71999299997697,None,2022-01-25-14:44:31.358420,302.5075007499836,None,302.5075007499836,None,None,302.5075007499836,None,302.514471100003,None,,,,11005,0002,2022_Jan_25_1439,localizer,2021.1.3,59.88257027087956,
block_start,scenes,scenes081.bmp,,,,,0,138,138,138,,,,,,,,,,,,,,,,,,,,,,,,,,,,,,,,,,,,,,,,,,t,1.9668946000165306,314.5200556999771,None,314.5200556999771,None,2022-01-25-14:44:45.352574,316.50384820002364,316.80391279998,316.50384820002364,None,None,316.50384820002364,None,317.3030406500038,None,,,,11005,0002,2022_Jan_25_1439,localizer,2021.1.3,59.88257027087956,
block,scenes,scenes075.bmp,,,,,0,139,139,139,,,,,,,,,,,,,,,,,,,,,,,,,,,,,,,,,,,,,,,,,,None,,317.3030406500038,None,317.3030406500038,None,2022-01-25-14:44:46.154248,317.30453010002384,317.61993049999,317.30453010002384,317.30453010002384,None,317.30453010002384,317.30453010002384,318.11935805002577,None,,,,11005,0002,2022_Jan_25_1439,localizer,2021.1.3,59.88257027087956,
block,scenes,scenes032.bmp,,,,,0,140,140,140,,,,,,,,,,,,,,,,,,,,,,,,,,,,,,,,,,,,,,,,,,None,,318.11935805002577,None,318.11935805002577,None,2022-01-25-14:44:46.968208,318.1294241999858,318.43654439999955,318.1294241999858,None,None,318.1294241999858,None,318.93621034998796,None,,,,11005,0002,2022_Jan_25_1439,localizer,2021.1.3,59.88257027087956,
block,scenes,scenes009.bmp,,,,,0,141,141,141,,,,,,,,,,,,,,,,,,,,,,,,,,,,,,,,,,,,,,,,,,None,,318.93621034998796,None,318.93621034998796,None,2022-01-25-14:44:47.786223,318.93766310001956,319.253222099971,318.93766310001956,None,None,318.93766310001956,None,319.73735844998737,None,,,,11005,0002,2022_Jan_25_1439,localizer,2021.1.3,59.88257027087956,
block,scenes,scenes003.bmp,,,,,0,142,142,142,,,,,,,,,,,,,,,,,,,,,,,,,,,,,,,,,,,,,,,,,,None,,319.73735844998737,None,319.73735844998737,None,2022-01-25-14:44:48.590177,319.74083500000415,320.0531766000204,319.74083500000415,319.74083500000415,None,319.74083500000415,319.74083500000415,320.5526137500128,None,,,,11005,0002,2022_Jan_25_1439,localizer,2021.1.3,59.88257027087956,
block,scenes,scenes068.bmp,,,,,0,143,143,143,,,,,,,,,,,,,,,,,,,,,,,,,,,,,,,,,,,,,,,,,,None,,320.5526137500128,None,320.5526137500128,None,2022-01-25-14:44:49.401466,320.5548321999959,320.87033429997973,320.5548321999959,None,None,320.5548321999959,None,321.3697242500202,None,,,,11005,0002,2022_Jan_25_1439,localizer,2021.1.3,59.88257027087956,
block,scenes,scenes073.bmp,,,,,0,144,144,144,,,,,,,,,,,,,,,,,,,,,,,,,,,,,,,,,,,,,,,,,,None,,321.3697242500202,None,321.3697242500202,None,2022-01-25-14:44:50.219861,321.3716409999761,321.67106219998095,321.3716409999761,None,None,321.3716409999761,None,322.18625855000573,None,,,,11005,0002,2022_Jan_25_1439,localizer,2021.1.3,59.88257027087956,
block,scenes,scenes052.bmp,,,,,0,145,145,145,,,,,,,,,,,,,,,,,,,,,,,,,,,,,,,,,,,,,,,,,,None,,322.18625855000573,None,322.18625855000573,None,2022-01-25-14:44:51.036102,322.19682459998876,322.5081885000109,322.19682459998876,None,None,322.19682459998876,None,323.0035673500097,None,,,,11005,0002,2022_Jan_25_1439,localizer,2021.1.3,59.88257027087956,
block,scenes,scenes092.bmp,,,,,0,146,146,146,,,,,,,,,,,,,,,,,,,,,,,,,,,,,,,,,,,,,,,,,,None,,323.0035673500097,None,323.0035673500097,None,2022-01-25-14:44:51.854552,323.00468950002687,323.3205559999915,323.00468950002687,None,None,323.00468950002687,None,323.8199955500022,None,,,,11005,0002,2022_Jan_25_1439,localizer,2021.1.3,59.88257027087956,
block,scenes,scenes018.bmp,,,,,0,147,147,147,,,,,,,,,,,,,,,,,,,,,,,,,,,,,,,,,,,,,,,,,,None,,323.8199955500022,None,323.8199955500022,None,2022-01-25-14:44:52.669835,323.83018460002495,324.13717160001397,323.83018460002495,None,None,323.83018460002495,None,324.6366409500188,None,,,,11005,0002,2022_Jan_25_1439,localizer,2021.1.3,59.88257027087956,
block,scenes,scenes067.bmp,,,,,0,148,148,148,,,,,,,,,,,,,,,,,,,,,,,,,,,,,,,,,,,,,,,,,,None,,324.6366409500188,None,324.6366409500188,None,2022-01-25-14:44:53.486660,324.6478790999972,324.9533956000232,324.6478790999972,None,None,324.6478790999972,None,325.45346124997013,None,,,,11005,0002,2022_Jan_25_1439,localizer,2021.1.3,59.88257027087956,
block,scenes,scenes028.bmp,,,,,0,149,149,149,,,,,,,,,,,,,,,,,,,,,,,,,,,,,,,,,,,,,,,,,,None,,325.45346124997013,None,325.45346124997013,None,2022-01-25-14:44:54.303296,325.4545124999713,325.76996730000246,325.4545124999713,None,None,325.4545124999713,None,326.26977584997076,None,,,,11005,0002,2022_Jan_25_1439,localizer,2021.1.3,59.88257027087956,
block,scenes,scenes048.bmp,,,,,0,150,150,150,,,,,,,,,,,,,,,,,,,,,,,,,,,,,,,,,,,,,,,,,,None,,326.26977584997076,None,326.26977584997076,None,2022-01-25-14:44:55.119830,326.2867512999801,326.5862786999787,326.2867512999801,None,None,326.2867512999801,None,327.08606984998914,None,,,,11005,0002,2022_Jan_25_1439,localizer,2021.1.3,59.88257027087956,
block,scenes,scenes025.bmp,,,,,0,151,151,151,,,,,,,,,,,,,,,,,,,,,,,,,,,,,,,,,,,,,,,,,,None,,327.08606984998914,None,327.08606984998914,None,2022-01-25-14:44:55.935101,327.08857349999016,327.4037685000221,327.08857349999016,None,None,327.08857349999016,None,327.9035387499898,None,,,,11005,0002,2022_Jan_25_1439,localizer,2021.1.3,59.88257027087956,
block_end,scenes,scenes087.bmp,,,,,0,152,152,152,,,,,,,,,,,,,,,,,,,,,,,,,,,,,,,,,,,,,,,,,,None,,327.9035387499898,None,327.9035387499898,None,2022-01-25-14:44:56.754384,327.9156459000078,328.21988829999464,327.9156459000078,None,None,327.9156459000078,None,328.71953764997306,None,,,,11005,0002,2022_Jan_25_1439,localizer,2021.1.3,59.88257027087956,
block_start,objects,objects058.bmp,,,,,0,153,153,153,,,,,,,,,,,,,,,,,,,,,,,,,,,,,,,,,,,,,,,,,,t,1.767038699996192,328.7200053000124,None,328.7200053000124,None,2022-01-25-14:44:59.351944,330.51266190002207,330.82042880001245,330.51266190002207,None,None,330.51266190002207,None,331.31962235001265,None,,,,11005,0002,2022_Jan_25_1439,localizer,2021.1.3,59.88257027087956,
block,objects,objects005.bmp,,,,,0,154,154,154,,,,,,,,,,,,,,,,,,,,,,,,,,,,,,,,,,,,,,,,,,None,,331.31962235001265,None,331.31962235001265,None,2022-01-25-14:45:00.169438,331.32928399997763,331.6372291999869,331.32928399997763,None,None,331.32928399997763,None,332.13616465000086,None,,,,11005,0002,2022_Jan_25_1439,localizer,2021.1.3,59.88257027087956,
block,objects,objects076.bmp,,,,,0,155,155,155,,,,,,,,,,,,,,,,,,,,,,,,,,,,,,,,,,,,,,,,,,None,,332.13616465000086,None,332.13616465000086,None,2022-01-25-14:45:00.985014,332.14510319998953,332.4542363000219,332.14510319998953,None,None,332.14510319998953,None,332.95387464997475,None,,,,11005,0002,2022_Jan_25_1439,localizer,2021.1.3,59.88257027087956,
block,objects,objects004.bmp,,,,,0,156,156,156,,,,,,,,,,,,,,,,,,,,,,,,,,,,,,,,,,,,,,,,,,None,,332.95387464997475,None,332.95387464997475,None,2022-01-25-14:45:01.803683,332.96473599999445,333.269771799969,332.96473599999445,None,None,332.96473599999445,None,333.77000644998043,None,,,,11005,0002,2022_Jan_25_1439,localizer,2021.1.3,59.88257027087956,
block,objects,objects020.bmp,,,,,0,157,157,157,,,,,,,,,,,,,,,,,,,,,,,,,,,,,,,,,,,,,,,,,,None,,333.77000644998043,None,333.77000644998043,None,2022-01-25-14:45:02.619845,333.7710456000059,334.08658960001776,333.7710456000059,None,None,333.7710456000059,None,334.5863633500121,None,,,,11005,0002,2022_Jan_25_1439,localizer,2021.1.3,59.88257027087956,
block,objects,objects056.bmp,,,,,0,158,158,158,,,,,,,,,,,,,,,,,,,,,,,,,,,,,,,,,,,,,,,,,,None,,334.5863633500121,None,334.5863633500121,None,2022-01-25-14:45:03.436439,334.58761829999276,334.9034787999699,334.58761829999276,None,None,334.58761829999276,None,335.38837555001373,None,,,,11005,0002,2022_Jan_25_1439,localizer,2021.1.3,59.88257027087956,
block,objects,objects056.bmp,,,,,0,159,159,159,,,,,,,,,,,,,,,,,,,,,,,,,,,,,,,,,,,,,,,,,,None,,335.38837555001373,None,335.38837555001373,None,2022-01-25-14:45:04.243263,335.39409149996936,335.7039910000167,335.39409149996936,335.39409149996936,y,335.39409149996936,335.39409149996936,336.20365244997083,None,0.5018877999973483,,,11005,0002,2022_Jan_25_1439,localizer,2021.1.3,59.88257027087956,
block,objects,objects010.bmp,,,,,0,160,160,160,,,,,,,,,,,,,,,,,,,,,,,,,,,,,,,,,,,,,,,,,,None,,336.20365244997083,None,336.20365244997083,None,2022-01-25-14:45:05.053670,336.2149739000015,336.5199379000114,336.2149739000015,None,None,336.2149739000015,None,337.02029955000035,None,,,,11005,0002,2022_Jan_25_1439,localizer,2021.1.3,59.88257027087956,
block,objects,objects051.bmp,,,,,0,161,161,161,,,,,,,,,,,,,,,,,,,,,,,,,,,,,,,,,,,,,,,,,,None,,337.02029955000035,None,337.02029955000035,None,2022-01-25-14:45:05.870132,337.0211415999802,337.3206480999943,337.0211415999802,None,None,337.0211415999802,None,337.8202175500046,None,,,,11005,0002,2022_Jan_25_1439,localizer,2021.1.3,59.88257027087956,
block,objects,objects061.bmp,,,,,0,162,162,162,,,,,,,,,,,,,,,,,,,,,,,,,,,,,,,,,,,,,,,,,,None,,337.8202175500046,None,337.8202175500046,None,2022-01-25-14:45:06.673177,337.82355109998025,338.1373812999809,337.82355109998025,337.82355109998025,None,337.82355109998025,337.82355109998025,338.6368967499875,None,,,,11005,0002,2022_Jan_25_1439,localizer,2021.1.3,59.88257027087956,
block,objects,objects015.bmp,,,,,0,163,163,163,,,,,,,,,,,,,,,,,,,,,,,,,,,,,,,,,,,,,,,,,,None,,338.6368967499875,None,338.6368967499875,None,2022-01-25-14:45:07.487628,338.637890300015,338.9542222999735,338.637890300015,None,None,338.637890300015,None,339.45286714998656,None,,,,11005,0002,2022_Jan_25_1439,localizer,2021.1.3,59.88257027087956,
block,objects,objects024.bmp,,,,,0,164,164,164,,,,,,,,,,,,,,,,,,,,,,,,,,,,,,,,,,,,,,,,,,None,,339.45286714998656,None,339.45286714998656,None,2022-01-25-14:45:08.302967,339.46234740002546,339.7702696999768,339.46234740002546,None,None,339.46234740002546,None,340.2699180500058,None,,,,11005,0002,2022_Jan_25_1439,localizer,2021.1.3,59.88257027087956,
block,objects,objects017.bmp,,,,,0,165,165,165,,,,,,,,,,,,,,,,,,,,,,,,,,,,,,,,,,,,,,,,,,None,,340.2699180500058,None,340.2699180500058,None,2022-01-25-14:45:09.119948,340.28004959999816,340.5864026999916,340.28004959999816,None,None,340.28004959999816,None,341.0864743499842,None,,,,11005,0002,2022_Jan_25_1439,localizer,2021.1.3,59.88257027087956,
block,objects,objects029.bmp,,,,,0,166,166,166,,,,,,,,,,,,,,,,,,,,,,,,,,,,,,,,,,,,,,,,,,None,,341.0864743499842,None,341.0864743499842,None,2022-01-25-14:45:09.936627,341.0875597000122,341.40350760001456,341.0875597000122,None,None,341.0875597000122,None,341.88661795001826,None,,,,11005,0002,2022_Jan_25_1439,localizer,2021.1.3,59.88257027087956,
block_end,objects,objects078.bmp,,,,,0,167,167,167,,,,,,,,,,,,,,,,,,,,,,,,,,,,,,,,,,,,,,,,,,None,,341.88661795001826,None,341.88661795001826,None,2022-01-25-14:45:10.738552,341.8993493000162,342.2032720000134,341.8993493000162,341.8993493000162,None,341.8993493000162,341.8993493000162,342.70507205001195,None,,,,11005,0002,2022_Jan_25_1439,localizer,2021.1.3,59.88257027087956,
block_start,faces,faces061.bmp,,,,,0,168,168,168,,,,,,,,,,,,,,,,,,,,,,,,,,,,,,,,,,,,,,,,,,t,1.7797082999604754,342.7072523999959,None,342.7072523999959,None,2022-01-25-14:45:13.351926,344.50508199998876,344.82027460000245,344.50508199998876,None,None,344.50508199998876,None,345.3202943500073,None,,,,11005,0002,2022_Jan_25_1439,localizer,2021.1.3,59.88257027087956,
block,faces,faces034.bmp,,,,,0,169,169,169,,,,,,,,,,,,,,,,,,,,,,,,,,,,,,,,,,,,,,,,,,None,,345.3202943500073,None,345.3202943500073,None,2022-01-25-14:45:14.170112,345.3213324000244,345.621236099978,345.3213324000244,None,None,345.3213324000244,None,346.1360206500103,None,,,,11005,0002,2022_Jan_25_1439,localizer,2021.1.3,59.88257027087956,
block,faces,faces071.bmp,,,,,0,170,170,170,,,,,,,,,,,,,,,,,,,,,,,,,,,,,,,,,,,,,,,,,,None,,346.1360206500103,None,346.1360206500103,None,2022-01-25-14:45:14.984910,346.14146850002,346.45373369997833,346.14146850002,None,None,346.14146850002,None,346.9532957499905,None,,,,11005,0002,2022_Jan_25_1439,localizer,2021.1.3,59.88257027087956,
block,faces,faces056.bmp,,,,,0,171,171,171,,,,,,,,,,,,,,,,,,,,,,,,,,,,,,,,,,,,,,,,,,None,,346.9532957499905,None,346.9532957499905,None,2022-01-25-14:45:15.803443,346.95501799997874,347.27044809999643,346.95501799997874,None,None,346.95501799997874,None,347.77012495000963,None,,,,11005,0002,2022_Jan_25_1439,localizer,2021.1.3,59.88257027087956,
block,faces,faces052.bmp,,,,,0,172,172,172,,,,,,,,,,,,,,,,,,,,,,,,,,,,,,,,,,,,,,,,,,None,,347.77012495000963,None,347.77012495000963,None,2022-01-25-14:45:16.619880,347.77117969997926,348.08737199997995,347.77117969997926,None,None,347.77117969997926,None,348.5866181499732,None,,,,11005,0002,2022_Jan_25_1439,localizer,2021.1.3,59.88257027087956,
block,faces,faces004.bmp,,,,,0,173,173,173,,,,,,,,,,,,,,,,,,,,,,,,,,,,,,,,,,,,,,,,,,None,,348.5866181499732,None,348.5866181499732,None,2022-01-25-14:45:17.436690,348.58778649999294,348.9036036999896,348.58778649999294,None,None,348.58778649999294,None,349.4030759500165,None,,,,11005,0002,2022_Jan_25_1439,localizer,2021.1.3,59.88257027087956,
block,faces,faces003.bmp,,,,,0,174,174,174,,,,,,,,,,,,,,,,,,,,,,,,,,,,,,,,,,,,,,,,,,None,,349.4030759500165,None,349.4030759500165,None,2022-01-25-14:45:18.252920,349.41337129997555,349.71974159998354,349.41337129997555,None,None,349.41337129997555,None,350.2197303499852,None,,,,11005,0002,2022_Jan_25_1439,localizer,2021.1.3,59.88257027087956,
block,faces,faces043.bmp,,,,,0,175,175,175,,,,,,,,,,,,,,,,,,,,,,,,,,,,,,,,,,,,,,,,,,None,,350.2197303499852,None,350.2197303499852,None,2022-01-25-14:45:19.068790,350.22142770001665,350.5364721000078,350.22142770001665,None,None,350.22142770001665,None,351.02413514998625,None,,,,11005,0002,2022_Jan_25_1439,localizer,2021.1.3,59.88257027087956,
block,faces,faces028.bmp,,,,,0,176,176,176,,,,,,,,,,,,,,,,,,,,,,,,,,,,,,,,,,,,,,,,,,None,,351.02413514998625,None,351.02413514998625,None,2022-01-25-14:45:19.877244,351.0381736999843,351.353314100008,351.0381736999843,351.0381736999843,None,351.0381736999843,351.0381736999843,351.83621474998654,None,,,,11005,0002,2022_Jan_25_1439,localizer,2021.1.3,59.88257027087956,
block,faces,faces064.bmp,,,,,0,177,177,177,,,,,,,,,,,,,,,,,,,,,,,,,,,,,,,,,,,,,,,,,,None,,351.83621474998654,None,351.83621474998654,None,2022-01-25-14:45:20.686274,351.8459627000266,352.15345460001845,351.8459627000266,None,None,351.8459627000266,None,352.6531440500112,None,,,,11005,0002,2022_Jan_25_1439,localizer,2021.1.3,59.88257027087956,
block,faces,faces029.bmp,,,,,0,178,178,178,,,,,,,,,,,,,,,,,,,,,,,,,,,,,,,,,,,,,,,,,,None,,352.6531440500112,None,352.6531440500112,None,2022-01-25-14:45:21.502013,352.6641944000148,352.97614659997635,352.6641944000148,None,None,352.6641944000148,None,353.46960034998483,None,,,,11005,0002,2022_Jan_25_1439,localizer,2021.1.3,59.88257027087956,
block,faces,faces033.bmp,,,,,0,179,179,179,,,,,,,,,,,,,,,,,,,,,,,,,,,,,,,,,,,,,,,,,,None,,353.46960034998483,None,353.46960034998483,None,2022-01-25-14:45:22.319008,353.4721576999873,353.7868568999693,353.4721576999873,None,None,353.4721576999873,None,354.2863523499982,None,,,,11005,0002,2022_Jan_25_1439,localizer,2021.1.3,59.88257027087956,
block,faces,faces035.bmp,,,,,0,180,180,180,,,,,,,,,,,,,,,,,,,,,,,,,,,,,,,,,,,,,,,,,,None,,354.2863523499982,None,354.2863523499982,None,2022-01-25-14:45:23.135199,354.28849270002684,354.6038719000062,354.28849270002684,None,None,354.28849270002684,None,355.1035862500139,None,,,,11005,0002,2022_Jan_25_1439,localizer,2021.1.3,59.88257027087956,
block,faces,faces045.bmp,,,,,0,181,181,181,,,,,,,,,,,,,,,,,,,,,,,,,,,,,,,,,,,,,,,,,,None,,355.1035862500139,None,355.1035862500139,None,2022-01-25-14:45:23.953366,355.1048413999961,355.42017320002196,355.1048413999961,None,None,355.1048413999961,None,355.90441084999475,None,,,,11005,0002,2022_Jan_25_1439,localizer,2021.1.3,59.88257027087956,
block_end,faces,faces080.bmp,,,,,0,182,182,182,,,,,,,,,,,,,,,,,,,,,,,,,,,,,,,,,,,,,,,,,,None,,355.90441084999475,None,355.90441084999475,None,2022-01-25-14:45:24.759202,355.9259275000077,356.23681360000046,355.9259275000077,355.9259275000077,None,355.9259275000077,355.9259275000077,356.7195577500097,None,,,,11005,0002,2022_Jan_25_1439,localizer,2021.1.3,59.88257027087956,
block_start,scenes,scenes030.bmp,,,,,0,183,183,183,,,,,,,,,,,,,,,,,,,,,,,,,,,,,,,,,,,,,,,,,,t,1.7668068000348285,356.7201230999781,None,356.7201230999781,None,2022-01-25-14:45:27.350822,358.5051603000029,358.8205248999875,358.5051603000029,None,None,358.5051603000029,None,359.3042137499724,None,,,,11005,0002,2022_Jan_25_1439,localizer,2021.1.3,59.88257027087956,
block,scenes,scenes089.bmp,,,,,0,184,184,184,,,,,,,,,,,,,,,,,,,,,,,,,,,,,,,,,,,,,,,,,,None,,359.3042137499724,None,359.3042137499724,None,2022-01-25-14:45:28.157221,359.3214643999818,359.6213676999905,359.3214643999818,359.3214643999818,None,359.3214643999818,359.3214643999818,360.11990655001136,None,,,,11005,0002,2022_Jan_25_1439,localizer,2021.1.3,59.88257027087956,
block,scenes,scenes066.bmp,,,,,0,185,185,185,,,,,,,,,,,,,,,,,,,,,,,,,,,,,,,,,,,,,,,,,,None,,360.11990655001136,None,360.11990655001136,None,2022-01-25-14:45:28.968948,360.1303313000244,360.4373499000212,360.1303313000244,None,None,360.1303313000244,None,360.9371794499748,None,,,,11005,0002,2022_Jan_25_1439,localizer,2021.1.3,59.88257027087956,
block,scenes,scenes035.bmp,,,,,0,186,186,186,,,,,,,,,,,,,,,,,,,,,,,,,,,,,,,,,,,,,,,,,,None,,360.9371794499748,None,360.9371794499748,None,2022-01-25-14:45:29.787197,360.94922200002475,361.2538898999919,360.94922200002475,None,None,360.94922200002475,None,361.75350244998117,None,,,,11005,0002,2022_Jan_25_1439,localizer,2021.1.3,59.88257027087956,
block,scenes,scenes088.bmp,,,,,0,187,187,187,,,,,,,,,,,,,,,,,,,,,,,,,,,,,,,,,,,,,,,,,,None,,361.75350244998117,None,361.75350244998117,None,2022-01-25-14:45:30.603367,361.7545472999918,362.0705528000253,361.7545472999918,None,None,361.7545472999918,None,362.5695676500036,None,,,,11005,0002,2022_Jan_25_1439,localizer,2021.1.3,59.88257027087956,
block,scenes,scenes007.bmp,,,,,0,188,188,188,,,,,,,,,,,,,,,,,,,,,,,,,,,,,,,,,,,,,,,,,,None,,362.5695676500036,None,362.5695676500036,None,2022-01-25-14:45:31.418421,362.5824180999771,362.88671549997525,362.5824180999771,None,None,362.5824180999771,None,363.38751364997006,None,,,,11005,0002,2022_Jan_25_1439,localizer,2021.1.3,59.88257027087956,
block,scenes,scenes040.bmp,,,,,0,189,189,189,,,,,,,,,,,,,,,,,,,,,,,,,,,,,,,,,,,,,,,,,,None,,363.38751364997006,None,363.38751364997006,None,2022-01-25-14:45:32.237481,363.3888910000096,363.7048878999776,363.3888910000096,None,None,363.3888910000096,None,364.20422654997674,None,,,,11005,0002,2022_Jan_25_1439,localizer,2021.1.3,59.88257027087956,
block,scenes,scenes087.bmp,,,,,0,190,190,190,,,,,,,,,,,,,,,,,,,,,,,,,,,,,,,,,,,,,,,,,,None,,364.20422654997674,None,364.20422654997674,None,2022-01-25-14:45:33.055189,364.2055460999836,364.5067678000196,364.2055460999836,None,None,364.2055460999836,None,365.01961084999493,None,,,,11005,0002,2022_Jan_25_1439,localizer,2021.1.3,59.88257027087956,
block,scenes,scenes005.bmp,,,,,0,191,191,191,,,,,,,,,,,,,,,,,,,,,,,,,,,,,,,,,,,,,,,,,,None,,365.01961084999493,None,365.01961084999493,None,2022-01-25-14:45:33.868464,365.02154480002355,365.3368760999874,365.02154480002355,None,None,365.02154480002355,None,365.83647215002566,None,,,,11005,0002,2022_Jan_25_1439,localizer,2021.1.3,59.88257027087956,
block,scenes,scenes051.bmp,,,,,0,192,192,192,,,,,,,,,,,,,,,,,,,,,,,,,,,,,,,,,,,,,,,,,,None,,365.83647215002566,None,365.83647215002566,None,2022-01-25-14:45:34.685510,365.8381877000211,366.1537949999911,365.8381877000211,None,None,365.8381877000211,None,366.65309544999036,None,,,,11005,0002,2022_Jan_25_1439,localizer,2021.1.3,59.88257027087956,
block,scenes,scenes075.bmp,,,,,0,193,193,193,,,,,,,,,,,,,,,,,,,,,,,,,,,,,,,,,,,,,,,,,,None,,366.65309544999036,None,366.65309544999036,None,2022-01-25-14:45:35.503441,366.654444099986,366.9765821999754,366.654444099986,None,None,366.654444099986,None,367.454495449987,None,,,,11005,0002,2022_Jan_25_1439,localizer,2021.1.3,59.88257027087956,
block,scenes,scenes090.bmp,,,,,0,194,194,194,,,,,,,,,,,,,,,,,,,,,,,,,,,,,,,,,,,,,,,,,,None,,367.454495449987,None,367.454495449987,None,2022-01-25-14:45:36.309309,367.50085620000027,367.8041053999914,367.50085620000027,367.50085620000027,None,367.50085620000027,367.50085620000027,368.2703040499764,None,,,,11005,0002,2022_Jan_25_1439,localizer,2021.1.3,59.88257027087956,
block,scenes,scenes013.bmp,,,,,0,195,195,195,,,,,,,,,,,,,,,,,,,,,,,,,,,,,,,,,,,,,,,,,,None,,368.2703040499764,None,368.2703040499764,None,2022-01-25-14:45:37.120276,368.27148870000383,368.57081250002375,368.27148870000383,None,None,368.27148870000383,None,369.08707375000813,None,,,,11005,0002,2022_Jan_25_1439,localizer,2021.1.3,59.88257027087956,
block,scenes,scenes013.bmp,,,,,0,196,196,196,,,,,,,,,,,,,,,,,,,,,,,,,,,,,,,,,,,,,,,,,,None,,369.08707375000813,None,369.08707375000813,None,2022-01-25-14:45:37.936738,369.0881853000028,369.4040731000132,369.0881853000028,None,y,369.0881853000028,None,369.9036327500071,None,0.5740882999962196,,,11005,0002,2022_Jan_25_1439,localizer,2021.1.3,59.88257027087956,
block_end,scenes,scenes014.bmp,,,,,0,197,197,197,,,,,,,,,,,,,,,,,,,,,,,,,,,,,,,,,,,,,,,,,,None,,369.9036327500071,None,369.9036327500071,None,2022-01-25-14:45:38.753466,369.9049648999935,370.2201452999725,369.9049648999935,None,None,369.9049648999935,None,370.7202172500256,None,,,,11005,0002,2022_Jan_25_1439,localizer,2021.1.3,59.88257027087956,
block_start,objects,objects057.bmp,,,,,0,198,198,198,,,,,,,,,,,,,,,,,,,,,,,,,,,,,,,,,,,,,,,,,,t,1.7664985000155866,370.7204959000228,None,370.7204959000228,None,2022-01-25-14:45:41.351346,372.50518159999046,372.8209329000092,372.50518159999046,None,None,372.50518159999046,None,373.30662134996965,None,,,,11005,0002,2022_Jan_25_1439,localizer,2021.1.3,59.88257027087956,
block,objects,objects001.bmp,,,,,0,199,199,199,,,,,,,,,,,,,,,,,,,,,,,,,,,,,,,,,,,,,,,,,,None,,373.30662134996965,None,373.30662134996965,None,2022-01-25-14:45:42.161478,373.3129520000075,373.62143589998595,373.3129520000075,373.3129520000075,None,373.3129520000075,373.3129520000075,374.119542749977,None,,,,11005,0002,2022_Jan_25_1439,localizer,2021.1.3,59.88257027087956,
block,objects,objects003.bmp,,,,,0,200,200,200,,,,,,,,,,,,,,,,,,,,,,,,,,,,,,,,,,,,,,,,,,None,,374.119542749977,None,374.119542749977,None,2022-01-25-14:45:42.968395,374.1219482999877,374.43705770000815,374.1219482999877,None,None,374.1219482999877,None,374.9367408500111,None,,,,11005,0002,2022_Jan_25_1439,localizer,2021.1.3,59.88257027087956,
block,objects,objects006.bmp,,,,,0,201,201,201,,,,,,,,,,,,,,,,,,,,,,,,,,,,,,,,,,,,,,,,,,None,,374.9367408500111,None,374.9367408500111,None,2022-01-25-14:45:43.786594,374.9379235000233,375.25337859999854,374.9379235000233,None,None,374.9379235000233,None,375.7374613500142,None,,,,11005,0002,2022_Jan_25_1439,localizer,2021.1.3,59.88257027087956,
block,objects,objects024.bmp,,,,,0,202,202,202,,,,,,,,,,,,,,,,,,,,,,,,,,,,,,,,,,,,,,,,,,None,,375.7374613500142,None,375.7374613500142,None,2022-01-25-14:45:44.589479,375.7403917000047,376.05450440000277,375.7403917000047,375.7403917000047,None,375.7403917000047,375.7403917000047,376.55315184997744,None,,,,11005,0002,2022_Jan_25_1439,localizer,2021.1.3,59.88257027087956,
block,objects,objects054.bmp,,,,,0,203,203,203,,,,,,,,,,,,,,,,,,,,,,,,,,,,,,,,,,,,,,,,,,None,,376.55315184997744,None,376.55315184997744,None,2022-01-25-14:45:45.402460,376.5622504000203,376.87037359998794,376.5622504000203,None,None,376.5622504000203,None,377.3698859499709,None,,,,11005,0002,2022_Jan_25_1439,localizer,2021.1.3,59.88257027087956,
block,objects,objects084.bmp,,,,,0,204,204,204,,,,,,,,,,,,,,,,,,,,,,,,,,,,,,,,,,,,,,,,,,None,,377.3698859499709,None,377.3698859499709,None,2022-01-25-14:45:46.219033,377.3719783999841,377.6876601999975,377.3719783999841,None,None,377.3719783999841,None,378.1719246499997,None,,,,11005,0002,2022_Jan_25_1439,localizer,2021.1.3,59.88257027087956,
block,objects,objects031.bmp,,,,,0,205,205,205,,,,,,,,,,,,,,,,,,,,,,,,,,,,,,,,,,,,,,,,,,None,,378.1719246499997,None,378.1719246499997,None,2022-01-25-14:45:47.026729,378.1769833000144,378.4868020999711,378.1769833000144,378.1769833000144,None,378.1769833000144,378.1769833000144,378.98797195000225,None,,,,11005,0002,2022_Jan_25_1439,localizer,2021.1.3,59.88257027087956,
block,objects,objects043.bmp,,,,,0,206,206,206,,,,,,,,,,,,,,,,,,,,,,,,,,,,,,,,,,,,,,,,,,None,,378.98797195000225,None,378.98797195000225,None,2022-01-25-14:45:47.840933,379.0041208000039,379.3203091999749,379.0041208000039,None,None,379.0041208000039,None,379.80378104999545,None,,,,11005,0002,2022_Jan_25_1439,localizer,2021.1.3,59.88257027087956,
block,objects,objects015.bmp,,,,,0,207,207,207,,,,,,,,,,,,,,,,,,,,,,,,,,,,,,,,,,,,,,,,,,None,,379.80378104999545,None,379.80378104999545,None,2022-01-25-14:45:48.653803,379.8048037000117,380.1206063000136,379.8048037000117,None,None,379.8048037000117,None,380.6043220499705,None,,,,11005,0002,2022_Jan_25_1439,localizer,2021.1.3,59.88257027087956,
block,objects,objects038.bmp,,,,,0,208,208,208,,,,,,,,,,,,,,,,,,,,,,,,,,,,,,,,,,,,,,,,,,None,,380.6043220499705,None,380.6043220499705,None,2022-01-25-14:45:49.456292,380.61091709998436,380.92053730000043,380.61091709998436,380.61091709998436,None,380.61091709998436,380.61091709998436,381.42071524998755,None,,,,11005,0002,2022_Jan_25_1439,localizer,2021.1.3,59.88257027087956,
block,objects,objects062.bmp,,,,,0,209,209,209,,,,,,,,,,,,,,,,,,,,,,,,,,,,,,,,,,,,,,,,,,None,,381.42071524998755,None,381.42071524998755,None,2022-01-25-14:45:50.270727,381.43285179999657,381.736730900011,381.43285179999657,None,None,381.43285179999657,None,382.23697484997683,None,,,,11005,0002,2022_Jan_25_1439,localizer,2021.1.3,59.88257027087956,
block,objects,objects030.bmp,,,,,0,210,210,210,,,,,,,,,,,,,,,,,,,,,,,,,,,,,,,,,,,,,,,,,,None,,382.23697484997683,None,382.23697484997683,None,2022-01-25-14:45:51.086814,382.2379751999979,382.53672370000277,382.2379751999979,None,None,382.2379751999979,None,383.0535661499889,None,,,,11005,0002,2022_Jan_25_1439,localizer,2021.1.3,59.88257027087956,
block,objects,objects075.bmp,,,,,0,211,211,211,,,,,,,,,,,,,,,,,,,,,,,,,,,,,,,,,,,,,,,,,,None,,383.0535661499889,None,383.0535661499889,None,2022-01-25-14:45:51.903690,383.05446199997095,383.3705547999707,383.05446199997095,None,None,383.05446199997095,None,383.85381505000987,None,,,,11005,0002,2022_Jan_25_1439,localizer,2021.1.3,59.88257027087956,
block_end,objects,objects041.bmp,,,,,0,212,212,212,,,,,,,,,,,,,,,,,,,,,,,,,,,,,,,,,,,,,,,,,,None,,383.85381505000987,None,383.85381505000987,None,2022-01-25-14:45:52.705658,383.85615419998066,384.1709028999903,383.85615419998066,383.85615419998066,None,383.85615419998066,383.85615419998066,384.66999574998044,None,,,,11005,0002,2022_Jan_25_1439,localizer,2021.1.3,59.88257027087956,
block_start,scrambled,scrambled020.bmp,,,,,0,213,213,213,,,,,,,,,,,,,,,,,,,,,,,,,,,,,,,,,,,,,,,,,,t,1.8167607999639586,384.6703033000231,None,384.6703033000231,None,2022-01-25-14:45:55.354857,386.5053506999975,386.8049614999909,386.5053506999975,None,None,386.5053506999975,None,387.32010204999824,None,,,,11005,0002,2022_Jan_25_1439,localizer,2021.1.3,59.88257027087956,
block,scrambled,scrambled070.bmp,,,,,0,214,214,214,,,,,,,,,,,,,,,,,,,,,,,,,,,,,,,,,,,,,,,,,,None,,387.32010204999824,None,387.32010204999824,None,2022-01-25-14:45:56.168950,387.3297117999755,387.63777289999416,387.3297117999755,None,None,387.3297117999755,None,388.1372059500136,None,,,,11005,0002,2022_Jan_25_1439,localizer,2021.1.3,59.88257027087956,
block,scrambled,scrambled078.bmp,,,,,0,215,215,215,,,,,,,,,,,,,,,,,,,,,,,,,,,,,,,,,,,,,,,,,,None,,388.1372059500136,None,388.1372059500136,None,2022-01-25-14:45:56.987039,388.148631500022,388.4535336000263,388.148631500022,None,None,388.148631500022,None,388.9537673499726,None,,,,11005,0002,2022_Jan_25_1439,localizer,2021.1.3,59.88257027087956,
block,scrambled,scrambled086.bmp,,,,,0,216,216,216,,,,,,,,,,,,,,,,,,,,,,,,,,,,,,,,,,,,,,,,,,None,,388.9537673499726,None,388.9537673499726,None,2022-01-25-14:45:57.803297,388.96396710001864,389.2700528000132,388.96396710001864,None,None,388.96396710001864,None,389.769823849987,None,,,,11005,0002,2022_Jan_25_1439,localizer,2021.1.3,59.88257027087956,
block,scrambled,scrambled074.bmp,,,,,0,217,217,217,,,,,,,,,,,,,,,,,,,,,,,,,,,,,,,,,,,,,,,,,,None,,389.769823849987,None,389.769823849987,None,2022-01-25-14:45:58.618768,389.77980389998993,390.08707389998017,389.77980389998993,None,None,389.77980389998993,None,390.58675315001165,None,,,,11005,0002,2022_Jan_25_1439,localizer,2021.1.3,59.88257027087956,
block,scrambled,scrambled005.bmp,,,,,0,218,218,218,,,,,,,,,,,,,,,,,,,,,,,,,,,,,,,,,,,,,,,,,,None,,390.58675315001165,None,390.58675315001165,None,2022-01-25-14:45:59.435602,390.5887512000045,390.90385950001655,390.5887512000045,None,None,390.5887512000045,None,391.40351235002163,None,,,,11005,0002,2022_Jan_25_1439,localizer,2021.1.3,59.88257027087956,
block,scrambled,scrambled032.bmp,,,,,0,219,219,219,,,,,,,,,,,,,,,,,,,,,,,,,,,,,,,,,,,,,,,,,,None,,391.40351235002163,None,391.40351235002163,None,2022-01-25-14:46:00.253656,391.4043342000223,391.7040705999825,391.4043342000223,None,None,391.4043342000223,None,392.20347954999306,None,,,,11005,0002,2022_Jan_25_1439,localizer,2021.1.3,59.88257027087956,
block,scrambled,scrambled022.bmp,,,,,0,220,220,220,,,,,,,,,,,,,,,,,,,,,,,,,,,,,,,,,,,,,,,,,,None,,392.20347954999306,None,392.20347954999306,None,2022-01-25-14:46:01.055531,392.204636999988,392.5200919000199,392.204636999988,392.204636999988,None,392.204636999988,392.204636999988,393.0200021500059,None,,,,11005,0002,2022_Jan_25_1439,localizer,2021.1.3,59.88257027087956,
block,scrambled,scrambled003.bmp,,,,,0,221,221,221,,,,,,,,,,,,,,,,,,,,,,,,,,,,,,,,,,,,,,,,,,None,,393.0200021500059,None,393.0200021500059,None,2022-01-25-14:46:01.870041,393.0211605000077,393.33708510000724,393.0211605000077,None,None,393.0211605000077,None,393.82030415002373,None,,,,11005,0002,2022_Jan_25_1439,localizer,2021.1.3,59.88257027087956,
block,scrambled,scrambled055.bmp,,,,,0,222,222,222,,,,,,,,,,,,,,,,,,,,,,,,,,,,,,,,,,,,,,,,,,None,,393.82030415002373,None,393.82030415002373,None,2022-01-25-14:46:02.672137,393.8622225999716,394.1713209999725,393.8622225999716,393.8622225999716,None,393.8622225999716,393.8622225999716,394.6369837500097,None,,,,11005,0002,2022_Jan_25_1439,localizer,2021.1.3,59.88257027087956,
block,scrambled,scrambled035.bmp,,,,,0,223,223,223,,,,,,,,,,,,,,,,,,,,,,,,,,,,,,,,,,,,,,,,,,None,,394.6369837500097,None,394.6369837500097,None,2022-01-25-14:46:03.487015,394.6382114000153,394.95395180000924,394.6382114000153,None,None,394.6382114000153,None,395.4373711499793,None,,,,11005,0002,2022_Jan_25_1439,localizer,2021.1.3,59.88257027087956,
block,scrambled,scrambled088.bmp,,,,,0,224,224,224,,,,,,,,,,,,,,,,,,,,,,,,,,,,,,,,,,,,,,,,,,None,,395.4373711499793,None,395.4373711499793,None,2022-01-25-14:46:04.289383,395.4401653999812,395.75353689998155,395.4401653999812,395.4401653999812,None,395.4401653999812,395.4401653999812,396.2537624499819,None,,,,11005,0002,2022_Jan_25_1439,localizer,2021.1.3,59.88257027087956,
block,scrambled,scrambled053.bmp,,,,,0,225,225,225,,,,,,,,,,,,,,,,,,,,,,,,,,,,,,,,,,,,,,,,,,None,,396.2537624499819,None,396.2537624499819,None,2022-01-25-14:46:05.103596,396.2549624000094,396.5702061000047,396.2549624000094,None,None,396.2549624000094,None,397.0700970500184,None,,,,11005,0002,2022_Jan_25_1439,localizer,2021.1.3,59.88257027087956,
block,scrambled,scrambled061.bmp,,,,,0,226,226,226,,,,,,,,,,,,,,,,,,,,,,,,,,,,,,,,,,,,,,,,,,None,,397.0700970500184,None,397.0700970500184,None,2022-01-25-14:46:05.920177,397.07152739999583,397.38689020002494,397.07152739999583,None,None,397.07152739999583,None,397.88686454997514,None,,,,11005,0002,2022_Jan_25_1439,localizer,2021.1.3,59.88257027087956,
block_end,scrambled,scrambled081.bmp,,,,,0,227,227,227,,,,,,,,,,,,,,,,,,,,,,,,,,,,,,,,,,,,,,,,,,None,,397.88686454997514,None,397.88686454997514,None,2022-01-25-14:46:06.735607,397.89858119998826,398.20387520000804,397.89858119998826,None,None,397.89858119998826,None,398.70357425001566,None,,,,11005,0002,2022_Jan_25_1439,localizer,2021.1.3,59.88257027087956,
null_block,null_block,null_block.bmp,,,,,0,228,228,228,,,,,,,,,,,,,,,,,,,,,,,,,,,,,,,,,,,,,,,,,,t,1.7831616000039503,398.7038608000148,None,398.7038608000148,None,2022-01-25-14:46:09.351279,400.503224450018,None,400.503224450018,None,None,400.503224450018,None,400.5039124999894,None,,,,11005,0002,2022_Jan_25_1439,localizer,2021.1.3,59.88257027087956,
block_start,faces,faces038.bmp,,,,,0,229,229,229,,,,,,,,,,,,,,,,,,,,,,,,,,,,,,,,,,,,,,,,,,t,1.9829560999642126,412.5039226000081,None,412.5039226000081,None,2022-01-25-14:46:23.354806,414.5216172999935,414.83703589998186,414.5216172999935,None,None,414.5216172999935,None,415.32048834997113,None,,,,11005,0002,2022_Jan_25_1439,localizer,2021.1.3,59.88257027087956,
block,faces,faces066.bmp,,,,,0,230,230,230,,,,,,,,,,,,,,,,,,,,,,,,,,,,,,,,,,,,,,,,,,None,,415.32048834997113,None,415.32048834997113,None,2022-01-25-14:46:24.170575,415.3317924999865,415.6371505999705,415.3317924999865,None,None,415.3317924999865,None,416.1368185499741,None,,,,11005,0002,2022_Jan_25_1439,localizer,2021.1.3,59.88257027087956,
block,faces,faces031.bmp,,,,,0,231,231,231,,,,,,,,,,,,,,,,,,,,,,,,,,,,,,,,,,,,,,,,,,None,,416.1368185499741,None,416.1368185499741,None,2022-01-25-14:46:24.986876,416.1381752999732,416.4378925000201,416.1381752999732,None,None,416.1381752999732,None,416.9377434500202,None,,,,11005,0002,2022_Jan_25_1439,localizer,2021.1.3,59.88257027087956,
block,faces,faces006.bmp,,,,,0,232,232,232,,,,,,,,,,,,,,,,,,,,,,,,,,,,,,,,,,,,,,,,,,None,,416.9377434500202,None,416.9377434500202,None,2022-01-25-14:46:25.789658,416.94042990001617,417.2544274000102,416.94042990001617,416.94042990001617,None,416.94042990001617,416.94042990001617,417.7540871500096,None,,,,11005,0002,2022_Jan_25_1439,localizer,2021.1.3,59.88257027087956,
block,faces,faces059.bmp,,,,,0,233,233,233,,,,,,,,,,,,,,,,,,,,,,,,,,,,,,,,,,,,,,,,,,None,,417.7540871500096,None,417.7540871500096,None,2022-01-25-14:46:26.603737,417.7553550999728,418.07123990001855,417.7553550999728,None,None,417.7553550999728,None,418.570626849978,None,,,,11005,0002,2022_Jan_25_1439,localizer,2021.1.3,59.88257027087956,
block,faces,faces041.bmp,,,,,0,234,234,234,,,,,,,,,,,,,,,,,,,,,,,,,,,,,,,,,,,,,,,,,,None,,418.570626849978,None,418.570626849978,None,2022-01-25-14:46:27.420461,418.5719018999953,418.8874026000267,418.5719018999953,None,None,418.5719018999953,None,419.3871955499926,None,,,,11005,0002,2022_Jan_25_1439,localizer,2021.1.3,59.88257027087956,
block,faces,faces046.bmp,,,,,0,235,235,235,,,,,,,,,,,,,,,,,,,,,,,,,,,,,,,,,,,,,,,,,,None,,419.3871955499926,None,419.3871955499926,None,2022-01-25-14:46:28.237034,419.3984977999935,419.7037937999703,419.3984977999935,None,None,419.3984977999935,None,420.2035759499704,None,,,,11005,0002,2022_Jan_25_1439,localizer,2021.1.3,59.88257027087956,
block,faces,faces052.bmp,,,,,0,236,236,236,,,,,,,,,,,,,,,,,,,,,,,,,,,,,,,,,,,,,,,,,,None,,420.2035759499704,None,420.2035759499704,None,2022-01-25-14:46:29.053793,420.2047733999789,420.5065423999913,420.2047733999789,None,None,420.2047733999789,None,421.00380234999466,None,,,,11005,0002,2022_Jan_25_1439,localizer,2021.1.3,59.88257027087956,
block,faces,faces071.bmp,,,,,0,237,237,237,,,,,,,,,,,,,,,,,,,,,,,,,,,,,,,,,,,,,,,,,,None,,421.00380234999466,None,421.00380234999466,None,2022-01-25-14:46:29.855634,421.00487299996894,421.3103244000231,421.00487299996894,421.00487299996894,None,421.00487299996894,421.00487299996894,421.8202485500078,None,,,,11005,0002,2022_Jan_25_1439,localizer,2021.1.3,59.88257027087956,
block,faces,faces049.bmp,,,,,0,238,238,238,,,,,,,,,,,,,,,,,,,,,,,,,,,,,,,,,,,,,,,,,,None,,421.8202485500078,None,421.8202485500078,None,2022-01-25-14:46:30.670088,421.82154109998373,422.13743629999226,421.82154109998373,None,None,421.82154109998373,None,422.63698405001196,None,,,,11005,0002,2022_Jan_25_1439,localizer,2021.1.3,59.88257027087956,
block,faces,faces018.bmp,,,,,0,239,239,239,,,,,,,,,,,,,,,,,,,,,,,,,,,,,,,,,,,,,,,,,,None,,422.63698405001196,None,422.63698405001196,None,2022-01-25-14:46:31.486825,422.63819029997103,422.95400169998175,422.63819029997103,None,None,422.63819029997103,None,423.4536264500057,None,,,,11005,0002,2022_Jan_25_1439,localizer,2021.1.3,59.88257027087956,
block,faces,faces065.bmp,,,,,0,240,240,240,,,,,,,,,,,,,,,,,,,,,,,,,,,,,,,,,,,,,,,,,,None,,423.4536264500057,None,423.4536264500057,None,2022-01-25-14:46:32.303682,423.45483040000545,423.7705766999861,423.45483040000545,None,None,423.45483040000545,None,424.27014294997207,None,,,,11005,0002,2022_Jan_25_1439,localizer,2021.1.3,59.88257027087956,
block,faces,faces072.bmp,,,,,0,241,241,241,,,,,,,,,,,,,,,,,,,,,,,,,,,,,,,,,,,,,,,,,,None,,424.27014294997207,None,424.27014294997207,None,2022-01-25-14:46:33.120370,424.2806029000203,424.58717539999634,424.2806029000203,None,None,424.2806029000203,None,425.0868797499861,None,,,,11005,0002,2022_Jan_25_1439,localizer,2021.1.3,59.88257027087956,
block,faces,faces035.bmp,,,,,0,242,242,242,,,,,,,,,,,,,,,,,,,,,,,,,,,,,,,,,,,,,,,,,,None,,425.0868797499861,None,425.0868797499861,None,2022-01-25-14:46:33.936959,425.08814220002387,425.38799129996914,425.08814220002387,None,None,425.08814220002387,None,425.8875495500106,None,,,,11005,0002,2022_Jan_25_1439,localizer,2021.1.3,59.88257027087956,
block_end,faces,faces045.bmp,,,,,0,243,243,243,,,,,,,,,,,,,,,,,,,,,,,,,,,,,,,,,,,,,,,,,,None,,425.8875495500106,None,425.8875495500106,None,2022-01-25-14:46:34.739463,425.8900498999865,426.20451140002115,425.8900498999865,425.8900498999865,None,425.8900498999865,425.8900498999865,426.70410494998214,None,,,,11005,0002,2022_Jan_25_1439,localizer,2021.1.3,59.88257027087956,
,,,,,,,,,,,,,,,,,,,,,,,,,,,,,,,,,,,,,,,,,,,,,,,,,,,,,,,,,,,,,,,,,,,,,426.70452329999534,None,,,,,,,
