block_type,condition,img_name,Button.thisRepN,Button.thisTrialN,Button.thisN,Button.thisIndex,trials.thisRepN,trials.thisTrialN,trials.thisN,trials.thisIndex,Ready_experimenter_text.started,Ready_experimenter_text.stopped,Ready_experimenter_resp.keys,Ready_experimenter_resp.rt,Ready_experimenter_resp.started,Ready_experimenter_resp.stopped,Alignment_background.started,Alignment_background.stopped,Alignment_image.started,Alignment_image.stopped,Alignment_resp.keys,Alignment_resp.rt,Alignment_resp.started,Alignment_resp.stopped,Button_text.started,Button_text.stopped,Index_text.started,Index_text.stopped,Index_resp.keys,Index_resp.rt,Index_resp.started,Index_resp.stopped,Middle_text.started,Middle_text.stopped,Middle_resp.keys,Middle_resp.rt,Middle_resp.started,Middle_resp.stopped,Repeat_text.started,Repeat_text.stopped,Repeat_resp.keys,Repeat_resp.corr,Repeat_resp.rt,Repeat_resp.started,Repeat_resp.stopped,instruction_text.started,instruction_text.stopped,key_resp.keys,key_resp.rt,key_resp.started,key_resp.stopped,scanner_t.keys,scanner_t.rt,scanner_t.started,scanner_t.stopped,fixation_wait_for_t.started,fixation_wait_for_t.stopped,real_timestamp_trial_start,image.started,image.stopped,fixation.started,fixation.stopped,repeat_response.keys,repeat_response.started,repeat_response.stopped,fixation_null.started,fixation_null.stopped,repeat_response.rt,end_text.started,end_text.stopped,participant,run,date,expName,psychopyVersion,frameRate,
,,,,,,,,,,,12.110842999536544,None,return,437.0916331997141,12.110842999536544,None,,,,,,,,,,,,,,,,,,,,,,,,,,,,,,,,,,,,,,,,,,,,,,,,,,,,,,,21011,0002,2022_Sep_01_1030,localizer,2021.1.3,60.02271254376943,
,,,,,,,,,,,,,,,,,449.25117189995944,None,449.25117189995944,None,return,0.69899330008775,449.25117189995944,None,,,,,,,,,,,,,,,,,,,,,,,,,,,,,,,,,,,,,,,,,,,,,,,21011,0002,2022_Sep_01_1030,localizer,2021.1.3,60.02271254376943,
,,,0,0,0,0,,,,,,,,,,,,,,,,,,,449.96944289980456,None,450.97594829974696,None,y,0.5670320000499487,450.97594829974696,None,451.56023619975895,None,b,1.185727299656719,451.56023619975895,None,452.7775079999119,None,n,0,1.6050903000868857,452.7775079999119,None,,,,,,,,,,,,,,,,,,,,,,,,,,21011,0002,2022_Sep_01_1030,localizer,2021.1.3,60.02271254376943,
,,,,,,,,,,,,,,,,,,,,,,,,,,,,,,,,,,,,,,,,,,,,,,454.41092679975554,None,y,26.905316799879074,454.41092679975554,None,,,,,,,,,,,,,,,,,,,,21011,0002,2022_Sep_01_1030,localizer,2021.1.3,60.02271254376943,
block_start,objects,objects033.bmp,,,,,0,0,0,0,,,,,,,,,,,,,,,,,,,,,,,,,,,,,,,,,,,,,,,,,,t,15.308090099599212,481.376876599621,None,481.376876599621,None,2022-09-01-10:38:11.164736,496.71085289958864,497.0105861998163,496.71085289958864,None,None,496.71085289958864,None,497.5120166097302,None,,,,21011,0002,2022_Sep_01_1030,localizer,2021.1.3,60.02271254376943,
block,objects,objects083.bmp,,,,,0,1,1,1,,,,,,,,,,,,,,,,,,,,,,,,,,,,,,,,,,,,,,,,,,None,,497.5120166097302,None,497.5120166097302,None,2022-09-01-10:38:11.976082,497.528842699714,497.84393289964646,497.528842699714,497.528842699714,None,497.528842699714,497.528842699714,498.32653610962444,None,,,,21011,0002,2022_Sep_01_1030,localizer,2021.1.3,60.02271254376943,
block,objects,objects077.bmp,,,,,0,2,2,2,,,,,,,,,,,,,,,,,,,,,,,,,,,,,,,,,,,,,,,,,,None,,498.32653610962444,None,498.32653610962444,None,2022-09-01-10:38:12.781900,498.3276371997781,498.6440361998975,498.3276371997781,None,None,498.3276371997781,None,499.1267998096999,None,,,,21011,0002,2022_Sep_01_1030,localizer,2021.1.3,60.02271254376943,
block,objects,objects082.bmp,,,,,0,3,3,3,,,,,,,,,,,,,,,,,,,,,,,,,,,,,,,,,,,,,,,,,,None,,499.1267998096999,None,499.1267998096999,None,2022-09-01-10:38:13.584953,499.12968059955165,499.4434301997535,499.12968059955165,499.12968059955165,None,499.12968059955165,499.12968059955165,499.94420910994523,None,,,,21011,0002,2022_Sep_01_1030,localizer,2021.1.3,60.02271254376943,
block,objects,objects076.bmp,,,,,0,4,4,4,,,,,,,,,,,,,,,,,,,,,,,,,,,,,,,,,,,,,,,,,,None,,499.94420910994523,None,499.94420910994523,None,2022-09-01-10:38:14.401354,499.94743349961936,500.26108649978414,499.94743349961936,None,None,499.94743349961936,None,500.7495821099263,None,,,,21011,0002,2022_Sep_01_1030,localizer,2021.1.3,60.02271254376943,
block,objects,objects040.bmp,,,,,0,5,5,5,,,,,,,,,,,,,,,,,,,,,,,,,,,,,,,,,,,,,,,,,,None,,500.7495821099263,None,500.7495821099263,None,2022-09-01-10:38:15.212665,500.76828969968483,501.07718169968575,500.76828969968483,None,None,500.76828969968483,None,501.5606810096186,None,,,,21011,0002,2022_Sep_01_1030,localizer,2021.1.3,60.02271254376943,
block,objects,objects087.bmp,,,,,0,6,6,6,,,,,,,,,,,,,,,,,,,,,,,,,,,,,,,,,,,,,,,,,,None,,501.5606810096186,None,501.5606810096186,None,2022-09-01-10:38:16.018785,501.573297099676,501.87736219959334,501.573297099676,None,None,501.573297099676,None,502.37657170970925,None,,,,21011,0002,2022_Sep_01_1030,localizer,2021.1.3,60.02271254376943,
block,objects,objects044.bmp,,,,,0,7,7,7,,,,,,,,,,,,,,,,,,,,,,,,,,,,,,,,,,,,,,,,,,None,,502.37657170970925,None,502.37657170970925,None,2022-09-01-10:38:16.832743,502.3825570996851,502.6789010995999,502.3825570996851,None,None,502.3825570996851,None,503.1941853095312,None,,,,21011,0002,2022_Sep_01_1030,localizer,2021.1.3,60.02271254376943,
block,objects,objects063.bmp,,,,,0,8,8,8,,,,,,,,,,,,,,,,,,,,,,,,,,,,,,,,,,,,,,,,,,None,,503.1941853095312,None,503.1941853095312,None,2022-09-01-10:38:17.651497,503.2059484999627,503.5103763998486,503.2059484999627,None,None,503.2059484999627,None,504.01116300974974,None,,,,21011,0002,2022_Sep_01_1030,localizer,2021.1.3,60.02271254376943,
block,objects,objects009.bmp,,,,,0,9,9,9,,,,,,,,,,,,,,,,,,,,,,,,,,,,,,,,,,,,,,,,,,None,,504.01116300974974,None,504.01116300974974,None,2022-09-01-10:38:18.468316,504.0232849996537,504.3264014995657,504.0232849996537,None,None,504.0232849996537,None,504.8271895097103,None,,,,21011,0002,2022_Sep_01_1030,localizer,2021.1.3,60.02271254376943,
block,objects,objects034.bmp,,,,,0,10,10,10,,,,,,,,,,,,,,,,,,,,,,,,,,,,,,,,,,,,,,,,,,None,,504.8271895097103,None,504.8271895097103,None,2022-09-01-10:38:19.284539,504.828091299627,505.1302523999475,504.828091299627,None,None,504.828091299627,None,505.643679409707,None,,,,21011,0002,2022_Sep_01_1030,localizer,2021.1.3,60.02271254376943,
block,objects,objects007.bmp,,,,,0,11,11,11,,,,,,,,,,,,,,,,,,,,,,,,,,,,,,,,,,,,,,,,,,None,,505.643679409707,None,505.643679409707,None,2022-09-01-10:38:20.101032,505.6444506999105,505.9602726995945,505.6444506999105,None,None,505.6444506999105,None,506.4443784099538,None,,,,21011,0002,2022_Sep_01_1030,localizer,2021.1.3,60.02271254376943,
block,objects,objects031.bmp,,,,,0,12,12,12,,,,,,,,,,,,,,,,,,,,,,,,,,,,,,,,,,,,,,,,,,None,,506.4443784099538,None,506.4443784099538,None,2022-09-01-10:38:20.903248,506.44606129964814,506.76064019976184,506.44606129964814,506.44606129964814,None,506.44606129964814,506.44606129964814,507.2605065097567,None,,,,21011,0002,2022_Sep_01_1030,localizer,2021.1.3,60.02271254376943,
block,objects,objects003.bmp,,,,,0,13,13,13,,,,,,,,,,,,,,,,,,,,,,,,,,,,,,,,,,,,,,,,,,None,,507.2605065097567,None,507.2605065097567,None,2022-09-01-10:38:21.717629,507.26205279957503,507.57729499973357,507.26205279957503,None,None,507.26205279957503,None,508.07684500976467,None,,,,21011,0002,2022_Sep_01_1030,localizer,2021.1.3,60.02271254376943,
block_end,objects,objects055.bmp,,,,,0,14,14,14,,,,,,,,,,,,,,,,,,,,,,,,,,,,,,,,,,,,,,,,,,None,,508.07684500976467,None,508.07684500976467,None,2022-09-01-10:38:22.532919,508.08793159993365,508.3935714997351,508.08793159993365,None,None,508.08793159993365,None,508.8937523099128,None,,,,21011,0002,2022_Sep_01_1030,localizer,2021.1.3,60.02271254376943,
null_block,null_block,null_block.bmp,,,,,0,15,15,15,,,,,,,,,,,,,,,,,,,,,,,,,,,,,,,,,,,,,,,,,,t,1.791208999697119,508.8935322999023,None,508.8935322999023,None,2022-09-01-10:38:25.165954,510.70975090977737,None,510.70975090977737,None,None,510.70975090977737,None,510.71361149987206,None,,,,21011,0002,2022_Sep_01_1030,localizer,2021.1.3,60.02271254376943,
block_start,scenes,scenes037.bmp,,,,,0,16,16,16,,,,,,,,,,,,,,,,,,,,,,,,,,,,,,,,,,,,,,,,,,t,1.9580703997053206,522.7269136998802,None,522.7269136998802,None,2022-09-01-10:38:39.167121,524.7200398999266,525.0266495998949,524.7200398999266,None,None,524.7200398999266,None,525.5271447095554,None,,,,21011,0002,2022_Sep_01_1030,localizer,2021.1.3,60.02271254376943,
block,scenes,scenes057.bmp,,,,,0,17,17,17,,,,,,,,,,,,,,,,,,,,,,,,,,,,,,,,,,,,,,,,,,None,,525.5271447095554,None,525.5271447095554,None,2022-09-01-10:38:39.985132,525.5401183995418,525.8433142998256,525.5401183995418,None,None,525.5401183995418,None,526.3432753099594,None,,,,21011,0002,2022_Sep_01_1030,localizer,2021.1.3,60.02271254376943,
block,scenes,scenes038.bmp,,,,,0,18,18,18,,,,,,,,,,,,,,,,,,,,,,,,,,,,,,,,,,,,,,,,,,None,,526.3432753099594,None,526.3432753099594,None,2022-09-01-10:38:40.799536,526.3445509998128,526.6599660995416,526.3445509998128,None,None,526.3445509998128,None,527.1442001098301,None,,,,21011,0002,2022_Sep_01_1030,localizer,2021.1.3,60.02271254376943,
block,scenes,scenes068.bmp,,,,,0,19,19,19,,,,,,,,,,,,,,,,,,,,,,,,,,,,,,,,,,,,,,,,,,None,,527.1442001098301,None,527.1442001098301,None,2022-09-01-10:38:41.602992,527.1575177996419,527.4601892996579,527.1575177996419,527.1575177996419,None,527.1575177996419,527.1575177996419,527.9596686097327,None,,,,21011,0002,2022_Sep_01_1030,localizer,2021.1.3,60.02271254376943,
block,scenes,scenes084.bmp,,,,,0,20,20,20,,,,,,,,,,,,,,,,,,,,,,,,,,,,,,,,,,,,,,,,,,None,,527.9596686097327,None,527.9596686097327,None,2022-09-01-10:38:42.415934,527.9684409997426,528.2788748997264,527.9684409997426,None,None,527.9684409997426,None,528.7767726098652,None,,,,21011,0002,2022_Sep_01_1030,localizer,2021.1.3,60.02271254376943,
block,scenes,scenes054.bmp,,,,,0,21,21,21,,,,,,,,,,,,,,,,,,,,,,,,,,,,,,,,,,,,,,,,,,None,,528.7767726098652,None,528.7767726098652,None,2022-09-01-10:38:43.233036,528.7776739997789,529.0932856998406,528.7776739997789,None,None,528.7776739997789,None,529.576697009569,None,,,,21011,0002,2022_Sep_01_1030,localizer,2021.1.3,60.02271254376943,
block,scenes,scenes023.bmp,,,,,0,22,22,22,,,,,,,,,,,,,,,,,,,,,,,,,,,,,,,,,,,,,,,,,,None,,529.576697009569,None,529.576697009569,None,2022-09-01-10:38:44.034959,529.5782784996554,529.8933354998007,529.5782784996554,529.5782784996554,None,529.5782784996554,529.5782784996554,530.3780101099517,None,,,,21011,0002,2022_Sep_01_1030,localizer,2021.1.3,60.02271254376943,
block,scenes,scenes063.bmp,,,,,0,23,23,23,,,,,,,,,,,,,,,,,,,,,,,,,,,,,,,,,,,,,,,,,,None,,530.3780101099517,None,530.3780101099517,None,2022-09-01-10:38:44.838407,530.3825656999834,530.6932717999443,530.3825656999834,530.3825656999834,None,530.3825656999834,530.3825656999834,531.1932371095288,None,,,,21011,0002,2022_Sep_01_1030,localizer,2021.1.3,60.02271254376943,
block,scenes,scenes064.bmp,,,,,0,24,24,24,,,,,,,,,,,,,,,,,,,,,,,,,,,,,,,,,,,,,,,,,,None,,531.1932371095288,None,531.1932371095288,None,2022-09-01-10:38:45.649512,531.1944055999629,531.5098302997649,531.1944055999629,None,None,531.1944055999629,None,531.9934180099051,None,,,,21011,0002,2022_Sep_01_1030,localizer,2021.1.3,60.02271254376943,
block,scenes,scenes069.bmp,,,,,0,25,25,25,,,,,,,,,,,,,,,,,,,,,,,,,,,,,,,,,,,,,,,,,,None,,531.9934180099051,None,531.9934180099051,None,2022-09-01-10:38:46.450693,531.9944713995792,532.310061099939,531.9944713995792,531.9944713995792,None,531.9944713995792,531.9944713995792,532.8101993095595,None,,,,21011,0002,2022_Sep_01_1030,localizer,2021.1.3,60.02271254376943,
block,scenes,scenes081.bmp,,,,,0,26,26,26,,,,,,,,,,,,,,,,,,,,,,,,,,,,,,,,,,,,,,,,,,None,,532.8101993095595,None,532.8101993095595,None,2022-09-01-10:38:47.266479,532.8111282996833,533.1268749996088,532.8111282996833,None,None,532.8111282996833,None,533.6104616098571,None,,,,21011,0002,2022_Sep_01_1030,localizer,2021.1.3,60.02271254376943,
block,scenes,scenes077.bmp,,,,,0,27,27,27,,,,,,,,,,,,,,,,,,,,,,,,,,,,,,,,,,,,,,,,,,None,,533.6104616098571,None,533.6104616098571,None,2022-09-01-10:38:48.068939,533.6237925998867,533.9270536997356,533.6237925998867,533.6237925998867,None,533.6237925998867,533.6237925998867,534.4268413097132,None,,,,21011,0002,2022_Sep_01_1030,localizer,2021.1.3,60.02271254376943,
block,scenes,scenes036.bmp,,,,,0,28,28,28,,,,,,,,,,,,,,,,,,,,,,,,,,,,,,,,,,,,,,,,,,None,,534.4268413097132,None,534.4268413097132,None,2022-09-01-10:38:48.883129,534.4360319999978,534.7436431995593,534.4360319999978,None,None,534.4360319999978,None,535.2423821095842,None,,,,21011,0002,2022_Sep_01_1030,localizer,2021.1.3,60.02271254376943,
block,scenes,scenes083.bmp,,,,,0,29,29,29,,,,,,,,,,,,,,,,,,,,,,,,,,,,,,,,,,,,,,,,,,None,,535.2423821095842,None,535.2423821095842,None,2022-09-01-10:38:49.697806,535.2515126997605,535.5601130998693,535.2515126997605,None,None,535.2515126997605,None,536.0602180095855,None,,,,21011,0002,2022_Sep_01_1030,localizer,2021.1.3,60.02271254376943,
block_end,scenes,scenes086.bmp,,,,,0,30,30,30,,,,,,,,,,,,,,,,,,,,,,,,,,,,,,,,,,,,,,,,,,None,,536.0602180095855,None,536.0602180095855,None,2022-09-01-10:38:50.516505,536.0613610995933,536.3768561999314,536.0613610995933,None,None,536.0613610995933,None,536.8769396096002,None,,,,21011,0002,2022_Sep_01_1030,localizer,2021.1.3,60.02271254376943,
block_start,scrambled,scrambled046.bmp,,,,,0,31,31,31,,,,,,,,,,,,,,,,,,,,,,,,,,,,,,,,,,,,,,,,,,t,1.8079785001464188,536.8770296997391,None,536.8770296997391,None,2022-09-01-10:38:53.164250,538.718009499833,539.0270174997859,538.718009499833,None,None,538.718009499833,None,539.526696109632,None,,,,21011,0002,2022_Sep_01_1030,localizer,2021.1.3,60.02271254376943,
block,scrambled,scrambled012.bmp,,,,,0,32,32,32,,,,,,,,,,,,,,,,,,,,,,,,,,,,,,,,,,,,,,,,,,None,,539.526696109632,None,539.526696109632,None,2022-09-01-10:38:53.982006,539.5280565996654,539.843370499555,539.5280565996654,None,None,539.5280565996654,None,540.3280402095522,None,,,,21011,0002,2022_Sep_01_1030,localizer,2021.1.3,60.02271254376943,
block,scrambled,scrambled058.bmp,,,,,0,33,33,33,,,,,,,,,,,,,,,,,,,,,,,,,,,,,,,,,,,,,,,,,,None,,540.3280402095522,None,540.3280402095522,None,2022-09-01-10:38:54.788714,540.3435623999685,540.6439427998848,540.3435623999685,540.3435623999685,None,540.3435623999685,540.3435623999685,541.1438941098284,None,,,,21011,0002,2022_Sep_01_1030,localizer,2021.1.3,60.02271254376943,
block,scrambled,scrambled021.bmp,,,,,0,34,34,34,,,,,,,,,,,,,,,,,,,,,,,,,,,,,,,,,,,,,,,,,,None,,541.1438941098284,None,541.1438941098284,None,2022-09-01-10:38:55.601293,541.1445746999234,541.4441601997241,541.1445746999234,None,None,541.1445746999234,None,541.9603451098781,None,,,,21011,0002,2022_Sep_01_1030,localizer,2021.1.3,60.02271254376943,
block,scrambled,scrambled047.bmp,,,,,0,35,35,35,,,,,,,,,,,,,,,,,,,,,,,,,,,,,,,,,,,,,,,,,,None,,541.9603451098781,None,541.9603451098781,None,2022-09-01-10:38:56.416658,541.9612854998559,542.2614253996871,541.9612854998559,None,None,541.9612854998559,None,542.7619420098606,None,,,,21011,0002,2022_Sep_01_1030,localizer,2021.1.3,60.02271254376943,
block,scrambled,scrambled025.bmp,,,,,0,36,36,36,,,,,,,,,,,,,,,,,,,,,,,,,,,,,,,,,,,,,,,,,,None,,542.7619420098606,None,542.7619420098606,None,2022-09-01-10:38:57.220504,542.7735301996581,543.0768526997417,542.7735301996581,542.7735301996581,None,542.7735301996581,542.7735301996581,543.5769513095263,None,,,,21011,0002,2022_Sep_01_1030,localizer,2021.1.3,60.02271254376943,
block,scrambled,scrambled060.bmp,,,,,0,37,37,37,,,,,,,,,,,,,,,,,,,,,,,,,,,,,,,,,,,,,,,,,,None,,543.5769513095263,None,543.5769513095263,None,2022-09-01-10:38:58.033517,543.5778598999605,543.8933749999851,543.5778598999605,None,None,543.5778598999605,None,544.3935395096894,None,,,,21011,0002,2022_Sep_01_1030,localizer,2021.1.3,60.02271254376943,
block,scrambled,scrambled004.bmp,,,,,0,38,38,38,,,,,,,,,,,,,,,,,,,,,,,,,,,,,,,,,,,,,,,,,,None,,544.3935395096894,None,544.3935395096894,None,2022-09-01-10:38:58.849860,544.3943995996378,544.6934810997918,544.3943995996378,None,None,544.3943995996378,None,545.1936610098462,None,,,,21011,0002,2022_Sep_01_1030,localizer,2021.1.3,60.02271254376943,
block,scrambled,scrambled082.bmp,,,,,0,39,39,39,,,,,,,,,,,,,,,,,,,,,,,,,,,,,,,,,,,,,,,,,,None,,545.1936610098462,None,545.1936610098462,None,2022-09-01-10:38:59.652193,545.1958204996772,545.5101421996951,545.1958204996772,545.1958204996772,None,545.1958204996772,545.1958204996772,546.0101308095734,None,,,,21011,0002,2022_Sep_01_1030,localizer,2021.1.3,60.02271254376943,
block,scrambled,scrambled043.bmp,,,,,0,40,40,40,,,,,,,,,,,,,,,,,,,,,,,,,,,,,,,,,,,,,,,,,,None,,546.0101308095734,None,546.0101308095734,None,2022-09-01-10:39:00.466457,546.0109593998641,546.3113441998139,546.0109593998641,None,None,546.0109593998641,None,546.8113056099508,None,,,,21011,0002,2022_Sep_01_1030,localizer,2021.1.3,60.02271254376943,
block,scrambled,scrambled077.bmp,,,,,0,41,41,41,,,,,,,,,,,,,,,,,,,,,,,,,,,,,,,,,,,,,,,,,,None,,546.8113056099508,None,546.8113056099508,None,2022-09-01-10:39:01.273598,546.8174826996401,547.1269488995895,546.8174826996401,546.8174826996401,None,546.8174826996401,546.8174826996401,547.6269300095271,None,,,,21011,0002,2022_Sep_01_1030,localizer,2021.1.3,60.02271254376943,
block,scrambled,scrambled048.bmp,,,,,0,42,42,42,,,,,,,,,,,,,,,,,,,,,,,,,,,,,,,,,,,,,,,,,,None,,547.6269300095271,None,547.6269300095271,None,2022-09-01-10:39:02.083259,547.636434099637,547.9435072997585,547.636434099637,None,None,547.636434099637,None,548.443440609565,None,,,,21011,0002,2022_Sep_01_1030,localizer,2021.1.3,60.02271254376943,
block,scrambled,scrambled042.bmp,,,,,0,43,43,43,,,,,,,,,,,,,,,,,,,,,,,,,,,,,,,,,,,,,,,,,,None,,548.443440609565,None,548.443440609565,None,2022-09-01-10:39:02.899777,548.4444607999176,548.7435519997962,548.4444607999176,None,None,548.4444607999176,None,549.2434744098689,None,,,,21011,0002,2022_Sep_01_1030,localizer,2021.1.3,60.02271254376943,
block,scrambled,scrambled051.bmp,,,,,0,44,44,44,,,,,,,,,,,,,,,,,,,,,,,,,,,,,,,,,,,,,,,,,,None,,549.2434744098689,None,549.2434744098689,None,2022-09-01-10:39:03.701807,549.2447759998031,549.5602613999508,549.2447759998031,549.2447759998031,None,549.2447759998031,549.2447759998031,550.060173609713,None,,,,21011,0002,2022_Sep_01_1030,localizer,2021.1.3,60.02271254376943,
block_end,scrambled,scrambled020.bmp,,,,,0,45,45,45,,,,,,,,,,,,,,,,,,,,,,,,,,,,,,,,,,,,,,,,,,None,,550.060173609713,None,550.060173609713,None,2022-09-01-10:39:04.516516,550.0693549998105,550.3770172996446,550.0693549998105,None,None,550.0693549998105,None,550.8768099098932,None,,,,21011,0002,2022_Sep_01_1030,localizer,2021.1.3,60.02271254376943,
block_start,faces,faces075.bmp,,,,,0,46,46,46,,,,,,,,,,,,,,,,,,,,,,,,,,,,,,,,,,,,,,,,,,t,1.8070852998644114,550.8767671999522,None,550.8767671999522,None,2022-09-01-10:39:07.166815,552.7214393997565,553.0268359999172,552.7214393997565,None,None,552.7214393997565,None,553.5266156098339,None,,,,21011,0002,2022_Sep_01_1030,localizer,2021.1.3,60.02271254376943,
block,faces,faces075.bmp,,,,,0,47,47,47,,,,,,,,,,,,,,,,,,,,,,,,,,,,,,,,,,,,,,,,,,None,,553.5266156098339,None,553.5266156098339,None,2022-09-01-10:39:07.982967,553.5280366996303,553.8437094995752,553.5280366996303,None,y,553.5280366996303,None,554.3275492097716,None,0.5028270999900997,,,21011,0002,2022_Sep_01_1030,localizer,2021.1.3,60.02271254376943,
block,faces,faces062.bmp,,,,,0,48,48,48,,,,,,,,,,,,,,,,,,,,,,,,,,,,,,,,,,,,,,,,,,None,,554.3275492097716,None,554.3275492097716,None,2022-09-01-10:39:08.787881,554.3316879998893,554.64415619988,554.3316879998893,554.3316879998893,None,554.3316879998893,554.3316879998893,555.1441680099349,None,,,,21011,0002,2022_Sep_01_1030,localizer,2021.1.3,60.02271254376943,
block,faces,faces072.bmp,,,,,0,49,49,49,,,,,,,,,,,,,,,,,,,,,,,,,,,,,,,,,,,,,,,,,,None,,555.1441680099349,None,555.1441680099349,None,2022-09-01-10:39:09.601511,555.1559927999042,555.4601390999742,555.1559927999042,None,None,555.1559927999042,None,555.9604181097354,None,,,,21011,0002,2022_Sep_01_1030,localizer,2021.1.3,60.02271254376943,
block,faces,faces019.bmp,,,,,0,50,50,50,,,,,,,,,,,,,,,,,,,,,,,,,,,,,,,,,,,,,,,,,,None,,555.9604181097354,None,555.9604181097354,None,2022-09-01-10:39:10.416994,555.9613840999082,556.2772695999593,555.9613840999082,None,None,555.9613840999082,None,556.760452109808,None,,,,21011,0002,2022_Sep_01_1030,localizer,2021.1.3,60.02271254376943,
block,faces,faces040.bmp,,,,,0,51,51,51,,,,,,,,,,,,,,,,,,,,,,,,,,,,,,,,,,,,,,,,,,None,,556.760452109808,None,556.760452109808,None,2022-09-01-10:39:11.218809,556.7622726997361,557.0770786996,556.7622726997361,556.7622726997361,None,556.7622726997361,556.7622726997361,557.577072609635,None,,,,21011,0002,2022_Sep_01_1030,localizer,2021.1.3,60.02271254376943,
block,faces,faces029.bmp,,,,,0,52,52,52,,,,,,,,,,,,,,,,,,,,,,,,,,,,,,,,,,,,,,,,,,None,,557.577072609635,None,557.577072609635,None,2022-09-01-10:39:12.033665,557.5893032997847,557.8935661995783,557.5893032997847,None,None,557.5893032997847,None,558.3939295098651,None,,,,21011,0002,2022_Sep_01_1030,localizer,2021.1.3,60.02271254376943,
block,faces,faces057.bmp,,,,,0,53,53,53,,,,,,,,,,,,,,,,,,,,,,,,,,,,,,,,,,,,,,,,,,None,,558.3939295098651,None,558.3939295098651,None,2022-09-01-10:39:12.850472,558.4058746998198,558.7101407996379,558.4058746998198,None,None,558.4058746998198,None,559.2105211098212,None,,,,21011,0002,2022_Sep_01_1030,localizer,2021.1.3,60.02271254376943,
block,faces,faces053.bmp,,,,,0,54,54,54,,,,,,,,,,,,,,,,,,,,,,,,,,,,,,,,,,,,,,,,,,None,,559.2105211098212,None,559.2105211098212,None,2022-09-01-10:39:13.667100,559.2214354998432,559.5269629997201,559.2214354998432,None,None,559.2214354998432,None,560.0272846095729,None,,,,21011,0002,2022_Sep_01_1030,localizer,2021.1.3,60.02271254376943,
block,faces,faces046.bmp,,,,,0,55,55,55,,,,,,,,,,,,,,,,,,,,,,,,,,,,,,,,,,,,,,,,,,None,,560.0272846095729,None,560.0272846095729,None,2022-09-01-10:39:14.483649,560.0347782997414,560.3436220996082,560.0347782997414,None,None,560.0347782997414,None,560.844275909895,None,,,,21011,0002,2022_Sep_01_1030,localizer,2021.1.3,60.02271254376943,
block,faces,faces054.bmp,,,,,0,56,56,56,,,,,,,,,,,,,,,,,,,,,,,,,,,,,,,,,,,,,,,,,,None,,560.844275909895,None,560.844275909895,None,2022-09-01-10:39:15.301615,560.8464169995859,561.1610448998399,560.8464169995859,None,None,560.8464169995859,None,561.6602152096573,None,,,,21011,0002,2022_Sep_01_1030,localizer,2021.1.3,60.02271254376943,
block,faces,faces010.bmp,,,,,0,57,57,57,,,,,,,,,,,,,,,,,,,,,,,,,,,,,,,,,,,,,,,,,,None,,561.6602152096573,None,561.6602152096573,None,2022-09-01-10:39:16.116593,561.661179299932,561.9601364997216,561.661179299932,None,None,561.661179299932,None,562.4608071096707,None,,,,21011,0002,2022_Sep_01_1030,localizer,2021.1.3,60.02271254376943,
block,faces,faces031.bmp,,,,,0,58,58,58,,,,,,,,,,,,,,,,,,,,,,,,,,,,,,,,,,,,,,,,,,None,,562.4608071096707,None,562.4608071096707,None,2022-09-01-10:39:16.920382,562.4744258997962,562.7767687998712,562.4744258997962,562.4744258997962,None,562.4744258997962,562.4744258997962,563.2770250099245,None,,,,21011,0002,2022_Sep_01_1030,localizer,2021.1.3,60.02271254376943,
block,faces,faces025.bmp,,,,,0,59,59,59,,,,,,,,,,,,,,,,,,,,,,,,,,,,,,,,,,,,,,,,,,None,,563.2770250099245,None,563.2770250099245,None,2022-09-01-10:39:17.733408,563.2779082995839,563.5934996996075,563.2779082995839,None,None,563.2779082995839,None,564.0936306095216,None,,,,21011,0002,2022_Sep_01_1030,localizer,2021.1.3,60.02271254376943,
block_end,faces,faces089.bmp,,,,,0,60,60,60,,,,,,,,,,,,,,,,,,,,,,,,,,,,,,,,,,,,,,,,,,None,,564.0936306095216,None,564.0936306095216,None,2022-09-01-10:39:18.549599,564.0948376995511,564.410178899765,564.0948376995511,None,None,564.0948376995511,None,564.9103860095609,None,,,,21011,0002,2022_Sep_01_1030,localizer,2021.1.3,60.02271254376943,
block_start,objects,objects046.bmp,,,,,0,61,61,61,,,,,,,,,,,,,,,,,,,,,,,,,,,,,,,,,,,,,,,,,,t,1.7734741996973753,564.9103823998012,None,564.9103823998012,None,2022-09-01-10:39:21.168442,566.7230605999939,567.0268755997531,566.7230605999939,None,None,566.7230605999939,None,567.5269731096457,None,,,,21011,0002,2022_Sep_01_1030,localizer,2021.1.3,60.02271254376943,
block,objects,objects065.bmp,,,,,0,62,62,62,,,,,,,,,,,,,,,,,,,,,,,,,,,,,,,,,,,,,,,,,,None,,567.5269731096457,None,567.5269731096457,None,2022-09-01-10:39:21.983376,567.531541899778,567.843726999592,567.531541899778,None,None,567.531541899778,None,568.3440909096505,None,,,,21011,0002,2022_Sep_01_1030,localizer,2021.1.3,60.02271254376943,
block,objects,objects056.bmp,,,,,0,63,63,63,,,,,,,,,,,,,,,,,,,,,,,,,,,,,,,,,,,,,,,,,,None,,568.3440909096505,None,568.3440909096505,None,2022-09-01-10:39:22.801683,568.354785699863,568.6645125998184,568.354785699863,None,None,568.354785699863,None,569.1603466099593,None,,,,21011,0002,2022_Sep_01_1030,localizer,2021.1.3,60.02271254376943,
block,objects,objects028.bmp,,,,,0,64,64,64,,,,,,,,,,,,,,,,,,,,,,,,,,,,,,,,,,,,,,,,,,None,,569.1603466099593,None,569.1603466099593,None,2022-09-01-10:39:23.616750,569.169495199807,569.4771507997066,569.169495199807,None,None,569.169495199807,None,569.9786392095964,None,,,,21011,0002,2022_Sep_01_1030,localizer,2021.1.3,60.02271254376943,
block,objects,objects015.bmp,,,,,0,65,65,65,,,,,,,,,,,,,,,,,,,,,,,,,,,,,,,,,,,,,,,,,,None,,569.9786392095964,None,569.9786392095964,None,2022-09-01-10:39:24.438209,569.9832342998125,570.2943300995976,569.9832342998125,None,None,569.9832342998125,None,570.79430920952,None,,,,21011,0002,2022_Sep_01_1030,localizer,2021.1.3,60.02271254376943,
block,objects,objects044.bmp,,,,,0,66,66,66,,,,,,,,,,,,,,,,,,,,,,,,,,,,,,,,,,,,,,,,,,None,,570.79430920952,None,570.79430920952,None,2022-09-01-10:39:25.251761,570.7964345999062,571.1112186997198,570.7964345999062,None,None,570.7964345999062,None,571.6109356097411,None,,,,21011,0002,2022_Sep_01_1030,localizer,2021.1.3,60.02271254376943,
block,objects,objects052.bmp,,,,,0,67,67,67,,,,,,,,,,,,,,,,,,,,,,,,,,,,,,,,,,,,,,,,,,None,,571.6109356097411,None,571.6109356097411,None,2022-09-01-10:39:26.068326,571.6131527996622,571.9276659996249,571.6131527996622,None,None,571.6131527996622,None,572.4278137096669,None,,,,21011,0002,2022_Sep_01_1030,localizer,2021.1.3,60.02271254376943,
block,objects,objects048.bmp,,,,,0,68,68,68,,,,,,,,,,,,,,,,,,,,,,,,,,,,,,,,,,,,,,,,,,None,,572.4278137096669,None,572.4278137096669,None,2022-09-01-10:39:26.885217,572.4301513996907,572.7438972997479,572.4301513996907,None,None,572.4301513996907,None,573.2438224097248,None,,,,21011,0002,2022_Sep_01_1030,localizer,2021.1.3,60.02271254376943,
block,objects,objects062.bmp,,,,,0,69,69,69,,,,,,,,,,,,,,,,,,,,,,,,,,,,,,,,,,,,,,,,,,None,,573.2438224097248,None,573.2438224097248,None,2022-09-01-10:39:27.700960,573.2549211997539,573.5605581998825,573.2549211997539,None,None,573.2549211997539,None,574.060521309683,None,,,,21011,0002,2022_Sep_01_1030,localizer,2021.1.3,60.02271254376943,
block,objects,objects076.bmp,,,,,0,70,70,70,,,,,,,,,,,,,,,,,,,,,,,,,,,,,,,,,,,,,,,,,,None,,574.060521309683,None,574.060521309683,None,2022-09-01-10:39:28.516942,574.0614767996594,574.377122099977,574.0614767996594,None,None,574.0614767996594,None,574.8606139099691,None,,,,21011,0002,2022_Sep_01_1030,localizer,2021.1.3,60.02271254376943,
block,objects,objects059.bmp,,,,,0,71,71,71,,,,,,,,,,,,,,,,,,,,,,,,,,,,,,,,,,,,,,,,,,None,,574.8606139099691,None,574.8606139099691,None,2022-09-01-10:39:29.319087,574.8635959997773,575.1774290995672,574.8635959997773,574.8635959997773,None,574.8635959997773,574.8635959997773,575.6776385097298,None,,,,21011,0002,2022_Sep_01_1030,localizer,2021.1.3,60.02271254376943,
block,objects,objects070.bmp,,,,,0,72,72,72,,,,,,,,,,,,,,,,,,,,,,,,,,,,,,,,,,,,,,,,,,None,,575.6776385097298,None,575.6776385097298,None,2022-09-01-10:39:30.134063,575.6781466999091,575.9774575997144,575.6781466999091,None,None,575.6781466999091,None,576.4774825097527,None,,,,21011,0002,2022_Sep_01_1030,localizer,2021.1.3,60.02271254376943,
block,objects,objects002.bmp,,,,,0,73,73,73,,,,,,,,,,,,,,,,,,,,,,,,,,,,,,,,,,,,,,,,,,None,,576.4774825097527,None,576.4774825097527,None,2022-09-01-10:39:30.937029,576.4911594996229,576.7941905995831,576.4911594996229,576.4911594996229,None,576.4911594996229,576.4911594996229,577.2936991098802,None,,,,21011,0002,2022_Sep_01_1030,localizer,2021.1.3,60.02271254376943,
block,objects,objects024.bmp,,,,,0,74,74,74,,,,,,,,,,,,,,,,,,,,,,,,,,,,,,,,,,,,,,,,,,None,,577.2936991098802,None,577.2936991098802,None,2022-09-01-10:39:31.750133,577.2947411998175,577.5939825996757,577.2947411998175,None,None,577.2947411998175,None,578.0942790098022,None,,,,21011,0002,2022_Sep_01_1030,localizer,2021.1.3,60.02271254376943,
block_end,objects,objects001.bmp,,,,,0,75,75,75,,,,,,,,,,,,,,,,,,,,,,,,,,,,,,,,,,,,,,,,,,None,,578.0942790098022,None,578.0942790098022,None,2022-09-01-10:39:32.553659,578.0969969998114,578.410874299705,578.0969969998114,578.0969969998114,None,578.0969969998114,578.0969969998114,578.9108852096367,None,,,,21011,0002,2022_Sep_01_1030,localizer,2021.1.3,60.02271254376943,
block_start,scrambled,scrambled037.bmp,,,,,0,76,76,76,,,,,,,,,,,,,,,,,,,,,,,,,,,,,,,,,,,,,,,,,,t,1.7728707999922335,578.9108394999057,None,578.9108394999057,None,2022-09-01-10:39:35.167340,580.7114498997107,581.0109000997618,580.7114498997107,None,None,580.7114498997107,None,581.5107269095722,None,,,,21011,0002,2022_Sep_01_1030,localizer,2021.1.3,60.02271254376943,
block,scrambled,scrambled020.bmp,,,,,0,77,77,77,,,,,,,,,,,,,,,,,,,,,,,,,,,,,,,,,,,,,,,,,,None,,581.5107269095722,None,581.5107269095722,None,2022-09-01-10:39:35.969234,581.5135495997965,581.8272759998217,581.5135495997965,581.5135495997965,None,581.5135495997965,581.5135495997965,582.327709209593,None,,,,21011,0002,2022_Sep_01_1030,localizer,2021.1.3,60.02271254376943,
block,scrambled,scrambled065.bmp,,,,,0,78,78,78,,,,,,,,,,,,,,,,,,,,,,,,,,,,,,,,,,,,,,,,,,None,,582.327709209593,None,582.327709209593,None,2022-09-01-10:39:36.785148,582.3394439998083,582.6435178997926,582.3394439998083,None,None,582.3394439998083,None,583.1440286095719,None,,,,21011,0002,2022_Sep_01_1030,localizer,2021.1.3,60.02271254376943,
block,scrambled,scrambled054.bmp,,,,,0,79,79,79,,,,,,,,,,,,,,,,,,,,,,,,,,,,,,,,,,,,,,,,,,None,,583.1440286095719,None,583.1440286095719,None,2022-09-01-10:39:37.600585,583.1445906995796,583.4436753997579,583.1445906995796,None,None,583.1445906995796,None,583.9437427096534,None,,,,21011,0002,2022_Sep_01_1030,localizer,2021.1.3,60.02271254376943,
block,scrambled,scrambled010.bmp,,,,,0,80,80,80,,,,,,,,,,,,,,,,,,,,,,,,,,,,,,,,,,,,,,,,,,None,,583.9437427096534,None,583.9437427096534,None,2022-09-01-10:39:38.401196,583.9551261998713,584.2601937996224,583.9551261998713,583.9551261998713,None,583.9551261998713,583.9551261998713,584.7617606096435,None,,,,21011,0002,2022_Sep_01_1030,localizer,2021.1.3,60.02271254376943,
block,scrambled,scrambled046.bmp,,,,,0,81,81,81,,,,,,,,,,,,,,,,,,,,,,,,,,,,,,,,,,,,,,,,,,None,,584.7617606096435,None,584.7617606096435,None,2022-09-01-10:39:39.220338,584.7640602998435,585.0770519999787,584.7640602998435,None,None,584.7640602998435,None,585.5771150099579,None,,,,21011,0002,2022_Sep_01_1030,localizer,2021.1.3,60.02271254376943,
block,scrambled,scrambled060.bmp,,,,,0,82,82,82,,,,,,,,,,,,,,,,,,,,,,,,,,,,,,,,,,,,,,,,,,None,,585.5771150099579,None,585.5771150099579,None,2022-09-01-10:39:40.033580,585.5780041995458,585.877009099815,585.5780041995458,None,None,585.5780041995458,None,586.3774988096673,None,,,,21011,0002,2022_Sep_01_1030,localizer,2021.1.3,60.02271254376943,
block,scrambled,scrambled007.bmp,,,,,0,83,83,83,,,,,,,,,,,,,,,,,,,,,,,,,,,,,,,,,,,,,,,,,,None,,586.3774988096673,None,586.3774988096673,None,2022-09-01-10:39:40.836949,586.3804686996154,586.6942207999527,586.3804686996154,586.3804686996154,None,586.3804686996154,586.3804686996154,587.1936185098718,None,,,,21011,0002,2022_Sep_01_1030,localizer,2021.1.3,60.02271254376943,
block,scrambled,scrambled035.bmp,,,,,0,84,84,84,,,,,,,,,,,,,,,,,,,,,,,,,,,,,,,,,,,,,,,,,,None,,587.1936185098718,None,587.1936185098718,None,2022-09-01-10:39:41.650299,587.1948242997751,587.5105488998815,587.1948242997751,None,None,587.1948242997751,None,587.9940450097899,None,,,,21011,0002,2022_Sep_01_1030,localizer,2021.1.3,60.02271254376943,
block,scrambled,scrambled073.bmp,,,,,0,85,85,85,,,,,,,,,,,,,,,,,,,,,,,,,,,,,,,,,,,,,,,,,,None,,587.9940450097899,None,587.9940450097899,None,2022-09-01-10:39:42.452578,587.9969191998243,588.3105821995996,587.9969191998243,587.9969191998243,None,587.9969191998243,587.9969191998243,588.8107752096373,None,,,,21011,0002,2022_Sep_01_1030,localizer,2021.1.3,60.02271254376943,
block,scrambled,scrambled083.bmp,,,,,0,86,86,86,,,,,,,,,,,,,,,,,,,,,,,,,,,,,,,,,,,,,,,,,,None,,588.8107752096373,None,588.8107752096373,None,2022-09-01-10:39:43.267296,588.8115437999368,589.1100796996616,588.8115437999368,None,None,588.8115437999368,None,589.6106206099037,None,,,,21011,0002,2022_Sep_01_1030,localizer,2021.1.3,60.02271254376943,
block,scrambled,scrambled068.bmp,,,,,0,87,87,87,,,,,,,,,,,,,,,,,,,,,,,,,,,,,,,,,,,,,,,,,,None,,589.6106206099037,None,589.6106206099037,None,2022-09-01-10:39:44.069197,589.6135713998228,589.9269700995646,589.6135713998228,589.6135713998228,None,589.6135713998228,589.6135713998228,590.4277145098429,None,,,,21011,0002,2022_Sep_01_1030,localizer,2021.1.3,60.02271254376943,
block,scrambled,scrambled053.bmp,,,,,0,88,88,88,,,,,,,,,,,,,,,,,,,,,,,,,,,,,,,,,,,,,,,,,,None,,590.4277145098429,None,590.4277145098429,None,2022-09-01-10:39:44.885697,590.4403849998489,590.7438051998615,590.4403849998489,None,None,590.4403849998489,None,591.2437799097504,None,,,,21011,0002,2022_Sep_01_1030,localizer,2021.1.3,60.02271254376943,
block,scrambled,scrambled087.bmp,,,,,0,89,89,89,,,,,,,,,,,,,,,,,,,,,,,,,,,,,,,,,,,,,,,,,,None,,591.2437799097504,None,591.2437799097504,None,2022-09-01-10:39:45.700257,591.2448253999464,591.5604498996399,591.2448253999464,None,None,591.2448253999464,None,592.043918509921,None,,,,21011,0002,2022_Sep_01_1030,localizer,2021.1.3,60.02271254376943,
block_end,scrambled,scrambled002.bmp,,,,,0,90,90,90,,,,,,,,,,,,,,,,,,,,,,,,,,,,,,,,,,,,,,,,,,None,,592.043918509921,None,592.043918509921,None,2022-09-01-10:39:46.502463,592.0468455995433,592.3607985996641,592.0468455995433,592.0468455995433,None,592.0468455995433,592.0468455995433,592.8607484097126,None,,,,21011,0002,2022_Sep_01_1030,localizer,2021.1.3,60.02271254376943,
block_start,scenes,scenes050.bmp,,,,,0,91,91,91,,,,,,,,,,,,,,,,,,,,,,,,,,,,,,,,,,,,,,,,,,t,1.8230722998268902,592.8607355998829,None,592.8607355998829,None,2022-09-01-10:39:49.165126,594.7119402997196,595.0270903999917,594.7119402997196,None,None,594.7119402997196,None,595.5271622095722,None,,,,21011,0002,2022_Sep_01_1030,localizer,2021.1.3,60.02271254376943,
block,scenes,scenes012.bmp,,,,,0,92,92,92,,,,,,,,,,,,,,,,,,,,,,,,,,,,,,,,,,,,,,,,,,None,,595.5271622095722,None,595.5271622095722,None,2022-09-01-10:39:49.983575,595.5325363995507,595.8438739995472,595.5325363995507,None,None,595.5325363995507,None,596.3449452095199,None,,,,21011,0002,2022_Sep_01_1030,localizer,2021.1.3,60.02271254376943,
block,scenes,scenes080.bmp,,,,,0,93,93,93,,,,,,,,,,,,,,,,,,,,,,,,,,,,,,,,,,,,,,,,,,None,,596.3449452095199,None,596.3449452095199,None,2022-09-01-10:39:50.803560,596.3581989998929,596.6605684999377,596.3581989998929,None,None,596.3581989998929,None,597.1605232096742,None,,,,21011,0002,2022_Sep_01_1030,localizer,2021.1.3,60.02271254376943,
block,scenes,scenes065.bmp,,,,,0,94,94,94,,,,,,,,,,,,,,,,,,,,,,,,,,,,,,,,,,,,,,,,,,None,,597.1605232096742,None,597.1605232096742,None,2022-09-01-10:39:51.617929,597.1717453999445,597.4770487998612,597.1717453999445,None,None,597.1717453999445,None,597.9772363099735,None,,,,21011,0002,2022_Sep_01_1030,localizer,2021.1.3,60.02271254376943,
block,scenes,scenes068.bmp,,,,,0,95,95,95,,,,,,,,,,,,,,,,,,,,,,,,,,,,,,,,,,,,,,,,,,None,,597.9772363099735,None,597.9772363099735,None,2022-09-01-10:39:52.433863,597.9779568999074,598.2774283997715,597.9779568999074,None,None,597.9779568999074,None,598.7778859096113,None,,,,21011,0002,2022_Sep_01_1030,localizer,2021.1.3,60.02271254376943,
block,scenes,scenes016.bmp,,,,,0,96,96,96,,,,,,,,,,,,,,,,,,,,,,,,,,,,,,,,,,,,,,,,,,None,,598.7778859096113,None,598.7778859096113,None,2022-09-01-10:39:53.237376,598.7810696996748,599.0943859997205,598.7810696996748,598.7810696996748,None,598.7810696996748,598.7810696996748,599.5841861096676,None,,,,21011,0002,2022_Sep_01_1030,localizer,2021.1.3,60.02271254376943,
block,scenes,scenes004.bmp,,,,,0,97,97,97,,,,,,,,,,,,,,,,,,,,,,,,,,,,,,,,,,,,,,,,,,None,,599.5841861096676,None,599.5841861096676,None,2022-09-01-10:39:54.049521,599.603080699686,599.9107993999496,599.603080699686,599.603080699686,None,599.603080699686,599.603080699686,600.4106194097083,None,,,,21011,0002,2022_Sep_01_1030,localizer,2021.1.3,60.02271254376943,
block,scenes,scenes003.bmp,,,,,0,98,98,98,,,,,,,,,,,,,,,,,,,,,,,,,,,,,,,,,,,,,,,,,,None,,600.4106194097083,None,600.4106194097083,None,2022-09-01-10:39:54.867166,600.4117011995986,600.710777899716,600.4117011995986,None,None,600.4117011995986,None,601.2107950099278,None,,,,21011,0002,2022_Sep_01_1030,localizer,2021.1.3,60.02271254376943,
block,scenes,scenes003.bmp,,,,,0,99,99,99,,,,,,,,,,,,,,,,,,,,,,,,,,,,,,,,,,,,,,,,,,None,,601.2107950099278,None,601.2107950099278,None,2022-09-01-10:39:55.669306,601.2127223997377,601.5271782996133,601.2127223997377,601.2127223997377,y,601.2127223997377,601.2127223997377,602.0279581099282,None,0.5462028998881578,,,21011,0002,2022_Sep_01_1030,localizer,2021.1.3,60.02271254376943,
block,scenes,scenes076.bmp,,,,,0,100,100,100,,,,,,,,,,,,,,,,,,,,,,,,,,,,,,,,,,,,,,,,,,None,,602.0279581099282,None,602.0279581099282,None,2022-09-01-10:39:56.485464,602.0395145998336,602.3437981996685,602.0395145998336,None,None,602.0395145998336,None,602.8436366095673,None,,,,21011,0002,2022_Sep_01_1030,localizer,2021.1.3,60.02271254376943,
block,scenes,scenes038.bmp,,,,,0,101,101,101,,,,,,,,,,,,,,,,,,,,,,,,,,,,,,,,,,,,,,,,,,None,,602.8436366095673,None,602.8436366095673,None,2022-09-01-10:39:57.300161,602.8448269995861,603.1438153996132,602.8448269995861,None,None,602.8448269995861,None,603.6439438098575,None,,,,21011,0002,2022_Sep_01_1030,localizer,2021.1.3,60.02271254376943,
block,scenes,scenes047.bmp,,,,,0,102,102,102,,,,,,,,,,,,,,,,,,,,,,,,,,,,,,,,,,,,,,,,,,None,,603.6439438098575,None,603.6439438098575,None,2022-09-01-10:39:58.102595,603.6456269999035,603.9605629998259,603.6456269999035,603.6456269999035,None,603.6456269999035,603.6456269999035,604.4606170099694,None,,,,21011,0002,2022_Sep_01_1030,localizer,2021.1.3,60.02271254376943,
block,scenes,scenes088.bmp,,,,,0,103,103,103,,,,,,,,,,,,,,,,,,,,,,,,,,,,,,,,,,,,,,,,,,None,,604.4606170099694,None,604.4606170099694,None,2022-09-01-10:39:58.917152,604.46921559982,604.777145399712,604.46921559982,None,None,604.46921559982,None,605.2774354097899,None,,,,21011,0002,2022_Sep_01_1030,localizer,2021.1.3,60.02271254376943,
block,scenes,scenes025.bmp,,,,,0,104,104,104,,,,,,,,,,,,,,,,,,,,,,,,,,,,,,,,,,,,,,,,,,None,,605.2774354097899,None,605.2774354097899,None,2022-09-01-10:39:59.733962,605.2781799999066,605.5937653998844,605.2781799999066,None,None,605.2781799999066,None,606.0776142095681,None,,,,21011,0002,2022_Sep_01_1030,localizer,2021.1.3,60.02271254376943,
block_end,scenes,scenes032.bmp,,,,,0,105,105,105,,,,,,,,,,,,,,,,,,,,,,,,,,,,,,,,,,,,,,,,,,None,,606.0776142095681,None,606.0776142095681,None,2022-09-01-10:40:00.537317,606.0807197997347,606.3941494999453,606.0807197997347,606.0807197997347,None,606.0807197997347,606.0807197997347,606.8941545099485,None,,,,21011,0002,2022_Sep_01_1030,localizer,2021.1.3,60.02271254376943,
null_block,null_block,null_block.bmp,,,,,0,106,106,106,,,,,,,,,,,,,,,,,,,,,,,,,,,,,,,,,,,,,,,,,,t,1.7893652999773622,606.8943061996251,None,606.8943061996251,None,2022-09-01-10:40:03.167217,608.7106785098556,None,608.7106785098556,None,None,608.7106785098556,None,608.7154122996144,None,,,,21011,0002,2022_Sep_01_1030,localizer,2021.1.3,60.02271254376943,
block_start,faces,faces044.bmp,,,,,0,107,107,107,,,,,,,,,,,,,,,,,,,,,,,,,,,,,,,,,,,,,,,,,,t,1.95678579993546,620.727353299968,None,620.727353299968,None,2022-09-01-10:40:17.165165,622.7077191998251,623.0105571998283,622.7077191998251,None,None,622.7077191998251,None,623.510343709914,None,,,,21011,0002,2022_Sep_01_1030,localizer,2021.1.3,60.02271254376943,
block,faces,faces041.bmp,,,,,0,108,108,108,,,,,,,,,,,,,,,,,,,,,,,,,,,,,,,,,,,,,,,,,,None,,623.510343709914,None,623.510343709914,None,2022-09-01-10:40:17.966943,623.5197000997141,623.8272503996268,623.5197000997141,None,None,623.5197000997141,None,624.3270361097063,None,,,,21011,0002,2022_Sep_01_1030,localizer,2021.1.3,60.02271254376943,
block,faces,faces020.bmp,,,,,0,109,109,109,,,,,,,,,,,,,,,,,,,,,,,,,,,,,,,,,,,,,,,,,,None,,624.3270361097063,None,624.3270361097063,None,2022-09-01-10:40:18.783640,624.3357918998227,624.6311044995673,624.3357918998227,None,None,624.3357918998227,None,625.1453105099033,None,,,,21011,0002,2022_Sep_01_1030,localizer,2021.1.3,60.02271254376943,
block,faces,faces072.bmp,,,,,0,110,110,110,,,,,,,,,,,,,,,,,,,,,,,,,,,,,,,,,,,,,,,,,,None,,625.1453105099033,None,625.1453105099033,None,2022-09-01-10:40:19.602890,625.1475960998796,625.4605232998729,625.1475960998796,None,None,625.1475960998796,None,625.960440109903,None,,,,21011,0002,2022_Sep_01_1030,localizer,2021.1.3,60.02271254376943,
block,faces,faces029.bmp,,,,,0,111,111,111,,,,,,,,,,,,,,,,,,,,,,,,,,,,,,,,,,,,,,,,,,None,,625.960440109903,None,625.960440109903,None,2022-09-01-10:40:20.417047,625.9618672998622,626.2602106998675,625.9618672998622,None,None,625.9618672998622,None,626.7769882096443,None,,,,21011,0002,2022_Sep_01_1030,localizer,2021.1.3,60.02271254376943,
block,faces,faces038.bmp,,,,,0,112,112,112,,,,,,,,,,,,,,,,,,,,,,,,,,,,,,,,,,,,,,,,,,None,,626.7769882096443,None,626.7769882096443,None,2022-09-01-10:40:21.232437,626.7929698997177,627.0954844998196,626.7929698997177,None,None,626.7929698997177,None,627.5937902098055,None,,,,21011,0002,2022_Sep_01_1030,localizer,2021.1.3,60.02271254376943,
block,faces,faces021.bmp,,,,,0,113,113,113,,,,,,,,,,,,,,,,,,,,,,,,,,,,,,,,,,,,,,,,,,None,,627.5937902098055,None,627.5937902098055,None,2022-09-01-10:40:22.050403,627.6043671998195,627.910305599682,627.6043671998195,None,None,627.6043671998195,None,628.4105925098527,None,,,,21011,0002,2022_Sep_01_1030,localizer,2021.1.3,60.02271254376943,
block,faces,faces007.bmp,,,,,0,114,114,114,,,,,,,,,,,,,,,,,,,,,,,,,,,,,,,,,,,,,,,,,,None,,628.4105925098527,None,628.4105925098527,None,2022-09-01-10:40:22.867540,628.4116685995832,628.7271632999182,628.4116685995832,None,None,628.4116685995832,None,629.227255109651,None,,,,21011,0002,2022_Sep_01_1030,localizer,2021.1.3,60.02271254376943,
block,faces,faces087.bmp,,,,,0,115,115,115,,,,,,,,,,,,,,,,,,,,,,,,,,,,,,,,,,,,,,,,,,None,,629.227255109651,None,629.227255109651,None,2022-09-01-10:40:23.683874,629.2385676996782,629.5438133999705,629.2385676996782,None,None,629.2385676996782,None,630.0438561099115,None,,,,21011,0002,2022_Sep_01_1030,localizer,2021.1.3,60.02271254376943,
block,faces,faces055.bmp,,,,,0,116,116,116,,,,,,,,,,,,,,,,,,,,,,,,,,,,,,,,,,,,,,,,,,None,,630.0438561099115,None,630.0438561099115,None,2022-09-01-10:40:24.500475,630.0539841996506,630.3607458998449,630.0539841996506,None,None,630.0539841996506,None,630.8606659098994,None,,,,21011,0002,2022_Sep_01_1030,localizer,2021.1.3,60.02271254376943,
block,faces,faces030.bmp,,,,,0,117,117,117,,,,,,,,,,,,,,,,,,,,,,,,,,,,,,,,,,,,,,,,,,None,,630.8606659098994,None,630.8606659098994,None,2022-09-01-10:40:25.317289,630.861916499678,631.1773467999883,630.861916499678,None,None,630.861916499678,None,631.6771772098261,None,,,,21011,0002,2022_Sep_01_1030,localizer,2021.1.3,60.02271254376943,
block,faces,faces022.bmp,,,,,0,118,118,118,,,,,,,,,,,,,,,,,,,,,,,,,,,,,,,,,,,,,,,,,,None,,631.6771772098261,None,631.6771772098261,None,2022-09-01-10:40:26.133803,631.6881047999486,631.9938803999685,631.6881047999486,None,None,631.6881047999486,None,632.4937725099269,None,,,,21011,0002,2022_Sep_01_1030,localizer,2021.1.3,60.02271254376943,
block,faces,faces059.bmp,,,,,0,119,119,119,,,,,,,,,,,,,,,,,,,,,,,,,,,,,,,,,,,,,,,,,,None,,632.4937725099269,None,632.4937725099269,None,2022-09-01-10:40:26.950402,632.5032444996759,632.8107385998592,632.5032444996759,None,None,632.5032444996759,None,633.3106858096551,None,,,,21011,0002,2022_Sep_01_1030,localizer,2021.1.3,60.02271254376943,
block,faces,faces082.bmp,,,,,0,120,120,120,,,,,,,,,,,,,,,,,,,,,,,,,,,,,,,,,,,,,,,,,,None,,633.3106858096551,None,633.3106858096551,None,2022-09-01-10:40:27.767318,633.3118248996325,633.6310027996078,633.3118248996325,None,None,633.3118248996325,None,634.1273975097108,None,,,,21011,0002,2022_Sep_01_1030,localizer,2021.1.3,60.02271254376943,
block_end,faces,faces048.bmp,,,,,0,121,121,121,,,,,,,,,,,,,,,,,,,,,,,,,,,,,,,,,,,,,,,,,,None,,634.1273975097108,None,634.1273975097108,None,2022-09-01-10:40:28.584033,634.1284610996954,634.4438906996511,634.1284610996954,None,None,634.1284610996954,None,634.9438321096357,None,,,,21011,0002,2022_Sep_01_1030,localizer,2021.1.3,60.02271254376943,
block_start,objects,objects032.bmp,,,,,0,122,122,122,,,,,,,,,,,,,,,,,,,,,,,,,,,,,,,,,,,,,,,,,,t,1.7401235001161695,634.9436692995951,None,634.9436692995951,None,2022-09-01-10:40:31.166482,636.7199746998958,637.0273680998944,636.7199746998958,None,None,636.7199746998958,None,637.5272669097874,None,,,,21011,0002,2022_Sep_01_1030,localizer,2021.1.3,60.02271254376943,
block,objects,objects043.bmp,,,,,0,123,123,123,,,,,,,,,,,,,,,,,,,,,,,,,,,,,,,,,,,,,,,,,,None,,637.5272669097874,None,637.5272669097874,None,2022-09-01-10:40:31.983916,637.5357446996495,637.8439916996285,637.5357446996495,None,None,637.5357446996495,None,638.3439277098048,None,,,,21011,0002,2022_Sep_01_1030,localizer,2021.1.3,60.02271254376943,
block,objects,objects088.bmp,,,,,0,124,124,124,,,,,,,,,,,,,,,,,,,,,,,,,,,,,,,,,,,,,,,,,,None,,638.3439277098048,None,638.3439277098048,None,2022-09-01-10:40:32.799581,638.3452598997392,638.6605254998431,638.3452598997392,None,None,638.3452598997392,None,639.1605632099788,None,,,,21011,0002,2022_Sep_01_1030,localizer,2021.1.3,60.02271254376943,
block,objects,objects014.bmp,,,,,0,125,125,125,,,,,,,,,,,,,,,,,,,,,,,,,,,,,,,,,,,,,,,,,,None,,639.1605632099788,None,639.1605632099788,None,2022-09-01-10:40:33.616221,639.1618630997837,639.4774299999699,639.1618630997837,None,None,639.1618630997837,None,639.9772949097212,None,,,,21011,0002,2022_Sep_01_1030,localizer,2021.1.3,60.02271254376943,
block,objects,objects066.bmp,,,,,0,126,126,126,,,,,,,,,,,,,,,,,,,,,,,,,,,,,,,,,,,,,,,,,,None,,639.9772949097212,None,639.9772949097212,None,2022-09-01-10:40:34.432955,639.9859436997212,640.294072999619,639.9859436997212,None,None,639.9859436997212,None,640.7937842099461,None,,,,21011,0002,2022_Sep_01_1030,localizer,2021.1.3,60.02271254376943,
block,objects,objects078.bmp,,,,,0,127,127,127,,,,,,,,,,,,,,,,,,,,,,,,,,,,,,,,,,,,,,,,,,None,,640.7937842099461,None,640.7937842099461,None,2022-09-01-10:40:35.249447,640.7951873997226,641.1104613998905,640.7951873997226,None,None,640.7951873997226,None,641.6104703098069,None,,,,21011,0002,2022_Sep_01_1030,localizer,2021.1.3,60.02271254376943,
block,objects,objects048.bmp,,,,,0,128,128,128,,,,,,,,,,,,,,,,,,,,,,,,,,,,,,,,,,,,,,,,,,None,,641.6104703098069,None,641.6104703098069,None,2022-09-01-10:40:36.066137,641.6120612998493,641.9273122996092,641.6120612998493,None,None,641.6120612998493,None,642.4271873095538,None,,,,21011,0002,2022_Sep_01_1030,localizer,2021.1.3,60.02271254376943,
block,objects,objects079.bmp,,,,,0,129,129,129,,,,,,,,,,,,,,,,,,,,,,,,,,,,,,,,,,,,,,,,,,None,,642.4271873095538,None,642.4271873095538,None,2022-09-01-10:40:36.882855,642.4349065995775,642.7443993999623,642.4349065995775,None,None,642.4349065995775,None,643.2440279097762,None,,,,21011,0002,2022_Sep_01_1030,localizer,2021.1.3,60.02271254376943,
block,objects,objects017.bmp,,,,,0,130,130,130,,,,,,,,,,,,,,,,,,,,,,,,,,,,,,,,,,,,,,,,,,None,,643.2440279097762,None,643.2440279097762,None,2022-09-01-10:40:37.699705,643.2459161998704,643.560631999746,643.2459161998704,None,None,643.2459161998704,None,644.0605368096847,None,,,,21011,0002,2022_Sep_01_1030,localizer,2021.1.3,60.02271254376943,
block,objects,objects031.bmp,,,,,0,131,131,131,,,,,,,,,,,,,,,,,,,,,,,,,,,,,,,,,,,,,,,,,,None,,644.0605368096847,None,644.0605368096847,None,2022-09-01-10:40:38.516210,644.0619828999043,644.3774792999029,644.0619828999043,None,None,644.0619828999043,None,644.8774406099226,None,,,,21011,0002,2022_Sep_01_1030,localizer,2021.1.3,60.02271254376943,
block,objects,objects012.bmp,,,,,0,132,132,132,,,,,,,,,,,,,,,,,,,,,,,,,,,,,,,,,,,,,,,,,,None,,644.8774406099226,None,644.8774406099226,None,2022-09-01-10:40:39.334112,644.8785427999683,645.1778860995546,644.8785427999683,None,None,644.8785427999683,None,645.6778369098436,None,,,,21011,0002,2022_Sep_01_1030,localizer,2021.1.3,60.02271254376943,
block,objects,objects006.bmp,,,,,0,133,133,133,,,,,,,,,,,,,,,,,,,,,,,,,,,,,,,,,,,,,,,,,,None,,645.6778369098436,None,645.6778369098436,None,2022-09-01-10:40:40.136702,645.6802295995876,645.9939443999901,645.6802295995876,645.6802295995876,None,645.6802295995876,645.6802295995876,646.4939280095975,None,,,,21011,0002,2022_Sep_01_1030,localizer,2021.1.3,60.02271254376943,
block,objects,objects068.bmp,,,,,0,134,134,134,,,,,,,,,,,,,,,,,,,,,,,,,,,,,,,,,,,,,,,,,,None,,646.4939280095975,None,646.4939280095975,None,2022-09-01-10:40:40.949611,646.4958394998685,646.8108981996775,646.4958394998685,None,None,646.4958394998685,None,647.3104712096508,None,,,,21011,0002,2022_Sep_01_1030,localizer,2021.1.3,60.02271254376943,
block,objects,objects008.bmp,,,,,0,135,135,135,,,,,,,,,,,,,,,,,,,,,,,,,,,,,,,,,,,,,,,,,,None,,647.3104712096508,None,647.3104712096508,None,2022-09-01-10:40:41.766163,647.3192020999268,647.6277229995467,647.3192020999268,None,None,647.3192020999268,None,648.1276410095859,None,,,,21011,0002,2022_Sep_01_1030,localizer,2021.1.3,60.02271254376943,
block_end,objects,objects037.bmp,,,,,0,136,136,136,,,,,,,,,,,,,,,,,,,,,,,,,,,,,,,,,,,,,,,,,,None,,648.1276410095859,None,648.1276410095859,None,2022-09-01-10:40:42.583304,648.1357167996466,648.4441233999096,648.1357167996466,None,None,648.1357167996466,None,648.9438543095719,None,,,,21011,0002,2022_Sep_01_1030,localizer,2021.1.3,60.02271254376943,
null_block,null_block,null_block.bmp,,,,,0,137,137,137,,,,,,,,,,,,,,,,,,,,,,,,,,,,,,,,,,,,,,,,,,t,1.739667400252074,648.9440084998496,None,648.9440084998496,None,2022-09-01-10:40:45.165275,650.7105740098748,None,650.7105740098748,None,None,650.7105740098748,None,650.7107286998071,None,,,,21011,0002,2022_Sep_01_1030,localizer,2021.1.3,60.02271254376943,
block_start,faces,faces086.bmp,,,,,0,138,138,138,,,,,,,,,,,,,,,,,,,,,,,,,,,,,,,,,,,,,,,,,,t,1.9722885000519454,662.7113801999949,None,662.7113801999949,None,2022-09-01-10:40:59.168416,664.7210963997059,665.0278903995641,664.7210963997059,None,None,664.7210963997059,None,665.5275652096141,None,,,,21011,0002,2022_Sep_01_1030,localizer,2021.1.3,60.02271254376943,
block,faces,faces057.bmp,,,,,0,139,139,139,,,,,,,,,,,,,,,,,,,,,,,,,,,,,,,,,,,,,,,,,,None,,665.5275652096141,None,665.5275652096141,None,2022-09-01-10:40:59.984311,665.5287705999799,665.8439645995386,665.5287705999799,None,None,665.5287705999799,None,666.3441466097254,None,,,,21011,0002,2022_Sep_01_1030,localizer,2021.1.3,60.02271254376943,
block,faces,faces063.bmp,,,,,0,140,140,140,,,,,,,,,,,,,,,,,,,,,,,,,,,,,,,,,,,,,,,,,,None,,666.3441466097254,None,666.3441466097254,None,2022-09-01-10:41:00.799556,666.3505780999549,666.6609187996946,666.3505780999549,None,None,666.3505780999549,None,667.1606352095957,None,,,,21011,0002,2022_Sep_01_1030,localizer,2021.1.3,60.02271254376943,
block,faces,faces002.bmp,,,,,0,141,141,141,,,,,,,,,,,,,,,,,,,,,,,,,,,,,,,,,,,,,,,,,,None,,667.1606352095957,None,667.1606352095957,None,2022-09-01-10:41:01.616390,667.1626854999922,667.4775971998461,667.1626854999922,None,None,667.1626854999922,None,667.9775289096403,None,,,,21011,0002,2022_Sep_01_1030,localizer,2021.1.3,60.02271254376943,
block,faces,faces013.bmp,,,,,0,142,142,142,,,,,,,,,,,,,,,,,,,,,,,,,,,,,,,,,,,,,,,,,,None,,667.9775289096403,None,667.9775289096403,None,2022-09-01-10:41:02.434482,667.9873704998754,668.2940896996297,667.9873704998754,None,None,667.9873704998754,None,668.7941847098525,None,,,,21011,0002,2022_Sep_01_1030,localizer,2021.1.3,60.02271254376943,
block,faces,faces047.bmp,,,,,0,143,143,143,,,,,,,,,,,,,,,,,,,,,,,,,,,,,,,,,,,,,,,,,,None,,668.7941847098525,None,668.7941847098525,None,2022-09-01-10:41:03.251092,668.7953832997009,669.110826799646,668.7953832997009,None,None,668.7953832997009,None,669.6108657097909,None,,,,21011,0002,2022_Sep_01_1030,localizer,2021.1.3,60.02271254376943,
block,faces,faces035.bmp,,,,,0,144,144,144,,,,,,,,,,,,,,,,,,,,,,,,,,,,,,,,,,,,,,,,,,None,,669.6108657097909,None,669.6108657097909,None,2022-09-01-10:41:04.068042,669.6212439998053,669.9274705997668,669.6212439998053,None,None,669.6212439998053,None,670.4272408098448,None,,,,21011,0002,2022_Sep_01_1030,localizer,2021.1.3,60.02271254376943,
block,faces,faces065.bmp,,,,,0,145,145,145,,,,,,,,,,,,,,,,,,,,,,,,,,,,,,,,,,,,,,,,,,None,,670.4272408098448,None,670.4272408098448,None,2022-09-01-10:41:04.882941,670.4290022999048,670.744533999823,670.4290022999048,None,None,670.4290022999048,None,671.2441368097905,None,,,,21011,0002,2022_Sep_01_1030,localizer,2021.1.3,60.02271254376943,
block,faces,faces077.bmp,,,,,0,146,146,146,,,,,,,,,,,,,,,,,,,,,,,,,,,,,,,,,,,,,,,,,,None,,671.2441368097905,None,671.2441368097905,None,2022-09-01-10:41:05.699906,671.2532836999744,671.5608143997379,671.2532836999744,None,None,671.2532836999744,None,672.0608520097564,None,,,,21011,0002,2022_Sep_01_1030,localizer,2021.1.3,60.02271254376943,
block,faces,faces018.bmp,,,,,0,147,147,147,,,,,,,,,,,,,,,,,,,,,,,,,,,,,,,,,,,,,,,,,,None,,672.0608520097564,None,672.0608520097564,None,2022-09-01-10:41:06.516621,672.0620448999107,672.3774395999499,672.0620448999107,None,None,672.0620448999107,None,672.8775561097543,None,,,,21011,0002,2022_Sep_01_1030,localizer,2021.1.3,60.02271254376943,
block,faces,faces004.bmp,,,,,0,148,148,148,,,,,,,,,,,,,,,,,,,,,,,,,,,,,,,,,,,,,,,,,,None,,672.8775561097543,None,672.8775561097543,None,2022-09-01-10:41:07.333330,672.8788560996763,673.1941907997243,672.8788560996763,None,None,672.8788560996763,None,673.6942067099269,None,,,,21011,0002,2022_Sep_01_1030,localizer,2021.1.3,60.02271254376943,
block,faces,faces006.bmp,,,,,0,149,149,149,,,,,,,,,,,,,,,,,,,,,,,,,,,,,,,,,,,,,,,,,,None,,673.6942067099269,None,673.6942067099269,None,2022-09-01-10:41:08.150288,673.6955982996151,674.0106001999229,673.6955982996151,None,None,673.6955982996151,None,674.5109113095793,None,,,,21011,0002,2022_Sep_01_1030,localizer,2021.1.3,60.02271254376943,
block,faces,faces064.bmp,,,,,0,150,150,150,,,,,,,,,,,,,,,,,,,,,,,,,,,,,,,,,,,,,,,,,,None,,674.5109113095793,None,674.5109113095793,None,2022-09-01-10:41:08.967941,674.5121598998085,674.8276845999062,674.5121598998085,None,None,674.5121598998085,None,675.3271041097585,None,,,,21011,0002,2022_Sep_01_1030,localizer,2021.1.3,60.02271254376943,
block,faces,faces053.bmp,,,,,0,151,151,151,,,,,,,,,,,,,,,,,,,,,,,,,,,,,,,,,,,,,,,,,,None,,675.3271041097585,None,675.3271041097585,None,2022-09-01-10:41:09.782890,675.3292365996167,675.6437591998838,675.3292365996167,None,None,675.3292365996167,None,676.1506734098773,None,,,,21011,0002,2022_Sep_01_1030,localizer,2021.1.3,60.02271254376943,
block_end,faces,faces068.bmp,,,,,0,152,152,152,,,,,,,,,,,,,,,,,,,,,,,,,,,,,,,,,,,,,,,,,,None,,676.1506734098773,None,676.1506734098773,None,2022-09-01-10:41:10.613240,676.158570099622,676.4602333996445,676.158570099622,None,None,676.158570099622,None,676.9602605099324,None,,,,21011,0002,2022_Sep_01_1030,localizer,2021.1.3,60.02271254376943,
block_start,scenes,scenes070.bmp,,,,,0,153,153,153,,,,,,,,,,,,,,,,,,,,,,,,,,,,,,,,,,,,,,,,,,t,1.722976400051266,676.9606351996772,None,676.9606351996772,None,2022-09-01-10:41:13.166983,678.7123208995908,679.0269910995848,678.7123208995908,None,None,678.7123208995908,None,679.5274464096408,None,,,,21011,0002,2022_Sep_01_1030,localizer,2021.1.3,60.02271254376943,
block,scenes,scenes075.bmp,,,,,0,154,154,154,,,,,,,,,,,,,,,,,,,,,,,,,,,,,,,,,,,,,,,,,,None,,679.5274464096408,None,679.5274464096408,None,2022-09-01-10:41:13.983246,679.5356924999505,679.8441293998621,679.5356924999505,None,None,679.5356924999505,None,680.3440544097218,None,,,,21011,0002,2022_Sep_01_1030,localizer,2021.1.3,60.02271254376943,
block,scenes,scenes012.bmp,,,,,0,155,155,155,,,,,,,,,,,,,,,,,,,,,,,,,,,,,,,,,,,,,,,,,,None,,680.3440544097218,None,680.3440544097218,None,2022-09-01-10:41:14.799857,680.346097999718,680.648085899651,680.346097999718,None,None,680.346097999718,None,681.1603026096243,None,,,,21011,0002,2022_Sep_01_1030,localizer,2021.1.3,60.02271254376943,
block,scenes,scenes050.bmp,,,,,0,156,156,156,,,,,,,,,,,,,,,,,,,,,,,,,,,,,,,,,,,,,,,,,,None,,681.1603026096243,None,681.1603026096243,None,2022-09-01-10:41:15.616204,681.1627748999745,681.4684245996177,681.1627748999745,None,None,681.1627748999745,None,681.967407909641,None,,,,21011,0002,2022_Sep_01_1030,localizer,2021.1.3,60.02271254376943,
block,scenes,scenes087.bmp,,,,,0,157,157,157,,,,,,,,,,,,,,,,,,,,,,,,,,,,,,,,,,,,,,,,,,None,,681.967407909641,None,681.967407909641,None,2022-09-01-10:41:16.427114,681.971436899621,682.2771988995373,681.971436899621,None,None,681.971436899621,None,682.7773804096039,None,,,,21011,0002,2022_Sep_01_1030,localizer,2021.1.3,60.02271254376943,
block,scenes,scenes037.bmp,,,,,0,158,158,158,,,,,,,,,,,,,,,,,,,,,,,,,,,,,,,,,,,,,,,,,,None,,682.7773804096039,None,682.7773804096039,None,2022-09-01-10:41:17.234189,682.7791944998316,683.1008473997936,682.7791944998316,None,None,682.7791944998316,None,683.5801391098182,None,,,,21011,0002,2022_Sep_01_1030,localizer,2021.1.3,60.02271254376943,
block,scenes,scenes064.bmp,,,,,0,159,159,159,,,,,,,,,,,,,,,,,,,,,,,,,,,,,,,,,,,,,,,,,,None,,683.5801391098182,None,683.5801391098182,None,2022-09-01-10:41:18.038176,683.5804428998381,683.894130199682,683.5804428998381,683.5804428998381,None,683.5804428998381,683.5804428998381,684.3941456097643,None,,,,21011,0002,2022_Sep_01_1030,localizer,2021.1.3,60.02271254376943,
block,scenes,scenes027.bmp,,,,,0,160,160,160,,,,,,,,,,,,,,,,,,,,,,,,,,,,,,,,,,,,,,,,,,None,,684.3941456097643,None,684.3941456097643,None,2022-09-01-10:41:18.849962,684.3961318996735,684.7106963996775,684.3961318996735,None,None,684.3961318996735,None,685.2111240098718,None,,,,21011,0002,2022_Sep_01_1030,localizer,2021.1.3,60.02271254376943,
block,scenes,scenes080.bmp,,,,,0,161,161,161,,,,,,,,,,,,,,,,,,,,,,,,,,,,,,,,,,,,,,,,,,None,,685.2111240098718,None,685.2111240098718,None,2022-09-01-10:41:19.668141,685.211990099866,685.5276935999282,685.211990099866,None,None,685.211990099866,None,686.0110031095799,None,,,,21011,0002,2022_Sep_01_1030,localizer,2021.1.3,60.02271254376943,
block,scenes,scenes090.bmp,,,,,0,162,162,162,,,,,,,,,,,,,,,,,,,,,,,,,,,,,,,,,,,,,,,,,,None,,686.0110031095799,None,686.0110031095799,None,2022-09-01-10:41:20.469940,686.0120652997866,686.3278849995695,686.0120652997866,686.0120652997866,None,686.0120652997866,686.0120652997866,686.8275789096485,None,,,,21011,0002,2022_Sep_01_1030,localizer,2021.1.3,60.02271254376943,
block,scenes,scenes004.bmp,,,,,0,163,163,163,,,,,,,,,,,,,,,,,,,,,,,,,,,,,,,,,,,,,,,,,,None,,686.8275789096485,None,686.8275789096485,None,2022-09-01-10:41:21.284398,686.8296206998639,687.1285178996623,686.8296206998639,None,None,686.8296206998639,None,687.6443998096045,None,,,,21011,0002,2022_Sep_01_1030,localizer,2021.1.3,60.02271254376943,
block,scenes,scenes082.bmp,,,,,0,164,164,164,,,,,,,,,,,,,,,,,,,,,,,,,,,,,,,,,,,,,,,,,,None,,687.6443998096045,None,687.6443998096045,None,2022-09-01-10:41:22.101217,687.6545393997803,687.9611508999951,687.6545393997803,None,None,687.6545393997803,None,688.4506949097383,None,,,,21011,0002,2022_Sep_01_1030,localizer,2021.1.3,60.02271254376943,
block,scenes,scenes036.bmp,,,,,0,165,165,165,,,,,,,,,,,,,,,,,,,,,,,,,,,,,,,,,,,,,,,,,,None,,688.4506949097383,None,688.4506949097383,None,2022-09-01-10:41:22.913396,688.4585945997387,688.7614983995445,688.4585945997387,None,None,688.4585945997387,None,689.2610150095541,None,,,,21011,0002,2022_Sep_01_1030,localizer,2021.1.3,60.02271254376943,
block,scenes,scenes014.bmp,,,,,0,166,166,166,,,,,,,,,,,,,,,,,,,,,,,,,,,,,,,,,,,,,,,,,,None,,689.2610150095541,None,689.2610150095541,None,2022-09-01-10:41:23.717841,689.2622275999747,689.5777121996507,689.2622275999747,None,None,689.2622275999747,None,690.0777797097805,None,,,,21011,0002,2022_Sep_01_1030,localizer,2021.1.3,60.02271254376943,
block_end,scenes,scenes055.bmp,,,,,0,167,167,167,,,,,,,,,,,,,,,,,,,,,,,,,,,,,,,,,,,,,,,,,,None,,690.0777797097805,None,690.0777797097805,None,2022-09-01-10:41:24.534608,690.0790060996078,690.394498899579,690.0790060996078,None,None,690.0790060996078,None,690.894289309578,None,,,,21011,0002,2022_Sep_01_1030,localizer,2021.1.3,60.02271254376943,
block_start,scrambled,scrambled043.bmp,,,,,0,168,168,168,,,,,,,,,,,,,,,,,,,,,,,,,,,,,,,,,,,,,,,,,,t,1.7883721999824047,690.89421389997,None,690.89421389997,None,2022-09-01-10:41:27.166819,692.7120811999775,693.027722899802,692.7120811999775,None,None,692.7120811999775,None,693.52738740989,None,,,,21011,0002,2022_Sep_01_1030,localizer,2021.1.3,60.02271254376943,
block,scrambled,scrambled061.bmp,,,,,0,169,169,169,,,,,,,,,,,,,,,,,,,,,,,,,,,,,,,,,,,,,,,,,,None,,693.52738740989,None,693.52738740989,None,2022-09-01-10:41:27.983089,693.5348961995915,693.8443425996229,693.5348961995915,None,None,693.5348961995915,None,694.3441609097179,None,,,,21011,0002,2022_Sep_01_1030,localizer,2021.1.3,60.02271254376943,
block,scrambled,scrambled069.bmp,,,,,0,170,170,170,,,,,,,,,,,,,,,,,,,,,,,,,,,,,,,,,,,,,,,,,,None,,694.3441609097179,None,694.3441609097179,None,2022-09-01-10:41:28.800046,694.3513663997874,694.6611572997645,694.3513663997874,None,None,694.3513663997874,None,695.1609771097544,None,,,,21011,0002,2022_Sep_01_1030,localizer,2021.1.3,60.02271254376943,
block,scrambled,scrambled060.bmp,,,,,0,171,171,171,,,,,,,,,,,,,,,,,,,,,,,,,,,,,,,,,,,,,,,,,,None,,695.1609771097544,None,695.1609771097544,None,2022-09-01-10:41:29.616867,695.1629701997153,695.4769792999141,695.1629701997153,None,None,695.1629701997153,None,695.9774537095334,None,,,,21011,0002,2022_Sep_01_1030,localizer,2021.1.3,60.02271254376943,
block,scrambled,scrambled046.bmp,,,,,0,172,172,172,,,,,,,,,,,,,,,,,,,,,,,,,,,,,,,,,,,,,,,,,,None,,695.9774537095334,None,695.9774537095334,None,2022-09-01-10:41:30.433312,695.9793097996153,696.2943298998289,695.9793097996153,None,None,695.9793097996153,None,696.7943590096663,None,,,,21011,0002,2022_Sep_01_1030,localizer,2021.1.3,60.02271254376943,
block,scrambled,scrambled068.bmp,,,,,0,173,173,173,,,,,,,,,,,,,,,,,,,,,,,,,,,,,,,,,,,,,,,,,,None,,696.7943590096663,None,696.7943590096663,None,2022-09-01-10:41:31.251458,696.7956599998288,697.1010009995662,696.7956599998288,None,None,696.7956599998288,None,697.6109684095252,None,,,,21011,0002,2022_Sep_01_1030,localizer,2021.1.3,60.02271254376943,
block,scrambled,scrambled068.bmp,,,,,0,174,174,174,,,,,,,,,,,,,,,,,,,,,,,,,,,,,,,,,,,,,,,,,,None,,697.6109684095252,None,697.6109684095252,None,2022-09-01-10:41:32.067832,697.6120873996988,697.9276559995487,697.6120873996988,None,None,697.6120873996988,None,698.4112934097182,None,,,,21011,0002,2022_Sep_01_1030,localizer,2021.1.3,60.02271254376943,
block,scrambled,scrambled005.bmp,,,,,0,175,175,175,,,,,,,,,,,,,,,,,,,,,,,,,,,,,,,,,,,,,,,,,,None,,698.4112934097182,None,698.4112934097182,None,2022-09-01-10:41:32.869150,698.4118726998568,698.7107880995609,698.4118726998568,698.4118726998568,y,698.4118726998568,698.4118726998568,699.2110145096201,None,0.06353539973497391,,,21011,0002,2022_Sep_01_1030,localizer,2021.1.3,60.02271254376943,
block,scrambled,scrambled006.bmp,,,,,0,176,176,176,,,,,,,,,,,,,,,,,,,,,,,,,,,,,,,,,,,,,,,,,,None,,699.2110145096201,None,699.2110145096201,None,2022-09-01-10:41:33.668585,699.2210726998746,699.5277317999862,699.2210726998746,699.2210726998746,None,699.2210726998746,699.2210726998746,700.0278780096676,None,,,,21011,0002,2022_Sep_01_1030,localizer,2021.1.3,60.02271254376943,
block,scrambled,scrambled048.bmp,,,,,0,177,177,177,,,,,,,,,,,,,,,,,,,,,,,,,,,,,,,,,,,,,,,,,,None,,700.0278780096676,None,700.0278780096676,None,2022-09-01-10:41:34.483747,700.029799899552,700.3443447998725,700.029799899552,None,None,700.029799899552,None,700.8443062095437,None,,,,21011,0002,2022_Sep_01_1030,localizer,2021.1.3,60.02271254376943,
block,scrambled,scrambled023.bmp,,,,,0,178,178,178,,,,,,,,,,,,,,,,,,,,,,,,,,,,,,,,,,,,,,,,,,None,,700.8443062095437,None,700.8443062095437,None,2022-09-01-10:41:35.300490,700.8526716995984,701.1610413999297,700.8526716995984,None,None,700.8526716995984,None,701.661030409811,None,,,,21011,0002,2022_Sep_01_1030,localizer,2021.1.3,60.02271254376943,
block,scrambled,scrambled035.bmp,,,,,0,179,179,179,,,,,,,,,,,,,,,,,,,,,,,,,,,,,,,,,,,,,,,,,,None,,701.661030409811,None,701.661030409811,None,2022-09-01-10:41:36.117902,701.6621977998875,701.9774039997719,701.6621977998875,None,None,701.6621977998875,None,702.4776673097629,None,,,,21011,0002,2022_Sep_01_1030,localizer,2021.1.3,60.02271254376943,
block,scrambled,scrambled084.bmp,,,,,0,180,180,180,,,,,,,,,,,,,,,,,,,,,,,,,,,,,,,,,,,,,,,,,,None,,702.4776673097629,None,702.4776673097629,None,2022-09-01-10:41:36.933547,702.4796892995946,702.7943621999584,702.4796892995946,None,None,702.4796892995946,None,703.294315009797,None,,,,21011,0002,2022_Sep_01_1030,localizer,2021.1.3,60.02271254376943,
block,scrambled,scrambled017.bmp,,,,,0,181,181,181,,,,,,,,,,,,,,,,,,,,,,,,,,,,,,,,,,,,,,,,,,None,,703.294315009797,None,703.294315009797,None,2022-09-01-10:41:37.750197,703.2962532998063,703.6110751996748,703.2962532998063,None,None,703.2962532998063,None,704.1112639097962,None,,,,21011,0002,2022_Sep_01_1030,localizer,2021.1.3,60.02271254376943,
block_end,scrambled,scrambled051.bmp,,,,,0,182,182,182,,,,,,,,,,,,,,,,,,,,,,,,,,,,,,,,,,,,,,,,,,None,,704.1112639097962,None,704.1112639097962,None,2022-09-01-10:41:38.567126,704.113101199735,704.4275299999863,704.113101199735,None,None,704.113101199735,None,704.9276341096963,None,,,,21011,0002,2022_Sep_01_1030,localizer,2021.1.3,60.02271254376943,
block_start,faces,faces079.bmp,,,,,0,183,183,183,,,,,,,,,,,,,,,,,,,,,,,,,,,,,,,,,,,,,,,,,,t,1.7551029003225267,704.9276219997555,None,704.9276219997555,None,2022-09-01-10:41:41.168427,706.7224878999405,707.0290988995694,706.7224878999405,None,None,706.7224878999405,None,707.5277973096352,None,,,,21011,0002,2022_Sep_01_1030,localizer,2021.1.3,60.02271254376943,
block,faces,faces075.bmp,,,,,0,184,184,184,,,,,,,,,,,,,,,,,,,,,,,,,,,,,,,,,,,,,,,,,,None,,707.5277973096352,None,707.5277973096352,None,2022-09-01-10:41:41.983695,707.5299718999304,707.8442734996788,707.5299718999304,None,None,707.5299718999304,None,708.3343433099333,None,,,,21011,0002,2022_Sep_01_1030,localizer,2021.1.3,60.02271254376943,
block,faces,faces081.bmp,,,,,0,185,185,185,,,,,,,,,,,,,,,,,,,,,,,,,,,,,,,,,,,,,,,,,,None,,708.3343433099333,None,708.3343433099333,None,2022-09-01-10:41:42.794977,708.350689899642,708.6608876995742,708.350689899642,None,None,708.350689899642,None,709.1444496097508,None,,,,21011,0002,2022_Sep_01_1030,localizer,2021.1.3,60.02271254376943,
block,faces,faces085.bmp,,,,,0,186,186,186,,,,,,,,,,,,,,,,,,,,,,,,,,,,,,,,,,,,,,,,,,None,,709.1444496097508,None,709.1444496097508,None,2022-09-01-10:41:43.600353,709.1519394996576,709.4610350998119,709.1519394996576,None,None,709.1519394996576,None,709.9610355095472,None,,,,21011,0002,2022_Sep_01_1030,localizer,2021.1.3,60.02271254376943,
block,faces,faces060.bmp,,,,,0,187,187,187,,,,,,,,,,,,,,,,,,,,,,,,,,,,,,,,,,,,,,,,,,None,,709.9610355095472,None,709.9610355095472,None,2022-09-01-10:41:44.417165,709.9642600999214,710.2674020999111,709.9642600999214,None,None,709.9642600999214,None,710.7779427095782,None,,,,21011,0002,2022_Sep_01_1030,localizer,2021.1.3,60.02271254376943,
block,faces,faces042.bmp,,,,,0,188,188,188,,,,,,,,,,,,,,,,,,,,,,,,,,,,,,,,,,,,,,,,,,None,,710.7779427095782,None,710.7779427095782,None,2022-09-01-10:41:45.234845,710.7791081997566,711.0941521995701,710.7791081997566,None,None,710.7791081997566,None,711.594439609861,None,,,,21011,0002,2022_Sep_01_1030,localizer,2021.1.3,60.02271254376943,
block,faces,faces034.bmp,,,,,0,189,189,189,,,,,,,,,,,,,,,,,,,,,,,,,,,,,,,,,,,,,,,,,,None,,711.594439609861,None,711.594439609861,None,2022-09-01-10:41:46.050346,711.6024016998708,711.9111038995907,711.6024016998708,None,None,711.6024016998708,None,712.4111765096429,None,,,,21011,0002,2022_Sep_01_1030,localizer,2021.1.3,60.02271254376943,
block,faces,faces051.bmp,,,,,0,190,190,190,,,,,,,,,,,,,,,,,,,,,,,,,,,,,,,,,,,,,,,,,,None,,712.4111765096429,None,712.4111765096429,None,2022-09-01-10:41:46.868084,712.420800099615,712.7305554999039,712.420800099615,None,None,712.420800099615,None,713.2284031095448,None,,,,21011,0002,2022_Sep_01_1030,localizer,2021.1.3,60.02271254376943,
block,faces,faces021.bmp,,,,,0,191,191,191,,,,,,,,,,,,,,,,,,,,,,,,,,,,,,,,,,,,,,,,,,None,,713.2284031095448,None,713.2284031095448,None,2022-09-01-10:41:47.685302,713.229509299621,713.5443922998384,713.229509299621,None,None,713.229509299621,None,714.031751009589,None,,,,21011,0002,2022_Sep_01_1030,localizer,2021.1.3,60.02271254376943,
block,faces,faces010.bmp,,,,,0,192,192,192,,,,,,,,,,,,,,,,,,,,,,,,,,,,,,,,,,,,,,,,,,None,,714.031751009589,None,714.031751009589,None,2022-09-01-10:41:48.497513,714.0415698997676,714.3441830999218,714.0415698997676,714.0415698997676,None,714.0415698997676,714.0415698997676,714.8445290098432,None,,,,21011,0002,2022_Sep_01_1030,localizer,2021.1.3,60.02271254376943,
block,faces,faces017.bmp,,,,,0,193,193,193,,,,,,,,,,,,,,,,,,,,,,,,,,,,,,,,,,,,,,,,,,None,,714.8445290098432,None,714.8445290098432,None,2022-09-01-10:41:49.301445,714.854227699805,715.1610409999266,714.854227699805,None,None,714.854227699805,None,715.6602707099635,None,,,,21011,0002,2022_Sep_01_1030,localizer,2021.1.3,60.02271254376943,
block,faces,faces007.bmp,,,,,0,194,194,194,,,,,,,,,,,,,,,,,,,,,,,,,,,,,,,,,,,,,,,,,,None,,715.6602707099635,None,715.6602707099635,None,2022-09-01-10:41:50.115878,715.6620347998105,715.9611895997077,715.6620347998105,None,None,715.6620347998105,None,716.4778078095521,None,,,,21011,0002,2022_Sep_01_1030,localizer,2021.1.3,60.02271254376943,
block,faces,faces056.bmp,,,,,0,195,195,195,,,,,,,,,,,,,,,,,,,,,,,,,,,,,,,,,,,,,,,,,,None,,716.4778078095521,None,716.4778078095521,None,2022-09-01-10:41:50.934735,716.4870014996268,716.7973393998109,716.4870014996268,None,None,716.4870014996268,None,717.2969857095275,None,,,,21011,0002,2022_Sep_01_1030,localizer,2021.1.3,60.02271254376943,
block,faces,faces057.bmp,,,,,0,196,196,196,,,,,,,,,,,,,,,,,,,,,,,,,,,,,,,,,,,,,,,,,,None,,717.2969857095275,None,717.2969857095275,None,2022-09-01-10:41:51.757563,717.3020153995603,717.6120619997382,717.3020153995603,None,None,717.3020153995603,None,718.1170265096705,None,,,,21011,0002,2022_Sep_01_1030,localizer,2021.1.3,60.02271254376943,
block_end,faces,faces045.bmp,,,,,0,197,197,197,,,,,,,,,,,,,,,,,,,,,,,,,,,,,,,,,,,,,,,,,,None,,718.1170265096705,None,718.1170265096705,None,2022-09-01-10:41:52.574119,718.1264121998101,718.4276690999977,718.1264121998101,None,None,718.1264121998101,None,718.9275661096442,None,,,,21011,0002,2022_Sep_01_1030,localizer,2021.1.3,60.02271254376943,
block_start,scenes,scenes024.bmp,,,,,0,198,198,198,,,,,,,,,,,,,,,,,,,,,,,,,,,,,,,,,,,,,,,,,,t,1.7548907999880612,718.9277048995718,None,718.9277048995718,None,2022-09-01-10:41:55.166855,720.7124452996068,721.0143023999408,720.7124452996068,None,None,720.7124452996068,None,721.527766709635,None,,,,21011,0002,2022_Sep_01_1030,localizer,2021.1.3,60.02271254376943,
block,scenes,scenes057.bmp,,,,,0,199,199,199,,,,,,,,,,,,,,,,,,,,,,,,,,,,,,,,,,,,,,,,,,None,,721.527766709635,None,721.527766709635,None,2022-09-01-10:41:55.984931,721.5290813995525,721.8447030996904,721.5290813995525,None,None,721.5290813995525,None,722.3445123098325,None,,,,21011,0002,2022_Sep_01_1030,localizer,2021.1.3,60.02271254376943,
block,scenes,scenes087.bmp,,,,,0,200,200,200,,,,,,,,,,,,,,,,,,,,,,,,,,,,,,,,,,,,,,,,,,None,,722.3445123098325,None,722.3445123098325,None,2022-09-01-10:41:56.801452,722.3455797997303,722.6484336997382,722.3455797997303,None,None,722.3455797997303,None,723.1612669098656,None,,,,21011,0002,2022_Sep_01_1030,localizer,2021.1.3,60.02271254376943,
block,scenes,scenes074.bmp,,,,,0,201,201,201,,,,,,,,,,,,,,,,,,,,,,,,,,,,,,,,,,,,,,,,,,None,,723.1612669098656,None,723.1612669098656,None,2022-09-01-10:41:57.618209,723.1696087997407,723.4782088999636,723.1696087997407,None,None,723.1696087997407,None,723.9800710095558,None,,,,21011,0002,2022_Sep_01_1030,localizer,2021.1.3,60.02271254376943,
block,scenes,scenes006.bmp,,,,,0,202,202,202,,,,,,,,,,,,,,,,,,,,,,,,,,,,,,,,,,,,,,,,,,None,,723.9800710095558,None,723.9800710095558,None,2022-09-01-10:41:58.440850,723.9952822998166,724.2944995998405,723.9952822998166,None,None,723.9952822998166,None,724.7945168097037,None,,,,21011,0002,2022_Sep_01_1030,localizer,2021.1.3,60.02271254376943,
block,scenes,scenes034.bmp,,,,,0,203,203,203,,,,,,,,,,,,,,,,,,,,,,,,,,,,,,,,,,,,,,,,,,None,,724.7945168097037,None,724.7945168097037,None,2022-09-01-10:41:59.251631,724.8030013996176,725.1177616999485,724.8030013996176,None,None,724.8030013996176,None,725.6112961098086,None,,,,21011,0002,2022_Sep_01_1030,localizer,2021.1.3,60.02271254376943,
block,scenes,scenes051.bmp,,,,,0,204,204,204,,,,,,,,,,,,,,,,,,,,,,,,,,,,,,,,,,,,,,,,,,None,,725.6112961098086,None,725.6112961098086,None,2022-09-01-10:42:00.067829,725.621300699655,725.9281837996095,725.621300699655,None,None,725.621300699655,None,726.4280499098356,None,,,,21011,0002,2022_Sep_01_1030,localizer,2021.1.3,60.02271254376943,
block,scenes,scenes015.bmp,,,,,0,205,205,205,,,,,,,,,,,,,,,,,,,,,,,,,,,,,,,,,,,,,,,,,,None,,726.4280499098356,None,726.4280499098356,None,2022-09-01-10:42:00.884993,726.4290544996038,726.7282057995908,726.4290544996038,None,None,726.4290544996038,None,727.2348526096437,None,,,,21011,0002,2022_Sep_01_1030,localizer,2021.1.3,60.02271254376943,
block,scenes,scenes035.bmp,,,,,0,206,206,206,,,,,,,,,,,,,,,,,,,,,,,,,,,,,,,,,,,,,,,,,,None,,727.2348526096437,None,727.2348526096437,None,2022-09-01-10:42:01.697771,727.2523560998961,727.56381819956,727.2523560998961,None,None,727.2523560998961,None,728.0444294097367,None,,,,21011,0002,2022_Sep_01_1030,localizer,2021.1.3,60.02271254376943,
block,scenes,scenes002.bmp,,,,,0,207,207,207,,,,,,,,,,,,,,,,,,,,,,,,,,,,,,,,,,,,,,,,,,None,,728.0444294097367,None,728.0444294097367,None,2022-09-01-10:42:02.501378,728.0529535999522,728.3610528996214,728.0529535999522,None,None,728.0529535999522,None,728.861823709635,None,,,,21011,0002,2022_Sep_01_1030,localizer,2021.1.3,60.02271254376943,
block,scenes,scenes091.bmp,,,,,0,208,208,208,,,,,,,,,,,,,,,,,,,,,,,,,,,,,,,,,,,,,,,,,,None,,728.861823709635,None,728.861823709635,None,2022-09-01-10:42:03.319756,728.8738757995889,729.1779191996902,728.8738757995889,None,None,728.8738757995889,None,729.6786452098283,None,,,,21011,0002,2022_Sep_01_1030,localizer,2021.1.3,60.02271254376943,
block,scenes,scenes014.bmp,,,,,0,209,209,209,,,,,,,,,,,,,,,,,,,,,,,,,,,,,,,,,,,,,,,,,,None,,729.6786452098283,None,729.6786452098283,None,2022-09-01-10:42:04.136767,729.6796562997624,729.9946997999214,729.6796562997624,None,None,729.6796562997624,None,730.4945182096678,None,,,,21011,0002,2022_Sep_01_1030,localizer,2021.1.3,60.02271254376943,
block,scenes,scenes004.bmp,,,,,0,210,210,210,,,,,,,,,,,,,,,,,,,,,,,,,,,,,,,,,,,,,,,,,,None,,730.4945182096678,None,730.4945182096678,None,2022-09-01-10:42:04.951627,730.4957404998131,730.7965983999893,730.4957404998131,None,None,730.4957404998131,None,731.3110440098214,None,,,,21011,0002,2022_Sep_01_1030,localizer,2021.1.3,60.02271254376943,
block,scenes,scenes013.bmp,,,,,0,211,211,211,,,,,,,,,,,,,,,,,,,,,,,,,,,,,,,,,,,,,,,,,,None,,731.3110440098214,None,731.3110440098214,None,2022-09-01-10:42:05.767999,731.319661299698,731.6141341999173,731.319661299698,None,None,731.319661299698,None,732.131992509542,None,,,,21011,0002,2022_Sep_01_1030,localizer,2021.1.3,60.02271254376943,
block_end,scenes,scenes059.bmp,,,,,0,212,212,212,,,,,,,,,,,,,,,,,,,,,,,,,,,,,,,,,,,,,,,,,,None,,732.131992509542,None,732.131992509542,None,2022-09-01-10:42:06.596906,732.1426627999172,732.4444809998386,732.1426627999172,None,None,732.1426627999172,None,732.9444753098767,None,,,,21011,0002,2022_Sep_01_1030,localizer,2021.1.3,60.02271254376943,
block_start,objects,objects029.bmp,,,,,0,213,213,213,,,,,,,,,,,,,,,,,,,,,,,,,,,,,,,,,,,,,,,,,,t,1.738308500032872,732.9443065999076,None,732.9443065999076,None,2022-09-01-10:42:09.172187,734.7166816997342,735.0279060998,734.7166816997342,None,None,734.7166816997342,None,735.5277069098781,None,,,,21011,0002,2022_Sep_01_1030,localizer,2021.1.3,60.02271254376943,
block,objects,objects053.bmp,,,,,0,214,214,214,,,,,,,,,,,,,,,,,,,,,,,,,,,,,,,,,,,,,,,,,,None,,735.5277069098781,None,735.5277069098781,None,2022-09-01-10:42:09.984666,735.5290068998002,735.8507052999921,735.5290068998002,None,None,735.5290068998002,None,736.3287199097219,None,,,,21011,0002,2022_Sep_01_1030,localizer,2021.1.3,60.02271254376943,
block,objects,objects043.bmp,,,,,0,215,215,215,,,,,,,,,,,,,,,,,,,,,,,,,,,,,,,,,,,,,,,,,,None,,736.3287199097219,None,736.3287199097219,None,2022-09-01-10:42:10.788473,736.3315595998429,736.644642799627,736.3315595998429,736.3315595998429,None,736.3315595998429,736.3315595998429,737.1449375096242,None,,,,21011,0002,2022_Sep_01_1030,localizer,2021.1.3,60.02271254376943,
block,objects,objects083.bmp,,,,,0,216,216,216,,,,,,,,,,,,,,,,,,,,,,,,,,,,,,,,,,,,,,,,,,None,,737.1449375096242,None,737.1449375096242,None,2022-09-01-10:42:11.602092,737.1458764998242,737.4612838998437,737.1458764998242,None,None,737.1458764998242,None,737.9513099095318,None,,,,21011,0002,2022_Sep_01_1030,localizer,2021.1.3,60.02271254376943,
block,objects,objects007.bmp,,,,,0,217,217,217,,,,,,,,,,,,,,,,,,,,,,,,,,,,,,,,,,,,,,,,,,None,,737.9513099095318,None,737.9513099095318,None,2022-09-01-10:42:12.412993,737.9565522996709,738.2612593998201,737.9565522996709,None,None,737.9565522996709,None,738.7676412099506,None,,,,21011,0002,2022_Sep_01_1030,localizer,2021.1.3,60.02271254376943,
block,objects,objects067.bmp,,,,,0,218,218,218,,,,,,,,,,,,,,,,,,,,,,,,,,,,,,,,,,,,,,,,,,None,,738.7676412099506,None,738.7676412099506,None,2022-09-01-10:42:13.231577,738.7829877999611,739.0943223997019,738.7829877999611,None,None,738.7829877999611,None,739.5778656098526,None,,,,21011,0002,2022_Sep_01_1030,localizer,2021.1.3,60.02271254376943,
block,objects,objects052.bmp,,,,,0,219,219,219,,,,,,,,,,,,,,,,,,,,,,,,,,,,,,,,,,,,,,,,,,None,,739.5778656098526,None,739.5778656098526,None,2022-09-01-10:42:14.035063,739.579104299657,739.8946640999056,739.579104299657,None,None,739.579104299657,None,740.3944427095819,None,,,,21011,0002,2022_Sep_01_1030,localizer,2021.1.3,60.02271254376943,
block,objects,objects085.bmp,,,,,0,220,220,220,,,,,,,,,,,,,,,,,,,,,,,,,,,,,,,,,,,,,,,,,,None,,740.3944427095819,None,740.3944427095819,None,2022-09-01-10:42:14.851409,740.3958400995471,740.7109672999941,740.3958400995471,None,None,740.3958400995471,None,741.2112457095179,None,,,,21011,0002,2022_Sep_01_1030,localizer,2021.1.3,60.02271254376943,
block,objects,objects060.bmp,,,,,0,221,221,221,,,,,,,,,,,,,,,,,,,,,,,,,,,,,,,,,,,,,,,,,,None,,741.2112457095179,None,741.2112457095179,None,2022-09-01-10:42:15.667810,741.2128521995619,741.5124582997523,741.2128521995619,None,None,741.2128521995619,None,742.0278463097754,None,,,,21011,0002,2022_Sep_01_1030,localizer,2021.1.3,60.02271254376943,
block,objects,objects040.bmp,,,,,0,222,222,222,,,,,,,,,,,,,,,,,,,,,,,,,,,,,,,,,,,,,,,,,,None,,742.0278463097754,None,742.0278463097754,None,2022-09-01-10:42:16.484354,742.0293474998325,742.344504899811,742.0293474998325,None,None,742.0293474998325,None,742.8444294095505,None,,,,21011,0002,2022_Sep_01_1030,localizer,2021.1.3,60.02271254376943,
block,objects,objects069.bmp,,,,,0,223,223,223,,,,,,,,,,,,,,,,,,,,,,,,,,,,,,,,,,,,,,,,,,None,,742.8444294095505,None,742.8444294095505,None,2022-09-01-10:42:17.301400,742.8536281995475,743.1612569997087,742.8536281995475,None,None,742.8536281995475,None,743.6508010099176,None,,,,21011,0002,2022_Sep_01_1030,localizer,2021.1.3,60.02271254376943,
block,objects,objects074.bmp,,,,,0,224,224,224,,,,,,,,,,,,,,,,,,,,,,,,,,,,,,,,,,,,,,,,,,None,,743.6508010099176,None,743.6508010099176,None,2022-09-01-10:42:18.116567,743.6680007996038,743.9778219996952,743.6680007996038,None,None,743.6680007996038,None,744.4611856098752,None,,,,21011,0002,2022_Sep_01_1030,localizer,2021.1.3,60.02271254376943,
block,objects,objects065.bmp,,,,,0,225,225,225,,,,,,,,,,,,,,,,,,,,,,,,,,,,,,,,,,,,,,,,,,None,,744.4611856098752,None,744.4611856098752,None,2022-09-01-10:42:18.918161,744.4624179997481,744.778005299624,744.4624179997481,None,None,744.4624179997481,None,745.2625320096965,None,,,,21011,0002,2022_Sep_01_1030,localizer,2021.1.3,60.02271254376943,
block,objects,objects028.bmp,,,,,0,226,226,226,,,,,,,,,,,,,,,,,,,,,,,,,,,,,,,,,,,,,,,,,,None,,745.2625320096965,None,745.2625320096965,None,2022-09-01-10:42:19.722388,745.2665266999975,745.5782343996689,745.2665266999975,745.2665266999975,None,745.2665266999975,745.2665266999975,746.077882909635,None,,,,21011,0002,2022_Sep_01_1030,localizer,2021.1.3,60.02271254376943,
block_end,objects,objects028.bmp,,,,,0,227,227,227,,,,,,,,,,,,,,,,,,,,,,,,,,,,,,,,,,,,,,,,,,None,,746.077882909635,None,746.077882909635,None,2022-09-01-10:42:20.534862,746.0789998997934,746.3985284999944,746.0789998997934,None,None,746.0789998997934,None,746.894664909644,None,,,,21011,0002,2022_Sep_01_1030,localizer,2021.1.3,60.02271254376943,
block_start,scrambled,scrambled070.bmp,,,,,0,228,228,228,,,,,,,,,,,,,,,,,,,,,,,,,,,,,,,,,,,,,,,,,,t,1.7881268998607993,746.8944941996597,None,746.8944941996597,None,2022-09-01-10:42:23.166804,748.7188107999973,749.0280453995802,748.7188107999973,None,None,748.7188107999973,None,749.5300453095231,None,,,,21011,0002,2022_Sep_01_1030,localizer,2021.1.3,60.02271254376943,
block,scrambled,scrambled009.bmp,,,,,0,229,229,229,,,,,,,,,,,,,,,,,,,,,,,,,,,,,,,,,,,,,,,,,,None,,749.5300453095231,None,749.5300453095231,None,2022-09-01-10:42:23.990983,749.5402572997846,749.844996499829,749.5402572997846,None,None,749.5402572997846,None,750.3501278096344,None,,,,21011,0002,2022_Sep_01_1030,localizer,2021.1.3,60.02271254376943,
block,scrambled,scrambled046.bmp,,,,,0,230,230,230,,,,,,,,,,,,,,,,,,,,,,,,,,,,,,,,,,,,,,,,,,None,,750.3501278096344,None,750.3501278096344,None,2022-09-01-10:42:24.809977,750.3533376995474,750.6616434999742,750.3533376995474,None,None,750.3533376995474,None,751.1610268097836,None,,,,21011,0002,2022_Sep_01_1030,localizer,2021.1.3,60.02271254376943,
block,scrambled,scrambled043.bmp,,,,,0,231,231,231,,,,,,,,,,,,,,,,,,,,,,,,,,,,,,,,,,,,,,,,,,None,,751.1610268097836,None,751.1610268097836,None,2022-09-01-10:42:25.618012,751.1625519995578,751.4618232999928,751.1625519995578,None,None,751.1625519995578,None,751.9643078096676,None,,,,21011,0002,2022_Sep_01_1030,localizer,2021.1.3,60.02271254376943,
block,scrambled,scrambled025.bmp,,,,,0,232,232,232,,,,,,,,,,,,,,,,,,,,,,,,,,,,,,,,,,,,,,,,,,None,,751.9643078096676,None,751.9643078096676,None,2022-09-01-10:42:26.423593,751.9720130995847,752.2800910999067,751.9720130995847,751.9720130995847,None,751.9720130995847,751.9720130995847,752.7792565095704,None,,,,21011,0002,2022_Sep_01_1030,localizer,2021.1.3,60.02271254376943,
block,scrambled,scrambled056.bmp,,,,,0,233,233,233,,,,,,,,,,,,,,,,,,,,,,,,,,,,,,,,,,,,,,,,,,None,,752.7792565095704,None,752.7792565095704,None,2022-09-01-10:42:27.238127,752.7821444999427,753.0808001998812,752.7821444999427,None,None,752.7821444999427,None,753.5968065098393,None,,,,21011,0002,2022_Sep_01_1030,localizer,2021.1.3,60.02271254376943,
block,scrambled,scrambled024.bmp,,,,,0,234,234,234,,,,,,,,,,,,,,,,,,,,,,,,,,,,,,,,,,,,,,,,,,None,,753.5968065098393,None,753.5968065098393,None,2022-09-01-10:42:28.057752,753.6087339995429,753.9123207996599,753.6087339995429,None,None,753.6087339995429,None,754.4112420095596,None,,,,21011,0002,2022_Sep_01_1030,localizer,2021.1.3,60.02271254376943,
block,scrambled,scrambled069.bmp,,,,,0,235,235,235,,,,,,,,,,,,,,,,,,,,,,,,,,,,,,,,,,,,,,,,,,None,,754.4112420095596,None,754.4112420095596,None,2022-09-01-10:42:28.868442,754.4127636998892,754.7115265997127,754.4127636998892,None,None,754.4127636998892,None,755.2126411096658,None,,,,21011,0002,2022_Sep_01_1030,localizer,2021.1.3,60.02271254376943,
block,scrambled,scrambled034.bmp,,,,,0,236,236,236,,,,,,,,,,,,,,,,,,,,,,,,,,,,,,,,,,,,,,,,,,None,,755.2126411096658,None,755.2126411096658,None,2022-09-01-10:42:29.674520,755.2179281995632,755.5279967999086,755.2179281995632,755.2179281995632,None,755.2179281995632,755.2179281995632,756.028500309633,None,,,,21011,0002,2022_Sep_01_1030,localizer,2021.1.3,60.02271254376943,
block,scrambled,scrambled007.bmp,,,,,0,237,237,237,,,,,,,,,,,,,,,,,,,,,,,,,,,,,,,,,,,,,,,,,,None,,756.028500309633,None,756.028500309633,None,2022-09-01-10:42:30.485620,756.029267499689,756.3487149998546,756.029267499689,None,None,756.029267499689,None,756.8344456096645,None,,,,21011,0002,2022_Sep_01_1030,localizer,2021.1.3,60.02271254376943,
block,scrambled,scrambled060.bmp,,,,,0,238,238,238,,,,,,,,,,,,,,,,,,,,,,,,,,,,,,,,,,,,,,,,,,None,,756.8344456096645,None,756.8344456096645,None,2022-09-01-10:42:31.300693,756.8456382998265,757.1612782999873,756.8456382998265,None,None,756.8456382998265,None,757.6446026097517,None,,,,21011,0002,2022_Sep_01_1030,localizer,2021.1.3,60.02271254376943,
block,scrambled,scrambled044.bmp,,,,,0,239,239,239,,,,,,,,,,,,,,,,,,,,,,,,,,,,,,,,,,,,,,,,,,None,,757.6446026097517,None,757.6446026097517,None,2022-09-01-10:42:32.101474,757.6531507996842,757.9618487996049,757.6531507996842,None,None,757.6531507996842,None,758.450884509785,None,,,,21011,0002,2022_Sep_01_1030,localizer,2021.1.3,60.02271254376943,
block,scrambled,scrambled004.bmp,,,,,0,240,240,240,,,,,,,,,,,,,,,,,,,,,,,,,,,,,,,,,,,,,,,,,,None,,758.450884509785,None,758.450884509785,None,2022-09-01-10:42:32.910837,758.4542959998362,758.7822514995933,758.4542959998362,None,y,758.4542959998362,None,759.2612473098095,None,0.03420790005475283,,,21011,0002,2022_Sep_01_1030,localizer,2021.1.3,60.02271254376943,
block,scrambled,scrambled026.bmp,,,,,0,241,241,241,,,,,,,,,,,,,,,,,,,,,,,,,,,,,,,,,,,,,,,,,,None,,759.2612473098095,None,759.2612473098095,None,2022-09-01-10:42:33.717462,759.2624850999564,759.5681323995814,759.2624850999564,None,None,759.2624850999564,None,760.0779392099473,None,,,,21011,0002,2022_Sep_01_1030,localizer,2021.1.3,60.02271254376943,
block_end,scrambled,scrambled030.bmp,,,,,0,242,242,242,,,,,,,,,,,,,,,,,,,,,,,,,,,,,,,,,,,,,,,,,,None,,760.0779392099473,None,760.0779392099473,None,2022-09-01-10:42:34.535250,760.0792418997735,760.3943675998598,760.0792418997735,None,None,760.0792418997735,None,760.8788612097967,None,,,,21011,0002,2022_Sep_01_1030,localizer,2021.1.3,60.02271254376943,
null_block,null_block,null_block.bmp,,,,,0,243,243,243,,,,,,,,,,,,,,,,,,,,,,,,,,,,,,,,,,,,,,,,,,t,1.802942399866879,760.8799231997691,None,760.8799231997691,None,2022-09-01-10:42:37.173615,762.7176055097486,None,762.7176055097486,None,None,762.7176055097486,None,762.7194728995673,None,,,,21011,0002,2022_Sep_01_1030,localizer,2021.1.3,60.02271254376943,
,,,,,,,,,,,,,,,,,,,,,,,,,,,,,,,,,,,,,,,,,,,,,,,,,,,,,,,,,,,,,,,,,,,,,774.7278137998655,None,,,,,,,
