block_type,condition,img_name,Button.thisRepN,Button.thisTrialN,Button.thisN,Button.thisIndex,trials.thisRepN,trials.thisTrialN,trials.thisN,trials.thisIndex,Ready_experimenter_text.started,Ready_experimenter_text.stopped,Ready_experimenter_resp.keys,Ready_experimenter_resp.rt,Ready_experimenter_resp.started,Ready_experimenter_resp.stopped,Alignment_background.started,Alignment_background.stopped,Alignment_image.started,Alignment_image.stopped,Alignment_resp.keys,Alignment_resp.rt,Alignment_resp.started,Alignment_resp.stopped,Button_text.started,Button_text.stopped,Index_text.started,Index_text.stopped,Index_resp.keys,Index_resp.rt,Index_resp.started,Index_resp.stopped,Middle_text.started,Middle_text.stopped,Middle_resp.keys,Middle_resp.rt,Middle_resp.started,Middle_resp.stopped,Repeat_text.started,Repeat_text.stopped,Repeat_resp.keys,Repeat_resp.corr,Repeat_resp.rt,Repeat_resp.started,Repeat_resp.stopped,instruction_text.started,instruction_text.stopped,key_resp.keys,key_resp.rt,key_resp.started,key_resp.stopped,scanner_t.keys,scanner_t.rt,scanner_t.started,scanner_t.stopped,fixation_wait_for_t.started,fixation_wait_for_t.stopped,real_timestamp_trial_start,image.started,image.stopped,fixation.started,fixation.stopped,repeat_response.keys,repeat_response.started,repeat_response.stopped,fixation_null.started,fixation_null.stopped,repeat_response.rt,end_text.started,end_text.stopped,participant,run,date,expName,psychopyVersion,frameRate,
,,,,,,,,,,,8.234905799850821,None,return,0.535122400149703,8.234905799850821,None,,,,,,,,,,,,,,,,,,,,,,,,,,,,,,,,,,,,,,,,,,,,,,,,,,,,,,,22030,0001,2023_Mar_14_1044,localizer,2021.1.3,59.99988019490322,
,,,,,,,,,,,,,,,,,8.824608700349927,None,8.824608700349927,None,return,0.5803821012377739,8.824608700349927,None,,,,,,,,,,,,,,,,,,,,,,,,,,,,,,,,,,,,,,,,,,,,,,,22030,0001,2023_Mar_14_1044,localizer,2021.1.3,59.99988019490322,
,,,0,0,0,0,,,,,,,,,,,,,,,,,,,9.427988700568676,None,10.426860600709915,None,y,1.8896317016333342,10.426860600709915,None,12.3491271995008,None,b,3.1964183002710342,12.3491271995008,None,15.560979200527072,None,n,0,1.1852800007909536,15.560979200527072,None,,,,,,,,,,,,,,,,,,,,,,,,,,22030,0001,2023_Mar_14_1044,localizer,2021.1.3,59.99988019490322,
,,,,,,,,,,,,,,,,,,,,,,,,,,,,,,,,,,,,,,,,,,,,,,16.778151599690318,None,y,2.091252099722624,16.778151599690318,None,,,,,,,,,,,,,,,,,,,,22030,0001,2023_Mar_14_1044,localizer,2021.1.3,59.99988019490322,
block_start,scenes,scenes055.bmp,,,,,0,0,0,0,,,,,,,,,,,,,,,,,,,,,,,,,,,,,,,,,,,,,,,,,,t,505.4513273984194,18.960158498957753,None,18.960158498957753,None,2023-03-14-10:52:41.296268,524.4482920989394,524.7636657003313,524.4482920989394,None,None,524.4482920989394,None,525.247681560181,None,,,,22030,0001,2023_Mar_14_1044,localizer,2021.1.3,59.99988019490322,
block,scenes,scenes070.bmp,,,,,0,1,1,1,,,,,,,,,,,,,,,,,,,,,,,,,,,,,,,,,,,,,,,,,,None,,525.247681560181,None,525.247681560181,None,2023-03-14-10:52:42.117103,525.2672183997929,525.5802817996591,525.2672183997929,None,None,525.2672183997929,None,526.0637534597888,None,,,,22030,0001,2023_Mar_14_1044,localizer,2021.1.3,59.99988019490322,
block,scenes,scenes025.bmp,,,,,0,2,2,2,,,,,,,,,,,,,,,,,,,,,,,,,,,,,,,,,,,,,,,,,,None,,526.0637534597888,None,526.0637534597888,None,2023-03-14-10:52:42.930078,526.0820898991078,526.3971273005009,526.0820898991078,None,None,526.0820898991078,None,526.8804281597957,None,,,,22030,0001,2023_Mar_14_1044,localizer,2021.1.3,59.99988019490322,
block,scenes,scenes043.bmp,,,,,0,3,3,3,,,,,,,,,,,,,,,,,,,,,,,,,,,,,,,,,,,,,,,,,,None,,526.8804281597957,None,526.8804281597957,None,2023-03-14-10:52:43.746880,526.89200380072,527.196935299784,526.89200380072,None,None,526.89200380072,None,527.6969441605731,None,,,,22030,0001,2023_Mar_14_1044,localizer,2021.1.3,59.99988019490322,
block,scenes,scenes020.bmp,,,,,0,4,4,4,,,,,,,,,,,,,,,,,,,,,,,,,,,,,,,,,,,,,,,,,,None,,527.6969441605731,None,527.6969441605731,None,2023-03-14-10:52:44.563398,527.7068758998066,528.0135376993567,527.7068758998066,None,None,527.7068758998066,None,528.5140878597274,None,,,,22030,0001,2023_Mar_14_1044,localizer,2021.1.3,59.99988019490322,
block,scenes,scenes026.bmp,,,,,0,5,5,5,,,,,,,,,,,,,,,,,,,,,,,,,,,,,,,,,,,,,,,,,,None,,528.5140878597274,None,528.5140878597274,None,2023-03-14-10:52:45.380606,528.5277095995843,528.8304137997329,528.5277095995843,None,None,528.5277095995843,None,529.3317463604733,None,,,,22030,0001,2023_Mar_14_1044,localizer,2021.1.3,59.99988019490322,
block,scenes,scenes036.bmp,,,,,0,6,6,6,,,,,,,,,,,,,,,,,,,,,,,,,,,,,,,,,,,,,,,,,,None,,529.3317463604733,None,529.3317463604733,None,2023-03-14-10:52:46.200252,529.3472851999104,529.6470084991306,529.3472851999104,None,None,529.3472851999104,None,530.1478205604478,None,,,,22030,0001,2023_Mar_14_1044,localizer,2021.1.3,59.99988019490322,
block,scenes,scenes058.bmp,,,,,0,7,7,7,,,,,,,,,,,,,,,,,,,,,,,,,,,,,,,,,,,,,,,,,,None,,530.1478205604478,None,530.1478205604478,None,2023-03-14-10:52:47.015276,530.1610687989742,530.4666750002652,530.1610687989742,None,None,530.1610687989742,None,530.9645639603957,None,,,,22030,0001,2023_Mar_14_1044,localizer,2021.1.3,59.99988019490322,
block,scenes,scenes035.bmp,,,,,0,8,8,8,,,,,,,,,,,,,,,,,,,,,,,,,,,,,,,,,,,,,,,,,,None,,530.9645639603957,None,530.9645639603957,None,2023-03-14-10:52:47.832208,530.9777748007327,531.280539099127,530.9777748007327,None,None,530.9777748007327,None,531.7816923597827,None,,,,22030,0001,2023_Mar_14_1044,localizer,2021.1.3,59.99988019490322,
block,scenes,scenes074.bmp,,,,,0,9,9,9,,,,,,,,,,,,,,,,,,,,,,,,,,,,,,,,,,,,,,,,,,None,,531.7816923597827,None,531.7816923597827,None,2023-03-14-10:52:48.650331,531.7960995007306,532.0971127003431,531.7960995007306,None,None,531.7960995007306,None,532.5978805592283,None,,,,22030,0001,2023_Mar_14_1044,localizer,2021.1.3,59.99988019490322,
block,scenes,scenes069.bmp,,,,,0,10,10,10,,,,,,,,,,,,,,,,,,,,,,,,,,,,,,,,,,,,,,,,,,None,,532.5978805592283,None,532.5978805592283,None,2023-03-14-10:52:49.465506,532.6112005002797,532.9138712007552,532.6112005002797,None,None,532.6112005002797,None,533.4140136597678,None,,,,22030,0001,2023_Mar_14_1044,localizer,2021.1.3,59.99988019490322,
block,scenes,scenes034.bmp,,,,,0,11,11,11,,,,,,,,,,,,,,,,,,,,,,,,,,,,,,,,,,,,,,,,,,None,,533.4140136597678,None,533.4140136597678,None,2023-03-14-10:52:50.281029,533.4268554989249,533.7303683999926,533.4268554989249,None,None,533.4268554989249,None,534.2306979598477,None,,,,22030,0001,2023_Mar_14_1044,localizer,2021.1.3,59.99988019490322,
block,scenes,scenes046.bmp,,,,,0,12,12,12,,,,,,,,,,,,,,,,,,,,,,,,,,,,,,,,,,,,,,,,,,None,,534.2306979598477,None,534.2306979598477,None,2023-03-14-10:52:51.097258,534.2387799005955,534.5473979003727,534.2387799005955,None,y,534.2387799005955,None,535.0475345591083,None,0.579696498811245,,,22030,0001,2023_Mar_14_1044,localizer,2021.1.3,59.99988019490322,
block,scenes,scenes018.bmp,,,,,0,13,13,13,,,,,,,,,,,,,,,,,,,,,,,,,,,,,,,,,,,,,,,,,,None,,535.0475345591083,None,535.0475345591083,None,2023-03-14-10:52:51.914033,535.0559928994626,535.3640627991408,535.0559928994626,None,None,535.0559928994626,None,535.8640390599146,None,,,,22030,0001,2023_Mar_14_1044,localizer,2021.1.3,59.99988019490322,
block_end,scenes,scenes009.bmp,,,,,0,14,14,14,,,,,,,,,,,,,,,,,,,,,,,,,,,,,,,,,,,,,,,,,,None,,535.8640390599146,None,535.8640390599146,None,2023-03-14-10:52:52.730541,535.8757317997515,536.1804579999298,535.8757317997515,None,None,535.8757317997515,None,536.680595059134,None,,,,22030,0001,2023_Mar_14_1044,localizer,2021.1.3,59.99988019490322,
block_start,scrambled,scrambled083.bmp,,,,,0,15,15,15,,,,,,,,,,,,,,,,,,,,,,,,,,,,,,,,,,,,,,,,,,t,1.7309002000838518,536.6803056001663,None,536.6803056001663,None,2023-03-14-10:52:55.296621,538.4411932006478,538.7471252996475,538.4411932006478,None,None,538.4411932006478,None,539.2473141608759,None,,,,22030,0001,2023_Mar_14_1044,localizer,2021.1.3,59.99988019490322,
block,scrambled,scrambled081.bmp,,,,,0,16,16,16,,,,,,,,,,,,,,,,,,,,,,,,,,,,,,,,,,,,,,,,,,None,,539.2473141608759,None,539.2473141608759,None,2023-03-14-10:52:56.112387,539.2588299997151,539.5640056002885,539.2588299997151,None,None,539.2588299997151,None,540.064258059673,None,,,,22030,0001,2023_Mar_14_1044,localizer,2021.1.3,59.99988019490322,
block,scrambled,scrambled003.bmp,,,,,0,17,17,17,,,,,,,,,,,,,,,,,,,,,,,,,,,,,,,,,,,,,,,,,,None,,540.064258059673,None,540.064258059673,None,2023-03-14-10:52:56.930788,540.0721524991095,540.3805445004255,540.0721524991095,None,None,540.0721524991095,None,540.8811631595715,None,,,,22030,0001,2023_Mar_14_1044,localizer,2021.1.3,59.99988019490322,
block,scrambled,scrambled082.bmp,,,,,0,18,18,18,,,,,,,,,,,,,,,,,,,,,,,,,,,,,,,,,,,,,,,,,,None,,540.8811631595715,None,540.8811631595715,None,2023-03-14-10:52:57.748686,540.8937659990042,541.196893999353,540.8937659990042,None,None,540.8937659990042,None,541.7002736592665,None,,,,22030,0001,2023_Mar_14_1044,localizer,2021.1.3,59.99988019490322,
block,scrambled,scrambled070.bmp,,,,,0,19,19,19,,,,,,,,,,,,,,,,,,,,,,,,,,,,,,,,,,,,,,,,,,None,,541.7002736592665,None,541.7002736592665,None,2023-03-14-10:52:58.570825,541.7175392992795,542.0312629006803,541.7175392992795,None,None,541.7175392992795,None,542.5139991605654,None,,,,22030,0001,2023_Mar_14_1044,localizer,2021.1.3,59.99988019490322,
block,scrambled,scrambled029.bmp,,,,,0,20,20,20,,,,,,,,,,,,,,,,,,,,,,,,,,,,,,,,,,,,,,,,,,None,,542.5139991605654,None,542.5139991605654,None,2023-03-14-10:52:59.380544,542.5258702989668,542.8304066993296,542.5258702989668,None,None,542.5258702989668,None,543.3307608591392,None,,,,22030,0001,2023_Mar_14_1044,localizer,2021.1.3,59.99988019490322,
block,scrambled,scrambled038.bmp,,,,,0,21,21,21,,,,,,,,,,,,,,,,,,,,,,,,,,,,,,,,,,,,,,,,,,None,,543.3307608591392,None,543.3307608591392,None,2023-03-14-10:53:00.197316,543.3424465004355,543.6471279002726,543.3424465004355,None,None,543.3424465004355,None,544.1471062602475,None,,,,22030,0001,2023_Mar_14_1044,localizer,2021.1.3,59.99988019490322,
block,scrambled,scrambled084.bmp,,,,,0,22,22,22,,,,,,,,,,,,,,,,,,,,,,,,,,,,,,,,,,,,,,,,,,None,,544.1471062602475,None,544.1471062602475,None,2023-03-14-10:53:01.013801,544.159029699862,544.4642283990979,544.159029699862,None,None,544.159029699862,None,544.964103760384,None,,,,22030,0001,2023_Mar_14_1044,localizer,2021.1.3,59.99988019490322,
block,scrambled,scrambled016.bmp,,,,,0,23,23,23,,,,,,,,,,,,,,,,,,,,,,,,,,,,,,,,,,,,,,,,,,None,,544.964103760384,None,544.964103760384,None,2023-03-14-10:53:01.830668,544.9720788002014,545.2811996005476,544.9720788002014,None,None,544.9720788002014,None,545.7819348594173,None,,,,22030,0001,2023_Mar_14_1044,localizer,2021.1.3,59.99988019490322,
block,scrambled,scrambled037.bmp,,,,,0,24,24,24,,,,,,,,,,,,,,,,,,,,,,,,,,,,,,,,,,,,,,,,,,None,,545.7819348594173,None,545.7819348594173,None,2023-03-14-10:53:02.650471,545.7970522996038,546.0970906000584,545.7970522996038,None,None,545.7970522996038,None,546.597900759615,None,,,,22030,0001,2023_Mar_14_1044,localizer,2021.1.3,59.99988019490322,
block,scrambled,scrambled067.bmp,,,,,0,25,25,25,,,,,,,,,,,,,,,,,,,,,,,,,,,,,,,,,,,,,,,,,,None,,546.597900759615,None,546.597900759615,None,2023-03-14-10:53:03.465458,546.6103572994471,546.9139534998685,546.6103572994471,None,None,546.6103572994471,None,547.4142759593203,None,,,,22030,0001,2023_Mar_14_1044,localizer,2021.1.3,59.99988019490322,
block,scrambled,scrambled010.bmp,,,,,0,26,26,26,,,,,,,,,,,,,,,,,,,,,,,,,,,,,,,,,,,,,,,,,,None,,547.4142759593203,None,547.4142759593203,None,2023-03-14-10:53:04.280878,547.427328299731,547.7311329990625,547.427328299731,None,None,547.427328299731,None,548.231457360275,None,,,,22030,0001,2023_Mar_14_1044,localizer,2021.1.3,59.99988019490322,
block,scrambled,scrambled013.bmp,,,,,0,27,27,27,,,,,,,,,,,,,,,,,,,,,,,,,,,,,,,,,,,,,,,,,,None,,548.231457360275,None,548.231457360275,None,2023-03-14-10:53:05.099025,548.2446200996637,548.5470876991749,548.2446200996637,None,None,548.2446200996637,None,549.047642959468,None,,,,22030,0001,2023_Mar_14_1044,localizer,2021.1.3,59.99988019490322,
block,scrambled,scrambled018.bmp,,,,,0,28,28,28,,,,,,,,,,,,,,,,,,,,,,,,,,,,,,,,,,,,,,,,,,None,,549.047642959468,None,549.047642959468,None,2023-03-14-10:53:05.914228,549.0594727993011,549.363773200661,549.0594727993011,None,None,549.0594727993011,None,549.864553159289,None,,,,22030,0001,2023_Mar_14_1044,localizer,2021.1.3,59.99988019490322,
block_end,scrambled,scrambled048.bmp,,,,,0,29,29,29,,,,,,,,,,,,,,,,,,,,,,,,,,,,,,,,,,,,,,,,,,None,,549.864553159289,None,549.864553159289,None,2023-03-14-10:53:06.732144,549.8778342995793,550.1804734990001,549.8778342995793,None,None,549.8778342995793,None,550.6809824595227,None,,,,22030,0001,2023_Mar_14_1044,localizer,2021.1.3,59.99988019490322,
block_start,objects,objects035.bmp,,,,,0,30,30,30,,,,,,,,,,,,,,,,,,,,,,,,,,,,,,,,,,,,,,,,,,t,1.7305769007652998,550.6808752994984,None,550.6808752994984,None,2023-03-14-10:53:09.298534,552.4441854003817,552.7471389994025,552.4441854003817,None,None,552.4441854003817,None,553.2475835608318,None,,,,22030,0001,2023_Mar_14_1044,localizer,2021.1.3,59.99988019490322,
block,objects,objects061.bmp,,,,,0,31,31,31,,,,,,,,,,,,,,,,,,,,,,,,,,,,,,,,,,,,,,,,,,None,,553.2475835608318,None,553.2475835608318,None,2023-03-14-10:53:10.115188,553.2559293005615,553.5637973006815,553.2559293005615,None,None,553.2559293005615,None,554.063912259601,None,,,,22030,0001,2023_Mar_14_1044,localizer,2021.1.3,59.99988019490322,
block,objects,objects071.bmp,,,,,0,32,32,32,,,,,,,,,,,,,,,,,,,,,,,,,,,,,,,,,,,,,,,,,,None,,554.063912259601,None,554.063912259601,None,2023-03-14-10:53:10.930527,554.0756959002465,554.3804269991815,554.0756959002465,None,None,554.0756959002465,None,554.8814815601334,None,,,,22030,0001,2023_Mar_14_1044,localizer,2021.1.3,59.99988019490322,
block,objects,objects079.bmp,,,,,0,33,33,33,,,,,,,,,,,,,,,,,,,,,,,,,,,,,,,,,,,,,,,,,,None,,554.8814815601334,None,554.8814815601334,None,2023-03-14-10:53:11.749085,554.8950800001621,555.1969910003245,554.8950800001621,None,None,554.8950800001621,None,555.6972048601135,None,,,,22030,0001,2023_Mar_14_1044,localizer,2021.1.3,59.99988019490322,
block,objects,objects075.bmp,,,,,0,34,34,34,,,,,,,,,,,,,,,,,,,,,,,,,,,,,,,,,,,,,,,,,,None,,555.6972048601135,None,555.6972048601135,None,2023-03-14-10:53:12.563833,555.7083026003093,556.0137064997107,555.7083026003093,None,None,555.7083026003093,None,556.5138552600517,None,,,,22030,0001,2023_Mar_14_1044,localizer,2021.1.3,59.99988019490322,
block,objects,objects053.bmp,,,,,0,35,35,35,,,,,,,,,,,,,,,,,,,,,,,,,,,,,,,,,,,,,,,,,,None,,556.5138552600517,None,556.5138552600517,None,2023-03-14-10:53:13.380488,556.5254509989172,556.8311740998179,556.5254509989172,None,None,556.5254509989172,None,557.3313286604359,None,,,,22030,0001,2023_Mar_14_1044,localizer,2021.1.3,59.99988019490322,
block,objects,objects016.bmp,,,,,0,36,36,36,,,,,,,,,,,,,,,,,,,,,,,,,,,,,,,,,,,,,,,,,,None,,557.3313286604359,None,557.3313286604359,None,2023-03-14-10:53:14.198951,557.3411218002439,557.6468752995133,557.3411218002439,None,None,557.3411218002439,None,558.1470791606232,None,,,,22030,0001,2023_Mar_14_1044,localizer,2021.1.3,59.99988019490322,
block,objects,objects085.bmp,,,,,0,37,37,37,,,,,,,,,,,,,,,,,,,,,,,,,,,,,,,,,,,,,,,,,,None,,558.1470791606232,None,558.1470791606232,None,2023-03-14-10:53:15.013723,558.1591017004102,558.4637816995382,558.1591017004102,None,None,558.1591017004102,None,558.9643035607412,None,,,,22030,0001,2023_Mar_14_1044,localizer,2021.1.3,59.99988019490322,
block,objects,objects020.bmp,,,,,0,38,38,38,,,,,,,,,,,,,,,,,,,,,,,,,,,,,,,,,,,,,,,,,,None,,558.9643035607412,None,558.9643035607412,None,2023-03-14-10:53:15.832345,558.9770400989801,559.2803530991077,558.9770400989801,None,None,558.9770400989801,None,559.7805963607505,None,,,,22030,0001,2023_Mar_14_1044,localizer,2021.1.3,59.99988019490322,
block,objects,objects057.bmp,,,,,0,39,39,39,,,,,,,,,,,,,,,,,,,,,,,,,,,,,,,,,,,,,,,,,,None,,559.7805963607505,None,559.7805963607505,None,2023-03-14-10:53:16.647248,559.7922545000911,560.0969514995813,559.7922545000911,None,None,559.7922545000911,None,560.5975368602201,None,,,,22030,0001,2023_Mar_14_1044,localizer,2021.1.3,59.99988019490322,
block,objects,objects073.bmp,,,,,0,40,40,40,,,,,,,,,,,,,,,,,,,,,,,,,,,,,,,,,,,,,,,,,,None,,560.5975368602201,None,560.5975368602201,None,2023-03-14-10:53:17.464403,560.6095950007439,560.9137102998793,560.6095950007439,None,None,560.6095950007439,None,561.4142197595909,None,,,,22030,0001,2023_Mar_14_1044,localizer,2021.1.3,59.99988019490322,
block,objects,objects076.bmp,,,,,0,41,41,41,,,,,,,,,,,,,,,,,,,,,,,,,,,,,,,,,,,,,,,,,,None,,561.4142197595909,None,561.4142197595909,None,2023-03-14-10:53:18.280904,561.4217461999506,561.7301802001894,561.4217461999506,None,None,561.4217461999506,None,562.2309180593118,None,,,,22030,0001,2023_Mar_14_1044,localizer,2021.1.3,59.99988019490322,
block,objects,objects051.bmp,,,,,0,42,42,42,,,,,,,,,,,,,,,,,,,,,,,,,,,,,,,,,,,,,,,,,,None,,562.2309180593118,None,562.2309180593118,None,2023-03-14-10:53:19.097789,562.242673099041,562.54705950059,562.242673099041,None,None,562.242673099041,None,563.0474430603906,None,,,,22030,0001,2023_Mar_14_1044,localizer,2021.1.3,59.99988019490322,
block,objects,objects084.bmp,,,,,0,43,43,43,,,,,,,,,,,,,,,,,,,,,,,,,,,,,,,,,,,,,,,,,,None,,563.0474430603906,None,563.0474430603906,None,2023-03-14-10:53:19.914325,563.0593512002379,563.3638515006751,563.0593512002379,None,None,563.0593512002379,None,563.8639132605865,None,,,,22030,0001,2023_Mar_14_1044,localizer,2021.1.3,59.99988019490322,
block_end,objects,objects043.bmp,,,,,0,44,44,44,,,,,,,,,,,,,,,,,,,,,,,,,,,,,,,,,,,,,,,,,,None,,563.8639132605865,None,563.8639132605865,None,2023-03-14-10:53:20.730384,563.8740842994303,564.1807808000594,563.8740842994303,None,None,563.8740842994303,None,564.6807165594771,None,,,,22030,0001,2023_Mar_14_1044,localizer,2021.1.3,59.99988019490322,
block_start,faces,faces004.bmp,,,,,0,45,45,45,,,,,,,,,,,,,,,,,,,,,,,,,,,,,,,,,,,,,,,,,,t,1.7298773992806673,564.6805889997631,None,564.6805889997631,None,2023-03-14-10:53:23.296942,566.4416426997632,566.7474402990192,566.4416426997632,None,None,566.4416426997632,None,567.2477755604311,None,,,,22030,0001,2023_Mar_14_1044,localizer,2021.1.3,59.99988019490322,
block,faces,faces027.bmp,,,,,0,46,46,46,,,,,,,,,,,,,,,,,,,,,,,,,,,,,,,,,,,,,,,,,,None,,567.2477755604311,None,567.2477755604311,None,2023-03-14-10:53:24.115463,567.2565237991512,567.5636732000858,567.2565237991512,None,None,567.2565237991512,None,568.0640262590721,None,,,,22030,0001,2023_Mar_14_1044,localizer,2021.1.3,59.99988019490322,
block,faces,faces074.bmp,,,,,0,47,47,47,,,,,,,,,,,,,,,,,,,,,,,,,,,,,,,,,,,,,,,,,,None,,568.0640262590721,None,568.0640262590721,None,2023-03-14-10:53:24.930729,568.0766202993691,568.3806107994169,568.0766202993691,None,None,568.0766202993691,None,568.8808267602697,None,,,,22030,0001,2023_Mar_14_1044,localizer,2021.1.3,59.99988019490322,
block,faces,faces018.bmp,,,,,0,48,48,48,,,,,,,,,,,,,,,,,,,,,,,,,,,,,,,,,,,,,,,,,,None,,568.8808267602697,None,568.8808267602697,None,2023-03-14-10:53:25.747534,568.8882567007095,569.1970342993736,568.8882567007095,None,None,568.8882567007095,None,569.696901759319,None,,,,22030,0001,2023_Mar_14_1044,localizer,2021.1.3,59.99988019490322,
block,faces,faces002.bmp,,,,,0,49,49,49,,,,,,,,,,,,,,,,,,,,,,,,,,,,,,,,,,,,,,,,,,None,,569.696901759319,None,569.696901759319,None,2023-03-14-10:53:26.563704,569.7029606997967,570.0138837005943,569.7029606997967,None,None,569.7029606997967,None,570.514067059569,None,,,,22030,0001,2023_Mar_14_1044,localizer,2021.1.3,59.99988019490322,
block,faces,faces014.bmp,,,,,0,50,50,50,,,,,,,,,,,,,,,,,,,,,,,,,,,,,,,,,,,,,,,,,,None,,570.514067059569,None,570.514067059569,None,2023-03-14-10:53:27.380784,570.5207537002861,570.830684799701,570.5207537002861,None,None,570.5207537002861,None,571.3307944593951,None,,,,22030,0001,2023_Mar_14_1044,localizer,2021.1.3,59.99988019490322,
block,faces,faces072.bmp,,,,,0,51,51,51,,,,,,,,,,,,,,,,,,,,,,,,,,,,,,,,,,,,,,,,,,None,,571.3307944593951,None,571.3307944593951,None,2023-03-14-10:53:28.197516,571.3379282001406,571.6488741002977,571.3379282001406,None,None,571.3379282001406,None,572.1482352597639,None,,,,22030,0001,2023_Mar_14_1044,localizer,2021.1.3,59.99988019490322,
block,faces,faces039.bmp,,,,,0,52,52,52,,,,,,,,,,,,,,,,,,,,,,,,,,,,,,,,,,,,,,,,,,None,,572.1482352597639,None,572.1482352597639,None,2023-03-14-10:53:29.025078,572.1636450998485,572.4638502001762,572.1636450998485,None,None,572.1636450998485,None,572.964172460325,None,,,,22030,0001,2023_Mar_14_1044,localizer,2021.1.3,59.99988019490322,
block,faces,faces023.bmp,,,,,0,53,53,53,,,,,,,,,,,,,,,,,,,,,,,,,,,,,,,,,,,,,,,,,,None,,572.964172460325,None,572.964172460325,None,2023-03-14-10:53:29.830904,572.9712039995939,573.280531000346,572.9712039995939,None,None,572.9712039995939,None,573.780520860292,None,,,,22030,0001,2023_Mar_14_1044,localizer,2021.1.3,59.99988019490322,
block,faces,faces080.bmp,,,,,0,54,54,54,,,,,,,,,,,,,,,,,,,,,,,,,,,,,,,,,,,,,,,,,,None,,573.780520860292,None,573.780520860292,None,2023-03-14-10:53:30.647261,573.7946853004396,574.0971606001258,573.7946853004396,None,None,573.7946853004396,None,574.5976042600348,None,,,,22030,0001,2023_Mar_14_1044,localizer,2021.1.3,59.99988019490322,
block,faces,faces086.bmp,,,,,0,55,55,55,,,,,,,,,,,,,,,,,,,,,,,,,,,,,,,,,,,,,,,,,,None,,574.5976042600348,None,574.5976042600348,None,2023-03-14-10:53:31.464346,574.6097730994225,574.9137871004641,574.6097730994225,None,None,574.6097730994225,None,575.4141163604334,None,,,,22030,0001,2023_Mar_14_1044,localizer,2021.1.3,59.99988019490322,
block,faces,faces003.bmp,,,,,0,56,56,56,,,,,,,,,,,,,,,,,,,,,,,,,,,,,,,,,,,,,,,,,,None,,575.4141163604334,None,575.4141163604334,None,2023-03-14-10:53:32.280864,575.4209888000041,575.7311457004398,575.4209888000041,None,None,575.4209888000041,None,576.231034960784,None,,,,22030,0001,2023_Mar_14_1044,localizer,2021.1.3,59.99988019490322,
block,faces,faces003.bmp,,,,,0,57,57,57,,,,,,,,,,,,,,,,,,,,,,,,,,,,,,,,,,,,,,,,,,None,,576.231034960784,None,576.231034960784,None,2023-03-14-10:53:33.097782,576.2317059002817,576.5471257995814,576.2317059002817,None,None,576.2317059002817,None,577.0308995602652,None,,,,22030,0001,2023_Mar_14_1044,localizer,2021.1.3,59.99988019490322,
block,faces,faces047.bmp,,,,,0,58,58,58,,,,,,,,,,,,,,,,,,,,,,,,,,,,,,,,,,,,,,,,,,None,,577.0308995602652,None,577.0308995602652,None,2023-03-14-10:53:33.898653,577.0439883992076,577.3471718002111,577.0439883992076,577.0439883992076,y,577.0439883992076,577.0439883992076,577.8493809608742,None,0.14227820001542568,,,22030,0001,2023_Mar_14_1044,localizer,2021.1.3,59.99988019490322,
block_end,faces,faces026.bmp,,,,,0,59,59,59,,,,,,,,,,,,,,,,,,,,,,,,,,,,,,,,,,,,,,,,,,None,,577.8493809608742,None,577.8493809608742,None,2023-03-14-10:53:34.717302,577.8850189000368,578.1973288990557,577.8850189000368,None,None,577.8850189000368,None,578.6641296597197,None,,,,22030,0001,2023_Mar_14_1044,localizer,2021.1.3,59.99988019490322,
null_block,null_block,null_block.bmp,,,,,0,60,60,60,,,,,,,,,,,,,,,,,,,,,,,,,,,,,,,,,,,,,,,,,,t,1.7469194997102022,578.6636544000357,None,578.6636544000357,None,2023-03-14-10:53:37.297509,580.4477453198283,None,580.4477453198283,None,None,580.4477453198283,None,580.4458540007472,None,,,,22030,0001,2023_Mar_14_1044,localizer,2021.1.3,59.99988019490322,
block_start,objects,objects035.bmp,,,,,0,61,61,61,,,,,,,,,,,,,,,,,,,,,,,,,,,,,,,,,,,,,,,,,,t,1.9629456996917725,592.4476017002016,None,592.4476017002016,None,2023-03-14-10:53:51.297983,594.4367216993123,594.7477243989706,594.4367216993123,None,None,594.4367216993123,None,595.2475725600495,None,,,,22030,0001,2023_Mar_14_1044,localizer,2021.1.3,59.99988019490322,
block,objects,objects048.bmp,,,,,0,62,62,62,,,,,,,,,,,,,,,,,,,,,,,,,,,,,,,,,,,,,,,,,,None,,595.2475725600495,None,595.2475725600495,None,2023-03-14-10:53:52.114438,595.2545739989728,595.5639900006354,595.2545739989728,None,None,595.2545739989728,None,596.0644611606374,None,,,,22030,0001,2023_Mar_14_1044,localizer,2021.1.3,59.99988019490322,
block,objects,objects067.bmp,,,,,0,63,63,63,,,,,,,,,,,,,,,,,,,,,,,,,,,,,,,,,,,,,,,,,,None,,596.0644611606374,None,596.0644611606374,None,2023-03-14-10:53:52.931355,596.076129000634,596.3808146007359,596.076129000634,None,None,596.076129000634,None,596.8809505591169,None,,,,22030,0001,2023_Mar_14_1044,localizer,2021.1.3,59.99988019490322,
block,objects,objects029.bmp,,,,,0,64,64,64,,,,,,,,,,,,,,,,,,,,,,,,,,,,,,,,,,,,,,,,,,None,,596.8809505591169,None,596.8809505591169,None,2023-03-14-10:53:53.747873,596.8896436989307,597.1974739003927,596.8896436989307,None,None,596.8896436989307,None,597.6977510603144,None,,,,22030,0001,2023_Mar_14_1044,localizer,2021.1.3,59.99988019490322,
block,objects,objects081.bmp,,,,,0,65,65,65,,,,,,,,,,,,,,,,,,,,,,,,,,,,,,,,,,,,,,,,,,None,,597.6977510603144,None,597.6977510603144,None,2023-03-14-10:53:54.564630,597.7088727001101,598.0139843989164,597.7088727001101,None,None,597.7088727001101,None,598.5139495601877,None,,,,22030,0001,2023_Mar_14_1044,localizer,2021.1.3,59.99988019490322,
block,objects,objects068.bmp,,,,,0,66,66,66,,,,,,,,,,,,,,,,,,,,,,,,,,,,,,,,,,,,,,,,,,None,,598.5139495601877,None,598.5139495601877,None,2023-03-14-10:53:55.381067,598.5219196006656,598.8309039995074,598.5219196006656,None,None,598.5219196006656,None,599.3308854607865,None,,,,22030,0001,2023_Mar_14_1044,localizer,2021.1.3,59.99988019490322,
block,objects,objects041.bmp,,,,,0,67,67,67,,,,,,,,,,,,,,,,,,,,,,,,,,,,,,,,,,,,,,,,,,None,,599.3308854607865,None,599.3308854607865,None,2023-03-14-10:53:56.197776,599.338915400207,599.6471254006028,599.338915400207,None,None,599.338915400207,None,600.1481103600934,None,,,,22030,0001,2023_Mar_14_1044,localizer,2021.1.3,59.99988019490322,
block,objects,objects077.bmp,,,,,0,68,68,68,,,,,,,,,,,,,,,,,,,,,,,,,,,,,,,,,,,,,,,,,,None,,600.1481103600934,None,600.1481103600934,None,2023-03-14-10:53:57.015213,600.160514600575,600.4707666002214,600.160514600575,None,None,600.160514600575,None,600.9640537595376,None,,,,22030,0001,2023_Mar_14_1044,localizer,2021.1.3,59.99988019490322,
block,objects,objects087.bmp,,,,,0,69,69,69,,,,,,,,,,,,,,,,,,,,,,,,,,,,,,,,,,,,,,,,,,None,,600.9640537595376,None,600.9640537595376,None,2023-03-14-10:53:57.829963,600.9702691994607,601.2817633002996,600.9702691994607,None,None,600.9702691994607,None,601.7823031602427,None,,,,22030,0001,2023_Mar_14_1044,localizer,2021.1.3,59.99988019490322,
block,objects,objects087.bmp,,,,,0,70,70,70,,,,,,,,,,,,,,,,,,,,,,,,,,,,,,,,,,,,,,,,,,None,,601.7823031602427,None,601.7823031602427,None,2023-03-14-10:53:58.652322,601.7863957993686,602.0971648991108,601.7863957993686,None,y,601.7863957993686,None,602.5981106592342,None,0.6988808996975422,,,22030,0001,2023_Mar_14_1044,localizer,2021.1.3,59.99988019490322,
block,objects,objects028.bmp,,,,,0,71,71,71,,,,,,,,,,,,,,,,,,,,,,,,,,,,,,,,,,,,,,,,,,None,,602.5981106592342,None,602.5981106592342,None,2023-03-14-10:53:59.466010,602.6118391007185,602.9141164999455,602.6118391007185,None,None,602.6118391007185,None,603.4145573602989,None,,,,22030,0001,2023_Mar_14_1044,localizer,2021.1.3,59.99988019490322,
block,objects,objects037.bmp,,,,,0,72,72,72,,,,,,,,,,,,,,,,,,,,,,,,,,,,,,,,,,,,,,,,,,None,,603.4145573602989,None,603.4145573602989,None,2023-03-14-10:54:00.281471,603.4262943994254,603.7306752000004,603.4262943994254,None,None,603.4262943994254,None,604.2311104593798,None,,,,22030,0001,2023_Mar_14_1044,localizer,2021.1.3,59.99988019490322,
block,objects,objects024.bmp,,,,,0,73,73,73,,,,,,,,,,,,,,,,,,,,,,,,,,,,,,,,,,,,,,,,,,None,,604.2311104593798,None,604.2311104593798,None,2023-03-14-10:54:01.098246,604.2391142006963,604.5472531002015,604.2391142006963,None,None,604.2391142006963,None,605.0479560608044,None,,,,22030,0001,2023_Mar_14_1044,localizer,2021.1.3,59.99988019490322,
block,objects,objects008.bmp,,,,,0,74,74,74,,,,,,,,,,,,,,,,,,,,,,,,,,,,,,,,,,,,,,,,,,None,,605.0479560608044,None,605.0479560608044,None,2023-03-14-10:54:01.915031,605.0558272004128,605.3640752993524,605.0558272004128,None,None,605.0558272004128,None,605.8644752597436,None,,,,22030,0001,2023_Mar_14_1044,localizer,2021.1.3,59.99988019490322,
block_end,objects,objects079.bmp,,,,,0,75,75,75,,,,,,,,,,,,,,,,,,,,,,,,,,,,,,,,,,,,,,,,,,None,,605.8644752597436,None,605.8644752597436,None,2023-03-14-10:54:02.731586,605.8706135004759,606.1808026004583,605.8706135004759,None,None,605.8706135004759,None,606.6811922604218,None,,,,22030,0001,2023_Mar_14_1044,localizer,2021.1.3,59.99988019490322,
block_start,faces,faces006.bmp,,,,,0,76,76,76,,,,,,,,,,,,,,,,,,,,,,,,,,,,,,,,,,,,,,,,,,t,1.72939969971776,606.6810876000673,None,606.6810876000673,None,2023-03-14-10:54:05.297371,608.4373647999018,608.7472782004625,608.4373647999018,None,None,608.4373647999018,None,609.2474421599879,None,,,,22030,0001,2023_Mar_14_1044,localizer,2021.1.3,59.99988019490322,
block,faces,faces037.bmp,,,,,0,77,77,77,,,,,,,,,,,,,,,,,,,,,,,,,,,,,,,,,,,,,,,,,,None,,609.2474421599879,None,609.2474421599879,None,2023-03-14-10:54:06.114633,609.2545974999666,609.5648797992617,609.2545974999666,None,None,609.2545974999666,None,610.06480206009,None,,,,22030,0001,2023_Mar_14_1044,localizer,2021.1.3,59.99988019490322,
block,faces,faces066.bmp,,,,,0,78,78,78,,,,,,,,,,,,,,,,,,,,,,,,,,,,,,,,,,,,,,,,,,None,,610.06480206009,None,610.06480206009,None,2023-03-14-10:54:06.932945,610.0737271998078,610.3808156996965,610.0737271998078,None,None,610.0737271998078,None,610.8815389594063,None,,,,22030,0001,2023_Mar_14_1044,localizer,2021.1.3,59.99988019490322,
block,faces,faces033.bmp,,,,,0,79,79,79,,,,,,,,,,,,,,,,,,,,,,,,,,,,,,,,,,,,,,,,,,None,,610.8815389594063,None,610.8815389594063,None,2023-03-14-10:54:07.749493,610.8971498999745,611.1976673994213,610.8971498999745,None,None,610.8971498999745,None,611.6988803597167,None,,,,22030,0001,2023_Mar_14_1044,localizer,2021.1.3,59.99988019490322,
block,faces,faces070.bmp,,,,,0,80,80,80,,,,,,,,,,,,,,,,,,,,,,,,,,,,,,,,,,,,,,,,,,None,,611.6988803597167,None,611.6988803597167,None,2023-03-14-10:54:08.566826,611.7088523004204,612.0138517003506,611.7088523004204,None,None,611.7088523004204,None,612.514640459977,None,,,,22030,0001,2023_Mar_14_1044,localizer,2021.1.3,59.99988019490322,
block,faces,faces034.bmp,,,,,0,81,81,81,,,,,,,,,,,,,,,,,,,,,,,,,,,,,,,,,,,,,,,,,,None,,612.514640459977,None,612.514640459977,None,2023-03-14-10:54:09.381801,612.521915499121,612.8310154005885,612.521915499121,None,None,612.521915499121,None,613.3311683593317,None,,,,22030,0001,2023_Mar_14_1044,localizer,2021.1.3,59.99988019490322,
block,faces,faces046.bmp,,,,,0,82,82,82,,,,,,,,,,,,,,,,,,,,,,,,,,,,,,,,,,,,,,,,,,None,,613.3311683593317,None,613.3311683593317,None,2023-03-14-10:54:10.198360,613.3394654989243,613.6550149004906,613.3394654989243,None,None,613.3394654989243,None,614.1489064602181,None,,,,22030,0001,2023_Mar_14_1044,localizer,2021.1.3,59.99988019490322,
block,faces,faces049.bmp,,,,,0,83,83,83,,,,,,,,,,,,,,,,,,,,,,,,,,,,,,,,,,,,,,,,,,None,,614.1489064602181,None,614.1489064602181,None,2023-03-14-10:54:11.017855,614.1593602001667,614.4644786994904,614.1593602001667,None,None,614.1593602001667,None,614.9644682595506,None,,,,22030,0001,2023_Mar_14_1044,localizer,2021.1.3,59.99988019490322,
block,faces,faces074.bmp,,,,,0,84,84,84,,,,,,,,,,,,,,,,,,,,,,,,,,,,,,,,,,,,,,,,,,None,,614.9644682595506,None,614.9644682595506,None,2023-03-14-10:54:11.831457,614.9719076994807,615.2809989005327,614.9719076994807,None,None,614.9719076994807,None,615.781334359385,None,,,,22030,0001,2023_Mar_14_1044,localizer,2021.1.3,59.99988019490322,
block,faces,faces060.bmp,,,,,0,85,85,85,,,,,,,,,,,,,,,,,,,,,,,,,,,,,,,,,,,,,,,,,,None,,615.781334359385,None,615.781334359385,None,2023-03-14-10:54:12.649317,615.7887488994747,616.0980584993958,615.7887488994747,None,y,615.7887488994747,None,616.5980464594438,None,0.18667319975793362,,,22030,0001,2023_Mar_14_1044,localizer,2021.1.3,59.99988019490322,
block,faces,faces023.bmp,,,,,0,86,86,86,,,,,,,,,,,,,,,,,,,,,,,,,,,,,,,,,,,,,,,,,,None,,616.5980464594438,None,616.5980464594438,None,2023-03-14-10:54:13.466249,616.599623799324,616.9145896993577,616.599623799324,None,None,616.599623799324,None,617.4150454608723,None,,,,22030,0001,2023_Mar_14_1044,localizer,2021.1.3,59.99988019490322,
block,faces,faces029.bmp,,,,,0,87,87,87,,,,,,,,,,,,,,,,,,,,,,,,,,,,,,,,,,,,,,,,,,None,,617.4150454608723,None,617.4150454608723,None,2023-03-14-10:54:14.283013,617.4240166004747,617.7309130001813,617.4240166004747,None,None,617.4240166004747,None,618.2312501596286,None,,,,22030,0001,2023_Mar_14_1044,localizer,2021.1.3,59.99988019490322,
block,faces,faces036.bmp,,,,,0,88,88,88,,,,,,,,,,,,,,,,,,,,,,,,,,,,,,,,,,,,,,,,,,None,,618.2312501596286,None,618.2312501596286,None,2023-03-14-10:54:15.098256,618.2395831998438,618.5481179989874,618.2395831998438,None,None,618.2395831998438,None,619.0481013601645,None,,,,22030,0001,2023_Mar_14_1044,localizer,2021.1.3,59.99988019490322,
block,faces,faces019.bmp,,,,,0,89,89,89,,,,,,,,,,,,,,,,,,,,,,,,,,,,,,,,,,,,,,,,,,None,,619.0481013601645,None,619.0481013601645,None,2023-03-14-10:54:15.916306,619.0614256989211,619.3642334006727,619.0614256989211,None,None,619.0614256989211,None,619.8656861597672,None,,,,22030,0001,2023_Mar_14_1044,localizer,2021.1.3,59.99988019490322,
block_end,faces,faces077.bmp,,,,,0,90,90,90,,,,,,,,,,,,,,,,,,,,,,,,,,,,,,,,,,,,,,,,,,None,,619.8656861597672,None,619.8656861597672,None,2023-03-14-10:54:16.733824,619.8819855991751,620.180942600593,619.8819855991751,None,None,619.8819855991751,None,620.681398060359,None,,,,22030,0001,2023_Mar_14_1044,localizer,2021.1.3,59.99988019490322,
block_start,scrambled,scrambled070.bmp,,,,,0,91,91,91,,,,,,,,,,,,,,,,,,,,,,,,,,,,,,,,,,,,,,,,,,t,1.7294642012566328,620.6810858994722,None,620.6810858994722,None,2023-03-14-10:54:19.297728,622.4381492007524,622.7479903995991,622.4381492007524,None,None,622.4381492007524,None,623.2482269594445,None,,,,22030,0001,2023_Mar_14_1044,localizer,2021.1.3,59.99988019490322,
block,scrambled,scrambled019.bmp,,,,,0,92,92,92,,,,,,,,,,,,,,,,,,,,,,,,,,,,,,,,,,,,,,,,,,None,,623.2482269594445,None,623.2482269594445,None,2023-03-14-10:54:20.115513,623.2607498001307,623.5644322000444,623.2607498001307,None,None,623.2607498001307,None,624.0647281596437,None,,,,22030,0001,2023_Mar_14_1044,localizer,2021.1.3,59.99988019490322,
block,scrambled,scrambled088.bmp,,,,,0,93,93,93,,,,,,,,,,,,,,,,,,,,,,,,,,,,,,,,,,,,,,,,,,None,,624.0647281596437,None,624.0647281596437,None,2023-03-14-10:54:20.932951,624.0774489995092,624.3809307999909,624.0774489995092,None,None,624.0774489995092,None,624.8813118601217,None,,,,22030,0001,2023_Mar_14_1044,localizer,2021.1.3,59.99988019490322,
block,scrambled,scrambled045.bmp,,,,,0,94,94,94,,,,,,,,,,,,,,,,,,,,,,,,,,,,,,,,,,,,,,,,,,None,,624.8813118601217,None,624.8813118601217,None,2023-03-14-10:54:21.748566,624.89294099994,625.1976597998291,624.89294099994,None,None,624.89294099994,None,625.697773460485,None,,,,22030,0001,2023_Mar_14_1044,localizer,2021.1.3,59.99988019490322,
block,scrambled,scrambled012.bmp,,,,,0,95,95,95,,,,,,,,,,,,,,,,,,,,,,,,,,,,,,,,,,,,,,,,,,None,,625.697773460485,None,625.697773460485,None,2023-03-14-10:54:22.564834,625.7098251003772,626.0141419991851,625.7098251003772,None,None,625.7098251003772,None,626.5145460592582,None,,,,22030,0001,2023_Mar_14_1044,localizer,2021.1.3,59.99988019490322,
block,scrambled,scrambled059.bmp,,,,,0,96,96,96,,,,,,,,,,,,,,,,,,,,,,,,,,,,,,,,,,,,,,,,,,None,,626.5145460592582,None,626.5145460592582,None,2023-03-14-10:54:23.381604,626.5226981993765,626.8309665005654,626.5226981993765,None,None,626.5226981993765,None,627.3314924595877,None,,,,22030,0001,2023_Mar_14_1044,localizer,2021.1.3,59.99988019490322,
block,scrambled,scrambled074.bmp,,,,,0,97,97,97,,,,,,,,,,,,,,,,,,,,,,,,,,,,,,,,,,,,,,,,,,None,,627.3314924595877,None,627.3314924595877,None,2023-03-14-10:54:24.198550,627.3430569991469,627.6476048994809,627.3430569991469,None,None,627.3430569991469,None,628.1479101592674,None,,,,22030,0001,2023_Mar_14_1044,localizer,2021.1.3,59.99988019490322,
block,scrambled,scrambled083.bmp,,,,,0,98,98,98,,,,,,,,,,,,,,,,,,,,,,,,,,,,,,,,,,,,,,,,,,None,,628.1479101592674,None,628.1479101592674,None,2023-03-14-10:54:25.014976,628.1545839998871,628.4646153990179,628.1545839998871,None,y,628.1545839998871,None,628.9647539595142,None,0.40557439997792244,,,22030,0001,2023_Mar_14_1044,localizer,2021.1.3,59.99988019490322,
block,scrambled,scrambled011.bmp,,,,,0,99,99,99,,,,,,,,,,,,,,,,,,,,,,,,,,,,,,,,,,,,,,,,,,None,,628.9647539595142,None,628.9647539595142,None,2023-03-14-10:54:25.833020,628.9776277001947,629.2810823991895,628.9776277001947,None,None,628.9776277001947,None,629.7812098601833,None,,,,22030,0001,2023_Mar_14_1044,localizer,2021.1.3,59.99988019490322,
block,scrambled,scrambled006.bmp,,,,,0,100,100,100,,,,,,,,,,,,,,,,,,,,,,,,,,,,,,,,,,,,,,,,,,None,,629.7812098601833,None,629.7812098601833,None,2023-03-14-10:54:26.648353,629.7931468002498,630.0976422000676,629.7931468002498,None,None,629.7931468002498,None,630.5990097599104,None,,,,22030,0001,2023_Mar_14_1044,localizer,2021.1.3,59.99988019490322,
block,scrambled,scrambled002.bmp,,,,,0,101,101,101,,,,,,,,,,,,,,,,,,,,,,,,,,,,,,,,,,,,,,,,,,None,,630.5990097599104,None,630.5990097599104,None,2023-03-14-10:54:27.467651,630.6151420995593,630.9154298007488,630.6151420995593,None,None,630.6151420995593,None,631.4146945608779,None,,,,22030,0001,2023_Mar_14_1044,localizer,2021.1.3,59.99988019490322,
block,scrambled,scrambled069.bmp,,,,,0,102,102,102,,,,,,,,,,,,,,,,,,,,,,,,,,,,,,,,,,,,,,,,,,None,,631.4146945608779,None,631.4146945608779,None,2023-03-14-10:54:28.281966,631.4265199992806,631.7308045998216,631.4265199992806,None,None,631.4265199992806,None,632.2310945598408,None,,,,22030,0001,2023_Mar_14_1044,localizer,2021.1.3,59.99988019490322,
block,scrambled,scrambled007.bmp,,,,,0,103,103,103,,,,,,,,,,,,,,,,,,,,,,,,,,,,,,,,,,,,,,,,,,None,,632.2310945598408,None,632.2310945598408,None,2023-03-14-10:54:29.098190,632.2383198998868,632.548085398972,632.2383198998868,None,None,632.2383198998868,None,633.0483327602967,None,,,,22030,0001,2023_Mar_14_1044,localizer,2021.1.3,59.99988019490322,
block,scrambled,scrambled075.bmp,,,,,0,104,104,104,,,,,,,,,,,,,,,,,,,,,,,,,,,,,,,,,,,,,,,,,,None,,633.0483327602967,None,633.0483327602967,None,2023-03-14-10:54:29.916333,633.0608293991536,633.364358799532,633.0608293991536,None,None,633.0608293991536,None,633.8657000606879,None,,,,22030,0001,2023_Mar_14_1044,localizer,2021.1.3,59.99988019490322,
block_end,scrambled,scrambled051.bmp,,,,,0,105,105,105,,,,,,,,,,,,,,,,,,,,,,,,,,,,,,,,,,,,,,,,,,None,,633.8657000606879,None,633.8657000606879,None,2023-03-14-10:54:30.735846,633.8815164007246,634.180801499635,633.8815164007246,None,None,633.8815164007246,None,634.6811904592439,None,,,,22030,0001,2023_Mar_14_1044,localizer,2021.1.3,59.99988019490322,
null_block,null_block,null_block.bmp,,,,,0,106,106,106,,,,,,,,,,,,,,,,,,,,,,,,,,,,,,,,,,,,,,,,,,t,1.7294530998915434,634.6810662001371,None,634.6810662001371,None,2023-03-14-10:54:33.297378,636.431258460693,None,636.431258460693,None,None,636.431258460693,None,636.4340528007597,None,,,,22030,0001,2023_Mar_14_1044,localizer,2021.1.3,59.99988019490322,
block_start,scenes,scenes083.bmp,,,,,0,107,107,107,,,,,,,,,,,,,,,,,,,,,,,,,,,,,,,,,,,,,,,,,,t,1.962414501234889,648.4480491001159,None,648.4480491001159,None,2023-03-14-10:54:47.301517,650.445528300479,650.747674299404,650.445528300479,None,None,650.445528300479,None,651.2480946594849,None,,,,22030,0001,2023_Mar_14_1044,localizer,2021.1.3,59.99988019490322,
block,scenes,scenes049.bmp,,,,,0,108,108,108,,,,,,,,,,,,,,,,,,,,,,,,,,,,,,,,,,,,,,,,,,None,,651.2480946594849,None,651.2480946594849,None,2023-03-14-10:54:48.115521,651.2608061991632,651.5642467997968,651.2608061991632,None,None,651.2608061991632,None,652.0648341590538,None,,,,22030,0001,2023_Mar_14_1044,localizer,2021.1.3,59.99988019490322,
block,scenes,scenes079.bmp,,,,,0,109,109,109,,,,,,,,,,,,,,,,,,,,,,,,,,,,,,,,,,,,,,,,,,None,,652.0648341590538,None,652.0648341590538,None,2023-03-14-10:54:48.932045,652.0775419995189,652.3812504000962,652.0775419995189,None,None,652.0775419995189,None,652.881102960743,None,,,,22030,0001,2023_Mar_14_1044,localizer,2021.1.3,59.99988019490322,
block,scenes,scenes029.bmp,,,,,0,110,110,110,,,,,,,,,,,,,,,,,,,,,,,,,,,,,,,,,,,,,,,,,,None,,652.881102960743,None,652.881102960743,None,2023-03-14-10:54:49.748326,652.8918031007051,653.1977667007595,652.8918031007051,None,None,652.8918031007051,None,653.6979321597144,None,,,,22030,0001,2023_Mar_14_1044,localizer,2021.1.3,59.99988019490322,
block,scenes,scenes045.bmp,,,,,0,111,111,111,,,,,,,,,,,,,,,,,,,,,,,,,,,,,,,,,,,,,,,,,,None,,653.6979321597144,None,653.6979321597144,None,2023-03-14-10:54:50.565159,653.7083592992276,654.014165699482,653.7083592992276,None,None,653.7083592992276,None,654.5154172593727,None,,,,22030,0001,2023_Mar_14_1044,localizer,2021.1.3,59.99988019490322,
block,scenes,scenes038.bmp,,,,,0,112,112,112,,,,,,,,,,,,,,,,,,,,,,,,,,,,,,,,,,,,,,,,,,None,,654.5154172593727,None,654.5154172593727,None,2023-03-14-10:54:51.383208,654.525446800515,654.8310179989785,654.525446800515,None,None,654.525446800515,None,655.3313685601577,None,,,,22030,0001,2023_Mar_14_1044,localizer,2021.1.3,59.99988019490322,
block,scenes,scenes016.bmp,,,,,0,113,113,113,,,,,,,,,,,,,,,,,,,,,,,,,,,,,,,,,,,,,,,,,,None,,655.3313685601577,None,655.3313685601577,None,2023-03-14-10:54:52.198600,655.3446919992566,655.6515465993434,655.3446919992566,None,None,655.3446919992566,None,656.1481907593086,None,,,,22030,0001,2023_Mar_14_1044,localizer,2021.1.3,59.99988019490322,
block,scenes,scenes003.bmp,,,,,0,114,114,114,,,,,,,,,,,,,,,,,,,,,,,,,,,,,,,,,,,,,,,,,,None,,656.1481907593086,None,656.1481907593086,None,2023-03-14-10:54:53.015531,656.1611352991313,656.4645875990391,656.1611352991313,None,None,656.1611352991313,None,656.9648863600567,None,,,,22030,0001,2023_Mar_14_1044,localizer,2021.1.3,59.99988019490322,
block,scenes,scenes025.bmp,,,,,0,115,115,115,,,,,,,,,,,,,,,,,,,,,,,,,,,,,,,,,,,,,,,,,,None,,656.9648863600567,None,656.9648863600567,None,2023-03-14-10:54:53.832126,656.9783213995397,657.2809263989329,656.9783213995397,None,None,656.9783213995397,None,657.7816163601353,None,,,,22030,0001,2023_Mar_14_1044,localizer,2021.1.3,59.99988019490322,
block,scenes,scenes036.bmp,,,,,0,116,116,116,,,,,,,,,,,,,,,,,,,,,,,,,,,,,,,,,,,,,,,,,,None,,657.7816163601353,None,657.7816163601353,None,2023-03-14-10:54:54.649060,657.789149299264,658.09759859927,657.789149299264,None,None,657.789149299264,None,658.5981958603486,None,,,,22030,0001,2023_Mar_14_1044,localizer,2021.1.3,59.99988019490322,
block,scenes,scenes080.bmp,,,,,0,117,117,117,,,,,,,,,,,,,,,,,,,,,,,,,,,,,,,,,,,,,,,,,,None,,658.5981958603486,None,658.5981958603486,None,2023-03-14-10:54:55.465446,658.6121442001313,658.914243299514,658.6121442001313,None,None,658.6121442001313,None,659.4149168601259,None,,,,22030,0001,2023_Mar_14_1044,localizer,2021.1.3,59.99988019490322,
block,scenes,scenes044.bmp,,,,,0,118,118,118,,,,,,,,,,,,,,,,,,,,,,,,,,,,,,,,,,,,,,,,,,None,,659.4149168601259,None,659.4149168601259,None,2023-03-14-10:54:56.282378,659.4275544993579,659.7318127006292,659.4275544993579,None,None,659.4275544993579,None,660.2321639603003,None,,,,22030,0001,2023_Mar_14_1044,localizer,2021.1.3,59.99988019490322,
block,scenes,scenes023.bmp,,,,,0,119,119,119,,,,,,,,,,,,,,,,,,,,,,,,,,,,,,,,,,,,,,,,,,None,,660.2321639603003,None,660.2321639603003,None,2023-03-14-10:54:57.100412,660.2466937992722,660.5480719991028,660.2466937992722,None,None,660.2466937992722,None,661.0493124594911,None,,,,22030,0001,2023_Mar_14_1044,localizer,2021.1.3,59.99988019490322,
block,scenes,scenes074.bmp,,,,,0,120,120,120,,,,,,,,,,,,,,,,,,,,,,,,,,,,,,,,,,,,,,,,,,None,,661.0493124594911,None,661.0493124594911,None,2023-03-14-10:54:57.919490,661.0592948999256,661.3647916000336,661.0592948999256,None,None,661.0592948999256,None,661.8644838595762,None,,,,22030,0001,2023_Mar_14_1044,localizer,2021.1.3,59.99988019490322,
block_end,scenes,scenes067.bmp,,,,,0,121,121,121,,,,,,,,,,,,,,,,,,,,,,,,,,,,,,,,,,,,,,,,,,None,,661.8644838595762,None,661.8644838595762,None,2023-03-14-10:54:58.731757,661.8749954998493,662.1809740997851,661.8749954998493,None,y,661.8749954998493,None,662.6814368592575,None,0.11825830116868019,,,22030,0001,2023_Mar_14_1044,localizer,2021.1.3,59.99988019490322,
null_block,null_block,null_block.bmp,,,,,0,122,122,122,,,,,,,,,,,,,,,,,,,,,,,,,,,,,,,,,,,,,,,,,,t,1.7293251007795334,662.6812327001244,None,662.6812327001244,None,2023-03-14-10:55:01.297950,664.4316607603803,None,664.4316607603803,None,None,664.4316607603803,None,664.4341001994908,None,,,,22030,0001,2023_Mar_14_1044,localizer,2021.1.3,59.99988019490322,
block_start,faces,faces027.bmp,,,,,0,123,123,123,,,,,,,,,,,,,,,,,,,,,,,,,,,,,,,,,,,,,,,,,,t,1.9623179007321596,676.4482115004212,None,676.4482115004212,None,2023-03-14-10:55:15.299863,678.4415597002953,678.7479727994651,678.4415597002953,None,None,678.4415597002953,None,679.2486073600128,None,,,,22030,0001,2023_Mar_14_1044,localizer,2021.1.3,59.99988019490322,
block,faces,faces029.bmp,,,,,0,124,124,124,,,,,,,,,,,,,,,,,,,,,,,,,,,,,,,,,,,,,,,,,,None,,679.2486073600128,None,679.2486073600128,None,2023-03-14-10:55:16.117183,679.249432599172,679.5484314002097,679.249432599172,None,None,679.249432599172,None,680.048578059487,None,,,,22030,0001,2023_Mar_14_1044,localizer,2021.1.3,59.99988019490322,
block,faces,faces060.bmp,,,,,0,125,125,125,,,,,,,,,,,,,,,,,,,,,,,,,,,,,,,,,,,,,,,,,,None,,680.048578059487,None,680.048578059487,None,2023-03-14-10:55:16.917077,680.050599899143,680.3650365006179,680.050599899143,680.050599899143,None,680.050599899143,680.050599899143,680.8650895601138,None,,,,22030,0001,2023_Mar_14_1044,localizer,2021.1.3,59.99988019490322,
block,faces,faces079.bmp,,,,,0,126,126,126,,,,,,,,,,,,,,,,,,,,,,,,,,,,,,,,,,,,,,,,,,None,,680.8650895601138,None,680.8650895601138,None,2023-03-14-10:55:17.732480,680.8767696991563,681.1815926991403,680.8767696991563,None,None,680.8767696991563,None,681.6815627591684,None,,,,22030,0001,2023_Mar_14_1044,localizer,2021.1.3,59.99988019490322,
block,faces,faces051.bmp,,,,,0,127,127,127,,,,,,,,,,,,,,,,,,,,,,,,,,,,,,,,,,,,,,,,,,None,,681.6815627591684,None,681.6815627591684,None,2023-03-14-10:55:18.549137,681.6891693007201,681.9981376994401,681.6891693007201,None,None,681.6891693007201,None,682.4984572606161,None,,,,22030,0001,2023_Mar_14_1044,localizer,2021.1.3,59.99988019490322,
block,faces,faces006.bmp,,,,,0,128,128,128,,,,,,,,,,,,,,,,,,,,,,,,,,,,,,,,,,,,,,,,,,None,,682.4984572606161,None,682.4984572606161,None,2023-03-14-10:55:19.365855,682.4992216993123,682.7986938990653,682.4992216993123,None,None,682.4992216993123,None,683.2989052591845,None,,,,22030,0001,2023_Mar_14_1044,localizer,2021.1.3,59.99988019490322,
block,faces,faces073.bmp,,,,,0,129,129,129,,,,,,,,,,,,,,,,,,,,,,,,,,,,,,,,,,,,,,,,,,None,,683.2989052591845,None,683.2989052591845,None,2023-03-14-10:55:20.169101,683.3143092989922,683.6148522999138,683.3143092989922,683.3143092989922,None,683.3143092989922,683.3143092989922,684.1155812593177,None,,,,22030,0001,2023_Mar_14_1044,localizer,2021.1.3,59.99988019490322,
block,faces,faces057.bmp,,,,,0,130,130,130,,,,,,,,,,,,,,,,,,,,,,,,,,,,,,,,,,,,,,,,,,None,,684.1155812593177,None,684.1155812593177,None,2023-03-14-10:55:20.983978,684.1256306990981,684.4312372989953,684.1256306990981,None,None,684.1256306990981,None,684.9316240606829,None,,,,22030,0001,2023_Mar_14_1044,localizer,2021.1.3,59.99988019490322,
block,faces,faces083.bmp,,,,,0,131,131,131,,,,,,,,,,,,,,,,,,,,,,,,,,,,,,,,,,,,,,,,,,None,,684.9316240606829,None,684.9316240606829,None,2023-03-14-10:55:21.799327,684.9423484001309,685.2479711007327,684.9423484001309,None,None,684.9423484001309,None,685.7484001593664,None,,,,22030,0001,2023_Mar_14_1044,localizer,2021.1.3,59.99988019490322,
block,faces,faces013.bmp,,,,,0,132,132,132,,,,,,,,,,,,,,,,,,,,,,,,,,,,,,,,,,,,,,,,,,None,,685.7484001593664,None,685.7484001593664,None,2023-03-14-10:55:22.615820,685.7554556000978,686.0651255995035,685.7554556000978,None,None,685.7554556000978,None,686.5653909595683,None,,,,22030,0001,2023_Mar_14_1044,localizer,2021.1.3,59.99988019490322,
block,faces,faces015.bmp,,,,,0,133,133,133,,,,,,,,,,,,,,,,,,,,,,,,,,,,,,,,,,,,,,,,,,None,,686.5653909595683,None,686.5653909595683,None,2023-03-14-10:55:23.433758,686.5792855992913,686.881303999573,686.5792855992913,None,None,686.5792855992913,None,687.3818491606041,None,,,,22030,0001,2023_Mar_14_1044,localizer,2021.1.3,59.99988019490322,
block,faces,faces082.bmp,,,,,0,134,134,134,,,,,,,,,,,,,,,,,,,,,,,,,,,,,,,,,,,,,,,,,,None,,687.3818491606041,None,687.3818491606041,None,2023-03-14-10:55:24.249277,687.3944947998971,687.6979307997972,687.3944947998971,None,None,687.3944947998971,None,688.1986803600564,None,,,,22030,0001,2023_Mar_14_1044,localizer,2021.1.3,59.99988019490322,
block,faces,faces072.bmp,,,,,0,135,135,135,,,,,,,,,,,,,,,,,,,,,,,,,,,,,,,,,,,,,,,,,,None,,688.1986803600564,None,688.1986803600564,None,2023-03-14-10:55:25.067297,688.1992211993784,688.5143947992474,688.1992211993784,None,None,688.1992211993784,None,688.999109760113,None,,,,22030,0001,2023_Mar_14_1044,localizer,2021.1.3,59.99988019490322,
block,faces,faces059.bmp,,,,,0,136,136,136,,,,,,,,,,,,,,,,,,,,,,,,,,,,,,,,,,,,,,,,,,None,,688.999109760113,None,688.999109760113,None,2023-03-14-10:55:25.869531,689.009548900649,689.3150072004646,689.009548900649,689.009548900649,None,689.009548900649,689.009548900649,689.8150328604504,None,,,,22030,0001,2023_Mar_14_1044,localizer,2021.1.3,59.99988019490322,
block_end,faces,faces033.bmp,,,,,0,137,137,137,,,,,,,,,,,,,,,,,,,,,,,,,,,,,,,,,,,,,,,,,,None,,689.8150328604504,None,689.8150328604504,None,2023-03-14-10:55:26.682478,689.8156602997333,690.1149220000952,689.8156602997333,None,None,689.8156602997333,None,690.6154381597414,None,,,,22030,0001,2023_Mar_14_1044,localizer,2021.1.3,59.99988019490322,
block_start,scrambled,scrambled019.bmp,,,,,0,138,138,138,,,,,,,,,,,,,,,,,,,,,,,,,,,,,,,,,,,,,,,,,,t,1.7944265995174646,690.6150681003928,None,690.6150681003928,None,2023-03-14-10:55:29.299057,692.4322052001953,692.7315314989537,692.4322052001953,None,None,692.4322052001953,None,693.2316916605457,None,,,,22030,0001,2023_Mar_14_1044,localizer,2021.1.3,59.99988019490322,
block,scrambled,scrambled078.bmp,,,,,0,139,139,139,,,,,,,,,,,,,,,,,,,,,,,,,,,,,,,,,,,,,,,,,,None,,693.2316916605457,None,693.2316916605457,None,2023-03-14-10:55:30.100153,693.2434336990118,693.5480732992291,693.2434336990118,693.2434336990118,None,693.2434336990118,693.2434336990118,694.0488584602251,None,,,,22030,0001,2023_Mar_14_1044,localizer,2021.1.3,59.99988019490322,
block,scrambled,scrambled079.bmp,,,,,0,140,140,140,,,,,,,,,,,,,,,,,,,,,,,,,,,,,,,,,,,,,,,,,,None,,694.0488584602251,None,694.0488584602251,None,2023-03-14-10:55:30.917313,694.0634214989841,694.364951999858,694.0634214989841,None,None,694.0634214989841,None,694.8655210604891,None,,,,22030,0001,2023_Mar_14_1044,localizer,2021.1.3,59.99988019490322,
block,scrambled,scrambled069.bmp,,,,,0,141,141,141,,,,,,,,,,,,,,,,,,,,,,,,,,,,,,,,,,,,,,,,,,None,,694.8655210604891,None,694.8655210604891,None,2023-03-14-10:55:31.733982,694.8675612993538,695.1819256991148,694.8675612993538,None,None,694.8675612993538,None,695.6816273594275,None,,,,22030,0001,2023_Mar_14_1044,localizer,2021.1.3,59.99988019490322,
block,scrambled,scrambled069.bmp,,,,,0,142,142,142,,,,,,,,,,,,,,,,,,,,,,,,,,,,,,,,,,,,,,,,,,None,,695.6816273594275,None,695.6816273594275,None,2023-03-14-10:55:32.549396,695.6825808994472,695.9814758002758,695.6825808994472,None,y,695.6825808994472,None,696.4818060604855,None,0.753609100356698,,,22030,0001,2023_Mar_14_1044,localizer,2021.1.3,59.99988019490322,
block,scrambled,scrambled016.bmp,,,,,0,143,143,143,,,,,,,,,,,,,,,,,,,,,,,,,,,,,,,,,,,,,,,,,,None,,696.4818060604855,None,696.4818060604855,None,2023-03-14-10:55:33.351501,696.4913378991187,696.7979549001902,696.4913378991187,696.4913378991187,None,696.4913378991187,696.4913378991187,697.2985452601686,None,,,,22030,0001,2023_Mar_14_1044,localizer,2021.1.3,59.99988019490322,
block,scrambled,scrambled060.bmp,,,,,0,144,144,144,,,,,,,,,,,,,,,,,,,,,,,,,,,,,,,,,,,,,,,,,,None,,697.2985452601686,None,697.2985452601686,None,2023-03-14-10:55:34.166253,697.3102799002081,697.6148688998073,697.3102799002081,None,None,697.3102799002081,None,698.1046475602313,None,,,,22030,0001,2023_Mar_14_1044,localizer,2021.1.3,59.99988019490322,
block,scrambled,scrambled039.bmp,,,,,0,145,145,145,,,,,,,,,,,,,,,,,,,,,,,,,,,,,,,,,,,,,,,,,,None,,698.1046475602313,None,698.1046475602313,None,2023-03-14-10:55:34.976009,698.1247907001525,698.4314606990665,698.1247907001525,None,None,698.1247907001525,None,698.9151805603876,None,,,,22030,0001,2023_Mar_14_1044,localizer,2021.1.3,59.99988019490322,
block,scrambled,scrambled063.bmp,,,,,0,146,146,146,,,,,,,,,,,,,,,,,,,,,,,,,,,,,,,,,,,,,,,,,,None,,698.9151805603876,None,698.9151805603876,None,2023-03-14-10:55:35.782861,698.9268235005438,699.231622800231,698.9268235005438,None,None,698.9268235005438,None,699.7315541600808,None,,,,22030,0001,2023_Mar_14_1044,localizer,2021.1.3,59.99988019490322,
block,scrambled,scrambled009.bmp,,,,,0,147,147,147,,,,,,,,,,,,,,,,,,,,,,,,,,,,,,,,,,,,,,,,,,None,,699.7315541600808,None,699.7315541600808,None,2023-03-14-10:55:36.599228,699.7427763007581,700.04807529971,699.7427763007581,None,None,699.7427763007581,None,700.5484014602378,None,,,,22030,0001,2023_Mar_14_1044,localizer,2021.1.3,59.99988019490322,
block,scrambled,scrambled045.bmp,,,,,0,148,148,148,,,,,,,,,,,,,,,,,,,,,,,,,,,,,,,,,,,,,,,,,,None,,700.5484014602378,None,700.5484014602378,None,2023-03-14-10:55:37.415911,700.5491128005087,700.848252300173,700.5491128005087,None,None,700.5491128005087,None,701.3487001603469,None,,,,22030,0001,2023_Mar_14_1044,localizer,2021.1.3,59.99988019490322,
block,scrambled,scrambled005.bmp,,,,,0,149,149,149,,,,,,,,,,,,,,,,,,,,,,,,,,,,,,,,,,,,,,,,,,None,,701.3487001603469,None,701.3487001603469,None,2023-03-14-10:55:38.219415,701.3631871007383,701.6698745992035,701.3631871007383,701.3631871007383,None,701.3631871007383,701.3631871007383,702.1648341605439,None,,,,22030,0001,2023_Mar_14_1044,localizer,2021.1.3,59.99988019490322,
block,scrambled,scrambled077.bmp,,,,,0,150,150,150,,,,,,,,,,,,,,,,,,,,,,,,,,,,,,,,,,,,,,,,,,None,,702.1648341605439,None,702.1648341605439,None,2023-03-14-10:55:39.032360,702.1753810998052,702.4814752005041,702.1753810998052,None,None,702.1753810998052,None,702.9817083591595,None,,,,22030,0001,2023_Mar_14_1044,localizer,2021.1.3,59.99988019490322,
block,scrambled,scrambled026.bmp,,,,,0,151,151,151,,,,,,,,,,,,,,,,,,,,,,,,,,,,,,,,,,,,,,,,,,None,,702.9817083591595,None,702.9817083591595,None,2023-03-14-10:55:39.849233,702.9932160004973,703.2983992993832,702.9932160004973,None,None,702.9932160004973,None,703.7994849590584,None,,,,22030,0001,2023_Mar_14_1044,localizer,2021.1.3,59.99988019490322,
block_end,scrambled,scrambled087.bmp,,,,,0,152,152,152,,,,,,,,,,,,,,,,,,,,,,,,,,,,,,,,,,,,,,,,,,None,,703.7994849590584,None,703.7994849590584,None,2023-03-14-10:55:40.668171,703.8120249006897,704.1148329004645,703.8120249006897,None,None,703.8120249006897,None,704.6154615601524,None,,,,22030,0001,2023_Mar_14_1044,localizer,2021.1.3,59.99988019490322,
block_start,scenes,scenes072.bmp,,,,,0,153,153,153,,,,,,,,,,,,,,,,,,,,,,,,,,,,,,,,,,,,,,,,,,t,1.7942131999880075,704.6152771990746,None,704.6152771990746,None,2023-03-14-10:55:43.298396,706.443295199424,706.7482306007296,706.443295199424,None,None,706.443295199424,None,707.2489046605303,None,,,,22030,0001,2023_Mar_14_1044,localizer,2021.1.3,59.99988019490322,
block,scenes,scenes085.bmp,,,,,0,154,154,154,,,,,,,,,,,,,,,,,,,,,,,,,,,,,,,,,,,,,,,,,,None,,707.2489046605303,None,707.2489046605303,None,2023-03-14-10:55:44.117412,707.262136599049,707.5649199001491,707.262136599049,None,None,707.262136599049,None,708.0656528605148,None,,,,22030,0001,2023_Mar_14_1044,localizer,2021.1.3,59.99988019490322,
block,scenes,scenes055.bmp,,,,,0,155,155,155,,,,,,,,,,,,,,,,,,,,,,,,,,,,,,,,,,,,,,,,,,None,,708.0656528605148,None,708.0656528605148,None,2023-03-14-10:55:44.934196,708.0755158998072,708.3817040007561,708.0755158998072,None,None,708.0755158998072,None,708.8823313603177,None,,,,22030,0001,2023_Mar_14_1044,localizer,2021.1.3,59.99988019490322,
block,scenes,scenes070.bmp,,,,,0,156,156,156,,,,,,,,,,,,,,,,,,,,,,,,,,,,,,,,,,,,,,,,,,None,,708.8823313603177,None,708.8823313603177,None,2023-03-14-10:55:45.751075,708.8906402997673,709.1981234997511,708.8906402997673,None,None,708.8906402997673,None,709.6982751602307,None,,,,22030,0001,2023_Mar_14_1044,localizer,2021.1.3,59.99988019490322,
block,scenes,scenes031.bmp,,,,,0,157,157,157,,,,,,,,,,,,,,,,,,,,,,,,,,,,,,,,,,,,,,,,,,None,,709.6982751602307,None,709.6982751602307,None,2023-03-14-10:55:46.565900,709.7096302993596,710.0148724000901,709.7096302993596,None,None,709.7096302993596,None,710.5154865590855,None,,,,22030,0001,2023_Mar_14_1044,localizer,2021.1.3,59.99988019490322,
block,scenes,scenes050.bmp,,,,,0,158,158,158,,,,,,,,,,,,,,,,,,,,,,,,,,,,,,,,,,,,,,,,,,None,,710.5154865590855,None,710.5154865590855,None,2023-03-14-10:55:47.384065,710.5244801007211,710.8316073995084,710.5244801007211,None,None,710.5244801007211,None,711.3329681606963,None,,,,22030,0001,2023_Mar_14_1044,localizer,2021.1.3,59.99988019490322,
block,scenes,scenes016.bmp,,,,,0,159,159,159,,,,,,,,,,,,,,,,,,,,,,,,,,,,,,,,,,,,,,,,,,None,,711.3329681606963,None,711.3329681606963,None,2023-03-14-10:55:48.201522,711.335285698995,711.6481653004885,711.335285698995,None,None,711.335285698995,None,712.1485563592985,None,,,,22030,0001,2023_Mar_14_1044,localizer,2021.1.3,59.99988019490322,
block,scenes,scenes083.bmp,,,,,0,160,160,160,,,,,,,,,,,,,,,,,,,,,,,,,,,,,,,,,,,,,,,,,,None,,712.1485563592985,None,712.1485563592985,None,2023-03-14-10:55:49.016623,712.1493199001998,712.4482818003744,712.1493199001998,None,None,712.1493199001998,None,712.9490615596994,None,,,,22030,0001,2023_Mar_14_1044,localizer,2021.1.3,59.99988019490322,
block,scenes,scenes065.bmp,,,,,0,161,161,161,,,,,,,,,,,,,,,,,,,,,,,,,,,,,,,,,,,,,,,,,,None,,712.9490615596994,None,712.9490615596994,None,2023-03-14-10:55:49.818561,712.961862899363,713.2647191993892,712.961862899363,712.961862899363,None,712.961862899363,712.961862899363,713.7662565598264,None,,,,22030,0001,2023_Mar_14_1044,localizer,2021.1.3,59.99988019490322,
block,scenes,scenes063.bmp,,,,,0,162,162,162,,,,,,,,,,,,,,,,,,,,,,,,,,,,,,,,,,,,,,,,,,None,,713.7662565598264,None,713.7662565598264,None,2023-03-14-10:55:50.635975,713.7877942994237,714.0989174004644,713.7877942994237,None,None,713.7877942994237,None,714.5824586601927,None,,,,22030,0001,2023_Mar_14_1044,localizer,2021.1.3,59.99988019490322,
block,scenes,scenes091.bmp,,,,,0,163,163,163,,,,,,,,,,,,,,,,,,,,,,,,,,,,,,,,,,,,,,,,,,None,,714.5824586601927,None,714.5824586601927,None,2023-03-14-10:55:51.451035,714.5967868994921,714.8982718996704,714.5967868994921,None,None,714.5967868994921,None,715.3984499594196,None,,,,22030,0001,2023_Mar_14_1044,localizer,2021.1.3,59.99988019490322,
block,scenes,scenes020.bmp,,,,,0,164,164,164,,,,,,,,,,,,,,,,,,,,,,,,,,,,,,,,,,,,,,,,,,None,,715.3984499594196,None,715.3984499594196,None,2023-03-14-10:55:52.266047,715.4052015002817,715.714864499867,715.4052015002817,None,None,715.4052015002817,None,716.2154303604736,None,,,,22030,0001,2023_Mar_14_1044,localizer,2021.1.3,59.99988019490322,
block,scenes,scenes041.bmp,,,,,0,165,165,165,,,,,,,,,,,,,,,,,,,,,,,,,,,,,,,,,,,,,,,,,,None,,716.2154303604736,None,716.2154303604736,None,2023-03-14-10:55:53.084097,716.2280279994011,716.5316867996007,716.2280279994011,None,None,716.2280279994011,None,717.0317012595012,None,,,,22030,0001,2023_Mar_14_1044,localizer,2021.1.3,59.99988019490322,
block,scenes,scenes021.bmp,,,,,0,166,166,166,,,,,,,,,,,,,,,,,,,,,,,,,,,,,,,,,,,,,,,,,,None,,717.0317012595012,None,717.0317012595012,None,2023-03-14-10:55:53.899314,717.0444568004459,717.3481824994087,717.0444568004459,None,None,717.0444568004459,None,717.8484698591753,None,,,,22030,0001,2023_Mar_14_1044,localizer,2021.1.3,59.99988019490322,
block_end,scenes,scenes089.bmp,,,,,0,167,167,167,,,,,,,,,,,,,,,,,,,,,,,,,,,,,,,,,,,,,,,,,,None,,717.8484698591753,None,717.8484698591753,None,2023-03-14-10:55:54.716085,717.8603916000575,718.1649194005877,717.8603916000575,None,None,717.8603916000575,None,718.6652096604928,None,,,,22030,0001,2023_Mar_14_1044,localizer,2021.1.3,59.99988019490322,
block_start,objects,objects012.bmp,,,,,0,168,168,168,,,,,,,,,,,,,,,,,,,,,,,,,,,,,,,,,,,,,,,,,,t,1.7445158995687962,718.6649572998285,None,718.6649572998285,None,2023-03-14-10:55:57.300796,720.4449096992612,720.748239800334,720.4449096992612,None,None,720.4449096992612,None,721.2485605591908,None,,,,22030,0001,2023_Mar_14_1044,localizer,2021.1.3,59.99988019490322,
block,objects,objects087.bmp,,,,,0,169,169,169,,,,,,,,,,,,,,,,,,,,,,,,,,,,,,,,,,,,,,,,,,None,,721.2485605591908,None,721.2485605591908,None,2023-03-14-10:55:58.116274,721.2492781989276,721.5483941007406,721.2492781989276,None,None,721.2492781989276,None,722.064988460578,None,,,,22030,0001,2023_Mar_14_1044,localizer,2021.1.3,59.99988019490322,
block,objects,objects046.bmp,,,,,0,170,170,170,,,,,,,,,,,,,,,,,,,,,,,,,,,,,,,,,,,,,,,,,,None,,722.064988460578,None,722.064988460578,None,2023-03-14-10:55:58.933087,722.0769171006978,722.3816080000252,722.0769171006978,None,None,722.0769171006978,None,722.8819709608331,None,,,,22030,0001,2023_Mar_14_1044,localizer,2021.1.3,59.99988019490322,
block,objects,objects030.bmp,,,,,0,171,171,171,,,,,,,,,,,,,,,,,,,,,,,,,,,,,,,,,,,,,,,,,,None,,722.8819709608331,None,722.8819709608331,None,2023-03-14-10:55:59.749842,722.8937007002532,723.1979383006692,722.8937007002532,None,None,722.8937007002532,None,723.6981976592913,None,,,,22030,0001,2023_Mar_14_1044,localizer,2021.1.3,59.99988019490322,
block,objects,objects066.bmp,,,,,0,172,172,172,,,,,,,,,,,,,,,,,,,,,,,,,,,,,,,,,,,,,,,,,,None,,723.6981976592913,None,723.6981976592913,None,2023-03-14-10:56:00.566044,723.7052254006267,724.0153938997537,723.7052254006267,None,None,723.7052254006267,None,724.515500860475,None,,,,22030,0001,2023_Mar_14_1044,localizer,2021.1.3,59.99988019490322,
block,objects,objects047.bmp,,,,,0,173,173,173,,,,,,,,,,,,,,,,,,,,,,,,,,,,,,,,,,,,,,,,,,None,,724.515500860475,None,724.515500860475,None,2023-03-14-10:56:01.383352,724.5281333997846,724.8319041002542,724.5281333997846,None,None,724.5281333997846,None,725.3321220597252,None,,,,22030,0001,2023_Mar_14_1044,localizer,2021.1.3,59.99988019490322,
block,objects,objects048.bmp,,,,,0,174,174,174,,,,,,,,,,,,,,,,,,,,,,,,,,,,,,,,,,,,,,,,,,None,,725.3321220597252,None,725.3321220597252,None,2023-03-14-10:56:02.199780,725.332739898935,725.631040899083,725.332739898935,None,None,725.332739898935,None,726.1319360604509,None,,,,22030,0001,2023_Mar_14_1044,localizer,2021.1.3,59.99988019490322,
block,objects,objects088.bmp,,,,,0,175,175,175,,,,,,,,,,,,,,,,,,,,,,,,,,,,,,,,,,,,,,,,,,None,,726.1319360604509,None,726.1319360604509,None,2023-03-14-10:56:03.001726,726.145634200424,726.4484001994133,726.145634200424,726.145634200424,None,726.145634200424,726.145634200424,726.948317660205,None,,,,22030,0001,2023_Mar_14_1044,localizer,2021.1.3,59.99988019490322,
block,objects,objects029.bmp,,,,,0,176,176,176,,,,,,,,,,,,,,,,,,,,,,,,,,,,,,,,,,,,,,,,,,None,,726.948317660205,None,726.948317660205,None,2023-03-14-10:56:03.815901,726.9492659997195,727.2649777997285,726.9492659997195,None,None,726.9492659997195,None,727.7486883608624,None,,,,22030,0001,2023_Mar_14_1044,localizer,2021.1.3,59.99988019490322,
block,objects,objects014.bmp,,,,,0,177,177,177,,,,,,,,,,,,,,,,,,,,,,,,,,,,,,,,,,,,,,,,,,None,,727.7486883608624,None,727.7486883608624,None,2023-03-14-10:56:04.618579,727.7583649996668,728.0649446994066,727.7583649996668,727.7583649996668,None,727.7583649996668,727.7583649996668,728.5657403601333,None,,,,22030,0001,2023_Mar_14_1044,localizer,2021.1.3,59.99988019490322,
block,objects,objects060.bmp,,,,,0,178,178,178,,,,,,,,,,,,,,,,,,,,,,,,,,,,,,,,,,,,,,,,,,None,,728.5657403601333,None,728.5657403601333,None,2023-03-14-10:56:05.434422,728.5783277004957,728.8817435000092,728.5783277004957,None,None,728.5783277004957,None,729.3818975595757,None,,,,22030,0001,2023_Mar_14_1044,localizer,2021.1.3,59.99988019490322,
block,objects,objects079.bmp,,,,,0,179,179,179,,,,,,,,,,,,,,,,,,,,,,,,,,,,,,,,,,,,,,,,,,None,,729.3818975595757,None,729.3818975595757,None,2023-03-14-10:56:06.249794,729.3827027995139,729.6829256005585,729.3827027995139,None,None,729.3827027995139,None,730.1820656603202,None,,,,22030,0001,2023_Mar_14_1044,localizer,2021.1.3,59.99988019490322,
block,objects,objects019.bmp,,,,,0,180,180,180,,,,,,,,,,,,,,,,,,,,,,,,,,,,,,,,,,,,,,,,,,None,,730.1820656603202,None,730.1820656603202,None,2023-03-14-10:56:07.050737,730.1937674991786,730.4984504003078,730.1937674991786,730.1937674991786,None,730.1937674991786,730.1937674991786,730.9987850600853,None,,,,22030,0001,2023_Mar_14_1044,localizer,2021.1.3,59.99988019490322,
block,objects,objects077.bmp,,,,,0,181,181,181,,,,,,,,,,,,,,,,,,,,,,,,,,,,,,,,,,,,,,,,,,None,,730.9987850600853,None,730.9987850600853,None,2023-03-14-10:56:07.866477,730.9993815999478,731.2985740993172,730.9993815999478,None,None,730.9993815999478,None,731.7987757606431,None,,,,22030,0001,2023_Mar_14_1044,localizer,2021.1.3,59.99988019490322,
block_end,objects,objects036.bmp,,,,,0,182,182,182,,,,,,,,,,,,,,,,,,,,,,,,,,,,,,,,,,,,,,,,,,None,,731.7987757606431,None,731.7987757606431,None,2023-03-14-10:56:08.668675,731.8097792994231,732.115103200078,731.8097792994231,731.8097792994231,None,731.8097792994231,731.8097792994231,732.6217022595927,None,,,,22030,0001,2023_Mar_14_1044,localizer,2021.1.3,59.99988019490322,
block_start,scenes,scenes022.bmp,,,,,0,183,183,183,,,,,,,,,,,,,,,,,,,,,,,,,,,,,,,,,,,,,,,,,,t,1.7922800984233618,732.6172231994569,None,732.6172231994569,None,2023-03-14-10:56:11.300115,734.4461771994829,734.7484825998545,734.4461771994829,None,None,734.4461771994829,None,735.248925259523,None,,,,22030,0001,2023_Mar_14_1044,localizer,2021.1.3,59.99988019490322,
block,scenes,scenes016.bmp,,,,,0,184,184,184,,,,,,,,,,,,,,,,,,,,,,,,,,,,,,,,,,,,,,,,,,None,,735.248925259523,None,735.248925259523,None,2023-03-14-10:56:12.116910,735.2495179995894,735.5485890991986,735.2495179995894,None,None,735.2495179995894,None,736.0486164597794,None,,,,22030,0001,2023_Mar_14_1044,localizer,2021.1.3,59.99988019490322,
block,scenes,scenes037.bmp,,,,,0,185,185,185,,,,,,,,,,,,,,,,,,,,,,,,,,,,,,,,,,,,,,,,,,None,,736.0486164597794,None,736.0486164597794,None,2023-03-14-10:56:12.918334,736.0623400006443,736.3652356993407,736.0623400006443,736.0623400006443,None,736.0623400006443,736.0623400006443,736.8664261607453,None,,,,22030,0001,2023_Mar_14_1044,localizer,2021.1.3,59.99988019490322,
block,scenes,scenes052.bmp,,,,,0,186,186,186,,,,,,,,,,,,,,,,,,,,,,,,,,,,,,,,,,,,,,,,,,None,,736.8664261607453,None,736.8664261607453,None,2023-03-14-10:56:13.735136,736.881571399048,737.1817515995353,736.881571399048,None,None,736.881571399048,None,737.681732259877,None,,,,22030,0001,2023_Mar_14_1044,localizer,2021.1.3,59.99988019490322,
block,scenes,scenes007.bmp,,,,,0,187,187,187,,,,,,,,,,,,,,,,,,,,,,,,,,,,,,,,,,,,,,,,,,None,,737.681732259877,None,737.681732259877,None,2023-03-14-10:56:14.549474,737.6969642993063,737.9985345993191,737.6969642993063,None,None,737.6969642993063,None,738.4987212607637,None,,,,22030,0001,2023_Mar_14_1044,localizer,2021.1.3,59.99988019490322,
block,scenes,scenes050.bmp,,,,,0,188,188,188,,,,,,,,,,,,,,,,,,,,,,,,,,,,,,,,,,,,,,,,,,None,,738.4987212607637,None,738.4987212607637,None,2023-03-14-10:56:15.366474,738.4994587004185,738.7987283989787,738.4994587004185,None,None,738.4994587004185,None,739.2991403603926,None,,,,22030,0001,2023_Mar_14_1044,localizer,2021.1.3,59.99988019490322,
block,scenes,scenes042.bmp,,,,,0,189,189,189,,,,,,,,,,,,,,,,,,,,,,,,,,,,,,,,,,,,,,,,,,None,,739.2991403603926,None,739.2991403603926,None,2023-03-14-10:56:16.170063,739.3163814004511,739.6314451992512,739.3163814004511,739.3163814004511,None,739.3163814004511,739.3163814004511,740.1154780594632,None,,,,22030,0001,2023_Mar_14_1044,localizer,2021.1.3,59.99988019490322,
block,scenes,scenes042.bmp,,,,,0,190,190,190,,,,,,,,,,,,,,,,,,,,,,,,,,,,,,,,,,,,,,,,,,None,,740.1154780594632,None,740.1154780594632,None,2023-03-14-10:56:16.983225,740.1161340996623,740.4153026007116,740.1161340996623,None,None,740.1161340996623,None,740.9164681604132,None,,,,22030,0001,2023_Mar_14_1044,localizer,2021.1.3,59.99988019490322,
block,scenes,scenes089.bmp,,,,,0,191,191,191,,,,,,,,,,,,,,,,,,,,,,,,,,,,,,,,,,,,,,,,,,None,,740.9164681604132,None,740.9164681604132,None,2023-03-14-10:56:17.788628,740.9211007002741,741.2322011999786,740.9211007002741,740.9211007002741,y,740.9211007002741,740.9211007002741,741.7317788602784,None,0.17929229885339737,,,22030,0001,2023_Mar_14_1044,localizer,2021.1.3,59.99988019490322,
block,scenes,scenes071.bmp,,,,,0,192,192,192,,,,,,,,,,,,,,,,,,,,,,,,,,,,,,,,,,,,,,,,,,None,,741.7317788602784,None,741.7317788602784,None,2023-03-14-10:56:18.599547,741.738875599578,742.0485001001507,741.738875599578,None,None,741.738875599578,None,742.548774160631,None,,,,22030,0001,2023_Mar_14_1044,localizer,2021.1.3,59.99988019490322,
block,scenes,scenes076.bmp,,,,,0,193,193,193,,,,,,,,,,,,,,,,,,,,,,,,,,,,,,,,,,,,,,,,,,None,,742.548774160631,None,742.548774160631,None,2023-03-14-10:56:19.416571,742.5605283007026,742.8650684989989,742.5605283007026,None,None,742.5605283007026,None,743.3656109591946,None,,,,22030,0001,2023_Mar_14_1044,localizer,2021.1.3,59.99988019490322,
block,scenes,scenes058.bmp,,,,,0,194,194,194,,,,,,,,,,,,,,,,,,,,,,,,,,,,,,,,,,,,,,,,,,None,,743.3656109591946,None,743.3656109591946,None,2023-03-14-10:56:20.233379,743.3727122992277,743.6683857999742,743.3727122992277,None,None,743.3727122992277,None,744.1819973608478,None,,,,22030,0001,2023_Mar_14_1044,localizer,2021.1.3,59.99988019490322,
block,scenes,scenes036.bmp,,,,,0,195,195,195,,,,,,,,,,,,,,,,,,,,,,,,,,,,,,,,,,,,,,,,,,None,,744.1819973608478,None,744.1819973608478,None,2023-03-14-10:56:21.049772,744.1830000001937,744.4983070995659,744.1830000001937,None,None,744.1830000001937,None,744.9821602592244,None,,,,22030,0001,2023_Mar_14_1044,localizer,2021.1.3,59.99988019490322,
block,scenes,scenes029.bmp,,,,,0,196,196,196,,,,,,,,,,,,,,,,,,,,,,,,,,,,,,,,,,,,,,,,,,None,,744.9821602592244,None,744.9821602592244,None,2023-03-14-10:56:21.851934,744.9849354997277,745.298623200506,744.9849354997277,744.9849354997277,None,744.9849354997277,744.9849354997277,745.7985844595357,None,,,,22030,0001,2023_Mar_14_1044,localizer,2021.1.3,59.99988019490322,
block_end,scenes,scenes039.bmp,,,,,0,197,197,197,,,,,,,,,,,,,,,,,,,,,,,,,,,,,,,,,,,,,,,,,,None,,745.7985844595357,None,745.7985844595357,None,2023-03-14-10:56:22.666372,745.8100310005248,746.1150126997381,745.8100310005248,None,None,745.8100310005248,None,746.6154631601646,None,,,,22030,0001,2023_Mar_14_1044,localizer,2021.1.3,59.99988019490322,
block_start,scrambled,scrambled086.bmp,,,,,0,198,198,198,,,,,,,,,,,,,,,,,,,,,,,,,,,,,,,,,,,,,,,,,,t,1.7941011991351843,746.6154027990997,None,746.6154027990997,None,2023-03-14-10:56:25.298988,748.4440148994327,748.7490566000342,748.4440148994327,None,None,748.4440148994327,None,749.2488789597526,None,,,,22030,0001,2023_Mar_14_1044,localizer,2021.1.3,59.99988019490322,
block,scrambled,scrambled022.bmp,,,,,0,199,199,199,,,,,,,,,,,,,,,,,,,,,,,,,,,,,,,,,,,,,,,,,,None,,749.2488789597526,None,749.2488789597526,None,2023-03-14-10:56:26.116796,749.2613379005343,749.5649542994797,749.2613379005343,None,None,749.2613379005343,None,750.0653727596625,None,,,,22030,0001,2023_Mar_14_1044,localizer,2021.1.3,59.99988019490322,
block,scrambled,scrambled004.bmp,,,,,0,200,200,200,,,,,,,,,,,,,,,,,,,,,,,,,,,,,,,,,,,,,,,,,,None,,750.0653727596625,None,750.0653727596625,None,2023-03-14-10:56:26.933173,750.0764450989664,750.381820300594,750.0764450989664,None,None,750.0764450989664,None,750.8826641591265,None,,,,22030,0001,2023_Mar_14_1044,localizer,2021.1.3,59.99988019490322,
block,scrambled,scrambled033.bmp,,,,,0,201,201,201,,,,,,,,,,,,,,,,,,,,,,,,,,,,,,,,,,,,,,,,,,None,,750.8826641591265,None,750.8826641591265,None,2023-03-14-10:56:27.751656,750.8922307007015,751.1988868005574,750.8922307007015,None,None,750.8922307007015,None,751.6986553596332,None,,,,22030,0001,2023_Mar_14_1044,localizer,2021.1.3,59.99988019490322,
block,scrambled,scrambled010.bmp,,,,,0,202,202,202,,,,,,,,,,,,,,,,,,,,,,,,,,,,,,,,,,,,,,,,,,None,,751.6986553596332,None,751.6986553596332,None,2023-03-14-10:56:28.566464,751.7045360002667,752.015666199848,751.7045360002667,None,None,751.7045360002667,None,752.5160244593396,None,,,,22030,0001,2023_Mar_14_1044,localizer,2021.1.3,59.99988019490322,
block,scrambled,scrambled044.bmp,,,,,0,203,203,203,,,,,,,,,,,,,,,,,,,,,,,,,,,,,,,,,,,,,,,,,,None,,752.5160244593396,None,752.5160244593396,None,2023-03-14-10:56:29.385026,752.5293717999011,752.831806499511,752.5293717999011,None,None,752.5293717999011,None,753.3320740593597,None,,,,22030,0001,2023_Mar_14_1044,localizer,2021.1.3,59.99988019490322,
block,scrambled,scrambled074.bmp,,,,,0,204,204,204,,,,,,,,,,,,,,,,,,,,,,,,,,,,,,,,,,,,,,,,,,None,,753.3320740593597,None,753.3320740593597,None,2023-03-14-10:56:30.199885,753.3328360002488,753.6315320003778,753.3328360002488,None,None,753.3328360002488,None,754.1324207598343,None,,,,22030,0001,2023_Mar_14_1044,localizer,2021.1.3,59.99988019490322,
block,scrambled,scrambled035.bmp,,,,,0,205,205,205,,,,,,,,,,,,,,,,,,,,,,,,,,,,,,,,,,,,,,,,,,None,,754.1324207598343,None,754.1324207598343,None,2023-03-14-10:56:31.003436,754.1479278001934,754.4484777990729,754.1479278001934,754.1479278001934,None,754.1479278001934,754.1479278001934,754.9487724604085,None,,,,22030,0001,2023_Mar_14_1044,localizer,2021.1.3,59.99988019490322,
block,scrambled,scrambled084.bmp,,,,,0,206,206,206,,,,,,,,,,,,,,,,,,,,,,,,,,,,,,,,,,,,,,,,,,None,,754.9487724604085,None,754.9487724604085,None,2023-03-14-10:56:31.817046,754.9562825001776,755.2650035005063,754.9562825001776,None,None,754.9562825001776,None,755.765327960439,None,,,,22030,0001,2023_Mar_14_1044,localizer,2021.1.3,59.99988019490322,
block,scrambled,scrambled066.bmp,,,,,0,207,207,207,,,,,,,,,,,,,,,,,,,,,,,,,,,,,,,,,,,,,,,,,,None,,755.765327960439,None,755.765327960439,None,2023-03-14-10:56:32.633151,755.7768018003553,756.0820189006627,755.7768018003553,None,None,755.7768018003553,None,756.5821882599964,None,,,,22030,0001,2023_Mar_14_1044,localizer,2021.1.3,59.99988019490322,
block,scrambled,scrambled040.bmp,,,,,0,208,208,208,,,,,,,,,,,,,,,,,,,,,,,,,,,,,,,,,,,,,,,,,,None,,756.5821882599964,None,756.5821882599964,None,2023-03-14-10:56:33.450010,756.5923292990774,756.8986165001988,756.5923292990774,None,None,756.5923292990774,None,757.3988624608144,None,,,,22030,0001,2023_Mar_14_1044,localizer,2021.1.3,59.99988019490322,
block,scrambled,scrambled031.bmp,,,,,0,209,209,209,,,,,,,,,,,,,,,,,,,,,,,,,,,,,,,,,,,,,,,,,,None,,757.3988624608144,None,757.3988624608144,None,2023-03-14-10:56:34.266692,757.4107850007713,757.7148885000497,757.4107850007713,None,None,757.4107850007713,None,758.2156393604353,None,,,,22030,0001,2023_Mar_14_1044,localizer,2021.1.3,59.99988019490322,
block,scrambled,scrambled032.bmp,,,,,0,210,210,210,,,,,,,,,,,,,,,,,,,,,,,,,,,,,,,,,,,,,,,,,,None,,758.2156393604353,None,758.2156393604353,None,2023-03-14-10:56:35.083465,758.2276227995753,758.531917899847,758.2276227995753,None,None,758.2276227995753,None,759.0324453601613,None,,,,22030,0001,2023_Mar_14_1044,localizer,2021.1.3,59.99988019490322,
block,scrambled,scrambled075.bmp,,,,,0,211,211,211,,,,,,,,,,,,,,,,,,,,,,,,,,,,,,,,,,,,,,,,,,None,,759.0324453601613,None,759.0324453601613,None,2023-03-14-10:56:35.901425,759.0329110007733,759.3320502005517,759.0329110007733,None,None,759.0329110007733,None,759.8323641607537,None,,,,22030,0001,2023_Mar_14_1044,localizer,2021.1.3,59.99988019490322,
block_end,scrambled,scrambled045.bmp,,,,,0,212,212,212,,,,,,,,,,,,,,,,,,,,,,,,,,,,,,,,,,,,,,,,,,None,,759.8323641607537,None,759.8323641607537,None,2023-03-14-10:56:36.703389,759.8351531997323,760.1485287994146,759.8351531997323,759.8351531997323,None,759.8351531997323,759.8351531997323,760.652672659792,None,,,,22030,0001,2023_Mar_14_1044,localizer,2021.1.3,59.99988019490322,
null_block,null_block,null_block.bmp,,,,,0,213,213,213,,,,,,,,,,,,,,,,,,,,,,,,,,,,,,,,,,,,,,,,,,t,1.7552979998290539,760.6543032005429,None,760.6543032005429,None,2023-03-14-10:56:39.303326,762.4333518596366,None,762.4333518596366,None,None,762.4333518596366,None,762.440866900608,None,,,,22030,0001,2023_Mar_14_1044,localizer,2021.1.3,59.99988019490322,
block_start,faces,faces046.bmp,,,,,0,214,214,214,,,,,,,,,,,,,,,,,,,,,,,,,,,,,,,,,,,,,,,,,,t,1.9605343006551266,774.4489315990359,None,774.4489315990359,None,2023-03-14-10:56:53.300776,776.4334941990674,776.7487733997405,776.4334941990674,None,None,776.4334941990674,None,777.249060360901,None,,,,22030,0001,2023_Mar_14_1044,localizer,2021.1.3,59.99988019490322,
block,faces,faces050.bmp,,,,,0,215,215,215,,,,,,,,,,,,,,,,,,,,,,,,,,,,,,,,,,,,,,,,,,None,,777.249060360901,None,777.249060360901,None,2023-03-14-10:56:54.117127,777.2565476000309,777.565411100164,777.2565476000309,None,None,777.2565476000309,None,778.0658049603924,None,,,,22030,0001,2023_Mar_14_1044,localizer,2021.1.3,59.99988019490322,
block,faces,faces024.bmp,,,,,0,216,216,216,,,,,,,,,,,,,,,,,,,,,,,,,,,,,,,,,,,,,,,,,,None,,778.0658049603924,None,778.0658049603924,None,2023-03-14-10:56:54.933911,778.0745125990361,778.3819075003266,778.0745125990361,None,None,778.0745125990361,None,778.8825912607833,None,,,,22030,0001,2023_Mar_14_1044,localizer,2021.1.3,59.99988019490322,
block,faces,faces009.bmp,,,,,0,217,217,217,,,,,,,,,,,,,,,,,,,,,,,,,,,,,,,,,,,,,,,,,,None,,778.8825912607833,None,778.8825912607833,None,2023-03-14-10:56:55.750482,778.8908747006208,779.198681499809,778.8908747006208,None,None,778.8908747006208,None,779.6987071597948,None,,,,22030,0001,2023_Mar_14_1044,localizer,2021.1.3,59.99988019490322,
block,faces,faces006.bmp,,,,,0,218,218,218,,,,,,,,,,,,,,,,,,,,,,,,,,,,,,,,,,,,,,,,,,None,,779.6987071597948,None,779.6987071597948,None,2023-03-14-10:56:56.566882,779.6996317002922,779.998646799475,779.6996317002922,None,None,779.6996317002922,None,780.4992383608594,None,,,,22030,0001,2023_Mar_14_1044,localizer,2021.1.3,59.99988019490322,
block,faces,faces027.bmp,,,,,0,219,219,219,,,,,,,,,,,,,,,,,,,,,,,,,,,,,,,,,,,,,,,,,,None,,780.4992383608594,None,780.4992383608594,None,2023-03-14-10:56:57.369334,780.5013468991965,780.8154329005629,780.5013468991965,780.5013468991965,None,780.5013468991965,780.5013468991965,781.3155019601807,None,,,,22030,0001,2023_Mar_14_1044,localizer,2021.1.3,59.99988019490322,
block,faces,faces068.bmp,,,,,0,220,220,220,,,,,,,,,,,,,,,,,,,,,,,,,,,,,,,,,,,,,,,,,,None,,781.3155019601807,None,781.3155019601807,None,2023-03-14-10:56:58.183402,781.3236206993461,781.6357716005296,781.3236206993461,None,None,781.3236206993461,None,782.1329222602769,None,,,,22030,0001,2023_Mar_14_1044,localizer,2021.1.3,59.99988019490322,
block,faces,faces023.bmp,,,,,0,221,221,221,,,,,,,,,,,,,,,,,,,,,,,,,,,,,,,,,,,,,,,,,,None,,782.1329222602769,None,782.1329222602769,None,2023-03-14-10:56:59.001915,782.1350197996944,782.4493243992329,782.1350197996944,None,None,782.1350197996944,None,782.9488837609067,None,,,,22030,0001,2023_Mar_14_1044,localizer,2021.1.3,59.99988019490322,
block,faces,faces035.bmp,,,,,0,222,222,222,,,,,,,,,,,,,,,,,,,,,,,,,,,,,,,,,,,,,,,,,,None,,782.9488837609067,None,782.9488837609067,None,2023-03-14-10:56:59.817003,782.9569975994527,783.2652915995568,782.9569975994527,None,None,782.9569975994527,None,783.7653596607968,None,,,,22030,0001,2023_Mar_14_1044,localizer,2021.1.3,59.99988019490322,
block,faces,faces079.bmp,,,,,0,223,223,223,,,,,,,,,,,,,,,,,,,,,,,,,,,,,,,,,,,,,,,,,,None,,783.7653596607968,None,783.7653596607968,None,2023-03-14-10:57:00.633275,783.7664061989635,784.0655316989869,783.7664061989635,None,None,783.7664061989635,None,784.5654416607692,None,,,,22030,0001,2023_Mar_14_1044,localizer,2021.1.3,59.99988019490322,
block,faces,faces056.bmp,,,,,0,224,224,224,,,,,,,,,,,,,,,,,,,,,,,,,,,,,,,,,,,,,,,,,,None,,784.5654416607692,None,784.5654416607692,None,2023-03-14-10:57:01.434605,784.5731476005167,784.8838394004852,784.5731476005167,784.5731476005167,None,784.5731476005167,784.5731476005167,785.3834072595462,None,,,,22030,0001,2023_Mar_14_1044,localizer,2021.1.3,59.99988019490322,
block,faces,faces058.bmp,,,,,0,225,225,225,,,,,,,,,,,,,,,,,,,,,,,,,,,,,,,,,,,,,,,,,,None,,785.3834072595462,None,785.3834072595462,None,2023-03-14-10:57:02.253494,785.4016775991768,785.6994477007538,785.4016775991768,None,None,785.4016775991768,None,786.1990254597738,None,,,,22030,0001,2023_Mar_14_1044,localizer,2021.1.3,59.99988019490322,
block,faces,faces031.bmp,,,,,0,226,226,226,,,,,,,,,,,,,,,,,,,,,,,,,,,,,,,,,,,,,,,,,,None,,786.1990254597738,None,786.1990254597738,None,2023-03-14-10:57:03.066942,786.2060745991766,786.5154529996216,786.2060745991766,None,None,786.2060745991766,None,787.0162739606574,None,,,,22030,0001,2023_Mar_14_1044,localizer,2021.1.3,59.99988019490322,
block,faces,faces033.bmp,,,,,0,227,227,227,,,,,,,,,,,,,,,,,,,,,,,,,,,,,,,,,,,,,,,,,,None,,787.0162739606574,None,787.0162739606574,None,2023-03-14-10:57:03.885374,787.0185815002769,787.3319252002984,787.0185815002769,None,None,787.0185815002769,None,787.8326538598164,None,,,,22030,0001,2023_Mar_14_1044,localizer,2021.1.3,59.99988019490322,
block_end,faces,faces003.bmp,,,,,0,228,228,228,,,,,,,,,,,,,,,,,,,,,,,,,,,,,,,,,,,,,,,,,,None,,787.8326538598164,None,787.8326538598164,None,2023-03-14-10:57:04.700776,787.8332084994763,788.1318868994713,787.8332084994763,None,None,787.8332084994763,None,788.6326244605705,None,,,,22030,0001,2023_Mar_14_1044,localizer,2021.1.3,59.99988019490322,
block_start,objects,objects015.bmp,,,,,0,229,229,229,,,,,,,,,,,,,,,,,,,,,,,,,,,,,,,,,,,,,,,,,,t,1.77063550055027,788.6388764996082,None,788.6388764996082,None,2023-03-14-10:57:07.300224,790.4393926989287,790.7485683001578,790.4393926989287,None,None,790.4393926989287,None,791.2492327598854,None,,,,22030,0001,2023_Mar_14_1044,localizer,2021.1.3,59.99988019490322,
block,objects,objects049.bmp,,,,,0,230,230,230,,,,,,,,,,,,,,,,,,,,,,,,,,,,,,,,,,,,,,,,,,None,,791.2492327598854,None,791.2492327598854,None,2023-03-14-10:57:08.117273,791.2618649993092,791.5660918001086,791.2618649993092,None,None,791.2618649993092,None,792.0662452599033,None,,,,22030,0001,2023_Mar_14_1044,localizer,2021.1.3,59.99988019490322,
block,objects,objects007.bmp,,,,,0,231,231,231,,,,,,,,,,,,,,,,,,,,,,,,,,,,,,,,,,,,,,,,,,None,,792.0662452599033,None,792.0662452599033,None,2023-03-14-10:57:08.935169,792.0794114004821,792.381950199604,792.0794114004821,None,None,792.0794114004821,None,792.8825709598138,None,,,,22030,0001,2023_Mar_14_1044,localizer,2021.1.3,59.99988019490322,
block,objects,objects084.bmp,,,,,0,232,232,232,,,,,,,,,,,,,,,,,,,,,,,,,,,,,,,,,,,,,,,,,,None,,792.8825709598138,None,792.8825709598138,None,2023-03-14-10:57:09.751723,792.8903378993273,793.1987702995539,792.8903378993273,None,None,792.8903378993273,None,793.688468359597,None,,,,22030,0001,2023_Mar_14_1044,localizer,2021.1.3,59.99988019490322,
block,objects,objects044.bmp,,,,,0,233,233,233,,,,,,,,,,,,,,,,,,,,,,,,,,,,,,,,,,,,,,,,,,None,,793.688468359597,None,793.688468359597,None,2023-03-14-10:57:10.560400,793.7078684996814,794.0160511992872,793.7078684996814,None,None,793.7078684996814,None,794.4989737590774,None,,,,22030,0001,2023_Mar_14_1044,localizer,2021.1.3,59.99988019490322,
block,objects,objects008.bmp,,,,,0,234,234,234,,,,,,,,,,,,,,,,,,,,,,,,,,,,,,,,,,,,,,,,,,None,,794.4989737590774,None,794.4989737590774,None,2023-03-14-10:57:11.366918,794.4997067991644,794.799931500107,794.4997067991644,None,None,794.4997067991644,None,795.2991266606375,None,,,,22030,0001,2023_Mar_14_1044,localizer,2021.1.3,59.99988019490322,
block,objects,objects087.bmp,,,,,0,235,235,235,,,,,,,,,,,,,,,,,,,,,,,,,,,,,,,,,,,,,,,,,,None,,795.2991266606375,None,795.2991266606375,None,2023-03-14-10:57:12.169064,795.3017602004111,795.5992598999292,795.3017602004111,795.3017602004111,None,795.3017602004111,795.3017602004111,796.1159387605264,None,,,,22030,0001,2023_Mar_14_1044,localizer,2021.1.3,59.99988019490322,
block,objects,objects012.bmp,,,,,0,236,236,236,,,,,,,,,,,,,,,,,,,,,,,,,,,,,,,,,,,,,,,,,,None,,796.1159387605264,None,796.1159387605264,None,2023-03-14-10:57:12.984901,796.116562500596,796.4322324991226,796.116562500596,None,None,796.116562500596,None,796.9159999603405,None,,,,22030,0001,2023_Mar_14_1044,localizer,2021.1.3,59.99988019490322,
block,objects,objects047.bmp,,,,,0,237,237,237,,,,,,,,,,,,,,,,,,,,,,,,,,,,,,,,,,,,,,,,,,None,,796.9159999603405,None,796.9159999603405,None,2023-03-14-10:57:13.786055,796.9186035003513,797.2321304995567,796.9186035003513,796.9186035003513,None,796.9186035003513,796.9186035003513,797.7325924599543,None,,,,22030,0001,2023_Mar_14_1044,localizer,2021.1.3,59.99988019490322,
block,objects,objects078.bmp,,,,,0,238,238,238,,,,,,,,,,,,,,,,,,,,,,,,,,,,,,,,,,,,,,,,,,None,,797.7325924599543,None,797.7325924599543,None,2023-03-14-10:57:14.600541,797.7443614006042,798.0489473007619,797.7443614006042,None,None,797.7443614006042,None,798.5490784591063,None,,,,22030,0001,2023_Mar_14_1044,localizer,2021.1.3,59.99988019490322,
block,objects,objects057.bmp,,,,,0,239,239,239,,,,,,,,,,,,,,,,,,,,,,,,,,,,,,,,,,,,,,,,,,None,,798.5490784591063,None,798.5490784591063,None,2023-03-14-10:57:15.417272,798.5569845996797,798.8656802996993,798.5569845996797,None,None,798.5569845996797,None,799.3662814592942,None,,,,22030,0001,2023_Mar_14_1044,localizer,2021.1.3,59.99988019490322,
block,objects,objects074.bmp,,,,,0,240,240,240,,,,,,,,,,,,,,,,,,,,,,,,,,,,,,,,,,,,,,,,,,None,,799.3662814592942,None,799.3662814592942,None,2023-03-14-10:57:16.235410,799.3794874995947,799.6819214001298,799.3794874995947,None,None,799.3794874995947,None,800.1835919601842,None,,,,22030,0001,2023_Mar_14_1044,localizer,2021.1.3,59.99988019490322,
block,objects,objects073.bmp,,,,,0,241,241,241,,,,,,,,,,,,,,,,,,,,,,,,,,,,,,,,,,,,,,,,,,None,,800.1835919601842,None,800.1835919601842,None,2023-03-14-10:57:17.053527,800.1985251996666,800.5000001005828,800.1985251996666,None,None,800.1985251996666,None,801.0002013595774,None,,,,22030,0001,2023_Mar_14_1044,localizer,2021.1.3,59.99988019490322,
block,objects,objects005.bmp,,,,,0,242,242,242,,,,,,,,,,,,,,,,,,,,,,,,,,,,,,,,,,,,,,,,,,None,,801.0002013595774,None,801.0002013595774,None,2023-03-14-10:57:17.870291,801.0217592995614,801.3333721999079,801.0217592995614,None,None,801.0217592995614,None,801.8162912597879,None,,,,22030,0001,2023_Mar_14_1044,localizer,2021.1.3,59.99988019490322,
block_end,objects,objects067.bmp,,,,,0,243,243,243,,,,,,,,,,,,,,,,,,,,,,,,,,,,,,,,,,,,,,,,,,None,,801.8162912597879,None,801.8162912597879,None,2023-03-14-10:57:18.686001,801.8189793005586,802.1327215004712,801.8189793005586,None,None,801.8189793005586,None,802.632963659428,None,,,,22030,0001,2023_Mar_14_1044,localizer,2021.1.3,59.99988019490322,
,,,,,,,,,,,,,,,,,,,,,,,,,,,,,,,,,,,,,,,,,,,,,,,,,,,,,,,,,,,,,,,,,,,,,802.6321137994528,None,,,,,,,
