block_type,condition,img_name,Button.thisRepN,Button.thisTrialN,Button.thisN,Button.thisIndex,trials.thisRepN,trials.thisTrialN,trials.thisN,trials.thisIndex,Ready_experimenter_text.started,Ready_experimenter_text.stopped,Ready_experimenter_resp.keys,Ready_experimenter_resp.rt,Ready_experimenter_resp.started,Ready_experimenter_resp.stopped,Alignment_background.started,Alignment_background.stopped,Alignment_image.started,Alignment_image.stopped,Alignment_resp.keys,Alignment_resp.rt,Alignment_resp.started,Alignment_resp.stopped,Button_text.started,Button_text.stopped,Index_text.started,Index_text.stopped,Index_resp.keys,Index_resp.rt,Index_resp.started,Index_resp.stopped,Middle_text.started,Middle_text.stopped,Middle_resp.keys,Middle_resp.rt,Middle_resp.started,Middle_resp.stopped,Repeat_text.started,Repeat_text.stopped,Repeat_resp.keys,Repeat_resp.corr,Repeat_resp.rt,Repeat_resp.started,Repeat_resp.stopped,instruction_text.started,instruction_text.stopped,key_resp.keys,key_resp.rt,key_resp.started,key_resp.stopped,scanner_t.keys,scanner_t.rt,scanner_t.started,scanner_t.stopped,fixation_wait_for_t.started,fixation_wait_for_t.stopped,real_timestamp_trial_start,image.started,image.stopped,fixation.started,fixation.stopped,repeat_response.keys,repeat_response.started,repeat_response.stopped,fixation_null.started,fixation_null.stopped,repeat_response.rt,end_text.started,end_text.stopped,participant,run,date,expName,psychopyVersion,frameRate,
,,,,,,,,,,,17.23756489995867,None,return,469.62738510000054,17.23756489995867,None,,,,,,,,,,,,,,,,,,,,,,,,,,,,,,,,,,,,,,,,,,,,,,,,,,,,,,,11010,0002,2022_Mar_02_1425,localizer,2021.1.3,60.00041999216812,
,,,,,,,,,,,,,,,,,486.91275059990585,None,486.91275059990585,None,return,1.2649908000603318,486.91275059990585,None,,,,,,,,,,,,,,,,,,,,,,,,,,,,,,,,,,,,,,,,,,,,,,,11010,0002,2022_Mar_02_1425,localizer,2021.1.3,60.00041999216812,
,,,0,0,0,0,,,,,,,,,,,,,,,,,,,488.20090940000955,None,489.2020149999298,None,y,0.9959709000540897,489.2020149999298,None,490.2179238999961,None,b,1.2692377000348642,490.2179238999961,None,491.5181472999975,None,n,0,21.88418469997123,491.5181472999975,None,,,,,,,,,,,,,,,,,,,,,,,,,,11010,0002,2022_Mar_02_1425,localizer,2021.1.3,60.00041999216812,
,,,,,,,,,,,,,,,,,,,,,,,,,,,,,,,,,,,,,,,,,,,,,,513.4187839999795,None,y,6.841488500009291,513.4187839999795,None,,,,,,,,,,,,,,,,,,,,11010,0002,2022_Mar_02_1425,localizer,2021.1.3,60.00041999216812,
block_start,scenes,scenes040.bmp,,,,,0,0,0,0,,,,,,,,,,,,,,,,,,,,,,,,,,,,,,,,,,,,,,,,,,t,16.152660300023854,520.3354337000055,None,520.3354337000055,None,2022-03-02-14:34:03.467119,536.5200608999003,536.8255040999502,536.5200608999003,None,None,536.5200608999003,None,537.3191866599606,None,,,,11010,0002,2022_Mar_02_1425,localizer,2021.1.3,60.00041999216812,
block,scenes,scenes061.bmp,,,,,0,1,1,1,,,,,,,,,,,,,,,,,,,,,,,,,,,,,,,,,,,,,,,,,,None,,537.3191866599606,None,537.3191866599606,None,2022-03-02-14:34:04.274225,537.3271462999983,537.6347489999607,537.3271462999983,537.3271462999983,None,537.3271462999983,537.3271462999983,538.1346078599687,None,,,,11010,0002,2022_Mar_02_1425,localizer,2021.1.3,60.00041999216812,
block,scenes,scenes019.bmp,,,,,0,2,2,2,,,,,,,,,,,,,,,,,,,,,,,,,,,,,,,,,,,,,,,,,,None,,538.1346078599687,None,538.1346078599687,None,2022-03-02-14:34:05.083682,538.1355853999266,538.4347297999775,538.1355853999266,None,None,538.1355853999266,None,538.9509060599026,None,,,,11010,0002,2022_Mar_02_1425,localizer,2021.1.3,60.00041999216812,
block,scenes,scenes076.bmp,,,,,0,3,3,3,,,,,,,,,,,,,,,,,,,,,,,,,,,,,,,,,,,,,,,,,,None,,538.9509060599026,None,538.9509060599026,None,2022-03-02-14:34:05.899981,538.960897199926,539.2684298999375,538.960897199926,None,None,538.960897199926,None,539.7678720599157,None,,,,11010,0002,2022_Mar_02_1425,localizer,2021.1.3,60.00041999216812,
block,scenes,scenes027.bmp,,,,,0,4,4,4,,,,,,,,,,,,,,,,,,,,,,,,,,,,,,,,,,,,,,,,,,None,,539.7678720599157,None,539.7678720599157,None,2022-03-02-14:34:06.716947,539.7690325999865,540.0686991999391,539.7690325999865,None,None,539.7690325999865,None,540.5681246599066,None,,,,11010,0002,2022_Mar_02_1425,localizer,2021.1.3,60.00041999216812,
block,scenes,scenes041.bmp,,,,,0,5,5,5,,,,,,,,,,,,,,,,,,,,,,,,,,,,,,,,,,,,,,,,,,None,,540.5681246599066,None,540.5681246599066,None,2022-03-02-14:34:07.519189,540.5754790999927,540.8850155000109,540.5754790999927,540.5754790999927,None,540.5754790999927,540.5754790999927,541.3843903599424,None,,,,11010,0002,2022_Mar_02_1425,localizer,2021.1.3,60.00041999216812,
block,scenes,scenes003.bmp,,,,,0,6,6,6,,,,,,,,,,,,,,,,,,,,,,,,,,,,,,,,,,,,,,,,,,None,,541.3843903599424,None,541.3843903599424,None,2022-03-02-14:34:08.333744,541.385932300007,541.7014777999138,541.385932300007,None,None,541.385932300007,None,542.2012979599764,None,,,,11010,0002,2022_Mar_02_1425,localizer,2021.1.3,60.00041999216812,
block,scenes,scenes025.bmp,,,,,0,7,7,7,,,,,,,,,,,,,,,,,,,,,,,,,,,,,,,,,,,,,,,,,,None,,542.2012979599764,None,542.2012979599764,None,2022-03-02-14:34:09.150584,542.2163976000156,542.5183059999254,542.2163976000156,None,None,542.2163976000156,None,543.0200618599425,None,,,,11010,0002,2022_Mar_02_1425,localizer,2021.1.3,60.00041999216812,
block,scenes,scenes067.bmp,,,,,0,8,8,8,,,,,,,,,,,,,,,,,,,,,,,,,,,,,,,,,,,,,,,,,,None,,543.0200618599425,None,543.0200618599425,None,2022-03-02-14:34:09.973277,543.025669900002,543.3345074999379,543.025669900002,None,None,543.025669900002,None,543.8344225599081,None,,,,11010,0002,2022_Mar_02_1425,localizer,2021.1.3,60.00041999216812,
block,scenes,scenes052.bmp,,,,,0,9,9,9,,,,,,,,,,,,,,,,,,,,,,,,,,,,,,,,,,,,,,,,,,None,,543.8344225599081,None,543.8344225599081,None,2022-03-02-14:34:10.783504,543.8445665999316,544.1515930999303,543.8445665999316,None,None,543.8445665999316,None,544.6513681599987,None,,,,11010,0002,2022_Mar_02_1425,localizer,2021.1.3,60.00041999216812,
block,scenes,scenes068.bmp,,,,,0,10,10,10,,,,,,,,,,,,,,,,,,,,,,,,,,,,,,,,,,,,,,,,,,None,,544.6513681599987,None,544.6513681599987,None,2022-03-02-14:34:11.600449,544.6524428999983,544.9521615999984,544.6524428999983,None,None,544.6524428999983,None,545.4525105598965,None,,,,11010,0002,2022_Mar_02_1425,localizer,2021.1.3,60.00041999216812,
block,scenes,scenes066.bmp,,,,,0,11,11,11,,,,,,,,,,,,,,,,,,,,,,,,,,,,,,,,,,,,,,,,,,None,,545.4525105598965,None,545.4525105598965,None,2022-03-02-14:34:12.405173,545.4671876999782,545.7680628999369,545.4671876999782,545.4671876999782,None,545.4671876999782,545.4671876999782,546.2681661599432,None,,,,11010,0002,2022_Mar_02_1425,localizer,2021.1.3,60.00041999216812,
block,scenes,scenes055.bmp,,,,,0,12,12,12,,,,,,,,,,,,,,,,,,,,,,,,,,,,,,,,,,,,,,,,,,None,,546.2681661599432,None,546.2681661599432,None,2022-03-02-14:34:13.217614,546.2747936999658,546.5855081999907,546.2747936999658,None,None,546.2747936999658,None,547.0853201599908,None,,,,11010,0002,2022_Mar_02_1425,localizer,2021.1.3,60.00041999216812,
block,scenes,scenes035.bmp,,,,,0,13,13,13,,,,,,,,,,,,,,,,,,,,,,,,,,,,,,,,,,,,,,,,,,None,,547.0853201599908,None,547.0853201599908,None,2022-03-02-14:34:14.035390,547.0972533999011,547.4017462999327,547.0972533999011,None,None,547.0972533999011,None,547.9014704599628,None,,,,11010,0002,2022_Mar_02_1425,localizer,2021.1.3,60.00041999216812,
block_end,scenes,scenes089.bmp,,,,,0,14,14,14,,,,,,,,,,,,,,,,,,,,,,,,,,,,,,,,,,,,,,,,,,None,,547.9014704599628,None,547.9014704599628,None,2022-03-02-14:34:14.850551,547.9118033999112,548.2181187999668,547.9118033999112,None,None,547.9118033999112,None,548.7180701599806,None,,,,11010,0002,2022_Mar_02_1425,localizer,2021.1.3,60.00041999216812,
block_start,scrambled,scrambled041.bmp,,,,,0,15,15,15,,,,,,,,,,,,,,,,,,,,,,,,,,,,,,,,,,,,,,,,,,t,1.76972730003763,548.7183155999519,None,548.7183155999519,None,2022-03-02-14:34:17.465827,550.5264120999491,550.8349473999115,550.5264120999491,None,None,550.5264120999491,None,551.3348200599081,None,,,,11010,0002,2022_Mar_02_1425,localizer,2021.1.3,60.00041999216812,
block,scrambled,scrambled073.bmp,,,,,0,16,16,16,,,,,,,,,,,,,,,,,,,,,,,,,,,,,,,,,,,,,,,,,,None,,551.3348200599081,None,551.3348200599081,None,2022-03-02-14:34:18.283910,551.3446085999021,551.6519055999815,551.3446085999021,None,None,551.3446085999021,None,552.151663459919,None,,,,11010,0002,2022_Mar_02_1425,localizer,2021.1.3,60.00041999216812,
block,scrambled,scrambled055.bmp,,,,,0,17,17,17,,,,,,,,,,,,,,,,,,,,,,,,,,,,,,,,,,,,,,,,,,None,,552.151663459919,None,552.151663459919,None,2022-03-02-14:34:19.100996,552.1629161000019,552.4683593999362,552.1629161000019,None,None,552.1629161000019,None,552.9678882599925,None,,,,11010,0002,2022_Mar_02_1425,localizer,2021.1.3,60.00041999216812,
block,scrambled,scrambled011.bmp,,,,,0,18,18,18,,,,,,,,,,,,,,,,,,,,,,,,,,,,,,,,,,,,,,,,,,None,,552.9678882599925,None,552.9678882599925,None,2022-03-02-14:34:19.917254,552.9692312999396,553.284038499929,552.9692312999396,None,None,552.9692312999396,None,553.7844512599637,None,,,,11010,0002,2022_Mar_02_1425,localizer,2021.1.3,60.00041999216812,
block,scrambled,scrambled059.bmp,,,,,0,19,19,19,,,,,,,,,,,,,,,,,,,,,,,,,,,,,,,,,,,,,,,,,,None,,553.7844512599637,None,553.7844512599637,None,2022-03-02-14:34:20.733737,553.7857730999822,554.0855853999965,553.7857730999822,None,None,553.7857730999822,None,554.6012210599962,None,,,,11010,0002,2022_Mar_02_1425,localizer,2021.1.3,60.00041999216812,
block,scrambled,scrambled007.bmp,,,,,0,20,20,20,,,,,,,,,,,,,,,,,,,,,,,,,,,,,,,,,,,,,,,,,,None,,554.6012210599962,None,554.6012210599962,None,2022-03-02-14:34:21.550529,554.6078876999673,554.9179372999351,554.6078876999673,None,None,554.6078876999673,None,555.4241459599813,None,,,,11010,0002,2022_Mar_02_1425,localizer,2021.1.3,60.00041999216812,
block,scrambled,scrambled008.bmp,,,,,0,21,21,21,,,,,,,,,,,,,,,,,,,,,,,,,,,,,,,,,,,,,,,,,,None,,555.4241459599813,None,555.4241459599813,None,2022-03-02-14:34:22.381179,555.4414769000141,555.7515804999275,555.4414769000141,None,None,555.4414769000141,None,556.2345011599479,None,,,,11010,0002,2022_Mar_02_1425,localizer,2021.1.3,60.00041999216812,
block,scrambled,scrambled024.bmp,,,,,0,22,22,22,,,,,,,,,,,,,,,,,,,,,,,,,,,,,,,,,,,,,,,,,,None,,556.2345011599479,None,556.2345011599479,None,2022-03-02-14:34:23.183601,556.2360361999599,556.5517696999013,556.2360361999599,None,None,556.2360361999599,None,557.051511459949,None,,,,11010,0002,2022_Mar_02_1425,localizer,2021.1.3,60.00041999216812,
block,scrambled,scrambled004.bmp,,,,,0,23,23,23,,,,,,,,,,,,,,,,,,,,,,,,,,,,,,,,,,,,,,,,,,None,,557.051511459949,None,557.051511459949,None,2022-03-02-14:34:24.000607,557.052585599944,557.3681857999181,557.052585599944,None,None,557.052585599944,None,557.8747944599833,None,,,,11010,0002,2022_Mar_02_1425,localizer,2021.1.3,60.00041999216812,
block,scrambled,scrambled087.bmp,,,,,0,24,24,24,,,,,,,,,,,,,,,,,,,,,,,,,,,,,,,,,,,,,,,,,,None,,557.8747944599833,None,557.8747944599833,None,2022-03-02-14:34:24.831780,557.885711699957,558.1852568999166,557.885711699957,None,None,557.885711699957,None,558.6853999599931,None,,,,11010,0002,2022_Mar_02_1425,localizer,2021.1.3,60.00041999216812,
block,scrambled,scrambled012.bmp,,,,,0,25,25,25,,,,,,,,,,,,,,,,,,,,,,,,,,,,,,,,,,,,,,,,,,None,,558.6853999599931,None,558.6853999599931,None,2022-03-02-14:34:25.635485,558.6972838999936,559.0014728999231,558.6972838999936,None,None,558.6972838999936,None,559.5026974599692,None,,,,11010,0002,2022_Mar_02_1425,localizer,2021.1.3,60.00041999216812,
block,scrambled,scrambled057.bmp,,,,,0,26,26,26,,,,,,,,,,,,,,,,,,,,,,,,,,,,,,,,,,,,,,,,,,None,,559.5026974599692,None,559.5026974599692,None,2022-03-02-14:34:26.452776,559.5152520999545,559.8183338999515,559.5152520999545,None,None,559.5152520999545,None,560.3245938599226,None,,,,11010,0002,2022_Mar_02_1425,localizer,2021.1.3,60.00041999216812,
block,scrambled,scrambled023.bmp,,,,,0,27,27,27,,,,,,,,,,,,,,,,,,,,,,,,,,,,,,,,,,,,,,,,,,None,,560.3245938599226,None,560.3245938599226,None,2022-03-02-14:34:27.272801,560.328591199941,560.6349362999899,560.328591199941,None,None,560.328591199941,None,561.1391074600048,None,,,,11010,0002,2022_Mar_02_1425,localizer,2021.1.3,60.00041999216812,
block,scrambled,scrambled081.bmp,,,,,0,28,28,28,,,,,,,,,,,,,,,,,,,,,,,,,,,,,,,,,,,,,,,,,,None,,561.1391074600048,None,561.1391074600048,None,2022-03-02-14:34:28.091140,561.142471899977,561.4516555999871,561.142471899977,None,None,561.142471899977,None,561.9517136599985,None,,,,11010,0002,2022_Mar_02_1425,localizer,2021.1.3,60.00041999216812,
block_end,scrambled,scrambled013.bmp,,,,,0,29,29,29,,,,,,,,,,,,,,,,,,,,,,,,,,,,,,,,,,,,,,,,,,None,,561.9517136599985,None,561.9517136599985,None,2022-03-02-14:34:28.900828,561.9614875999978,562.2686216000002,561.9614875999978,None,None,561.9614875999978,None,562.7683559599915,None,,,,11010,0002,2022_Mar_02_1425,localizer,2021.1.3,60.00041999216812,
null_block,null_block,null_block.bmp,,,,,0,30,30,30,,,,,,,,,,,,,,,,,,,,,,,,,,,,,,,,,,,,,,,,,,t,1.7191259000683203,562.7686200999888,None,562.7686200999888,None,2022-03-02-14:34:31.465993,564.5179691599566,None,564.5179691599566,None,None,564.5179691599566,None,564.5197105999105,None,,,,11010,0002,2022_Mar_02_1425,localizer,2021.1.3,60.00041999216812,
block_start,faces,faces051.bmp,,,,,0,31,31,31,,,,,,,,,,,,,,,,,,,,,,,,,,,,,,,,,,,,,,,,,,t,1.9683956999797374,576.5194467999972,None,576.5194467999972,None,2022-03-02-14:34:45.469359,578.5191765999189,578.8351766999112,578.5191765999189,None,None,578.5191765999189,None,579.3347916599247,None,,,,11010,0002,2022_Mar_02_1425,localizer,2021.1.3,60.00041999216812,
block,faces,faces057.bmp,,,,,0,32,32,32,,,,,,,,,,,,,,,,,,,,,,,,,,,,,,,,,,,,,,,,,,None,,579.3347916599247,None,579.3347916599247,None,2022-03-02-14:34:46.284162,579.3361252999166,579.6354759999085,579.3361252999166,None,None,579.3361252999166,None,580.151287559967,None,,,,11010,0002,2022_Mar_02_1425,localizer,2021.1.3,60.00041999216812,
block,faces,faces058.bmp,,,,,0,33,33,33,,,,,,,,,,,,,,,,,,,,,,,,,,,,,,,,,,,,,,,,,,None,,580.151287559967,None,580.151287559967,None,2022-03-02-14:34:47.100414,580.1622993999626,580.4683599999407,580.1622993999626,None,None,580.1622993999626,None,580.9680261599948,None,,,,11010,0002,2022_Mar_02_1425,localizer,2021.1.3,60.00041999216812,
block,faces,faces077.bmp,,,,,0,34,34,34,,,,,,,,,,,,,,,,,,,,,,,,,,,,,,,,,,,,,,,,,,None,,580.9680261599948,None,580.9680261599948,None,2022-03-02-14:34:47.917151,580.9695844999515,581.2850704999873,580.9695844999515,None,None,580.9695844999515,None,581.7849648599164,None,,,,11010,0002,2022_Mar_02_1425,localizer,2021.1.3,60.00041999216812,
block,faces,faces016.bmp,,,,,0,35,35,35,,,,,,,,,,,,,,,,,,,,,,,,,,,,,,,,,,,,,,,,,,None,,581.7849648599164,None,581.7849648599164,None,2022-03-02-14:34:48.734242,581.7932907999493,582.1016761999344,581.7932907999493,None,None,581.7932907999493,None,582.6017091599875,None,,,,11010,0002,2022_Mar_02_1425,localizer,2021.1.3,60.00041999216812,
block,faces,faces011.bmp,,,,,0,36,36,36,,,,,,,,,,,,,,,,,,,,,,,,,,,,,,,,,,,,,,,,,,None,,582.6017091599875,None,582.6017091599875,None,2022-03-02-14:34:49.550954,582.6027152999304,582.9183815999422,582.6027152999304,None,None,582.6027152999304,None,583.418257959967,None,,,,11010,0002,2022_Mar_02_1425,localizer,2021.1.3,60.00041999216812,
block,faces,faces046.bmp,,,,,0,37,37,37,,,,,,,,,,,,,,,,,,,,,,,,,,,,,,,,,,,,,,,,,,None,,583.418257959967,None,583.418257959967,None,2022-03-02-14:34:50.367587,583.41929599992,583.7238062999677,583.41929599992,None,None,583.41929599992,None,584.2347321599606,None,,,,11010,0002,2022_Mar_02_1425,localizer,2021.1.3,60.00041999216812,
block,faces,faces025.bmp,,,,,0,38,38,38,,,,,,,,,,,,,,,,,,,,,,,,,,,,,,,,,,,,,,,,,,None,,584.2347321599606,None,584.2347321599606,None,2022-03-02-14:34:51.182871,584.2398880999535,584.5512430999661,584.2398880999535,None,None,584.2398880999535,None,585.0516078599845,None,,,,11010,0002,2022_Mar_02_1425,localizer,2021.1.3,60.00041999216812,
block,faces,faces001.bmp,,,,,0,39,39,39,,,,,,,,,,,,,,,,,,,,,,,,,,,,,,,,,,,,,,,,,,None,,585.0516078599845,None,585.0516078599845,None,2022-03-02-14:34:52.000775,585.062879199977,585.3682590000099,585.062879199977,None,None,585.062879199977,None,585.8684159599594,None,,,,11010,0002,2022_Mar_02_1425,localizer,2021.1.3,60.00041999216812,
block,faces,faces022.bmp,,,,,0,40,40,40,,,,,,,,,,,,,,,,,,,,,,,,,,,,,,,,,,,,,,,,,,None,,585.8684159599594,None,585.8684159599594,None,2022-03-02-14:34:52.816509,585.8721649999497,586.1848154999316,585.8721649999497,None,None,585.8721649999497,None,586.6849939599284,None,,,,11010,0002,2022_Mar_02_1425,localizer,2021.1.3,60.00041999216812,
block,faces,faces032.bmp,,,,,0,41,41,41,,,,,,,,,,,,,,,,,,,,,,,,,,,,,,,,,,,,,,,,,,None,,586.6849939599284,None,586.6849939599284,None,2022-03-02-14:34:53.634125,586.6952195999911,587.0010940999491,586.6952195999911,None,None,586.6952195999911,None,587.5010252599255,None,,,,11010,0002,2022_Mar_02_1425,localizer,2021.1.3,60.00041999216812,
block,faces,faces037.bmp,,,,,0,42,42,42,,,,,,,,,,,,,,,,,,,,,,,,,,,,,,,,,,,,,,,,,,None,,587.5010252599255,None,587.5010252599255,None,2022-03-02-14:34:54.450051,587.5031626999844,587.818198199966,587.5031626999844,None,None,587.5031626999844,None,588.318317359977,None,,,,11010,0002,2022_Mar_02_1425,localizer,2021.1.3,60.00041999216812,
block,faces,faces012.bmp,,,,,0,43,43,43,,,,,,,,,,,,,,,,,,,,,,,,,,,,,,,,,,,,,,,,,,None,,588.318317359977,None,588.318317359977,None,2022-03-02-14:34:55.267667,588.32885359996,588.6348586999811,588.32885359996,None,None,588.32885359996,None,589.1348948599422,None,,,,11010,0002,2022_Mar_02_1425,localizer,2021.1.3,60.00041999216812,
block,faces,faces055.bmp,,,,,0,44,44,44,,,,,,,,,,,,,,,,,,,,,,,,,,,,,,,,,,,,,,,,,,None,,589.1348948599422,None,589.1348948599422,None,2022-03-02-14:34:56.083723,589.1444289999781,589.4517746999627,589.1444289999781,None,None,589.1444289999781,None,589.9515232599457,None,,,,11010,0002,2022_Mar_02_1425,localizer,2021.1.3,60.00041999216812,
block_end,faces,faces040.bmp,,,,,0,45,45,45,,,,,,,,,,,,,,,,,,,,,,,,,,,,,,,,,,,,,,,,,,None,,589.9515232599457,None,589.9515232599457,None,2022-03-02-14:34:56.899664,589.9602892999537,590.268478199956,589.9602892999537,None,None,589.9602892999537,None,590.7682425599429,None,,,,11010,0002,2022_Mar_02_1425,localizer,2021.1.3,60.00041999216812,
block_start,objects,objects076.bmp,,,,,0,46,46,46,,,,,,,,,,,,,,,,,,,,,,,,,,,,,,,,,,,,,,,,,,t,1.7193754999898374,590.7685289999936,None,590.7685289999936,None,2022-03-02-14:34:59.465858,592.5273313999642,592.8399411999853,592.5273313999642,None,None,592.5273313999642,None,593.3347883598996,None,,,,11010,0002,2022_Mar_02_1425,localizer,2021.1.3,60.00041999216812,
block,objects,objects009.bmp,,,,,0,47,47,47,,,,,,,,,,,,,,,,,,,,,,,,,,,,,,,,,,,,,,,,,,None,,593.3347883598996,None,593.3347883598996,None,2022-03-02-14:35:00.283927,593.3387221999001,593.6516665999079,593.3387221999001,None,None,593.3387221999001,None,594.152874559944,None,,,,11010,0002,2022_Mar_02_1425,localizer,2021.1.3,60.00041999216812,
block,objects,objects006.bmp,,,,,0,48,48,48,,,,,,,,,,,,,,,,,,,,,,,,,,,,,,,,,,,,,,,,,,None,,594.152874559944,None,594.152874559944,None,2022-03-02-14:35:01.103169,594.1551154999761,594.4686047999421,594.1551154999761,None,None,594.1551154999761,None,594.9684407600085,None,,,,11010,0002,2022_Mar_02_1425,localizer,2021.1.3,60.00041999216812,
block,objects,objects043.bmp,,,,,0,49,49,49,,,,,,,,,,,,,,,,,,,,,,,,,,,,,,,,,,,,,,,,,,None,,594.9684407600085,None,594.9684407600085,None,2022-03-02-14:35:01.917794,594.9739113999531,595.2891500999685,594.9739113999531,None,None,594.9739113999531,None,595.7850647599786,None,,,,11010,0002,2022_Mar_02_1425,localizer,2021.1.3,60.00041999216812,
block,objects,objects047.bmp,,,,,0,50,50,50,,,,,,,,,,,,,,,,,,,,,,,,,,,,,,,,,,,,,,,,,,None,,595.7850647599786,None,595.7850647599786,None,2022-03-02-14:35:02.734207,595.7973626999883,596.1025556999957,595.7973626999883,None,None,595.7973626999883,None,596.6016070599086,None,,,,11010,0002,2022_Mar_02_1425,localizer,2021.1.3,60.00041999216812,
block,objects,objects085.bmp,,,,,0,51,51,51,,,,,,,,,,,,,,,,,,,,,,,,,,,,,,,,,,,,,,,,,,None,,596.6016070599086,None,596.6016070599086,None,2022-03-02-14:35:03.550749,596.6026991999242,596.9026916999137,596.6026991999242,None,None,596.6026991999242,None,597.4022097600042,None,,,,11010,0002,2022_Mar_02_1425,localizer,2021.1.3,60.00041999216812,
block,objects,objects046.bmp,,,,,0,52,52,52,,,,,,,,,,,,,,,,,,,,,,,,,,,,,,,,,,,,,,,,,,None,,597.4022097600042,None,597.4022097600042,None,2022-03-02-14:35:04.354336,597.4103416999569,597.718506300007,597.4103416999569,597.4103416999569,None,597.4103416999569,597.4103416999569,598.2179058600101,None,,,,11010,0002,2022_Mar_02_1425,localizer,2021.1.3,60.00041999216812,
block,objects,objects013.bmp,,,,,0,53,53,53,,,,,,,,,,,,,,,,,,,,,,,,,,,,,,,,,,,,,,,,,,None,,598.2179058600101,None,598.2179058600101,None,2022-03-02-14:35:05.166101,598.2239786999999,598.5351579999551,598.2239786999999,None,None,598.2239786999999,None,599.0347736599739,None,,,,11010,0002,2022_Mar_02_1425,localizer,2021.1.3,60.00041999216812,
block,objects,objects034.bmp,,,,,0,54,54,54,,,,,,,,,,,,,,,,,,,,,,,,,,,,,,,,,,,,,,,,,,None,,599.0347736599739,None,599.0347736599739,None,2022-03-02-14:35:05.983920,599.0440570999635,599.3516558000119,599.0440570999635,None,None,599.0440570999635,None,599.8514323599753,None,,,,11010,0002,2022_Mar_02_1425,localizer,2021.1.3,60.00041999216812,
block,objects,objects079.bmp,,,,,0,55,55,55,,,,,,,,,,,,,,,,,,,,,,,,,,,,,,,,,,,,,,,,,,None,,599.8514323599753,None,599.8514323599753,None,2022-03-02-14:35:06.800771,599.8527756999247,600.1684095999226,599.8527756999247,None,None,599.8527756999247,None,600.668416360009,None,,,,11010,0002,2022_Mar_02_1425,localizer,2021.1.3,60.00041999216812,
block,objects,objects079.bmp,,,,,0,56,56,56,,,,,,,,,,,,,,,,,,,,,,,,,,,,,,,,,,,,,,,,,,None,,600.668416360009,None,600.668416360009,None,2022-03-02-14:35:07.617565,600.6694005999016,600.9689681999153,600.6694005999016,None,y,600.6694005999016,None,601.4850465599098,None,0.4233092999784276,,,11010,0002,2022_Mar_02_1425,localizer,2021.1.3,60.00041999216812,
block,objects,objects010.bmp,,,,,0,57,57,57,,,,,,,,,,,,,,,,,,,,,,,,,,,,,,,,,,,,,,,,,,None,,601.4850465599098,None,601.4850465599098,None,2022-03-02-14:35:08.434195,601.4859822000144,601.8018815999385,601.4859822000144,None,None,601.4859822000144,None,602.2850572599215,None,,,,11010,0002,2022_Mar_02_1425,localizer,2021.1.3,60.00041999216812,
block,objects,objects084.bmp,,,,,0,58,58,58,,,,,,,,,,,,,,,,,,,,,,,,,,,,,,,,,,,,,,,,,,None,,602.2850572599215,None,602.2850572599215,None,2022-03-02-14:35:09.237334,602.2944920998998,602.601958299987,602.2944920998998,602.2944920998998,None,602.2944920998998,602.2944920998998,603.1021533599938,None,,,,11010,0002,2022_Mar_02_1425,localizer,2021.1.3,60.00041999216812,
block,objects,objects083.bmp,,,,,0,59,59,59,,,,,,,,,,,,,,,,,,,,,,,,,,,,,,,,,,,,,,,,,,None,,603.1021533599938,None,603.1021533599938,None,2022-03-02-14:35:10.052451,603.1044260999188,603.418267800007,603.1044260999188,None,None,603.1044260999188,None,603.9181319599389,None,,,,11010,0002,2022_Mar_02_1425,localizer,2021.1.3,60.00041999216812,
block_end,objects,objects064.bmp,,,,,0,60,60,60,,,,,,,,,,,,,,,,,,,,,,,,,,,,,,,,,,,,,,,,,,None,,603.9181319599389,None,603.9181319599389,None,2022-03-02-14:35:10.867285,603.9194001000142,604.2351906999247,603.9194001000142,None,None,603.9194001000142,None,604.7184623599402,None,,,,11010,0002,2022_Mar_02_1425,localizer,2021.1.3,60.00041999216812,
null_block,null_block,null_block.bmp,,,,,0,61,61,61,,,,,,,,,,,,,,,,,,,,,,,,,,,,,,,,,,,,,,,,,,t,1.769234100007452,604.7185277999379,None,604.7185277999379,None,2022-03-02-14:35:13.465766,606.5184028599994,None,606.5184028599994,None,None,606.5184028599994,None,606.5288569999393,None,,,,11010,0002,2022_Mar_02_1425,localizer,2021.1.3,60.00041999216812,
block_start,objects,objects036.bmp,,,,,0,62,62,62,,,,,,,,,,,,,,,,,,,,,,,,,,,,,,,,,,,,,,,,,,t,1.9531479000579566,618.5347257999238,None,618.5347257999238,None,2022-03-02-14:35:27.468622,620.528681900003,620.8397890999913,620.528681900003,None,None,620.528681900003,None,621.3245454599033,None,,,,11010,0002,2022_Mar_02_1425,localizer,2021.1.3,60.00041999216812,
block,objects,objects060.bmp,,,,,0,63,63,63,,,,,,,,,,,,,,,,,,,,,,,,,,,,,,,,,,,,,,,,,,None,,621.3245454599033,None,621.3245454599033,None,2022-03-02-14:35:28.281246,621.3329277000157,621.6359419999644,621.3329277000157,None,None,621.3329277000157,None,622.1349082599278,None,,,,11010,0002,2022_Mar_02_1425,localizer,2021.1.3,60.00041999216812,
block,objects,objects065.bmp,,,,,0,64,64,64,,,,,,,,,,,,,,,,,,,,,,,,,,,,,,,,,,,,,,,,,,None,,622.1349082599278,None,622.1349082599278,None,2022-03-02-14:35:29.084310,622.144052999909,622.4519383999286,622.144052999909,None,None,622.144052999909,None,622.9516371599981,None,,,,11010,0002,2022_Mar_02_1425,localizer,2021.1.3,60.00041999216812,
block,objects,objects021.bmp,,,,,0,65,65,65,,,,,,,,,,,,,,,,,,,,,,,,,,,,,,,,,,,,,,,,,,None,,622.9516371599981,None,622.9516371599981,None,2022-03-02-14:35:29.900411,622.958008299931,623.2685012000147,622.958008299931,None,None,622.958008299931,None,623.7691552599077,None,,,,11010,0002,2022_Mar_02_1425,localizer,2021.1.3,60.00041999216812,
block,objects,objects070.bmp,,,,,0,66,66,66,,,,,,,,,,,,,,,,,,,,,,,,,,,,,,,,,,,,,,,,,,None,,623.7691552599077,None,623.7691552599077,None,2022-03-02-14:35:30.720255,623.7820299000014,624.0908271999797,623.7820299000014,None,None,623.7820299000014,None,624.5854235599633,None,,,,11010,0002,2022_Mar_02_1425,localizer,2021.1.3,60.00041999216812,
block,objects,objects033.bmp,,,,,0,67,67,67,,,,,,,,,,,,,,,,,,,,,,,,,,,,,,,,,,,,,,,,,,None,,624.5854235599633,None,624.5854235599633,None,2022-03-02-14:35:31.535592,624.5862676999532,624.8920576999662,624.5862676999532,None,None,624.5862676999532,None,625.3853322598967,None,,,,11010,0002,2022_Mar_02_1425,localizer,2021.1.3,60.00041999216812,
block,objects,objects014.bmp,,,,,0,68,68,68,,,,,,,,,,,,,,,,,,,,,,,,,,,,,,,,,,,,,,,,,,None,,625.3853322598967,None,625.3853322598967,None,2022-03-02-14:35:32.336689,625.3883726999629,625.7026151999598,625.3883726999629,625.3883726999629,None,625.3883726999629,625.3883726999629,626.2031335599837,None,,,,11010,0002,2022_Mar_02_1425,localizer,2021.1.3,60.00041999216812,
block,objects,objects084.bmp,,,,,0,69,69,69,,,,,,,,,,,,,,,,,,,,,,,,,,,,,,,,,,,,,,,,,,None,,626.2031335599837,None,626.2031335599837,None,2022-03-02-14:35:33.155287,626.2063729999354,626.518725699978,626.2063729999354,None,None,626.2063729999354,None,627.0193515600055,None,,,,11010,0002,2022_Mar_02_1425,localizer,2021.1.3,60.00041999216812,
block,objects,objects078.bmp,,,,,0,70,70,70,,,,,,,,,,,,,,,,,,,,,,,,,,,,,,,,,,,,,,,,,,None,,627.0193515600055,None,627.0193515600055,None,2022-03-02-14:35:33.969517,627.0322420999873,627.3384687999496,627.0322420999873,None,None,627.0322420999873,None,627.8347783599398,None,,,,11010,0002,2022_Mar_02_1425,localizer,2021.1.3,60.00041999216812,
block,objects,objects063.bmp,,,,,0,71,71,71,,,,,,,,,,,,,,,,,,,,,,,,,,,,,,,,,,,,,,,,,,None,,627.8347783599398,None,627.8347783599398,None,2022-03-02-14:35:34.784237,627.8363711999264,628.1416231999174,627.8363711999264,None,None,627.8363711999264,None,628.6372689599754,None,,,,11010,0002,2022_Mar_02_1425,localizer,2021.1.3,60.00041999216812,
block,objects,objects080.bmp,,,,,0,72,72,72,,,,,,,,,,,,,,,,,,,,,,,,,,,,,,,,,,,,,,,,,,None,,628.6372689599754,None,628.6372689599754,None,2022-03-02-14:35:35.592597,628.6553096999414,628.9687288999557,628.6553096999414,628.6553096999414,None,628.6553096999414,628.6553096999414,629.4512519599754,None,,,,11010,0002,2022_Mar_02_1425,localizer,2021.1.3,60.00041999216812,
block,objects,objects085.bmp,,,,,0,73,73,73,,,,,,,,,,,,,,,,,,,,,,,,,,,,,,,,,,,,,,,,,,None,,629.4512519599754,None,629.4512519599754,None,2022-03-02-14:35:36.399275,629.4531172999414,629.7682004999369,629.4531172999414,None,None,629.4531172999414,None,630.2680599599495,None,,,,11010,0002,2022_Mar_02_1425,localizer,2021.1.3,60.00041999216812,
block,objects,objects053.bmp,,,,,0,74,74,74,,,,,,,,,,,,,,,,,,,,,,,,,,,,,,,,,,,,,,,,,,None,,630.2680599599495,None,630.2680599599495,None,2022-03-02-14:35:37.216620,630.2715764999157,630.5858554999577,630.2715764999157,None,None,630.2715764999157,None,631.0847702599946,None,,,,11010,0002,2022_Mar_02_1425,localizer,2021.1.3,60.00041999216812,
block,objects,objects052.bmp,,,,,0,75,75,75,,,,,,,,,,,,,,,,,,,,,,,,,,,,,,,,,,,,,,,,,,None,,631.0847702599946,None,631.0847702599946,None,2022-03-02-14:35:38.033397,631.0882563999621,631.4016158999875,631.0882563999621,None,None,631.0882563999621,None,631.9018252599868,None,,,,11010,0002,2022_Mar_02_1425,localizer,2021.1.3,60.00041999216812,
block_end,objects,objects012.bmp,,,,,0,76,76,76,,,,,,,,,,,,,,,,,,,,,,,,,,,,,,,,,,,,,,,,,,None,,631.9018252599868,None,631.9018252599868,None,2022-03-02-14:35:38.851652,631.9030278999126,632.2181424999144,631.9030278999126,None,None,631.9030278999126,None,632.717871459981,None,,,,11010,0002,2022_Mar_02_1425,localizer,2021.1.3,60.00041999216812,
block_start,scrambled,scrambled019.bmp,,,,,0,77,77,77,,,,,,,,,,,,,,,,,,,,,,,,,,,,,,,,,,,,,,,,,,t,1.769428399973549,632.718140999903,None,632.718140999903,None,2022-03-02-14:35:41.466151,634.5218630000018,634.8345552999526,634.5218630000018,None,None,634.5218630000018,None,635.3353236599011,None,,,,11010,0002,2022_Mar_02_1425,localizer,2021.1.3,60.00041999216812,
block,scrambled,scrambled066.bmp,,,,,0,78,78,78,,,,,,,,,,,,,,,,,,,,,,,,,,,,,,,,,,,,,,,,,,None,,635.3353236599011,None,635.3353236599011,None,2022-03-02-14:35:42.284550,635.3403516999679,635.6538724999409,635.3403516999679,None,None,635.3403516999679,None,636.1518719599932,None,,,,11010,0002,2022_Mar_02_1425,localizer,2021.1.3,60.00041999216812,
block,scrambled,scrambled066.bmp,,,,,0,79,79,79,,,,,,,,,,,,,,,,,,,,,,,,,,,,,,,,,,,,,,,,,,None,,636.1518719599932,None,636.1518719599932,None,2022-03-02-14:35:43.101272,636.1533017999027,636.4694765999448,636.1533017999027,None,y,636.1533017999027,None,636.9691200599424,None,0.5480685000075027,,,11010,0002,2022_Mar_02_1425,localizer,2021.1.3,60.00041999216812,
block,scrambled,scrambled027.bmp,,,,,0,80,80,80,,,,,,,,,,,,,,,,,,,,,,,,,,,,,,,,,,,,,,,,,,None,,636.9691200599424,None,636.9691200599424,None,2022-03-02-14:35:43.918454,636.9759250999196,637.2861644999357,636.9759250999196,None,None,636.9759250999196,None,637.7846004599356,None,,,,11010,0002,2022_Mar_02_1425,localizer,2021.1.3,60.00041999216812,
block,scrambled,scrambled026.bmp,,,,,0,81,81,81,,,,,,,,,,,,,,,,,,,,,,,,,,,,,,,,,,,,,,,,,,None,,637.7846004599356,None,637.7846004599356,None,2022-03-02-14:35:44.733831,637.788308499963,638.1015421999618,637.788308499963,None,None,637.788308499963,None,638.601986260002,None,,,,11010,0002,2022_Mar_02_1425,localizer,2021.1.3,60.00041999216812,
block,scrambled,scrambled014.bmp,,,,,0,82,82,82,,,,,,,,,,,,,,,,,,,,,,,,,,,,,,,,,,,,,,,,,,None,,638.601986260002,None,638.601986260002,None,2022-03-02-14:35:45.549970,638.6034562999848,638.9185536999721,638.6034562999848,None,None,638.6034562999848,None,639.4181772599346,None,,,,11010,0002,2022_Mar_02_1425,localizer,2021.1.3,60.00041999216812,
block,scrambled,scrambled056.bmp,,,,,0,83,83,83,,,,,,,,,,,,,,,,,,,,,,,,,,,,,,,,,,,,,,,,,,None,,639.4181772599346,None,639.4181772599346,None,2022-03-02-14:35:46.366660,639.4217636999674,639.7352924000006,639.4217636999674,None,None,639.4217636999674,None,640.2349335599807,None,,,,11010,0002,2022_Mar_02_1425,localizer,2021.1.3,60.00041999216812,
block,scrambled,scrambled075.bmp,,,,,0,84,84,84,,,,,,,,,,,,,,,,,,,,,,,,,,,,,,,,,,,,,,,,,,None,,640.2349335599807,None,640.2349335599807,None,2022-03-02-14:35:47.183583,640.2401225999929,640.5525348999072,640.2401225999929,None,None,640.2401225999929,None,641.0523920599022,None,,,,11010,0002,2022_Mar_02_1425,localizer,2021.1.3,60.00041999216812,
block,scrambled,scrambled084.bmp,,,,,0,85,85,85,,,,,,,,,,,,,,,,,,,,,,,,,,,,,,,,,,,,,,,,,,None,,641.0523920599022,None,641.0523920599022,None,2022-03-02-14:35:48.000440,641.0601598999929,641.368737099925,641.0601598999929,None,None,641.0601598999929,None,641.8681124599767,None,,,,11010,0002,2022_Mar_02_1425,localizer,2021.1.3,60.00041999216812,
block,scrambled,scrambled035.bmp,,,,,0,86,86,86,,,,,,,,,,,,,,,,,,,,,,,,,,,,,,,,,,,,,,,,,,None,,641.8681124599767,None,641.8681124599767,None,2022-03-02-14:35:48.817565,641.8697110000066,642.1854906999506,641.8697110000066,None,None,641.8697110000066,None,642.6847023599199,None,,,,11010,0002,2022_Mar_02_1425,localizer,2021.1.3,60.00041999216812,
block,scrambled,scrambled011.bmp,,,,,0,87,87,87,,,,,,,,,,,,,,,,,,,,,,,,,,,,,,,,,,,,,,,,,,None,,642.6847023599199,None,642.6847023599199,None,2022-03-02-14:35:49.632771,642.6863974999869,643.0019141999073,642.6863974999869,None,None,642.6863974999869,None,643.5014134599711,None,,,,11010,0002,2022_Mar_02_1425,localizer,2021.1.3,60.00041999216812,
block,scrambled,scrambled063.bmp,,,,,0,88,88,88,,,,,,,,,,,,,,,,,,,,,,,,,,,,,,,,,,,,,,,,,,None,,643.5014134599711,None,643.5014134599711,None,2022-03-02-14:35:50.449678,643.5051044999855,643.8184770999942,643.5051044999855,None,None,643.5051044999855,None,644.3180193599197,None,,,,11010,0002,2022_Mar_02_1425,localizer,2021.1.3,60.00041999216812,
block,scrambled,scrambled057.bmp,,,,,0,89,89,89,,,,,,,,,,,,,,,,,,,,,,,,,,,,,,,,,,,,,,,,,,None,,644.3180193599197,None,644.3180193599197,None,2022-03-02-14:35:51.266314,644.3195733999601,644.6351342999842,644.3195733999601,None,None,644.3195733999601,None,645.1351165600005,None,,,,11010,0002,2022_Mar_02_1425,localizer,2021.1.3,60.00041999216812,
block,scrambled,scrambled018.bmp,,,,,0,90,90,90,,,,,,,,,,,,,,,,,,,,,,,,,,,,,,,,,,,,,,,,,,None,,645.1351165600005,None,645.1351165600005,None,2022-03-02-14:35:52.083825,645.1364355999976,645.4515706999227,645.1364355999976,None,None,645.1364355999976,None,645.9521417599987,None,,,,11010,0002,2022_Mar_02_1425,localizer,2021.1.3,60.00041999216812,
block_end,scrambled,scrambled043.bmp,,,,,0,91,91,91,,,,,,,,,,,,,,,,,,,,,,,,,,,,,,,,,,,,,,,,,,None,,645.9521417599987,None,645.9521417599987,None,2022-03-02-14:35:52.901233,645.9570250000106,646.269444799982,645.9570250000106,None,None,645.9570250000106,None,646.7690659599263,None,,,,11010,0002,2022_Mar_02_1425,localizer,2021.1.3,60.00041999216812,
block_start,faces,faces006.bmp,,,,,0,92,92,92,,,,,,,,,,,,,,,,,,,,,,,,,,,,,,,,,,,,,,,,,,t,1.7178311999887228,646.7698725999799,None,646.7698725999799,None,2022-03-02-14:35:55.466875,648.520214799908,648.8355168999406,648.520214799908,None,None,648.520214799908,None,649.340086559963,None,,,,11010,0002,2022_Mar_02_1425,localizer,2021.1.3,60.00041999216812,
block,faces,faces086.bmp,,,,,0,93,93,93,,,,,,,,,,,,,,,,,,,,,,,,,,,,,,,,,,,,,,,,,,None,,649.340086559963,None,649.340086559963,None,2022-03-02-14:35:56.294267,649.3448916999623,649.6518254999537,649.3448916999623,None,None,649.3448916999623,None,650.1518914599088,None,,,,11010,0002,2022_Mar_02_1425,localizer,2021.1.3,60.00041999216812,
block,faces,faces083.bmp,,,,,0,94,94,94,,,,,,,,,,,,,,,,,,,,,,,,,,,,,,,,,,,,,,,,,,None,,650.1518914599088,None,650.1518914599088,None,2022-03-02-14:35:57.101763,650.153075399925,650.4689214999089,650.153075399925,None,None,650.153075399925,None,650.9686663599801,None,,,,11010,0002,2022_Mar_02_1425,localizer,2021.1.3,60.00041999216812,
block,faces,faces030.bmp,,,,,0,95,95,95,,,,,,,,,,,,,,,,,,,,,,,,,,,,,,,,,,,,,,,,,,None,,650.9686663599801,None,650.9686663599801,None,2022-03-02-14:35:57.917874,650.9699123000028,651.2857245999621,650.9699123000028,None,None,650.9699123000028,None,651.7854934599833,None,,,,11010,0002,2022_Mar_02_1425,localizer,2021.1.3,60.00041999216812,
block,faces,faces053.bmp,,,,,0,96,96,96,,,,,,,,,,,,,,,,,,,,,,,,,,,,,,,,,,,,,,,,,,None,,651.7854934599833,None,651.7854934599833,None,2022-03-02-14:35:58.734892,651.7966362999287,652.1046279999427,651.7966362999287,None,None,651.7966362999287,None,652.6019525599783,None,,,,11010,0002,2022_Mar_02_1425,localizer,2021.1.3,60.00041999216812,
block,faces,faces036.bmp,,,,,0,97,97,97,,,,,,,,,,,,,,,,,,,,,,,,,,,,,,,,,,,,,,,,,,None,,652.6019525599783,None,652.6019525599783,None,2022-03-02-14:35:59.551203,652.6064038999612,652.9187541999854,652.6064038999612,None,None,652.6064038999612,None,653.4188285600045,None,,,,11010,0002,2022_Mar_02_1425,localizer,2021.1.3,60.00041999216812,
block,faces,faces063.bmp,,,,,0,98,98,98,,,,,,,,,,,,,,,,,,,,,,,,,,,,,,,,,,,,,,,,,,None,,653.4188285600045,None,653.4188285600045,None,2022-03-02-14:36:00.369034,653.4316772999009,653.7355631999671,653.4316772999009,None,None,653.4316772999009,None,654.235287860001,None,,,,11010,0002,2022_Mar_02_1425,localizer,2021.1.3,60.00041999216812,
block,faces,faces071.bmp,,,,,0,99,99,99,,,,,,,,,,,,,,,,,,,,,,,,,,,,,,,,,,,,,,,,,,None,,654.235287860001,None,654.235287860001,None,2022-03-02-14:36:01.184501,654.2364414999029,654.5522198999533,654.2364414999029,None,None,654.2364414999029,None,655.0354624599801,None,,,,11010,0002,2022_Mar_02_1425,localizer,2021.1.3,60.00041999216812,
block,faces,faces068.bmp,,,,,0,100,100,100,,,,,,,,,,,,,,,,,,,,,,,,,,,,,,,,,,,,,,,,,,None,,655.0354624599801,None,655.0354624599801,None,2022-03-02-14:36:01.985679,655.0367734999163,655.3519952999195,655.0367734999163,655.0367734999163,None,655.0367734999163,655.0367734999163,655.8418021599879,None,,,,11010,0002,2022_Mar_02_1425,localizer,2021.1.3,60.00041999216812,
block,faces,faces033.bmp,,,,,0,101,101,101,,,,,,,,,,,,,,,,,,,,,,,,,,,,,,,,,,,,,,,,,,None,,655.8418021599879,None,655.8418021599879,None,2022-03-02-14:36:02.796917,655.8483917999547,656.1525360000087,655.8483917999547,None,None,655.8483917999547,None,656.6519612599747,None,,,,11010,0002,2022_Mar_02_1425,localizer,2021.1.3,60.00041999216812,
block,faces,faces014.bmp,,,,,0,102,102,102,,,,,,,,,,,,,,,,,,,,,,,,,,,,,,,,,,,,,,,,,,None,,656.6519612599747,None,656.6519612599747,None,2022-03-02-14:36:03.601180,656.6619068,656.9702383999247,656.6619068,None,None,656.6619068,None,657.4700497599202,None,,,,11010,0002,2022_Mar_02_1425,localizer,2021.1.3,60.00041999216812,
block,faces,faces039.bmp,,,,,0,103,103,103,,,,,,,,,,,,,,,,,,,,,,,,,,,,,,,,,,,,,,,,,,None,,657.4700497599202,None,657.4700497599202,None,2022-03-02-14:36:04.421426,657.4846124999458,657.7857282999903,657.4846124999458,None,None,657.4846124999458,None,658.285336459952,None,,,,11010,0002,2022_Mar_02_1425,localizer,2021.1.3,60.00041999216812,
block,faces,faces052.bmp,,,,,0,104,104,104,,,,,,,,,,,,,,,,,,,,,,,,,,,,,,,,,,,,,,,,,,None,,658.285336459952,None,658.285336459952,None,2022-03-02-14:36:05.234554,658.286425499944,658.5889783999883,658.286425499944,None,None,658.286425499944,None,659.1013235599618,None,,,,11010,0002,2022_Mar_02_1425,localizer,2021.1.3,60.00041999216812,
block,faces,faces067.bmp,,,,,0,105,105,105,,,,,,,,,,,,,,,,,,,,,,,,,,,,,,,,,,,,,,,,,,None,,659.1013235599618,None,659.1013235599618,None,2022-03-02-14:36:06.050546,659.1040010999423,659.4191164999502,659.1040010999423,None,None,659.1040010999423,None,659.9189512600075,None,,,,11010,0002,2022_Mar_02_1425,localizer,2021.1.3,60.00041999216812,
block_end,faces,faces018.bmp,,,,,0,106,106,106,,,,,,,,,,,,,,,,,,,,,,,,,,,,,,,,,,,,,,,,,,None,,659.9189512600075,None,659.9189512600075,None,2022-03-02-14:36:06.868167,659.919927299954,660.2358497999376,659.919927299954,None,None,659.919927299954,None,660.7354469599319,None,,,,11010,0002,2022_Mar_02_1425,localizer,2021.1.3,60.00041999216812,
block_start,scenes,scenes023.bmp,,,,,0,107,107,107,,,,,,,,,,,,,,,,,,,,,,,,,,,,,,,,,,,,,,,,,,t,1.7523217999842018,660.7356715999776,None,660.7356715999776,None,2022-03-02-14:36:09.467057,662.5197852000128,662.8354542999296,662.5197852000128,None,None,662.5197852000128,None,663.3196923599695,None,,,,11010,0002,2022_Mar_02_1425,localizer,2021.1.3,60.00041999216812,
block,scenes,scenes063.bmp,,,,,0,108,108,108,,,,,,,,,,,,,,,,,,,,,,,,,,,,,,,,,,,,,,,,,,None,,663.3196923599695,None,663.3196923599695,None,2022-03-02-14:36:10.272674,663.3362593000056,663.6519149999367,663.3362593000056,663.3362593000056,None,663.3362593000056,663.3362593000056,664.1353587599821,None,,,,11010,0002,2022_Mar_02_1425,localizer,2021.1.3,60.00041999216812,
block,scenes,scenes017.bmp,,,,,0,109,109,109,,,,,,,,,,,,,,,,,,,,,,,,,,,,,,,,,,,,,,,,,,None,,664.1353587599821,None,664.1353587599821,None,2022-03-02-14:36:11.084605,664.145640600007,664.4524547999026,664.145640600007,None,None,664.145640600007,None,664.9518204599968,None,,,,11010,0002,2022_Mar_02_1425,localizer,2021.1.3,60.00041999216812,
block,scenes,scenes009.bmp,,,,,0,110,110,110,,,,,,,,,,,,,,,,,,,,,,,,,,,,,,,,,,,,,,,,,,None,,664.9518204599968,None,664.9518204599968,None,2022-03-02-14:36:11.901051,664.9565772999777,665.2688286999473,664.9565772999777,None,None,664.9565772999777,None,665.768659959978,None,,,,11010,0002,2022_Mar_02_1425,localizer,2021.1.3,60.00041999216812,
block,scenes,scenes004.bmp,,,,,0,111,111,111,,,,,,,,,,,,,,,,,,,,,,,,,,,,,,,,,,,,,,,,,,None,,665.768659959978,None,665.768659959978,None,2022-03-02-14:36:12.717927,665.7836457999656,666.0888500999426,665.7836457999656,None,None,665.7836457999656,None,666.5861136599793,None,,,,11010,0002,2022_Mar_02_1425,localizer,2021.1.3,60.00041999216812,
block,scenes,scenes008.bmp,,,,,0,112,112,112,,,,,,,,,,,,,,,,,,,,,,,,,,,,,,,,,,,,,,,,,,None,,666.5861136599793,None,666.5861136599793,None,2022-03-02-14:36:13.536329,666.5869580999715,666.8862479999661,666.5869580999715,None,None,666.5869580999715,None,667.4015762599535,None,,,,11010,0002,2022_Mar_02_1425,localizer,2021.1.3,60.00041999216812,
block,scenes,scenes002.bmp,,,,,0,113,113,113,,,,,,,,,,,,,,,,,,,,,,,,,,,,,,,,,,,,,,,,,,None,,667.4015762599535,None,667.4015762599535,None,2022-03-02-14:36:14.350807,667.4105587999802,667.7187611999689,667.4105587999802,None,None,667.4105587999802,None,668.2199662599829,None,,,,11010,0002,2022_Mar_02_1425,localizer,2021.1.3,60.00041999216812,
block,scenes,scenes019.bmp,,,,,0,114,114,114,,,,,,,,,,,,,,,,,,,,,,,,,,,,,,,,,,,,,,,,,,None,,668.2199662599829,None,668.2199662599829,None,2022-03-02-14:36:15.171173,668.2224630999845,668.5368426999776,668.2224630999845,None,None,668.2224630999845,None,669.0366198599455,None,,,,11010,0002,2022_Mar_02_1425,localizer,2021.1.3,60.00041999216812,
block,scenes,scenes020.bmp,,,,,0,115,115,115,,,,,,,,,,,,,,,,,,,,,,,,,,,,,,,,,,,,,,,,,,None,,669.0366198599455,None,669.0366198599455,None,2022-03-02-14:36:15.987825,669.0450504999608,669.3520560999168,669.0450504999608,None,None,669.0450504999608,None,669.8426306600101,None,,,,11010,0002,2022_Mar_02_1425,localizer,2021.1.3,60.00041999216812,
block,scenes,scenes032.bmp,,,,,0,116,116,116,,,,,,,,,,,,,,,,,,,,,,,,,,,,,,,,,,,,,,,,,,None,,669.8426306600101,None,669.8426306600101,None,2022-03-02-14:36:16.797666,669.8557364000008,670.1684888999444,669.8557364000008,None,None,669.8557364000008,None,670.6523254599539,None,,,,11010,0002,2022_Mar_02_1425,localizer,2021.1.3,60.00041999216812,
block,scenes,scenes087.bmp,,,,,0,117,117,117,,,,,,,,,,,,,,,,,,,,,,,,,,,,,,,,,,,,,,,,,,None,,670.6523254599539,None,670.6523254599539,None,2022-03-02-14:36:17.601595,670.6534476999659,670.9693300999934,670.6534476999659,None,None,670.6534476999659,None,671.468839159899,None,,,,11010,0002,2022_Mar_02_1425,localizer,2021.1.3,60.00041999216812,
block,scenes,scenes052.bmp,,,,,0,118,118,118,,,,,,,,,,,,,,,,,,,,,,,,,,,,,,,,,,,,,,,,,,None,,671.468839159899,None,671.468839159899,None,2022-03-02-14:36:18.418267,671.469825899927,671.785537699936,671.469825899927,None,None,671.469825899927,None,672.268899459939,None,,,,11010,0002,2022_Mar_02_1425,localizer,2021.1.3,60.00041999216812,
block,scenes,scenes029.bmp,,,,,0,119,119,119,,,,,,,,,,,,,,,,,,,,,,,,,,,,,,,,,,,,,,,,,,None,,672.268899459939,None,672.268899459939,None,2022-03-02-14:36:19.220126,672.2813073999714,672.5856187999016,672.2813073999714,672.2813073999714,None,672.2813073999714,672.2813073999714,673.085891559918,None,,,,11010,0002,2022_Mar_02_1425,localizer,2021.1.3,60.00041999216812,
block,scenes,scenes062.bmp,,,,,0,120,120,120,,,,,,,,,,,,,,,,,,,,,,,,,,,,,,,,,,,,,,,,,,None,,673.085891559918,None,673.085891559918,None,2022-03-02-14:36:20.036115,673.0928139999742,673.4022475999082,673.0928139999742,None,None,673.0928139999742,None,673.9019595599617,None,,,,11010,0002,2022_Mar_02_1425,localizer,2021.1.3,60.00041999216812,
block_end,scenes,scenes064.bmp,,,,,0,121,121,121,,,,,,,,,,,,,,,,,,,,,,,,,,,,,,,,,,,,,,,,,,None,,673.9019595599617,None,673.9019595599617,None,2022-03-02-14:36:20.851197,673.9117175999563,674.2184425999876,673.9117175999563,None,None,673.9117175999563,None,674.7184356599697,None,,,,11010,0002,2022_Mar_02_1425,localizer,2021.1.3,60.00041999216812,
null_block,null_block,null_block.bmp,,,,,0,122,122,122,,,,,,,,,,,,,,,,,,,,,,,,,,,,,,,,,,,,,,,,,,t,1.7692923999857157,674.7186270999955,None,674.7186270999955,None,2022-03-02-14:36:23.467105,676.5184667599038,None,676.5184667599038,None,None,676.5184667599038,None,676.521398599958,None,,,,11010,0002,2022_Mar_02_1425,localizer,2021.1.3,60.00041999216812,
block_start,scenes,scenes004.bmp,,,,,0,123,123,123,,,,,,,,,,,,,,,,,,,,,,,,,,,,,,,,,,,,,,,,,,t,1.950787300011143,688.5360527999001,None,688.5360527999001,None,2022-03-02-14:36:37.451925,690.5032663999591,690.8190251999767,690.5032663999591,None,None,690.5032663999591,None,691.3182354599354,None,,,,11010,0002,2022_Mar_02_1425,localizer,2021.1.3,60.00041999216812,
block,scenes,scenes083.bmp,,,,,0,124,124,124,,,,,,,,,,,,,,,,,,,,,,,,,,,,,,,,,,,,,,,,,,None,,691.3182354599354,None,691.3182354599354,None,2022-03-02-14:36:38.266215,691.3221209999174,691.6351272999309,691.3221209999174,None,None,691.3221209999174,None,692.1349468599889,None,,,,11010,0002,2022_Mar_02_1425,localizer,2021.1.3,60.00041999216812,
block,scenes,scenes048.bmp,,,,,0,125,125,125,,,,,,,,,,,,,,,,,,,,,,,,,,,,,,,,,,,,,,,,,,None,,692.1349468599889,None,692.1349468599889,None,2022-03-02-14:36:39.084817,692.1380263000028,692.4517349000089,692.1380263000028,None,None,692.1380263000028,None,692.9516978599946,None,,,,11010,0002,2022_Mar_02_1425,localizer,2021.1.3,60.00041999216812,
block,scenes,scenes063.bmp,,,,,0,126,126,126,,,,,,,,,,,,,,,,,,,,,,,,,,,,,,,,,,,,,,,,,,None,,692.9516978599946,None,692.9516978599946,None,2022-03-02-14:36:39.901157,692.952932599932,693.2684454999398,692.952932599932,None,None,692.952932599932,None,693.7681415599887,None,,,,11010,0002,2022_Mar_02_1425,localizer,2021.1.3,60.00041999216812,
block,scenes,scenes039.bmp,,,,,0,127,127,127,,,,,,,,,,,,,,,,,,,,,,,,,,,,,,,,,,,,,,,,,,None,,693.7681415599887,None,693.7681415599887,None,2022-03-02-14:36:40.716666,693.7698572999798,694.0690641999245,693.7698572999798,None,None,693.7698572999798,None,694.5848240599386,None,,,,11010,0002,2022_Mar_02_1425,localizer,2021.1.3,60.00041999216812,
block,scenes,scenes013.bmp,,,,,0,128,128,128,,,,,,,,,,,,,,,,,,,,,,,,,,,,,,,,,,,,,,,,,,None,,694.5848240599386,None,694.5848240599386,None,2022-03-02-14:36:41.534554,694.5939573999494,694.9039828999666,694.5939573999494,None,None,694.5939573999494,None,695.4032727599493,None,,,,11010,0002,2022_Mar_02_1425,localizer,2021.1.3,60.00041999216812,
block,scenes,scenes030.bmp,,,,,0,129,129,129,,,,,,,,,,,,,,,,,,,,,,,,,,,,,,,,,,,,,,,,,,None,,695.4032727599493,None,695.4032727599493,None,2022-03-02-14:36:42.354268,695.4117164999479,695.7187607999658,695.4117164999479,None,None,695.4117164999479,None,696.2187410599669,None,,,,11010,0002,2022_Mar_02_1425,localizer,2021.1.3,60.00041999216812,
block,scenes,scenes059.bmp,,,,,0,130,130,130,,,,,,,,,,,,,,,,,,,,,,,,,,,,,,,,,,,,,,,,,,None,,696.2187410599669,None,696.2187410599669,None,2022-03-02-14:36:43.167466,696.2279676999897,696.5352585999062,696.2279676999897,None,None,696.2279676999897,None,697.0352991599008,None,,,,11010,0002,2022_Mar_02_1425,localizer,2021.1.3,60.00041999216812,
block,scenes,scenes058.bmp,,,,,0,131,131,131,,,,,,,,,,,,,,,,,,,,,,,,,,,,,,,,,,,,,,,,,,None,,697.0352991599008,None,697.0352991599008,None,2022-03-02-14:36:43.983407,697.043817800004,697.3517295999918,697.043817800004,None,None,697.043817800004,None,697.8518577599549,None,,,,11010,0002,2022_Mar_02_1425,localizer,2021.1.3,60.00041999216812,
block,scenes,scenes058.bmp,,,,,0,132,132,132,,,,,,,,,,,,,,,,,,,,,,,,,,,,,,,,,,,,,,,,,,None,,697.8518577599549,None,697.8518577599549,None,2022-03-02-14:36:44.800562,697.8533157999627,698.1684965000022,697.8533157999627,None,y,697.8533157999627,None,698.6679331599386,None,0.4748484999872744,,,11010,0002,2022_Mar_02_1425,localizer,2021.1.3,60.00041999216812,
block,scenes,scenes026.bmp,,,,,0,133,133,133,,,,,,,,,,,,,,,,,,,,,,,,,,,,,,,,,,,,,,,,,,None,,698.6679331599386,None,698.6679331599386,None,2022-03-02-14:36:45.616478,698.6738914999878,698.9873676999705,698.6738914999878,None,None,698.6738914999878,None,699.4855691599311,None,,,,11010,0002,2022_Mar_02_1425,localizer,2021.1.3,60.00041999216812,
block,scenes,scenes038.bmp,,,,,0,134,134,134,,,,,,,,,,,,,,,,,,,,,,,,,,,,,,,,,,,,,,,,,,None,,699.4855691599311,None,699.4855691599311,None,2022-03-02-14:36:46.435270,699.4875774999382,699.802750099916,699.4875774999382,None,None,699.4875774999382,None,700.3025079599698,None,,,,11010,0002,2022_Mar_02_1425,localizer,2021.1.3,60.00041999216812,
block,scenes,scenes054.bmp,,,,,0,135,135,135,,,,,,,,,,,,,,,,,,,,,,,,,,,,,,,,,,,,,,,,,,None,,700.3025079599698,None,700.3025079599698,None,2022-03-02-14:36:47.251513,700.3094046999468,700.6202262999723,700.3094046999468,None,None,700.3094046999468,None,701.1197707599146,None,,,,11010,0002,2022_Mar_02_1425,localizer,2021.1.3,60.00041999216812,
block,scenes,scenes057.bmp,,,,,0,136,136,136,,,,,,,,,,,,,,,,,,,,,,,,,,,,,,,,,,,,,,,,,,None,,701.1197707599146,None,701.1197707599146,None,2022-03-02-14:36:48.069652,701.1296355999075,701.4355690999655,701.1296355999075,None,None,701.1296355999075,None,701.9351723600063,None,,,,11010,0002,2022_Mar_02_1425,localizer,2021.1.3,60.00041999216812,
block_end,scenes,scenes067.bmp,,,,,0,137,137,137,,,,,,,,,,,,,,,,,,,,,,,,,,,,,,,,,,,,,,,,,,None,,701.9351723600063,None,701.9351723600063,None,2022-03-02-14:36:48.883564,701.9367415999295,702.2519820999587,701.9367415999295,None,None,701.9367415999295,None,702.7517538600019,None,,,,11010,0002,2022_Mar_02_1425,localizer,2021.1.3,60.00041999216812,
block_start,objects,objects046.bmp,,,,,0,138,138,138,,,,,,,,,,,,,,,,,,,,,,,,,,,,,,,,,,,,,,,,,,t,1.7347489999374375,702.7519730000058,None,702.7519730000058,None,2022-03-02-14:36:51.450907,704.503338099923,704.8185372999869,704.503338099923,None,None,704.503338099923,None,705.3184562599869,None,,,,11010,0002,2022_Mar_02_1425,localizer,2021.1.3,60.00041999216812,
block,objects,objects043.bmp,,,,,0,139,139,139,,,,,,,,,,,,,,,,,,,,,,,,,,,,,,,,,,,,,,,,,,None,,705.3184562599869,None,705.3184562599869,None,2022-03-02-14:36:52.267299,705.3197670999216,705.6354341999395,705.3197670999216,None,None,705.3197670999216,None,706.1188239599229,None,,,,11010,0002,2022_Mar_02_1425,localizer,2021.1.3,60.00041999216812,
block,objects,objects012.bmp,,,,,0,140,140,140,,,,,,,,,,,,,,,,,,,,,,,,,,,,,,,,,,,,,,,,,,None,,706.1188239599229,None,706.1188239599229,None,2022-03-02-14:36:53.069833,706.1198304999853,706.4352756999433,706.1198304999853,706.1198304999853,None,706.1198304999853,706.1198304999853,706.9353079599911,None,,,,11010,0002,2022_Mar_02_1425,localizer,2021.1.3,60.00041999216812,
block,objects,objects007.bmp,,,,,0,141,141,141,,,,,,,,,,,,,,,,,,,,,,,,,,,,,,,,,,,,,,,,,,None,,706.9353079599911,None,706.9353079599911,None,2022-03-02-14:36:53.883177,706.9435419999063,707.2515667999396,706.9435419999063,None,None,706.9435419999063,None,707.7525882599526,None,,,,11010,0002,2022_Mar_02_1425,localizer,2021.1.3,60.00041999216812,
block,objects,objects016.bmp,,,,,0,142,142,142,,,,,,,,,,,,,,,,,,,,,,,,,,,,,,,,,,,,,,,,,,None,,707.7525882599526,None,707.7525882599526,None,2022-03-02-14:36:54.701454,707.7535557999508,708.0685343999648,707.7535557999508,None,None,707.7535557999508,None,708.5528969599051,None,,,,11010,0002,2022_Mar_02_1425,localizer,2021.1.3,60.00041999216812,
block,objects,objects013.bmp,,,,,0,143,143,143,,,,,,,,,,,,,,,,,,,,,,,,,,,,,,,,,,,,,,,,,,None,,708.5528969599051,None,708.5528969599051,None,2022-03-02-14:36:55.502854,708.5538262999617,708.8698837999254,708.5538262999617,708.5538262999617,None,708.5538262999617,708.5538262999617,709.3679939600057,None,,,,11010,0002,2022_Mar_02_1425,localizer,2021.1.3,60.00041999216812,
block,objects,objects080.bmp,,,,,0,144,144,144,,,,,,,,,,,,,,,,,,,,,,,,,,,,,,,,,,,,,,,,,,None,,709.3679939600057,None,709.3679939600057,None,2022-03-02-14:36:56.316302,709.3698063999182,709.6852369999979,709.3698063999182,None,None,709.3698063999182,None,710.1690605599084,None,,,,11010,0002,2022_Mar_02_1425,localizer,2021.1.3,60.00041999216812,
block,objects,objects024.bmp,,,,,0,145,145,145,,,,,,,,,,,,,,,,,,,,,,,,,,,,,,,,,,,,,,,,,,None,,710.1690605599084,None,710.1690605599084,None,2022-03-02-14:36:57.120080,710.1834803000093,710.4851203999715,710.1834803000093,710.1834803000093,None,710.1834803000093,710.1834803000093,710.9852124600089,None,,,,11010,0002,2022_Mar_02_1425,localizer,2021.1.3,60.00041999216812,
block,objects,objects076.bmp,,,,,0,146,146,146,,,,,,,,,,,,,,,,,,,,,,,,,,,,,,,,,,,,,,,,,,None,,710.9852124600089,None,710.9852124600089,None,2022-03-02-14:36:57.933387,710.9874668999109,711.3018443000037,710.9874668999109,None,None,710.9874668999109,None,711.8017523599207,None,,,,11010,0002,2022_Mar_02_1425,localizer,2021.1.3,60.00041999216812,
block,objects,objects050.bmp,,,,,0,147,147,147,,,,,,,,,,,,,,,,,,,,,,,,,,,,,,,,,,,,,,,,,,None,,711.8017523599207,None,711.8017523599207,None,2022-03-02-14:36:58.750383,711.8051752999891,712.1185901999706,711.8051752999891,None,None,711.8051752999891,None,712.6181451599929,None,,,,11010,0002,2022_Mar_02_1425,localizer,2021.1.3,60.00041999216812,
block,objects,objects056.bmp,,,,,0,148,148,148,,,,,,,,,,,,,,,,,,,,,,,,,,,,,,,,,,,,,,,,,,None,,712.6181451599929,None,712.6181451599929,None,2022-03-02-14:36:59.567529,712.6218307999661,712.9357290999033,712.6218307999661,None,None,712.6218307999661,None,713.4351198599558,None,,,,11010,0002,2022_Mar_02_1425,localizer,2021.1.3,60.00041999216812,
block,objects,objects025.bmp,,,,,0,149,149,149,,,,,,,,,,,,,,,,,,,,,,,,,,,,,,,,,,,,,,,,,,None,,713.4351198599558,None,713.4351198599558,None,2022-03-02-14:37:00.383990,713.4454756999621,713.7521425000159,713.4454756999621,None,None,713.4454756999621,None,714.2525668599061,None,,,,11010,0002,2022_Mar_02_1425,localizer,2021.1.3,60.00041999216812,
block,objects,objects059.bmp,,,,,0,150,150,150,,,,,,,,,,,,,,,,,,,,,,,,,,,,,,,,,,,,,,,,,,None,,714.2525668599061,None,714.2525668599061,None,2022-03-02-14:37:01.201500,714.254136399948,714.5690836999565,714.254136399948,None,None,714.254136399948,None,715.0683048599982,None,,,,11010,0002,2022_Mar_02_1425,localizer,2021.1.3,60.00041999216812,
block,objects,objects001.bmp,,,,,0,151,151,151,,,,,,,,,,,,,,,,,,,,,,,,,,,,,,,,,,,,,,,,,,None,,715.0683048599982,None,715.0683048599982,None,2022-03-02-14:37:02.016927,715.0774835000047,715.3850251999684,715.0774835000047,None,None,715.0774835000047,None,715.885078959947,None,,,,11010,0002,2022_Mar_02_1425,localizer,2021.1.3,60.00041999216812,
block_end,objects,objects083.bmp,,,,,0,152,152,152,,,,,,,,,,,,,,,,,,,,,,,,,,,,,,,,,,,,,,,,,,None,,715.885078959947,None,715.885078959947,None,2022-03-02-14:37:02.832996,715.8865390999708,716.1862583999755,715.8865390999708,None,None,715.8865390999708,None,716.6861407599296,None,,,,11010,0002,2022_Mar_02_1425,localizer,2021.1.3,60.00041999216812,
block_start,scrambled,scrambled080.bmp,,,,,0,153,153,153,,,,,,,,,,,,,,,,,,,,,,,,,,,,,,,,,,,,,,,,,,t,1.8006634000921622,716.6859570000088,None,716.6859570000088,None,2022-03-02-14:37:05.450391,718.5041533999611,718.8186196999159,718.5041533999611,None,None,718.5041533999611,None,719.3184548599762,None,,,,11010,0002,2022_Mar_02_1425,localizer,2021.1.3,60.00041999216812,
block,scrambled,scrambled043.bmp,,,,,0,154,154,154,,,,,,,,,,,,,,,,,,,,,,,,,,,,,,,,,,,,,,,,,,None,,719.3184548599762,None,719.3184548599762,None,2022-03-02-14:37:06.268211,719.320030999952,719.6191901999991,719.320030999952,None,None,719.320030999952,None,720.1193189599668,None,,,,11010,0002,2022_Mar_02_1425,localizer,2021.1.3,60.00041999216812,
block,scrambled,scrambled028.bmp,,,,,0,155,155,155,,,,,,,,,,,,,,,,,,,,,,,,,,,,,,,,,,,,,,,,,,None,,720.1193189599668,None,720.1193189599668,None,2022-03-02-14:37:07.069994,720.1258315999294,720.4352931999601,720.1258315999294,720.1258315999294,None,720.1258315999294,720.1258315999294,720.935963259975,None,,,,11010,0002,2022_Mar_02_1425,localizer,2021.1.3,60.00041999216812,
block,scrambled,scrambled058.bmp,,,,,0,156,156,156,,,,,,,,,,,,,,,,,,,,,,,,,,,,,,,,,,,,,,,,,,None,,720.935963259975,None,720.935963259975,None,2022-03-02-14:37:07.885312,720.9391715999227,721.2519493999425,720.9391715999227,None,None,720.9391715999227,None,721.7518951599137,None,,,,11010,0002,2022_Mar_02_1425,localizer,2021.1.3,60.00041999216812,
block,scrambled,scrambled001.bmp,,,,,0,157,157,157,,,,,,,,,,,,,,,,,,,,,,,,,,,,,,,,,,,,,,,,,,None,,721.7518951599137,None,721.7518951599137,None,2022-03-02-14:37:08.700452,721.7536990999943,722.0688664999325,721.7536990999943,None,None,721.7536990999943,None,722.5684878599947,None,,,,11010,0002,2022_Mar_02_1425,localizer,2021.1.3,60.00041999216812,
block,scrambled,scrambled009.bmp,,,,,0,158,158,158,,,,,,,,,,,,,,,,,,,,,,,,,,,,,,,,,,,,,,,,,,None,,722.5684878599947,None,722.5684878599947,None,2022-03-02-14:37:09.516463,722.5768084999872,722.8854798999382,722.5768084999872,None,None,722.5768084999872,None,723.3848976599635,None,,,,11010,0002,2022_Mar_02_1425,localizer,2021.1.3,60.00041999216812,
block,scrambled,scrambled031.bmp,,,,,0,159,159,159,,,,,,,,,,,,,,,,,,,,,,,,,,,,,,,,,,,,,,,,,,None,,723.3848976599635,None,723.3848976599635,None,2022-03-02-14:37:10.334623,723.3865259999875,723.7020534999901,723.3865259999875,None,None,723.3865259999875,None,724.1861047600047,None,,,,11010,0002,2022_Mar_02_1425,localizer,2021.1.3,60.00041999216812,
block,scrambled,scrambled024.bmp,,,,,0,160,160,160,,,,,,,,,,,,,,,,,,,,,,,,,,,,,,,,,,,,,,,,,,None,,724.1861047600047,None,724.1861047600047,None,2022-03-02-14:37:11.138274,724.1882028999971,724.5020457999781,724.1882028999971,724.1882028999971,None,724.1882028999971,724.1882028999971,725.0024098599912,None,,,,11010,0002,2022_Mar_02_1425,localizer,2021.1.3,60.00041999216812,
block,scrambled,scrambled034.bmp,,,,,0,161,161,161,,,,,,,,,,,,,,,,,,,,,,,,,,,,,,,,,,,,,,,,,,None,,725.0024098599912,None,725.0024098599912,None,2022-03-02-14:37:11.951326,725.0086087000091,725.3187859999016,725.0086087000091,None,None,725.0086087000091,None,725.8184972599498,None,,,,11010,0002,2022_Mar_02_1425,localizer,2021.1.3,60.00041999216812,
block,scrambled,scrambled084.bmp,,,,,0,162,162,162,,,,,,,,,,,,,,,,,,,,,,,,,,,,,,,,,,,,,,,,,,None,,725.8184972599498,None,725.8184972599498,None,2022-03-02-14:37:12.768173,725.820080799982,726.1351857999107,725.820080799982,None,None,725.820080799982,None,726.6353072599392,None,,,,11010,0002,2022_Mar_02_1425,localizer,2021.1.3,60.00041999216812,
block,scrambled,scrambled048.bmp,,,,,0,163,163,163,,,,,,,,,,,,,,,,,,,,,,,,,,,,,,,,,,,,,,,,,,None,,726.6353072599392,None,726.6353072599392,None,2022-03-02-14:37:13.585170,726.6365683999611,726.9359435999068,726.6365683999611,None,None,726.6365683999611,None,727.4525261598989,None,,,,11010,0002,2022_Mar_02_1425,localizer,2021.1.3,60.00041999216812,
block,scrambled,scrambled074.bmp,,,,,0,164,164,164,,,,,,,,,,,,,,,,,,,,,,,,,,,,,,,,,,,,,,,,,,None,,727.4525261598989,None,727.4525261598989,None,2022-03-02-14:37:14.401636,727.4573711999692,727.768637000001,727.4573711999692,None,None,727.4573711999692,None,728.2685993599822,None,,,,11010,0002,2022_Mar_02_1425,localizer,2021.1.3,60.00041999216812,
block,scrambled,scrambled082.bmp,,,,,0,165,165,165,,,,,,,,,,,,,,,,,,,,,,,,,,,,,,,,,,,,,,,,,,None,,728.2685993599822,None,728.2685993599822,None,2022-03-02-14:37:15.216568,728.2706521999789,728.585339399986,728.2706521999789,None,None,728.2706521999789,None,729.0850817599218,None,,,,11010,0002,2022_Mar_02_1425,localizer,2021.1.3,60.00041999216812,
block,scrambled,scrambled085.bmp,,,,,0,166,166,166,,,,,,,,,,,,,,,,,,,,,,,,,,,,,,,,,,,,,,,,,,None,,729.0850817599218,None,729.0850817599218,None,2022-03-02-14:37:16.033828,729.0942179999547,729.4022038999246,729.0942179999547,None,None,729.0942179999547,None,729.9017661600025,None,,,,11010,0002,2022_Mar_02_1425,localizer,2021.1.3,60.00041999216812,
block_end,scrambled,scrambled068.bmp,,,,,0,167,167,167,,,,,,,,,,,,,,,,,,,,,,,,,,,,,,,,,,,,,,,,,,None,,729.9017661600025,None,729.9017661600025,None,2022-03-02-14:37:16.850363,729.9058576999232,730.2192072999896,729.9058576999232,None,None,729.9058576999232,None,730.7179179599858,None,,,,11010,0002,2022_Mar_02_1425,localizer,2021.1.3,60.00041999216812,
block_start,faces,faces003.bmp,,,,,0,168,168,168,,,,,,,,,,,,,,,,,,,,,,,,,,,,,,,,,,,,,,,,,,t,1.7685409999685362,730.7182079999475,None,730.7182079999475,None,2022-03-02-14:37:19.450883,732.5037109999685,732.8191140999552,732.5037109999685,None,None,732.5037109999685,None,733.3179236600059,None,,,,11010,0002,2022_Mar_02_1425,localizer,2021.1.3,60.00041999216812,
block,faces,faces008.bmp,,,,,0,169,169,169,,,,,,,,,,,,,,,,,,,,,,,,,,,,,,,,,,,,,,,,,,None,,733.3179236600059,None,733.3179236600059,None,2022-03-02-14:37:20.267470,733.3239334999816,733.6359347999096,733.3239334999816,None,None,733.3239334999816,None,734.1360638599959,None,,,,11010,0002,2022_Mar_02_1425,localizer,2021.1.3,60.00041999216812,
block,faces,faces019.bmp,,,,,0,170,170,170,,,,,,,,,,,,,,,,,,,,,,,,,,,,,,,,,,,,,,,,,,None,,734.1360638599959,None,734.1360638599959,None,2022-03-02-14:37:21.086345,734.1521119999234,734.4520369999809,734.1521119999234,None,None,734.1521119999234,None,734.9525105598965,None,,,,11010,0002,2022_Mar_02_1425,localizer,2021.1.3,60.00041999216812,
block,faces,faces042.bmp,,,,,0,171,171,171,,,,,,,,,,,,,,,,,,,,,,,,,,,,,,,,,,,,,,,,,,None,,734.9525105598965,None,734.9525105598965,None,2022-03-02-14:37:21.902032,734.9535557999043,735.2692624999909,734.9535557999043,None,None,734.9535557999043,None,735.7690791599103,None,,,,11010,0002,2022_Mar_02_1425,localizer,2021.1.3,60.00041999216812,
block,faces,faces045.bmp,,,,,0,172,172,172,,,,,,,,,,,,,,,,,,,,,,,,,,,,,,,,,,,,,,,,,,None,,735.7690791599103,None,735.7690791599103,None,2022-03-02-14:37:22.719225,735.7701432999456,736.0860153000103,735.7701432999456,None,None,735.7701432999456,None,736.5692859599018,None,,,,11010,0002,2022_Mar_02_1425,localizer,2021.1.3,60.00041999216812,
block,faces,faces081.bmp,,,,,0,173,173,173,,,,,,,,,,,,,,,,,,,,,,,,,,,,,,,,,,,,,,,,,,None,,736.5692859599018,None,736.5692859599018,None,2022-03-02-14:37:23.520803,736.5837396999123,736.8862284999341,736.5837396999123,736.5837396999123,None,736.5837396999123,736.5837396999123,737.3856991598965,None,,,,11010,0002,2022_Mar_02_1425,localizer,2021.1.3,60.00041999216812,
block,faces,faces012.bmp,,,,,0,174,174,174,,,,,,,,,,,,,,,,,,,,,,,,,,,,,,,,,,,,,,,,,,None,,737.3856991598965,None,737.3856991598965,None,2022-03-02-14:37:24.335492,737.386789000011,737.7025953999255,737.386789000011,None,None,737.386789000011,None,738.1860474599176,None,,,,11010,0002,2022_Mar_02_1425,localizer,2021.1.3,60.00041999216812,
block,faces,faces048.bmp,,,,,0,175,175,175,,,,,,,,,,,,,,,,,,,,,,,,,,,,,,,,,,,,,,,,,,None,,738.1860474599176,None,738.1860474599176,None,2022-03-02-14:37:25.137558,738.1890502999304,738.5026489999145,738.1890502999304,738.1890502999304,None,738.1890502999304,738.1890502999304,739.0027467599954,None,,,,11010,0002,2022_Mar_02_1425,localizer,2021.1.3,60.00041999216812,
block,faces,faces056.bmp,,,,,0,176,176,176,,,,,,,,,,,,,,,,,,,,,,,,,,,,,,,,,,,,,,,,,,None,,739.0027467599954,None,739.0027467599954,None,2022-03-02-14:37:25.952070,739.0135687999427,739.3193071999121,739.0135687999427,None,None,739.0135687999427,None,739.825525859918,None,,,,11010,0002,2022_Mar_02_1425,localizer,2021.1.3,60.00041999216812,
block,faces,faces021.bmp,,,,,0,177,177,177,,,,,,,,,,,,,,,,,,,,,,,,,,,,,,,,,,,,,,,,,,None,,739.825525859918,None,739.825525859918,None,2022-03-02-14:37:26.776165,739.8317218999146,740.136001399951,739.8317218999146,None,None,739.8317218999146,None,740.635866560007,None,,,,11010,0002,2022_Mar_02_1425,localizer,2021.1.3,60.00041999216812,
block,faces,faces062.bmp,,,,,0,178,178,178,,,,,,,,,,,,,,,,,,,,,,,,,,,,,,,,,,,,,,,,,,None,,740.635866560007,None,740.635866560007,None,2022-03-02-14:37:27.585450,740.6462446999503,740.9527656999417,740.6462446999503,None,None,740.6462446999503,None,741.4523778599338,None,,,,11010,0002,2022_Mar_02_1425,localizer,2021.1.3,60.00041999216812,
block,faces,faces038.bmp,,,,,0,179,179,179,,,,,,,,,,,,,,,,,,,,,,,,,,,,,,,,,,,,,,,,,,None,,741.4523778599338,None,741.4523778599338,None,2022-03-02-14:37:28.401280,741.4701801999472,741.7860515000066,741.4701801999472,None,None,741.4701801999472,None,742.2688217599294,None,,,,11010,0002,2022_Mar_02_1425,localizer,2021.1.3,60.00041999216812,
block,faces,faces047.bmp,,,,,0,180,180,180,,,,,,,,,,,,,,,,,,,,,,,,,,,,,,,,,,,,,,,,,,None,,742.2688217599294,None,742.2688217599294,None,2022-03-02-14:37:29.218145,742.2824885000009,742.5860560999718,742.2824885000009,None,None,742.2824885000009,None,743.0856794599327,None,,,,11010,0002,2022_Mar_02_1425,localizer,2021.1.3,60.00041999216812,
block,faces,faces068.bmp,,,,,0,181,181,181,,,,,,,,,,,,,,,,,,,,,,,,,,,,,,,,,,,,,,,,,,None,,743.0856794599327,None,743.0856794599327,None,2022-03-02-14:37:30.035002,743.086980199907,743.4025618999731,743.086980199907,None,None,743.086980199907,None,743.9026000599493,None,,,,11010,0002,2022_Mar_02_1425,localizer,2021.1.3,60.00041999216812,
block_end,faces,faces089.bmp,,,,,0,182,182,182,,,,,,,,,,,,,,,,,,,,,,,,,,,,,,,,,,,,,,,,,,None,,743.9026000599493,None,743.9026000599493,None,2022-03-02-14:37:30.852717,743.9035906000063,744.2193614999996,743.9035906000063,None,None,743.9035906000063,None,744.7191220599576,None,,,,11010,0002,2022_Mar_02_1425,localizer,2021.1.3,60.00041999216812,
block_start,objects,objects064.bmp,,,,,0,183,183,183,,,,,,,,,,,,,,,,,,,,,,,,,,,,,,,,,,,,,,,,,,t,1.7677215000148863,744.7193474000087,None,744.7193474000087,None,2022-03-02-14:37:33.451250,746.503708699951,746.8193235999206,746.503708699951,None,None,746.503708699951,None,747.3189817599138,None,,,,11010,0002,2022_Mar_02_1425,localizer,2021.1.3,60.00041999216812,
block,objects,objects082.bmp,,,,,0,184,184,184,,,,,,,,,,,,,,,,,,,,,,,,,,,,,,,,,,,,,,,,,,None,,747.3189817599138,None,747.3189817599138,None,2022-03-02-14:37:34.267303,747.322203699965,747.6355405999348,747.322203699965,None,None,747.322203699965,None,748.1213256599964,None,,,,11010,0002,2022_Mar_02_1425,localizer,2021.1.3,60.00041999216812,
block,objects,objects066.bmp,,,,,0,185,185,185,,,,,,,,,,,,,,,,,,,,,,,,,,,,,,,,,,,,,,,,,,None,,748.1213256599964,None,748.1213256599964,None,2022-03-02-14:37:35.071960,748.1223417000147,748.436017,748.1223417000147,748.1223417000147,None,748.1223417000147,748.1223417000147,748.9359411599231,None,,,,11010,0002,2022_Mar_02_1425,localizer,2021.1.3,60.00041999216812,
block,objects,objects033.bmp,,,,,0,186,186,186,,,,,,,,,,,,,,,,,,,,,,,,,,,,,,,,,,,,,,,,,,None,,748.9359411599231,None,748.9359411599231,None,2022-03-02-14:37:35.885267,748.9369879999431,749.2527687000111,748.9369879999431,None,None,748.9369879999431,None,749.7379782599979,None,,,,11010,0002,2022_Mar_02_1425,localizer,2021.1.3,60.00041999216812,
block,objects,objects047.bmp,,,,,0,187,187,187,,,,,,,,,,,,,,,,,,,,,,,,,,,,,,,,,,,,,,,,,,None,,749.7379782599979,None,749.7379782599979,None,2022-03-02-14:37:36.694438,749.7468834999017,750.0533568999963,749.7468834999017,749.7468834999017,None,749.7468834999017,749.7468834999017,750.5530912599876,None,,,,11010,0002,2022_Mar_02_1425,localizer,2021.1.3,60.00041999216812,
block,objects,objects034.bmp,,,,,0,188,188,188,,,,,,,,,,,,,,,,,,,,,,,,,,,,,,,,,,,,,,,,,,None,,750.5530912599876,None,750.5530912599876,None,2022-03-02-14:37:37.503405,750.5550031999592,750.869370099972,750.5550031999592,None,None,750.5550031999592,None,751.3691649599583,None,,,,11010,0002,2022_Mar_02_1425,localizer,2021.1.3,60.00041999216812,
block,objects,objects056.bmp,,,,,0,189,189,189,,,,,,,,,,,,,,,,,,,,,,,,,,,,,,,,,,,,,,,,,,None,,751.3691649599583,None,751.3691649599583,None,2022-03-02-14:37:38.318493,751.3703088999027,751.6701103999512,751.3703088999027,None,None,751.3703088999027,None,752.1854500599089,None,,,,11010,0002,2022_Mar_02_1425,localizer,2021.1.3,60.00041999216812,
block,objects,objects053.bmp,,,,,0,190,190,190,,,,,,,,,,,,,,,,,,,,,,,,,,,,,,,,,,,,,,,,,,None,,752.1854500599089,None,752.1854500599089,None,2022-03-02-14:37:39.133789,752.1874490999617,752.5029297999572,752.1874490999617,None,None,752.1874490999617,None,753.0024982599658,None,,,,11010,0002,2022_Mar_02_1425,localizer,2021.1.3,60.00041999216812,
block,objects,objects040.bmp,,,,,0,191,191,191,,,,,,,,,,,,,,,,,,,,,,,,,,,,,,,,,,,,,,,,,,None,,753.0024982599658,None,753.0024982599658,None,2022-03-02-14:37:39.952046,753.0138132999418,753.319489199901,753.0138132999418,None,None,753.0138132999418,None,753.8191440599854,None,,,,11010,0002,2022_Mar_02_1425,localizer,2021.1.3,60.00041999216812,
block,objects,objects073.bmp,,,,,0,192,192,192,,,,,,,,,,,,,,,,,,,,,,,,,,,,,,,,,,,,,,,,,,None,,753.8191440599854,None,753.8191440599854,None,2022-03-02-14:37:40.769013,753.8258936000057,754.1363699999638,753.8258936000057,None,None,753.8258936000057,None,754.6359521599603,None,,,,11010,0002,2022_Mar_02_1425,localizer,2021.1.3,60.00041999216812,
block,objects,objects013.bmp,,,,,0,193,193,193,,,,,,,,,,,,,,,,,,,,,,,,,,,,,,,,,,,,,,,,,,None,,754.6359521599603,None,754.6359521599603,None,2022-03-02-14:37:41.585518,754.6369614999276,754.9526404999197,754.6369614999276,None,None,754.6369614999276,None,755.4369114599773,None,,,,11010,0002,2022_Mar_02_1425,localizer,2021.1.3,60.00041999216812,
block,objects,objects035.bmp,,,,,0,194,194,194,,,,,,,,,,,,,,,,,,,,,,,,,,,,,,,,,,,,,,,,,,None,,755.4369114599773,None,755.4369114599773,None,2022-03-02-14:37:42.390400,755.4532510999124,755.7532722000033,755.4532510999124,755.4532510999124,None,755.4532510999124,755.4532510999124,756.2527114599594,None,,,,11010,0002,2022_Mar_02_1425,localizer,2021.1.3,60.00041999216812,
block,objects,objects063.bmp,,,,,0,195,195,195,,,,,,,,,,,,,,,,,,,,,,,,,,,,,,,,,,,,,,,,,,None,,756.2527114599594,None,756.2527114599594,None,2022-03-02-14:37:43.202237,756.2538973999908,756.5697171000065,756.2538973999908,None,None,756.2538973999908,None,757.0692660599831,None,,,,11010,0002,2022_Mar_02_1425,localizer,2021.1.3,60.00041999216812,
block,objects,objects084.bmp,,,,,0,196,196,196,,,,,,,,,,,,,,,,,,,,,,,,,,,,,,,,,,,,,,,,,,None,,757.0692660599831,None,757.0692660599831,None,2022-03-02-14:37:44.018805,757.0702732999343,757.3863186999224,757.0702732999343,None,None,757.0702732999343,None,757.8858077599085,None,,,,11010,0002,2022_Mar_02_1425,localizer,2021.1.3,60.00041999216812,
block_end,objects,objects030.bmp,,,,,0,197,197,197,,,,,,,,,,,,,,,,,,,,,,,,,,,,,,,,,,,,,,,,,,None,,757.8858077599085,None,757.8858077599085,None,2022-03-02-14:37:44.835150,757.8869428999024,758.20288170001,757.8869428999024,None,None,757.8869428999024,None,758.6882350599277,None,,,,11010,0002,2022_Mar_02_1425,localizer,2021.1.3,60.00041999216812,
block_start,scrambled,scrambled052.bmp,,,,,0,198,198,198,,,,,,,,,,,,,,,,,,,,,,,,,,,,,,,,,,,,,,,,,,t,1.7981621000217274,758.6886148999911,None,758.6886148999911,None,2022-03-02-14:37:47.452199,760.5071730999043,760.819660399924,760.5071730999043,None,None,760.5071730999043,None,761.3188905599178,None,,,,11010,0002,2022_Mar_02_1425,localizer,2021.1.3,60.00041999216812,
block,scrambled,scrambled058.bmp,,,,,0,199,199,199,,,,,,,,,,,,,,,,,,,,,,,,,,,,,,,,,,,,,,,,,,None,,761.3188905599178,None,761.3188905599178,None,2022-03-02-14:37:48.267240,761.3206518999068,761.6358607999282,761.3206518999068,None,None,761.3206518999068,None,762.1197246599128,None,,,,11010,0002,2022_Mar_02_1425,localizer,2021.1.3,60.00041999216812,
block,scrambled,scrambled007.bmp,,,,,0,200,200,200,,,,,,,,,,,,,,,,,,,,,,,,,,,,,,,,,,,,,,,,,,None,,762.1197246599128,None,762.1197246599128,None,2022-03-02-14:37:49.072260,762.1228619999019,762.4367237999104,762.1228619999019,762.1228619999019,None,762.1228619999019,762.1228619999019,762.9366704600048,None,,,,11010,0002,2022_Mar_02_1425,localizer,2021.1.3,60.00041999216812,
block,scrambled,scrambled047.bmp,,,,,0,201,201,201,,,,,,,,,,,,,,,,,,,,,,,,,,,,,,,,,,,,,,,,,,None,,762.9366704600048,None,762.9366704600048,None,2022-03-02-14:37:49.886974,762.9371834999183,763.2530322999228,762.9371834999183,None,None,762.9371834999183,None,763.7363922599121,None,,,,11010,0002,2022_Mar_02_1425,localizer,2021.1.3,60.00041999216812,
block,scrambled,scrambled064.bmp,,,,,0,202,202,202,,,,,,,,,,,,,,,,,,,,,,,,,,,,,,,,,,,,,,,,,,None,,763.7363922599121,None,763.7363922599121,None,2022-03-02-14:37:50.689699,763.7487860999536,764.0525950000156,763.7487860999536,763.7487860999536,None,763.7487860999536,763.7487860999536,764.5591936600046,None,,,,11010,0002,2022_Mar_02_1425,localizer,2021.1.3,60.00041999216812,
block,scrambled,scrambled024.bmp,,,,,0,203,203,203,,,,,,,,,,,,,,,,,,,,,,,,,,,,,,,,,,,,,,,,,,None,,764.5591936600046,None,764.5591936600046,None,2022-03-02-14:37:51.514384,764.565823999932,764.8698722999543,764.565823999932,None,None,764.565823999932,None,765.3691197599634,None,,,,11010,0002,2022_Mar_02_1425,localizer,2021.1.3,60.00041999216812,
block,scrambled,scrambled071.bmp,,,,,0,204,204,204,,,,,,,,,,,,,,,,,,,,,,,,,,,,,,,,,,,,,,,,,,None,,765.3691197599634,None,765.3691197599634,None,2022-03-02-14:37:52.317472,765.3775981999934,765.6861779999454,765.3775981999934,None,None,765.3775981999934,None,766.18604035998,None,,,,11010,0002,2022_Mar_02_1425,localizer,2021.1.3,60.00041999216812,
block,scrambled,scrambled030.bmp,,,,,0,205,205,205,,,,,,,,,,,,,,,,,,,,,,,,,,,,,,,,,,,,,,,,,,None,,766.18604035998,None,766.18604035998,None,2022-03-02-14:37:53.135867,766.1973727999721,766.5029877999332,766.1973727999721,None,None,766.1973727999721,None,767.0027225599275,None,,,,11010,0002,2022_Mar_02_1425,localizer,2021.1.3,60.00041999216812,
block,scrambled,scrambled014.bmp,,,,,0,206,206,206,,,,,,,,,,,,,,,,,,,,,,,,,,,,,,,,,,,,,,,,,,None,,767.0027225599275,None,767.0027225599275,None,2022-03-02-14:37:53.952069,767.003819399979,767.3193423999473,767.003819399979,None,None,767.003819399979,None,767.8030272599659,None,,,,11010,0002,2022_Mar_02_1425,localizer,2021.1.3,60.00041999216812,
block,scrambled,scrambled025.bmp,,,,,0,207,207,207,,,,,,,,,,,,,,,,,,,,,,,,,,,,,,,,,,,,,,,,,,None,,767.8030272599659,None,767.8030272599659,None,2022-03-02-14:37:54.755345,767.8060755999759,768.1196054999018,767.8060755999759,767.8060755999759,None,767.8060755999759,767.8060755999759,768.6194990599412,None,,,,11010,0002,2022_Mar_02_1425,localizer,2021.1.3,60.00041999216812,
block,scrambled,scrambled002.bmp,,,,,0,208,208,208,,,,,,,,,,,,,,,,,,,,,,,,,,,,,,,,,,,,,,,,,,None,,768.6194990599412,None,768.6194990599412,None,2022-03-02-14:37:55.568848,768.6205646999879,768.9358626999892,768.6205646999879,None,None,768.6205646999879,None,769.4360270599951,None,,,,11010,0002,2022_Mar_02_1425,localizer,2021.1.3,60.00041999216812,
block,scrambled,scrambled051.bmp,,,,,0,209,209,209,,,,,,,,,,,,,,,,,,,,,,,,,,,,,,,,,,,,,,,,,,None,,769.4360270599951,None,769.4360270599951,None,2022-03-02-14:37:56.385344,769.4451866999734,769.752817099914,769.4451866999734,None,None,769.4451866999734,None,770.2528132599197,None,,,,11010,0002,2022_Mar_02_1425,localizer,2021.1.3,60.00041999216812,
block,scrambled,scrambled079.bmp,,,,,0,210,210,210,,,,,,,,,,,,,,,,,,,,,,,,,,,,,,,,,,,,,,,,,,None,,770.2528132599197,None,770.2528132599197,None,2022-03-02-14:37:57.202163,770.2537287999876,770.5689817999955,770.2537287999876,None,None,770.2537287999876,None,771.0695831599529,None,,,,11010,0002,2022_Mar_02_1425,localizer,2021.1.3,60.00041999216812,
block,scrambled,scrambled057.bmp,,,,,0,211,211,211,,,,,,,,,,,,,,,,,,,,,,,,,,,,,,,,,,,,,,,,,,None,,771.0695831599529,None,771.0695831599529,None,2022-03-02-14:37:58.018934,771.0705824999604,771.3694269999396,771.0705824999604,None,None,771.0705824999604,None,771.8700337599381,None,,,,11010,0002,2022_Mar_02_1425,localizer,2021.1.3,60.00041999216812,
block_end,scrambled,scrambled041.bmp,,,,,0,212,212,212,,,,,,,,,,,,,,,,,,,,,,,,,,,,,,,,,,,,,,,,,,None,,771.8700337599381,None,771.8700337599381,None,2022-03-02-14:37:58.822370,771.8722626999952,772.1862300999928,771.8722626999952,771.8722626999952,None,771.8722626999952,771.8722626999952,772.6713663600036,None,,,,11010,0002,2022_Mar_02_1425,localizer,2021.1.3,60.00041999216812,
block_start,scenes,scenes041.bmp,,,,,0,213,213,213,,,,,,,,,,,,,,,,,,,,,,,,,,,,,,,,,,,,,,,,,,t,1.814621900091879,772.6720314999111,None,772.6720314999111,None,2022-03-02-14:38:01.451541,774.5037191999145,774.8031358999433,774.5037191999145,None,None,774.5037191999145,None,775.3027344599483,None,,,,11010,0002,2022_Mar_02_1425,localizer,2021.1.3,60.00041999216812,
block,scenes,scenes023.bmp,,,,,0,214,214,214,,,,,,,,,,,,,,,,,,,,,,,,,,,,,,,,,,,,,,,,,,None,,775.3027344599483,None,775.3027344599483,None,2022-03-02-14:38:02.253438,775.3049991999287,775.6197657999583,775.3049991999287,775.3049991999287,None,775.3049991999287,775.3049991999287,776.1193978599855,None,,,,11010,0002,2022_Mar_02_1425,localizer,2021.1.3,60.00041999216812,
block,scenes,scenes079.bmp,,,,,0,215,215,215,,,,,,,,,,,,,,,,,,,,,,,,,,,,,,,,,,,,,,,,,,None,,776.1193978599855,None,776.1193978599855,None,2022-03-02-14:38:03.068757,776.1204231999582,776.4361131999176,776.1204231999582,None,None,776.1204231999582,None,776.9203703599866,None,,,,11010,0002,2022_Mar_02_1425,localizer,2021.1.3,60.00041999216812,
block,scenes,scenes088.bmp,,,,,0,216,216,216,,,,,,,,,,,,,,,,,,,,,,,,,,,,,,,,,,,,,,,,,,None,,776.9203703599866,None,776.9203703599866,None,2022-03-02-14:38:03.873403,776.9243619999615,777.2362119999016,776.9243619999615,776.9243619999615,None,776.9243619999615,776.9243619999615,777.7359039599193,None,,,,11010,0002,2022_Mar_02_1425,localizer,2021.1.3,60.00041999216812,
block,scenes,scenes086.bmp,,,,,0,217,217,217,,,,,,,,,,,,,,,,,,,,,,,,,,,,,,,,,,,,,,,,,,None,,777.7359039599193,None,777.7359039599193,None,2022-03-02-14:38:04.685264,777.7405202999944,778.0525482000085,777.7405202999944,None,None,777.7405202999944,None,778.5524338599877,None,,,,11010,0002,2022_Mar_02_1425,localizer,2021.1.3,60.00041999216812,
block,scenes,scenes044.bmp,,,,,0,218,218,218,,,,,,,,,,,,,,,,,,,,,,,,,,,,,,,,,,,,,,,,,,None,,778.5524338599877,None,778.5524338599877,None,2022-03-02-14:38:05.501800,778.5613660999807,778.8694621999748,778.5613660999807,None,None,778.5613660999807,None,779.3727339600097,None,,,,11010,0002,2022_Mar_02_1425,localizer,2021.1.3,60.00041999216812,
block,scenes,scenes003.bmp,,,,,0,219,219,219,,,,,,,,,,,,,,,,,,,,,,,,,,,,,,,,,,,,,,,,,,None,,779.3727339600097,None,779.3727339600097,None,2022-03-02-14:38:06.325566,779.3793087999802,779.6867553999182,779.3793087999802,None,None,779.3793087999802,None,780.186052759958,None,,,,11010,0002,2022_Mar_02_1425,localizer,2021.1.3,60.00041999216812,
block,scenes,scenes008.bmp,,,,,0,220,220,220,,,,,,,,,,,,,,,,,,,,,,,,,,,,,,,,,,,,,,,,,,None,,780.186052759958,None,780.186052759958,None,2022-03-02-14:38:07.135622,780.1873712999513,780.502674599993,780.1873712999513,None,None,780.1873712999513,None,781.0026496599545,None,,,,11010,0002,2022_Mar_02_1425,localizer,2021.1.3,60.00041999216812,
block,scenes,scenes047.bmp,,,,,0,221,221,221,,,,,,,,,,,,,,,,,,,,,,,,,,,,,,,,,,,,,,,,,,None,,781.0026496599545,None,781.0026496599545,None,2022-03-02-14:38:07.952014,781.0037947999081,781.3194174999371,781.0037947999081,None,None,781.0037947999081,None,781.8188641599496,None,,,,11010,0002,2022_Mar_02_1425,localizer,2021.1.3,60.00041999216812,
block,scenes,scenes015.bmp,,,,,0,222,222,222,,,,,,,,,,,,,,,,,,,,,,,,,,,,,,,,,,,,,,,,,,None,,781.8188641599496,None,781.8188641599496,None,2022-03-02-14:38:08.767969,781.8286973999348,782.1358491999563,781.8286973999348,None,None,781.8286973999348,None,782.635647259967,None,,,,11010,0002,2022_Mar_02_1425,localizer,2021.1.3,60.00041999216812,
block,scenes,scenes048.bmp,,,,,0,223,223,223,,,,,,,,,,,,,,,,,,,,,,,,,,,,,,,,,,,,,,,,,,None,,782.635647259967,None,782.635647259967,None,2022-03-02-14:38:09.585142,782.637102299952,782.9526708999183,782.637102299952,None,None,782.637102299952,None,783.4525783599471,None,,,,11010,0002,2022_Mar_02_1425,localizer,2021.1.3,60.00041999216812,
block,scenes,scenes030.bmp,,,,,0,224,224,224,,,,,,,,,,,,,,,,,,,,,,,,,,,,,,,,,,,,,,,,,,None,,783.4525783599471,None,783.4525783599471,None,2022-03-02-14:38:10.401947,783.4537899999414,783.7694023000076,783.4537899999414,None,None,783.4537899999414,None,784.2691516599967,None,,,,11010,0002,2022_Mar_02_1425,localizer,2021.1.3,60.00041999216812,
block,scenes,scenes076.bmp,,,,,0,225,225,225,,,,,,,,,,,,,,,,,,,,,,,,,,,,,,,,,,,,,,,,,,None,,784.2691516599967,None,784.2691516599967,None,2022-03-02-14:38:11.218522,784.2705025000032,784.5860944999149,784.2705025000032,None,None,784.2705025000032,None,785.0857333599939,None,,,,11010,0002,2022_Mar_02_1425,localizer,2021.1.3,60.00041999216812,
block,scenes,scenes055.bmp,,,,,0,226,226,226,,,,,,,,,,,,,,,,,,,,,,,,,,,,,,,,,,,,,,,,,,None,,785.0857333599939,None,785.0857333599939,None,2022-03-02-14:38:12.035192,785.0871324999025,785.4025994999101,785.0871324999025,None,None,785.0871324999025,None,785.8882330599823,None,,,,11010,0002,2022_Mar_02_1425,localizer,2021.1.3,60.00041999216812,
block_end,scenes,scenes081.bmp,,,,,0,227,227,227,,,,,,,,,,,,,,,,,,,,,,,,,,,,,,,,,,,,,,,,,,None,,785.8882330599823,None,785.8882330599823,None,2022-03-02-14:38:12.843745,785.8964946999913,786.2023161000106,785.8964946999913,785.8964946999913,None,785.8964946999913,785.8964946999913,786.7055691599031,None,,,,11010,0002,2022_Mar_02_1425,localizer,2021.1.3,60.00041999216812,
null_block,null_block,null_block.bmp,,,,,0,228,228,228,,,,,,,,,,,,,,,,,,,,,,,,,,,,,,,,,,,,,,,,,,t,1.7793897000374272,786.7071734999772,None,786.7071734999772,None,2022-03-02-14:38:15.451540,788.5026625599363,None,788.5026625599363,None,None,788.5026625599363,None,788.5059952999,None,,,,11010,0002,2022_Mar_02_1425,localizer,2021.1.3,60.00041999216812,
block_start,faces,faces059.bmp,,,,,0,229,229,229,,,,,,,,,,,,,,,,,,,,,,,,,,,,,,,,,,,,,,,,,,t,1.9604573000688106,800.5261456000153,None,800.5261456000153,None,2022-03-02-14:38:29.452092,802.5041179999243,802.8195833999198,802.5041179999243,None,None,802.5041179999243,None,803.319439659908,None,,,,11010,0002,2022_Mar_02_1425,localizer,2021.1.3,60.00041999216812,
block,faces,faces080.bmp,,,,,0,230,230,230,,,,,,,,,,,,,,,,,,,,,,,,,,,,,,,,,,,,,,,,,,None,,803.319439659908,None,803.319439659908,None,2022-03-02-14:38:30.268844,803.3274315999588,803.6363540999591,803.3274315999588,None,None,803.3274315999588,None,804.1358518600115,None,,,,11010,0002,2022_Mar_02_1425,localizer,2021.1.3,60.00041999216812,
block,faces,faces039.bmp,,,,,0,231,231,231,,,,,,,,,,,,,,,,,,,,,,,,,,,,,,,,,,,,,,,,,,None,,804.1358518600115,None,804.1358518600115,None,2022-03-02-14:38:31.085248,804.1375974999974,804.4527003999101,804.1375974999974,None,None,804.1375974999974,None,804.9526583599742,None,,,,11010,0002,2022_Mar_02_1425,localizer,2021.1.3,60.00041999216812,
block,faces,faces025.bmp,,,,,0,232,232,232,,,,,,,,,,,,,,,,,,,,,,,,,,,,,,,,,,,,,,,,,,None,,804.9526583599742,None,804.9526583599742,None,2022-03-02-14:38:31.902187,804.9537746999413,805.252886399976,804.9537746999413,None,None,804.9537746999413,None,805.7694095599815,None,,,,11010,0002,2022_Mar_02_1425,localizer,2021.1.3,60.00041999216812,
block,faces,faces087.bmp,,,,,0,233,233,233,,,,,,,,,,,,,,,,,,,,,,,,,,,,,,,,,,,,,,,,,,None,,805.7694095599815,None,805.7694095599815,None,2022-03-02-14:38:32.718805,805.7809061999433,806.0863863999257,805.7809061999433,None,None,805.7809061999433,None,806.5858090599883,None,,,,11010,0002,2022_Mar_02_1425,localizer,2021.1.3,60.00041999216812,
block,faces,faces013.bmp,,,,,0,234,234,234,,,,,,,,,,,,,,,,,,,,,,,,,,,,,,,,,,,,,,,,,,None,,806.5858090599883,None,806.5858090599883,None,2022-03-02-14:38:33.535208,806.5874552999157,806.8869811999612,806.5874552999157,None,None,806.5874552999157,None,807.4028735599364,None,,,,11010,0002,2022_Mar_02_1425,localizer,2021.1.3,60.00041999216812,
block,faces,faces013.bmp,,,,,0,235,235,235,,,,,,,,,,,,,,,,,,,,,,,,,,,,,,,,,,,,,,,,,,None,,807.4028735599364,None,807.4028735599364,None,2022-03-02-14:38:34.352774,807.4039919999195,807.7043371999171,807.4039919999195,None,y,807.4039919999195,None,808.219162459916,None,0.7294853000203148,,,11010,0002,2022_Mar_02_1425,localizer,2021.1.3,60.00041999216812,
block,faces,faces077.bmp,,,,,0,236,236,236,,,,,,,,,,,,,,,,,,,,,,,,,,,,,,,,,,,,,,,,,,None,,808.219162459916,None,808.219162459916,None,2022-03-02-14:38:35.168561,808.2205925999442,808.5363661999581,808.2205925999442,None,None,808.2205925999442,None,809.0360411599628,None,,,,11010,0002,2022_Mar_02_1425,localizer,2021.1.3,60.00041999216812,
block,faces,faces044.bmp,,,,,0,237,237,237,,,,,,,,,,,,,,,,,,,,,,,,,,,,,,,,,,,,,,,,,,None,,809.0360411599628,None,809.0360411599628,None,2022-03-02-14:38:35.985441,809.046462600003,809.3528591999784,809.046462600003,None,None,809.046462600003,None,809.8528019599268,None,,,,11010,0002,2022_Mar_02_1425,localizer,2021.1.3,60.00041999216812,
block,faces,faces003.bmp,,,,,0,238,238,238,,,,,,,,,,,,,,,,,,,,,,,,,,,,,,,,,,,,,,,,,,None,,809.8528019599268,None,809.8528019599268,None,2022-03-02-14:38:36.802336,809.8538955999538,810.1697367000161,809.8538955999538,None,None,809.8538955999538,None,810.65342835997,None,,,,11010,0002,2022_Mar_02_1425,localizer,2021.1.3,60.00041999216812,
block,faces,faces022.bmp,,,,,0,239,239,239,,,,,,,,,,,,,,,,,,,,,,,,,,,,,,,,,,,,,,,,,,None,,810.65342835997,None,810.65342835997,None,2022-03-02-14:38:37.605840,810.6566329000052,810.9695244999602,810.6566329000052,810.6566329000052,None,810.6566329000052,810.6566329000052,811.4697247600067,None,,,,11010,0002,2022_Mar_02_1425,localizer,2021.1.3,60.00041999216812,
block,faces,faces085.bmp,,,,,0,240,240,240,,,,,,,,,,,,,,,,,,,,,,,,,,,,,,,,,,,,,,,,,,None,,811.4697247600067,None,811.4697247600067,None,2022-03-02-14:38:38.419547,811.4750455999747,811.7861579000019,811.4750455999747,None,None,811.4750455999747,None,812.28557555991,None,,,,11010,0002,2022_Mar_02_1425,localizer,2021.1.3,60.00041999216812,
block,faces,faces081.bmp,,,,,0,241,241,241,,,,,,,,,,,,,,,,,,,,,,,,,,,,,,,,,,,,,,,,,,None,,812.28557555991,None,812.28557555991,None,2022-03-02-14:38:39.234249,812.2870482999133,812.6026142999763,812.2870482999133,None,None,812.2870482999133,None,813.1022990599391,None,,,,11010,0002,2022_Mar_02_1425,localizer,2021.1.3,60.00041999216812,
block,faces,faces060.bmp,,,,,0,242,242,242,,,,,,,,,,,,,,,,,,,,,,,,,,,,,,,,,,,,,,,,,,None,,813.1022990599391,None,813.1022990599391,None,2022-03-02-14:38:40.051064,813.1058233999647,813.4193635999691,813.1058233999647,None,None,813.1058233999647,None,813.9193506599055,None,,,,11010,0002,2022_Mar_02_1425,localizer,2021.1.3,60.00041999216812,
block_end,faces,faces052.bmp,,,,,0,243,243,243,,,,,,,,,,,,,,,,,,,,,,,,,,,,,,,,,,,,,,,,,,None,,813.9193506599055,None,813.9193506599055,None,2022-03-02-14:38:40.867882,813.9206978000002,814.2360498999478,813.9206978000002,None,None,813.9206978000002,None,814.7355717599509,None,,,,11010,0002,2022_Mar_02_1425,localizer,2021.1.3,60.00041999216812,
,,,,,,,,,,,,,,,,,,,,,,,,,,,,,,,,,,,,,,,,,,,,,,,,,,,,,,,,,,,,,,,,,,,,,814.7359460999724,None,,,,,,,
