block_type,condition,img_name,Button.thisRepN,Button.thisTrialN,Button.thisN,Button.thisIndex,trials.thisRepN,trials.thisTrialN,trials.thisN,trials.thisIndex,Ready_experimenter_text.started,Ready_experimenter_text.stopped,Ready_experimenter_resp.keys,Ready_experimenter_resp.rt,Ready_experimenter_resp.started,Ready_experimenter_resp.stopped,Alignment_background.started,Alignment_background.stopped,Alignment_image.started,Alignment_image.stopped,Alignment_resp.keys,Alignment_resp.rt,Alignment_resp.started,Alignment_resp.stopped,Button_text.started,Button_text.stopped,Index_text.started,Index_text.stopped,Index_resp.keys,Index_resp.rt,Index_resp.started,Index_resp.stopped,Middle_text.started,Middle_text.stopped,Middle_resp.keys,Middle_resp.rt,Middle_resp.started,Middle_resp.stopped,Repeat_text.started,Repeat_text.stopped,Repeat_resp.keys,Repeat_resp.corr,Repeat_resp.rt,Repeat_resp.started,Repeat_resp.stopped,instruction_text.started,instruction_text.stopped,key_resp.keys,key_resp.rt,key_resp.started,key_resp.stopped,scanner_t.keys,scanner_t.rt,scanner_t.started,scanner_t.stopped,fixation_wait_for_t.started,fixation_wait_for_t.stopped,real_timestamp_trial_start,image.started,image.stopped,fixation.started,fixation.stopped,repeat_response.keys,repeat_response.started,repeat_response.stopped,fixation_null.started,fixation_null.stopped,repeat_response.rt,end_text.started,end_text.stopped,participant,run,date,expName,psychopyVersion,frameRate,
,,,,,,,,,,,15.293959900038317,None,return,343.4032205999829,15.293959900038317,None,,,,,,,,,,,,,,,,,,,,,,,,,,,,,,,,,,,,,,,,,,,,,,,,,,,,,,,22019,0002,2022_Dec_11_1134,localizer,2021.1.3,59.83344762862646,
,,,,,,,,,,,,,,,,,358.7476038001478,None,358.7476038001478,None,return,0.5248237999621779,358.7476038001478,None,,,,,,,,,,,,,,,,,,,,,,,,,,,,,,,,,,,,,,,,,,,,,,,22019,0002,2022_Dec_11_1134,localizer,2021.1.3,59.83344762862646,
,,,0,0,0,0,,,,,,,,,,,,,,,,,,,359.29099850007333,None,360.29064829996787,None,y,2.09263510000892,360.29064829996787,None,362.41188940010034,None,b,1.1024486999958754,362.41188940010034,None,363.5475421999581,None,n,0,0.9086124999448657,363.5475421999581,None,,,,,,,,,,,,,,,,,,,,,,,,,,22019,0002,2022_Dec_11_1134,localizer,2021.1.3,59.83344762862646,
,,,,,,,,,,,,,,,,,,,,,,,,,,,,,,,,,,,,,,,,,,,,,,364.4753348999657,None,y,120.60288790008053,364.4753348999657,None,,,,,,,,,,,,,,,,,,,,22019,0002,2022_Dec_11_1134,localizer,2021.1.3,59.83344762862646,
block_start,faces,faces009.bmp,,,,,0,0,0,0,,,,,,,,,,,,,,,,,,,,,,,,,,,,,,,,,,,,,,,,,,t,20.415744099998847,485.13464760011993,None,485.13464760011993,None,2022-12-11-11:42:46.530990,505.57805250003,505.8918677000329,505.57805250003,None,None,505.57805250003,None,506.3920272500254,None,,,,22019,0002,2022_Dec_11_1134,localizer,2021.1.3,59.83344762862646,
block,faces,faces027.bmp,,,,,0,1,1,1,,,,,,,,,,,,,,,,,,,,,,,,,,,,,,,,,,,,,,,,,,None,,506.3920272500254,None,506.3920272500254,None,2022-12-11-11:42:47.350416,506.39563899999484,506.70824770000763,506.39563899999484,None,None,506.39563899999484,None,507.2096216501668,None,,,,22019,0002,2022_Dec_11_1134,localizer,2021.1.3,59.83344762862646,
block,faces,faces043.bmp,,,,,0,2,2,2,,,,,,,,,,,,,,,,,,,,,,,,,,,,,,,,,,,,,,,,,,None,,507.2096216501668,None,507.2096216501668,None,2022-12-11-11:42:48.165028,507.2094016999472,507.5250632001553,507.2094016999472,None,None,507.2094016999472,None,508.0084481500089,None,,,,22019,0002,2022_Dec_11_1134,localizer,2021.1.3,59.83344762862646,
block,faces,faces056.bmp,,,,,0,3,3,3,,,,,,,,,,,,,,,,,,,,,,,,,,,,,,,,,,,,,,,,,,None,,508.0084481500089,None,508.0084481500089,None,2022-12-11-11:42:48.965844,508.0099240001291,508.32509390008636,508.0099240001291,508.0099240001291,None,508.0099240001291,508.0099240001291,508.8250516501721,None,,,,22019,0002,2022_Dec_11_1134,localizer,2021.1.3,59.83344762862646,
block,faces,faces006.bmp,,,,,0,4,4,4,,,,,,,,,,,,,,,,,,,,,,,,,,,,,,,,,,,,,,,,,,None,,508.8250516501721,None,508.8250516501721,None,2022-12-11-11:42:49.780451,508.8363004999701,509.1417185999453,508.8363004999701,None,None,508.8363004999701,None,509.64316745009273,None,,,,22019,0002,2022_Dec_11_1134,localizer,2021.1.3,59.83344762862646,
block,faces,faces034.bmp,,,,,0,5,5,5,,,,,,,,,,,,,,,,,,,,,,,,,,,,,,,,,,,,,,,,,,None,,509.64316745009273,None,509.64316745009273,None,2022-12-11-11:42:50.600270,509.65499350009486,509.9590920000337,509.65499350009486,None,None,509.65499350009486,None,510.4591574501246,None,,,,22019,0002,2022_Dec_11_1134,localizer,2021.1.3,59.83344762862646,
block,faces,faces034.bmp,,,,,0,6,6,6,,,,,,,,,,,,,,,,,,,,,,,,,,,,,,,,,,,,,,,,,,None,,510.4591574501246,None,510.4591574501246,None,2022-12-11-11:42:51.415526,510.459992100019,510.7748738999944,510.459992100019,None,y,510.459992100019,None,511.25933785014786,None,0.5582198000047356,,,22019,0002,2022_Dec_11_1134,localizer,2021.1.3,59.83344762862646,
block,faces,faces008.bmp,,,,,0,7,7,7,,,,,,,,,,,,,,,,,,,,,,,,,,,,,,,,,,,,,,,,,,None,,511.25933785014786,None,511.25933785014786,None,2022-12-11-11:42:52.218922,511.27580290008336,511.5750351001043,511.27580290008336,511.27580290008336,None,511.27580290008336,511.27580290008336,512.0757876499556,None,,,,22019,0002,2022_Dec_11_1134,localizer,2021.1.3,59.83344762862646,
block,faces,faces040.bmp,,,,,0,8,8,8,,,,,,,,,,,,,,,,,,,,,,,,,,,,,,,,,,,,,,,,,,None,,512.0757876499556,None,512.0757876499556,None,2022-12-11-11:42:53.032361,512.0765897000674,512.3757754000835,512.0765897000674,None,None,512.0765897000674,None,512.8918565500062,None,,,,22019,0002,2022_Dec_11_1134,localizer,2021.1.3,59.83344762862646,
block,faces,faces057.bmp,,,,,0,9,9,9,,,,,,,,,,,,,,,,,,,,,,,,,,,,,,,,,,,,,,,,,,None,,512.8918565500062,None,512.8918565500062,None,2022-12-11-11:42:53.847464,512.9040533001535,513.2083121000323,512.9040533001535,None,None,512.9040533001535,None,513.6973674499895,None,,,,22019,0002,2022_Dec_11_1134,localizer,2021.1.3,59.83344762862646,
block,faces,faces049.bmp,,,,,0,10,10,10,,,,,,,,,,,,,,,,,,,,,,,,,,,,,,,,,,,,,,,,,,None,,513.6973674499895,None,513.6973674499895,None,2022-12-11-11:42:54.655579,513.7117473001126,514.0251488001086,513.7117473001126,None,None,513.7117473001126,None,514.5086969500408,None,,,,22019,0002,2022_Dec_11_1134,localizer,2021.1.3,59.83344762862646,
block,faces,faces048.bmp,,,,,0,11,11,11,,,,,,,,,,,,,,,,,,,,,,,,,,,,,,,,,,,,,,,,,,None,,514.5086969500408,None,514.5086969500408,None,2022-12-11-11:42:55.464306,514.5096561999526,514.8250178999733,514.5096561999526,None,None,514.5096561999526,None,515.3252714499831,None,,,,22019,0002,2022_Dec_11_1134,localizer,2021.1.3,59.83344762862646,
block,faces,faces007.bmp,,,,,0,12,12,12,,,,,,,,,,,,,,,,,,,,,,,,,,,,,,,,,,,,,,,,,,None,,515.3252714499831,None,515.3252714499831,None,2022-12-11-11:42:56.280674,515.3260169001296,515.6253074000124,515.3260169001296,None,None,515.3260169001296,None,516.1253279501107,None,,,,22019,0002,2022_Dec_11_1134,localizer,2021.1.3,59.83344762862646,
block,faces,faces084.bmp,,,,,0,13,13,13,,,,,,,,,,,,,,,,,,,,,,,,,,,,,,,,,,,,,,,,,,None,,516.1253279501107,None,516.1253279501107,None,2022-12-11-11:42:57.082721,516.1267312001437,516.4257879001088,516.1267312001437,516.1267312001437,None,516.1267312001437,516.1267312001437,516.9425275500398,None,,,,22019,0002,2022_Dec_11_1134,localizer,2021.1.3,59.83344762862646,
block_end,faces,faces054.bmp,,,,,0,14,14,14,,,,,,,,,,,,,,,,,,,,,,,,,,,,,,,,,,,,,,,,,,None,,516.9425275500398,None,516.9425275500398,None,2022-12-11-11:42:57.899102,516.9433722000103,517.2426110999659,516.9433722000103,None,None,516.9433722000103,None,517.7581235500984,None,,,,22019,0002,2022_Dec_11_1134,localizer,2021.1.3,59.83344762862646,
block_start,objects,objects033.bmp,,,,,0,15,15,15,,,,,,,,,,,,,,,,,,,,,,,,,,,,,,,,,,,,,,,,,,t,1.7920241001993418,517.7582974999677,None,517.7582974999677,None,2022-12-11-11:43:00.529825,519.5859642000869,519.8913955001626,519.5859642000869,None,None,519.5859642000869,None,520.3920015499461,None,,,,22019,0002,2022_Dec_11_1134,localizer,2021.1.3,59.83344762862646,
block,objects,objects049.bmp,,,,,0,16,16,16,,,,,,,,,,,,,,,,,,,,,,,,,,,,,,,,,,,,,,,,,,None,,520.3920015499461,None,520.3920015499461,None,2022-12-11-11:43:01.347916,520.398836000124,520.708886800101,520.398836000124,None,None,520.398836000124,None,521.2089428501204,None,,,,22019,0002,2022_Dec_11_1134,localizer,2021.1.3,59.83344762862646,
block,objects,objects032.bmp,,,,,0,17,17,17,,,,,,,,,,,,,,,,,,,,,,,,,,,,,,,,,,,,,,,,,,None,,521.2089428501204,None,521.2089428501204,None,2022-12-11-11:43:02.164535,521.2097064999398,521.5089678000659,521.2097064999398,None,None,521.2097064999398,None,522.0087751501705,None,,,,22019,0002,2022_Dec_11_1134,localizer,2021.1.3,59.83344762862646,
block,objects,objects017.bmp,,,,,0,18,18,18,,,,,,,,,,,,,,,,,,,,,,,,,,,,,,,,,,,,,,,,,,None,,522.0087751501705,None,522.0087751501705,None,2022-12-11-11:43:02.966168,522.0215792001691,522.325188399991,522.0215792001691,522.0215792001691,None,522.0215792001691,522.0215792001691,522.8254003501497,None,,,,22019,0002,2022_Dec_11_1134,localizer,2021.1.3,59.83344762862646,
block,objects,objects041.bmp,,,,,0,19,19,19,,,,,,,,,,,,,,,,,,,,,,,,,,,,,,,,,,,,,,,,,,None,,522.8254003501497,None,522.8254003501497,None,2022-12-11-11:43:03.781142,522.8263157999609,523.1250875000842,522.8263157999609,None,None,522.8263157999609,None,523.6417532500345,None,,,,22019,0002,2022_Dec_11_1134,localizer,2021.1.3,59.83344762862646,
block,objects,objects030.bmp,,,,,0,20,20,20,,,,,,,,,,,,,,,,,,,,,,,,,,,,,,,,,,,,,,,,,,None,,523.6417532500345,None,523.6417532500345,None,2022-12-11-11:43:04.596162,523.642548300093,523.9419303000905,523.642548300093,None,None,523.642548300093,None,524.4421803499572,None,,,,22019,0002,2022_Dec_11_1134,localizer,2021.1.3,59.83344762862646,
block,objects,objects087.bmp,,,,,0,21,21,21,,,,,,,,,,,,,,,,,,,,,,,,,,,,,,,,,,,,,,,,,,None,,524.4421803499572,None,524.4421803499572,None,2022-12-11-11:43:05.399595,524.4440097000916,524.7588420000393,524.4440097000916,524.4440097000916,None,524.4440097000916,524.4440097000916,525.2589243501425,None,,,,22019,0002,2022_Dec_11_1134,localizer,2021.1.3,59.83344762862646,
block,objects,objects010.bmp,,,,,0,22,22,22,,,,,,,,,,,,,,,,,,,,,,,,,,,,,,,,,,,,,,,,,,None,,525.2589243501425,None,525.2589243501425,None,2022-12-11-11:43:06.214519,525.2595395999961,525.5589746001642,525.2595395999961,None,None,525.2595395999961,None,526.060658250004,None,,,,22019,0002,2022_Dec_11_1134,localizer,2021.1.3,59.83344762862646,
block,objects,objects056.bmp,,,,,0,23,23,23,,,,,,,,,,,,,,,,,,,,,,,,,,,,,,,,,,,,,,,,,,None,,526.060658250004,None,526.060658250004,None,2022-12-11-11:43:07.021999,526.0682310000993,526.3758902000263,526.0682310000993,526.0682310000993,None,526.0682310000993,526.0682310000993,526.875437250128,None,,,,22019,0002,2022_Dec_11_1134,localizer,2021.1.3,59.83344762862646,
block,objects,objects051.bmp,,,,,0,24,24,24,,,,,,,,,,,,,,,,,,,,,,,,,,,,,,,,,,,,,,,,,,None,,526.875437250128,None,526.875437250128,None,2022-12-11-11:43:07.830837,526.8859939000104,527.1917569001671,526.8859939000104,None,None,526.8859939000104,None,527.6937452501152,None,,,,22019,0002,2022_Dec_11_1134,localizer,2021.1.3,59.83344762862646,
block,objects,objects034.bmp,,,,,0,25,25,25,,,,,,,,,,,,,,,,,,,,,,,,,,,,,,,,,,,,,,,,,,None,,527.6937452501152,None,527.6937452501152,None,2022-12-11-11:43:08.651102,527.6954527001362,527.9947912001517,527.6954527001362,None,None,527.6954527001362,None,528.5087898501661,None,,,,22019,0002,2022_Dec_11_1134,localizer,2021.1.3,59.83344762862646,
block,objects,objects081.bmp,,,,,0,26,26,26,,,,,,,,,,,,,,,,,,,,,,,,,,,,,,,,,,,,,,,,,,None,,528.5087898501661,None,528.5087898501661,None,2022-12-11-11:43:09.464189,528.5094813001342,528.8251754001249,528.5094813001342,None,None,528.5094813001342,None,529.3085870500654,None,,,,22019,0002,2022_Dec_11_1134,localizer,2021.1.3,59.83344762862646,
block,objects,objects040.bmp,,,,,0,27,27,27,,,,,,,,,,,,,,,,,,,,,,,,,,,,,,,,,,,,,,,,,,None,,529.3085870500654,None,529.3085870500654,None,2022-12-11-11:43:10.265542,529.3094373999629,529.6087198001333,529.3094373999629,529.3094373999629,None,529.3094373999629,529.3094373999629,530.1094039501622,None,,,,22019,0002,2022_Dec_11_1134,localizer,2021.1.3,59.83344762862646,
block,objects,objects045.bmp,,,,,0,28,28,28,,,,,,,,,,,,,,,,,,,,,,,,,,,,,,,,,,,,,,,,,,None,,530.1094039501622,None,530.1094039501622,None,2022-12-11-11:43:11.067976,530.1126407999545,530.4259202000685,530.1126407999545,530.1126407999545,None,530.1126407999545,530.1126407999545,530.9149990500882,None,,,,22019,0002,2022_Dec_11_1134,localizer,2021.1.3,59.83344762862646,
block_end,objects,objects058.bmp,,,,,0,29,29,29,,,,,,,,,,,,,,,,,,,,,,,,,,,,,,,,,,,,,,,,,,None,,530.9149990500882,None,530.9149990500882,None,2022-12-11-11:43:11.880296,530.9336814000271,531.241939800093,530.9336814000271,530.9336814000271,None,530.9336814000271,530.9336814000271,531.7418017501477,None,,,,22019,0002,2022_Dec_11_1134,localizer,2021.1.3,59.83344762862646,
null_block,null_block,null_block.bmp,,,,,0,30,30,30,,,,,,,,,,,,,,,,,,,,,,,,,,,,,,,,,,,,,,,,,,t,1.808912199921906,531.741626100149,None,531.741626100149,None,2022-12-11-11:43:14.530016,533.5756159501616,None,533.5756159501616,None,None,533.5756159501616,None,533.57831849996,None,,,,22019,0002,2022_Dec_11_1134,localizer,2021.1.3,59.83344762862646,
block_start,scenes,scenes048.bmp,,,,,0,31,31,31,,,,,,,,,,,,,,,,,,,,,,,,,,,,,,,,,,,,,,,,,,t,1.9581087999977171,545.5923909000121,None,545.5923909000121,None,2022-12-11-11:43:28.531764,547.5760331000201,547.8754414999858,547.5760331000201,None,None,547.5760331000201,None,548.3757357499562,None,,,,22019,0002,2022_Dec_11_1134,localizer,2021.1.3,59.83344762862646,
block,scenes,scenes052.bmp,,,,,0,32,32,32,,,,,,,,,,,,,,,,,,,,,,,,,,,,,,,,,,,,,,,,,,None,,548.3757357499562,None,548.3757357499562,None,2022-12-11-11:43:29.333327,548.3789415999781,548.6917733999435,548.3789415999781,548.3789415999781,None,548.3789415999781,548.3789415999781,549.1923277501483,None,,,,22019,0002,2022_Dec_11_1134,localizer,2021.1.3,59.83344762862646,
block,scenes,scenes034.bmp,,,,,0,33,33,33,,,,,,,,,,,,,,,,,,,,,,,,,,,,,,,,,,,,,,,,,,None,,549.1923277501483,None,549.1923277501483,None,2022-12-11-11:43:30.147722,549.2044345999602,549.5087423999794,549.2044345999602,None,None,549.2044345999602,None,550.0093387500383,None,,,,22019,0002,2022_Dec_11_1134,localizer,2021.1.3,59.83344762862646,
block,scenes,scenes087.bmp,,,,,0,34,34,34,,,,,,,,,,,,,,,,,,,,,,,,,,,,,,,,,,,,,,,,,,None,,550.0093387500383,None,550.0093387500383,None,2022-12-11-11:43:30.965899,550.021083000116,550.3254040000029,550.021083000116,None,None,550.021083000116,None,550.8263712499756,None,,,,22019,0002,2022_Dec_11_1134,localizer,2021.1.3,59.83344762862646,
block,scenes,scenes009.bmp,,,,,0,35,35,35,,,,,,,,,,,,,,,,,,,,,,,,,,,,,,,,,,,,,,,,,,None,,550.8263712499756,None,550.8263712499756,None,2022-12-11-11:43:31.784613,550.8295736000873,551.1430518999696,550.8295736000873,None,None,550.8295736000873,None,551.6431743500289,None,,,,22019,0002,2022_Dec_11_1134,localizer,2021.1.3,59.83344762862646,
block,scenes,scenes037.bmp,,,,,0,36,36,36,,,,,,,,,,,,,,,,,,,,,,,,,,,,,,,,,,,,,,,,,,None,,551.6431743500289,None,551.6431743500289,None,2022-12-11-11:43:32.598541,551.6521700001322,551.9589657001197,551.6521700001322,None,None,551.6521700001322,None,552.4590746499598,None,,,,22019,0002,2022_Dec_11_1134,localizer,2021.1.3,59.83344762862646,
block,scenes,scenes042.bmp,,,,,0,37,37,37,,,,,,,,,,,,,,,,,,,,,,,,,,,,,,,,,,,,,,,,,,None,,552.4590746499598,None,552.4590746499598,None,2022-12-11-11:43:33.414510,552.4699611000251,552.7755476001184,552.4699611000251,None,None,552.4699611000251,None,553.2749238500837,None,,,,22019,0002,2022_Dec_11_1134,localizer,2021.1.3,59.83344762862646,
block,scenes,scenes083.bmp,,,,,0,38,38,38,,,,,,,,,,,,,,,,,,,,,,,,,,,,,,,,,,,,,,,,,,None,,553.2749238500837,None,553.2749238500837,None,2022-12-11-11:43:34.229332,553.2763972999528,553.5920109001454,553.2763972999528,None,None,553.2763972999528,None,554.0777012500912,None,,,,22019,0002,2022_Dec_11_1134,localizer,2021.1.3,59.83344762862646,
block,scenes,scenes033.bmp,,,,,0,39,39,39,,,,,,,,,,,,,,,,,,,,,,,,,,,,,,,,,,,,,,,,,,None,,554.0777012500912,None,554.0777012500912,None,2022-12-11-11:43:35.039408,554.085654299939,554.392678800039,554.085654299939,554.085654299939,None,554.085654299939,554.085654299939,554.8922360499855,None,,,,22019,0002,2022_Dec_11_1134,localizer,2021.1.3,59.83344762862646,
block,scenes,scenes043.bmp,,,,,0,40,40,40,,,,,,,,,,,,,,,,,,,,,,,,,,,,,,,,,,,,,,,,,,None,,554.8922360499855,None,554.8922360499855,None,2022-12-11-11:43:35.847636,554.9028622000478,555.2087547001429,554.9028622000478,None,None,554.9028622000478,None,555.7086626500823,None,,,,22019,0002,2022_Dec_11_1134,localizer,2021.1.3,59.83344762862646,
block,scenes,scenes060.bmp,,,,,0,41,41,41,,,,,,,,,,,,,,,,,,,,,,,,,,,,,,,,,,,,,,,,,,None,,555.7086626500823,None,555.7086626500823,None,2022-12-11-11:43:36.664067,555.7096371001098,556.0088245000225,555.7096371001098,None,None,555.7096371001098,None,556.508748949971,None,,,,22019,0002,2022_Dec_11_1134,localizer,2021.1.3,59.83344762862646,
block,scenes,scenes032.bmp,,,,,0,42,42,42,,,,,,,,,,,,,,,,,,,,,,,,,,,,,,,,,,,,,,,,,,None,,556.508748949971,None,556.508748949971,None,2022-12-11-11:43:37.465148,556.5096569999587,556.8088065001648,556.5096569999587,556.5096569999587,None,556.5096569999587,556.5096569999587,557.310001350008,None,,,,22019,0002,2022_Dec_11_1134,localizer,2021.1.3,59.83344762862646,
block,scenes,scenes079.bmp,,,,,0,43,43,43,,,,,,,,,,,,,,,,,,,,,,,,,,,,,,,,,,,,,,,,,,None,,557.310001350008,None,557.310001350008,None,2022-12-11-11:43:38.269353,557.3265742000658,557.6316949001048,557.3265742000658,557.3265742000658,None,557.3265742000658,557.3265742000658,558.1260745499749,None,,,,22019,0002,2022_Dec_11_1134,localizer,2021.1.3,59.83344762862646,
block,scenes,scenes015.bmp,,,,,0,44,44,44,,,,,,,,,,,,,,,,,,,,,,,,,,,,,,,,,,,,,,,,,,None,,558.1260745499749,None,558.1260745499749,None,2022-12-11-11:43:39.082462,558.1389572001062,558.4421959000174,558.1389572001062,None,None,558.1389572001062,None,558.9422834501602,None,,,,22019,0002,2022_Dec_11_1134,localizer,2021.1.3,59.83344762862646,
block_end,scenes,scenes008.bmp,,,,,0,45,45,45,,,,,,,,,,,,,,,,,,,,,,,,,,,,,,,,,,,,,,,,,,None,,558.9422834501602,None,558.9422834501602,None,2022-12-11-11:43:39.897682,558.9534328000154,559.2586813000962,558.9534328000154,None,None,558.9534328000154,None,559.7586536500603,None,,,,22019,0002,2022_Dec_11_1134,localizer,2021.1.3,59.83344762862646,
block_start,scrambled,scrambled057.bmp,,,,,0,46,46,46,,,,,,,,,,,,,,,,,,,,,,,,,,,,,,,,,,,,,,,,,,t,1.7918569999746978,559.7586231001187,None,559.7586231001187,None,2022-12-11-11:43:42.528652,561.5763276000507,561.8753154000733,561.5763276000507,None,None,561.5763276000507,None,562.3757886500098,None,,,,22019,0002,2022_Dec_11_1134,localizer,2021.1.3,59.83344762862646,
block,scrambled,scrambled060.bmp,,,,,0,47,47,47,,,,,,,,,,,,,,,,,,,,,,,,,,,,,,,,,,,,,,,,,,None,,562.3757886500098,None,562.3757886500098,None,2022-12-11-11:43:43.334161,562.3789526000619,562.6921020001173,562.3789526000619,562.3789526000619,None,562.3789526000619,562.3789526000619,563.191617350094,None,,,,22019,0002,2022_Dec_11_1134,localizer,2021.1.3,59.83344762862646,
block,scrambled,scrambled027.bmp,,,,,0,48,48,48,,,,,,,,,,,,,,,,,,,,,,,,,,,,,,,,,,,,,,,,,,None,,563.191617350094,None,563.191617350094,None,2022-12-11-11:43:44.146653,563.2014246000908,563.5089807000477,563.2014246000908,None,None,563.2014246000908,None,564.0087828501128,None,,,,22019,0002,2022_Dec_11_1134,localizer,2021.1.3,59.83344762862646,
block,scrambled,scrambled070.bmp,,,,,0,49,49,49,,,,,,,,,,,,,,,,,,,,,,,,,,,,,,,,,,,,,,,,,,None,,564.0087828501128,None,564.0087828501128,None,2022-12-11-11:43:44.964185,564.0097076001111,564.3089771999512,564.0097076001111,None,None,564.0097076001111,None,564.8090370499995,None,,,,22019,0002,2022_Dec_11_1134,localizer,2021.1.3,59.83344762862646,
block,scrambled,scrambled018.bmp,,,,,0,50,50,50,,,,,,,,,,,,,,,,,,,,,,,,,,,,,,,,,,,,,,,,,,None,,564.8090370499995,None,564.8090370499995,None,2022-12-11-11:43:45.766717,564.8108349000104,565.1257102000527,564.8108349000104,564.8108349000104,None,564.8108349000104,564.8108349000104,565.6252438500524,None,,,,22019,0002,2022_Dec_11_1134,localizer,2021.1.3,59.83344762862646,
block,scrambled,scrambled029.bmp,,,,,0,51,51,51,,,,,,,,,,,,,,,,,,,,,,,,,,,,,,,,,,,,,,,,,,None,,565.6252438500524,None,565.6252438500524,None,2022-12-11-11:43:46.580892,565.626195800025,565.925921499962,565.626195800025,None,None,565.626195800025,None,566.4420901499689,None,,,,22019,0002,2022_Dec_11_1134,localizer,2021.1.3,59.83344762862646,
block,scrambled,scrambled007.bmp,,,,,0,52,52,52,,,,,,,,,,,,,,,,,,,,,,,,,,,,,,,,,,,,,,,,,,None,,566.4420901499689,None,566.4420901499689,None,2022-12-11-11:43:47.397494,566.4517210000195,566.7589178001508,566.4517210000195,None,None,566.4517210000195,None,567.2591250501573,None,,,,22019,0002,2022_Dec_11_1134,localizer,2021.1.3,59.83344762862646,
block,scrambled,scrambled066.bmp,,,,,0,53,53,53,,,,,,,,,,,,,,,,,,,,,,,,,,,,,,,,,,,,,,,,,,None,,567.2591250501573,None,567.2591250501573,None,2022-12-11-11:43:48.214524,567.2701133000664,567.575665100012,567.2701133000664,None,None,567.2701133000664,None,568.0757915501017,None,,,,22019,0002,2022_Dec_11_1134,localizer,2021.1.3,59.83344762862646,
block,scrambled,scrambled009.bmp,,,,,0,54,54,54,,,,,,,,,,,,,,,,,,,,,,,,,,,,,,,,,,,,,,,,,,None,,568.0757915501017,None,568.0757915501017,None,2022-12-11-11:43:49.031187,568.0827413001098,568.3919107001275,568.0827413001098,None,None,568.0827413001098,None,568.8944026499521,None,,,,22019,0002,2022_Dec_11_1134,localizer,2021.1.3,59.83344762862646,
block,scrambled,scrambled085.bmp,,,,,0,55,55,55,,,,,,,,,,,,,,,,,,,,,,,,,,,,,,,,,,,,,,,,,,None,,568.8944026499521,None,568.8944026499521,None,2022-12-11-11:43:49.852954,568.9092654001433,569.2089810001198,568.9092654001433,None,None,568.9092654001433,None,569.7089444501325,None,,,,22019,0002,2022_Dec_11_1134,localizer,2021.1.3,59.83344762862646,
block,scrambled,scrambled063.bmp,,,,,0,56,56,56,,,,,,,,,,,,,,,,,,,,,,,,,,,,,,,,,,,,,,,,,,None,,569.7089444501325,None,569.7089444501325,None,2022-12-11-11:43:50.664351,569.710083700018,570.0257831001654,569.710083700018,None,None,569.710083700018,None,570.5092007501516,None,,,,22019,0002,2022_Dec_11_1134,localizer,2021.1.3,59.83344762862646,
block,scrambled,scrambled071.bmp,,,,,0,57,57,57,,,,,,,,,,,,,,,,,,,,,,,,,,,,,,,,,,,,,,,,,,None,,570.5092007501516,None,570.5092007501516,None,2022-12-11-11:43:51.466588,570.5108636999503,570.8256620001048,570.5108636999503,570.5108636999503,None,570.5108636999503,570.5108636999503,571.3257457499858,None,,,,22019,0002,2022_Dec_11_1134,localizer,2021.1.3,59.83344762862646,
block,scrambled,scrambled023.bmp,,,,,0,58,58,58,,,,,,,,,,,,,,,,,,,,,,,,,,,,,,,,,,,,,,,,,,None,,571.3257457499858,None,571.3257457499858,None,2022-12-11-11:43:52.281351,571.3265695001464,571.6424798001535,571.3265695001464,None,None,571.3265695001464,None,572.1257012500428,None,,,,22019,0002,2022_Dec_11_1134,localizer,2021.1.3,59.83344762862646,
block,scrambled,scrambled076.bmp,,,,,0,59,59,59,,,,,,,,,,,,,,,,,,,,,,,,,,,,,,,,,,,,,,,,,,None,,572.1257012500428,None,572.1257012500428,None,2022-12-11-11:43:53.082387,572.137599500129,572.4422840001062,572.137599500129,572.137599500129,None,572.137599500129,572.137599500129,572.9423787500709,None,,,,22019,0002,2022_Dec_11_1134,localizer,2021.1.3,59.83344762862646,
block_end,scrambled,scrambled081.bmp,,,,,0,60,60,60,,,,,,,,,,,,,,,,,,,,,,,,,,,,,,,,,,,,,,,,,,None,,572.9423787500709,None,572.9423787500709,None,2022-12-11-11:43:53.897778,572.9544943000656,573.2589563000947,572.9544943000656,None,None,572.9544943000656,None,573.7589307499584,None,,,,22019,0002,2022_Dec_11_1134,localizer,2021.1.3,59.83344762862646,
block_start,scenes,scenes039.bmp,,,,,0,61,61,61,,,,,,,,,,,,,,,,,,,,,,,,,,,,,,,,,,,,,,,,,,t,1.7915896999184042,573.7587501001544,None,573.7587501001544,None,2022-12-11-11:43:56.530161,575.5865502001252,575.892373500159,575.5865502001252,None,None,575.5865502001252,None,576.3923857500777,None,,,,22019,0002,2022_Dec_11_1134,localizer,2021.1.3,59.83344762862646,
block,scenes,scenes015.bmp,,,,,0,62,62,62,,,,,,,,,,,,,,,,,,,,,,,,,,,,,,,,,,,,,,,,,,None,,576.3923857500777,None,576.3923857500777,None,2022-12-11-11:43:57.347781,576.393065799959,576.6924771000631,576.393065799959,None,None,576.393065799959,None,577.1924838500563,None,,,,22019,0002,2022_Dec_11_1134,localizer,2021.1.3,59.83344762862646,
block,scenes,scenes002.bmp,,,,,0,63,63,63,,,,,,,,,,,,,,,,,,,,,,,,,,,,,,,,,,,,,,,,,,None,,577.1924838500563,None,577.1924838500563,None,2022-12-11-11:43:58.149342,577.1932747999672,577.508916300023,577.1932747999672,577.1932747999672,None,577.1932747999672,577.1932747999672,577.9928067501169,None,,,,22019,0002,2022_Dec_11_1134,localizer,2021.1.3,59.83344762862646,
block,scenes,scenes055.bmp,,,,,0,64,64,64,,,,,,,,,,,,,,,,,,,,,,,,,,,,,,,,,,,,,,,,,,None,,577.9928067501169,None,577.9928067501169,None,2022-12-11-11:43:58.951388,577.9959275000729,578.3093346001115,577.9959275000729,577.9959275000729,None,577.9959275000729,577.9959275000729,578.8091593501158,None,,,,22019,0002,2022_Dec_11_1134,localizer,2021.1.3,59.83344762862646,
block,scenes,scenes052.bmp,,,,,0,65,65,65,,,,,,,,,,,,,,,,,,,,,,,,,,,,,,,,,,,,,,,,,,None,,578.8091593501158,None,578.8091593501158,None,2022-12-11-11:43:59.764761,578.8099551000632,579.1254931001458,578.8099551000632,None,None,578.8099551000632,None,579.615310250083,None,,,,22019,0002,2022_Dec_11_1134,localizer,2021.1.3,59.83344762862646,
block,scenes,scenes089.bmp,,,,,0,66,66,66,,,,,,,,,,,,,,,,,,,,,,,,,,,,,,,,,,,,,,,,,,None,,579.615310250083,None,579.615310250083,None,2022-12-11-11:44:00.577507,579.6229159999639,579.9262604999822,579.6229159999639,None,None,579.6229159999639,None,580.425699949963,None,,,,22019,0002,2022_Dec_11_1134,localizer,2021.1.3,59.83344762862646,
block,scenes,scenes020.bmp,,,,,0,67,67,67,,,,,,,,,,,,,,,,,,,,,,,,,,,,,,,,,,,,,,,,,,None,,580.425699949963,None,580.425699949963,None,2022-12-11-11:44:01.381528,580.4368770001456,580.7421754000243,580.4368770001456,None,None,580.4368770001456,None,581.2424748500343,None,,,,22019,0002,2022_Dec_11_1134,localizer,2021.1.3,59.83344762862646,
block,scenes,scenes069.bmp,,,,,0,68,68,68,,,,,,,,,,,,,,,,,,,,,,,,,,,,,,,,,,,,,,,,,,None,,581.2424748500343,None,581.2424748500343,None,2022-12-11-11:44:02.198067,581.2432518000714,581.5588168001268,581.2432518000714,None,None,581.2432518000714,None,582.0424549500458,None,,,,22019,0002,2022_Dec_11_1134,localizer,2021.1.3,59.83344762862646,
block,scenes,scenes069.bmp,,,,,0,69,69,69,,,,,,,,,,,,,,,,,,,,,,,,,,,,,,,,,,,,,,,,,,None,,582.0424549500458,None,582.0424549500458,None,2022-12-11-11:44:02.999848,582.0437753000297,582.3591140001081,582.0437753000297,582.0437753000297,y,582.0437753000297,582.0437753000297,582.8443287501577,None,0.5343212999869138,,,22019,0002,2022_Dec_11_1134,localizer,2021.1.3,59.83344762862646,
block,scenes,scenes050.bmp,,,,,0,70,70,70,,,,,,,,,,,,,,,,,,,,,,,,,,,,,,,,,,,,,,,,,,None,,582.8443287501577,None,582.8443287501577,None,2022-12-11-11:44:03.805872,582.8518433000427,583.1601401001681,582.8518433000427,582.8518433000427,None,582.8518433000427,582.8518433000427,583.6590637499467,None,,,,22019,0002,2022_Dec_11_1134,localizer,2021.1.3,59.83344762862646,
block,scenes,scenes035.bmp,,,,,0,71,71,71,,,,,,,,,,,,,,,,,,,,,,,,,,,,,,,,,,,,,,,,,,None,,583.6590637499467,None,583.6590637499467,None,2022-12-11-11:44:04.613482,583.6643626000732,583.9755192000885,583.6643626000732,None,None,583.6643626000732,None,584.476035250118,None,,,,22019,0002,2022_Dec_11_1134,localizer,2021.1.3,59.83344762862646,
block,scenes,scenes082.bmp,,,,,0,72,72,72,,,,,,,,,,,,,,,,,,,,,,,,,,,,,,,,,,,,,,,,,,None,,584.476035250118,None,584.476035250118,None,2022-12-11-11:44:05.431613,584.4765401000623,584.7922932000365,584.4765401000623,None,None,584.4765401000623,None,585.2778126499616,None,,,,22019,0002,2022_Dec_11_1134,localizer,2021.1.3,59.83344762862646,
block,scenes,scenes028.bmp,,,,,0,73,73,73,,,,,,,,,,,,,,,,,,,,,,,,,,,,,,,,,,,,,,,,,,None,,585.2778126499616,None,585.2778126499616,None,2022-12-11-11:44:06.239169,585.284076299984,585.5929167000577,585.284076299984,585.284076299984,None,585.284076299984,585.284076299984,586.0936286500655,None,,,,22019,0002,2022_Dec_11_1134,localizer,2021.1.3,59.83344762862646,
block,scenes,scenes027.bmp,,,,,0,74,74,74,,,,,,,,,,,,,,,,,,,,,,,,,,,,,,,,,,,,,,,,,,None,,586.0936286500655,None,586.0936286500655,None,2022-12-11-11:44:07.050192,586.1073835999705,586.4089315000456,586.1073835999705,None,None,586.1073835999705,None,586.9087941499893,None,,,,22019,0002,2022_Dec_11_1134,localizer,2021.1.3,59.83344762862646,
block_end,scenes,scenes031.bmp,,,,,0,75,75,75,,,,,,,,,,,,,,,,,,,,,,,,,,,,,,,,,,,,,,,,,,None,,586.9087941499893,None,586.9087941499893,None,2022-12-11-11:44:07.864195,586.9192345000338,587.2263649001252,586.9192345000338,None,None,586.9192345000338,None,587.7154858501162,None,,,,22019,0002,2022_Dec_11_1134,localizer,2021.1.3,59.83344762862646,
block_start,faces,faces053.bmp,,,,,0,76,76,76,,,,,,,,,,,,,,,,,,,,,,,,,,,,,,,,,,,,,,,,,,t,1.839218399953097,587.7112955001649,None,587.7112955001649,None,2022-12-11-11:44:10.531534,589.5768619000446,589.8923049999867,589.5768619000446,None,None,589.5768619000446,None,590.3758799501229,None,,,,22019,0002,2022_Dec_11_1134,localizer,2021.1.3,59.83344762862646,
block,faces,faces058.bmp,,,,,0,77,77,77,,,,,,,,,,,,,,,,,,,,,,,,,,,,,,,,,,,,,,,,,,None,,590.3758799501229,None,590.3758799501229,None,2022-12-11-11:44:11.333274,590.3892604000866,590.6923218001612,590.3892604000866,590.3892604000866,None,590.3892604000866,590.3892604000866,591.1925866501406,None,,,,22019,0002,2022_Dec_11_1134,localizer,2021.1.3,59.83344762862646,
block,faces,faces015.bmp,,,,,0,78,78,78,,,,,,,,,,,,,,,,,,,,,,,,,,,,,,,,,,,,,,,,,,None,,591.1925866501406,None,591.1925866501406,None,2022-12-11-11:44:12.148200,591.2043906000908,591.5092291999608,591.2043906000908,None,None,591.2043906000908,None,592.0091819500085,None,,,,22019,0002,2022_Dec_11_1134,localizer,2021.1.3,59.83344762862646,
block,faces,faces051.bmp,,,,,0,79,79,79,,,,,,,,,,,,,,,,,,,,,,,,,,,,,,,,,,,,,,,,,,None,,592.0091819500085,None,592.0091819500085,None,2022-12-11-11:44:12.964762,592.0102089999709,592.3103614000138,592.0102089999709,None,None,592.0102089999709,None,592.8098052500281,None,,,,22019,0002,2022_Dec_11_1134,localizer,2021.1.3,59.83344762862646,
block,faces,faces077.bmp,,,,,0,80,80,80,,,,,,,,,,,,,,,,,,,,,,,,,,,,,,,,,,,,,,,,,,None,,592.8098052500281,None,592.8098052500281,None,2022-12-11-11:44:13.768182,592.8258297001012,593.125704200007,592.8258297001012,592.8258297001012,None,592.8258297001012,592.8258297001012,593.6264218499418,None,,,,22019,0002,2022_Dec_11_1134,localizer,2021.1.3,59.83344762862646,
block,faces,faces028.bmp,,,,,0,81,81,81,,,,,,,,,,,,,,,,,,,,,,,,,,,,,,,,,,,,,,,,,,None,,593.6264218499418,None,593.6264218499418,None,2022-12-11-11:44:14.582996,593.6270922000986,593.9423253999557,593.6270922000986,None,None,593.6270922000986,None,594.4427354501095,None,,,,22019,0002,2022_Dec_11_1134,localizer,2021.1.3,59.83344762862646,
block,faces,faces019.bmp,,,,,0,82,82,82,,,,,,,,,,,,,,,,,,,,,,,,,,,,,,,,,,,,,,,,,,None,,594.4427354501095,None,594.4427354501095,None,2022-12-11-11:44:15.398155,594.4606618001126,594.7758953999728,594.4606618001126,None,None,594.4606618001126,None,595.259277950041,None,,,,22019,0002,2022_Dec_11_1134,localizer,2021.1.3,59.83344762862646,
block,faces,faces016.bmp,,,,,0,83,83,83,,,,,,,,,,,,,,,,,,,,,,,,,,,,,,,,,,,,,,,,,,None,,595.259277950041,None,595.259277950041,None,2022-12-11-11:44:16.214673,595.261282700114,595.5601624001283,595.261282700114,None,None,595.261282700114,None,596.0654975499492,None,,,,22019,0002,2022_Dec_11_1134,localizer,2021.1.3,59.83344762862646,
block,faces,faces066.bmp,,,,,0,84,84,84,,,,,,,,,,,,,,,,,,,,,,,,,,,,,,,,,,,,,,,,,,None,,596.0654975499492,None,596.0654975499492,None,2022-12-11-11:44:17.028561,596.0723403999582,596.3758038000669,596.0723403999582,None,None,596.0723403999582,None,596.876354750013,None,,,,22019,0002,2022_Dec_11_1134,localizer,2021.1.3,59.83344762862646,
block,faces,faces082.bmp,,,,,0,85,85,85,,,,,,,,,,,,,,,,,,,,,,,,,,,,,,,,,,,,,,,,,,None,,596.876354750013,None,596.876354750013,None,2022-12-11-11:44:17.832937,596.8770461999811,597.1755580999888,596.8770461999811,None,None,596.8770461999811,None,597.6797085499857,None,,,,22019,0002,2022_Dec_11_1134,localizer,2021.1.3,59.83344762862646,
block,faces,faces070.bmp,,,,,0,86,86,86,,,,,,,,,,,,,,,,,,,,,,,,,,,,,,,,,,,,,,,,,,None,,597.6797085499857,None,597.6797085499857,None,2022-12-11-11:44:18.646188,597.6897434999701,597.9923537001014,597.6897434999701,597.6897434999701,None,597.6897434999701,597.6897434999701,598.4923917499837,None,,,,22019,0002,2022_Dec_11_1134,localizer,2021.1.3,59.83344762862646,
block,faces,faces054.bmp,,,,,0,87,87,87,,,,,,,,,,,,,,,,,,,,,,,,,,,,,,,,,,,,,,,,,,None,,598.4923917499837,None,598.4923917499837,None,2022-12-11-11:44:19.447799,598.4939466000069,598.8092015001457,598.4939466000069,None,None,598.4939466000069,None,599.3092099500354,None,,,,22019,0002,2022_Dec_11_1134,localizer,2021.1.3,59.83344762862646,
block,faces,faces006.bmp,,,,,0,88,88,88,,,,,,,,,,,,,,,,,,,,,,,,,,,,,,,,,,,,,,,,,,None,,599.3092099500354,None,599.3092099500354,None,2022-12-11-11:44:20.264607,599.3098629000597,599.6099742001388,599.3098629000597,None,None,599.3098629000597,None,600.1090936500113,None,,,,22019,0002,2022_Dec_11_1134,localizer,2021.1.3,59.83344762862646,
block,faces,faces014.bmp,,,,,0,89,89,89,,,,,,,,,,,,,,,,,,,,,,,,,,,,,,,,,,,,,,,,,,None,,600.1090936500113,None,600.1090936500113,None,2022-12-11-11:44:21.065494,600.110053300159,600.4257656000555,600.110053300159,600.110053300159,None,600.110053300159,600.110053300159,600.9092626499478,None,,,,22019,0002,2022_Dec_11_1134,localizer,2021.1.3,59.83344762862646,
block_end,faces,faces083.bmp,,,,,0,90,90,90,,,,,,,,,,,,,,,,,,,,,,,,,,,,,,,,,,,,,,,,,,None,,600.9092626499478,None,600.9092626499478,None,2022-12-11-11:44:21.865901,600.9098555000965,601.2090952000581,600.9098555000965,600.9098555000965,None,600.9098555000965,600.9098555000965,601.7153699500486,None,,,,22019,0002,2022_Dec_11_1134,localizer,2021.1.3,59.83344762862646,
null_block,null_block,null_block.bmp,,,,,0,91,91,91,,,,,,,,,,,,,,,,,,,,,,,,,,,,,,,,,,,,,,,,,,t,1.8381350000854582,601.7112779000308,None,601.7112779000308,None,2022-12-11-11:44:24.530525,603.5760757501703,None,603.5760757501703,None,None,603.5760757501703,None,603.5788662000559,None,,,,22019,0002,2022_Dec_11_1134,localizer,2021.1.3,59.83344762862646,
block_start,objects,objects035.bmp,,,,,0,92,92,92,,,,,,,,,,,,,,,,,,,,,,,,,,,,,,,,,,,,,,,,,,t,1.95647450000979,615.5929442001507,None,615.5929442001507,None,2022-12-11-11:44:38.531500,617.5770253001247,617.8924523000605,617.5770253001247,None,None,617.5770253001247,None,618.3761518499814,None,,,,22019,0002,2022_Dec_11_1134,localizer,2021.1.3,59.83344762862646,
block,objects,objects022.bmp,,,,,0,93,93,93,,,,,,,,,,,,,,,,,,,,,,,,,,,,,,,,,,,,,,,,,,None,,618.3761518499814,None,618.3761518499814,None,2022-12-11-11:44:39.333542,618.3778618001379,618.6928944000974,618.3778618001379,618.3778618001379,None,618.3778618001379,618.3778618001379,619.1927756499499,None,,,,22019,0002,2022_Dec_11_1134,localizer,2021.1.3,59.83344762862646,
block,objects,objects075.bmp,,,,,0,94,94,94,,,,,,,,,,,,,,,,,,,,,,,,,,,,,,,,,,,,,,,,,,None,,619.1927756499499,None,619.1927756499499,None,2022-12-11-11:44:40.148377,619.1936512000393,619.4991828999482,619.1936512000393,None,None,619.1936512000393,None,619.9941573501565,None,,,,22019,0002,2022_Dec_11_1134,localizer,2021.1.3,59.83344762862646,
block,objects,objects036.bmp,,,,,0,95,95,95,,,,,,,,,,,,,,,,,,,,,,,,,,,,,,,,,,,,,,,,,,None,,619.9941573501565,None,619.9941573501565,None,2022-12-11-11:44:40.955662,620.0116904000752,620.3261506999843,620.0116904000752,620.0116904000752,None,620.0116904000752,620.0116904000752,620.8094523500185,None,,,,22019,0002,2022_Dec_11_1134,localizer,2021.1.3,59.83344762862646,
block,objects,objects011.bmp,,,,,0,96,96,96,,,,,,,,,,,,,,,,,,,,,,,,,,,,,,,,,,,,,,,,,,None,,620.8094523500185,None,620.8094523500185,None,2022-12-11-11:44:41.765068,620.8204650001135,621.1260742000304,620.8204650001135,None,None,620.8204650001135,None,621.6250633499585,None,,,,22019,0002,2022_Dec_11_1134,localizer,2021.1.3,59.83344762862646,
block,objects,objects017.bmp,,,,,0,97,97,97,,,,,,,,,,,,,,,,,,,,,,,,,,,,,,,,,,,,,,,,,,None,,621.6250633499585,None,621.6250633499585,None,2022-12-11-11:44:42.579877,621.6272189000156,621.9428173999768,621.6272189000156,None,None,621.6272189000156,None,622.4262953500729,None,,,,22019,0002,2022_Dec_11_1134,localizer,2021.1.3,59.83344762862646,
block,objects,objects064.bmp,,,,,0,98,98,98,,,,,,,,,,,,,,,,,,,,,,,,,,,,,,,,,,,,,,,,,,None,,622.4262953500729,None,622.4262953500729,None,2022-12-11-11:44:43.383913,622.4398996999953,622.7426446999889,622.4398996999953,622.4398996999953,None,622.4398996999953,622.4398996999953,623.2427506500389,None,,,,22019,0002,2022_Dec_11_1134,localizer,2021.1.3,59.83344762862646,
block,objects,objects008.bmp,,,,,0,99,99,99,,,,,,,,,,,,,,,,,,,,,,,,,,,,,,,,,,,,,,,,,,None,,623.2427506500389,None,623.2427506500389,None,2022-12-11-11:44:44.199083,623.2435298000928,623.5428367001005,623.2435298000928,None,None,623.2435298000928,None,624.0588883501478,None,,,,22019,0002,2022_Dec_11_1134,localizer,2021.1.3,59.83344762862646,
block,objects,objects009.bmp,,,,,0,100,100,100,,,,,,,,,,,,,,,,,,,,,,,,,,,,,,,,,,,,,,,,,,None,,624.0588883501478,None,624.0588883501478,None,2022-12-11-11:44:45.014295,624.0684313999955,624.375820599962,624.0684313999955,None,None,624.0684313999955,None,624.8760606499854,None,,,,22019,0002,2022_Dec_11_1134,localizer,2021.1.3,59.83344762862646,
block,objects,objects077.bmp,,,,,0,101,101,101,,,,,,,,,,,,,,,,,,,,,,,,,,,,,,,,,,,,,,,,,,None,,624.8760606499854,None,624.8760606499854,None,2022-12-11-11:44:45.831668,624.8863258999772,625.1928652999923,624.8863258999772,None,None,624.8863258999772,None,625.6924411500804,None,,,,22019,0002,2022_Dec_11_1134,localizer,2021.1.3,59.83344762862646,
block,objects,objects040.bmp,,,,,0,102,102,102,,,,,,,,,,,,,,,,,,,,,,,,,,,,,,,,,,,,,,,,,,None,,625.6924411500804,None,625.6924411500804,None,2022-12-11-11:44:46.648052,625.6935338000767,626.0094241001643,625.6935338000767,None,None,625.6935338000767,None,626.4930429500528,None,,,,22019,0002,2022_Dec_11_1134,localizer,2021.1.3,59.83344762862646,
block,objects,objects058.bmp,,,,,0,103,103,103,,,,,,,,,,,,,,,,,,,,,,,,,,,,,,,,,,,,,,,,,,None,,626.4930429500528,None,626.4930429500528,None,2022-12-11-11:44:47.450408,626.4956513999496,626.8096264000051,626.4956513999496,626.4956513999496,None,626.4956513999496,626.4956513999496,627.3097965500783,None,,,,22019,0002,2022_Dec_11_1134,localizer,2021.1.3,59.83344762862646,
block,objects,objects047.bmp,,,,,0,104,104,104,,,,,,,,,,,,,,,,,,,,,,,,,,,,,,,,,,,,,,,,,,None,,627.3097965500783,None,627.3097965500783,None,2022-12-11-11:44:48.266387,627.3103704000823,627.6098660000134,627.3103704000823,None,None,627.3103704000823,None,628.1259327500593,None,,,,22019,0002,2022_Dec_11_1134,localizer,2021.1.3,59.83344762862646,
block,objects,objects056.bmp,,,,,0,105,105,105,,,,,,,,,,,,,,,,,,,,,,,,,,,,,,,,,,,,,,,,,,None,,628.1259327500593,None,628.1259327500593,None,2022-12-11-11:44:49.081406,628.1266632000916,628.4262953000143,628.1266632000916,None,None,628.1266632000916,None,628.9261997500435,None,,,,22019,0002,2022_Dec_11_1134,localizer,2021.1.3,59.83344762862646,
block_end,objects,objects076.bmp,,,,,0,106,106,106,,,,,,,,,,,,,,,,,,,,,,,,,,,,,,,,,,,,,,,,,,None,,628.9261997500435,None,628.9261997500435,None,2022-12-11-11:44:49.883589,628.9395648001228,629.2433354000095,628.9395648001228,628.9395648001228,None,628.9395648001228,628.9395648001228,629.7449519501533,None,,,,22019,0002,2022_Dec_11_1134,localizer,2021.1.3,59.83344762862646,
block_start,scrambled,scrambled063.bmp,,,,,0,107,107,107,,,,,,,,,,,,,,,,,,,,,,,,,,,,,,,,,,,,,,,,,,t,1.8062058999203146,629.7431195001118,None,629.7431195001118,None,2022-12-11-11:44:52.529943,631.5770485000685,631.8762713000178,631.5770485000685,None,None,631.5770485000685,None,632.3763611500617,None,,,,22019,0002,2022_Dec_11_1134,localizer,2021.1.3,59.83344762862646,
block,scrambled,scrambled038.bmp,,,,,0,108,108,108,,,,,,,,,,,,,,,,,,,,,,,,,,,,,,,,,,,,,,,,,,None,,632.3763611500617,None,632.3763611500617,None,2022-12-11-11:44:53.333751,632.3790096000303,632.6930607999675,632.3790096000303,632.3790096000303,None,632.3790096000303,632.3790096000303,633.1930496501736,None,,,,22019,0002,2022_Dec_11_1134,localizer,2021.1.3,59.83344762862646,
block,scrambled,scrambled006.bmp,,,,,0,109,109,109,,,,,,,,,,,,,,,,,,,,,,,,,,,,,,,,,,,,,,,,,,None,,633.1930496501736,None,633.1930496501736,None,2022-12-11-11:44:54.148445,633.1936904999893,633.492593199946,633.1936904999893,None,None,633.1936904999893,None,633.9928834501188,None,,,,22019,0002,2022_Dec_11_1134,localizer,2021.1.3,59.83344762862646,
block,scrambled,scrambled070.bmp,,,,,0,110,110,110,,,,,,,,,,,,,,,,,,,,,,,,,,,,,,,,,,,,,,,,,,None,,633.9928834501188,None,633.9928834501188,None,2022-12-11-11:44:54.950272,633.9941390000749,634.3093537001405,633.9941390000749,633.9941390000749,None,633.9941390000749,633.9941390000749,634.8094963501208,None,,,,22019,0002,2022_Dec_11_1134,localizer,2021.1.3,59.83344762862646,
block,scrambled,scrambled048.bmp,,,,,0,111,111,111,,,,,,,,,,,,,,,,,,,,,,,,,,,,,,,,,,,,,,,,,,None,,634.8094963501208,None,634.8094963501208,None,2022-12-11-11:44:55.764895,634.8203186001629,635.1261881999671,634.8203186001629,None,None,634.8203186001629,None,635.6262660501525,None,,,,22019,0002,2022_Dec_11_1134,localizer,2021.1.3,59.83344762862646,
block,scrambled,scrambled081.bmp,,,,,0,112,112,112,,,,,,,,,,,,,,,,,,,,,,,,,,,,,,,,,,,,,,,,,,None,,635.6262660501525,None,635.6262660501525,None,2022-12-11-11:44:56.581877,635.6267667000648,635.9272168001626,635.6267667000648,None,None,635.6267667000648,None,636.4271992500871,None,,,,22019,0002,2022_Dec_11_1134,localizer,2021.1.3,59.83344762862646,
block,scrambled,scrambled051.bmp,,,,,0,113,113,113,,,,,,,,,,,,,,,,,,,,,,,,,,,,,,,,,,,,,,,,,,None,,636.4271992500871,None,636.4271992500871,None,2022-12-11-11:44:57.387551,636.4450262000319,636.7595041999593,636.4450262000319,636.4450262000319,None,636.4450262000319,636.4450262000319,637.2429288499989,None,,,,22019,0002,2022_Dec_11_1134,localizer,2021.1.3,59.83344762862646,
block,scrambled,scrambled013.bmp,,,,,0,114,114,114,,,,,,,,,,,,,,,,,,,,,,,,,,,,,,,,,,,,,,,,,,None,,637.2429288499989,None,637.2429288499989,None,2022-12-11-11:44:58.198351,637.2536230999976,637.5598190000746,637.2536230999976,None,None,637.2536230999976,None,638.0605380500201,None,,,,22019,0002,2022_Dec_11_1134,localizer,2021.1.3,59.83344762862646,
block,scrambled,scrambled052.bmp,,,,,0,115,115,115,,,,,,,,,,,,,,,,,,,,,,,,,,,,,,,,,,,,,,,,,,None,,638.0605380500201,None,638.0605380500201,None,2022-12-11-11:44:59.017918,638.0751747000031,638.376114099985,638.0751747000031,None,None,638.0751747000031,None,638.8761443500407,None,,,,22019,0002,2022_Dec_11_1134,localizer,2021.1.3,59.83344762862646,
block,scrambled,scrambled036.bmp,,,,,0,116,116,116,,,,,,,,,,,,,,,,,,,,,,,,,,,,,,,,,,,,,,,,,,None,,638.8761443500407,None,638.8761443500407,None,2022-12-11-11:44:59.831754,638.8869870000053,639.1923073001672,638.8869870000053,None,None,638.8869870000053,None,639.6928083500825,None,,,,22019,0002,2022_Dec_11_1134,localizer,2021.1.3,59.83344762862646,
block,scrambled,scrambled007.bmp,,,,,0,117,117,117,,,,,,,,,,,,,,,,,,,,,,,,,,,,,,,,,,,,,,,,,,None,,639.6928083500825,None,639.6928083500825,None,2022-12-11-11:45:00.647649,639.6938863999676,640.0103949999902,639.6938863999676,None,None,639.6938863999676,None,640.493532750057,None,,,,22019,0002,2022_Dec_11_1134,localizer,2021.1.3,59.83344762862646,
block,scrambled,scrambled047.bmp,,,,,0,118,118,118,,,,,,,,,,,,,,,,,,,,,,,,,,,,,,,,,,,,,,,,,,None,,640.493532750057,None,640.493532750057,None,2022-12-11-11:45:01.451896,640.5080367000774,640.8095383001491,640.5080367000774,640.5080367000774,None,640.5080367000774,640.5080367000774,641.3096821501385,None,,,,22019,0002,2022_Dec_11_1134,localizer,2021.1.3,59.83344762862646,
block,scrambled,scrambled030.bmp,,,,,0,119,119,119,,,,,,,,,,,,,,,,,,,,,,,,,,,,,,,,,,,,,,,,,,None,,641.3096821501385,None,641.3096821501385,None,2022-12-11-11:45:02.265308,641.3104263001587,641.6096227001399,641.3104263001587,None,None,641.3104263001587,None,642.1095754499547,None,,,,22019,0002,2022_Dec_11_1134,localizer,2021.1.3,59.83344762862646,
block,scrambled,scrambled003.bmp,,,,,0,120,120,120,,,,,,,,,,,,,,,,,,,,,,,,,,,,,,,,,,,,,,,,,,None,,642.1095754499547,None,642.1095754499547,None,2022-12-11-11:45:03.067172,642.1234629000537,642.4262582000811,642.1234629000537,642.1234629000537,None,642.1234629000537,642.1234629000537,642.9262175499462,None,,,,22019,0002,2022_Dec_11_1134,localizer,2021.1.3,59.83344762862646,
block_end,scrambled,scrambled058.bmp,,,,,0,121,121,121,,,,,,,,,,,,,,,,,,,,,,,,,,,,,,,,,,,,,,,,,,None,,642.9262175499462,None,642.9262175499462,None,2022-12-11-11:45:03.881798,642.9369407000486,643.2428022001404,642.9369407000486,None,None,642.9369407000486,None,643.7424931500573,None,,,,22019,0002,2022_Dec_11_1134,localizer,2021.1.3,59.83344762862646,
block_start,scrambled,scrambled031.bmp,,,,,0,122,122,122,,,,,,,,,,,,,,,,,,,,,,,,,,,,,,,,,,,,,,,,,,t,1.8070032000541687,643.7424151001032,None,643.7424151001032,None,2022-12-11-11:45:06.530775,645.5768711001147,645.8761026000138,645.5768711001147,None,None,645.5768711001147,None,646.3761416501366,None,,,,22019,0002,2022_Dec_11_1134,localizer,2021.1.3,59.83344762862646,
block,scrambled,scrambled018.bmp,,,,,0,123,123,123,,,,,,,,,,,,,,,,,,,,,,,,,,,,,,,,,,,,,,,,,,None,,646.3761416501366,None,646.3761416501366,None,2022-12-11-11:45:07.333760,646.378079000162,646.6927479000296,646.378079000162,646.378079000162,None,646.378079000162,646.378079000162,647.1796857500449,None,,,,22019,0002,2022_Dec_11_1134,localizer,2021.1.3,59.83344762862646,
block,scrambled,scrambled058.bmp,,,,,0,124,124,124,,,,,,,,,,,,,,,,,,,,,,,,,,,,,,,,,,,,,,,,,,None,,647.1796857500449,None,647.1796857500449,None,2022-12-11-11:45:08.141211,647.1864462001249,647.4932079999708,647.1864462001249,647.1864462001249,None,647.1864462001249,647.1864462001249,647.9929671499413,None,,,,22019,0002,2022_Dec_11_1134,localizer,2021.1.3,59.83344762862646,
block,scrambled,scrambled084.bmp,,,,,0,125,125,125,,,,,,,,,,,,,,,,,,,,,,,,,,,,,,,,,,,,,,,,,,None,,647.9929671499413,None,647.9929671499413,None,2022-12-11-11:45:08.948365,647.9937802001368,648.2929332000203,647.9937802001368,None,None,647.9937802001368,None,648.7928188501392,None,,,,22019,0002,2022_Dec_11_1134,localizer,2021.1.3,59.83344762862646,
block,scrambled,scrambled061.bmp,,,,,0,126,126,126,,,,,,,,,,,,,,,,,,,,,,,,,,,,,,,,,,,,,,,,,,None,,648.7928188501392,None,648.7928188501392,None,2022-12-11-11:45:09.750216,648.7940098999534,649.1095420001075,648.7940098999534,648.7940098999534,None,648.7940098999534,648.7940098999534,649.6095497501083,None,,,,22019,0002,2022_Dec_11_1134,localizer,2021.1.3,59.83344762862646,
block,scrambled,scrambled005.bmp,,,,,0,127,127,127,,,,,,,,,,,,,,,,,,,,,,,,,,,,,,,,,,,,,,,,,,None,,649.6095497501083,None,649.6095497501083,None,2022-12-11-11:45:10.565187,649.6103197000921,649.9105730000883,649.6103197000921,None,None,649.6103197000921,None,650.4106633500196,None,,,,22019,0002,2022_Dec_11_1134,localizer,2021.1.3,59.83344762862646,
block,scrambled,scrambled013.bmp,,,,,0,128,128,128,,,,,,,,,,,,,,,,,,,,,,,,,,,,,,,,,,,,,,,,,,None,,650.4106633500196,None,650.4106633500196,None,2022-12-11-11:45:11.371032,650.415953299962,650.7261113000568,650.415953299962,650.415953299962,None,650.415953299962,650.415953299962,651.2264461501036,None,,,,22019,0002,2022_Dec_11_1134,localizer,2021.1.3,59.83344762862646,
block,scrambled,scrambled088.bmp,,,,,0,129,129,129,,,,,,,,,,,,,,,,,,,,,,,,,,,,,,,,,,,,,,,,,,None,,651.2264461501036,None,651.2264461501036,None,2022-12-11-11:45:12.182037,651.2273745001294,651.5265136000235,651.2273745001294,None,None,651.2273745001294,None,652.0268451501615,None,,,,22019,0002,2022_Dec_11_1134,localizer,2021.1.3,59.83344762862646,
block,scrambled,scrambled066.bmp,,,,,0,130,130,130,,,,,,,,,,,,,,,,,,,,,,,,,,,,,,,,,,,,,,,,,,None,,652.0268451501615,None,652.0268451501615,None,2022-12-11-11:45:12.986227,652.0307742999867,652.3428263000678,652.0307742999867,652.0307742999867,None,652.0307742999867,652.0307742999867,652.8427827500273,None,,,,22019,0002,2022_Dec_11_1134,localizer,2021.1.3,59.83344762862646,
block,scrambled,scrambled056.bmp,,,,,0,131,131,131,,,,,,,,,,,,,,,,,,,,,,,,,,,,,,,,,,,,,,,,,,None,,652.8427827500273,None,652.8427827500273,None,2022-12-11-11:45:13.798183,652.8523651000578,653.1594998999499,652.8523651000578,None,None,652.8523651000578,None,653.6594819501042,None,,,,22019,0002,2022_Dec_11_1134,localizer,2021.1.3,59.83344762862646,
block,scrambled,scrambled083.bmp,,,,,0,132,132,132,,,,,,,,,,,,,,,,,,,,,,,,,,,,,,,,,,,,,,,,,,None,,653.6594819501042,None,653.6594819501042,None,2022-12-11-11:45:14.615017,653.6638361001387,653.9761191001162,653.6638361001387,None,None,653.6638361001387,None,654.4762510501314,None,,,,22019,0002,2022_Dec_11_1134,localizer,2021.1.3,59.83344762862646,
block,scrambled,scrambled020.bmp,,,,,0,133,133,133,,,,,,,,,,,,,,,,,,,,,,,,,,,,,,,,,,,,,,,,,,None,,654.4762510501314,None,654.4762510501314,None,2022-12-11-11:45:15.431851,654.48732880014,654.7929120000917,654.48732880014,None,None,654.48732880014,None,655.2929280500393,None,,,,22019,0002,2022_Dec_11_1134,localizer,2021.1.3,59.83344762862646,
block,scrambled,scrambled025.bmp,,,,,0,134,134,134,,,,,,,,,,,,,,,,,,,,,,,,,,,,,,,,,,,,,,,,,,None,,655.2929280500393,None,655.2929280500393,None,2022-12-11-11:45:16.248544,655.2999490001239,655.6093054001685,655.2999490001239,None,None,655.2999490001239,None,656.1096146500204,None,,,,22019,0002,2022_Dec_11_1134,localizer,2021.1.3,59.83344762862646,
block,scrambled,scrambled081.bmp,,,,,0,135,135,135,,,,,,,,,,,,,,,,,,,,,,,,,,,,,,,,,,,,,,,,,,None,,656.1096146500204,None,656.1096146500204,None,2022-12-11-11:45:17.065008,656.1104262999725,656.4095984001178,656.1104262999725,None,None,656.1104262999725,None,656.9097249500919,None,,,,22019,0002,2022_Dec_11_1134,localizer,2021.1.3,59.83344762862646,
block_end,scrambled,scrambled036.bmp,,,,,0,136,136,136,,,,,,,,,,,,,,,,,,,,,,,,,,,,,,,,,,,,,,,,,,None,,656.9097249500919,None,656.9097249500919,None,2022-12-11-11:45:17.867354,656.9117616999429,657.2262653000653,656.9117616999429,656.9117616999429,None,656.9117616999429,656.9117616999429,657.7261007500347,None,,,,22019,0002,2022_Dec_11_1134,localizer,2021.1.3,59.83344762862646,
block_start,scenes,scenes090.bmp,,,,,0,137,137,137,,,,,,,,,,,,,,,,,,,,,,,,,,,,,,,,,,,,,,,,,,t,1.8232953001279384,657.7260873999912,None,657.7260873999912,None,2022-12-11-11:45:20.530080,659.5866960999556,659.8945820000954,659.5866960999556,None,None,659.5866960999556,None,660.3939256500453,None,,,,22019,0002,2022_Dec_11_1134,localizer,2021.1.3,59.83344762862646,
block,scenes,scenes023.bmp,,,,,0,138,138,138,,,,,,,,,,,,,,,,,,,,,,,,,,,,,,,,,,,,,,,,,,None,,660.3939256500453,None,660.3939256500453,None,2022-12-11-11:45:21.351502,660.3965444001369,660.7090326000471,660.3965444001369,None,None,660.3965444001369,None,661.2100903501268,None,,,,22019,0002,2022_Dec_11_1134,localizer,2021.1.3,59.83344762862646,
block,scenes,scenes077.bmp,,,,,0,139,139,139,,,,,,,,,,,,,,,,,,,,,,,,,,,,,,,,,,,,,,,,,,None,,661.2100903501268,None,661.2100903501268,None,2022-12-11-11:45:22.166458,661.2109870000277,661.5100883000996,661.2109870000277,None,None,661.2109870000277,None,662.0263183501083,None,,,,22019,0002,2022_Dec_11_1134,localizer,2021.1.3,59.83344762862646,
block,scenes,scenes068.bmp,,,,,0,140,140,140,,,,,,,,,,,,,,,,,,,,,,,,,,,,,,,,,,,,,,,,,,None,,662.0263183501083,None,662.0263183501083,None,2022-12-11-11:45:22.981932,662.027146999957,662.3265607999638,662.027146999957,None,None,662.027146999957,None,662.828368350165,None,,,,22019,0002,2022_Dec_11_1134,localizer,2021.1.3,59.83344762862646,
block,scenes,scenes002.bmp,,,,,0,141,141,141,,,,,,,,,,,,,,,,,,,,,,,,,,,,,,,,,,,,,,,,,,None,,662.828368350165,None,662.828368350165,None,2022-12-11-11:45:23.789949,662.8348155000713,663.1434341000859,662.8348155000713,662.8348155000713,None,662.8348155000713,662.8348155000713,663.6429981500842,None,,,,22019,0002,2022_Dec_11_1134,localizer,2021.1.3,59.83344762862646,
block,scenes,scenes080.bmp,,,,,0,142,142,142,,,,,,,,,,,,,,,,,,,,,,,,,,,,,,,,,,,,,,,,,,None,,663.6429981500842,None,663.6429981500842,None,2022-12-11-11:45:24.598397,663.6534959999844,663.9596416000277,663.6534959999844,None,None,663.6534959999844,None,664.4599922499619,None,,,,22019,0002,2022_Dec_11_1134,localizer,2021.1.3,59.83344762862646,
block,scenes,scenes013.bmp,,,,,0,143,143,143,,,,,,,,,,,,,,,,,,,,,,,,,,,,,,,,,,,,,,,,,,None,,664.4599922499619,None,664.4599922499619,None,2022-12-11-11:45:25.416575,664.4716456001624,664.776387100108,664.4716456001624,None,None,664.4716456001624,None,665.2763712501619,None,,,,22019,0002,2022_Dec_11_1134,localizer,2021.1.3,59.83344762862646,
block,scenes,scenes006.bmp,,,,,0,144,144,144,,,,,,,,,,,,,,,,,,,,,,,,,,,,,,,,,,,,,,,,,,None,,665.2763712501619,None,665.2763712501619,None,2022-12-11-11:45:26.231984,665.2873949999921,665.5927903000265,665.2873949999921,None,None,665.2873949999921,None,666.0934880501591,None,,,,22019,0002,2022_Dec_11_1134,localizer,2021.1.3,59.83344762862646,
block,scenes,scenes085.bmp,,,,,0,145,145,145,,,,,,,,,,,,,,,,,,,,,,,,,,,,,,,,,,,,,,,,,,None,,666.0934880501591,None,666.0934880501591,None,2022-12-11-11:45:27.050383,666.1060361000709,666.4096518999431,666.1060361000709,None,None,666.1060361000709,None,666.9098457500804,None,,,,22019,0002,2022_Dec_11_1134,localizer,2021.1.3,59.83344762862646,
block,scenes,scenes087.bmp,,,,,0,146,146,146,,,,,,,,,,,,,,,,,,,,,,,,,,,,,,,,,,,,,,,,,,None,,666.9098457500804,None,666.9098457500804,None,2022-12-11-11:45:27.865403,666.9105629001278,667.2258798000403,666.9105629001278,None,None,666.9105629001278,None,667.7096461500041,None,,,,22019,0002,2022_Dec_11_1134,localizer,2021.1.3,59.83344762862646,
block,scenes,scenes079.bmp,,,,,0,147,147,147,,,,,,,,,,,,,,,,,,,,,,,,,,,,,,,,,,,,,,,,,,None,,667.7096461500041,None,667.7096461500041,None,2022-12-11-11:45:28.667038,667.7123957001604,668.0265579000115,667.7123957001604,667.7123957001604,None,667.7123957001604,667.7123957001604,668.5264508500695,None,,,,22019,0002,2022_Dec_11_1134,localizer,2021.1.3,59.83344762862646,
block,scenes,scenes056.bmp,,,,,0,148,148,148,,,,,,,,,,,,,,,,,,,,,,,,,,,,,,,,,,,,,,,,,,None,,668.5264508500695,None,668.5264508500695,None,2022-12-11-11:45:29.481847,668.5274525999557,668.8265396000352,668.5274525999557,None,None,668.5274525999557,None,669.3431232499424,None,,,,22019,0002,2022_Dec_11_1134,localizer,2021.1.3,59.83344762862646,
block,scenes,scenes063.bmp,,,,,0,149,149,149,,,,,,,,,,,,,,,,,,,,,,,,,,,,,,,,,,,,,,,,,,None,,669.3431232499424,None,669.3431232499424,None,2022-12-11-11:45:30.298621,669.3518173999619,669.6592125999741,669.3518173999619,None,None,669.3518173999619,None,670.1600504501257,None,,,,22019,0002,2022_Dec_11_1134,localizer,2021.1.3,59.83344762862646,
block,scenes,scenes004.bmp,,,,,0,150,150,150,,,,,,,,,,,,,,,,,,,,,,,,,,,,,,,,,,,,,,,,,,None,,670.1600504501257,None,670.1600504501257,None,2022-12-11-11:45:31.116628,670.1768655001651,670.4927519001067,670.1768655001651,None,None,670.1768655001651,None,670.9765892501455,None,,,,22019,0002,2022_Dec_11_1134,localizer,2021.1.3,59.83344762862646,
block_end,scenes,scenes083.bmp,,,,,0,151,151,151,,,,,,,,,,,,,,,,,,,,,,,,,,,,,,,,,,,,,,,,,,None,,670.9765892501455,None,670.9765892501455,None,2022-12-11-11:45:31.931994,670.9771245000884,671.2763867001049,670.9771245000884,None,None,670.9771245000884,None,671.7928494501393,None,,,,22019,0002,2022_Dec_11_1134,localizer,2021.1.3,59.83344762862646,
null_block,null_block,null_block.bmp,,,,,0,152,152,152,,,,,,,,,,,,,,,,,,,,,,,,,,,,,,,,,,,,,,,,,,t,1.7565748000051826,671.7928794999607,None,671.7928794999607,None,2022-12-11-11:45:34.532086,673.5766375500243,None,673.5766375500243,None,None,673.5766375500243,None,673.5803936000448,None,,,,22019,0002,2022_Dec_11_1134,localizer,2021.1.3,59.83344762862646,
block_start,objects,objects044.bmp,,,,,0,153,153,153,,,,,,,,,,,,,,,,,,,,,,,,,,,,,,,,,,,,,,,,,,t,1.956215700134635,685.5932269000914,None,685.5932269000914,None,2022-12-11-11:45:48.533247,687.587160800118,687.8933215001598,687.587160800118,None,None,687.587160800118,None,688.3935554500204,None,,,,22019,0002,2022_Dec_11_1134,localizer,2021.1.3,59.83344762862646,
block,objects,objects021.bmp,,,,,0,154,154,154,,,,,,,,,,,,,,,,,,,,,,,,,,,,,,,,,,,,,,,,,,None,,688.3935554500204,None,688.3935554500204,None,2022-12-11-11:45:49.348946,688.3941381000914,688.6935460001696,688.3941381000914,None,None,688.3941381000914,None,689.1935045500286,None,,,,22019,0002,2022_Dec_11_1134,localizer,2021.1.3,59.83344762862646,
block,objects,objects020.bmp,,,,,0,155,155,155,,,,,,,,,,,,,,,,,,,,,,,,,,,,,,,,,,,,,,,,,,None,,689.1935045500286,None,689.1935045500286,None,2022-12-11-11:45:50.152076,689.1963108000346,689.5097992999945,689.1963108000346,689.1963108000346,None,689.1963108000346,689.1963108000346,690.0099066500552,None,,,,22019,0002,2022_Dec_11_1134,localizer,2021.1.3,59.83344762862646,
block,objects,objects082.bmp,,,,,0,156,156,156,,,,,,,,,,,,,,,,,,,,,,,,,,,,,,,,,,,,,,,,,,None,,690.0099066500552,None,690.0099066500552,None,2022-12-11-11:45:50.965305,690.020334900124,690.3264240000863,690.020334900124,None,None,690.020334900124,None,690.8262128501665,None,,,,22019,0002,2022_Dec_11_1134,localizer,2021.1.3,59.83344762862646,
block,objects,objects061.bmp,,,,,0,157,157,157,,,,,,,,,,,,,,,,,,,,,,,,,,,,,,,,,,,,,,,,,,None,,690.8262128501665,None,690.8262128501665,None,2022-12-11-11:45:51.781614,690.8272957999725,691.1265165000223,690.8272957999725,None,None,690.8272957999725,None,691.6267382500228,None,,,,22019,0002,2022_Dec_11_1134,localizer,2021.1.3,59.83344762862646,
block,objects,objects055.bmp,,,,,0,158,158,158,,,,,,,,,,,,,,,,,,,,,,,,,,,,,,,,,,,,,,,,,,None,,691.6267382500228,None,691.6267382500228,None,2022-12-11-11:45:52.584228,691.6401760999579,691.9433470000513,691.6401760999579,691.6401760999579,None,691.6401760999579,691.6401760999579,692.4434717500117,None,,,,22019,0002,2022_Dec_11_1134,localizer,2021.1.3,59.83344762862646,
block,objects,objects058.bmp,,,,,0,159,159,159,,,,,,,,,,,,,,,,,,,,,,,,,,,,,,,,,,,,,,,,,,None,,692.4434717500117,None,692.4434717500117,None,2022-12-11-11:45:53.398865,692.4441847000271,692.7433647001162,692.4441847000271,None,None,692.4441847000271,None,693.2599564499687,None,,,,22019,0002,2022_Dec_11_1134,localizer,2021.1.3,59.83344762862646,
block,objects,objects062.bmp,,,,,0,160,160,160,,,,,,,,,,,,,,,,,,,,,,,,,,,,,,,,,,,,,,,,,,None,,693.2599564499687,None,693.2599564499687,None,2022-12-11-11:45:54.215353,693.2605646001175,693.5598319999408,693.2605646001175,None,None,693.2605646001175,None,694.0600056501571,None,,,,22019,0002,2022_Dec_11_1134,localizer,2021.1.3,59.83344762862646,
block,objects,objects052.bmp,,,,,0,161,161,161,,,,,,,,,,,,,,,,,,,,,,,,,,,,,,,,,,,,,,,,,,None,,694.0600056501571,None,694.0600056501571,None,2022-12-11-11:45:55.017399,694.0615958000999,694.3765889001079,694.0615958000999,694.0615958000999,None,694.0615958000999,694.0615958000999,694.8765336500946,None,,,,22019,0002,2022_Dec_11_1134,localizer,2021.1.3,59.83344762862646,
block,objects,objects052.bmp,,,,,0,162,162,162,,,,,,,,,,,,,,,,,,,,,,,,,,,,,,,,,,,,,,,,,,None,,694.8765336500946,None,694.8765336500946,None,2022-12-11-11:45:55.832124,694.8774089999497,695.1764690999407,694.8774089999497,None,y,694.8774089999497,None,695.6967916500289,None,0.47371799987740815,,,22019,0002,2022_Dec_11_1134,localizer,2021.1.3,59.83344762862646,
block,objects,objects010.bmp,,,,,0,163,163,163,,,,,,,,,,,,,,,,,,,,,,,,,,,,,,,,,,,,,,,,,,None,,695.6967916500289,None,695.6967916500289,None,2022-12-11-11:45:56.660603,695.7068060999736,696.0105507001281,695.7068060999736,None,None,695.7068060999736,None,696.5098339500837,None,,,,22019,0002,2022_Dec_11_1134,localizer,2021.1.3,59.83344762862646,
block,objects,objects053.bmp,,,,,0,164,164,164,,,,,,,,,,,,,,,,,,,,,,,,,,,,,,,,,,,,,,,,,,None,,696.5098339500837,None,696.5098339500837,None,2022-12-11-11:45:57.465442,696.5207079001702,696.8264616001397,696.5207079001702,None,None,696.5207079001702,None,697.3267353500705,None,,,,22019,0002,2022_Dec_11_1134,localizer,2021.1.3,59.83344762862646,
block,objects,objects077.bmp,,,,,0,165,165,165,,,,,,,,,,,,,,,,,,,,,,,,,,,,,,,,,,,,,,,,,,None,,697.3267353500705,None,697.3267353500705,None,2022-12-11-11:45:58.282131,697.3272023999598,697.6270713000558,697.3272023999598,None,None,697.3272023999598,None,698.1271295500919,None,,,,22019,0002,2022_Dec_11_1134,localizer,2021.1.3,59.83344762862646,
block,objects,objects004.bmp,,,,,0,166,166,166,,,,,,,,,,,,,,,,,,,,,,,,,,,,,,,,,,,,,,,,,,None,,698.1271295500919,None,698.1271295500919,None,2022-12-11-11:45:59.085709,698.1302458001301,698.4433494000696,698.1302458001301,698.1302458001301,None,698.1302458001301,698.1302458001301,698.9433910499793,None,,,,22019,0002,2022_Dec_11_1134,localizer,2021.1.3,59.83344762862646,
block_end,objects,objects042.bmp,,,,,0,167,167,167,,,,,,,,,,,,,,,,,,,,,,,,,,,,,,,,,,,,,,,,,,None,,698.9433910499793,None,698.9433910499793,None,2022-12-11-11:45:59.898994,698.9439533001278,699.2431002999656,698.9439533001278,None,None,698.9439533001278,None,699.7494411501102,None,,,,22019,0002,2022_Dec_11_1134,localizer,2021.1.3,59.83344762862646,
block_start,faces,faces059.bmp,,,,,0,168,168,168,,,,,,,,,,,,,,,,,,,,,,,,,,,,,,,,,,,,,,,,,,t,1.8040057998150587,699.7453199999873,None,699.7453199999873,None,2022-12-11-11:46:02.531902,701.5878556000534,701.8931973001454,701.5878556000534,None,None,701.5878556000534,None,702.3934410500806,None,,,,22019,0002,2022_Dec_11_1134,localizer,2021.1.3,59.83344762862646,
block,faces,faces007.bmp,,,,,0,169,169,169,,,,,,,,,,,,,,,,,,,,,,,,,,,,,,,,,,,,,,,,,,None,,702.3934410500806,None,702.3934410500806,None,2022-12-11-11:46:03.349038,702.3940698001534,702.6934936000034,702.3940698001534,None,None,702.3940698001534,None,703.1933489500079,None,,,,22019,0002,2022_Dec_11_1134,localizer,2021.1.3,59.83344762862646,
block,faces,faces006.bmp,,,,,0,170,170,170,,,,,,,,,,,,,,,,,,,,,,,,,,,,,,,,,,,,,,,,,,None,,703.1933489500079,None,703.1933489500079,None,2022-12-11-11:46:04.150947,703.1963514999952,703.5099516999908,703.1963514999952,703.1963514999952,None,703.1963514999952,703.1963514999952,704.0103405499831,None,,,,22019,0002,2022_Dec_11_1134,localizer,2021.1.3,59.83344762862646,
block,faces,faces085.bmp,,,,,0,171,171,171,,,,,,,,,,,,,,,,,,,,,,,,,,,,,,,,,,,,,,,,,,None,,704.0103405499831,None,704.0103405499831,None,2022-12-11-11:46:04.966804,704.0221760999411,704.3266078000888,704.0221760999411,None,None,704.0221760999411,None,704.8267360499594,None,,,,22019,0002,2022_Dec_11_1134,localizer,2021.1.3,59.83344762862646,
block,faces,faces024.bmp,,,,,0,172,172,172,,,,,,,,,,,,,,,,,,,,,,,,,,,,,,,,,,,,,,,,,,None,,704.8267360499594,None,704.8267360499594,None,2022-12-11-11:46:05.782315,704.838747800095,705.143257800024,704.838747800095,None,None,704.838747800095,None,705.6435202499852,None,,,,22019,0002,2022_Dec_11_1134,localizer,2021.1.3,59.83344762862646,
block,faces,faces069.bmp,,,,,0,173,173,173,,,,,,,,,,,,,,,,,,,,,,,,,,,,,,,,,,,,,,,,,,None,,705.6435202499852,None,705.6435202499852,None,2022-12-11-11:46:06.599121,705.644096700009,705.9434267000761,705.644096700009,None,None,705.644096700009,None,706.4436837499961,None,,,,22019,0002,2022_Dec_11_1134,localizer,2021.1.3,59.83344762862646,
block,faces,faces026.bmp,,,,,0,174,174,174,,,,,,,,,,,,,,,,,,,,,,,,,,,,,,,,,,,,,,,,,,None,,706.4436837499961,None,706.4436837499961,None,2022-12-11-11:46:07.402259,706.485184200108,706.7933802001644,706.485184200108,706.485184200108,None,706.485184200108,706.485184200108,707.2600328500848,None,,,,22019,0002,2022_Dec_11_1134,localizer,2021.1.3,59.83344762862646,
block,faces,faces003.bmp,,,,,0,175,175,175,,,,,,,,,,,,,,,,,,,,,,,,,,,,,,,,,,,,,,,,,,None,,707.2600328500848,None,707.2600328500848,None,2022-12-11-11:46:08.215453,707.2708787999582,707.576556700049,707.2708787999582,None,None,707.2708787999582,None,708.0766489501111,None,,,,22019,0002,2022_Dec_11_1134,localizer,2021.1.3,59.83344762862646,
block,faces,faces071.bmp,,,,,0,176,176,176,,,,,,,,,,,,,,,,,,,,,,,,,,,,,,,,,,,,,,,,,,None,,708.0766489501111,None,708.0766489501111,None,2022-12-11-11:46:09.032046,708.077291799942,708.3767795001622,708.077291799942,None,None,708.077291799942,None,708.8768263501115,None,,,,22019,0002,2022_Dec_11_1134,localizer,2021.1.3,59.83344762862646,
block,faces,faces068.bmp,,,,,0,177,177,177,,,,,,,,,,,,,,,,,,,,,,,,,,,,,,,,,,,,,,,,,,None,,708.8768263501115,None,708.8768263501115,None,2022-12-11-11:46:09.834213,708.8780517999548,709.1933891000226,708.8780517999548,708.8780517999548,None,708.8780517999548,708.8780517999548,709.6931643499993,None,,,,22019,0002,2022_Dec_11_1134,localizer,2021.1.3,59.83344762862646,
block,faces,faces050.bmp,,,,,0,178,178,178,,,,,,,,,,,,,,,,,,,,,,,,,,,,,,,,,,,,,,,,,,None,,709.6931643499993,None,709.6931643499993,None,2022-12-11-11:46:10.647845,709.7024904000573,710.0100166001357,709.7024904000573,None,None,709.7024904000573,None,710.5101380499545,None,,,,22019,0002,2022_Dec_11_1134,localizer,2021.1.3,59.83344762862646,
block,faces,faces082.bmp,,,,,0,179,179,179,,,,,,,,,,,,,,,,,,,,,,,,,,,,,,,,,,,,,,,,,,None,,710.5101380499545,None,710.5101380499545,None,2022-12-11-11:46:11.465537,710.5108340000734,710.810028700158,710.5108340000734,None,None,710.5108340000734,None,711.3110524499789,None,,,,22019,0002,2022_Dec_11_1134,localizer,2021.1.3,59.83344762862646,
block,faces,faces021.bmp,,,,,0,180,180,180,,,,,,,,,,,,,,,,,,,,,,,,,,,,,,,,,,,,,,,,,,None,,711.3110524499789,None,711.3110524499789,None,2022-12-11-11:46:12.271404,711.3285905001685,711.6433107000776,711.3285905001685,711.3285905001685,None,711.3285905001685,711.3285905001685,712.126619250048,None,,,,22019,0002,2022_Dec_11_1134,localizer,2021.1.3,59.83344762862646,
block,faces,faces057.bmp,,,,,0,181,181,181,,,,,,,,,,,,,,,,,,,,,,,,,,,,,,,,,,,,,,,,,,None,,712.126619250048,None,712.126619250048,None,2022-12-11-11:46:13.082009,712.127372100018,712.4267349999864,712.127372100018,None,None,712.127372100018,None,712.9265624501277,None,,,,22019,0002,2022_Dec_11_1134,localizer,2021.1.3,59.83344762862646,
block_end,faces,faces078.bmp,,,,,0,182,182,182,,,,,,,,,,,,,,,,,,,,,,,,,,,,,,,,,,,,,,,,,,None,,712.9265624501277,None,712.9265624501277,None,2022-12-11-11:46:13.884060,712.92787340004,713.2434111000039,712.92787340004,712.92787340004,None,712.92787340004,712.92787340004,713.7430356501136,None,,,,22019,0002,2022_Dec_11_1134,localizer,2021.1.3,59.83344762862646,
block_start,faces,faces071.bmp,,,,,0,183,183,183,,,,,,,,,,,,,,,,,,,,,,,,,,,,,,,,,,,,,,,,,,t,1.8064197001513094,713.7428919000085,None,713.7428919000085,None,2022-12-11-11:46:16.533663,715.5784700000659,715.8937614001334,715.5784700000659,None,None,715.5784700000659,None,716.3937218501233,None,,,,22019,0002,2022_Dec_11_1134,localizer,2021.1.3,59.83344762862646,
block,faces,faces076.bmp,,,,,0,184,184,184,,,,,,,,,,,,,,,,,,,,,,,,,,,,,,,,,,,,,,,,,,None,,716.3937218501233,None,716.3937218501233,None,2022-12-11-11:46:17.350293,716.3944916999899,716.7101116999984,716.3944916999899,None,None,716.3944916999899,None,717.210101850098,None,,,,22019,0002,2022_Dec_11_1134,localizer,2021.1.3,59.83344762862646,
block,faces,faces067.bmp,,,,,0,185,185,185,,,,,,,,,,,,,,,,,,,,,,,,,,,,,,,,,,,,,,,,,,None,,717.210101850098,None,717.210101850098,None,2022-12-11-11:46:18.165678,717.2107390000019,717.5100267000962,717.2107390000019,None,None,717.2107390000019,None,718.0100470499601,None,,,,22019,0002,2022_Dec_11_1134,localizer,2021.1.3,59.83344762862646,
block,faces,faces019.bmp,,,,,0,186,186,186,,,,,,,,,,,,,,,,,,,,,,,,,,,,,,,,,,,,,,,,,,None,,718.0100470499601,None,718.0100470499601,None,2022-12-11-11:46:18.967647,718.0120391000528,718.3267963000108,718.0120391000528,718.0120391000528,None,718.0120391000528,718.0120391000528,718.8268000499811,None,,,,22019,0002,2022_Dec_11_1134,localizer,2021.1.3,59.83344762862646,
block,faces,faces042.bmp,,,,,0,187,187,187,,,,,,,,,,,,,,,,,,,,,,,,,,,,,,,,,,,,,,,,,,None,,718.8268000499811,None,718.8268000499811,None,2022-12-11-11:46:19.782191,718.8338655999396,719.1432668000925,718.8338655999396,None,None,718.8338655999396,None,719.6329061500728,None,,,,22019,0002,2022_Dec_11_1134,localizer,2021.1.3,59.83344762862646,
block,faces,faces065.bmp,,,,,0,188,188,188,,,,,,,,,,,,,,,,,,,,,,,,,,,,,,,,,,,,,,,,,,None,,719.6329061500728,None,719.6329061500728,None,2022-12-11-11:46:20.596252,719.6437667000573,719.943225499941,719.6437667000573,None,None,719.6437667000573,None,720.4438817501068,None,,,,22019,0002,2022_Dec_11_1134,localizer,2021.1.3,59.83344762862646,
block,faces,faces056.bmp,,,,,0,189,189,189,,,,,,,,,,,,,,,,,,,,,,,,,,,,,,,,,,,,,,,,,,None,,720.4438817501068,None,720.4438817501068,None,2022-12-11-11:46:21.401264,720.4458620001096,720.7605944999959,720.4458620001096,None,None,720.4458620001096,None,721.2602261500433,None,,,,22019,0002,2022_Dec_11_1134,localizer,2021.1.3,59.83344762862646,
block,faces,faces040.bmp,,,,,0,190,190,190,,,,,,,,,,,,,,,,,,,,,,,,,,,,,,,,,,,,,,,,,,None,,721.2602261500433,None,721.2602261500433,None,2022-12-11-11:46:22.215826,721.2611577000935,721.5603015001398,721.2611577000935,None,None,721.2611577000935,None,722.0602283501066,None,,,,22019,0002,2022_Dec_11_1134,localizer,2021.1.3,59.83344762862646,
block,faces,faces077.bmp,,,,,0,191,191,191,,,,,,,,,,,,,,,,,,,,,,,,,,,,,,,,,,,,,,,,,,None,,722.0602283501066,None,722.0602283501066,None,2022-12-11-11:46:23.017820,722.0633460001554,722.376813699957,722.0633460001554,722.0633460001554,None,722.0633460001554,722.0633460001554,722.8772175500635,None,,,,22019,0002,2022_Dec_11_1134,localizer,2021.1.3,59.83344762862646,
block,faces,faces027.bmp,,,,,0,192,192,192,,,,,,,,,,,,,,,,,,,,,,,,,,,,,,,,,,,,,,,,,,None,,722.8772175500635,None,722.8772175500635,None,2022-12-11-11:46:23.833801,722.8777805999853,723.1769833001308,722.8777805999853,None,None,722.8777805999853,None,723.693141350057,None,,,,22019,0002,2022_Dec_11_1134,localizer,2021.1.3,59.83344762862646,
block,faces,faces075.bmp,,,,,0,193,193,193,,,,,,,,,,,,,,,,,,,,,,,,,,,,,,,,,,,,,,,,,,None,,723.693141350057,None,723.693141350057,None,2022-12-11-11:46:24.648753,723.6943413999397,724.0100094000809,723.6943413999397,None,None,723.6943413999397,None,724.4935356499627,None,,,,22019,0002,2022_Dec_11_1134,localizer,2021.1.3,59.83344762862646,
block,faces,faces010.bmp,,,,,0,194,194,194,,,,,,,,,,,,,,,,,,,,,,,,,,,,,,,,,,,,,,,,,,None,,724.4935356499627,None,724.4935356499627,None,2022-12-11-11:46:25.451041,724.4963990999386,724.8100656999741,724.4963990999386,724.4963990999386,None,724.4963990999386,724.4963990999386,725.3100346501451,None,,,,22019,0002,2022_Dec_11_1134,localizer,2021.1.3,59.83344762862646,
block,faces,faces066.bmp,,,,,0,195,195,195,,,,,,,,,,,,,,,,,,,,,,,,,,,,,,,,,,,,,,,,,,None,,725.3100346501451,None,725.3100346501451,None,2022-12-11-11:46:26.265433,725.3107316000387,725.6100717000663,725.3107316000387,None,None,725.3107316000387,None,726.1102272500284,None,,,,22019,0002,2022_Dec_11_1134,localizer,2021.1.3,59.83344762862646,
block,faces,faces064.bmp,,,,,0,196,196,196,,,,,,,,,,,,,,,,,,,,,,,,,,,,,,,,,,,,,,,,,,None,,726.1102272500284,None,726.1102272500284,None,2022-12-11-11:46:27.067616,726.1233039000072,726.4266536999494,726.1233039000072,726.1233039000072,None,726.1233039000072,726.1233039000072,726.9286702501122,None,,,,22019,0002,2022_Dec_11_1134,localizer,2021.1.3,59.83344762862646,
block_end,faces,faces035.bmp,,,,,0,197,197,197,,,,,,,,,,,,,,,,,,,,,,,,,,,,,,,,,,,,,,,,,,None,,726.9286702501122,None,726.9286702501122,None,2022-12-11-11:46:27.888056,726.946714400081,727.2603378000204,726.946714400081,None,None,726.946714400081,None,727.7431082499679,None,,,,22019,0002,2022_Dec_11_1134,localizer,2021.1.3,59.83344762862646,
block_start,objects,objects026.bmp,,,,,0,198,198,198,,,,,,,,,,,,,,,,,,,,,,,,,,,,,,,,,,,,,,,,,,t,1.8052191000897437,727.7430632000323,None,727.7430632000323,None,2022-12-11-11:46:30.532497,729.5890135001391,729.8935090000741,729.5890135001391,None,None,729.5890135001391,None,730.3938646500465,None,,,,22019,0002,2022_Dec_11_1134,localizer,2021.1.3,59.83344762862646,
block,objects,objects056.bmp,,,,,0,199,199,199,,,,,,,,,,,,,,,,,,,,,,,,,,,,,,,,,,,,,,,,,,None,,730.3938646500465,None,730.3938646500465,None,2022-12-11-11:46:31.350251,730.3945534999948,730.7100041001104,730.3945534999948,None,None,730.3945534999948,None,731.1937560499646,None,,,,22019,0002,2022_Dec_11_1134,localizer,2021.1.3,59.83344762862646,
block,objects,objects064.bmp,,,,,0,200,200,200,,,,,,,,,,,,,,,,,,,,,,,,,,,,,,,,,,,,,,,,,,None,,731.1937560499646,None,731.1937560499646,None,2022-12-11-11:46:32.151143,731.196358300047,731.5104098001029,731.196358300047,731.196358300047,None,731.196358300047,731.196358300047,732.0107442501467,None,,,,22019,0002,2022_Dec_11_1134,localizer,2021.1.3,59.83344762862646,
block,objects,objects067.bmp,,,,,0,201,201,201,,,,,,,,,,,,,,,,,,,,,,,,,,,,,,,,,,,,,,,,,,None,,732.0107442501467,None,732.0107442501467,None,2022-12-11-11:46:32.967339,732.0115539000835,732.3106364000123,732.0115539000835,None,None,732.0115539000835,None,732.810651750071,None,,,,22019,0002,2022_Dec_11_1134,localizer,2021.1.3,59.83344762862646,
block,objects,objects072.bmp,,,,,0,202,202,202,,,,,,,,,,,,,,,,,,,,,,,,,,,,,,,,,,,,,,,,,,None,,732.810651750071,None,732.810651750071,None,2022-12-11-11:46:33.769022,732.8249397000764,733.1273847001139,732.8249397000764,732.8249397000764,None,732.8249397000764,732.8249397000764,733.6266397500876,None,,,,22019,0002,2022_Dec_11_1134,localizer,2021.1.3,59.83344762862646,
block,objects,objects083.bmp,,,,,0,203,203,203,,,,,,,,,,,,,,,,,,,,,,,,,,,,,,,,,,,,,,,,,,None,,733.6266397500876,None,733.6266397500876,None,2022-12-11-11:46:34.582163,733.6276503000408,733.9278270001523,733.6276503000408,None,None,733.6276503000408,None,734.4268221501261,None,,,,22019,0002,2022_Dec_11_1134,localizer,2021.1.3,59.83344762862646,
block,objects,objects076.bmp,,,,,0,204,204,204,,,,,,,,,,,,,,,,,,,,,,,,,,,,,,,,,,,,,,,,,,None,,734.4268221501261,None,734.4268221501261,None,2022-12-11-11:46:35.383219,734.4276243001223,734.7432977000717,734.4276243001223,734.4276243001223,None,734.4276243001223,734.4276243001223,735.2268104499672,None,,,,22019,0002,2022_Dec_11_1134,localizer,2021.1.3,59.83344762862646,
block,objects,objects013.bmp,,,,,0,205,205,205,,,,,,,,,,,,,,,,,,,,,,,,,,,,,,,,,,,,,,,,,,None,,735.2268104499672,None,735.2268104499672,None,2022-12-11-11:46:36.184407,735.2284683999605,735.5434880999383,735.2284683999605,735.2284683999605,None,735.2284683999605,735.2284683999605,736.0435662500095,None,,,,22019,0002,2022_Dec_11_1134,localizer,2021.1.3,59.83344762862646,
block,objects,objects043.bmp,,,,,0,206,206,206,,,,,,,,,,,,,,,,,,,,,,,,,,,,,,,,,,,,,,,,,,None,,736.0435662500095,None,736.0435662500095,None,2022-12-11-11:46:36.999166,736.0440998000558,736.3436037001666,736.0440998000558,None,None,736.0440998000558,None,736.8436311499681,None,,,,22019,0002,2022_Dec_11_1134,localizer,2021.1.3,59.83344762862646,
block,objects,objects073.bmp,,,,,0,207,207,207,,,,,,,,,,,,,,,,,,,,,,,,,,,,,,,,,,,,,,,,,,None,,736.8436311499681,None,736.8436311499681,None,2022-12-11-11:46:37.801025,736.8454026000109,737.159819399938,736.8454026000109,736.8454026000109,None,736.8454026000109,736.8454026000109,737.6609818500001,None,,,,22019,0002,2022_Dec_11_1134,localizer,2021.1.3,59.83344762862646,
block,objects,objects037.bmp,,,,,0,208,208,208,,,,,,,,,,,,,,,,,,,,,,,,,,,,,,,,,,,,,,,,,,None,,737.6609818500001,None,737.6609818500001,None,2022-12-11-11:46:38.617544,737.6632940999698,737.9768082001247,737.6632940999698,None,None,737.6632940999698,None,738.477173050167,None,,,,22019,0002,2022_Dec_11_1134,localizer,2021.1.3,59.83344762862646,
block,objects,objects068.bmp,,,,,0,209,209,209,,,,,,,,,,,,,,,,,,,,,,,,,,,,,,,,,,,,,,,,,,None,,738.477173050167,None,738.477173050167,None,2022-12-11-11:46:39.432746,738.4842987000011,738.7934501001146,738.4842987000011,None,None,738.4842987000011,None,739.2947599501349,None,,,,22019,0002,2022_Dec_11_1134,localizer,2021.1.3,59.83344762862646,
block,objects,objects030.bmp,,,,,0,210,210,210,,,,,,,,,,,,,,,,,,,,,,,,,,,,,,,,,,,,,,,,,,None,,739.2947599501349,None,739.2947599501349,None,2022-12-11-11:46:40.252230,739.2980083001312,739.6107773999684,739.2980083001312,None,None,739.2980083001312,None,740.1107825499494,None,,,,22019,0002,2022_Dec_11_1134,localizer,2021.1.3,59.83344762862646,
block,objects,objects045.bmp,,,,,0,211,211,211,,,,,,,,,,,,,,,,,,,,,,,,,,,,,,,,,,,,,,,,,,None,,740.1107825499494,None,740.1107825499494,None,2022-12-11-11:46:41.067357,740.1115484000184,740.4107574000955,740.1115484000184,None,None,740.1115484000184,None,740.9107837500051,None,,,,22019,0002,2022_Dec_11_1134,localizer,2021.1.3,59.83344762862646,
block_end,objects,objects069.bmp,,,,,0,212,212,212,,,,,,,,,,,,,,,,,,,,,,,,,,,,,,,,,,,,,,,,,,None,,740.9107837500051,None,740.9107837500051,None,2022-12-11-11:46:41.869166,740.9139066999778,741.2272714001592,740.9139066999778,740.9139066999778,None,740.9139066999778,740.9139066999778,741.7265468500555,None,,,,22019,0002,2022_Dec_11_1134,localizer,2021.1.3,59.83344762862646,
null_block,null_block,null_block.bmp,,,,,0,213,213,213,,,,,,,,,,,,,,,,,,,,,,,,,,,,,,,,,,,,,,,,,,t,1.821566600119695,741.7268769000657,None,741.7268769000657,None,2022-12-11-11:46:44.530651,743.576841250062,None,743.576841250062,None,None,743.576841250062,None,743.5789372001309,None,,,,22019,0002,2022_Dec_11_1134,localizer,2021.1.3,59.83344762862646,
block_start,scenes,scenes033.bmp,,,,,0,214,214,214,,,,,,,,,,,,,,,,,,,,,,,,,,,,,,,,,,,,,,,,,,t,1.9545490997843444,755.5938281000126,None,755.5938281000126,None,2022-12-11-11:46:58.537762,757.5810920000076,757.8935833000578,757.5810920000076,None,None,757.5810920000076,None,758.3937854501419,None,,,,22019,0002,2022_Dec_11_1134,localizer,2021.1.3,59.83344762862646,
block,scenes,scenes041.bmp,,,,,0,215,215,215,,,,,,,,,,,,,,,,,,,,,,,,,,,,,,,,,,,,,,,,,,None,,758.3937854501419,None,758.3937854501419,None,2022-12-11-11:46:59.349183,758.4026661999524,758.7102868000511,758.4026661999524,None,None,758.4026661999524,None,759.2104882500134,None,,,,22019,0002,2022_Dec_11_1134,localizer,2021.1.3,59.83344762862646,
block,scenes,scenes023.bmp,,,,,0,216,216,216,,,,,,,,,,,,,,,,,,,,,,,,,,,,,,,,,,,,,,,,,,None,,759.2104882500134,None,759.2104882500134,None,2022-12-11-11:47:00.165882,759.2110397000797,759.5104702999815,759.2110397000797,None,None,759.2110397000797,None,760.010511550121,None,,,,22019,0002,2022_Dec_11_1134,localizer,2021.1.3,59.83344762862646,
block,scenes,scenes047.bmp,,,,,0,217,217,217,,,,,,,,,,,,,,,,,,,,,,,,,,,,,,,,,,,,,,,,,,None,,760.010511550121,None,760.010511550121,None,2022-12-11-11:47:00.968031,760.0239951000549,760.3269080000464,760.0239951000549,760.0239951000549,None,760.0239951000549,760.0239951000549,760.8277354501188,None,,,,22019,0002,2022_Dec_11_1134,localizer,2021.1.3,59.83344762862646,
block,scenes,scenes055.bmp,,,,,0,218,218,218,,,,,,,,,,,,,,,,,,,,,,,,,,,,,,,,,,,,,,,,,,None,,760.8277354501188,None,760.8277354501188,None,2022-12-11-11:47:01.784186,760.8299209000543,761.1434071999975,760.8299209000543,None,None,760.8299209000543,None,761.644061050145,None,,,,22019,0002,2022_Dec_11_1134,localizer,2021.1.3,59.83344762862646,
block,scenes,scenes056.bmp,,,,,0,219,219,219,,,,,,,,,,,,,,,,,,,,,,,,,,,,,,,,,,,,,,,,,,None,,761.644061050145,None,761.644061050145,None,2022-12-11-11:47:02.599625,761.6449476999696,761.9599282001145,761.6449476999696,None,None,761.6449476999696,None,762.4599784500897,None,,,,22019,0002,2022_Dec_11_1134,localizer,2021.1.3,59.83344762862646,
block,scenes,scenes059.bmp,,,,,0,220,220,220,,,,,,,,,,,,,,,,,,,,,,,,,,,,,,,,,,,,,,,,,,None,,762.4599784500897,None,762.4599784500897,None,2022-12-11-11:47:03.415381,762.4610619000159,762.7602198000532,762.4610619000159,None,None,762.4610619000159,None,763.2611739500426,None,,,,22019,0002,2022_Dec_11_1134,localizer,2021.1.3,59.83344762862646,
block,scenes,scenes030.bmp,,,,,0,221,221,221,,,,,,,,,,,,,,,,,,,,,,,,,,,,,,,,,,,,,,,,,,None,,763.2611739500426,None,763.2611739500426,None,2022-12-11-11:47:04.219723,763.2644577000756,763.5765895000659,763.2644577000756,763.2644577000756,None,763.2644577000756,763.2644577000756,764.0775869500358,None,,,,22019,0002,2022_Dec_11_1134,localizer,2021.1.3,59.83344762862646,
block,scenes,scenes028.bmp,,,,,0,222,222,222,,,,,,,,,,,,,,,,,,,,,,,,,,,,,,,,,,,,,,,,,,None,,764.0775869500358,None,764.0775869500358,None,2022-12-11-11:47:05.033973,764.0782602999825,764.3775345999748,764.0782602999825,None,None,764.0782602999825,None,764.8775493500289,None,,,,22019,0002,2022_Dec_11_1134,localizer,2021.1.3,59.83344762862646,
block,scenes,scenes040.bmp,,,,,0,223,223,223,,,,,,,,,,,,,,,,,,,,,,,,,,,,,,,,,,,,,,,,,,None,,764.8775493500289,None,764.8775493500289,None,2022-12-11-11:47:05.836111,764.880830100039,765.1943477999885,764.880830100039,764.880830100039,None,764.880830100039,764.880830100039,765.6941616500262,None,,,,22019,0002,2022_Dec_11_1134,localizer,2021.1.3,59.83344762862646,
block,scenes,scenes029.bmp,,,,,0,224,224,224,,,,,,,,,,,,,,,,,,,,,,,,,,,,,,,,,,,,,,,,,,None,,765.6941616500262,None,765.6941616500262,None,2022-12-11-11:47:06.650709,765.7059085001238,766.0104517999571,765.7059085001238,None,None,765.7059085001238,None,766.5105389500968,None,,,,22019,0002,2022_Dec_11_1134,localizer,2021.1.3,59.83344762862646,
block,scenes,scenes037.bmp,,,,,0,225,225,225,,,,,,,,,,,,,,,,,,,,,,,,,,,,,,,,,,,,,,,,,,None,,766.5105389500968,None,766.5105389500968,None,2022-12-11-11:47:07.467146,766.5114085001405,766.8106251000427,766.5114085001405,None,None,766.5114085001405,None,767.3105164500885,None,,,,22019,0002,2022_Dec_11_1134,localizer,2021.1.3,59.83344762862646,
block,scenes,scenes010.bmp,,,,,0,226,226,226,,,,,,,,,,,,,,,,,,,,,,,,,,,,,,,,,,,,,,,,,,None,,767.3105164500885,None,767.3105164500885,None,2022-12-11-11:47:08.268307,767.3207161000464,767.6274031000212,767.3207161000464,767.3207161000464,None,767.3207161000464,767.3207161000464,768.1281230500899,None,,,,22019,0002,2022_Dec_11_1134,localizer,2021.1.3,59.83344762862646,
block,scenes,scenes027.bmp,,,,,0,227,227,227,,,,,,,,,,,,,,,,,,,,,,,,,,,,,,,,,,,,,,,,,,None,,768.1281230500899,None,768.1281230500899,None,2022-12-11-11:47:09.084503,768.1301812001038,768.4440129001159,768.1301812001038,None,None,768.1301812001038,None,768.9437330500223,None,,,,22019,0002,2022_Dec_11_1134,localizer,2021.1.3,59.83344762862646,
block_end,scenes,scenes049.bmp,,,,,0,228,228,228,,,,,,,,,,,,,,,,,,,,,,,,,,,,,,,,,,,,,,,,,,None,,768.9437330500223,None,768.9437330500223,None,2022-12-11-11:47:09.899337,768.9444432000164,769.2438697000034,768.9444432000164,None,None,768.9444432000164,None,769.7602445499506,None,,,,22019,0002,2022_Dec_11_1134,localizer,2021.1.3,59.83344762862646,
block_start,scrambled,scrambled060.bmp,,,,,0,229,229,229,,,,,,,,,,,,,,,,,,,,,,,,,,,,,,,,,,,,,,,,,,t,1.7882642999757081,769.7602661999408,None,769.7602661999408,None,2022-12-11-11:47:12.530501,771.5789948999882,771.8939151000232,771.5789948999882,None,None,771.5789948999882,None,772.3939728501718,None,,,,22019,0002,2022_Dec_11_1134,localizer,2021.1.3,59.83344762862646,
block,scrambled,scrambled001.bmp,,,,,0,230,230,230,,,,,,,,,,,,,,,,,,,,,,,,,,,,,,,,,,,,,,,,,,None,,772.3939728501718,None,772.3939728501718,None,2022-12-11-11:47:13.349519,772.4046869000886,772.7107643999625,772.4046869000886,None,None,772.4046869000886,None,773.2107723499648,None,,,,22019,0002,2022_Dec_11_1134,localizer,2021.1.3,59.83344762862646,
block,scrambled,scrambled002.bmp,,,,,0,231,231,231,,,,,,,,,,,,,,,,,,,,,,,,,,,,,,,,,,,,,,,,,,None,,773.2107723499648,None,773.2107723499648,None,2022-12-11-11:47:14.167176,773.2114745001309,773.5268194000237,773.2114745001309,None,None,773.2114745001309,None,774.011036750162,None,,,,22019,0002,2022_Dec_11_1134,localizer,2021.1.3,59.83344762862646,
block,scrambled,scrambled025.bmp,,,,,0,232,232,232,,,,,,,,,,,,,,,,,,,,,,,,,,,,,,,,,,,,,,,,,,None,,774.011036750162,None,774.011036750162,None,2022-12-11-11:47:14.969444,774.0140832001343,774.3275811001658,774.0140832001343,774.0140832001343,None,774.0140832001343,774.0140832001343,774.8271575500257,None,,,,22019,0002,2022_Dec_11_1134,localizer,2021.1.3,59.83344762862646,
block,scrambled,scrambled025.bmp,,,,,0,233,233,233,,,,,,,,,,,,,,,,,,,,,,,,,,,,,,,,,,,,,,,,,,None,,774.8271575500257,None,774.8271575500257,None,2022-12-11-11:47:15.782718,774.8278129999526,775.1271212999709,774.8278129999526,None,y,774.8278129999526,None,775.6270909500308,None,0.618391300085932,,,22019,0002,2022_Dec_11_1134,localizer,2021.1.3,59.83344762862646,
block,scrambled,scrambled054.bmp,,,,,0,234,234,234,,,,,,,,,,,,,,,,,,,,,,,,,,,,,,,,,,,,,,,,,,None,,775.6270909500308,None,775.6270909500308,None,2022-12-11-11:47:16.585482,775.6417986999732,775.9438032000326,775.6417986999732,775.6417986999732,None,775.6417986999732,775.6417986999732,776.4438200499862,None,,,,22019,0002,2022_Dec_11_1134,localizer,2021.1.3,59.83344762862646,
block,scrambled,scrambled079.bmp,,,,,0,235,235,235,,,,,,,,,,,,,,,,,,,,,,,,,,,,,,,,,,,,,,,,,,None,,776.4438200499862,None,776.4438200499862,None,2022-12-11-11:47:17.399441,776.4445799000096,776.7435916000977,776.4445799000096,None,None,776.4445799000096,None,777.2437340500765,None,,,,22019,0002,2022_Dec_11_1134,localizer,2021.1.3,59.83344762862646,
block,scrambled,scrambled074.bmp,,,,,0,236,236,236,,,,,,,,,,,,,,,,,,,,,,,,,,,,,,,,,,,,,,,,,,None,,777.2437340500765,None,777.2437340500765,None,2022-12-11-11:47:18.202324,777.2468521001283,777.5619834000245,777.2468521001283,777.2468521001283,None,777.2468521001283,777.2468521001283,778.0617810501717,None,,,,22019,0002,2022_Dec_11_1134,localizer,2021.1.3,59.83344762862646,
block,scrambled,scrambled042.bmp,,,,,0,237,237,237,,,,,,,,,,,,,,,,,,,,,,,,,,,,,,,,,,,,,,,,,,None,,778.0617810501717,None,778.0617810501717,None,2022-12-11-11:47:19.021092,778.0773680000566,778.3772893999703,778.0773680000566,None,None,778.0773680000566,None,778.8773479501251,None,,,,22019,0002,2022_Dec_11_1134,localizer,2021.1.3,59.83344762862646,
block,scrambled,scrambled069.bmp,,,,,0,238,238,238,,,,,,,,,,,,,,,,,,,,,,,,,,,,,,,,,,,,,,,,,,None,,778.8773479501251,None,778.8773479501251,None,2022-12-11-11:47:19.832743,778.8885193001479,779.193523199996,778.8885193001479,None,None,778.8885193001479,None,779.6937343501486,None,,,,22019,0002,2022_Dec_11_1134,localizer,2021.1.3,59.83344762862646,
block,scrambled,scrambled029.bmp,,,,,0,239,239,239,,,,,,,,,,,,,,,,,,,,,,,,,,,,,,,,,,,,,,,,,,None,,779.6937343501486,None,779.6937343501486,None,2022-12-11-11:47:20.649342,779.6944886001293,779.9938070001081,779.6944886001293,None,None,779.6944886001293,None,780.4940328500234,None,,,,22019,0002,2022_Dec_11_1134,localizer,2021.1.3,59.83344762862646,
block,scrambled,scrambled068.bmp,,,,,0,240,240,240,,,,,,,,,,,,,,,,,,,,,,,,,,,,,,,,,,,,,,,,,,None,,780.4940328500234,None,780.4940328500234,None,2022-12-11-11:47:21.450572,780.5018480999861,780.8112282000948,780.5018480999861,780.5018480999861,None,780.5018480999861,780.5018480999861,781.3116883500479,None,,,,22019,0002,2022_Dec_11_1134,localizer,2021.1.3,59.83344762862646,
block,scrambled,scrambled062.bmp,,,,,0,241,241,241,,,,,,,,,,,,,,,,,,,,,,,,,,,,,,,,,,,,,,,,,,None,,781.3116883500479,None,781.3116883500479,None,2022-12-11-11:47:22.269248,781.326615100028,781.6270553001668,781.326615100028,None,None,781.326615100028,None,782.1269817501307,None,,,,22019,0002,2022_Dec_11_1134,localizer,2021.1.3,59.83344762862646,
block,scrambled,scrambled051.bmp,,,,,0,242,242,242,,,,,,,,,,,,,,,,,,,,,,,,,,,,,,,,,,,,,,,,,,None,,782.1269817501307,None,782.1269817501307,None,2022-12-11-11:47:23.082418,782.1280733000021,782.4275827000383,782.1280733000021,None,None,782.1280733000021,None,782.92716905009,None,,,,22019,0002,2022_Dec_11_1134,localizer,2021.1.3,59.83344762862646,
block_end,scrambled,scrambled088.bmp,,,,,0,243,243,243,,,,,,,,,,,,,,,,,,,,,,,,,,,,,,,,,,,,,,,,,,None,,782.92716905009,None,782.92716905009,None,2022-12-11-11:47:23.884562,782.9285327999387,783.243517300114,782.9285327999387,782.9285327999387,None,782.9285327999387,782.9285327999387,783.727969950065,None,,,,22019,0002,2022_Dec_11_1134,localizer,2021.1.3,59.83344762862646,
,,,,,,,,,,,,,,,,,,,,,,,,,,,,,,,,,,,,,,,,,,,,,,,,,,,,,,,,,,,,,,,,,,,,,783.7280147001147,None,,,,,,,
