block_type,condition,img_name,Button.thisRepN,Button.thisTrialN,Button.thisN,Button.thisIndex,trials.thisRepN,trials.thisTrialN,trials.thisN,trials.thisIndex,Alignment_background.started,Alignment_background.stopped,Alignment_image.started,Alignment_image.stopped,Alignment_resp.keys,Alignment_resp.rt,Alignment_resp.started,Alignment_resp.stopped,Button_text.started,Button_text.stopped,Index_text.started,Index_text.stopped,Index_resp.keys,Index_resp.rt,Index_resp.started,Index_resp.stopped,Middle_text.started,Middle_text.stopped,Middle_resp.keys,Middle_resp.rt,Middle_resp.started,Middle_resp.stopped,Repeat_text.started,Repeat_text.stopped,Repeat_resp.keys,Repeat_resp.corr,Repeat_resp.rt,Repeat_resp.started,Repeat_resp.stopped,instruction_text.started,instruction_text.stopped,key_resp.keys,key_resp.rt,key_resp.started,key_resp.stopped,scanner_t.keys,scanner_t.rt,scanner_t.started,scanner_t.stopped,fixation_wait_for_t.started,fixation_wait_for_t.stopped,real_timestamp_trial_start,image.started,image.stopped,fixation.started,fixation.stopped,repeat_response.keys,repeat_response.started,repeat_response.stopped,fixation_null.started,fixation_null.stopped,repeat_response.rt,end_text.started,end_text.stopped,participant,run,date,expName,psychopyVersion,frameRate,
,,,,,,,,,,,13.426022500032559,None,13.426022500032559,None,return,25.44588090002071,13.426022500032559,None,,,,,,,,,,,,,,,,,,,,,,,,,,,,,,,,,,,,,,,,,,,,,,,12002,0001,2021_Jul_28_1529,localizer,2021.1.3,59.79834800689109,
,,,0,0,0,0,,,,,,,,,,,,,38.89522079995368,None,39.90005509997718,None,y,68.90387369995005,39.90005509997718,None,108.81838800001424,None,b,2.3375958000542596,108.81838800001424,None,111.18568460003007,None,n,0,20.09217760001775,111.18568460003007,None,,,,,,,,,,,,,,,,,,,,,,,,,,12002,0001,2021_Jul_28_1529,localizer,2021.1.3,59.79834800689109,
,,,,,,,,,,,,,,,,,,,,,,,,,,,,,,,,,,,,,,,,131.3014401999535,None,y,20.989371999981813,131.3014401999535,None,,,,,,,,,,,,,,,,,,,,12002,0001,2021_Jul_28_1529,localizer,2021.1.3,59.79834800689109,
block_start,scrambled,scrambled023.bmp,,,,,0,0,0,0,,,,,,,,,,,,,,,,,,,,,,,,,,,,,,,,,,,,t,11.7435400999384,152.42932180000935,None,152.42932180000935,None,2021-07-28-15:31:41.507817,164.22731739992741,164.53549659997225,164.22731739992741,None,None,164.22731739992741,None,165.01910959000233,None,,,,12002,0001,2021_Jul_28_1529,localizer,2021.1.3,59.79834800689109,
block,scrambled,scrambled021.bmp,,,,,0,1,1,1,,,,,,,,,,,,,,,,,,,,,,,,,,,,,,,,,,,,None,,165.01910959000233,None,165.01910959000233,None,2021-07-28-15:31:42.329623,165.0440387999406,165.35264389996883,165.0440387999406,None,None,165.0440387999406,None,165.83932828998658,None,,,,12002,0001,2021_Jul_28_1529,localizer,2021.1.3,59.79834800689109,
block,scrambled,scrambled077.bmp,,,,,0,2,2,2,,,,,,,,,,,,,,,,,,,,,,,,,,,,,,,,,,,,None,,165.83932828998658,None,165.83932828998658,None,2021-07-28-15:31:43.150728,165.86520829994697,166.16889259999152,165.86520829994697,None,None,165.86520829994697,None,166.6558296899544,None,,,,12002,0001,2021_Jul_28_1529,localizer,2021.1.3,59.79834800689109,
block,scrambled,scrambled071.bmp,,,,,0,3,3,3,,,,,,,,,,,,,,,,,,,,,,,,,,,,,,,,,,,,None,,166.6558296899544,None,166.6558296899544,None,2021-07-28-15:31:43.966996,166.68380450003315,166.98343429993838,166.68380450003315,None,None,166.68380450003315,None,167.4719712899765,None,,,,12002,0001,2021_Jul_28_1529,localizer,2021.1.3,59.79834800689109,
block,scrambled,scrambled016.bmp,,,,,0,4,4,4,,,,,,,,,,,,,,,,,,,,,,,,,,,,,,,,,,,,None,,167.4719712899765,None,167.4719712899765,None,2021-07-28-15:31:44.782238,167.49197420000564,167.80090379994363,167.49197420000564,None,None,167.49197420000564,None,168.2839302899316,None,,,,12002,0001,2021_Jul_28_1529,localizer,2021.1.3,59.79834800689109,
block,scrambled,scrambled084.bmp,,,,,0,5,5,5,,,,,,,,,,,,,,,,,,,,,,,,,,,,,,,,,,,,None,,168.2839302899316,None,168.2839302899316,None,2021-07-28-15:31:45.591094,168.3063850000035,168.61895889998414,168.3063850000035,None,None,168.3063850000035,None,169.10550569000188,None,,,,12002,0001,2021_Jul_28_1529,localizer,2021.1.3,59.79834800689109,
block,scrambled,scrambled017.bmp,,,,,0,6,6,6,,,,,,,,,,,,,,,,,,,,,,,,,,,,,,,,,,,,None,,169.10550569000188,None,169.10550569000188,None,2021-07-28-15:31:46.416909,169.12445040000603,169.4366355999373,169.12445040000603,None,None,169.12445040000603,None,169.92201808993704,None,,,,12002,0001,2021_Jul_28_1529,localizer,2021.1.3,59.79834800689109,
block,scrambled,scrambled042.bmp,,,,,0,7,7,7,,,,,,,,,,,,,,,,,,,,,,,,,,,,,,,,,,,,None,,169.92201808993704,None,169.92201808993704,None,2021-07-28-15:31:47.233328,169.9473039000295,170.2524170000106,169.9473039000295,None,None,169.9473039000295,None,170.7356198899448,None,,,,12002,0001,2021_Jul_28_1529,localizer,2021.1.3,59.79834800689109,
block,scrambled,scrambled004.bmp,,,,,0,8,8,8,,,,,,,,,,,,,,,,,,,,,,,,,,,,,,,,,,,,None,,170.7356198899448,None,170.7356198899448,None,2021-07-28-15:31:48.044018,170.75743410002906,171.07125079992693,170.75743410002906,None,None,170.75743410002906,None,171.55253948995377,None,,,,12002,0001,2021_Jul_28_1529,localizer,2021.1.3,59.79834800689109,
block,scrambled,scrambled038.bmp,,,,,0,9,9,9,,,,,,,,,,,,,,,,,,,,,,,,,,,,,,,,,,,,None,,171.55253948995377,None,171.55253948995377,None,2021-07-28-15:31:48.860732,171.57943919999525,171.8855198000092,171.57943919999525,None,None,171.57943919999525,None,172.36907159003894,None,,,,12002,0001,2021_Jul_28_1529,localizer,2021.1.3,59.79834800689109,
block,scrambled,scrambled031.bmp,,,,,0,10,10,10,,,,,,,,,,,,,,,,,,,,,,,,,,,,,,,,,,,,None,,172.36907159003894,None,172.36907159003894,None,2021-07-28-15:31:49.677440,172.3913311000215,172.70333829999436,172.3913311000215,None,None,172.3913311000215,None,173.18569569000974,None,,,,12002,0001,2021_Jul_28_1529,localizer,2021.1.3,59.79834800689109,
block,scrambled,scrambled060.bmp,,,,,0,11,11,11,,,,,,,,,,,,,,,,,,,,,,,,,,,,,,,,,,,,None,,173.18569569000974,None,173.18569569000974,None,2021-07-28-15:31:50.493591,173.2074272999307,173.52103279996663,173.2074272999307,None,None,173.2074272999307,None,174.00567748993635,None,,,,12002,0001,2021_Jul_28_1529,localizer,2021.1.3,59.79834800689109,
block,scrambled,scrambled080.bmp,,,,,0,12,12,12,,,,,,,,,,,,,,,,,,,,,,,,,,,,,,,,,,,,None,,174.00567748993635,None,174.00567748993635,None,2021-07-28-15:31:51.315141,174.02684479998425,174.3362019000342,174.02684479998425,None,None,174.02684479998425,None,174.82291229001711,None,,,,12002,0001,2021_Jul_28_1529,localizer,2021.1.3,59.79834800689109,
block,scrambled,scrambled018.bmp,,,,,0,13,13,13,,,,,,,,,,,,,,,,,,,,,,,,,,,,,,,,,,,,None,,174.82291229001711,None,174.82291229001711,None,2021-07-28-15:31:52.132271,174.85001779999584,175.15611410001293,174.85001779999584,None,None,174.85001779999584,None,175.63806048992555,None,,,,12002,0001,2021_Jul_28_1529,localizer,2021.1.3,59.79834800689109,
block_end,scrambled,scrambled036.bmp,,,,,0,14,14,14,,,,,,,,,,,,,,,,,,,,,,,,,,,,,,,,,,,,None,,175.63806048992555,None,175.63806048992555,None,2021-07-28-15:31:52.945284,175.65193579997867,175.95542779995594,175.65193579997867,None,None,175.65193579997867,None,176.4553514899686,None,,,,12002,0001,2021_Jul_28_1529,localizer,2021.1.3,59.79834800689109,
block_start,faces,faces058.bmp,,,,,0,15,15,15,,,,,,,,,,,,,,,,,,,,,,,,,,,,,,,,,,,,t,1.7177778999321163,176.45612769993022,None,176.45612769993022,None,2021-07-28-15:31:55.499467,178.21708600001875,178.52046959998552,178.21708600001875,None,None,178.21708600001875,None,179.00446998993866,None,,,,12002,0001,2021_Jul_28_1529,localizer,2021.1.3,59.79834800689109,
block,faces,faces059.bmp,,,,,0,16,16,16,,,,,,,,,,,,,,,,,,,,,,,,,,,,,,,,,,,,None,,179.00446998993866,None,179.00446998993866,None,2021-07-28-15:31:56.312856,179.02358889998868,179.336106200004,179.02358889998868,None,None,179.02358889998868,None,179.82267049003858,None,,,,12002,0001,2021_Jul_28_1529,localizer,2021.1.3,59.79834800689109,
block,faces,faces001.bmp,,,,,0,17,17,17,,,,,,,,,,,,,,,,,,,,,,,,,,,,,,,,,,,,None,,179.82267049003858,None,179.82267049003858,None,2021-07-28-15:31:57.132068,179.85331889998633,180.15215300000273,179.85331889998633,None,None,179.85331889998633,None,180.63515029000118,None,,,,12002,0001,2021_Jul_28_1529,localizer,2021.1.3,59.79834800689109,
block,faces,faces010.bmp,,,,,0,18,18,18,,,,,,,,,,,,,,,,,,,,,,,,,,,,,,,,,,,,None,,180.63515029000118,None,180.63515029000118,None,2021-07-28-15:31:57.943552,180.6587441000156,180.9709307999583,180.6587441000156,None,None,180.6587441000156,None,181.45238068993203,None,,,,12002,0001,2021_Jul_28_1529,localizer,2021.1.3,59.79834800689109,
block,faces,faces015.bmp,,,,,0,19,19,19,,,,,,,,,,,,,,,,,,,,,,,,,,,,,,,,,,,,None,,181.45238068993203,None,181.45238068993203,None,2021-07-28-15:31:58.760704,181.48178809997626,181.78648310003337,181.48178809997626,None,None,181.48178809997626,None,182.26876908997073,None,,,,12002,0001,2021_Jul_28_1529,localizer,2021.1.3,59.79834800689109,
block,faces,faces017.bmp,,,,,0,20,20,20,,,,,,,,,,,,,,,,,,,,,,,,,,,,,,,,,,,,None,,182.26876908997073,None,182.26876908997073,None,2021-07-28-15:31:59.577215,182.28477809997275,182.5878521000268,182.28477809997275,None,None,182.28477809997275,None,183.0823094899766,None,,,,12002,0001,2021_Jul_28_1529,localizer,2021.1.3,59.79834800689109,
block,faces,faces089.bmp,,,,,0,21,21,21,,,,,,,,,,,,,,,,,,,,,,,,,,,,,,,,,,,,None,,183.0823094899766,None,183.0823094899766,None,2021-07-28-15:32:00.386230,183.0921903999988,183.4047969999956,183.0921903999988,None,None,183.0921903999988,None,183.88922338993288,None,,,,12002,0001,2021_Jul_28_1529,localizer,2021.1.3,59.79834800689109,
block,faces,faces037.bmp,,,,,0,22,22,22,,,,,,,,,,,,,,,,,,,,,,,,,,,,,,,,,,,,None,,183.88922338993288,None,183.88922338993288,None,2021-07-28-15:32:01.198637,183.91510680003557,184.22077689995058,183.91510680003557,None,None,183.91510680003557,None,184.70651008994318,None,,,,12002,0001,2021_Jul_28_1529,localizer,2021.1.3,59.79834800689109,
block,faces,faces012.bmp,,,,,0,23,23,23,,,,,,,,,,,,,,,,,,,,,,,,,,,,,,,,,,,,None,,184.70651008994318,None,184.70651008994318,None,2021-07-28-15:32:02.018753,184.7345040999353,185.0358904999448,184.7345040999353,None,None,184.7345040999353,None,185.518527789996,None,,,,12002,0001,2021_Jul_28_1529,localizer,2021.1.3,59.79834800689109,
block,faces,faces002.bmp,,,,,0,24,24,24,,,,,,,,,,,,,,,,,,,,,,,,,,,,,,,,,,,,None,,185.518527789996,None,185.518527789996,None,2021-07-28-15:32:02.826096,185.5433510999428,185.8545227999566,185.5433510999428,None,None,185.5433510999428,None,186.33928549000993,None,,,,12002,0001,2021_Jul_28_1529,localizer,2021.1.3,59.79834800689109,
block,faces,faces063.bmp,,,,,0,25,25,25,,,,,,,,,,,,,,,,,,,,,,,,,,,,,,,,,,,,None,,186.33928549000993,None,186.33928549000993,None,2021-07-28-15:32:03.648618,186.3682549999794,186.67068159999326,186.3682549999794,None,None,186.3682549999794,None,187.1548490899382,None,,,,12002,0001,2021_Jul_28_1529,localizer,2021.1.3,59.79834800689109,
block,faces,faces007.bmp,,,,,0,26,26,26,,,,,,,,,,,,,,,,,,,,,,,,,,,,,,,,,,,,None,,187.1548490899382,None,187.1548490899382,None,2021-07-28-15:32:04.464215,187.18177689996082,187.48620119993575,187.18177689996082,None,None,187.18177689996082,None,187.96867128999438,None,,,,12002,0001,2021_Jul_28_1529,localizer,2021.1.3,59.79834800689109,
block,faces,faces014.bmp,,,,,0,27,27,27,,,,,,,,,,,,,,,,,,,,,,,,,,,,,,,,,,,,None,,187.96867128999438,None,187.96867128999438,None,2021-07-28-15:32:05.276979,187.98918080003932,188.3039529999951,187.98918080003932,None,None,187.98918080003932,None,188.78755618995055,None,,,,12002,0001,2021_Jul_28_1529,localizer,2021.1.3,59.79834800689109,
block,faces,faces038.bmp,,,,,0,28,28,28,,,,,,,,,,,,,,,,,,,,,,,,,,,,,,,,,,,,None,,188.78755618995055,None,188.78755618995055,None,2021-07-28-15:32:06.095909,188.8249542999547,189.13631349999923,188.8249542999547,None,None,188.8249542999547,None,189.6050952900201,None,,,,12002,0001,2021_Jul_28_1529,localizer,2021.1.3,59.79834800689109,
block_end,faces,faces087.bmp,,,,,0,29,29,29,,,,,,,,,,,,,,,,,,,,,,,,,,,,,,,,,,,,None,,189.6050952900201,None,189.6050952900201,None,2021-07-28-15:32:06.914485,189.63446089997888,189.93474779999815,189.63446089997888,None,None,189.63446089997888,None,190.42136718998663,None,,,,12002,0001,2021_Jul_28_1529,localizer,2021.1.3,59.79834800689109,
block_start,scenes,scenes068.bmp,,,,,0,30,30,30,,,,,,,,,,,,,,,,,,,,,,,,,,,,,,,,,,,,t,1.7540553000289947,190.41993500001263,None,190.41993500001263,None,2021-07-28-15:32:09.514616,192.23592689994257,192.53799600002822,192.23592689994257,None,None,192.23592689994257,None,193.02223099002148,None,,,,12002,0001,2021_Jul_28_1529,localizer,2021.1.3,59.79834800689109,
block,scenes,scenes071.bmp,,,,,0,31,31,31,,,,,,,,,,,,,,,,,,,,,,,,,,,,,,,,,,,,None,,193.02223099002148,None,193.02223099002148,None,2021-07-28-15:32:10.332645,193.0448506999528,193.35340449993964,193.0448506999528,None,None,193.0448506999528,None,193.8382917900104,None,,,,12002,0001,2021_Jul_28_1529,localizer,2021.1.3,59.79834800689109,
block,scenes,scenes007.bmp,,,,,0,32,32,32,,,,,,,,,,,,,,,,,,,,,,,,,,,,,,,,,,,,None,,193.8382917900104,None,193.8382917900104,None,2021-07-28-15:32:11.146831,193.869823899935,194.16890359995887,193.869823899935,None,None,193.869823899935,None,194.65418519000522,None,,,,12002,0001,2021_Jul_28_1529,localizer,2021.1.3,59.79834800689109,
block,scenes,scenes074.bmp,,,,,0,33,33,33,,,,,,,,,,,,,,,,,,,,,,,,,,,,,,,,,,,,None,,194.65418519000522,None,194.65418519000522,None,2021-07-28-15:32:11.962303,194.67689629993401,194.9893127999967,194.67689629993401,None,None,194.67689629993401,None,195.47202658993191,None,,,,12002,0001,2021_Jul_28_1529,localizer,2021.1.3,59.79834800689109,
block,scenes,scenes001.bmp,,,,,0,34,34,34,,,,,,,,,,,,,,,,,,,,,,,,,,,,,,,,,,,,None,,195.47202658993191,None,195.47202658993191,None,2021-07-28-15:32:12.781502,195.49836440000217,195.8029371999437,195.49836440000217,None,None,195.49836440000217,None,196.28495648994576,None,,,,12002,0001,2021_Jul_28_1529,localizer,2021.1.3,59.79834800689109,
block,scenes,scenes057.bmp,,,,,0,35,35,35,,,,,,,,,,,,,,,,,,,,,,,,,,,,,,,,,,,,None,,196.28495648994576,None,196.28495648994576,None,2021-07-28-15:32:13.591098,196.3035089999903,196.60309119999874,196.3035089999903,None,None,196.3035089999903,None,197.10265608995687,None,,,,12002,0001,2021_Jul_28_1529,localizer,2021.1.3,59.79834800689109,
block,scenes,scenes004.bmp,,,,,0,36,36,36,,,,,,,,,,,,,,,,,,,,,,,,,,,,,,,,,,,,None,,197.10265608995687,None,197.10265608995687,None,2021-07-28-15:32:14.411083,197.12037020002026,197.42176289996132,197.12037020002026,None,None,197.12037020002026,None,197.92063569000456,None,,,,12002,0001,2021_Jul_28_1529,localizer,2021.1.3,59.79834800689109,
block,scenes,scenes027.bmp,,,,,0,37,37,37,,,,,,,,,,,,,,,,,,,,,,,,,,,,,,,,,,,,None,,197.92063569000456,None,197.92063569000456,None,2021-07-28-15:32:15.228996,197.94371939997654,198.25044959993102,197.94371939997654,None,None,197.94371939997654,None,198.7353626899654,None,,,,12002,0001,2021_Jul_28_1529,localizer,2021.1.3,59.79834800689109,
block,scenes,scenes014.bmp,,,,,0,38,38,38,,,,,,,,,,,,,,,,,,,,,,,,,,,,,,,,,,,,None,,198.7353626899654,None,198.7353626899654,None,2021-07-28-15:32:16.043763,198.759609599947,199.0694940999383,198.759609599947,None,None,198.759609599947,None,199.55576188992708,None,,,,12002,0001,2021_Jul_28_1529,localizer,2021.1.3,59.79834800689109,
block,scenes,scenes063.bmp,,,,,0,39,39,39,,,,,,,,,,,,,,,,,,,,,,,,,,,,,,,,,,,,None,,199.55576188992708,None,199.55576188992708,None,2021-07-28-15:32:16.867018,199.58306259999517,199.88478279998526,199.58306259999517,None,None,199.58306259999517,None,200.36971039001364,None,,,,12002,0001,2021_Jul_28_1529,localizer,2021.1.3,59.79834800689109,
block,scenes,scenes029.bmp,,,,,0,40,40,40,,,,,,,,,,,,,,,,,,,,,,,,,,,,,,,,,,,,None,,200.36971039001364,None,200.36971039001364,None,2021-07-28-15:32:17.678140,200.39272799994797,200.7035368999932,200.39272799994797,None,None,200.39272799994797,None,201.18524798997677,None,,,,12002,0001,2021_Jul_28_1529,localizer,2021.1.3,59.79834800689109,
block,scenes,scenes044.bmp,,,,,0,41,41,41,,,,,,,,,,,,,,,,,,,,,,,,,,,,,,,,,,,,None,,201.18524798997677,None,201.18524798997677,None,2021-07-28-15:32:18.492869,201.20562260004226,201.52033359999768,201.20562260004226,None,None,201.20562260004226,None,202.00185718995053,None,,,,12002,0001,2021_Jul_28_1529,localizer,2021.1.3,59.79834800689109,
block,scenes,scenes065.bmp,,,,,0,42,42,42,,,,,,,,,,,,,,,,,,,,,,,,,,,,,,,,,,,,None,,202.00185718995053,None,202.00185718995053,None,2021-07-28-15:32:19.308745,202.0211038000416,202.33682159997988,202.0211038000416,None,None,202.0211038000416,None,202.81866109000984,None,,,,12002,0001,2021_Jul_28_1529,localizer,2021.1.3,59.79834800689109,
block,scenes,scenes011.bmp,,,,,0,43,43,43,,,,,,,,,,,,,,,,,,,,,,,,,,,,,,,,,,,,None,,202.81866109000984,None,202.81866109000984,None,2021-07-28-15:32:20.126193,202.83566750003956,203.13643539999612,202.83566750003956,None,None,202.83566750003956,None,203.63616199002135,None,,,,12002,0001,2021_Jul_28_1529,localizer,2021.1.3,59.79834800689109,
block_end,scenes,scenes022.bmp,,,,,0,44,44,44,,,,,,,,,,,,,,,,,,,,,,,,,,,,,,,,,,,,None,,203.63616199002135,None,203.63616199002135,None,2021-07-28-15:32:20.946674,203.67432709992863,203.989086400019,203.67432709992863,None,None,203.67432709992863,None,204.45447319003287,None,,,,12002,0001,2021_Jul_28_1529,localizer,2021.1.3,59.79834800689109,
block_start,objects,objects032.bmp,,,,,0,45,45,45,,,,,,,,,,,,,,,,,,,,,,,,,,,,,,,,,,,,t,1.719011600012891,204.4541087000398,None,204.4541087000398,None,2021-07-28-15:32:23.513129,206.2293566999724,206.5388335000025,206.2293566999724,None,None,206.2293566999724,None,207.02256298998836,None,,,,12002,0001,2021_Jul_28_1529,localizer,2021.1.3,59.79834800689109,
block,objects,objects032.bmp,,,,,0,46,46,46,,,,,,,,,,,,,,,,,,,,,,,,,,,,,,,,,,,,None,,207.02256298998836,None,207.02256298998836,None,2021-07-28-15:32:24.331989,207.03164840000682,207.33774610003456,207.03164840000682,None,y,207.03164840000682,None,207.83908508999738,None,0.3526135999709368,,,12002,0001,2021_Jul_28_1529,localizer,2021.1.3,59.79834800689109,
block,objects,objects073.bmp,,,,,0,47,47,47,,,,,,,,,,,,,,,,,,,,,,,,,,,,,,,,,,,,None,,207.83908508999738,None,207.83908508999738,None,2021-07-28-15:32:25.147512,207.86283490003552,208.1718542999588,207.86283490003552,None,None,207.86283490003552,None,208.65195078998804,None,,,,12002,0001,2021_Jul_28_1529,localizer,2021.1.3,59.79834800689109,
block,objects,objects014.bmp,,,,,0,48,48,48,,,,,,,,,,,,,,,,,,,,,,,,,,,,,,,,,,,,None,,208.65195078998804,None,208.65195078998804,None,2021-07-28-15:32:25.960535,208.67101950000506,208.96993579994887,208.67101950000506,None,None,208.67101950000506,None,209.46698128993157,None,,,,12002,0001,2021_Jul_28_1529,localizer,2021.1.3,59.79834800689109,
block,objects,objects021.bmp,,,,,0,49,49,49,,,,,,,,,,,,,,,,,,,,,,,,,,,,,,,,,,,,None,,209.46698128993157,None,209.46698128993157,None,2021-07-28-15:32:26.771422,209.4734798000427,209.78708769998048,209.4734798000427,None,None,209.4734798000427,None,210.27233889002818,None,,,,12002,0001,2021_Jul_28_1529,localizer,2021.1.3,59.79834800689109,
block,objects,objects072.bmp,,,,,0,50,50,50,,,,,,,,,,,,,,,,,,,,,,,,,,,,,,,,,,,,None,,210.27233889002818,None,210.27233889002818,None,2021-07-28-15:32:27.581753,210.29764679993968,210.60262100002728,210.29764679993968,None,None,210.29764679993968,None,211.0860545899719,None,,,,12002,0001,2021_Jul_28_1529,localizer,2021.1.3,59.79834800689109,
block,objects,objects006.bmp,,,,,0,51,51,51,,,,,,,,,,,,,,,,,,,,,,,,,,,,,,,,,,,,None,,211.0860545899719,None,211.0860545899719,None,2021-07-28-15:32:28.394611,211.10092480003368,211.40382190002128,211.10092480003368,None,None,211.10092480003368,None,211.9023847900331,None,,,,12002,0001,2021_Jul_28_1529,localizer,2021.1.3,59.79834800689109,
block,objects,objects044.bmp,,,,,0,52,52,52,,,,,,,,,,,,,,,,,,,,,,,,,,,,,,,,,,,,None,,211.9023847900331,None,211.9023847900331,None,2021-07-28-15:32:29.210881,211.91705559997354,212.2195424999809,211.91705559997354,None,None,211.91705559997354,None,212.71907059000804,None,,,,12002,0001,2021_Jul_28_1529,localizer,2021.1.3,59.79834800689109,
block,objects,objects036.bmp,,,,,0,53,53,53,,,,,,,,,,,,,,,,,,,,,,,,,,,,,,,,,,,,None,,212.71907059000804,None,212.71907059000804,None,2021-07-28-15:32:30.027380,212.73464829998557,213.03729489992838,212.73464829998557,None,None,212.73464829998557,None,213.53910498998593,None,,,,12002,0001,2021_Jul_28_1529,localizer,2021.1.3,59.79834800689109,
block,objects,objects085.bmp,,,,,0,54,54,54,,,,,,,,,,,,,,,,,,,,,,,,,,,,,,,,,,,,None,,213.53910498998593,None,213.53910498998593,None,2021-07-28-15:32:30.848461,213.5566431999905,213.87076690001413,213.5566431999905,None,None,213.5566431999905,None,214.35288898998405,None,,,,12002,0001,2021_Jul_28_1529,localizer,2021.1.3,59.79834800689109,
block,objects,objects018.bmp,,,,,0,55,55,55,,,,,,,,,,,,,,,,,,,,,,,,,,,,,,,,,,,,None,,214.35288898998405,None,214.35288898998405,None,2021-07-28-15:32:31.661266,214.3675069999881,214.66773839993402,214.3675069999881,None,None,214.3675069999881,None,215.16908198993187,None,,,,12002,0001,2021_Jul_28_1529,localizer,2021.1.3,59.79834800689109,
block,objects,objects002.bmp,,,,,0,56,56,56,,,,,,,,,,,,,,,,,,,,,,,,,,,,,,,,,,,,None,,215.16908198993187,None,215.16908198993187,None,2021-07-28-15:32:32.477439,215.18359150004108,215.48349779995624,215.18359150004108,None,None,215.18359150004108,None,215.9858710899949,None,,,,12002,0001,2021_Jul_28_1529,localizer,2021.1.3,59.79834800689109,
block,objects,objects048.bmp,,,,,0,57,57,57,,,,,,,,,,,,,,,,,,,,,,,,,,,,,,,,,,,,None,,215.9858710899949,None,215.9858710899949,None,2021-07-28-15:32:33.294231,216.00074869999662,216.30663899995852,216.00074869999662,None,None,216.00074869999662,None,216.8051023900276,None,,,,12002,0001,2021_Jul_28_1529,localizer,2021.1.3,59.79834800689109,
block,objects,objects030.bmp,,,,,0,58,58,58,,,,,,,,,,,,,,,,,,,,,,,,,,,,,,,,,,,,None,,216.8051023900276,None,216.8051023900276,None,2021-07-28-15:32:34.114490,216.82584539998788,217.1366578999441,216.82584539998788,None,None,216.82584539998788,None,217.61953068992588,None,,,,12002,0001,2021_Jul_28_1529,localizer,2021.1.3,59.79834800689109,
block_end,objects,objects062.bmp,,,,,0,59,59,59,,,,,,,,,,,,,,,,,,,,,,,,,,,,,,,,,,,,None,,217.61953068992588,None,217.61953068992588,None,2021-07-28-15:32:34.927497,217.63392259995453,217.9359706999967,217.63392259995453,None,None,217.63392259995453,None,218.43610658999532,None,,,,12002,0001,2021_Jul_28_1529,localizer,2021.1.3,59.79834800689109,
null_block,null_block,null_block.bmp,,,,,0,60,60,60,,,,,,,,,,,,,,,,,,,,,,,,,,,,,,,,,,,,t,1.7352536999387667,218.4377237999579,None,218.4377237999579,None,2021-07-28-15:32:37.496063,220.20545297993812,None,220.20545297993812,None,None,220.20545297993812,None,220.21995209995657,None,,,,12002,0001,2021_Jul_28_1529,localizer,2021.1.3,59.79834800689109,
block_start,scenes,scenes001.bmp,,,,,0,61,61,61,,,,,,,,,,,,,,,,,,,,,,,,,,,,,,,,,,,,t,1.9510599001077935,232.22176500002388,None,232.22176500002388,None,2021-07-28-15:32:51.511976,234.2083209999837,234.51862170000095,234.2083209999837,None,None,234.2083209999837,None,235.0230117900297,None,,,,12002,0001,2021_Jul_28_1529,localizer,2021.1.3,59.79834800689109,
block,scenes,scenes090.bmp,,,,,0,62,62,62,,,,,,,,,,,,,,,,,,,,,,,,,,,,,,,,,,,,None,,235.0230117900297,None,235.0230117900297,None,2021-07-28-15:32:52.333254,235.05240739998408,235.35450819996186,235.05240739998408,None,None,235.05240739998408,None,235.83776128992903,None,,,,12002,0001,2021_Jul_28_1529,localizer,2021.1.3,59.79834800689109,
block,scenes,scenes037.bmp,,,,,0,63,63,63,,,,,,,,,,,,,,,,,,,,,,,,,,,,,,,,,,,,None,,235.83776128992903,None,235.83776128992903,None,2021-07-28-15:32:53.146257,235.8627337999642,236.1714741999749,235.8627337999642,None,None,235.8627337999642,None,236.65473509000148,None,,,,12002,0001,2021_Jul_28_1529,localizer,2021.1.3,59.79834800689109,
block,scenes,scenes037.bmp,,,,,0,64,64,64,,,,,,,,,,,,,,,,,,,,,,,,,,,,,,,,,,,,None,,236.65473509000148,None,236.65473509000148,None,2021-07-28-15:32:53.963093,236.66282339999452,236.97060140001122,236.66282339999452,None,y,236.66282339999452,None,237.4708108899882,None,0.4273699000477791,,,12002,0001,2021_Jul_28_1529,localizer,2021.1.3,59.79834800689109,
block,scenes,scenes052.bmp,,,,,0,65,65,65,,,,,,,,,,,,,,,,,,,,,,,,,,,,,,,,,,,,None,,237.4708108899882,None,237.4708108899882,None,2021-07-28-15:32:54.779314,237.49370059999637,237.80487340001855,237.49370059999637,None,None,237.49370059999637,None,238.288555789995,None,,,,12002,0001,2021_Jul_28_1529,localizer,2021.1.3,59.79834800689109,
block,scenes,scenes033.bmp,,,,,0,66,66,66,,,,,,,,,,,,,,,,,,,,,,,,,,,,,,,,,,,,None,,238.288555789995,None,238.288555789995,None,2021-07-28-15:32:55.597031,238.31269009993412,238.6217791000381,238.31269009993412,None,None,238.31269009993412,None,239.10641518994234,None,,,,12002,0001,2021_Jul_28_1529,localizer,2021.1.3,59.79834800689109,
block,scenes,scenes076.bmp,,,,,0,67,67,67,,,,,,,,,,,,,,,,,,,,,,,,,,,,,,,,,,,,None,,239.10641518994234,None,239.10641518994234,None,2021-07-28-15:32:56.417761,239.13413130003028,239.43835670000408,239.13413130003028,None,None,239.13413130003028,None,239.92077158999163,None,,,,12002,0001,2021_Jul_28_1529,localizer,2021.1.3,59.79834800689109,
block,scenes,scenes084.bmp,,,,,0,68,68,68,,,,,,,,,,,,,,,,,,,,,,,,,,,,,,,,,,,,None,,239.92077158999163,None,239.92077158999163,None,2021-07-28-15:32:57.229149,239.9407376999734,240.25046819995623,239.9407376999734,None,None,239.9407376999734,None,240.73938548997975,None,,,,12002,0001,2021_Jul_28_1529,localizer,2021.1.3,59.79834800689109,
block,scenes,scenes039.bmp,,,,,0,69,69,69,,,,,,,,,,,,,,,,,,,,,,,,,,,,,,,,,,,,None,,240.73938548997975,None,240.73938548997975,None,2021-07-28-15:32:58.048677,240.75983949995134,241.0698009999469,240.75983949995134,None,None,240.75983949995134,None,241.55321488997433,None,,,,12002,0001,2021_Jul_28_1529,localizer,2021.1.3,59.79834800689109,
block,scenes,scenes079.bmp,,,,,0,70,70,70,,,,,,,,,,,,,,,,,,,,,,,,,,,,,,,,,,,,None,,241.55321488997433,None,241.55321488997433,None,2021-07-28-15:32:58.861640,241.5767288999632,241.88723909994587,241.5767288999632,None,None,241.5767288999632,None,242.3693189899437,None,,,,12002,0001,2021_Jul_28_1529,localizer,2021.1.3,59.79834800689109,
block,scenes,scenes058.bmp,,,,,0,71,71,71,,,,,,,,,,,,,,,,,,,,,,,,,,,,,,,,,,,,None,,242.3693189899437,None,242.3693189899437,None,2021-07-28-15:32:59.677744,242.38447579997592,242.68743910000194,242.38447579997592,None,None,242.38447579997592,None,243.1830463899765,None,,,,12002,0001,2021_Jul_28_1529,localizer,2021.1.3,59.79834800689109,
block,scenes,scenes092.bmp,,,,,0,72,72,72,,,,,,,,,,,,,,,,,,,,,,,,,,,,,,,,,,,,None,,243.1830463899765,None,243.1830463899765,None,2021-07-28-15:33:00.486395,243.19142649997957,243.50428300001658,243.19142649997957,None,None,243.19142649997957,None,243.9885118899634,None,,,,12002,0001,2021_Jul_28_1529,localizer,2021.1.3,59.79834800689109,
block,scenes,scenes007.bmp,,,,,0,73,73,73,,,,,,,,,,,,,,,,,,,,,,,,,,,,,,,,,,,,None,,243.9885118899634,None,243.9885118899634,None,2021-07-28-15:33:01.298867,243.99699330003932,244.30377789994236,243.99699330003932,None,None,243.99699330003932,None,244.8051649900386,None,,,,12002,0001,2021_Jul_28_1529,localizer,2021.1.3,59.79834800689109,
block,scenes,scenes021.bmp,,,,,0,74,74,74,,,,,,,,,,,,,,,,,,,,,,,,,,,,,,,,,,,,None,,244.8051649900386,None,244.8051649900386,None,2021-07-28-15:33:02.114568,244.8288845999632,245.13939279993065,244.8288845999632,None,None,244.8288845999632,None,245.6199355899822,None,,,,12002,0001,2021_Jul_28_1529,localizer,2021.1.3,59.79834800689109,
block_end,scenes,scenes086.bmp,,,,,0,75,75,75,,,,,,,,,,,,,,,,,,,,,,,,,,,,,,,,,,,,None,,245.6199355899822,None,245.6199355899822,None,2021-07-28-15:33:02.928420,245.63594139995985,245.93731670000125,245.63594139995985,None,None,245.63594139995985,None,246.43656108996365,None,,,,12002,0001,2021_Jul_28_1529,localizer,2021.1.3,59.79834800689109,
null_block,null_block,null_block.bmp,,,,,0,76,76,76,,,,,,,,,,,,,,,,,,,,,,,,,,,,,,,,,,,,t,1.7357488999841735,246.4383600000292,None,246.4383600000292,None,2021-07-28-15:33:05.511902,248.20443859000224,None,248.20443859000224,None,None,248.20443859000224,None,248.21787789999507,None,,,,12002,0001,2021_Jul_28_1529,localizer,2021.1.3,59.79834800689109,
block_start,scrambled,scrambled037.bmp,,,,,0,77,77,77,,,,,,,,,,,,,,,,,,,,,,,,,,,,,,,,,,,,t,1.9515587999485433,260.22108149994165,None,260.22108149994165,None,2021-07-28-15:33:19.506388,262.2121783000184,262.53985299996566,262.2121783000184,None,None,262.2121783000184,None,263.00614979004024,None,,,,12002,0001,2021_Jul_28_1529,localizer,2021.1.3,59.79834800689109,
block,scrambled,scrambled029.bmp,,,,,0,78,78,78,,,,,,,,,,,,,,,,,,,,,,,,,,,,,,,,,,,,None,,263.00614979004024,None,263.00614979004024,None,2021-07-28-15:33:20.317561,263.0316779999994,263.33422720001545,263.0316779999994,None,None,263.0316779999994,None,263.8192831899738,None,,,,12002,0001,2021_Jul_28_1529,localizer,2021.1.3,59.79834800689109,
block,scrambled,scrambled077.bmp,,,,,0,79,79,79,,,,,,,,,,,,,,,,,,,,,,,,,,,,,,,,,,,,None,,263.8192831899738,None,263.8192831899738,None,2021-07-28-15:33:21.123821,263.8273849999532,264.1382574000163,263.8273849999532,None,None,263.8273849999532,None,264.6385418899823,None,,,,12002,0001,2021_Jul_28_1529,localizer,2021.1.3,59.79834800689109,
block,scrambled,scrambled072.bmp,,,,,0,80,80,80,,,,,,,,,,,,,,,,,,,,,,,,,,,,,,,,,,,,None,,264.6385418899823,None,264.6385418899823,None,2021-07-28-15:33:21.947048,264.66298679995816,264.971327999956,264.66298679995816,None,None,264.66298679995816,None,265.45230648994914,None,,,,12002,0001,2021_Jul_28_1529,localizer,2021.1.3,59.79834800689109,
block,scrambled,scrambled052.bmp,,,,,0,81,81,81,,,,,,,,,,,,,,,,,,,,,,,,,,,,,,,,,,,,None,,265.45230648994914,None,265.45230648994914,None,2021-07-28-15:33:22.759680,265.4717473000055,265.7709970999276,265.4717473000055,None,None,265.4717473000055,None,266.27284299002497,None,,,,12002,0001,2021_Jul_28_1529,localizer,2021.1.3,59.79834800689109,
block,scrambled,scrambled083.bmp,,,,,0,82,82,82,,,,,,,,,,,,,,,,,,,,,,,,,,,,,,,,,,,,None,,266.27284299002497,None,266.27284299002497,None,2021-07-28-15:33:23.581236,266.2951598999789,266.6042740000412,266.2951598999789,None,None,266.2951598999789,None,267.0882022900274,None,,,,12002,0001,2021_Jul_28_1529,localizer,2021.1.3,59.79834800689109,
block,scrambled,scrambled069.bmp,,,,,0,83,83,83,,,,,,,,,,,,,,,,,,,,,,,,,,,,,,,,,,,,None,,267.0882022900274,None,267.0882022900274,None,2021-07-28-15:33:24.396589,267.1137190000154,267.42177300003823,267.1137190000154,None,None,267.1137190000154,None,267.9028013899457,None,,,,12002,0001,2021_Jul_28_1529,localizer,2021.1.3,59.79834800689109,
block,scrambled,scrambled028.bmp,,,,,0,84,84,84,,,,,,,,,,,,,,,,,,,,,,,,,,,,,,,,,,,,None,,267.9028013899457,None,267.9028013899457,None,2021-07-28-15:33:25.211166,267.9177151999902,268.2203303000424,267.9177151999902,None,None,267.9177151999902,None,268.72272948992907,None,,,,12002,0001,2021_Jul_28_1529,localizer,2021.1.3,59.79834800689109,
block,scrambled,scrambled064.bmp,,,,,0,85,85,85,,,,,,,,,,,,,,,,,,,,,,,,,,,,,,,,,,,,None,,268.72272948992907,None,268.72272948992907,None,2021-07-28-15:33:26.032101,268.7550486000255,269.0701551999664,268.7550486000255,None,None,268.7550486000255,None,269.5362161899917,None,,,,12002,0001,2021_Jul_28_1529,localizer,2021.1.3,59.79834800689109,
block,scrambled,scrambled086.bmp,,,,,0,86,86,86,,,,,,,,,,,,,,,,,,,,,,,,,,,,,,,,,,,,None,,269.5362161899917,None,269.5362161899917,None,2021-07-28-15:33:26.844575,269.55179039994255,269.85592599993106,269.55179039994255,None,None,269.55179039994255,None,270.35294667996936,None,,,,12002,0001,2021_Jul_28_1529,localizer,2021.1.3,59.79834800689109,
block,scrambled,scrambled051.bmp,,,,,0,87,87,87,,,,,,,,,,,,,,,,,,,,,,,,,,,,,,,,,,,,None,,270.36973186996767,None,270.36973186996767,None,2021-07-28-15:33:27.671141,270.3743717999896,270.68850089993794,270.3743717999896,None,None,270.3743717999896,None,271.1901423899923,None,,,,12002,0001,2021_Jul_28_1529,localizer,2021.1.3,59.79834800689109,
block,scrambled,scrambled020.bmp,,,,,0,88,88,88,,,,,,,,,,,,,,,,,,,,,,,,,,,,,,,,,,,,None,,271.1901423899923,None,271.1901423899923,None,2021-07-28-15:33:28.500501,271.2175986999646,271.5194442999782,271.2175986999646,None,None,271.2175986999646,None,272.00273118996995,None,,,,12002,0001,2021_Jul_28_1529,localizer,2021.1.3,59.79834800689109,
block,scrambled,scrambled021.bmp,,,,,0,89,89,89,,,,,,,,,,,,,,,,,,,,,,,,,,,,,,,,,,,,None,,272.00273118996995,None,272.00273118996995,None,2021-07-28-15:33:29.310160,272.0067148000235,272.3202149999561,272.0067148000235,None,None,272.0067148000235,None,272.82161169000904,None,,,,12002,0001,2021_Jul_28_1529,localizer,2021.1.3,59.79834800689109,
block,scrambled,scrambled041.bmp,,,,,0,90,90,90,,,,,,,,,,,,,,,,,,,,,,,,,,,,,,,,,,,,None,,272.82161169000904,None,272.82161169000904,None,2021-07-28-15:33:30.129968,272.8460436000023,273.15478310000617,272.8460436000023,None,None,272.8460436000023,None,273.63771028993654,None,,,,12002,0001,2021_Jul_28_1529,localizer,2021.1.3,59.79834800689109,
block_end,scrambled,scrambled040.bmp,,,,,0,91,91,91,,,,,,,,,,,,,,,,,,,,,,,,,,,,,,,,,,,,None,,273.63771028993654,None,273.63771028993654,None,2021-07-28-15:33:30.946208,273.66169909993187,273.9713001999771,273.66169909993187,None,None,273.66169909993187,None,274.45324699000923,None,,,,12002,0001,2021_Jul_28_1529,localizer,2021.1.3,59.79834800689109,
block_start,objects,objects059.bmp,,,,,0,92,92,92,,,,,,,,,,,,,,,,,,,,,,,,,,,,,,,,,,,,t,1.7181323999539018,274.455074199941,None,274.455074199941,None,2021-07-28-15:33:33.513495,276.2305493999738,276.53865739994217,276.2305493999738,None,None,276.2305493999738,None,277.02231828998777,None,,,,12002,0001,2021_Jul_28_1529,localizer,2021.1.3,59.79834800689109,
block,objects,objects032.bmp,,,,,0,93,93,93,,,,,,,,,,,,,,,,,,,,,,,,,,,,,,,,,,,,None,,277.02231828998777,None,277.02231828998777,None,2021-07-28-15:33:34.331758,277.0316129999701,277.3392428000225,277.0316129999701,None,None,277.0316129999701,None,277.8358957899269,None,,,,12002,0001,2021_Jul_28_1529,localizer,2021.1.3,59.79834800689109,
block,objects,objects049.bmp,,,,,0,94,94,94,,,,,,,,,,,,,,,,,,,,,,,,,,,,,,,,,,,,None,,277.8358957899269,None,277.8358957899269,None,2021-07-28-15:33:35.143299,277.8555781999603,278.15117029997054,277.8555781999603,None,None,277.8555781999603,None,278.6531953900354,None,,,,12002,0001,2021_Jul_28_1529,localizer,2021.1.3,59.79834800689109,
block,objects,objects063.bmp,,,,,0,95,95,95,,,,,,,,,,,,,,,,,,,,,,,,,,,,,,,,,,,,None,,278.6531953900354,None,278.6531953900354,None,2021-07-28-15:33:35.961597,278.6681168000214,278.97266490000766,278.6681168000214,None,None,278.6681168000214,None,279.46969598999715,None,,,,12002,0001,2021_Jul_28_1529,localizer,2021.1.3,59.79834800689109,
block,objects,objects088.bmp,,,,,0,96,96,96,,,,,,,,,,,,,,,,,,,,,,,,,,,,,,,,,,,,None,,279.46969598999715,None,279.46969598999715,None,2021-07-28-15:33:36.777910,279.4840828999877,279.78584399993997,279.4840828999877,None,None,279.4840828999877,None,280.28625358992724,None,,,,12002,0001,2021_Jul_28_1529,localizer,2021.1.3,59.79834800689109,
block,objects,objects034.bmp,,,,,0,97,97,97,,,,,,,,,,,,,,,,,,,,,,,,,,,,,,,,,,,,None,,280.28625358992724,None,280.28625358992724,None,2021-07-28-15:33:37.594615,280.2958418999333,280.6058396999724,280.2958418999333,None,None,280.2958418999333,None,281.10565198995175,None,,,,12002,0001,2021_Jul_28_1529,localizer,2021.1.3,59.79834800689109,
block,objects,objects003.bmp,,,,,0,98,98,98,,,,,,,,,,,,,,,,,,,,,,,,,,,,,,,,,,,,None,,281.10565198995175,None,281.10565198995175,None,2021-07-28-15:33:38.415030,281.1312324999599,281.43763389997184,281.1312324999599,None,None,281.1312324999599,None,281.92270478992725,None,,,,12002,0001,2021_Jul_28_1529,localizer,2021.1.3,59.79834800689109,
block,objects,objects062.bmp,,,,,0,99,99,99,,,,,,,,,,,,,,,,,,,,,,,,,,,,,,,,,,,,None,,281.92270478992725,None,281.92270478992725,None,2021-07-28-15:33:39.231090,281.9307138000149,282.23873049998656,281.9307138000149,None,None,281.9307138000149,None,282.7379538900219,None,,,,12002,0001,2021_Jul_28_1529,localizer,2021.1.3,59.79834800689109,
block,objects,objects068.bmp,,,,,0,100,100,100,,,,,,,,,,,,,,,,,,,,,,,,,,,,,,,,,,,,None,,282.7379538900219,None,282.7379538900219,None,2021-07-28-15:33:40.046341,282.7619105000049,283.0717353000073,282.7619105000049,None,None,282.7619105000049,None,283.5543249899289,None,,,,12002,0001,2021_Jul_28_1529,localizer,2021.1.3,59.79834800689109,
block,objects,objects046.bmp,,,,,0,101,101,101,,,,,,,,,,,,,,,,,,,,,,,,,,,,,,,,,,,,None,,283.5543249899289,None,283.5543249899289,None,2021-07-28-15:33:40.862575,283.578795599984,283.8855530000292,283.578795599984,None,None,283.578795599984,None,284.36935308997056,None,,,,12002,0001,2021_Jul_28_1529,localizer,2021.1.3,59.79834800689109,
block,objects,objects065.bmp,,,,,0,102,102,102,,,,,,,,,,,,,,,,,,,,,,,,,,,,,,,,,,,,None,,284.36935308997056,None,284.36935308997056,None,2021-07-28-15:33:41.676756,284.38881509995554,284.70279939996544,284.38881509995554,None,None,284.38881509995554,None,285.1888365899446,None,,,,12002,0001,2021_Jul_28_1529,localizer,2021.1.3,59.79834800689109,
block,objects,objects043.bmp,,,,,0,103,103,103,,,,,,,,,,,,,,,,,,,,,,,,,,,,,,,,,,,,None,,285.1888365899446,None,285.1888365899446,None,2021-07-28-15:33:42.499225,285.21719260001555,285.521904299967,285.21719260001555,None,None,285.21719260001555,None,286.00467969002204,None,,,,12002,0001,2021_Jul_28_1529,localizer,2021.1.3,59.79834800689109,
block,objects,objects060.bmp,,,,,0,104,104,104,,,,,,,,,,,,,,,,,,,,,,,,,,,,,,,,,,,,None,,286.00467969002204,None,286.00467969002204,None,2021-07-28-15:33:43.314194,286.0304889000254,286.3384569999762,286.0304889000254,None,None,286.0304889000254,None,286.8226106899325,None,,,,12002,0001,2021_Jul_28_1529,localizer,2021.1.3,59.79834800689109,
block,objects,objects037.bmp,,,,,0,105,105,105,,,,,,,,,,,,,,,,,,,,,,,,,,,,,,,,,,,,None,,286.8226106899325,None,286.8226106899325,None,2021-07-28-15:33:44.132087,286.8479427000275,287.15579530003015,286.8479427000275,None,None,286.8479427000275,None,287.6392621899955,None,,,,12002,0001,2021_Jul_28_1529,localizer,2021.1.3,59.79834800689109,
block_end,objects,objects079.bmp,,,,,0,106,106,106,,,,,,,,,,,,,,,,,,,,,,,,,,,,,,,,,,,,None,,287.6392621899955,None,287.6392621899955,None,2021-07-28-15:33:44.950430,287.6645676000044,287.96892370004207,287.6645676000044,None,None,287.6645676000044,None,288.4522279899335,None,,,,12002,0001,2021_Jul_28_1529,localizer,2021.1.3,59.79834800689109,
block_start,faces,faces041.bmp,,,,,0,107,107,107,,,,,,,,,,,,,,,,,,,,,,,,,,,,,,,,,,,,t,1.7185224000131711,288.4545257999562,None,288.4545257999562,None,2021-07-28-15:33:47.515176,290.23329370003194,290.5352470999351,290.23329370003194,None,None,290.23329370003194,None,291.01825839004016,None,,,,12002,0001,2021_Jul_28_1529,localizer,2021.1.3,59.79834800689109,
block,faces,faces029.bmp,,,,,0,108,108,108,,,,,,,,,,,,,,,,,,,,,,,,,,,,,,,,,,,,None,,291.01825839004016,None,291.01825839004016,None,2021-07-28-15:33:48.325822,291.0393436999293,291.3379308999283,291.0393436999293,None,None,291.0393436999293,None,291.8391321900068,None,,,,12002,0001,2021_Jul_28_1529,localizer,2021.1.3,59.79834800689109,
block,faces,faces037.bmp,,,,,0,109,109,109,,,,,,,,,,,,,,,,,,,,,,,,,,,,,,,,,,,,None,,291.8391321900068,None,291.8391321900068,None,2021-07-28-15:33:49.148518,291.8483976999996,292.1544132999843,291.8483976999996,None,None,291.8483976999996,None,292.65257048993374,None,,,,12002,0001,2021_Jul_28_1529,localizer,2021.1.3,59.79834800689109,
block,faces,faces084.bmp,,,,,0,110,110,110,,,,,,,,,,,,,,,,,,,,,,,,,,,,,,,,,,,,None,,292.65257048993374,None,292.65257048993374,None,2021-07-28-15:33:49.960158,292.6746852999786,292.98817090003286,292.6746852999786,None,None,292.6746852999786,None,293.4732585899998,None,,,,12002,0001,2021_Jul_28_1529,localizer,2021.1.3,59.79834800689109,
block,faces,faces057.bmp,,,,,0,111,111,111,,,,,,,,,,,,,,,,,,,,,,,,,,,,,,,,,,,,None,,293.4732585899998,None,293.4732585899998,None,2021-07-28-15:33:50.782614,293.50435219996143,293.803912900039,293.50435219996143,None,None,293.50435219996143,None,294.2897873899434,None,,,,12002,0001,2021_Jul_28_1529,localizer,2021.1.3,59.79834800689109,
block,faces,faces054.bmp,,,,,0,112,112,112,,,,,,,,,,,,,,,,,,,,,,,,,,,,,,,,,,,,None,,294.2897873899434,None,294.2897873899434,None,2021-07-28-15:33:51.601194,294.31047349993605,294.6190723000327,294.31047349993605,None,None,294.31047349993605,None,295.102531689941,None,,,,12002,0001,2021_Jul_28_1529,localizer,2021.1.3,59.79834800689109,
block,faces,faces005.bmp,,,,,0,113,113,113,,,,,,,,,,,,,,,,,,,,,,,,,,,,,,,,,,,,None,,295.102531689941,None,295.102531689941,None,2021-07-28-15:33:52.408942,295.12196889996994,295.4368073999649,295.12196889996994,None,None,295.12196889996994,None,295.9194403899834,None,,,,12002,0001,2021_Jul_28_1529,localizer,2021.1.3,59.79834800689109,
block,faces,faces030.bmp,,,,,0,114,114,114,,,,,,,,,,,,,,,,,,,,,,,,,,,,,,,,,,,,None,,295.9194403899834,None,295.9194403899834,None,2021-07-28-15:33:53.228138,295.9459005999379,296.2516800999874,295.9459005999379,None,None,295.9459005999379,None,296.7358770900406,None,,,,12002,0001,2021_Jul_28_1529,localizer,2021.1.3,59.79834800689109,
block,faces,faces004.bmp,,,,,0,115,115,115,,,,,,,,,,,,,,,,,,,,,,,,,,,,,,,,,,,,None,,296.7358770900406,None,296.7358770900406,None,2021-07-28-15:33:54.043286,296.77025679999497,297.07003810000606,296.77025679999497,None,None,296.77025679999497,None,297.55549198996744,None,,,,12002,0001,2021_Jul_28_1529,localizer,2021.1.3,59.79834800689109,
block,faces,faces010.bmp,,,,,0,116,116,116,,,,,,,,,,,,,,,,,,,,,,,,,,,,,,,,,,,,None,,297.55549198996744,None,297.55549198996744,None,2021-07-28-15:33:54.865247,297.5655139000155,297.86973529995885,297.5655139000155,None,None,297.5655139000155,None,298.3736594899325,None,,,,12002,0001,2021_Jul_28_1529,localizer,2021.1.3,59.79834800689109,
block,faces,faces046.bmp,,,,,0,117,117,117,,,,,,,,,,,,,,,,,,,,,,,,,,,,,,,,,,,,None,,298.3736594899325,None,298.3736594899325,None,2021-07-28-15:33:55.681273,298.3901956999907,298.70199500001036,298.3901956999907,None,None,298.3901956999907,None,299.1842481899308,None,,,,12002,0001,2021_Jul_28_1529,localizer,2021.1.3,59.79834800689109,
block,faces,faces012.bmp,,,,,0,118,118,118,,,,,,,,,,,,,,,,,,,,,,,,,,,,,,,,,,,,None,,299.1842481899308,None,299.1842481899308,None,2021-07-28-15:33:56.488895,299.18523940001614,299.48519189993385,299.18523940001614,None,None,299.18523940001614,None,299.98573238998654,None,,,,12002,0001,2021_Jul_28_1529,localizer,2021.1.3,59.79834800689109,
block,faces,faces014.bmp,,,,,0,119,119,119,,,,,,,,,,,,,,,,,,,,,,,,,,,,,,,,,,,,None,,299.98573238998654,None,299.98573238998654,None,2021-07-28-15:33:57.294913,299.99302329996135,300.3039414000232,299.99302329996135,299.99302329996135,None,299.99302329996135,299.99302329996135,300.8023627900053,None,,,,12002,0001,2021_Jul_28_1529,localizer,2021.1.3,59.79834800689109,
block,faces,faces015.bmp,,,,,0,120,120,120,,,,,,,,,,,,,,,,,,,,,,,,,,,,,,,,,,,,None,,300.8023627900053,None,300.8023627900053,None,2021-07-28-15:33:58.109692,300.80775459995493,301.1200549999485,300.80775459995493,None,None,300.80775459995493,None,301.62255018998405,None,,,,12002,0001,2021_Jul_28_1529,localizer,2021.1.3,59.79834800689109,
block_end,faces,faces008.bmp,,,,,0,121,121,121,,,,,,,,,,,,,,,,,,,,,,,,,,,,,,,,,,,,None,,301.62255018998405,None,301.62255018998405,None,2021-07-28-15:33:58.931928,301.6547019999707,301.96759639994707,301.6547019999707,None,None,301.6547019999707,None,302.43827308996117,None,,,,12002,0001,2021_Jul_28_1529,localizer,2021.1.3,59.79834800689109,
block_start,faces,faces048.bmp,,,,,0,122,122,122,,,,,,,,,,,,,,,,,,,,,,,,,,,,,,,,,,,,t,1.7345385999651626,302.4380168999778,None,302.4380168999778,None,2021-07-28-15:34:01.502949,304.2118846999947,304.51973449997604,304.2118846999947,None,None,304.2118846999947,None,305.0065459900303,None,,,,12002,0001,2021_Jul_28_1529,localizer,2021.1.3,59.79834800689109,
block,faces,faces038.bmp,,,,,0,123,123,123,,,,,,,,,,,,,,,,,,,,,,,,,,,,,,,,,,,,None,,305.0065459900303,None,305.0065459900303,None,2021-07-28-15:34:02.316827,305.01630479993764,305.3205321000423,305.01630479993764,None,None,305.01630479993764,None,305.8193289899733,None,,,,12002,0001,2021_Jul_28_1529,localizer,2021.1.3,59.79834800689109,
block,faces,faces079.bmp,,,,,0,124,124,124,,,,,,,,,,,,,,,,,,,,,,,,,,,,,,,,,,,,None,,305.8193289899733,None,305.8193289899733,None,2021-07-28-15:34:03.126731,305.8351929000346,306.1375034999801,305.8351929000346,None,None,305.8351929000346,None,306.63847039001996,None,,,,12002,0001,2021_Jul_28_1529,localizer,2021.1.3,59.79834800689109,
block,faces,faces045.bmp,,,,,0,125,125,125,,,,,,,,,,,,,,,,,,,,,,,,,,,,,,,,,,,,None,,306.63847039001996,None,306.63847039001996,None,2021-07-28-15:34:03.947962,306.65848350001033,306.9696674000006,306.65848350001033,None,None,306.65848350001033,None,307.4525102899876,None,,,,12002,0001,2021_Jul_28_1529,localizer,2021.1.3,59.79834800689109,
block,faces,faces067.bmp,,,,,0,126,126,126,,,,,,,,,,,,,,,,,,,,,,,,,,,,,,,,,,,,None,,307.4525102899876,None,307.4525102899876,None,2021-07-28-15:34:04.759926,307.471286999993,307.77056909992825,307.471286999993,None,None,307.471286999993,None,308.2737121900078,None,,,,12002,0001,2021_Jul_28_1529,localizer,2021.1.3,59.79834800689109,
block,faces,faces058.bmp,,,,,0,127,127,127,,,,,,,,,,,,,,,,,,,,,,,,,,,,,,,,,,,,None,,308.2737121900078,None,308.2737121900078,None,2021-07-28-15:34:05.586074,308.28429640003014,308.5877887000097,308.28429640003014,None,None,308.28429640003014,None,309.0888193899533,None,,,,12002,0001,2021_Jul_28_1529,localizer,2021.1.3,59.79834800689109,
block,faces,faces016.bmp,,,,,0,128,128,128,,,,,,,,,,,,,,,,,,,,,,,,,,,,,,,,,,,,None,,309.0888193899533,None,309.0888193899533,None,2021-07-28-15:34:06.398360,309.1176140999887,309.42095820000395,309.1176140999887,None,None,309.1176140999887,None,309.904913889966,None,,,,12002,0001,2021_Jul_28_1529,localizer,2021.1.3,59.79834800689109,
block,faces,faces085.bmp,,,,,0,129,129,129,,,,,,,,,,,,,,,,,,,,,,,,,,,,,,,,,,,,None,,309.904913889966,None,309.904913889966,None,2021-07-28-15:34:07.213220,309.9298780999379,310.2376692999387,309.9298780999379,None,None,309.9298780999379,None,310.72157168996057,None,,,,12002,0001,2021_Jul_28_1529,localizer,2021.1.3,59.79834800689109,
block,faces,faces088.bmp,,,,,0,130,130,130,,,,,,,,,,,,,,,,,,,,,,,,,,,,,,,,,,,,None,,310.72157168996057,None,310.72157168996057,None,2021-07-28-15:34:08.029957,310.75154079997446,311.05444959993474,310.75154079997446,None,None,310.75154079997446,None,311.53805429001807,None,,,,12002,0001,2021_Jul_28_1529,localizer,2021.1.3,59.79834800689109,
block,faces,faces081.bmp,,,,,0,131,131,131,,,,,,,,,,,,,,,,,,,,,,,,,,,,,,,,,,,,None,,311.53805429001807,None,311.53805429001807,None,2021-07-28-15:34:08.847014,311.5663166999584,311.8707910999656,311.5663166999584,None,None,311.5663166999584,None,312.35334338995165,None,,,,12002,0001,2021_Jul_28_1529,localizer,2021.1.3,59.79834800689109,
block,faces,faces004.bmp,,,,,0,132,132,132,,,,,,,,,,,,,,,,,,,,,,,,,,,,,,,,,,,,None,,312.35334338995165,None,312.35334338995165,None,2021-07-28-15:34:09.661902,312.35839449998457,312.67313739995006,312.35839449998457,None,None,312.35839449998457,None,313.17230329001325,None,,,,12002,0001,2021_Jul_28_1529,localizer,2021.1.3,59.79834800689109,
block,faces,faces027.bmp,,,,,0,133,133,133,,,,,,,,,,,,,,,,,,,,,,,,,,,,,,,,,,,,None,,313.17230329001325,None,313.17230329001325,None,2021-07-28-15:34:10.481650,313.20358359999955,313.5014572000364,313.20358359999955,None,None,313.20358359999955,None,313.988126989943,None,,,,12002,0001,2021_Jul_28_1529,localizer,2021.1.3,59.79834800689109,
block,faces,faces082.bmp,,,,,0,134,134,134,,,,,,,,,,,,,,,,,,,,,,,,,,,,,,,,,,,,None,,313.988126989943,None,313.988126989943,None,2021-07-28-15:34:11.296506,314.0057231000392,314.3045148999663,314.0057231000392,None,None,314.0057231000392,None,314.80698608993555,None,,,,12002,0001,2021_Jul_28_1529,localizer,2021.1.3,59.79834800689109,
block,faces,faces008.bmp,,,,,0,135,135,135,,,,,,,,,,,,,,,,,,,,,,,,,,,,,,,,,,,,None,,314.80698608993555,None,314.80698608993555,None,2021-07-28-15:34:12.116354,314.8167079000268,315.1208241999848,314.8167079000268,None,None,314.8167079000268,None,315.6192967900075,None,,,,12002,0001,2021_Jul_28_1529,localizer,2021.1.3,59.79834800689109,
block_end,faces,faces087.bmp,,,,,0,136,136,136,,,,,,,,,,,,,,,,,,,,,,,,,,,,,,,,,,,,None,,315.6192967900075,None,315.6192967900075,None,2021-07-28-15:34:12.926387,315.6256552999839,315.9378132999409,315.6256552999839,None,None,315.6256552999839,None,316.4395264899591,None,,,,12002,0001,2021_Jul_28_1529,localizer,2021.1.3,59.79834800689109,
null_block,null_block,null_block.bmp,,,,,0,137,137,137,,,,,,,,,,,,,,,,,,,,,,,,,,,,,,,,,,,,t,1.7334279000060633,316.4396952999523,None,316.4396952999523,None,2021-07-28-15:34:15.497879,318.2064645799576,None,318.2064645799576,None,None,318.2064645799576,None,318.20690019999165,None,,,,12002,0001,2021_Jul_28_1529,localizer,2021.1.3,59.79834800689109,
block_start,scenes,scenes008.bmp,,,,,0,138,138,138,,,,,,,,,,,,,,,,,,,,,,,,,,,,,,,,,,,,t,1.9546476999530569,330.21845149993896,None,330.21845149993896,None,2021-07-28-15:34:29.514274,332.22189799998887,332.5221761999419,332.22189799998887,None,None,332.22189799998887,None,333.0222672899487,None,,,,12002,0001,2021_Jul_28_1529,localizer,2021.1.3,59.79834800689109,
block,scenes,scenes003.bmp,,,,,0,139,139,139,,,,,,,,,,,,,,,,,,,,,,,,,,,,,,,,,,,,None,,333.0222672899487,None,333.0222672899487,None,2021-07-28-15:34:30.331812,333.05671729997266,333.37143900000956,333.05671729997266,None,None,333.05671729997266,None,333.8368388900068,None,,,,12002,0001,2021_Jul_28_1529,localizer,2021.1.3,59.79834800689109,
block,scenes,scenes030.bmp,,,,,0,140,140,140,,,,,,,,,,,,,,,,,,,,,,,,,,,,,,,,,,,,None,,333.8368388900068,None,333.8368388900068,None,2021-07-28-15:34:31.145403,333.8517664000392,334.1550286000129,333.8517664000392,None,None,333.8517664000392,None,334.65351479002277,None,,,,12002,0001,2021_Jul_28_1529,localizer,2021.1.3,59.79834800689109,
block,scenes,scenes064.bmp,,,,,0,141,141,141,,,,,,,,,,,,,,,,,,,,,,,,,,,,,,,,,,,,None,,334.65351479002277,None,334.65351479002277,None,2021-07-28-15:34:31.962079,334.66814429999795,334.9722895999439,334.66814429999795,None,None,334.66814429999795,None,335.47168198998554,None,,,,12002,0001,2021_Jul_28_1529,localizer,2021.1.3,59.79834800689109,
block,scenes,scenes081.bmp,,,,,0,142,142,142,,,,,,,,,,,,,,,,,,,,,,,,,,,,,,,,,,,,None,,335.47168198998554,None,335.47168198998554,None,2021-07-28-15:34:32.781114,335.49888139998075,335.80500970000867,335.49888139998075,None,None,335.49888139998075,None,336.29012029003354,None,,,,12002,0001,2021_Jul_28_1529,localizer,2021.1.3,59.79834800689109,
block,scenes,scenes025.bmp,,,,,0,143,143,143,,,,,,,,,,,,,,,,,,,,,,,,,,,,,,,,,,,,None,,336.29012029003354,None,336.29012029003354,None,2021-07-28-15:34:33.599541,336.32503960002214,336.63570079999045,336.32503960002214,None,None,336.32503960002214,None,337.10496168993416,None,,,,12002,0001,2021_Jul_28_1529,localizer,2021.1.3,59.79834800689109,
block,scenes,scenes076.bmp,,,,,0,144,144,144,,,,,,,,,,,,,,,,,,,,,,,,,,,,,,,,,,,,None,,337.10496168993416,None,337.10496168993416,None,2021-07-28-15:34:34.414316,337.1141522999387,337.4214905999834,337.1141522999387,None,None,337.1141522999387,None,337.92016159000343,None,,,,12002,0001,2021_Jul_28_1529,localizer,2021.1.3,59.79834800689109,
block,scenes,scenes004.bmp,,,,,0,145,145,145,,,,,,,,,,,,,,,,,,,,,,,,,,,,,,,,,,,,None,,337.92016159000343,None,337.92016159000343,None,2021-07-28-15:34:35.228714,337.92401119996794,338.23684829997364,337.92401119996794,None,None,337.92401119996794,None,338.73873068999967,None,,,,12002,0001,2021_Jul_28_1529,localizer,2021.1.3,59.79834800689109,
block,scenes,scenes038.bmp,,,,,0,146,146,146,,,,,,,,,,,,,,,,,,,,,,,,,,,,,,,,,,,,None,,338.73873068999967,None,338.73873068999967,None,2021-07-28-15:34:36.048157,338.76523569994606,339.0724451999413,338.76523569994606,None,None,338.76523569994606,None,339.55617908996066,None,,,,12002,0001,2021_Jul_28_1529,localizer,2021.1.3,59.79834800689109,
block,scenes,scenes086.bmp,,,,,0,147,147,147,,,,,,,,,,,,,,,,,,,,,,,,,,,,,,,,,,,,None,,339.55617908996066,None,339.55617908996066,None,2021-07-28-15:34:36.865553,339.56540560000576,339.87159759993665,339.56540560000576,None,None,339.56540560000576,None,340.3727305899607,None,,,,12002,0001,2021_Jul_28_1529,localizer,2021.1.3,59.79834800689109,
block,scenes,scenes021.bmp,,,,,0,148,148,148,,,,,,,,,,,,,,,,,,,,,,,,,,,,,,,,,,,,None,,340.3727305899607,None,340.3727305899607,None,2021-07-28-15:34:37.682159,340.38160129997414,340.6879553999752,340.38160129997414,None,None,340.38160129997414,None,341.1896931899479,None,,,,12002,0001,2021_Jul_28_1529,localizer,2021.1.3,59.79834800689109,
block,scenes,scenes050.bmp,,,,,0,149,149,149,,,,,,,,,,,,,,,,,,,,,,,,,,,,,,,,,,,,None,,341.1896931899479,None,341.1896931899479,None,2021-07-28-15:34:38.498127,341.209175099968,341.52130409993697,341.209175099968,None,None,341.209175099968,None,342.00313789003997,None,,,,12002,0001,2021_Jul_28_1529,localizer,2021.1.3,59.79834800689109,
block,scenes,scenes059.bmp,,,,,0,150,150,150,,,,,,,,,,,,,,,,,,,,,,,,,,,,,,,,,,,,None,,342.00313789003997,None,342.00313789003997,None,2021-07-28-15:34:39.311566,342.0174116999842,342.3209710000083,342.0174116999842,None,None,342.0174116999842,None,342.822433989984,None,,,,12002,0001,2021_Jul_28_1529,localizer,2021.1.3,59.79834800689109,
block,scenes,scenes066.bmp,,,,,0,151,151,151,,,,,,,,,,,,,,,,,,,,,,,,,,,,,,,,,,,,None,,342.822433989984,None,342.822433989984,None,2021-07-28-15:34:40.130818,342.84752099995967,343.1543382999953,342.84752099995967,None,None,342.84752099995967,None,343.63906729002485,None,,,,12002,0001,2021_Jul_28_1529,localizer,2021.1.3,59.79834800689109,
block_end,scenes,scenes071.bmp,,,,,0,152,152,152,,,,,,,,,,,,,,,,,,,,,,,,,,,,,,,,,,,,None,,343.63906729002485,None,343.63906729002485,None,2021-07-28-15:34:40.947461,343.64765599998645,343.9544048999669,343.64765599998645,None,None,343.64765599998645,None,344.4531378899934,None,,,,12002,0001,2021_Jul_28_1529,localizer,2021.1.3,59.79834800689109,
block_start,scrambled,scrambled051.bmp,,,,,0,153,153,153,,,,,,,,,,,,,,,,,,,,,,,,,,,,,,,,,,,,t,1.7180465999990702,344.4548309999518,None,344.4548309999518,None,2021-07-28-15:34:43.497415,346.19849290000275,346.505413100007,346.19849290000275,None,None,346.19849290000275,None,347.0057953900192,None,,,,12002,0001,2021_Jul_28_1529,localizer,2021.1.3,59.79834800689109,
block,scrambled,scrambled024.bmp,,,,,0,154,154,154,,,,,,,,,,,,,,,,,,,,,,,,,,,,,,,,,,,,None,,347.0057953900192,None,347.0057953900192,None,2021-07-28-15:34:44.315151,347.0344497000333,347.33760329999495,347.0344497000333,None,None,347.0344497000333,None,347.81986468997786,None,,,,12002,0001,2021_Jul_28_1529,localizer,2021.1.3,59.79834800689109,
block,scrambled,scrambled073.bmp,,,,,0,155,155,155,,,,,,,,,,,,,,,,,,,,,,,,,,,,,,,,,,,,None,,347.81986468997786,None,347.81986468997786,None,2021-07-28-15:34:45.128433,347.83437489997596,348.1372226999374,347.83437489997596,None,None,347.83437489997596,None,348.63658718999943,None,,,,12002,0001,2021_Jul_28_1529,localizer,2021.1.3,59.79834800689109,
block,scrambled,scrambled066.bmp,,,,,0,156,156,156,,,,,,,,,,,,,,,,,,,,,,,,,,,,,,,,,,,,None,,348.63658718999943,None,348.63658718999943,None,2021-07-28-15:34:45.945009,348.65107659995556,348.95623679994605,348.65107659995556,None,None,348.65107659995556,None,349.456421089964,None,,,,12002,0001,2021_Jul_28_1529,localizer,2021.1.3,59.79834800689109,
block,scrambled,scrambled061.bmp,,,,,0,157,157,157,,,,,,,,,,,,,,,,,,,,,,,,,,,,,,,,,,,,None,,349.456421089964,None,349.456421089964,None,2021-07-28-15:34:46.766840,349.4738176999381,349.7891849000007,349.4738176999381,None,None,349.4738176999381,None,350.27251128994396,None,,,,12002,0001,2021_Jul_28_1529,localizer,2021.1.3,59.79834800689109,
block,scrambled,scrambled008.bmp,,,,,0,158,158,158,,,,,,,,,,,,,,,,,,,,,,,,,,,,,,,,,,,,None,,350.27251128994396,None,350.27251128994396,None,2021-07-28-15:34:47.580966,350.2964470000006,350.6046933999751,350.2964470000006,None,None,350.2964470000006,None,351.0874571899418,None,,,,12002,0001,2021_Jul_28_1529,localizer,2021.1.3,59.79834800689109,
block,scrambled,scrambled008.bmp,,,,,0,159,159,159,,,,,,,,,,,,,,,,,,,,,,,,,,,,,,,,,,,,None,,351.0874571899418,None,351.0874571899418,None,2021-07-28-15:34:48.396033,351.0957580000395,351.40176299994346,351.0957580000395,None,y,351.0957580000395,None,351.9063899900299,None,0.5452547000022605,,,12002,0001,2021_Jul_28_1529,localizer,2021.1.3,59.79834800689109,
block,scrambled,scrambled065.bmp,,,,,0,160,160,160,,,,,,,,,,,,,,,,,,,,,,,,,,,,,,,,,,,,None,,351.9063899900299,None,351.9063899900299,None,2021-07-28-15:34:49.213742,351.92106399999466,352.2212083999766,351.92106399999466,None,None,351.92106399999466,None,352.7230962899281,None,,,,12002,0001,2021_Jul_28_1529,localizer,2021.1.3,59.79834800689109,
block,scrambled,scrambled015.bmp,,,,,0,161,161,161,,,,,,,,,,,,,,,,,,,,,,,,,,,,,,,,,,,,None,,352.7230962899281,None,352.7230962899281,None,2021-07-28-15:34:50.031532,352.7406592000043,353.05374789994676,352.7406592000043,None,None,352.7406592000043,None,353.53629549001346,None,,,,12002,0001,2021_Jul_28_1529,localizer,2021.1.3,59.79834800689109,
block,scrambled,scrambled070.bmp,,,,,0,162,162,162,,,,,,,,,,,,,,,,,,,,,,,,,,,,,,,,,,,,None,,353.53629549001346,None,353.53629549001346,None,2021-07-28-15:34:50.842891,353.55597969994415,353.87180490000173,353.55597969994415,None,None,353.55597969994415,None,354.3568665900035,None,,,,12002,0001,2021_Jul_28_1529,localizer,2021.1.3,59.79834800689109,
block,scrambled,scrambled058.bmp,,,,,0,163,163,163,,,,,,,,,,,,,,,,,,,,,,,,,,,,,,,,,,,,None,,354.3568665900035,None,354.3568665900035,None,2021-07-28-15:34:51.668303,354.3801707000239,354.68601629999466,354.3801707000239,None,None,354.3801707000239,None,355.17360419002364,None,,,,12002,0001,2021_Jul_28_1529,localizer,2021.1.3,59.79834800689109,
block,scrambled,scrambled033.bmp,,,,,0,164,164,164,,,,,,,,,,,,,,,,,,,,,,,,,,,,,,,,,,,,None,,355.17360419002364,None,355.17360419002364,None,2021-07-28-15:34:52.482965,355.2020964999683,355.5056767000351,355.2020964999683,None,None,355.2020964999683,None,355.9906052899547,None,,,,12002,0001,2021_Jul_28_1529,localizer,2021.1.3,59.79834800689109,
block,scrambled,scrambled040.bmp,,,,,0,165,165,165,,,,,,,,,,,,,,,,,,,,,,,,,,,,,,,,,,,,None,,355.9906052899547,None,355.9906052899547,None,2021-07-28-15:34:53.300071,356.0001155999489,356.3025034000166,356.0001155999489,None,None,356.0001155999489,None,356.80355779002423,None,,,,12002,0001,2021_Jul_28_1529,localizer,2021.1.3,59.79834800689109,
block,scrambled,scrambled079.bmp,,,,,0,166,166,166,,,,,,,,,,,,,,,,,,,,,,,,,,,,,,,,,,,,None,,356.80355779002423,None,356.80355779002423,None,2021-07-28-15:34:54.112049,356.82671039993875,357.1361222999403,356.82671039993875,None,None,356.82671039993875,None,357.61886488997845,None,,,,12002,0001,2021_Jul_28_1529,localizer,2021.1.3,59.79834800689109,
block_end,scrambled,scrambled081.bmp,,,,,0,167,167,167,,,,,,,,,,,,,,,,,,,,,,,,,,,,,,,,,,,,None,,357.61886488997845,None,357.61886488997845,None,2021-07-28-15:34:54.925412,357.6403022999875,357.95249379996676,357.6403022999875,None,None,357.6403022999875,None,358.4401140900096,None,,,,12002,0001,2021_Jul_28_1529,localizer,2021.1.3,59.79834800689109,
block_start,objects,objects024.bmp,,,,,0,168,168,168,,,,,,,,,,,,,,,,,,,,,,,,,,,,,,,,,,,,t,1.7340975999832153,358.4389775999589,None,358.4389775999589,None,2021-07-28-15:34:57.513094,360.22130450000986,360.52236830000766,360.22130450000986,None,None,360.22130450000986,None,361.0224821899552,None,,,,12002,0001,2021_Jul_28_1529,localizer,2021.1.3,59.79834800689109,
block,objects,objects014.bmp,,,,,0,169,169,169,,,,,,,,,,,,,,,,,,,,,,,,,,,,,,,,,,,,None,,361.0224821899552,None,361.0224821899552,None,2021-07-28-15:34:58.331867,361.0326866999967,361.3377086999826,361.0326866999967,None,None,361.0326866999967,None,361.84017008999365,None,,,,12002,0001,2021_Jul_28_1529,localizer,2021.1.3,59.79834800689109,
block,objects,objects082.bmp,,,,,0,170,170,170,,,,,,,,,,,,,,,,,,,,,,,,,,,,,,,,,,,,None,,361.84017008999365,None,361.84017008999365,None,2021-07-28-15:34:59.149614,361.8610851999838,362.170462799957,361.8610851999838,None,None,361.8610851999838,None,362.6527407899499,None,,,,12002,0001,2021_Jul_28_1529,localizer,2021.1.3,59.79834800689109,
block,objects,objects036.bmp,,,,,0,171,171,171,,,,,,,,,,,,,,,,,,,,,,,,,,,,,,,,,,,,None,,362.6527407899499,None,362.6527407899499,None,2021-07-28-15:34:59.959254,362.65703819994815,362.966952299932,362.65703819994815,None,None,362.65703819994815,None,363.45644658992535,None,,,,12002,0001,2021_Jul_28_1529,localizer,2021.1.3,59.79834800689109,
block,objects,objects054.bmp,,,,,0,172,172,172,,,,,,,,,,,,,,,,,,,,,,,,,,,,,,,,,,,,None,,363.45644658992535,None,363.45644658992535,None,2021-07-28-15:35:00.768824,363.48372419993393,363.7889001999283,363.48372419993393,363.48372419993393,None,363.48372419993393,363.48372419993393,364.26830778995065,None,,,,12002,0001,2021_Jul_28_1529,localizer,2021.1.3,59.79834800689109,
block,objects,objects078.bmp,,,,,0,173,173,173,,,,,,,,,,,,,,,,,,,,,,,,,,,,,,,,,,,,None,,364.26830778995065,None,364.26830778995065,None,2021-07-28-15:35:01.572925,364.2811865999829,364.58872899995185,364.2811865999829,None,None,364.2811865999829,None,365.0736207899405,None,,,,12002,0001,2021_Jul_28_1529,localizer,2021.1.3,59.79834800689109,
block,objects,objects035.bmp,,,,,0,174,174,174,,,,,,,,,,,,,,,,,,,,,,,,,,,,,,,,,,,,None,,365.0736207899405,None,365.0736207899405,None,2021-07-28-15:35:02.382954,365.10092639992945,365.40578619996086,365.10092639992945,None,None,365.10092639992945,None,365.8868933900027,None,,,,12002,0001,2021_Jul_28_1529,localizer,2021.1.3,59.79834800689109,
block,objects,objects003.bmp,,,,,0,175,175,175,,,,,,,,,,,,,,,,,,,,,,,,,,,,,,,,,,,,None,,365.8868933900027,None,365.8868933900027,None,2021-07-28-15:35:03.195001,365.89445070002694,366.2045195000246,365.89445070002694,None,None,365.89445070002694,None,366.70582588997206,None,,,,12002,0001,2021_Jul_28_1529,localizer,2021.1.3,59.79834800689109,
block,objects,objects057.bmp,,,,,0,176,176,176,,,,,,,,,,,,,,,,,,,,,,,,,,,,,,,,,,,,None,,366.70582588997206,None,366.70582588997206,None,2021-07-28-15:35:04.018121,366.72506309999153,367.0379137999844,366.72506309999153,None,None,366.72506309999153,None,367.5203293899773,None,,,,12002,0001,2021_Jul_28_1529,localizer,2021.1.3,59.79834800689109,
block,objects,objects008.bmp,,,,,0,177,177,177,,,,,,,,,,,,,,,,,,,,,,,,,,,,,,,,,,,,None,,367.5203293899773,None,367.5203293899773,None,2021-07-28-15:35:04.828908,367.5431802000385,367.85139650001656,367.5431802000385,None,None,367.5431802000385,None,368.3353809899651,None,,,,12002,0001,2021_Jul_28_1529,localizer,2021.1.3,59.79834800689109,
block,objects,objects027.bmp,,,,,0,178,178,178,,,,,,,,,,,,,,,,,,,,,,,,,,,,,,,,,,,,None,,368.3353809899651,None,368.3353809899651,None,2021-07-28-15:35:05.639812,368.3475798999425,368.65320980001707,368.3475798999425,None,None,368.3475798999425,None,369.1569435899379,None,,,,12002,0001,2021_Jul_28_1529,localizer,2021.1.3,59.79834800689109,
block,objects,objects031.bmp,,,,,0,179,179,179,,,,,,,,,,,,,,,,,,,,,,,,,,,,,,,,,,,,None,,369.1569435899379,None,369.1569435899379,None,2021-07-28-15:35:06.466321,369.1828280999325,369.4862036999548,369.1828280999325,None,None,369.1828280999325,None,369.9696353900014,None,,,,12002,0001,2021_Jul_28_1529,localizer,2021.1.3,59.79834800689109,
block,objects,objects009.bmp,,,,,0,180,180,180,,,,,,,,,,,,,,,,,,,,,,,,,,,,,,,,,,,,None,,369.9696353900014,None,369.9696353900014,None,2021-07-28-15:35:07.278136,369.98535410000477,370.2861325000413,369.98535410000477,None,None,369.98535410000477,None,370.78711198994426,None,,,,12002,0001,2021_Jul_28_1529,localizer,2021.1.3,59.79834800689109,
block,objects,objects075.bmp,,,,,0,181,181,181,,,,,,,,,,,,,,,,,,,,,,,,,,,,,,,,,,,,None,,370.78711198994426,None,370.78711198994426,None,2021-07-28-15:35:08.095681,370.8016414999729,371.1042050999822,370.8016414999729,None,None,370.8016414999729,None,371.6062642899575,None,,,,12002,0001,2021_Jul_28_1529,localizer,2021.1.3,59.79834800689109,
block_end,objects,objects050.bmp,,,,,0,182,182,182,,,,,,,,,,,,,,,,,,,,,,,,,,,,,,,,,,,,None,,371.6062642899575,None,371.6062642899575,None,2021-07-28-15:35:08.916453,371.63389359996654,371.93842559994664,371.63389359996654,None,None,371.63389359996654,None,372.4193893899443,None,,,,12002,0001,2021_Jul_28_1529,localizer,2021.1.3,59.79834800689109,
block_start,objects,objects084.bmp,,,,,0,183,183,183,,,,,,,,,,,,,,,,,,,,,,,,,,,,,,,,,,,,t,1.7549863000167534,372.4179348000325,None,372.4179348000325,None,2021-07-28-15:35:11.497664,374.21734470000956,374.5199591999408,374.21734470000956,None,None,374.21734470000956,None,375.0053858899279,None,,,,12002,0001,2021_Jul_28_1529,localizer,2021.1.3,59.79834800689109,
block,objects,objects001.bmp,,,,,0,184,184,184,,,,,,,,,,,,,,,,,,,,,,,,,,,,,,,,,,,,None,,375.0053858899279,None,375.0053858899279,None,2021-07-28-15:35:12.314735,375.03057099995203,375.3390748000238,375.03057099995203,None,None,375.03057099995203,None,375.82318108996844,None,,,,12002,0001,2021_Jul_28_1529,localizer,2021.1.3,59.79834800689109,
block,objects,objects041.bmp,,,,,0,185,185,185,,,,,,,,,,,,,,,,,,,,,,,,,,,,,,,,,,,,None,,375.82318108996844,None,375.82318108996844,None,2021-07-28-15:35:13.132659,375.8484772000229,376.1521752999397,375.8484772000229,None,None,375.8484772000229,None,376.6363714899868,None,,,,12002,0001,2021_Jul_28_1529,localizer,2021.1.3,59.79834800689109,
block,objects,objects087.bmp,,,,,0,186,186,186,,,,,,,,,,,,,,,,,,,,,,,,,,,,,,,,,,,,None,,376.6363714899868,None,376.6363714899868,None,2021-07-28-15:35:13.942896,376.6551462999778,376.9529441000195,376.6551462999778,None,None,376.6551462999778,None,377.45541719000323,None,,,,12002,0001,2021_Jul_28_1529,localizer,2021.1.3,59.79834800689109,
block,objects,objects048.bmp,,,,,0,187,187,187,,,,,,,,,,,,,,,,,,,,,,,,,,,,,,,,,,,,None,,377.45541719000323,None,377.45541719000323,None,2021-07-28-15:35:14.764621,377.46435180003755,377.7730880000163,377.46435180003755,None,None,377.46435180003755,None,378.2729499900248,None,,,,12002,0001,2021_Jul_28_1529,localizer,2021.1.3,59.79834800689109,
block,objects,objects030.bmp,,,,,0,188,188,188,,,,,,,,,,,,,,,,,,,,,,,,,,,,,,,,,,,,None,,378.2729499900248,None,378.2729499900248,None,2021-07-28-15:35:15.582443,378.28215520002414,378.58854919997975,378.28215520002414,None,None,378.28215520002414,None,379.0896100900369,None,,,,12002,0001,2021_Jul_28_1529,localizer,2021.1.3,59.79834800689109,
block,objects,objects070.bmp,,,,,0,189,189,189,,,,,,,,,,,,,,,,,,,,,,,,,,,,,,,,,,,,None,,379.0896100900369,None,379.0896100900369,None,2021-07-28-15:35:16.399105,379.11150190001354,379.4196335999295,379.11150190001354,None,None,379.11150190001354,None,379.9066333900206,None,,,,12002,0001,2021_Jul_28_1529,localizer,2021.1.3,59.79834800689109,
block,objects,objects042.bmp,,,,,0,190,190,190,,,,,,,,,,,,,,,,,,,,,,,,,,,,,,,,,,,,None,,379.9066333900206,None,379.9066333900206,None,2021-07-28-15:35:17.215904,379.93166070000734,380.23553840001114,379.93166070000734,None,None,379.93166070000734,None,380.7197240899783,None,,,,12002,0001,2021_Jul_28_1529,localizer,2021.1.3,59.79834800689109,
block,objects,objects061.bmp,,,,,0,191,191,191,,,,,,,,,,,,,,,,,,,,,,,,,,,,,,,,,,,,None,,380.7197240899783,None,380.7197240899783,None,2021-07-28-15:35:18.027044,380.7390219999943,381.0391556000104,380.7390219999943,None,None,380.7390219999943,None,381.536807889957,None,,,,12002,0001,2021_Jul_28_1529,localizer,2021.1.3,59.79834800689109,
block,objects,objects051.bmp,,,,,0,192,192,192,,,,,,,,,,,,,,,,,,,,,,,,,,,,,,,,,,,,None,,381.536807889957,None,381.536807889957,None,2021-07-28-15:35:18.845369,381.55257169995457,381.85759769997094,381.55257169995457,None,None,381.55257169995457,None,382.356991590024,None,,,,12002,0001,2021_Jul_28_1529,localizer,2021.1.3,59.79834800689109,
block,objects,objects082.bmp,,,,,0,193,193,193,,,,,,,,,,,,,,,,,,,,,,,,,,,,,,,,,,,,None,,382.356991590024,None,382.356991590024,None,2021-07-28-15:35:19.666440,382.3672496000072,382.6718506999314,382.3672496000072,None,None,382.3672496000072,None,383.17200808997734,None,,,,12002,0001,2021_Jul_28_1529,localizer,2021.1.3,59.79834800689109,
block,objects,objects045.bmp,,,,,0,194,194,194,,,,,,,,,,,,,,,,,,,,,,,,,,,,,,,,,,,,None,,383.17200808997734,None,383.17200808997734,None,2021-07-28-15:35:20.481282,383.18786780000664,383.4886198999593,383.18786780000664,None,None,383.18786780000664,None,383.9885900899768,None,,,,12002,0001,2021_Jul_28_1529,localizer,2021.1.3,59.79834800689109,
block,objects,objects013.bmp,,,,,0,195,195,195,,,,,,,,,,,,,,,,,,,,,,,,,,,,,,,,,,,,None,,383.9885900899768,None,383.9885900899768,None,2021-07-28-15:35:21.297995,384.0140498999972,384.3197927000001,384.0140498999972,None,None,384.0140498999972,None,384.80388238993476,None,,,,12002,0001,2021_Jul_28_1529,localizer,2021.1.3,59.79834800689109,
block,objects,objects026.bmp,,,,,0,196,196,196,,,,,,,,,,,,,,,,,,,,,,,,,,,,,,,,,,,,None,,384.80388238993476,None,384.80388238993476,None,2021-07-28-15:35:22.112254,384.82609720004257,385.1393031999469,384.82609720004257,None,None,384.82609720004257,None,385.61983798993754,None,,,,12002,0001,2021_Jul_28_1529,localizer,2021.1.3,59.79834800689109,
block_end,objects,objects033.bmp,,,,,0,197,197,197,,,,,,,,,,,,,,,,,,,,,,,,,,,,,,,,,,,,None,,385.61983798993754,None,385.61983798993754,None,2021-07-28-15:35:22.928279,385.6401639999822,385.9528241000371,385.6401639999822,None,None,385.6401639999822,None,386.4361840900034,None,,,,12002,0001,2021_Jul_28_1529,localizer,2021.1.3,59.79834800689109,
block_start,scenes,scenes055.bmp,,,,,0,198,198,198,,,,,,,,,,,,,,,,,,,,,,,,,,,,,,,,,,,,t,1.7347875999985263,386.4372958999593,None,386.4372958999593,None,2021-07-28-15:35:25.501424,388.220434900024,388.5225895999465,388.220434900024,None,None,388.220434900024,None,389.0069842899917,None,,,,12002,0001,2021_Jul_28_1529,localizer,2021.1.3,59.79834800689109,
block,scenes,scenes085.bmp,,,,,0,199,199,199,,,,,,,,,,,,,,,,,,,,,,,,,,,,,,,,,,,,None,,389.0069842899917,None,389.0069842899917,None,2021-07-28-15:35:26.316437,389.0375225000316,389.35153750004247,389.0375225000316,None,None,389.0375225000316,None,389.8206088899402,None,,,,12002,0001,2021_Jul_28_1529,localizer,2021.1.3,59.79834800689109,
block,scenes,scenes015.bmp,,,,,0,200,200,200,,,,,,,,,,,,,,,,,,,,,,,,,,,,,,,,,,,,None,,389.8206088899402,None,389.8206088899402,None,2021-07-28-15:35:27.129207,389.83865709998645,390.1413477000315,389.83865709998645,None,None,389.83865709998645,None,390.6401234900346,None,,,,12002,0001,2021_Jul_28_1529,localizer,2021.1.3,59.79834800689109,
block,scenes,scenes012.bmp,,,,,0,201,201,201,,,,,,,,,,,,,,,,,,,,,,,,,,,,,,,,,,,,None,,390.6401234900346,None,390.6401234900346,None,2021-07-28-15:35:27.951246,390.672033400042,390.98866509995423,390.672033400042,None,None,390.672033400042,None,391.4568743900396,None,,,,12002,0001,2021_Jul_28_1529,localizer,2021.1.3,59.79834800689109,
block,scenes,scenes073.bmp,,,,,0,202,202,202,,,,,,,,,,,,,,,,,,,,,,,,,,,,,,,,,,,,None,,391.4568743900396,None,391.4568743900396,None,2021-07-28-15:35:28.767319,391.4832724999869,391.7867952999659,391.4832724999869,None,None,391.4832724999869,None,392.27026608996096,None,,,,12002,0001,2021_Jul_28_1529,localizer,2021.1.3,59.79834800689109,
block,scenes,scenes029.bmp,,,,,0,203,203,203,,,,,,,,,,,,,,,,,,,,,,,,,,,,,,,,,,,,None,,392.27026608996096,None,392.27026608996096,None,2021-07-28-15:35:29.576746,392.27327799994964,392.58611799997743,392.27327799994964,None,None,392.27327799994964,None,393.08695178993514,None,,,,12002,0001,2021_Jul_28_1529,localizer,2021.1.3,59.79834800689109,
block,scenes,scenes030.bmp,,,,,0,204,204,204,,,,,,,,,,,,,,,,,,,,,,,,,,,,,,,,,,,,None,,393.08695178993514,None,393.08695178993514,None,2021-07-28-15:35:30.395541,393.09100040001795,393.4057107999688,393.09100040001795,None,None,393.09100040001795,None,393.9040657900274,None,,,,12002,0001,2021_Jul_28_1529,localizer,2021.1.3,59.79834800689109,
block,scenes,scenes006.bmp,,,,,0,205,205,205,,,,,,,,,,,,,,,,,,,,,,,,,,,,,,,,,,,,None,,393.9040657900274,None,393.9040657900274,None,2021-07-28-15:35:31.212631,393.91899259993806,394.21809300000314,393.91899259993806,None,None,393.91899259993806,None,394.71991229001435,None,,,,12002,0001,2021_Jul_28_1529,localizer,2021.1.3,59.79834800689109,
block,scenes,scenes048.bmp,,,,,0,206,206,206,,,,,,,,,,,,,,,,,,,,,,,,,,,,,,,,,,,,None,,394.71991229001435,None,394.71991229001435,None,2021-07-28-15:35:32.028365,394.74869389995,395.05312019994017,394.74869389995,None,None,394.74869389995,None,395.5365258900216,None,,,,12002,0001,2021_Jul_28_1529,localizer,2021.1.3,59.79834800689109,
block,scenes,scenes002.bmp,,,,,0,207,207,207,,,,,,,,,,,,,,,,,,,,,,,,,,,,,,,,,,,,None,,395.5365258900216,None,395.5365258900216,None,2021-07-28-15:35:32.845057,395.5576674999902,395.87088589998893,395.5576674999902,None,None,395.5576674999902,None,396.35391699001195,None,,,,12002,0001,2021_Jul_28_1529,localizer,2021.1.3,59.79834800689109,
block,scenes,scenes027.bmp,,,,,0,208,208,208,,,,,,,,,,,,,,,,,,,,,,,,,,,,,,,,,,,,None,,396.35391699001195,None,396.35391699001195,None,2021-07-28-15:35:33.662345,396.36178779997863,396.67091089999303,396.36178779997863,None,None,396.36178779997863,None,397.17331229001286,None,,,,12002,0001,2021_Jul_28_1529,localizer,2021.1.3,59.79834800689109,
block,scenes,scenes062.bmp,,,,,0,209,209,209,,,,,,,,,,,,,,,,,,,,,,,,,,,,,,,,,,,,None,,397.17331229001286,None,397.17331229001286,None,2021-07-28-15:35:34.482683,397.20723499997985,397.5181288999738,397.20723499997985,None,None,397.20723499997985,None,397.98948419003284,None,,,,12002,0001,2021_Jul_28_1529,localizer,2021.1.3,59.79834800689109,
block,scenes,scenes035.bmp,,,,,0,210,210,210,,,,,,,,,,,,,,,,,,,,,,,,,,,,,,,,,,,,None,,397.98948419003284,None,397.98948419003284,None,2021-07-28-15:35:35.299771,398.0177004999714,398.321443199995,398.0177004999714,None,None,398.0177004999714,None,398.8071161899949,None,,,,12002,0001,2021_Jul_28_1529,localizer,2021.1.3,59.79834800689109,
block,scenes,scenes078.bmp,,,,,0,211,211,211,,,,,,,,,,,,,,,,,,,,,,,,,,,,,,,,,,,,None,,398.8071161899949,None,398.8071161899949,None,2021-07-28-15:35:36.117555,398.8324813999934,399.13677969994023,398.8324813999934,None,None,398.8324813999934,None,399.62022939000747,None,,,,12002,0001,2021_Jul_28_1529,localizer,2021.1.3,59.79834800689109,
block_end,scenes,scenes004.bmp,,,,,0,212,212,212,,,,,,,,,,,,,,,,,,,,,,,,,,,,,,,,,,,,None,,399.62022939000747,None,399.62022939000747,None,2021-07-28-15:35:36.928722,399.6242610999616,399.93630639999174,399.6242610999616,None,None,399.6242610999616,None,400.4405968899606,None,,,,12002,0001,2021_Jul_28_1529,localizer,2021.1.3,59.79834800689109,
block_start,scrambled,scrambled063.bmp,,,,,0,213,213,213,,,,,,,,,,,,,,,,,,,,,,,,,,,,,,,,,,,,t,1.7328541000606492,400.43919039994944,None,400.43919039994944,None,2021-07-28-15:35:39.496648,402.21555279998574,402.52257629996166,402.21555279998574,None,None,402.21555279998574,None,403.00687778999566,None,,,,12002,0001,2021_Jul_28_1529,localizer,2021.1.3,59.79834800689109,
block,scrambled,scrambled023.bmp,,,,,0,214,214,214,,,,,,,,,,,,,,,,,,,,,,,,,,,,,,,,,,,,None,,403.00687778999566,None,403.00687778999566,None,2021-07-28-15:35:40.318020,403.01919289992657,403.3219119999558,403.01919289992657,None,None,403.01919289992657,None,403.8229050899623,None,,,,12002,0001,2021_Jul_28_1529,localizer,2021.1.3,59.79834800689109,
block,scrambled,scrambled076.bmp,,,,,0,215,215,215,,,,,,,,,,,,,,,,,,,,,,,,,,,,,,,,,,,,None,,403.8229050899623,None,403.8229050899623,None,2021-07-28-15:35:41.132501,403.84864270000253,404.15449700003956,403.84864270000253,None,None,403.84864270000253,None,404.6369616899407,None,,,,12002,0001,2021_Jul_28_1529,localizer,2021.1.3,59.79834800689109,
block,scrambled,scrambled043.bmp,,,,,0,216,216,216,,,,,,,,,,,,,,,,,,,,,,,,,,,,,,,,,,,,None,,404.6369616899407,None,404.6369616899407,None,2021-07-28-15:35:41.945521,404.6469684999902,404.95263249997515,404.6469684999902,None,None,404.6469684999902,None,405.45353458998727,None,,,,12002,0001,2021_Jul_28_1529,localizer,2021.1.3,59.79834800689109,
block,scrambled,scrambled044.bmp,,,,,0,217,217,217,,,,,,,,,,,,,,,,,,,,,,,,,,,,,,,,,,,,None,,405.45353458998727,None,405.45353458998727,None,2021-07-28-15:35:42.762022,405.4699667999521,405.7853095999453,405.4699667999521,None,None,405.4699667999521,None,406.2734195899917,None,,,,12002,0001,2021_Jul_28_1529,localizer,2021.1.3,59.79834800689109,
block,scrambled,scrambled010.bmp,,,,,0,218,218,218,,,,,,,,,,,,,,,,,,,,,,,,,,,,,,,,,,,,None,,406.2734195899917,None,406.2734195899917,None,2021-07-28-15:35:43.582874,406.3012138999766,406.6057220000075,406.3012138999766,None,None,406.3012138999766,None,407.088763189991,None,,,,12002,0001,2021_Jul_28_1529,localizer,2021.1.3,59.79834800689109,
block,scrambled,scrambled030.bmp,,,,,0,219,219,219,,,,,,,,,,,,,,,,,,,,,,,,,,,,,,,,,,,,None,,407.088763189991,None,407.088763189991,None,2021-07-28-15:35:44.398145,407.114952599979,407.41969150002114,407.114952599979,None,None,407.114952599979,None,407.9033151900163,None,,,,12002,0001,2021_Jul_28_1529,localizer,2021.1.3,59.79834800689109,
block,scrambled,scrambled080.bmp,,,,,0,220,220,220,,,,,,,,,,,,,,,,,,,,,,,,,,,,,,,,,,,,None,,407.9033151900163,None,407.9033151900163,None,2021-07-28-15:35:45.210898,407.90905090002343,408.22354299994186,407.90905090002343,None,None,407.90905090002343,None,408.72320588994774,None,,,,12002,0001,2021_Jul_28_1529,localizer,2021.1.3,59.79834800689109,
block,scrambled,scrambled009.bmp,,,,,0,221,221,221,,,,,,,,,,,,,,,,,,,,,,,,,,,,,,,,,,,,None,,408.72320588994774,None,408.72320588994774,None,2021-07-28-15:35:46.032582,408.7491893999977,409.0512053000275,408.7491893999977,None,None,408.7491893999977,None,409.5376270900248,None,,,,12002,0001,2021_Jul_28_1529,localizer,2021.1.3,59.79834800689109,
block,scrambled,scrambled041.bmp,,,,,0,222,222,222,,,,,,,,,,,,,,,,,,,,,,,,,,,,,,,,,,,,None,,409.5376270900248,None,409.5376270900248,None,2021-07-28-15:35:46.846174,409.54170369997155,409.8545943000354,409.54170369997155,None,None,409.54170369997155,None,410.3512985899812,None,,,,12002,0001,2021_Jul_28_1529,localizer,2021.1.3,59.79834800689109,
block,scrambled,scrambled056.bmp,,,,,0,223,223,223,,,,,,,,,,,,,,,,,,,,,,,,,,,,,,,,,,,,None,,410.3512985899812,None,410.3512985899812,None,2021-07-28-15:35:47.655733,410.36225350003224,410.6727640000172,410.36225350003224,None,None,410.36225350003224,None,411.1700229899958,None,,,,12002,0001,2021_Jul_28_1529,localizer,2021.1.3,59.79834800689109,
block,scrambled,scrambled028.bmp,,,,,0,224,224,224,,,,,,,,,,,,,,,,,,,,,,,,,,,,,,,,,,,,None,,411.1700229899958,None,411.1700229899958,None,2021-07-28-15:35:48.478458,411.17675320000853,411.48854839999694,411.17675320000853,None,None,411.17675320000853,None,411.9872496900149,None,,,,12002,0001,2021_Jul_28_1529,localizer,2021.1.3,59.79834800689109,
block,scrambled,scrambled029.bmp,,,,,0,225,225,225,,,,,,,,,,,,,,,,,,,,,,,,,,,,,,,,,,,,None,,411.9872496900149,None,411.9872496900149,None,2021-07-28-15:35:49.295810,411.99507549998816,412.30524929997046,411.99507549998816,None,None,411.99507549998816,None,412.8060674899258,None,,,,12002,0001,2021_Jul_28_1529,localizer,2021.1.3,59.79834800689109,
block,scrambled,scrambled084.bmp,,,,,0,226,226,226,,,,,,,,,,,,,,,,,,,,,,,,,,,,,,,,,,,,None,,412.8060674899258,None,412.8060674899258,None,2021-07-28-15:35:50.115441,412.8163771999534,413.12187439994887,412.8163771999534,None,None,412.8163771999534,None,413.6234925899422,None,,,,12002,0001,2021_Jul_28_1529,localizer,2021.1.3,59.79834800689109,
block_end,scrambled,scrambled047.bmp,,,,,0,227,227,227,,,,,,,,,,,,,,,,,,,,,,,,,,,,,,,,,,,,None,,413.6234925899422,None,413.6234925899422,None,2021-07-28-15:35:50.934814,413.6864252999658,413.98559789999854,413.6864252999658,None,None,413.6864252999658,None,414.43759708993605,None,,,,12002,0001,2021_Jul_28_1529,localizer,2021.1.3,59.79834800689109,
null_block,null_block,null_block.bmp,,,,,0,228,228,228,,,,,,,,,,,,,,,,,,,,,,,,,,,,,,,,,,,,t,1.7354799000313506,414.4368552999804,None,414.4368552999804,None,2021-07-28-15:35:53.496245,416.188596489979,None,416.188596489979,None,None,416.188596489979,None,416.2024152999511,None,,,,12002,0001,2021_Jul_28_1529,localizer,2021.1.3,59.79834800689109,
block_start,faces,faces046.bmp,,,,,0,229,229,229,,,,,,,,,,,,,,,,,,,,,,,,,,,,,,,,,,,,t,1.9661677000112832,428.20592939993367,None,428.20592939993367,None,2021-07-28-15:36:07.500263,430.1966615000274,430.50413399992976,430.1966615000274,None,None,430.1966615000274,None,431.00600929001814,None,,,,12002,0001,2021_Jul_28_1529,localizer,2021.1.3,59.79834800689109,
block,faces,faces044.bmp,,,,,0,230,230,230,,,,,,,,,,,,,,,,,,,,,,,,,,,,,,,,,,,,None,,431.00600929001814,None,431.00600929001814,None,2021-07-28-15:36:08.314402,431.03034559998196,431.3387603999581,431.03034559998196,None,None,431.03034559998196,None,431.82325948998334,None,,,,12002,0001,2021_Jul_28_1529,localizer,2021.1.3,59.79834800689109,
block,faces,faces031.bmp,,,,,0,231,231,231,,,,,,,,,,,,,,,,,,,,,,,,,,,,,,,,,,,,None,,431.82325948998334,None,431.82325948998334,None,2021-07-28-15:36:09.132737,431.8499626000412,432.15650939999614,431.8499626000412,None,None,431.8499626000412,None,432.63902249003297,None,,,,12002,0001,2021_Jul_28_1529,localizer,2021.1.3,59.79834800689109,
block,faces,faces033.bmp,,,,,0,232,232,232,,,,,,,,,,,,,,,,,,,,,,,,,,,,,,,,,,,,None,,432.63902249003297,None,432.63902249003297,None,2021-07-28-15:36:09.947526,432.6800390999997,432.9906178000383,432.6800390999997,None,None,432.6800390999997,None,433.4557673899923,None,,,,12002,0001,2021_Jul_28_1529,localizer,2021.1.3,59.79834800689109,
block,faces,faces069.bmp,,,,,0,233,233,233,,,,,,,,,,,,,,,,,,,,,,,,,,,,,,,,,,,,None,,433.4557673899923,None,433.4557673899923,None,2021-07-28-15:36:10.765256,433.48378879996017,433.78894949995447,433.48378879996017,None,None,433.48378879996017,None,434.2724177899305,None,,,,12002,0001,2021_Jul_28_1529,localizer,2021.1.3,59.79834800689109,
block,faces,faces030.bmp,,,,,0,234,234,234,,,,,,,,,,,,,,,,,,,,,,,,,,,,,,,,,,,,None,,434.2724177899305,None,434.2724177899305,None,2021-07-28-15:36:11.580934,434.2805942000123,434.58913420001045,434.2805942000123,None,None,434.2805942000123,None,435.0904428899754,None,,,,12002,0001,2021_Jul_28_1529,localizer,2021.1.3,59.79834800689109,
block,faces,faces034.bmp,,,,,0,235,235,235,,,,,,,,,,,,,,,,,,,,,,,,,,,,,,,,,,,,None,,435.0904428899754,None,435.0904428899754,None,2021-07-28-15:36:12.401758,435.1236707000062,435.4378720000386,435.1236707000062,None,None,435.1236707000062,None,435.9063877900131,None,,,,12002,0001,2021_Jul_28_1529,localizer,2021.1.3,59.79834800689109,
block,faces,faces026.bmp,,,,,0,236,236,236,,,,,,,,,,,,,,,,,,,,,,,,,,,,,,,,,,,,None,,435.9063877900131,None,435.9063877900131,None,2021-07-28-15:36:13.215931,435.98479549994227,436.28909109998494,435.98479549994227,None,None,435.98479549994227,None,436.71975779000206,None,,,,12002,0001,2021_Jul_28_1529,localizer,2021.1.3,59.79834800689109,
block,faces,faces040.bmp,,,,,0,237,237,237,,,,,,,,,,,,,,,,,,,,,,,,,,,,,,,,,,,,None,,436.71975779000206,None,436.71975779000206,None,2021-07-28-15:36:14.027305,436.7406723999884,437.0538579999702,436.7406723999884,None,None,436.7406723999884,None,437.5390122899786,None,,,,12002,0001,2021_Jul_28_1529,localizer,2021.1.3,59.79834800689109,
block,faces,faces089.bmp,,,,,0,238,238,238,,,,,,,,,,,,,,,,,,,,,,,,,,,,,,,,,,,,None,,437.5390122899786,None,437.5390122899786,None,2021-07-28-15:36:14.848568,437.54839130002074,437.8554775000084,437.54839130002074,None,None,437.54839130002074,None,438.3558036899427,None,,,,12002,0001,2021_Jul_28_1529,localizer,2021.1.3,59.79834800689109,
block,faces,faces051.bmp,,,,,0,239,239,239,,,,,,,,,,,,,,,,,,,,,,,,,,,,,,,,,,,,None,,438.3558036899427,None,438.3558036899427,None,2021-07-28-15:36:15.665241,438.38843089994043,438.69042500003707,438.38843089994043,None,None,438.38843089994043,None,439.17248148997317,None,,,,12002,0001,2021_Jul_28_1529,localizer,2021.1.3,59.79834800689109,
block,faces,faces063.bmp,,,,,0,240,240,240,,,,,,,,,,,,,,,,,,,,,,,,,,,,,,,,,,,,None,,439.17248148997317,None,439.17248148997317,None,2021-07-28-15:36:16.481825,439.18158999993466,439.48896160000004,439.18158999993466,None,None,439.18158999993466,None,439.9895686899778,None,,,,12002,0001,2021_Jul_28_1529,localizer,2021.1.3,59.79834800689109,
block,faces,faces063.bmp,,,,,0,241,241,241,,,,,,,,,,,,,,,,,,,,,,,,,,,,,,,,,,,,None,,439.9895686899778,None,439.9895686899778,None,2021-07-28-15:36:17.298945,439.99877069995273,440.3047474999912,439.99877069995273,None,y,439.99877069995273,None,440.8038639900275,None,0.5759813999757171,,,12002,0001,2021_Jul_28_1529,localizer,2021.1.3,59.79834800689109,
block,faces,faces037.bmp,,,,,0,242,242,242,,,,,,,,,,,,,,,,,,,,,,,,,,,,,,,,,,,,None,,440.8038639900275,None,440.8038639900275,None,2021-07-28-15:36:18.112421,440.80797970003914,441.1184331999393,440.80797970003914,None,None,440.80797970003914,None,441.6201796899783,None,,,,12002,0001,2021_Jul_28_1529,localizer,2021.1.3,59.79834800689109,
block_end,faces,faces018.bmp,,,,,0,243,243,243,,,,,,,,,,,,,,,,,,,,,,,,,,,,,,,,,,,,None,,441.6201796899783,None,441.6201796899783,None,2021-07-28-15:36:18.928535,441.6419224999845,441.9545343000209,441.6419224999845,None,None,441.6419224999845,None,442.44118948993275,None,,,,12002,0001,2021_Jul_28_1529,localizer,2021.1.3,59.79834800689109,
,,,,,,,,,,,,,,,,,,,,,,,,,,,,,,,,,,,,,,,,,,,,,,,,,,,,,,,,,,,,,,,442.4409352999646,None,,,,,,,
