block_type,condition,img_name,Button.thisRepN,Button.thisTrialN,Button.thisN,Button.thisIndex,trials.thisRepN,trials.thisTrialN,trials.thisN,trials.thisIndex,Ready_experimenter_text.started,Ready_experimenter_text.stopped,Ready_experimenter_resp.keys,Ready_experimenter_resp.rt,Ready_experimenter_resp.started,Ready_experimenter_resp.stopped,Alignment_background.started,Alignment_background.stopped,Alignment_image.started,Alignment_image.stopped,Alignment_resp.keys,Alignment_resp.rt,Alignment_resp.started,Alignment_resp.stopped,Button_text.started,Button_text.stopped,Index_text.started,Index_text.stopped,Index_resp.keys,Index_resp.rt,Index_resp.started,Index_resp.stopped,Middle_text.started,Middle_text.stopped,Middle_resp.keys,Middle_resp.rt,Middle_resp.started,Middle_resp.stopped,Repeat_text.started,Repeat_text.stopped,Repeat_resp.keys,Repeat_resp.corr,Repeat_resp.rt,Repeat_resp.started,Repeat_resp.stopped,instruction_text.started,instruction_text.stopped,key_resp.keys,key_resp.rt,key_resp.started,key_resp.stopped,scanner_t.keys,scanner_t.rt,scanner_t.started,scanner_t.stopped,fixation_wait_for_t.started,fixation_wait_for_t.stopped,real_timestamp_trial_start,image.started,image.stopped,fixation.started,fixation.stopped,repeat_response.keys,repeat_response.started,repeat_response.stopped,fixation_null.started,fixation_null.stopped,repeat_response.rt,end_text.started,end_text.stopped,participant,run,date,expName,psychopyVersion,frameRate,
,,,,,,,,,,,9.599965299945325,None,return,115.66346369986422,9.599965299945325,None,,,,,,,,,,,,,,,,,,,,,,,,,,,,,,,,,,,,,,,,,,,,,,,,,,,,,,,21010,0001,2022_Aug_11_1156,localizer,2021.1.3,60.02829737315806,
,,,,,,,,,,,,,,,,,125.31264739995822,None,125.31264739995822,None,return,8.265213099773973,125.31264739995822,None,,,,,,,,,,,,,,,,,,,,,,,,,,,,,,,,,,,,,,,,,,,,,,,21010,0001,2022_Aug_11_1156,localizer,2021.1.3,60.02829737315806,
,,,0,0,0,0,,,,,,,,,,,,,,,,,,,133.606794500025,None,134.61817370005883,None,y,2.550270300125703,134.61817370005883,None,137.19034849992022,None,b,1.2741099998820573,137.19034849992022,None,138.48580559995025,None,n,0,1.7459660000167787,138.48580559995025,None,,,,,,,,,,,,,,,,,,,,,,,,,,21010,0001,2022_Aug_11_1156,localizer,2021.1.3,60.02829737315806,
,,,,,,,,,,,,,,,,,,,,,,,,,,,,,,,,,,,,,,,,,,,,,,140.25244409986772,None,y,0.04814980016089976,140.25244409986772,None,,,,,,,,,,,,,,,,,,,,21010,0001,2022_Aug_11_1156,localizer,2021.1.3,60.02829737315806,
null_block,null_block,null_block.bmp,,,,,0,0,0,0,,,,,,,,,,,,,,,,,,,,,,,,,,,,,,,,,,,,,,,,,,t,54.23260119999759,140.38584539992735,None,140.38584539992735,None,2022-08-11-11:59:37.172617,194.65250832005404,None,194.65250832005404,None,None,194.65250832005404,None,194.6525516998954,None,,,,21010,0001,2022_Aug_11_1156,localizer,2021.1.3,60.02829737315806,
block_start,faces,faces045.bmp,,,,,0,1,1,1,,,,,,,,,,,,,,,,,,,,,,,,,,,,,,,,,,,,,,,,,,t,1.9657429999206215,206.65266390005127,None,206.65266390005127,None,2022-08-11-11:59:51.178090,208.6503204999026,208.9523390000686,208.6503204999026,None,None,208.6503204999026,None,209.45216976001393,None,,,,21010,0001,2022_Aug_11_1156,localizer,2021.1.3,60.02829737315806,
block,faces,faces076.bmp,,,,,0,2,2,2,,,,,,,,,,,,,,,,,,,,,,,,,,,,,,,,,,,,,,,,,,None,,209.45216976001393,None,209.45216976001393,None,2022-08-11-11:59:51.989936,209.46246069995686,209.76861809985712,209.46246069995686,None,None,209.46246069995686,None,210.26998606009874,None,,,,21010,0001,2022_Aug_11_1156,localizer,2021.1.3,60.02829737315806,
block,faces,faces022.bmp,,,,,0,3,3,3,,,,,,,,,,,,,,,,,,,,,,,,,,,,,,,,,,,,,,,,,,None,,210.26998606009874,None,210.26998606009874,None,2022-08-11-11:59:52.808727,210.28415529988706,210.58532519987784,210.28415529988706,None,None,210.28415529988706,None,211.08523295994382,None,,,,21010,0001,2022_Aug_11_1156,localizer,2021.1.3,60.02829737315806,
block,faces,faces034.bmp,,,,,0,4,4,4,,,,,,,,,,,,,,,,,,,,,,,,,,,,,,,,,,,,,,,,,,None,,211.08523295994382,None,211.08523295994382,None,2022-08-11-11:59:53.623003,211.09499390004203,211.40209889994003,211.09499390004203,None,None,211.09499390004203,None,211.9019867599709,None,,,,21010,0001,2022_Aug_11_1156,localizer,2021.1.3,60.02829737315806,
block,faces,faces049.bmp,,,,,0,5,5,5,,,,,,,,,,,,,,,,,,,,,,,,,,,,,,,,,,,,,,,,,,None,,211.9019867599709,None,211.9019867599709,None,2022-08-11-11:59:54.439754,211.90793340001255,212.21983959991485,211.90793340001255,None,None,211.90793340001255,None,212.7197011600947,None,,,,21010,0001,2022_Aug_11_1156,localizer,2021.1.3,60.02829737315806,
block,faces,faces060.bmp,,,,,0,6,6,6,,,,,,,,,,,,,,,,,,,,,,,,,,,,,,,,,,,,,,,,,,None,,212.7197011600947,None,212.7197011600947,None,2022-08-11-11:59:55.258645,212.73227220005356,213.03535720007494,212.73227220005356,None,None,212.73227220005356,None,213.53557826008182,None,,,,21010,0001,2022_Aug_11_1156,localizer,2021.1.3,60.02829737315806,
block,faces,faces070.bmp,,,,,0,7,7,7,,,,,,,,,,,,,,,,,,,,,,,,,,,,,,,,,,,,,,,,,,None,,213.53557826008182,None,213.53557826008182,None,2022-08-11-11:59:56.073574,213.54712320002727,213.85208350000903,213.54712320002727,None,None,213.54712320002727,None,214.35221985995304,None,,,,21010,0001,2022_Aug_11_1156,localizer,2021.1.3,60.02829737315806,
block,faces,faces073.bmp,,,,,0,8,8,8,,,,,,,,,,,,,,,,,,,,,,,,,,,,,,,,,,,,,,,,,,None,,214.35221985995304,None,214.35221985995304,None,2022-08-11-11:59:56.890217,214.3632171000354,214.66878599999472,214.3632171000354,None,None,214.3632171000354,None,215.168914459995,None,,,,21010,0001,2022_Aug_11_1156,localizer,2021.1.3,60.02829737315806,
block,faces,faces037.bmp,,,,,0,9,9,9,,,,,,,,,,,,,,,,,,,,,,,,,,,,,,,,,,,,,,,,,,None,,215.168914459995,None,215.168914459995,None,2022-08-11-11:59:57.706678,215.1787584000267,215.4850822999142,215.1787584000267,None,None,215.1787584000267,None,215.9853517600568,None,,,,21010,0001,2022_Aug_11_1156,localizer,2021.1.3,60.02829737315806,
block,faces,faces036.bmp,,,,,0,10,10,10,,,,,,,,,,,,,,,,,,,,,,,,,,,,,,,,,,,,,,,,,,None,,215.9853517600568,None,215.9853517600568,None,2022-08-11-11:59:58.523094,215.99445410002954,216.302314999979,215.99445410002954,None,None,215.99445410002954,None,216.80233646009583,None,,,,21010,0001,2022_Aug_11_1156,localizer,2021.1.3,60.02829737315806,
block,faces,faces080.bmp,,,,,0,11,11,11,,,,,,,,,,,,,,,,,,,,,,,,,,,,,,,,,,,,,,,,,,None,,216.80233646009583,None,216.80233646009583,None,2022-08-11-11:59:59.340100,216.81453990004957,217.1186833998654,216.81453990004957,None,None,216.81453990004957,None,217.61879385996144,None,,,,21010,0001,2022_Aug_11_1156,localizer,2021.1.3,60.02829737315806,
block,faces,faces080.bmp,,,,,0,12,12,12,,,,,,,,,,,,,,,,,,,,,,,,,,,,,,,,,,,,,,,,,,None,,217.61879385996144,None,217.61879385996144,None,2022-08-11-12:00:00.156562,217.6198177000042,217.92320719989948,217.6198177000042,None,y,217.6198177000042,None,218.43542085995432,None,0.7266526999883354,,,21010,0001,2022_Aug_11_1156,localizer,2021.1.3,60.02829737315806,
block,faces,faces079.bmp,,,,,0,13,13,13,,,,,,,,,,,,,,,,,,,,,,,,,,,,,,,,,,,,,,,,,,None,,218.43542085995432,None,218.43542085995432,None,2022-08-11-12:00:00.973386,218.44582100003026,218.75175839988515,218.44582100003026,None,None,218.44582100003026,None,219.25244585995097,None,,,,21010,0001,2022_Aug_11_1156,localizer,2021.1.3,60.02829737315806,
block,faces,faces048.bmp,,,,,0,14,14,14,,,,,,,,,,,,,,,,,,,,,,,,,,,,,,,,,,,,,,,,,,None,,219.25244585995097,None,219.25244585995097,None,2022-08-11-12:00:01.790413,219.26635219994932,219.56915479991585,219.26635219994932,None,None,219.26635219994932,None,220.06873905996326,None,,,,21010,0001,2022_Aug_11_1156,localizer,2021.1.3,60.02829737315806,
block_end,faces,faces023.bmp,,,,,0,15,15,15,,,,,,,,,,,,,,,,,,,,,,,,,,,,,,,,,,,,,,,,,,None,,220.06873905996326,None,220.06873905996326,None,2022-08-11-12:00:02.606501,220.07854590006173,220.38607749994844,220.07854590006173,None,None,220.07854590006173,None,220.88550755998585,None,,,,21010,0001,2022_Aug_11_1156,localizer,2021.1.3,60.02829737315806,
block_start,scrambled,scrambled088.bmp,,,,,0,16,16,16,,,,,,,,,,,,,,,,,,,,,,,,,,,,,,,,,,,,,,,,,,t,1.7329364998731762,220.88543109991588,None,220.88543109991588,None,2022-08-11-12:00:05.171777,222.64555309992284,222.95232150005177,222.64555309992284,None,None,222.64555309992284,None,223.45240015990566,None,,,,21010,0001,2022_Aug_11_1156,localizer,2021.1.3,60.02829737315806,
block,scrambled,scrambled079.bmp,,,,,0,17,17,17,,,,,,,,,,,,,,,,,,,,,,,,,,,,,,,,,,,,,,,,,,None,,223.45240015990566,None,223.45240015990566,None,2022-08-11-12:00:05.990365,223.46324099996127,223.7687174999155,223.46324099996127,None,None,223.46324099996127,None,224.26854155992623,None,,,,21010,0001,2022_Aug_11_1156,localizer,2021.1.3,60.02829737315806,
block,scrambled,scrambled015.bmp,,,,,0,18,18,18,,,,,,,,,,,,,,,,,,,,,,,,,,,,,,,,,,,,,,,,,,None,,224.26854155992623,None,224.26854155992623,None,2022-08-11-12:00:06.806314,224.27657589991577,224.5855175999459,224.27657589991577,None,None,224.27657589991577,None,225.08584146003705,None,,,,21010,0001,2022_Aug_11_1156,localizer,2021.1.3,60.02829737315806,
block,scrambled,scrambled047.bmp,,,,,0,19,19,19,,,,,,,,,,,,,,,,,,,,,,,,,,,,,,,,,,,,,,,,,,None,,225.08584146003705,None,225.08584146003705,None,2022-08-11-12:00:07.623601,225.09648160007782,225.40185540006496,225.09648160007782,None,None,225.09648160007782,None,225.90217265987303,None,,,,21010,0001,2022_Aug_11_1156,localizer,2021.1.3,60.02829737315806,
block,scrambled,scrambled043.bmp,,,,,0,20,20,20,,,,,,,,,,,,,,,,,,,,,,,,,,,,,,,,,,,,,,,,,,None,,225.90217265987303,None,225.90217265987303,None,2022-08-11-12:00:08.439939,225.91195009998046,226.21880530007184,225.91195009998046,None,None,225.91195009998046,None,226.7188196600182,None,,,,21010,0001,2022_Aug_11_1156,localizer,2021.1.3,60.02829737315806,
block,scrambled,scrambled072.bmp,,,,,0,21,21,21,,,,,,,,,,,,,,,,,,,,,,,,,,,,,,,,,,,,,,,,,,None,,226.7188196600182,None,226.7188196600182,None,2022-08-11-12:00:09.256586,226.72913510003127,227.03543549985625,226.72913510003127,None,None,226.72913510003127,None,227.53558345988858,None,,,,21010,0001,2022_Aug_11_1156,localizer,2021.1.3,60.02829737315806,
block,scrambled,scrambled001.bmp,,,,,0,22,22,22,,,,,,,,,,,,,,,,,,,,,,,,,,,,,,,,,,,,,,,,,,None,,227.53558345988858,None,227.53558345988858,None,2022-08-11-12:00:10.073350,227.5449306999799,227.85198869998567,227.5449306999799,None,None,227.5449306999799,None,228.3520491599338,None,,,,21010,0001,2022_Aug_11_1156,localizer,2021.1.3,60.02829737315806,
block,scrambled,scrambled065.bmp,,,,,0,23,23,23,,,,,,,,,,,,,,,,,,,,,,,,,,,,,,,,,,,,,,,,,,None,,228.3520491599338,None,228.3520491599338,None,2022-08-11-12:00:10.889978,228.36222669994459,228.6688532999251,228.36222669994459,None,None,228.36222669994459,None,229.16892135993112,None,,,,21010,0001,2022_Aug_11_1156,localizer,2021.1.3,60.02829737315806,
block,scrambled,scrambled003.bmp,,,,,0,24,24,24,,,,,,,,,,,,,,,,,,,,,,,,,,,,,,,,,,,,,,,,,,None,,229.16892135993112,None,229.16892135993112,None,2022-08-11-12:00:11.706917,229.17909309989773,229.4854355000425,229.17909309989773,None,None,229.17909309989773,None,229.9853892599931,None,,,,21010,0001,2022_Aug_11_1156,localizer,2021.1.3,60.02829737315806,
block,scrambled,scrambled052.bmp,,,,,0,25,25,25,,,,,,,,,,,,,,,,,,,,,,,,,,,,,,,,,,,,,,,,,,None,,229.9853892599931,None,229.9853892599931,None,2022-08-11-12:00:12.523283,229.99511700007133,230.30228559998795,229.99511700007133,None,None,229.99511700007133,None,230.80197155999485,None,,,,21010,0001,2022_Aug_11_1156,localizer,2021.1.3,60.02829737315806,
block,scrambled,scrambled087.bmp,,,,,0,26,26,26,,,,,,,,,,,,,,,,,,,,,,,,,,,,,,,,,,,,,,,,,,None,,230.80197155999485,None,230.80197155999485,None,2022-08-11-12:00:13.339743,230.81049939990044,231.11853930004872,230.81049939990044,None,None,230.81049939990044,None,231.61888645996805,None,,,,21010,0001,2022_Aug_11_1156,localizer,2021.1.3,60.02829737315806,
block,scrambled,scrambled018.bmp,,,,,0,27,27,27,,,,,,,,,,,,,,,,,,,,,,,,,,,,,,,,,,,,,,,,,,None,,231.61888645996805,None,231.61888645996805,None,2022-08-11-12:00:14.156653,231.62833929993212,231.93558910000138,231.62833929993212,None,None,231.62833929993212,None,232.43601095990743,None,,,,21010,0001,2022_Aug_11_1156,localizer,2021.1.3,60.02829737315806,
block,scrambled,scrambled020.bmp,,,,,0,28,28,28,,,,,,,,,,,,,,,,,,,,,,,,,,,,,,,,,,,,,,,,,,None,,232.43601095990743,None,232.43601095990743,None,2022-08-11-12:00:14.973772,232.44236620003358,232.75205700006336,232.44236620003358,None,None,232.44236620003358,None,233.25222035998013,None,,,,21010,0001,2022_Aug_11_1156,localizer,2021.1.3,60.02829737315806,
block,scrambled,scrambled070.bmp,,,,,0,29,29,29,,,,,,,,,,,,,,,,,,,,,,,,,,,,,,,,,,,,,,,,,,None,,233.25222035998013,None,233.25222035998013,None,2022-08-11-12:00:15.789983,233.2621675999835,233.5689771999605,233.2621675999835,None,None,233.2621675999835,None,234.0691627600463,None,,,,21010,0001,2022_Aug_11_1156,localizer,2021.1.3,60.02829737315806,
block_end,scrambled,scrambled044.bmp,,,,,0,30,30,30,,,,,,,,,,,,,,,,,,,,,,,,,,,,,,,,,,,,,,,,,,None,,234.0691627600463,None,234.0691627600463,None,2022-08-11-12:00:16.607128,234.08115149987862,234.38544029998593,234.08115149987862,None,None,234.08115149987862,None,234.88563065987546,None,,,,21010,0001,2022_Aug_11_1156,localizer,2021.1.3,60.02829737315806,
block_start,objects,objects018.bmp,,,,,0,31,31,31,,,,,,,,,,,,,,,,,,,,,,,,,,,,,,,,,,,,,,,,,,t,1.7328761999960989,234.88559459988028,None,234.88559459988028,None,2022-08-11-12:00:19.171697,236.64406479988247,236.95203869999386,236.64406479988247,None,None,236.64406479988247,None,237.453403760097,None,,,,21010,0001,2022_Aug_11_1156,localizer,2021.1.3,60.02829737315806,
block,objects,objects081.bmp,,,,,0,32,32,32,,,,,,,,,,,,,,,,,,,,,,,,,,,,,,,,,,,,,,,,,,None,,237.453403760097,None,237.453403760097,None,2022-08-11-12:00:19.992337,237.46534890006296,237.7688791998662,237.46534890006296,None,None,237.46534890006296,None,238.2689724600641,None,,,,21010,0001,2022_Aug_11_1156,localizer,2021.1.3,60.02829737315806,
block,objects,objects082.bmp,,,,,0,33,33,33,,,,,,,,,,,,,,,,,,,,,,,,,,,,,,,,,,,,,,,,,,None,,238.2689724600641,None,238.2689724600641,None,2022-08-11-12:00:20.806738,238.2788448999636,238.58565380005166,238.2788448999636,None,None,238.2788448999636,None,239.0864423600724,None,,,,21010,0001,2022_Aug_11_1156,localizer,2021.1.3,60.02829737315806,
block,objects,objects072.bmp,,,,,0,34,34,34,,,,,,,,,,,,,,,,,,,,,,,,,,,,,,,,,,,,,,,,,,None,,239.0864423600724,None,239.0864423600724,None,2022-08-11-12:00:21.625288,239.0943694000598,239.40212119999342,239.0943694000598,None,None,239.0943694000598,None,239.90229685988743,None,,,,21010,0001,2022_Aug_11_1156,localizer,2021.1.3,60.02829737315806,
block,objects,objects009.bmp,,,,,0,35,35,35,,,,,,,,,,,,,,,,,,,,,,,,,,,,,,,,,,,,,,,,,,None,,239.90229685988743,None,239.90229685988743,None,2022-08-11-12:00:22.440063,239.91202539997175,240.21874679997563,239.91202539997175,None,None,239.91202539997175,None,240.7195080599049,None,,,,21010,0001,2022_Aug_11_1156,localizer,2021.1.3,60.02829737315806,
block,objects,objects043.bmp,,,,,0,36,36,36,,,,,,,,,,,,,,,,,,,,,,,,,,,,,,,,,,,,,,,,,,None,,240.7195080599049,None,240.7195080599049,None,2022-08-11-12:00:23.258443,240.73118270002306,241.03568149986677,240.73118270002306,None,None,240.73118270002306,None,241.53446946002077,None,,,,21010,0001,2022_Aug_11_1156,localizer,2021.1.3,60.02829737315806,
block,objects,objects052.bmp,,,,,0,37,37,37,,,,,,,,,,,,,,,,,,,,,,,,,,,,,,,,,,,,,,,,,,None,,241.53446946002077,None,241.53446946002077,None,2022-08-11-12:00:24.071464,241.54301859997213,241.85258589987643,241.54301859997213,None,None,241.54301859997213,None,242.35217555996496,None,,,,21010,0001,2022_Aug_11_1156,localizer,2021.1.3,60.02829737315806,
block,objects,objects048.bmp,,,,,0,38,38,38,,,,,,,,,,,,,,,,,,,,,,,,,,,,,,,,,,,,,,,,,,None,,242.35217555996496,None,242.35217555996496,None,2022-08-11-12:00:24.889943,242.3614284999203,242.67207229998894,242.3614284999203,None,None,242.3614284999203,None,243.1690156600671,None,,,,21010,0001,2022_Aug_11_1156,localizer,2021.1.3,60.02829737315806,
block,objects,objects061.bmp,,,,,0,39,39,39,,,,,,,,,,,,,,,,,,,,,,,,,,,,,,,,,,,,,,,,,,None,,243.1690156600671,None,243.1690156600671,None,2022-08-11-12:00:25.706781,243.17474960000254,243.48546330002137,243.17474960000254,None,None,243.17474960000254,None,243.9858448599698,None,,,,21010,0001,2022_Aug_11_1156,localizer,2021.1.3,60.02829737315806,
block,objects,objects029.bmp,,,,,0,40,40,40,,,,,,,,,,,,,,,,,,,,,,,,,,,,,,,,,,,,,,,,,,None,,243.9858448599698,None,243.9858448599698,None,2022-08-11-12:00:26.523609,243.9957290000748,244.30289960000664,243.9957290000748,None,None,243.9957290000748,None,244.80285845987964,None,,,,21010,0001,2022_Aug_11_1156,localizer,2021.1.3,60.02829737315806,
block,objects,objects079.bmp,,,,,0,41,41,41,,,,,,,,,,,,,,,,,,,,,,,,,,,,,,,,,,,,,,,,,,None,,244.80285845987964,None,244.80285845987964,None,2022-08-11-12:00:27.342698,244.8156481999904,245.1191004998982,244.8156481999904,None,None,244.8156481999904,None,245.61896226007957,None,,,,21010,0001,2022_Aug_11_1156,localizer,2021.1.3,60.02829737315806,
block,objects,objects008.bmp,,,,,0,42,42,42,,,,,,,,,,,,,,,,,,,,,,,,,,,,,,,,,,,,,,,,,,None,,245.61896226007957,None,245.61896226007957,None,2022-08-11-12:00:28.156730,245.6289484000299,245.93550299992785,245.6289484000299,None,None,245.6289484000299,None,246.4353174600983,None,,,,21010,0001,2022_Aug_11_1156,localizer,2021.1.3,60.02829737315806,
block,objects,objects053.bmp,,,,,0,43,43,43,,,,,,,,,,,,,,,,,,,,,,,,,,,,,,,,,,,,,,,,,,None,,246.4353174600983,None,246.4353174600983,None,2022-08-11-12:00:28.973088,246.4438926000148,246.75230939988978,246.4438926000148,None,None,246.4438926000148,None,247.2525518600596,None,,,,21010,0001,2022_Aug_11_1156,localizer,2021.1.3,60.02829737315806,
block,objects,objects031.bmp,,,,,0,44,44,44,,,,,,,,,,,,,,,,,,,,,,,,,,,,,,,,,,,,,,,,,,None,,247.2525518600596,None,247.2525518600596,None,2022-08-11-12:00:29.790817,247.2587399999611,247.56952690007165,247.2587399999611,None,None,247.2587399999611,None,248.06962836009916,None,,,,21010,0001,2022_Aug_11_1156,localizer,2021.1.3,60.02829737315806,
block_end,objects,objects041.bmp,,,,,0,45,45,45,,,,,,,,,,,,,,,,,,,,,,,,,,,,,,,,,,,,,,,,,,None,,248.06962836009916,None,248.06962836009916,None,2022-08-11-12:00:30.608247,248.0812663999386,248.38552200002596,248.0812663999386,None,None,248.0812663999386,None,248.88574635994155,None,,,,21010,0001,2022_Aug_11_1156,localizer,2021.1.3,60.02829737315806,
block_start,scenes,scenes038.bmp,,,,,0,46,46,46,,,,,,,,,,,,,,,,,,,,,,,,,,,,,,,,,,,,,,,,,,t,1.732875200221315,248.8857900998555,None,248.8857900998555,None,2022-08-11-12:00:33.174536,250.6473489999771,250.95225249999203,250.6473489999771,None,None,250.6473489999771,None,251.4585696599679,None,,,,21010,0001,2022_Aug_11_1156,localizer,2021.1.3,60.02829737315806,
block,scenes,scenes082.bmp,,,,,0,47,47,47,,,,,,,,,,,,,,,,,,,,,,,,,,,,,,,,,,,,,,,,,,None,,251.4585696599679,None,251.4585696599679,None,2022-08-11-12:00:34.003993,251.47565649985336,251.775107299909,251.47565649985336,None,None,251.47565649985336,None,252.2701832599705,None,,,,21010,0001,2022_Aug_11_1156,localizer,2021.1.3,60.02829737315806,
block,scenes,scenes053.bmp,,,,,0,48,48,48,,,,,,,,,,,,,,,,,,,,,,,,,,,,,,,,,,,,,,,,,,None,,252.2701832599705,None,252.2701832599705,None,2022-08-11-12:00:34.809108,252.2827448998578,252.58557730005123,252.2827448998578,None,None,252.2827448998578,None,253.0855264599668,None,,,,21010,0001,2022_Aug_11_1156,localizer,2021.1.3,60.02829737315806,
block,scenes,scenes047.bmp,,,,,0,49,49,49,,,,,,,,,,,,,,,,,,,,,,,,,,,,,,,,,,,,,,,,,,None,,253.0855264599668,None,253.0855264599668,None,2022-08-11-12:00:35.623576,253.09458609996364,253.4021191999782,253.09458609996364,None,None,253.09458609996364,None,253.90258305997122,None,,,,21010,0001,2022_Aug_11_1156,localizer,2021.1.3,60.02829737315806,
block,scenes,scenes018.bmp,,,,,0,50,50,50,,,,,,,,,,,,,,,,,,,,,,,,,,,,,,,,,,,,,,,,,,None,,253.90258305997122,None,253.90258305997122,None,2022-08-11-12:00:36.440347,253.91358629986644,254.22155499993823,253.91358629986644,None,None,253.91358629986644,None,254.72030056000222,None,,,,21010,0001,2022_Aug_11_1156,localizer,2021.1.3,60.02829737315806,
block,scenes,scenes042.bmp,,,,,0,51,51,51,,,,,,,,,,,,,,,,,,,,,,,,,,,,,,,,,,,,,,,,,,None,,254.72030056000222,None,254.72030056000222,None,2022-08-11-12:00:37.259046,254.73253809986636,255.0356741999276,254.73253809986636,None,None,254.73253809986636,None,255.53554835997056,None,,,,21010,0001,2022_Aug_11_1156,localizer,2021.1.3,60.02829737315806,
block,scenes,scenes019.bmp,,,,,0,52,52,52,,,,,,,,,,,,,,,,,,,,,,,,,,,,,,,,,,,,,,,,,,None,,255.53554835997056,None,255.53554835997056,None,2022-08-11-12:00:38.073767,255.54536259989254,255.85207979986444,255.54536259989254,None,None,255.54536259989254,None,256.35274555988144,None,,,,21010,0001,2022_Aug_11_1156,localizer,2021.1.3,60.02829737315806,
block,scenes,scenes010.bmp,,,,,0,53,53,53,,,,,,,,,,,,,,,,,,,,,,,,,,,,,,,,,,,,,,,,,,None,,256.35274555988144,None,256.35274555988144,None,2022-08-11-12:00:38.890664,256.3635631999932,256.6687673998531,256.3635631999932,None,None,256.3635631999932,None,257.16005066002253,None,,,,21010,0001,2022_Aug_11_1156,localizer,2021.1.3,60.02829737315806,
block,scenes,scenes051.bmp,,,,,0,54,54,54,,,,,,,,,,,,,,,,,,,,,,,,,,,,,,,,,,,,,,,,,,None,,257.16005066002253,None,257.16005066002253,None,2022-08-11-12:00:39.703836,257.1764656000305,257.4710256999824,257.1764656000305,None,None,257.1764656000305,None,257.96911116002593,None,,,,21010,0001,2022_Aug_11_1156,localizer,2021.1.3,60.02829737315806,
block,scenes,scenes055.bmp,,,,,0,55,55,55,,,,,,,,,,,,,,,,,,,,,,,,,,,,,,,,,,,,,,,,,,None,,257.96911116002593,None,257.96911116002593,None,2022-08-11-12:00:40.507018,257.9803249000106,258.2853150998708,257.9803249000106,None,None,257.9803249000106,None,258.78687956009526,None,,,,21010,0001,2022_Aug_11_1156,localizer,2021.1.3,60.02829737315806,
block,scenes,scenes011.bmp,,,,,0,56,56,56,,,,,,,,,,,,,,,,,,,,,,,,,,,,,,,,,,,,,,,,,,None,,258.78687956009526,None,258.78687956009526,None,2022-08-11-12:00:41.325621,258.79930319986306,259.10243789991364,258.79930319986306,None,None,258.79930319986306,None,259.60273725993466,None,,,,21010,0001,2022_Aug_11_1156,localizer,2021.1.3,60.02829737315806,
block,scenes,scenes041.bmp,,,,,0,57,57,57,,,,,,,,,,,,,,,,,,,,,,,,,,,,,,,,,,,,,,,,,,None,,259.60273725993466,None,259.60273725993466,None,2022-08-11-12:00:42.140498,259.6135197998956,259.9191000999417,259.6135197998956,None,None,259.6135197998956,None,260.4191551600816,None,,,,21010,0001,2022_Aug_11_1156,localizer,2021.1.3,60.02829737315806,
block,scenes,scenes086.bmp,,,,,0,58,58,58,,,,,,,,,,,,,,,,,,,,,,,,,,,,,,,,,,,,,,,,,,None,,260.4191551600816,None,260.4191551600816,None,2022-08-11-12:00:42.956921,260.4294535999652,260.7356696999632,260.4294535999652,None,None,260.4294535999652,None,261.2356753599597,None,,,,21010,0001,2022_Aug_11_1156,localizer,2021.1.3,60.02829737315806,
block,scenes,scenes062.bmp,,,,,0,59,59,59,,,,,,,,,,,,,,,,,,,,,,,,,,,,,,,,,,,,,,,,,,None,,261.2356753599597,None,261.2356753599597,None,2022-08-11-12:00:43.773811,261.24864850007,261.55249259993434,261.24864850007,None,None,261.24864850007,None,262.0523657599697,None,,,,21010,0001,2022_Aug_11_1156,localizer,2021.1.3,60.02829737315806,
block_end,scenes,scenes033.bmp,,,,,0,60,60,60,,,,,,,,,,,,,,,,,,,,,,,,,,,,,,,,,,,,,,,,,,None,,262.0523657599697,None,262.0523657599697,None,2022-08-11-12:00:44.590132,262.06180669995956,262.36909729987383,262.06180669995956,None,None,262.06180669995956,None,262.86920515995007,None,,,,21010,0001,2022_Aug_11_1156,localizer,2021.1.3,60.02829737315806,
null_block,null_block,null_block.bmp,,,,,0,61,61,61,,,,,,,,,,,,,,,,,,,,,,,,,,,,,,,,,,,,,,,,,,t,1.7493163000326604,262.86905459989794,None,262.86905459989794,None,2022-08-11-12:00:47.172593,264.6358236599481,None,264.6358236599481,None,None,264.6358236599481,None,264.63821620005183,None,,,,21010,0001,2022_Aug_11_1156,localizer,2021.1.3,60.02829737315806,
block_start,objects,objects057.bmp,,,,,0,62,62,62,,,,,,,,,,,,,,,,,,,,,,,,,,,,,,,,,,,,,,,,,,t,1.9649118999950588,276.65250939992256,None,276.65250939992256,None,2022-08-11-12:01:01.178011,278.6458229999989,278.95250519993715,278.6458229999989,None,None,278.6458229999989,None,279.4525434599491,None,,,,21010,0001,2022_Aug_11_1156,localizer,2021.1.3,60.02829737315806,
block,objects,objects016.bmp,,,,,0,63,63,63,,,,,,,,,,,,,,,,,,,,,,,,,,,,,,,,,,,,,,,,,,None,,279.4525434599491,None,279.4525434599491,None,2022-08-11-12:01:01.990306,279.4626031999942,279.7688529000152,279.4626031999942,None,None,279.4626031999942,None,280.26924935996067,None,,,,21010,0001,2022_Aug_11_1156,localizer,2021.1.3,60.02829737315806,
block,objects,objects009.bmp,,,,,0,64,64,64,,,,,,,,,,,,,,,,,,,,,,,,,,,,,,,,,,,,,,,,,,None,,280.26924935996067,None,280.26924935996067,None,2022-08-11-12:01:02.807240,280.2700256998651,280.5692884000018,280.2700256998651,None,None,280.2700256998651,None,281.06949225987773,None,,,,21010,0001,2022_Aug_11_1156,localizer,2021.1.3,60.02829737315806,
block,objects,objects046.bmp,,,,,0,65,65,65,,,,,,,,,,,,,,,,,,,,,,,,,,,,,,,,,,,,,,,,,,None,,281.06949225987773,None,281.06949225987773,None,2022-08-11-12:01:03.609481,281.0815789999906,281.3857050000224,281.0815789999906,281.0815789999906,None,281.0815789999906,281.0815789999906,281.88609585992526,None,,,,21010,0001,2022_Aug_11_1156,localizer,2021.1.3,60.02829737315806,
block,objects,objects082.bmp,,,,,0,66,66,66,,,,,,,,,,,,,,,,,,,,,,,,,,,,,,,,,,,,,,,,,,None,,281.88609585992526,None,281.88609585992526,None,2022-08-11-12:01:04.423856,281.88678919989616,282.18624170008115,281.88678919989616,None,None,281.88678919989616,None,282.70240535994526,None,,,,21010,0001,2022_Aug_11_1156,localizer,2021.1.3,60.02829737315806,
block,objects,objects043.bmp,,,,,0,67,67,67,,,,,,,,,,,,,,,,,,,,,,,,,,,,,,,,,,,,,,,,,,None,,282.70240535994526,None,282.70240535994526,None,2022-08-11-12:01:05.240178,282.7033939000685,283.01925939996727,282.7033939000685,None,None,282.7033939000685,None,283.5036413600901,None,,,,21010,0001,2022_Aug_11_1156,localizer,2021.1.3,60.02829737315806,
block,objects,objects066.bmp,,,,,0,68,68,68,,,,,,,,,,,,,,,,,,,,,,,,,,,,,,,,,,,,,,,,,,None,,283.5036413600901,None,283.5036413600901,None,2022-08-11-12:01:06.046475,283.51999579998665,283.8192847999744,283.51999579998665,283.51999579998665,None,283.51999579998665,283.51999579998665,284.319228259963,None,,,,21010,0001,2022_Aug_11_1156,localizer,2021.1.3,60.02829737315806,
block,objects,objects073.bmp,,,,,0,69,69,69,,,,,,,,,,,,,,,,,,,,,,,,,,,,,,,,,,,,,,,,,,None,,284.319228259963,None,284.319228259963,None,2022-08-11-12:01:06.856995,284.3293075999245,284.63590390002355,284.3293075999245,None,None,284.3293075999245,None,285.1357798600802,None,,,,21010,0001,2022_Aug_11_1156,localizer,2021.1.3,60.02829737315806,
block,objects,objects022.bmp,,,,,0,70,70,70,,,,,,,,,,,,,,,,,,,,,,,,,,,,,,,,,,,,,,,,,,None,,285.1357798600802,None,285.1357798600802,None,2022-08-11-12:01:07.673644,285.1457360999193,285.4525947999209,285.1457360999193,None,None,285.1457360999193,None,285.9525059600128,None,,,,21010,0001,2022_Aug_11_1156,localizer,2021.1.3,60.02829737315806,
block,objects,objects050.bmp,,,,,0,71,71,71,,,,,,,,,,,,,,,,,,,,,,,,,,,,,,,,,,,,,,,,,,None,,285.9525059600128,None,285.9525059600128,None,2022-08-11-12:01:08.490273,285.961993600009,286.26898030005395,285.961993600009,None,None,285.961993600009,None,286.76930115988944,None,,,,21010,0001,2022_Aug_11_1156,localizer,2021.1.3,60.02829737315806,
block,objects,objects068.bmp,,,,,0,72,72,72,,,,,,,,,,,,,,,,,,,,,,,,,,,,,,,,,,,,,,,,,,None,,286.76930115988944,None,286.76930115988944,None,2022-08-11-12:01:09.307065,286.77516769990325,287.08581699989736,286.77516769990325,None,None,286.77516769990325,None,287.5858795599779,None,,,,21010,0001,2022_Aug_11_1156,localizer,2021.1.3,60.02829737315806,
block,objects,objects039.bmp,,,,,0,73,73,73,,,,,,,,,,,,,,,,,,,,,,,,,,,,,,,,,,,,,,,,,,None,,287.5858795599779,None,287.5858795599779,None,2022-08-11-12:01:10.123646,287.59602380008437,287.90299379988573,287.59602380008437,None,None,287.59602380008437,None,288.39191726001445,None,,,,21010,0001,2022_Aug_11_1156,localizer,2021.1.3,60.02829737315806,
block,objects,objects087.bmp,,,,,0,74,74,74,,,,,,,,,,,,,,,,,,,,,,,,,,,,,,,,,,,,,,,,,,None,,288.39191726001445,None,288.39191726001445,None,2022-08-11-12:01:10.929691,288.40085470001213,288.70238259993494,288.40085470001213,None,None,288.40085470001213,None,289.2026329600485,None,,,,21010,0001,2022_Aug_11_1156,localizer,2021.1.3,60.02829737315806,
block,objects,objects049.bmp,,,,,0,75,75,75,,,,,,,,,,,,,,,,,,,,,,,,,,,,,,,,,,,,,,,,,,None,,289.2026329600485,None,289.2026329600485,None,2022-08-11-12:01:11.740626,289.2127797999419,289.51903570001014,289.2127797999419,None,None,289.2127797999419,None,290.02568376006093,None,,,,21010,0001,2022_Aug_11_1156,localizer,2021.1.3,60.02829737315806,
block_end,objects,objects049.bmp,,,,,0,76,76,76,,,,,,,,,,,,,,,,,,,,,,,,,,,,,,,,,,,,,,,,,,None,,290.02568376006093,None,290.02568376006093,None,2022-08-11-12:01:12.570753,290.032141600037,290.33586829993874,290.032141600037,None,y,290.032141600037,None,290.83643936004955,None,0.6070098001509905,,,21010,0001,2022_Aug_11_1156,localizer,2021.1.3,60.02829737315806,
block_start,scrambled,scrambled066.bmp,,,,,0,77,77,77,,,,,,,,,,,,,,,,,,,,,,,,,,,,,,,,,,,,,,,,,,t,1.7810752000659704,290.8364214999601,None,290.8364214999601,None,2022-08-11-12:01:15.173435,292.6444852000568,292.95278719998896,292.6444852000568,None,None,292.6444852000568,None,293.4529754599789,None,,,,21010,0001,2022_Aug_11_1156,localizer,2021.1.3,60.02829737315806,
block,scrambled,scrambled061.bmp,,,,,0,78,78,78,,,,,,,,,,,,,,,,,,,,,,,,,,,,,,,,,,,,,,,,,,None,,293.4529754599789,None,293.4529754599789,None,2022-08-11-12:01:15.990730,293.46370860002935,293.7719459000509,293.46370860002935,None,None,293.46370860002935,None,294.2695022599073,None,,,,21010,0001,2022_Aug_11_1156,localizer,2021.1.3,60.02829737315806,
block,scrambled,scrambled020.bmp,,,,,0,79,79,79,,,,,,,,,,,,,,,,,,,,,,,,,,,,,,,,,,,,,,,,,,None,,294.2695022599073,None,294.2695022599073,None,2022-08-11-12:01:16.807267,294.2700845999643,294.5695106999483,294.2700845999643,None,None,294.2700845999643,None,295.0694822600344,None,,,,21010,0001,2022_Aug_11_1156,localizer,2021.1.3,60.02829737315806,
block,scrambled,scrambled076.bmp,,,,,0,80,80,80,,,,,,,,,,,,,,,,,,,,,,,,,,,,,,,,,,,,,,,,,,None,,295.0694822600344,None,295.0694822600344,None,2022-08-11-12:01:17.609243,295.08139099995606,295.38613880006596,295.08139099995606,295.08139099995606,None,295.08139099995606,295.08139099995606,295.88545096002053,None,,,,21010,0001,2022_Aug_11_1156,localizer,2021.1.3,60.02829737315806,
block,scrambled,scrambled043.bmp,,,,,0,81,81,81,,,,,,,,,,,,,,,,,,,,,,,,,,,,,,,,,,,,,,,,,,None,,295.88545096002053,None,295.88545096002053,None,2022-08-11-12:01:18.423220,295.887027699966,296.2025055999402,295.887027699966,None,None,295.887027699966,None,296.6860729599139,None,,,,21010,0001,2022_Aug_11_1156,localizer,2021.1.3,60.02829737315806,
block,scrambled,scrambled058.bmp,,,,,0,82,82,82,,,,,,,,,,,,,,,,,,,,,,,,,,,,,,,,,,,,,,,,,,None,,296.6860729599139,None,296.6860729599139,None,2022-08-11-12:01:19.224837,296.6963241000194,297.0022772999946,296.6963241000194,296.6963241000194,None,296.6963241000194,296.6963241000194,297.5024983600015,None,,,,21010,0001,2022_Aug_11_1156,localizer,2021.1.3,60.02829737315806,
block,scrambled,scrambled080.bmp,,,,,0,83,83,83,,,,,,,,,,,,,,,,,,,,,,,,,,,,,,,,,,,,,,,,,,None,,297.5024983600015,None,297.5024983600015,None,2022-08-11-12:01:20.040344,297.5074801999144,297.81936149997637,297.5074801999144,None,None,297.5074801999144,None,298.3193884600187,None,,,,21010,0001,2022_Aug_11_1156,localizer,2021.1.3,60.02829737315806,
block,scrambled,scrambled003.bmp,,,,,0,84,84,84,,,,,,,,,,,,,,,,,,,,,,,,,,,,,,,,,,,,,,,,,,None,,298.3193884600187,None,298.3193884600187,None,2022-08-11-12:01:20.857155,298.32002929993905,298.619488599943,298.32002929993905,None,None,298.32002929993905,None,299.1191908599576,None,,,,21010,0001,2022_Aug_11_1156,localizer,2021.1.3,60.02829737315806,
block,scrambled,scrambled062.bmp,,,,,0,85,85,85,,,,,,,,,,,,,,,,,,,,,,,,,,,,,,,,,,,,,,,,,,None,,299.1191908599576,None,299.1191908599576,None,2022-08-11-12:01:21.658174,299.12915469985455,299.4422232999932,299.12915469985455,299.12915469985455,None,299.12915469985455,299.12915469985455,299.93648576003034,None,,,,21010,0001,2022_Aug_11_1156,localizer,2021.1.3,60.02829737315806,
block,scrambled,scrambled079.bmp,,,,,0,86,86,86,,,,,,,,,,,,,,,,,,,,,,,,,,,,,,,,,,,,,,,,,,None,,299.93648576003034,None,299.93648576003034,None,2022-08-11-12:01:22.475428,299.9374390000012,300.2526173000224,299.9374390000012,None,None,299.9374390000012,None,300.75270335993264,None,,,,21010,0001,2022_Aug_11_1156,localizer,2021.1.3,60.02829737315806,
block,scrambled,scrambled015.bmp,,,,,0,87,87,87,,,,,,,,,,,,,,,,,,,,,,,,,,,,,,,,,,,,,,,,,,None,,300.75270335993264,None,300.75270335993264,None,2022-08-11-12:01:23.290466,300.7534383998718,301.0525062000379,300.7534383998718,None,None,300.7534383998718,None,301.5525890599238,None,,,,21010,0001,2022_Aug_11_1156,localizer,2021.1.3,60.02829737315806,
block,scrambled,scrambled044.bmp,,,,,0,88,88,88,,,,,,,,,,,,,,,,,,,,,,,,,,,,,,,,,,,,,,,,,,None,,301.5525890599238,None,301.5525890599238,None,2022-08-11-12:01:24.092348,301.5537433999125,301.85519919986837,301.5537433999125,301.5537433999125,None,301.5537433999125,301.5537433999125,302.3691241600318,None,,,,21010,0001,2022_Aug_11_1156,localizer,2021.1.3,60.02829737315806,
block,scrambled,scrambled065.bmp,,,,,0,89,89,89,,,,,,,,,,,,,,,,,,,,,,,,,,,,,,,,,,,,,,,,,,None,,302.3691241600318,None,302.3691241600318,None,2022-08-11-12:01:24.906892,302.3703767999541,302.6858912999742,302.3703767999541,None,None,302.3703767999541,None,303.1694292599568,None,,,,21010,0001,2022_Aug_11_1156,localizer,2021.1.3,60.02829737315806,
block,scrambled,scrambled035.bmp,,,,,0,90,90,90,,,,,,,,,,,,,,,,,,,,,,,,,,,,,,,,,,,,,,,,,,None,,303.1694292599568,None,303.1694292599568,None,2022-08-11-12:01:25.709187,303.18139289994724,303.48584520001896,303.18139289994724,303.18139289994724,None,303.18139289994724,303.18139289994724,303.98611176002305,None,,,,21010,0001,2022_Aug_11_1156,localizer,2021.1.3,60.02829737315806,
block_end,scrambled,scrambled011.bmp,,,,,0,91,91,91,,,,,,,,,,,,,,,,,,,,,,,,,,,,,,,,,,,,,,,,,,None,,303.98611176002305,None,303.98611176002305,None,2022-08-11-12:01:26.523896,303.9962937999517,304.30245930003,303.9962937999517,None,None,303.9962937999517,None,304.80242086004,None,,,,21010,0001,2022_Aug_11_1156,localizer,2021.1.3,60.02829737315806,
block_start,scenes,scenes027.bmp,,,,,0,92,92,92,,,,,,,,,,,,,,,,,,,,,,,,,,,,,,,,,,,,,,,,,,t,1.814855800010264,304.80252370005473,None,304.80252370005473,None,2022-08-11-12:01:29.175416,306.64870049990714,306.95253970008343,306.64870049990714,None,None,306.64870049990714,None,307.4528315599309,None,,,,21010,0001,2022_Aug_11_1156,localizer,2021.1.3,60.02829737315806,
block,scenes,scenes011.bmp,,,,,0,93,93,93,,,,,,,,,,,,,,,,,,,,,,,,,,,,,,,,,,,,,,,,,,None,,307.4528315599309,None,307.4528315599309,None,2022-08-11-12:01:29.990624,307.45382669987157,307.7695387999993,307.45382669987157,None,None,307.45382669987157,None,308.253001959878,None,,,,21010,0001,2022_Aug_11_1156,localizer,2021.1.3,60.02829737315806,
block,scenes,scenes023.bmp,,,,,0,94,94,94,,,,,,,,,,,,,,,,,,,,,,,,,,,,,,,,,,,,,,,,,,None,,308.253001959878,None,308.253001959878,None,2022-08-11-12:01:30.792170,308.2636981999967,308.56941100000404,308.2636981999967,308.2636981999967,None,308.2636981999967,308.2636981999967,309.06950236007106,None,,,,21010,0001,2022_Aug_11_1156,localizer,2021.1.3,60.02829737315806,
block,scenes,scenes078.bmp,,,,,0,95,95,95,,,,,,,,,,,,,,,,,,,,,,,,,,,,,,,,,,,,,,,,,,None,,309.06950236007106,None,309.06950236007106,None,2022-08-11-12:01:31.606275,309.0787696999032,309.3857936998829,309.0787696999032,None,None,309.0787696999032,None,309.88731736002956,None,,,,21010,0001,2022_Aug_11_1156,localizer,2021.1.3,60.02829737315806,
block,scenes,scenes021.bmp,,,,,0,96,96,96,,,,,,,,,,,,,,,,,,,,,,,,,,,,,,,,,,,,,,,,,,None,,309.88731736002956,None,309.88731736002956,None,2022-08-11-12:01:32.426174,309.9002660000697,310.20290079992265,309.9002660000697,None,None,309.9002660000697,None,310.7026479599299,None,,,,21010,0001,2022_Aug_11_1156,localizer,2021.1.3,60.02829737315806,
block,scenes,scenes049.bmp,,,,,0,97,97,97,,,,,,,,,,,,,,,,,,,,,,,,,,,,,,,,,,,,,,,,,,None,,310.7026479599299,None,310.7026479599299,None,2022-08-11-12:01:33.240414,310.71261289995164,311.0192996999249,310.71261289995164,None,None,310.71261289995164,None,311.51943086006213,None,,,,21010,0001,2022_Aug_11_1156,localizer,2021.1.3,60.02829737315806,
block,scenes,scenes042.bmp,,,,,0,98,98,98,,,,,,,,,,,,,,,,,,,,,,,,,,,,,,,,,,,,,,,,,,None,,311.51943086006213,None,311.51943086006213,None,2022-08-11-12:01:34.057194,311.52030109986663,311.8359268999193,311.52030109986663,None,None,311.52030109986663,None,312.3358578599291,None,,,,21010,0001,2022_Aug_11_1156,localizer,2021.1.3,60.02829737315806,
block,scenes,scenes070.bmp,,,,,0,99,99,99,,,,,,,,,,,,,,,,,,,,,,,,,,,,,,,,,,,,,,,,,,None,,312.3358578599291,None,312.3358578599291,None,2022-08-11-12:01:34.873627,312.3454203000292,312.65259559988044,312.3454203000292,None,None,312.3454203000292,None,313.15890285989735,None,,,,21010,0001,2022_Aug_11_1156,localizer,2021.1.3,60.02829737315806,
block,scenes,scenes008.bmp,,,,,0,100,100,100,,,,,,,,,,,,,,,,,,,,,,,,,,,,,,,,,,,,,,,,,,None,,313.15890285989735,None,313.15890285989735,None,2022-08-11-12:01:35.703569,313.17761959997006,313.48590049985796,313.17761959997006,None,None,313.17761959997006,None,313.9696374599589,None,,,,21010,0001,2022_Aug_11_1156,localizer,2021.1.3,60.02829737315806,
block,scenes,scenes019.bmp,,,,,0,101,101,101,,,,,,,,,,,,,,,,,,,,,,,,,,,,,,,,,,,,,,,,,,None,,313.9696374599589,None,313.9696374599589,None,2022-08-11-12:01:36.507651,313.9704336000141,314.27635739999823,313.9704336000141,None,None,313.9704336000141,None,314.7857622600859,None,,,,21010,0001,2022_Aug_11_1156,localizer,2021.1.3,60.02829737315806,
block,scenes,scenes079.bmp,,,,,0,102,102,102,,,,,,,,,,,,,,,,,,,,,,,,,,,,,,,,,,,,,,,,,,None,,314.7857622600859,None,314.7857622600859,None,2022-08-11-12:01:37.323757,314.79593999986537,315.10253929998726,314.79593999986537,None,None,314.79593999986537,None,315.60248625988606,None,,,,21010,0001,2022_Aug_11_1156,localizer,2021.1.3,60.02829737315806,
block,scenes,scenes048.bmp,,,,,0,103,103,103,,,,,,,,,,,,,,,,,,,,,,,,,,,,,,,,,,,,,,,,,,None,,315.60248625988606,None,315.60248625988606,None,2022-08-11-12:01:38.139260,315.6124656999018,315.9195189999882,315.6124656999018,None,None,315.6124656999018,None,316.4205467599677,None,,,,21010,0001,2022_Aug_11_1156,localizer,2021.1.3,60.02829737315806,
block,scenes,scenes005.bmp,,,,,0,104,104,104,,,,,,,,,,,,,,,,,,,,,,,,,,,,,,,,,,,,,,,,,,None,,316.4205467599677,None,316.4205467599677,None,2022-08-11-12:01:38.960469,316.4328200998716,316.7397364999633,316.4328200998716,None,None,316.4328200998716,None,317.2367956599919,None,,,,21010,0001,2022_Aug_11_1156,localizer,2021.1.3,60.02829737315806,
block,scenes,scenes040.bmp,,,,,0,105,105,105,,,,,,,,,,,,,,,,,,,,,,,,,,,,,,,,,,,,,,,,,,None,,317.2367956599919,None,317.2367956599919,None,2022-08-11-12:01:39.775734,317.2485616998747,317.5527275998611,317.2485616998747,None,None,317.2485616998747,None,318.05283596005756,None,,,,21010,0001,2022_Aug_11_1156,localizer,2021.1.3,60.02829737315806,
block_end,scenes,scenes065.bmp,,,,,0,106,106,106,,,,,,,,,,,,,,,,,,,,,,,,,,,,,,,,,,,,,,,,,,None,,318.05283596005756,None,318.05283596005756,None,2022-08-11-12:01:40.590633,318.06218419992365,318.3691169999074,318.06218419992365,None,None,318.06218419992365,None,318.8706174598774,None,,,,21010,0001,2022_Aug_11_1156,localizer,2021.1.3,60.02829737315806,
block_start,faces,faces072.bmp,,,,,0,107,107,107,,,,,,,,,,,,,,,,,,,,,,,,,,,,,,,,,,,,,,,,,,t,1.7467076000757515,318.8706280000042,None,318.8706280000042,None,2022-08-11-12:01:43.173700,320.6462834998965,320.9526990999002,320.6462834998965,None,None,320.6462834998965,None,321.4529366599163,None,,,,21010,0001,2022_Aug_11_1156,localizer,2021.1.3,60.02829737315806,
block,faces,faces011.bmp,,,,,0,108,108,108,,,,,,,,,,,,,,,,,,,,,,,,,,,,,,,,,,,,,,,,,,None,,321.4529366599163,None,321.4529366599163,None,2022-08-11-12:01:43.990913,321.4640911000315,321.7763753000181,321.4640911000315,None,None,321.4640911000315,None,322.27067036007065,None,,,,21010,0001,2022_Aug_11_1156,localizer,2021.1.3,60.02829737315806,
block,faces,faces037.bmp,,,,,0,109,109,109,,,,,,,,,,,,,,,,,,,,,,,,,,,,,,,,,,,,,,,,,,None,,322.27067036007065,None,322.27067036007065,None,2022-08-11-12:01:44.809588,322.27287589991465,322.5867014999967,322.27287589991465,None,None,322.27287589991465,None,323.0868068599375,None,,,,21010,0001,2022_Aug_11_1156,localizer,2021.1.3,60.02829737315806,
block,faces,faces051.bmp,,,,,0,110,110,110,,,,,,,,,,,,,,,,,,,,,,,,,,,,,,,,,,,,,,,,,,None,,323.0868068599375,None,323.0868068599375,None,2022-08-11-12:01:45.625750,323.10002740006894,323.40244939993136,323.10002740006894,None,None,323.10002740006894,None,323.9026434599655,None,,,,21010,0001,2022_Aug_11_1156,localizer,2021.1.3,60.02829737315806,
block,faces,faces042.bmp,,,,,0,111,111,111,,,,,,,,,,,,,,,,,,,,,,,,,,,,,,,,,,,,,,,,,,None,,323.9026434599655,None,323.9026434599655,None,2022-08-11-12:01:46.440407,323.91206709994003,324.2195216000546,323.91206709994003,None,None,323.91206709994003,None,324.719492860022,None,,,,21010,0001,2022_Aug_11_1156,localizer,2021.1.3,60.02829737315806,
block,faces,faces083.bmp,,,,,0,112,112,112,,,,,,,,,,,,,,,,,,,,,,,,,,,,,,,,,,,,,,,,,,None,,324.719492860022,None,324.719492860022,None,2022-08-11-12:01:47.257258,324.7293892998714,325.03590509993955,324.7293892998714,None,None,324.7293892998714,None,325.53615726006683,None,,,,21010,0001,2022_Aug_11_1156,localizer,2021.1.3,60.02829737315806,
block,faces,faces017.bmp,,,,,0,113,113,113,,,,,,,,,,,,,,,,,,,,,,,,,,,,,,,,,,,,,,,,,,None,,325.53615726006683,None,325.53615726006683,None,2022-08-11-12:01:48.073925,325.54595369985327,325.8527825998608,325.54595369985327,None,None,325.54595369985327,None,326.35311235988047,None,,,,21010,0001,2022_Aug_11_1156,localizer,2021.1.3,60.02829737315806,
block,faces,faces074.bmp,,,,,0,114,114,114,,,,,,,,,,,,,,,,,,,,,,,,,,,,,,,,,,,,,,,,,,None,,326.35311235988047,None,326.35311235988047,None,2022-08-11-12:01:48.890875,326.36097069992684,326.6694855999667,326.36097069992684,None,None,326.36097069992684,None,327.1690243600169,None,,,,21010,0001,2022_Aug_11_1156,localizer,2021.1.3,60.02829737315806,
block,faces,faces071.bmp,,,,,0,115,115,115,,,,,,,,,,,,,,,,,,,,,,,,,,,,,,,,,,,,,,,,,,None,,327.1690243600169,None,327.1690243600169,None,2022-08-11-12:01:49.706795,327.1786571999546,327.4861041000113,327.1786571999546,None,None,327.1786571999546,None,327.98610606009606,None,,,,21010,0001,2022_Aug_11_1156,localizer,2021.1.3,60.02829737315806,
block,faces,faces050.bmp,,,,,0,116,116,116,,,,,,,,,,,,,,,,,,,,,,,,,,,,,,,,,,,,,,,,,,None,,327.98610606009606,None,327.98610606009606,None,2022-08-11-12:01:50.524028,327.99603919987567,328.3028700000141,327.99603919987567,None,None,327.99603919987567,None,328.80293345998507,None,,,,21010,0001,2022_Aug_11_1156,localizer,2021.1.3,60.02829737315806,
block,faces,faces068.bmp,,,,,0,117,117,117,,,,,,,,,,,,,,,,,,,,,,,,,,,,,,,,,,,,,,,,,,None,,328.80293345998507,None,328.80293345998507,None,2022-08-11-12:01:51.340692,328.8141040999908,329.11926469998434,328.8141040999908,None,None,328.8141040999908,None,329.62059325992595,None,,,,21010,0001,2022_Aug_11_1156,localizer,2021.1.3,60.02829737315806,
block,faces,faces030.bmp,,,,,0,118,118,118,,,,,,,,,,,,,,,,,,,,,,,,,,,,,,,,,,,,,,,,,,None,,329.62059325992595,None,329.62059325992595,None,2022-08-11-12:01:52.159318,329.6341452000197,329.9362160000019,329.6341452000197,None,None,329.6341452000197,None,330.43685025989544,None,,,,21010,0001,2022_Aug_11_1156,localizer,2021.1.3,60.02829737315806,
block,faces,faces010.bmp,,,,,0,119,119,119,,,,,,,,,,,,,,,,,,,,,,,,,,,,,,,,,,,,,,,,,,None,,330.43685025989544,None,330.43685025989544,None,2022-08-11-12:01:52.975602,330.4457590999082,330.75250869989395,330.4457590999082,None,None,330.4457590999082,None,331.25270355993416,None,,,,21010,0001,2022_Aug_11_1156,localizer,2021.1.3,60.02829737315806,
block,faces,faces059.bmp,,,,,0,120,120,120,,,,,,,,,,,,,,,,,,,,,,,,,,,,,,,,,,,,,,,,,,None,,331.25270355993416,None,331.25270355993416,None,2022-08-11-12:01:53.790473,331.26209950004704,331.5692968000658,331.26209950004704,None,None,331.26209950004704,None,332.069366460084,None,,,,21010,0001,2022_Aug_11_1156,localizer,2021.1.3,60.02829737315806,
block_end,faces,faces045.bmp,,,,,0,121,121,121,,,,,,,,,,,,,,,,,,,,,,,,,,,,,,,,,,,,,,,,,,None,,332.069366460084,None,332.069366460084,None,2022-08-11-12:01:54.607136,332.07050899998285,332.3862232998945,332.07050899998285,None,None,332.07050899998285,None,332.885910259909,None,,,,21010,0001,2022_Aug_11_1156,localizer,2021.1.3,60.02829737315806,
block_start,objects,objects028.bmp,,,,,0,122,122,122,,,,,,,,,,,,,,,,,,,,,,,,,,,,,,,,,,,,,,,,,,t,1.7310673999600112,332.88628059998155,None,332.88628059998155,None,2022-08-11-12:01:57.175541,334.648833299987,334.9526013999712,334.648833299987,None,None,334.648833299987,None,335.45343305997085,None,,,,21010,0001,2022_Aug_11_1156,localizer,2021.1.3,60.02829737315806,
block,objects,objects059.bmp,,,,,0,123,123,123,,,,,,,,,,,,,,,,,,,,,,,,,,,,,,,,,,,,,,,,,,None,,335.45343305997085,None,335.45343305997085,None,2022-08-11-12:01:57.991188,335.4631087000016,335.7694369000383,335.4631087000016,None,None,335.4631087000016,None,336.2760149600217,None,,,,21010,0001,2022_Aug_11_1156,localizer,2021.1.3,60.02829737315806,
block,objects,objects069.bmp,,,,,0,124,124,124,,,,,,,,,,,,,,,,,,,,,,,,,,,,,,,,,,,,,,,,,,None,,336.2760149600217,None,336.2760149600217,None,2022-08-11-12:01:58.819204,336.2902641999535,336.60296260006726,336.2902641999535,None,None,336.2902641999535,None,337.08682875998784,None,,,,21010,0001,2022_Aug_11_1156,localizer,2021.1.3,60.02829737315806,
block,objects,objects020.bmp,,,,,0,125,125,125,,,,,,,,,,,,,,,,,,,,,,,,,,,,,,,,,,,,,,,,,,None,,337.08682875998784,None,337.08682875998784,None,2022-08-11-12:01:59.626229,337.0985057000071,337.40284839994274,337.0985057000071,None,None,337.0985057000071,None,337.9026574600721,None,,,,21010,0001,2022_Aug_11_1156,localizer,2021.1.3,60.02829737315806,
block,objects,objects014.bmp,,,,,0,126,126,126,,,,,,,,,,,,,,,,,,,,,,,,,,,,,,,,,,,,,,,,,,None,,337.9026574600721,None,337.9026574600721,None,2022-08-11-12:02:00.440027,337.91114289988764,338.2194836998824,337.91114289988764,None,None,337.91114289988764,None,338.71891786006745,None,,,,21010,0001,2022_Aug_11_1156,localizer,2021.1.3,60.02829737315806,
block,objects,objects085.bmp,,,,,0,127,127,127,,,,,,,,,,,,,,,,,,,,,,,,,,,,,,,,,,,,,,,,,,None,,338.71891786006745,None,338.71891786006745,None,2022-08-11-12:02:01.255581,338.7273416998796,339.0356773000676,338.7273416998796,None,None,338.7273416998796,None,339.525527259917,None,,,,21010,0001,2022_Aug_11_1156,localizer,2021.1.3,60.02829737315806,
block,objects,objects015.bmp,,,,,0,128,128,128,,,,,,,,,,,,,,,,,,,,,,,,,,,,,,,,,,,,,,,,,,None,,339.525527259917,None,339.525527259917,None,2022-08-11-12:02:02.067342,339.53847480006516,339.85250749997795,339.53847480006516,None,None,339.53847480006516,None,340.3369121599244,None,,,,21010,0001,2022_Aug_11_1156,localizer,2021.1.3,60.02829737315806,
block,objects,objects054.bmp,,,,,0,129,129,129,,,,,,,,,,,,,,,,,,,,,,,,,,,,,,,,,,,,,,,,,,None,,340.3369121599244,None,340.3369121599244,None,2022-08-11-12:02:02.876093,340.34877380006947,340.6528900000267,340.34877380006947,None,None,340.34877380006947,None,341.1528739599744,None,,,,21010,0001,2022_Aug_11_1156,localizer,2021.1.3,60.02829737315806,
block,objects,objects045.bmp,,,,,0,130,130,130,,,,,,,,,,,,,,,,,,,,,,,,,,,,,,,,,,,,,,,,,,None,,341.1528739599744,None,341.1528739599744,None,2022-08-11-12:02:03.689639,341.16038329992443,341.46921900007874,341.16038329992443,None,None,341.16038329992443,None,341.9698860599892,None,,,,21010,0001,2022_Aug_11_1156,localizer,2021.1.3,60.02829737315806,
block,objects,objects063.bmp,,,,,0,131,131,131,,,,,,,,,,,,,,,,,,,,,,,,,,,,,,,,,,,,,,,,,,None,,341.9698860599892,None,341.9698860599892,None,2022-08-11-12:02:04.507854,341.9800865999423,342.2861095999833,341.9800865999423,None,None,341.9800865999423,None,342.7859800598817,None,,,,21010,0001,2022_Aug_11_1156,localizer,2021.1.3,60.02829737315806,
block,objects,objects027.bmp,,,,,0,132,132,132,,,,,,,,,,,,,,,,,,,,,,,,,,,,,,,,,,,,,,,,,,None,,342.7859800598817,None,342.7859800598817,None,2022-08-11-12:02:05.324322,342.79481539991684,343.10290719987825,342.79481539991684,None,None,342.79481539991684,None,343.602591959876,None,,,,21010,0001,2022_Aug_11_1156,localizer,2021.1.3,60.02829737315806,
block,objects,objects023.bmp,,,,,0,133,133,133,,,,,,,,,,,,,,,,,,,,,,,,,,,,,,,,,,,,,,,,,,None,,343.602591959876,None,343.602591959876,None,2022-08-11-12:02:06.140359,343.6119679999538,343.9195862999186,343.6119679999538,None,None,343.6119679999538,None,344.4209726600675,None,,,,21010,0001,2022_Aug_11_1156,localizer,2021.1.3,60.02829737315806,
block,objects,objects010.bmp,,,,,0,134,134,134,,,,,,,,,,,,,,,,,,,,,,,,,,,,,,,,,,,,,,,,,,None,,344.4209726600675,None,344.4209726600675,None,2022-08-11-12:02:06.959699,344.43333789985627,344.736742899986,344.43333789985627,None,None,344.43333789985627,None,345.2365441600559,None,,,,21010,0001,2022_Aug_11_1156,localizer,2021.1.3,60.02829737315806,
block,objects,objects016.bmp,,,,,0,135,135,135,,,,,,,,,,,,,,,,,,,,,,,,,,,,,,,,,,,,,,,,,,None,,345.2365441600559,None,345.2365441600559,None,2022-08-11-12:02:07.774512,345.23712299996987,345.5528144000564,345.23712299996987,None,None,345.23712299996987,None,346.03648196009453,None,,,,21010,0001,2022_Aug_11_1156,localizer,2021.1.3,60.02829737315806,
block_end,objects,objects083.bmp,,,,,0,136,136,136,,,,,,,,,,,,,,,,,,,,,,,,,,,,,,,,,,,,,,,,,,None,,346.03648196009453,None,346.03648196009453,None,2022-08-11-12:02:08.576240,346.04831960005686,346.3532668999396,346.04831960005686,346.04831960005686,None,346.04831960005686,346.04831960005686,346.85414976009633,None,,,,21010,0001,2022_Aug_11_1156,localizer,2021.1.3,60.02829737315806,
null_block,null_block,null_block.bmp,,,,,0,137,137,137,,,,,,,,,,,,,,,,,,,,,,,,,,,,,,,,,,,,,,,,,,t,1.7632224999833852,346.85405069985427,None,346.85405069985427,None,2022-08-11-12:02:11.172446,348.6364693600917,None,348.6364693600917,None,None,348.6364693600917,None,348.64644409995526,None,,,,21010,0001,2022_Aug_11_1156,localizer,2021.1.3,60.02829737315806,
block_start,scenes,scenes056.bmp,,,,,0,138,138,138,,,,,,,,,,,,,,,,,,,,,,,,,,,,,,,,,,,,,,,,,,t,1.9639534000307322,360.65330999996513,None,360.65330999996513,None,2022-08-11-12:02:25.174509,362.64718039985746,362.9528818000108,362.64718039985746,None,None,362.64718039985746,None,363.4527638599975,None,,,,21010,0001,2022_Aug_11_1156,localizer,2021.1.3,60.02829737315806,
block,scenes,scenes065.bmp,,,,,0,139,139,139,,,,,,,,,,,,,,,,,,,,,,,,,,,,,,,,,,,,,,,,,,None,,363.4527638599975,None,363.4527638599975,None,2022-08-11-12:02:25.990729,363.45415070001036,363.7697238998953,363.45415070001036,None,None,363.45415070001036,None,364.26976115989964,None,,,,21010,0001,2022_Aug_11_1156,localizer,2021.1.3,60.02829737315806,
block,scenes,scenes065.bmp,,,,,0,140,140,140,,,,,,,,,,,,,,,,,,,,,,,,,,,,,,,,,,,,,,,,,,None,,364.26976115989964,None,364.26976115989964,None,2022-08-11-12:02:26.807781,364.2706242999993,364.5861359999981,364.2706242999993,None,None,364.2706242999993,None,365.07048966002185,None,,,,21010,0001,2022_Aug_11_1156,localizer,2021.1.3,60.02829737315806,
block,scenes,scenes068.bmp,,,,,0,141,141,141,,,,,,,,,,,,,,,,,,,,,,,,,,,,,,,,,,,,,,,,,,None,,365.07048966002185,None,365.07048966002185,None,2022-08-11-12:02:27.610451,365.0842289000284,365.38626449997537,365.0842289000284,365.0842289000284,None,365.0842289000284,365.0842289000284,365.8875660599442,None,,,,21010,0001,2022_Aug_11_1156,localizer,2021.1.3,60.02829737315806,
block,scenes,scenes085.bmp,,,,,0,142,142,142,,,,,,,,,,,,,,,,,,,,,,,,,,,,,,,,,,,,,,,,,,None,,365.8875660599442,None,365.8875660599442,None,2022-08-11-12:02:28.426312,365.89649539999664,366.20325680007227,365.89649539999664,None,None,365.89649539999664,None,366.7042797600152,None,,,,21010,0001,2022_Aug_11_1156,localizer,2021.1.3,60.02829737315806,
block,scenes,scenes081.bmp,,,,,0,143,143,143,,,,,,,,,,,,,,,,,,,,,,,,,,,,,,,,,,,,,,,,,,None,,366.7042797600152,None,366.7042797600152,None,2022-08-11-12:02:29.244387,366.7180920999963,367.0199078998994,366.7180920999963,None,None,366.7180920999963,None,367.5196836598916,None,,,,21010,0001,2022_Aug_11_1156,localizer,2021.1.3,60.02829737315806,
block,scenes,scenes070.bmp,,,,,0,144,144,144,,,,,,,,,,,,,,,,,,,,,,,,,,,,,,,,,,,,,,,,,,None,,367.5196836598916,None,367.5196836598916,None,2022-08-11-12:02:30.057451,367.5206532999873,367.8364414998796,367.5206532999873,None,None,367.5206532999873,None,368.31971816008445,None,,,,21010,0001,2022_Aug_11_1156,localizer,2021.1.3,60.02829737315806,
block,scenes,scenes038.bmp,,,,,0,145,145,145,,,,,,,,,,,,,,,,,,,,,,,,,,,,,,,,,,,,,,,,,,None,,368.31971816008445,None,368.31971816008445,None,2022-08-11-12:02:30.858485,368.3206666999031,368.6381339998916,368.3206666999031,368.3206666999031,None,368.3206666999031,368.3206666999031,369.11975326004904,None,,,,21010,0001,2022_Aug_11_1156,localizer,2021.1.3,60.02829737315806,
block,scenes,scenes061.bmp,,,,,0,146,146,146,,,,,,,,,,,,,,,,,,,,,,,,,,,,,,,,,,,,,,,,,,None,,369.11975326004904,None,369.11975326004904,None,2022-08-11-12:02:31.659743,369.13164400006644,369.4364360999316,369.13164400006644,369.13164400006644,None,369.13164400006644,369.13164400006644,369.94322606001515,None,,,,21010,0001,2022_Aug_11_1156,localizer,2021.1.3,60.02829737315806,
block,scenes,scenes043.bmp,,,,,0,147,147,147,,,,,,,,,,,,,,,,,,,,,,,,,,,,,,,,,,,,,,,,,,None,,369.94322606001515,None,369.94322606001515,None,2022-08-11-12:02:32.486878,369.95705099985935,370.26965510006994,369.95705099985935,None,None,369.95705099985935,None,370.7531187600689,None,,,,21010,0001,2022_Aug_11_1156,localizer,2021.1.3,60.02829737315806,
block,scenes,scenes039.bmp,,,,,0,148,148,148,,,,,,,,,,,,,,,,,,,,,,,,,,,,,,,,,,,,,,,,,,None,,370.7531187600689,None,370.7531187600689,None,2022-08-11-12:02:33.291264,370.76312969997525,371.0697675999254,370.76312969997525,None,None,370.76312969997525,None,371.56979186006356,None,,,,21010,0001,2022_Aug_11_1156,localizer,2021.1.3,60.02829737315806,
block,scenes,scenes049.bmp,,,,,0,149,149,149,,,,,,,,,,,,,,,,,,,,,,,,,,,,,,,,,,,,,,,,,,None,,371.56979186006356,None,371.56979186006356,None,2022-08-11-12:02:34.107764,371.5706474999897,371.8699612999335,371.5706474999897,None,None,371.5706474999897,None,372.3697378599318,None,,,,21010,0001,2022_Aug_11_1156,localizer,2021.1.3,60.02829737315806,
block,scenes,scenes022.bmp,,,,,0,150,150,150,,,,,,,,,,,,,,,,,,,,,,,,,,,,,,,,,,,,,,,,,,None,,372.3697378599318,None,372.3697378599318,None,2022-08-11-12:02:34.908503,372.38099089986645,372.6861361998599,372.38099089986645,372.38099089986645,None,372.38099089986645,372.38099089986645,373.1861675599357,None,,,,21010,0001,2022_Aug_11_1156,localizer,2021.1.3,60.02829737315806,
block,scenes,scenes051.bmp,,,,,0,151,151,151,,,,,,,,,,,,,,,,,,,,,,,,,,,,,,,,,,,,,,,,,,None,,373.1861675599357,None,373.1861675599357,None,2022-08-11-12:02:35.722603,373.18757670000196,373.48672119993716,373.18757670000196,None,None,373.18757670000196,None,373.9867750600679,None,,,,21010,0001,2022_Aug_11_1156,localizer,2021.1.3,60.02829737315806,
block_end,scenes,scenes036.bmp,,,,,0,152,152,152,,,,,,,,,,,,,,,,,,,,,,,,,,,,,,,,,,,,,,,,,,None,,373.9867750600679,None,373.9867750600679,None,2022-08-11-12:02:36.526742,373.9963497999124,374.3028003999498,373.9963497999124,373.9963497999124,None,373.9963497999124,373.9963497999124,374.80328976002056,None,,,,21010,0001,2022_Aug_11_1156,localizer,2021.1.3,60.02829737315806,
block_start,scrambled,scrambled037.bmp,,,,,0,153,153,153,,,,,,,,,,,,,,,,,,,,,,,,,,,,,,,,,,,,,,,,,,t,1.8138305998872966,374.8033537999727,None,374.8033537999727,None,2022-08-11-12:02:39.173120,376.64448709995486,376.9529353999533,376.64448709995486,None,None,376.64448709995486,None,377.4529506600229,None,,,,21010,0001,2022_Aug_11_1156,localizer,2021.1.3,60.02829737315806,
block,scrambled,scrambled001.bmp,,,,,0,154,154,154,,,,,,,,,,,,,,,,,,,,,,,,,,,,,,,,,,,,,,,,,,None,,377.4529506600229,None,377.4529506600229,None,2022-08-11-12:02:39.990722,377.45429620007053,377.7735309000127,377.45429620007053,None,None,377.45429620007053,None,378.25373955990653,None,,,,21010,0001,2022_Aug_11_1156,localizer,2021.1.3,60.02829737315806,
block,scrambled,scrambled004.bmp,,,,,0,155,155,155,,,,,,,,,,,,,,,,,,,,,,,,,,,,,,,,,,,,,,,,,,None,,378.25373955990653,None,378.25373955990653,None,2022-08-11-12:02:40.793517,378.2629821000155,378.5704359000083,378.2629821000155,378.2629821000155,None,378.2629821000155,378.2629821000155,379.0696900599869,None,,,,21010,0001,2022_Aug_11_1156,localizer,2021.1.3,60.02829737315806,
block,scrambled,scrambled059.bmp,,,,,0,156,156,156,,,,,,,,,,,,,,,,,,,,,,,,,,,,,,,,,,,,,,,,,,None,,379.0696900599869,None,379.0696900599869,None,2022-08-11-12:02:41.607136,379.0782041999046,379.38642009999603,379.0782041999046,None,None,379.0782041999046,None,379.88676086009946,None,,,,21010,0001,2022_Aug_11_1156,localizer,2021.1.3,60.02829737315806,
block,scrambled,scrambled045.bmp,,,,,0,157,157,157,,,,,,,,,,,,,,,,,,,,,,,,,,,,,,,,,,,,,,,,,,None,,379.88676086009946,None,379.88676086009946,None,2022-08-11-12:02:42.424543,379.8976461000275,380.2030384999234,379.8976461000275,None,None,379.8976461000275,None,380.7029309599893,None,,,,21010,0001,2022_Aug_11_1156,localizer,2021.1.3,60.02829737315806,
block,scrambled,scrambled014.bmp,,,,,0,158,158,158,,,,,,,,,,,,,,,,,,,,,,,,,,,,,,,,,,,,,,,,,,None,,380.7029309599893,None,380.7029309599893,None,2022-08-11-12:02:43.240942,380.7122654998675,381.0196070999373,380.7122654998675,None,None,380.7122654998675,None,381.5198987600161,None,,,,21010,0001,2022_Aug_11_1156,localizer,2021.1.3,60.02829737315806,
block,scrambled,scrambled080.bmp,,,,,0,159,159,159,,,,,,,,,,,,,,,,,,,,,,,,,,,,,,,,,,,,,,,,,,None,,381.5198987600161,None,381.5198987600161,None,2022-08-11-12:02:44.057664,381.52061489992775,381.81979179987684,381.52061489992775,None,None,381.52061489992775,None,382.3200553600909,None,,,,21010,0001,2022_Aug_11_1156,localizer,2021.1.3,60.02829737315806,
block,scrambled,scrambled048.bmp,,,,,0,160,160,160,,,,,,,,,,,,,,,,,,,,,,,,,,,,,,,,,,,,,,,,,,None,,382.3200553600909,None,382.3200553600909,None,2022-08-11-12:02:44.859089,382.3309080998879,382.6364253000356,382.3309080998879,382.3309080998879,None,382.3309080998879,382.3309080998879,383.1363154599676,None,,,,21010,0001,2022_Aug_11_1156,localizer,2021.1.3,60.02829737315806,
block,scrambled,scrambled002.bmp,,,,,0,161,161,161,,,,,,,,,,,,,,,,,,,,,,,,,,,,,,,,,,,,,,,,,,None,,383.1363154599676,None,383.1363154599676,None,2022-08-11-12:02:45.674084,383.1469183000736,383.4529826999642,383.1469183000736,None,None,383.1469183000736,None,383.95338925987016,None,,,,21010,0001,2022_Aug_11_1156,localizer,2021.1.3,60.02829737315806,
block,scrambled,scrambled025.bmp,,,,,0,162,162,162,,,,,,,,,,,,,,,,,,,,,,,,,,,,,,,,,,,,,,,,,,None,,383.95338925987016,None,383.95338925987016,None,2022-08-11-12:02:46.491437,383.96356369997375,384.2701683000196,383.96356369997375,None,None,383.96356369997375,None,384.7696763599524,None,,,,21010,0001,2022_Aug_11_1156,localizer,2021.1.3,60.02829737315806,
block,scrambled,scrambled061.bmp,,,,,0,163,163,163,,,,,,,,,,,,,,,,,,,,,,,,,,,,,,,,,,,,,,,,,,None,,384.7696763599524,None,384.7696763599524,None,2022-08-11-12:02:47.307444,384.77045039995573,385.06973770004697,384.77045039995573,None,None,384.77045039995573,None,385.5697487600846,None,,,,21010,0001,2022_Aug_11_1156,localizer,2021.1.3,60.02829737315806,
block,scrambled,scrambled047.bmp,,,,,0,164,164,164,,,,,,,,,,,,,,,,,,,,,,,,,,,,,,,,,,,,,,,,,,None,,385.5697487600846,None,385.5697487600846,None,2022-08-11-12:02:48.108787,385.57045049988665,385.8709660000168,385.57045049988665,385.57045049988665,None,385.57045049988665,385.57045049988665,386.37028436001856,None,,,,21010,0001,2022_Aug_11_1156,localizer,2021.1.3,60.02829737315806,
block,scrambled,scrambled031.bmp,,,,,0,165,165,165,,,,,,,,,,,,,,,,,,,,,,,,,,,,,,,,,,,,,,,,,,None,,386.37028436001856,None,386.37028436001856,None,2022-08-11-12:02:48.910249,386.38310760003515,386.68644020007923,386.38310760003515,386.38310760003515,None,386.38310760003515,386.38310760003515,387.18673305993434,None,,,,21010,0001,2022_Aug_11_1156,localizer,2021.1.3,60.02829737315806,
block,scrambled,scrambled062.bmp,,,,,0,166,166,166,,,,,,,,,,,,,,,,,,,,,,,,,,,,,,,,,,,,,,,,,,None,,387.18673305993434,None,387.18673305993434,None,2022-08-11-12:02:49.724574,387.18742659990676,387.48678179993294,387.18742659990676,None,None,387.18742659990676,None,387.9878406600328,None,,,,21010,0001,2022_Aug_11_1156,localizer,2021.1.3,60.02829737315806,
block_end,scrambled,scrambled081.bmp,,,,,0,167,167,167,,,,,,,,,,,,,,,,,,,,,,,,,,,,,,,,,,,,,,,,,,None,,387.9878406600328,None,387.9878406600328,None,2022-08-11-12:02:50.529751,388.00354749988765,388.3030631998554,388.00354749988765,388.00354749988765,None,388.00354749988765,388.00354749988765,388.80295576003846,None,,,,21010,0001,2022_Aug_11_1156,localizer,2021.1.3,60.02829737315806,
block_start,faces,faces017.bmp,,,,,0,168,168,168,,,,,,,,,,,,,,,,,,,,,,,,,,,,,,,,,,,,,,,,,,t,1.8143129998352379,388.8029082000721,None,388.8029082000721,None,2022-08-11-12:02:53.173901,390.63770149997436,390.95308870007284,390.63770149997436,None,None,390.63770149997436,None,391.45301886007655,None,,,,21010,0001,2022_Aug_11_1156,localizer,2021.1.3,60.02829737315806,
block,faces,faces079.bmp,,,,,0,169,169,169,,,,,,,,,,,,,,,,,,,,,,,,,,,,,,,,,,,,,,,,,,None,,391.45301886007655,None,391.45301886007655,None,2022-08-11-12:02:53.990787,391.45425289985724,391.76983379991725,391.45425289985724,None,None,391.45425289985724,None,392.2534082600614,None,,,,21010,0001,2022_Aug_11_1156,localizer,2021.1.3,60.02829737315806,
block,faces,faces018.bmp,,,,,0,170,170,170,,,,,,,,,,,,,,,,,,,,,,,,,,,,,,,,,,,,,,,,,,None,,392.2534082600614,None,392.2534082600614,None,2022-08-11-12:02:54.793165,392.26660489989445,392.5700524998829,392.26660489989445,392.26660489989445,None,392.26660489989445,392.26660489989445,393.0705671600299,None,,,,21010,0001,2022_Aug_11_1156,localizer,2021.1.3,60.02829737315806,
block,faces,faces013.bmp,,,,,0,171,171,171,,,,,,,,,,,,,,,,,,,,,,,,,,,,,,,,,,,,,,,,,,None,,393.0705671600299,None,393.0705671600299,None,2022-08-11-12:02:55.608346,393.07845579995774,393.3871488000732,393.07845579995774,None,None,393.07845579995774,None,393.8871821599314,None,,,,21010,0001,2022_Aug_11_1156,localizer,2021.1.3,60.02829737315806,
block,faces,faces046.bmp,,,,,0,172,172,172,,,,,,,,,,,,,,,,,,,,,,,,,,,,,,,,,,,,,,,,,,None,,393.8871821599314,None,393.8871821599314,None,2022-08-11-12:02:56.425951,393.895250499947,394.20366090000607,393.895250499947,None,None,393.895250499947,None,394.70346465997864,None,,,,21010,0001,2022_Aug_11_1156,localizer,2021.1.3,60.02829737315806,
block,faces,faces004.bmp,,,,,0,173,173,173,,,,,,,,,,,,,,,,,,,,,,,,,,,,,,,,,,,,,,,,,,None,,394.70346465997864,None,394.70346465997864,None,2022-08-11-12:02:57.241224,394.7190914999228,395.01993860001676,394.7190914999228,None,None,394.7190914999228,None,395.5199925600318,None,,,,21010,0001,2022_Aug_11_1156,localizer,2021.1.3,60.02829737315806,
block,faces,faces077.bmp,,,,,0,174,174,174,,,,,,,,,,,,,,,,,,,,,,,,,,,,,,,,,,,,,,,,,,None,,395.5199925600318,None,395.5199925600318,None,2022-08-11-12:02:58.057983,395.5311426999979,395.83632060000673,395.5311426999979,None,None,395.5311426999979,None,396.3364244600525,None,,,,21010,0001,2022_Aug_11_1156,localizer,2021.1.3,60.02829737315806,
block,faces,faces068.bmp,,,,,0,175,175,175,,,,,,,,,,,,,,,,,,,,,,,,,,,,,,,,,,,,,,,,,,None,,396.3364244600525,None,396.3364244600525,None,2022-08-11-12:02:58.874191,396.3374931998551,396.6372092999518,396.3374931998551,None,None,396.3374931998551,None,397.15257025987376,None,,,,21010,0001,2022_Aug_11_1156,localizer,2021.1.3,60.02829737315806,
block,faces,faces052.bmp,,,,,0,176,176,176,,,,,,,,,,,,,,,,,,,,,,,,,,,,,,,,,,,,,,,,,,None,,397.15257025987376,None,397.15257025987376,None,2022-08-11-12:02:59.689080,397.15789299993776,397.4696680000052,397.15789299993776,None,None,397.15789299993776,None,397.9705075599486,None,,,,21010,0001,2022_Aug_11_1156,localizer,2021.1.3,60.02829737315806,
block,faces,faces045.bmp,,,,,0,177,177,177,,,,,,,,,,,,,,,,,,,,,,,,,,,,,,,,,,,,,,,,,,None,,397.9705075599486,None,397.9705075599486,None,2022-08-11-12:03:00.509259,397.97151049994864,398.28644719999284,397.97151049994864,None,None,397.97151049994864,None,398.773514360073,None,,,,21010,0001,2022_Aug_11_1156,localizer,2021.1.3,60.02829737315806,
block,faces,faces067.bmp,,,,,0,178,178,178,,,,,,,,,,,,,,,,,,,,,,,,,,,,,,,,,,,,,,,,,,None,,398.773514360073,None,398.773514360073,None,2022-08-11-12:03:01.320750,398.794130000053,399.103389200056,398.794130000053,398.794130000053,None,398.794130000053,398.794130000053,399.58676735998597,None,,,,21010,0001,2022_Aug_11_1156,localizer,2021.1.3,60.02829737315806,
block,faces,faces069.bmp,,,,,0,179,179,179,,,,,,,,,,,,,,,,,,,,,,,,,,,,,,,,,,,,,,,,,,None,,399.58676735998597,None,399.58676735998597,None,2022-08-11-12:03:02.124530,399.59736220003106,399.90338040003553,399.59736220003106,None,None,399.59736220003106,None,400.40363606007304,None,,,,21010,0001,2022_Aug_11_1156,localizer,2021.1.3,60.02829737315806,
block,faces,faces033.bmp,,,,,0,180,180,180,,,,,,,,,,,,,,,,,,,,,,,,,,,,,,,,,,,,,,,,,,None,,400.40363606007304,None,400.40363606007304,None,2022-08-11-12:03:02.942529,400.4226893999148,400.7371121000033,400.4226893999148,None,None,400.4226893999148,None,401.2198108598823,None,,,,21010,0001,2022_Aug_11_1156,localizer,2021.1.3,60.02829737315806,
block,faces,faces086.bmp,,,,,0,181,181,181,,,,,,,,,,,,,,,,,,,,,,,,,,,,,,,,,,,,,,,,,,None,,401.2198108598823,None,401.2198108598823,None,2022-08-11-12:03:03.757577,401.2294852999039,401.5365557000041,401.2294852999039,None,None,401.2294852999039,None,402.0264547598781,None,,,,21010,0001,2022_Aug_11_1156,localizer,2021.1.3,60.02829737315806,
block_end,faces,faces003.bmp,,,,,0,182,182,182,,,,,,,,,,,,,,,,,,,,,,,,,,,,,,,,,,,,,,,,,,None,,402.0264547598781,None,402.0264547598781,None,2022-08-11-12:03:04.572154,402.0441441000439,402.35316519998014,402.0441441000439,None,None,402.0441441000439,None,402.8369278599275,None,,,,21010,0001,2022_Aug_11_1156,localizer,2021.1.3,60.02829737315806,
block_start,objects,objects003.bmp,,,,,0,183,183,183,,,,,,,,,,,,,,,,,,,,,,,,,,,,,,,,,,,,,,,,,,t,1.7803440999705344,402.8369461998809,None,402.8369461998809,None,2022-08-11-12:03:07.173395,404.64701589988545,404.95409559994005,404.64701589988545,None,None,404.64701589988545,None,405.4543627599487,None,,,,21010,0001,2022_Aug_11_1156,localizer,2021.1.3,60.02829737315806,
block,objects,objects060.bmp,,,,,0,184,184,184,,,,,,,,,,,,,,,,,,,,,,,,,,,,,,,,,,,,,,,,,,None,,405.4543627599487,None,405.4543627599487,None,2022-08-11-12:03:07.993090,405.46672139992006,405.76995179988444,405.46672139992006,None,None,405.46672139992006,None,406.27016226004343,None,,,,21010,0001,2022_Aug_11_1156,localizer,2021.1.3,60.02829737315806,
block,objects,objects006.bmp,,,,,0,185,185,185,,,,,,,,,,,,,,,,,,,,,,,,,,,,,,,,,,,,,,,,,,None,,406.27016226004343,None,406.27016226004343,None,2022-08-11-12:03:08.808123,406.2801717000548,406.58662969991565,406.2801717000548,None,None,406.2801717000548,None,407.0870190599235,None,,,,21010,0001,2022_Aug_11_1156,localizer,2021.1.3,60.02829737315806,
block,objects,objects012.bmp,,,,,0,186,186,186,,,,,,,,,,,,,,,,,,,,,,,,,,,,,,,,,,,,,,,,,,None,,407.0870190599235,None,407.0870190599235,None,2022-08-11-12:03:09.624780,407.0976781998761,407.40319449990056,407.0976781998761,None,None,407.0976781998761,None,407.9035248599248,None,,,,21010,0001,2022_Aug_11_1156,localizer,2021.1.3,60.02829737315806,
block,objects,objects030.bmp,,,,,0,187,187,187,,,,,,,,,,,,,,,,,,,,,,,,,,,,,,,,,,,,,,,,,,None,,407.9035248599248,None,407.9035248599248,None,2022-08-11-12:03:10.441285,407.9135531000793,408.2201507000718,407.9135531000793,None,None,407.9135531000793,None,408.7199978599092,None,,,,21010,0001,2022_Aug_11_1156,localizer,2021.1.3,60.02829737315806,
block,objects,objects063.bmp,,,,,0,188,188,188,,,,,,,,,,,,,,,,,,,,,,,,,,,,,,,,,,,,,,,,,,None,,408.7199978599092,None,408.7199978599092,None,2022-08-11-12:03:11.257764,408.72087579988874,409.02034769998863,408.72087579988874,None,None,408.72087579988874,None,409.5205697600031,None,,,,21010,0001,2022_Aug_11_1156,localizer,2021.1.3,60.02829737315806,
block,objects,objects031.bmp,,,,,0,189,189,189,,,,,,,,,,,,,,,,,,,,,,,,,,,,,,,,,,,,,,,,,,None,,409.5205697600031,None,409.5205697600031,None,2022-08-11-12:03:12.061343,409.52324949996546,409.8371258000843,409.52324949996546,409.52324949996546,None,409.52324949996546,409.52324949996546,410.3366348600248,None,,,,21010,0001,2022_Aug_11_1156,localizer,2021.1.3,60.02829737315806,
block,objects,objects039.bmp,,,,,0,190,190,190,,,,,,,,,,,,,,,,,,,,,,,,,,,,,,,,,,,,,,,,,,None,,410.3366348600248,None,410.3366348600248,None,2022-08-11-12:03:12.874401,410.33749359985813,410.63668469991535,410.33749359985813,None,None,410.33749359985813,None,411.13727595994715,None,,,,21010,0001,2022_Aug_11_1156,localizer,2021.1.3,60.02829737315806,
block,objects,objects075.bmp,,,,,0,191,191,191,,,,,,,,,,,,,,,,,,,,,,,,,,,,,,,,,,,,,,,,,,None,,411.13727595994715,None,411.13727595994715,None,2022-08-11-12:03:13.678025,411.15068409987725,411.4532214999199,411.15068409987725,411.15068409987725,None,411.15068409987725,411.15068409987725,411.95373296004254,None,,,,21010,0001,2022_Aug_11_1156,localizer,2021.1.3,60.02829737315806,
block,objects,objects008.bmp,,,,,0,192,192,192,,,,,,,,,,,,,,,,,,,,,,,,,,,,,,,,,,,,,,,,,,None,,411.95373296004254,None,411.95373296004254,None,2022-08-11-12:03:14.491414,411.95409399992786,412.25974850007333,411.95409399992786,None,None,411.95409399992786,None,412.75448836002033,None,,,,21010,0001,2022_Aug_11_1156,localizer,2021.1.3,60.02829737315806,
block,objects,objects033.bmp,,,,,0,193,193,193,,,,,,,,,,,,,,,,,,,,,,,,,,,,,,,,,,,,,,,,,,None,,412.75448836002033,None,412.75448836002033,None,2022-08-11-12:03:15.296410,412.7658877999056,413.0699585999828,412.7658877999056,412.7658877999056,None,412.7658877999056,412.7658877999056,413.5700369599508,None,,,,21010,0001,2022_Aug_11_1156,localizer,2021.1.3,60.02829737315806,
block,objects,objects064.bmp,,,,,0,194,194,194,,,,,,,,,,,,,,,,,,,,,,,,,,,,,,,,,,,,,,,,,,None,,413.5700369599508,None,413.5700369599508,None,2022-08-11-12:03:16.106789,413.5748630000744,413.88733389996924,413.5748630000744,None,None,413.5748630000744,None,414.38731215998996,None,,,,21010,0001,2022_Aug_11_1156,localizer,2021.1.3,60.02829737315806,
block,objects,objects028.bmp,,,,,0,195,195,195,,,,,,,,,,,,,,,,,,,,,,,,,,,,,,,,,,,,,,,,,,None,,414.38731215998996,None,414.38731215998996,None,2022-08-11-12:03:16.926066,414.3879827000201,414.7036701000761,414.3879827000201,None,None,414.3879827000201,None,415.18702595995273,None,,,,21010,0001,2022_Aug_11_1156,localizer,2021.1.3,60.02829737315806,
block,objects,objects066.bmp,,,,,0,196,196,196,,,,,,,,,,,,,,,,,,,,,,,,,,,,,,,,,,,,,,,,,,None,,415.18702595995273,None,415.18702595995273,None,2022-08-11-12:03:17.726934,415.18990530003794,415.50363339995965,415.18990530003794,415.18990530003794,None,415.18990530003794,415.18990530003794,416.0041008599801,None,,,,21010,0001,2022_Aug_11_1156,localizer,2021.1.3,60.02829737315806,
block_end,objects,objects079.bmp,,,,,0,197,197,197,,,,,,,,,,,,,,,,,,,,,,,,,,,,,,,,,,,,,,,,,,None,,416.0041008599801,None,416.0041008599801,None,2022-08-11-12:03:18.543297,416.00480680004694,416.3204882000573,416.00480680004694,None,None,416.00480680004694,None,416.8198562600883,None,,,,21010,0001,2022_Aug_11_1156,localizer,2021.1.3,60.02829737315806,
block_start,scrambled,scrambled082.bmp,,,,,0,198,198,198,,,,,,,,,,,,,,,,,,,,,,,,,,,,,,,,,,,,,,,,,,t,1.7964920999947935,416.81978269992396,None,416.81978269992396,None,2022-08-11-12:03:21.176736,418.6505167998839,418.95333699998446,418.6505167998839,None,None,418.6505167998839,None,419.45329825987574,None,,,,21010,0001,2022_Aug_11_1156,localizer,2021.1.3,60.02829737315806,
block,scrambled,scrambled023.bmp,,,,,0,199,199,199,,,,,,,,,,,,,,,,,,,,,,,,,,,,,,,,,,,,,,,,,,None,,419.45329825987574,None,419.45329825987574,None,2022-08-11-12:03:21.990970,419.46347279986367,419.76991300005466,419.46347279986367,None,None,419.46347279986367,None,420.2696430600481,None,,,,21010,0001,2022_Aug_11_1156,localizer,2021.1.3,60.02829737315806,
block,scrambled,scrambled025.bmp,,,,,0,200,200,200,,,,,,,,,,,,,,,,,,,,,,,,,,,,,,,,,,,,,,,,,,None,,420.2696430600481,None,420.2696430600481,None,2022-08-11-12:03:22.806419,420.2713923000265,420.5866838998627,420.2713923000265,None,None,420.2713923000265,None,421.08662336005364,None,,,,21010,0001,2022_Aug_11_1156,localizer,2021.1.3,60.02829737315806,
block,scrambled,scrambled050.bmp,,,,,0,201,201,201,,,,,,,,,,,,,,,,,,,,,,,,,,,,,,,,,,,,,,,,,,None,,421.08662336005364,None,421.08662336005364,None,2022-08-11-12:03:23.624388,421.0960071000736,421.4041555998847,421.0960071000736,None,None,421.0960071000736,None,421.9040886600269,None,,,,21010,0001,2022_Aug_11_1156,localizer,2021.1.3,60.02829737315806,
block,scrambled,scrambled081.bmp,,,,,0,202,202,202,,,,,,,,,,,,,,,,,,,,,,,,,,,,,,,,,,,,,,,,,,None,,421.9040886600269,None,421.9040886600269,None,2022-08-11-12:03:24.443019,421.9049340998754,422.2200205998961,421.9049340998754,None,None,421.9049340998754,None,422.7198315599235,None,,,,21010,0001,2022_Aug_11_1156,localizer,2021.1.3,60.02829737315806,
block,scrambled,scrambled059.bmp,,,,,0,203,203,203,,,,,,,,,,,,,,,,,,,,,,,,,,,,,,,,,,,,,,,,,,None,,422.7198315599235,None,422.7198315599235,None,2022-08-11-12:03:25.257818,422.72107500000857,423.0367232998833,422.72107500000857,None,None,422.72107500000857,None,423.52012105996255,None,,,,21010,0001,2022_Aug_11_1156,localizer,2021.1.3,60.02829737315806,
block,scrambled,scrambled065.bmp,,,,,0,204,204,204,,,,,,,,,,,,,,,,,,,,,,,,,,,,,,,,,,,,,,,,,,None,,423.52012105996255,None,423.52012105996255,None,2022-08-11-12:03:26.059881,423.5215356000699,423.82512359996326,423.5215356000699,423.5215356000699,None,423.5215356000699,423.5215356000699,424.32140675990377,None,,,,21010,0001,2022_Aug_11_1156,localizer,2021.1.3,60.02829737315806,
block,scrambled,scrambled018.bmp,,,,,0,205,205,205,,,,,,,,,,,,,,,,,,,,,,,,,,,,,,,,,,,,,,,,,,None,,424.32140675990377,None,424.32140675990377,None,2022-08-11-12:03:26.862338,424.325761300046,424.636565499939,424.325761300046,424.325761300046,None,424.325761300046,424.325761300046,425.13700876000803,None,,,,21010,0001,2022_Aug_11_1156,localizer,2021.1.3,60.02829737315806,
block,scrambled,scrambled024.bmp,,,,,0,206,206,206,,,,,,,,,,,,,,,,,,,,,,,,,,,,,,,,,,,,,,,,,,None,,425.13700876000803,None,425.13700876000803,None,2022-08-11-12:03:27.674772,425.14775789994746,425.45364259998314,425.14775789994746,None,None,425.14775789994746,None,425.953993060044,None,,,,21010,0001,2022_Aug_11_1156,localizer,2021.1.3,60.02829737315806,
block,scrambled,scrambled033.bmp,,,,,0,207,207,207,,,,,,,,,,,,,,,,,,,,,,,,,,,,,,,,,,,,,,,,,,None,,425.953993060044,None,425.953993060044,None,2022-08-11-12:03:28.492727,425.96575820003636,426.27060459996574,425.96575820003636,None,None,425.96575820003636,None,426.7714558598818,None,,,,21010,0001,2022_Aug_11_1156,localizer,2021.1.3,60.02829737315806,
block,scrambled,scrambled033.bmp,,,,,0,208,208,208,,,,,,,,,,,,,,,,,,,,,,,,,,,,,,,,,,,,,,,,,,None,,426.7714558598818,None,426.7714558598818,None,2022-08-11-12:03:29.310380,426.77382760006003,427.0873958999291,426.77382760006003,None,None,426.77382760006003,None,427.5868034599116,None,,,,21010,0001,2022_Aug_11_1156,localizer,2021.1.3,60.02829737315806,
block,scrambled,scrambled078.bmp,,,,,0,209,209,209,,,,,,,,,,,,,,,,,,,,,,,,,,,,,,,,,,,,,,,,,,None,,427.5868034599116,None,427.5868034599116,None,2022-08-11-12:03:30.124518,427.5959093000274,427.90319509990513,427.5959093000274,None,None,427.5959093000274,None,428.40458166005556,None,,,,21010,0001,2022_Aug_11_1156,localizer,2021.1.3,60.02829737315806,
block,scrambled,scrambled010.bmp,,,,,0,210,210,210,,,,,,,,,,,,,,,,,,,,,,,,,,,,,,,,,,,,,,,,,,None,,428.40458166005556,None,428.40458166005556,None,2022-08-11-12:03:30.943924,428.41806169995107,428.7198236999102,428.41806169995107,None,None,428.41806169995107,None,429.2211973600788,None,,,,21010,0001,2022_Aug_11_1156,localizer,2021.1.3,60.02829737315806,
block,scrambled,scrambled070.bmp,,,,,0,211,211,211,,,,,,,,,,,,,,,,,,,,,,,,,,,,,,,,,,,,,,,,,,None,,429.2211973600788,None,429.2211973600788,None,2022-08-11-12:03:31.760116,429.2235012999736,429.5371693999041,429.2235012999736,None,None,429.2235012999736,None,430.02637526008766,None,,,,21010,0001,2022_Aug_11_1156,localizer,2021.1.3,60.02829737315806,
block_end,scrambled,scrambled060.bmp,,,,,0,212,212,212,,,,,,,,,,,,,,,,,,,,,,,,,,,,,,,,,,,,,,,,,,None,,430.02637526008766,None,430.02637526008766,None,2022-08-11-12:03:32.572052,430.0471538999118,430.35487479995936,430.0471538999118,None,None,430.0471538999118,None,430.836718160077,None,,,,21010,0001,2022_Aug_11_1156,localizer,2021.1.3,60.02829737315806,
null_block,null_block,null_block.bmp,,,,,0,213,213,213,,,,,,,,,,,,,,,,,,,,,,,,,,,,,,,,,,,,,,,,,,t,1.7796455000061542,430.83667790004984,None,430.83667790004984,None,2022-08-11-12:03:35.173248,432.63644415989984,None,432.63644415989984,None,None,432.63644415989984,None,432.6381492000073,None,,,,21010,0001,2022_Aug_11_1156,localizer,2021.1.3,60.02829737315806,
block_start,scenes,scenes006.bmp,,,,,0,214,214,214,,,,,,,,,,,,,,,,,,,,,,,,,,,,,,,,,,,,,,,,,,t,1.9777641999535263,444.6385353000369,None,444.6385353000369,None,2022-08-11-12:03:49.176047,446.6477778998669,446.9536973000504,446.6477778998669,None,None,446.6477778998669,None,447.4534751599422,None,,,,21010,0001,2022_Aug_11_1156,localizer,2021.1.3,60.02829737315806,
block,scenes,scenes043.bmp,,,,,0,215,215,215,,,,,,,,,,,,,,,,,,,,,,,,,,,,,,,,,,,,,,,,,,None,,447.4534751599422,None,447.4534751599422,None,2022-08-11-12:03:49.990307,447.45561200007796,447.7701709999237,447.45561200007796,None,None,447.45561200007796,None,448.2702585599618,None,,,,21010,0001,2022_Aug_11_1156,localizer,2021.1.3,60.02829737315806,
block,scenes,scenes040.bmp,,,,,0,216,216,216,,,,,,,,,,,,,,,,,,,,,,,,,,,,,,,,,,,,,,,,,,None,,448.2702585599618,None,448.2702585599618,None,2022-08-11-12:03:50.808025,448.2710225000046,448.5702609999571,448.2710225000046,None,None,448.2710225000046,None,449.0723200599896,None,,,,21010,0001,2022_Aug_11_1156,localizer,2021.1.3,60.02829737315806,
block,scenes,scenes090.bmp,,,,,0,217,217,217,,,,,,,,,,,,,,,,,,,,,,,,,,,,,,,,,,,,,,,,,,None,,449.0723200599896,None,449.0723200599896,None,2022-08-11-12:03:51.616219,449.0960504999384,449.403505000053,449.0960504999384,449.0960504999384,None,449.0960504999384,449.0960504999384,449.8878091600491,None,,,,21010,0001,2022_Aug_11_1156,localizer,2021.1.3,60.02829737315806,
block,scenes,scenes088.bmp,,,,,0,218,218,218,,,,,,,,,,,,,,,,,,,,,,,,,,,,,,,,,,,,,,,,,,None,,449.8878091600491,None,449.8878091600491,None,2022-08-11-12:03:52.426556,449.90054339985363,450.20335309999064,449.90054339985363,None,None,449.90054339985363,None,450.7097945600981,None,,,,21010,0001,2022_Aug_11_1156,localizer,2021.1.3,60.02829737315806,
block,scenes,scenes069.bmp,,,,,0,219,219,219,,,,,,,,,,,,,,,,,,,,,,,,,,,,,,,,,,,,,,,,,,None,,450.7097945600981,None,450.7097945600981,None,2022-08-11-12:03:53.253464,450.727378499927,451.03674519993365,450.727378499927,None,None,450.727378499927,None,451.52026725991163,None,,,,21010,0001,2022_Aug_11_1156,localizer,2021.1.3,60.02829737315806,
block,scenes,scenes087.bmp,,,,,0,220,220,220,,,,,,,,,,,,,,,,,,,,,,,,,,,,,,,,,,,,,,,,,,None,,451.52026725991163,None,451.52026725991163,None,2022-08-11-12:03:54.058033,451.53020390006714,451.8373068999499,451.53020390006714,None,None,451.53020390006714,None,452.3368994599441,None,,,,21010,0001,2022_Aug_11_1156,localizer,2021.1.3,60.02829737315806,
block,scenes,scenes003.bmp,,,,,0,221,221,221,,,,,,,,,,,,,,,,,,,,,,,,,,,,,,,,,,,,,,,,,,None,,452.3368994599441,None,452.3368994599441,None,2022-08-11-12:03:54.874871,452.3476771998685,452.6535463000182,452.3476771998685,None,None,452.3476771998685,None,453.153810060001,None,,,,21010,0001,2022_Aug_11_1156,localizer,2021.1.3,60.02829737315806,
block,scenes,scenes073.bmp,,,,,0,222,222,222,,,,,,,,,,,,,,,,,,,,,,,,,,,,,,,,,,,,,,,,,,None,,453.153810060001,None,453.153810060001,None,2022-08-11-12:03:55.691813,453.16638569999486,453.4701833999716,453.16638569999486,None,None,453.16638569999486,None,453.9709871598752,None,,,,21010,0001,2022_Aug_11_1156,localizer,2021.1.3,60.02829737315806,
block,scenes,scenes024.bmp,,,,,0,223,223,223,,,,,,,,,,,,,,,,,,,,,,,,,,,,,,,,,,,,,,,,,,None,,453.9709871598752,None,453.9709871598752,None,2022-08-11-12:03:56.508829,453.9830475000199,454.28722539986484,453.9830475000199,None,None,453.9830475000199,None,454.7870987599017,None,,,,21010,0001,2022_Aug_11_1156,localizer,2021.1.3,60.02829737315806,
block,scenes,scenes067.bmp,,,,,0,224,224,224,,,,,,,,,,,,,,,,,,,,,,,,,,,,,,,,,,,,,,,,,,None,,454.7870987599017,None,454.7870987599017,None,2022-08-11-12:03:57.324865,454.7974620000459,455.10355739993975,454.7974620000459,None,None,454.7974620000459,None,455.6040209600469,None,,,,21010,0001,2022_Aug_11_1156,localizer,2021.1.3,60.02829737315806,
block,scenes,scenes047.bmp,,,,,0,225,225,225,,,,,,,,,,,,,,,,,,,,,,,,,,,,,,,,,,,,,,,,,,None,,455.6040209600469,None,455.6040209600469,None,2022-08-11-12:03:58.141986,455.6048139000777,455.90388750005513,455.6048139000777,None,None,455.6048139000777,None,456.4040061599808,None,,,,21010,0001,2022_Aug_11_1156,localizer,2021.1.3,60.02829737315806,
block,scenes,scenes078.bmp,,,,,0,226,226,226,,,,,,,,,,,,,,,,,,,,,,,,,,,,,,,,,,,,,,,,,,None,,456.4040061599808,None,456.4040061599808,None,2022-08-11-12:03:58.943763,456.4068694000598,456.72000749991275,456.4068694000598,456.4068694000598,None,456.4068694000598,456.4068694000598,457.220398960053,None,,,,21010,0001,2022_Aug_11_1156,localizer,2021.1.3,60.02829737315806,
block,scenes,scenes019.bmp,,,,,0,227,227,227,,,,,,,,,,,,,,,,,,,,,,,,,,,,,,,,,,,,,,,,,,None,,457.220398960053,None,457.220398960053,None,2022-08-11-12:03:59.758165,457.22110299998894,457.537085799966,457.22110299998894,None,None,457.22110299998894,None,458.0212440598989,None,,,,21010,0001,2022_Aug_11_1156,localizer,2021.1.3,60.02829737315806,
block_end,scenes,scenes046.bmp,,,,,0,228,228,228,,,,,,,,,,,,,,,,,,,,,,,,,,,,,,,,,,,,,,,,,,None,,458.0212440598989,None,458.0212440598989,None,2022-08-11-12:04:00.562178,458.0356192998588,458.3370924999472,458.0356192998588,458.0356192998588,None,458.0356192998588,458.0356192998588,458.8370728598675,None,,,,21010,0001,2022_Aug_11_1156,localizer,2021.1.3,60.02829737315806,
block_start,faces,faces024.bmp,,,,,0,229,229,229,,,,,,,,,,,,,,,,,,,,,,,,,,,,,,,,,,,,,,,,,,t,1.7791223998647183,458.8370825999882,None,458.8370825999882,None,2022-08-11-12:04:03.176245,460.6506831999868,460.95373439998366,460.6506831999868,None,None,460.6506831999868,None,461.4572723599849,None,,,,21010,0001,2022_Aug_11_1156,localizer,2021.1.3,60.02829737315806,
block,faces,faces084.bmp,,,,,0,230,230,230,,,,,,,,,,,,,,,,,,,,,,,,,,,,,,,,,,,,,,,,,,None,,461.4572723599849,None,461.4572723599849,None,2022-08-11-12:04:04.003916,461.47884019999765,461.78704149997793,461.47884019999765,None,None,461.47884019999765,None,462.2704864599509,None,,,,21010,0001,2022_Aug_11_1156,localizer,2021.1.3,60.02829737315806,
block,faces,faces083.bmp,,,,,0,231,231,231,,,,,,,,,,,,,,,,,,,,,,,,,,,,,,,,,,,,,,,,,,None,,462.2704864599509,None,462.2704864599509,None,2022-08-11-12:04:04.808247,462.27133810007945,462.58671900001355,462.27133810007945,None,None,462.27133810007945,None,463.071548459935,None,,,,21010,0001,2022_Aug_11_1156,localizer,2021.1.3,60.02829737315806,
block,faces,faces041.bmp,,,,,0,232,232,232,,,,,,,,,,,,,,,,,,,,,,,,,,,,,,,,,,,,,,,,,,None,,463.071548459935,None,463.071548459935,None,2022-08-11-12:04:05.613365,463.0877354000695,463.3869447999168,463.0877354000695,463.0877354000695,None,463.0877354000695,463.0877354000695,463.88759236002807,None,,,,21010,0001,2022_Aug_11_1156,localizer,2021.1.3,60.02829737315806,
block,faces,faces048.bmp,,,,,0,233,233,233,,,,,,,,,,,,,,,,,,,,,,,,,,,,,,,,,,,,,,,,,,None,,463.88759236002807,None,463.88759236002807,None,2022-08-11-12:04:06.426778,463.88874890003353,464.2042998999823,463.88874890003353,None,None,463.88874890003353,None,464.70403145987075,None,,,,21010,0001,2022_Aug_11_1156,localizer,2021.1.3,60.02829737315806,
block,faces,faces029.bmp,,,,,0,234,234,234,,,,,,,,,,,,,,,,,,,,,,,,,,,,,,,,,,,,,,,,,,None,,464.70403145987075,None,464.70403145987075,None,2022-08-11-12:04:07.241791,464.71174869989045,465.02090159989893,464.71174869989045,None,None,464.71174869989045,None,465.519970859983,None,,,,21010,0001,2022_Aug_11_1156,localizer,2021.1.3,60.02829737315806,
block,faces,faces020.bmp,,,,,0,235,235,235,,,,,,,,,,,,,,,,,,,,,,,,,,,,,,,,,,,,,,,,,,None,,465.519970859983,None,465.519970859983,None,2022-08-11-12:04:08.056745,465.52536039985716,465.8367568999529,465.52536039985716,None,None,465.52536039985716,None,466.33700695994776,None,,,,21010,0001,2022_Aug_11_1156,localizer,2021.1.3,60.02829737315806,
block,faces,faces013.bmp,,,,,0,236,236,236,,,,,,,,,,,,,,,,,,,,,,,,,,,,,,,,,,,,,,,,,,None,,466.33700695994776,None,466.33700695994776,None,2022-08-11-12:04:08.874808,466.3377274000086,466.63701019994915,466.3377274000086,None,None,466.3377274000086,None,467.138007959933,None,,,,21010,0001,2022_Aug_11_1156,localizer,2021.1.3,60.02829737315806,
block,faces,faces073.bmp,,,,,0,237,237,237,,,,,,,,,,,,,,,,,,,,,,,,,,,,,,,,,,,,,,,,,,None,,467.138007959933,None,467.138007959933,None,2022-08-11-12:04:09.678925,467.1423146999441,467.45357870007865,467.1423146999441,467.1423146999441,None,467.1423146999441,467.1423146999441,467.95444775989745,None,,,,21010,0001,2022_Aug_11_1156,localizer,2021.1.3,60.02829737315806,
block,faces,faces006.bmp,,,,,0,238,238,238,,,,,,,,,,,,,,,,,,,,,,,,,,,,,,,,,,,,,,,,,,None,,467.95444775989745,None,467.95444775989745,None,2022-08-11-12:04:10.493379,467.9664795000572,468.27019810001366,467.9664795000572,None,None,467.9664795000572,None,468.7701977599645,None,,,,21010,0001,2022_Aug_11_1156,localizer,2021.1.3,60.02829737315806,
block,faces,faces089.bmp,,,,,0,239,239,239,,,,,,,,,,,,,,,,,,,,,,,,,,,,,,,,,,,,,,,,,,None,,468.7701977599645,None,468.7701977599645,None,2022-08-11-12:04:11.307542,468.77821530005895,469.08695450006053,468.77821530005895,None,None,468.77821530005895,None,469.58712166000623,None,,,,21010,0001,2022_Aug_11_1156,localizer,2021.1.3,60.02829737315806,
block,faces,faces005.bmp,,,,,0,240,240,240,,,,,,,,,,,,,,,,,,,,,,,,,,,,,,,,,,,,,,,,,,None,,469.58712166000623,None,469.58712166000623,None,2022-08-11-12:04:12.125103,469.5971212000586,469.90426489990205,469.5971212000586,None,None,469.5971212000586,None,470.4048850600375,None,,,,21010,0001,2022_Aug_11_1156,localizer,2021.1.3,60.02829737315806,
block,faces,faces057.bmp,,,,,0,241,241,241,,,,,,,,,,,,,,,,,,,,,,,,,,,,,,,,,,,,,,,,,,None,,470.4048850600375,None,470.4048850600375,None,2022-08-11-12:04:12.944712,470.41765369987115,470.72245349991135,470.41765369987115,None,None,470.41765369987115,None,471.22015036002267,None,,,,21010,0001,2022_Aug_11_1156,localizer,2021.1.3,60.02829737315806,
block,faces,faces030.bmp,,,,,0,242,242,242,,,,,,,,,,,,,,,,,,,,,,,,,,,,,,,,,,,,,,,,,,None,,471.22015036002267,None,471.22015036002267,None,2022-08-11-12:04:13.756925,471.22121350001544,471.53690709988587,471.22121350001544,None,None,471.22121350001544,None,472.02031015988905,None,,,,21010,0001,2022_Aug_11_1156,localizer,2021.1.3,60.02829737315806,
block_end,faces,faces017.bmp,,,,,0,243,243,243,,,,,,,,,,,,,,,,,,,,,,,,,,,,,,,,,,,,,,,,,,None,,472.02031015988905,None,472.02031015988905,None,2022-08-11-12:04:14.559448,472.02124339994043,472.32029649987817,472.02124339994043,472.02124339994043,None,472.02124339994043,472.02124339994043,472.8216139600845,None,,,,21010,0001,2022_Aug_11_1156,localizer,2021.1.3,60.02829737315806,
,,,,,,,,,,,,,,,,,,,,,,,,,,,,,,,,,,,,,,,,,,,,,,,,,,,,,,,,,,,,,,,,,,,,,472.8221040000208,None,,,,,,,
