block_type,condition,img_name,Button.thisRepN,Button.thisTrialN,Button.thisN,Button.thisIndex,trials.thisRepN,trials.thisTrialN,trials.thisN,trials.thisIndex,Ready_experimenter_text.started,Ready_experimenter_text.stopped,Ready_experimenter_resp.keys,Ready_experimenter_resp.rt,Ready_experimenter_resp.started,Ready_experimenter_resp.stopped,Alignment_background.started,Alignment_background.stopped,Alignment_image.started,Alignment_image.stopped,Alignment_resp.keys,Alignment_resp.rt,Alignment_resp.started,Alignment_resp.stopped,Button_text.started,Button_text.stopped,Index_text.started,Index_text.stopped,Index_resp.keys,Index_resp.rt,Index_resp.started,Index_resp.stopped,Middle_text.started,Middle_text.stopped,Middle_resp.keys,Middle_resp.rt,Middle_resp.started,Middle_resp.stopped,Repeat_text.started,Repeat_text.stopped,Repeat_resp.keys,Repeat_resp.corr,Repeat_resp.rt,Repeat_resp.started,Repeat_resp.stopped,instruction_text.started,instruction_text.stopped,key_resp.keys,key_resp.rt,key_resp.started,key_resp.stopped,scanner_t.keys,scanner_t.rt,scanner_t.started,scanner_t.stopped,fixation_wait_for_t.started,fixation_wait_for_t.stopped,real_timestamp_trial_start,image.started,image.stopped,fixation.started,fixation.stopped,repeat_response.keys,repeat_response.started,repeat_response.stopped,fixation_null.started,fixation_null.stopped,end_text.started,end_text.stopped,participant,run,date,expName,psychopyVersion,frameRate,
,,,,,,,,,,,8.701177400012966,None,return,88.58842390001519,8.701177400012966,None,,,,,,,,,,,,,,,,,,,,,,,,,,,,,,,,,,,,,,,,,,,,,,,,,,,,,,22052,0001,2023_Mar_27_1313,localizer,2021.1.3,59.96706609482581,
,,,,,,,,,,,,,,,,,97.34653900004923,None,97.34653900004923,None,return,3.54211799998302,97.34653900004923,None,,,,,,,,,,,,,,,,,,,,,,,,,,,,,,,,,,,,,,,,,,,,,,22052,0001,2023_Mar_27_1313,localizer,2021.1.3,59.96706609482581,
,,,0,0,0,0,,,,,,,,,,,,,,,,,,,100.91190090001328,None,101.91937640000833,None,y,2.6498278999933973,101.91937640000833,None,104.58491170004709,None,b,1.2263370999717154,104.58491170004709,None,105.8357920999988,None,y,1,1.3833748999750242,105.8357920999988,None,,,,,,,,,,,,,,,,,,,,,,,,,22052,0001,2023_Mar_27_1313,localizer,2021.1.3,59.96706609482581,
,,,1,0,1,0,,,,,,,,,,,,,,,,,,,107.23518990003504,None,108.23534210002981,None,y,9.983981399971526,108.23534210002981,None,118.23999160004314,None,b,1.1065842999960296,118.23999160004314,None,119.37161980004748,None,n,0,1.2603837000206113,119.37161980004748,None,,,,,,,,,,,,,,,,,,,,,,,,,22052,0001,2023_Mar_27_1313,localizer,2021.1.3,59.96706609482581,
,,,,,,,,,,,,,,,,,,,,,,,,,,,,,,,,,,,,,,,,,,,,,,120.65314070001477,None,y,89.36822570004733,120.65314070001477,None,,,,,,,,,,,,,,,,,,,22052,0001,2023_Mar_27_1313,localizer,2021.1.3,59.96706609482581,
null_block,null_block,null_block.bmp,,,,,0,0,0,0,,,,,,,,,,,,,,,,,,,,,,,,,,,,,,,,,,,,,,,,,,t,20.253060600021854,210.12324889999582,None,210.12324889999582,None,2023-03-27-13:16:52.532929,230.42012276005698,None,230.42012276005698,None,None,230.42012276005698,None,230.42903920001118,None,,,22052,0001,2023_Mar_27_1313,localizer,2021.1.3,59.96706609482581,
block_start,scenes,scenes085.bmp,,,,,0,1,1,1,,,,,,,,,,,,,,,,,,,,,,,,,,,,,,,,,,,,,,,,,,t,1.9398853000020608,242.43630400003167,None,242.43630400003167,None,2023-03-27-13:17:06.532435,244.41935520002153,244.7194755000528,244.41935520002153,None,None,244.41935520002153,None,245.21964968004613,None,,,22052,0001,2023_Mar_27_1313,localizer,2021.1.3,59.96706609482581,
block,scenes,scenes057.bmp,,,,,0,2,2,2,,,,,,,,,,,,,,,,,,,,,,,,,,,,,,,,,,,,,,,,,,None,,245.21964968004613,None,245.21964968004613,None,2023-03-27-13:17:07.348877,245.2342019000207,245.5364843000425,245.2342019000207,None,None,245.2342019000207,None,246.0368233800109,None,,,22052,0001,2023_Mar_27_1313,localizer,2021.1.3,59.96706609482581,
block,scenes,scenes032.bmp,,,,,0,3,3,3,,,,,,,,,,,,,,,,,,,,,,,,,,,,,,,,,,,,,,,,,,None,,246.0368233800109,None,246.0368233800109,None,2023-03-27-13:17:08.166254,246.0481359999976,246.35318390000612,246.0481359999976,None,None,246.0481359999976,None,246.85294108002563,None,,,22052,0001,2023_Mar_27_1313,localizer,2021.1.3,59.96706609482581,
block,scenes,scenes017.bmp,,,,,0,4,4,4,,,,,,,,,,,,,,,,,,,,,,,,,,,,,,,,,,,,,,,,,,None,,246.85294108002563,None,246.85294108002563,None,2023-03-27-13:17:08.982179,246.86772920005023,247.16994010005146,246.86772920005023,None,None,246.86772920005023,None,247.66911048002657,None,,,22052,0001,2023_Mar_27_1313,localizer,2021.1.3,59.96706609482581,
block,scenes,scenes081.bmp,,,,,0,5,5,5,,,,,,,,,,,,,,,,,,,,,,,,,,,,,,,,,,,,,,,,,,None,,247.66911048002657,None,247.66911048002657,None,2023-03-27-13:17:09.797364,247.68177150003612,247.98616920004133,247.68177150003612,None,None,247.68177150003612,None,248.48595538004884,None,,,22052,0001,2023_Mar_27_1313,localizer,2021.1.3,59.96706609482581,
block,scenes,scenes035.bmp,,,,,0,6,6,6,,,,,,,,,,,,,,,,,,,,,,,,,,,,,,,,,,,,,,,,,,None,,248.48595538004884,None,248.48595538004884,None,2023-03-27-13:17:10.614208,248.49972050002543,248.80336190003436,248.49972050002543,None,None,248.49972050002543,None,249.30240398002206,None,,,22052,0001,2023_Mar_27_1313,localizer,2021.1.3,59.96706609482581,
block,scenes,scenes075.bmp,,,,,0,7,7,7,,,,,,,,,,,,,,,,,,,,,,,,,,,,,,,,,,,,,,,,,,None,,249.30240398002206,None,249.30240398002206,None,2023-03-27-13:17:11.430672,249.31404110003496,249.61965430004057,249.31404110003496,None,None,249.31404110003496,None,250.12057968004956,None,,,22052,0001,2023_Mar_27_1313,localizer,2021.1.3,59.96706609482581,
block,scenes,scenes020.bmp,,,,,0,8,8,8,,,,,,,,,,,,,,,,,,,,,,,,,,,,,,,,,,,,,,,,,,None,,250.12057968004956,None,250.12057968004956,None,2023-03-27-13:17:12.251823,250.13764430000447,250.45287160004955,250.13764430000447,None,None,250.13764430000447,None,250.93611928002792,None,,,22052,0001,2023_Mar_27_1313,localizer,2021.1.3,59.96706609482581,
block,scenes,scenes040.bmp,,,,,0,9,9,9,,,,,,,,,,,,,,,,,,,,,,,,,,,,,,,,,,,,,,,,,,None,,250.93611928002792,None,250.93611928002792,None,2023-03-27-13:17:13.065613,250.9501481000334,251.25318920001155,250.9501481000334,None,None,250.9501481000334,None,251.75294798004325,None,,,22052,0001,2023_Mar_27_1313,localizer,2021.1.3,59.96706609482581,
block,scenes,scenes066.bmp,,,,,0,10,10,10,,,,,,,,,,,,,,,,,,,,,,,,,,,,,,,,,,,,,,,,,,None,,251.75294798004325,None,251.75294798004325,None,2023-03-27-13:17:13.881460,251.76688570005354,252.06914239999605,251.76688570005354,None,None,251.76688570005354,None,252.57143078002264,None,,,22052,0001,2023_Mar_27_1313,localizer,2021.1.3,59.96706609482581,
block,scenes,scenes009.bmp,,,,,0,11,11,11,,,,,,,,,,,,,,,,,,,,,,,,,,,,,,,,,,,,,,,,,,None,,252.57143078002264,None,252.57143078002264,None,2023-03-27-13:17:14.702588,252.58818160003284,252.9030674000387,252.58818160003284,None,None,252.58818160003284,None,253.38622178000514,None,,,22052,0001,2023_Mar_27_1313,localizer,2021.1.3,59.96706609482581,
block,scenes,scenes011.bmp,,,,,0,12,12,12,,,,,,,,,,,,,,,,,,,,,,,,,,,,,,,,,,,,,,,,,,None,,253.38622178000514,None,253.38622178000514,None,2023-03-27-13:17:15.514729,253.40006030001678,253.70302090002224,253.40006030001678,None,None,253.40006030001678,None,254.20294778005336,None,,,22052,0001,2023_Mar_27_1313,localizer,2021.1.3,59.96706609482581,
block,scenes,scenes007.bmp,,,,,0,13,13,13,,,,,,,,,,,,,,,,,,,,,,,,,,,,,,,,,,,,,,,,,,None,,254.20294778005336,None,254.20294778005336,None,2023-03-27-13:17:16.332234,254.22155529999873,254.53662330005318,254.22155529999873,None,None,254.22155529999873,None,255.01975848004804,None,,,22052,0001,2023_Mar_27_1313,localizer,2021.1.3,59.96706609482581,
block,scenes,scenes030.bmp,,,,,0,14,14,14,,,,,,,,,,,,,,,,,,,,,,,,,,,,,,,,,,,,,,,,,,None,,255.01975848004804,None,255.01975848004804,None,2023-03-27-13:17:17.149053,255.03335080004763,255.33651140000438,255.03335080004763,None,None,255.03335080004763,None,255.83638788000098,None,,,22052,0001,2023_Mar_27_1313,localizer,2021.1.3,59.96706609482581,
block_end,scenes,scenes019.bmp,,,,,0,15,15,15,,,,,,,,,,,,,,,,,,,,,,,,,,,,,,,,,,,,,,,,,,None,,255.83638788000098,None,255.83638788000098,None,2023-03-27-13:17:17.966206,255.8500241000438,256.15304430003744,255.8500241000438,None,None,255.8500241000438,None,256.65395388004254,None,,,22052,0001,2023_Mar_27_1313,localizer,2021.1.3,59.96706609482581,
block_start,scrambled,scrambled055.bmp,,,,,0,16,16,16,,,,,,,,,,,,,,,,,,,,,,,,,,,,,,,,,,,,,,,,,,t,1.7213667999603786,256.6550270000007,None,256.6550270000007,None,2023-03-27-13:17:20.532669,258.4150945000001,258.7196157000144,258.4150945000001,None,None,258.4150945000001,None,259.21938028003206,None,,,22052,0001,2023_Mar_27_1313,localizer,2021.1.3,59.96706609482581,
block,scrambled,scrambled081.bmp,,,,,0,17,17,17,,,,,,,,,,,,,,,,,,,,,,,,,,,,,,,,,,,,,,,,,,None,,259.21938028003206,None,259.21938028003206,None,2023-03-27-13:17:21.348021,259.24040970002534,259.5536872000084,259.24040970002534,None,None,259.24040970002534,None,260.0362114800082,None,,,22052,0001,2023_Mar_27_1313,localizer,2021.1.3,59.96706609482581,
block,scrambled,scrambled066.bmp,,,,,0,18,18,18,,,,,,,,,,,,,,,,,,,,,,,,,,,,,,,,,,,,,,,,,,None,,260.0362114800082,None,260.0362114800082,None,2023-03-27-13:17:22.164746,260.0494248000323,260.35301250003977,260.0494248000323,None,None,260.0494248000323,None,260.8522710800462,None,,,22052,0001,2023_Mar_27_1313,localizer,2021.1.3,59.96706609482581,
block,scrambled,scrambled051.bmp,,,,,0,19,19,19,,,,,,,,,,,,,,,,,,,,,,,,,,,,,,,,,,,,,,,,,,None,,260.8522710800462,None,260.8522710800462,None,2023-03-27-13:17:22.980618,260.86495170003036,261.1696756000165,260.86495170003036,None,None,260.86495170003036,None,261.670213680045,None,,,22052,0001,2023_Mar_27_1313,localizer,2021.1.3,59.96706609482581,
block,scrambled,scrambled046.bmp,,,,,0,20,20,20,,,,,,,,,,,,,,,,,,,,,,,,,,,,,,,,,,,,,,,,,,None,,261.670213680045,None,261.670213680045,None,2023-03-27-13:17:23.799631,261.6861536000506,261.98635930003366,261.6861536000506,None,None,261.6861536000506,None,262.48652968005626,None,,,22052,0001,2023_Mar_27_1313,localizer,2021.1.3,59.96706609482581,
block,scrambled,scrambled068.bmp,,,,,0,21,21,21,,,,,,,,,,,,,,,,,,,,,,,,,,,,,,,,,,,,,,,,,,None,,262.48652968005626,None,262.48652968005626,None,2023-03-27-13:17:24.615871,262.4974650000222,262.80332100001397,262.4974650000222,None,None,262.4974650000222,None,263.30307208004524,None,,,22052,0001,2023_Mar_27_1313,localizer,2021.1.3,59.96706609482581,
block,scrambled,scrambled026.bmp,,,,,0,22,22,22,,,,,,,,,,,,,,,,,,,,,,,,,,,,,,,,,,,,,,,,,,None,,263.30307208004524,None,263.30307208004524,None,2023-03-27-13:17:25.432422,263.318163500051,263.6195316000376,263.318163500051,None,None,263.318163500051,None,264.1200802800304,None,,,22052,0001,2023_Mar_27_1313,localizer,2021.1.3,59.96706609482581,
block,scrambled,scrambled017.bmp,,,,,0,23,23,23,,,,,,,,,,,,,,,,,,,,,,,,,,,,,,,,,,,,,,,,,,None,,264.1200802800304,None,264.1200802800304,None,2023-03-27-13:17:26.249440,264.1351392000215,264.43610200000694,264.1351392000215,None,None,264.1351392000215,None,264.9365509800555,None,,,22052,0001,2023_Mar_27_1313,localizer,2021.1.3,59.96706609482581,
block,scrambled,scrambled074.bmp,,,,,0,24,24,24,,,,,,,,,,,,,,,,,,,,,,,,,,,,,,,,,,,,,,,,,,None,,264.9365509800555,None,264.9365509800555,None,2023-03-27-13:17:27.066101,264.951690100017,265.2530432000058,264.951690100017,None,None,264.951690100017,None,265.7537936800218,None,,,22052,0001,2023_Mar_27_1313,localizer,2021.1.3,59.96706609482581,
block,scrambled,scrambled059.bmp,,,,,0,25,25,25,,,,,,,,,,,,,,,,,,,,,,,,,,,,,,,,,,,,,,,,,,None,,265.7537936800218,None,265.7537936800218,None,2023-03-27-13:17:27.885015,265.77139840001473,266.0862875000457,265.77139840001473,None,None,265.77139840001473,None,266.56964138001786,None,,,22052,0001,2023_Mar_27_1313,localizer,2021.1.3,59.96706609482581,
block,scrambled,scrambled033.bmp,,,,,0,26,26,26,,,,,,,,,,,,,,,,,,,,,,,,,,,,,,,,,,,,,,,,,,None,,266.56964138001786,None,266.56964138001786,None,2023-03-27-13:17:28.698023,266.579616300005,266.8865987000172,266.579616300005,None,None,266.579616300005,None,267.38590378002846,None,,,22052,0001,2023_Mar_27_1313,localizer,2021.1.3,59.96706609482581,
block,scrambled,scrambled079.bmp,,,,,0,27,27,27,,,,,,,,,,,,,,,,,,,,,,,,,,,,,,,,,,,,,,,,,,None,,267.38590378002846,None,267.38590378002846,None,2023-03-27-13:17:29.514500,267.3998400000273,267.7033705000067,267.3998400000273,None,None,267.3998400000273,None,268.2028834800294,None,,,22052,0001,2023_Mar_27_1313,localizer,2021.1.3,59.96706609482581,
block,scrambled,scrambled036.bmp,,,,,0,28,28,28,,,,,,,,,,,,,,,,,,,,,,,,,,,,,,,,,,,,,,,,,,None,,268.2028834800294,None,268.2028834800294,None,2023-03-27-13:17:30.331277,268.21632770000724,268.5197271000361,268.21632770000724,None,None,268.21632770000724,None,269.01953698004945,None,,,22052,0001,2023_Mar_27_1313,localizer,2021.1.3,59.96706609482581,
block,scrambled,scrambled070.bmp,,,,,0,29,29,29,,,,,,,,,,,,,,,,,,,,,,,,,,,,,,,,,,,,,,,,,,None,,269.01953698004945,None,269.01953698004945,None,2023-03-27-13:17:31.147937,269.032241900044,269.3365082000382,269.032241900044,None,None,269.032241900044,None,269.8361578800541,None,,,22052,0001,2023_Mar_27_1313,localizer,2021.1.3,59.96706609482581,
block_end,scrambled,scrambled031.bmp,,,,,0,30,30,30,,,,,,,,,,,,,,,,,,,,,,,,,,,,,,,,,,,,,,,,,,None,,269.8361578800541,None,269.8361578800541,None,2023-03-27-13:17:31.964561,269.8501460000407,270.15315910003847,269.8501460000407,None,None,269.8501460000407,None,270.65401388003374,None,,,22052,0001,2023_Mar_27_1313,localizer,2021.1.3,59.96706609482581,
block_start,objects,objects073.bmp,,,,,0,31,31,31,,,,,,,,,,,,,,,,,,,,,,,,,,,,,,,,,,,,,,,,,,t,1.7224081000313163,270.65427190001355,None,270.65427190001355,None,2023-03-27-13:17:34.539551,272.42697830003453,272.73673190001864,272.42697830003453,None,None,272.42697830003453,None,273.21976968002855,None,,,22052,0001,2023_Mar_27_1313,localizer,2021.1.3,59.96706609482581,
block,objects,objects050.bmp,,,,,0,32,32,32,,,,,,,,,,,,,,,,,,,,,,,,,,,,,,,,,,,,,,,,,,None,,273.21976968002855,None,273.21976968002855,None,2023-03-27-13:17:35.348371,273.23360160004813,273.5365725000156,273.23360160004813,None,None,273.23360160004813,None,274.0363260800077,None,,,22052,0001,2023_Mar_27_1313,localizer,2021.1.3,59.96706609482581,
block,objects,objects050.bmp,,,,,0,33,33,33,,,,,,,,,,,,,,,,,,,,,,,,,,,,,,,,,,,,,,,,,,None,,274.0363260800077,None,274.0363260800077,None,2023-03-27-13:17:36.164757,274.03730950003956,274.336895800021,274.03730950003956,None,None,274.03730950003956,None,274.8366266800149,None,,,22052,0001,2023_Mar_27_1313,localizer,2021.1.3,59.96706609482581,
block,objects,objects012.bmp,,,,,0,34,34,34,,,,,,,,,,,,,,,,,,,,,,,,,,,,,,,,,,,,,,,,,,None,,274.8366266800149,None,274.8366266800149,None,2023-03-27-13:17:36.968243,274.8541801000247,275.16978019999806,274.8541801000247,274.8541801000247,None,274.8541801000247,274.8541801000247,275.6532080800098,None,,,22052,0001,2023_Mar_27_1313,localizer,2021.1.3,59.96706609482581,
block,objects,objects067.bmp,,,,,0,35,35,35,,,,,,,,,,,,,,,,,,,,,,,,,,,,,,,,,,,,,,,,,,None,,275.6532080800098,None,275.6532080800098,None,2023-03-27-13:17:37.782687,275.667207600025,275.96997500001453,275.667207600025,None,None,275.667207600025,None,276.4695123800484,None,,,22052,0001,2023_Mar_27_1313,localizer,2021.1.3,59.96706609482581,
block,objects,objects070.bmp,,,,,0,36,36,36,,,,,,,,,,,,,,,,,,,,,,,,,,,,,,,,,,,,,,,,,,None,,276.4695123800484,None,276.4695123800484,None,2023-03-27-13:17:38.597966,276.48153720004484,276.78651630005334,276.48153720004484,None,None,276.48153720004484,None,277.28621288001887,None,,,22052,0001,2023_Mar_27_1313,localizer,2021.1.3,59.96706609482581,
block,objects,objects034.bmp,,,,,0,37,37,37,,,,,,,,,,,,,,,,,,,,,,,,,,,,,,,,,,,,,,,,,,None,,277.28621288001887,None,277.28621288001887,None,2023-03-27-13:17:39.414669,277.29945980000775,277.6033082000213,277.29945980000775,None,None,277.29945980000775,None,278.10327397999936,None,,,22052,0001,2023_Mar_27_1313,localizer,2021.1.3,59.96706609482581,
block,objects,objects016.bmp,,,,,0,38,38,38,,,,,,,,,,,,,,,,,,,,,,,,,,,,,,,,,,,,,,,,,,None,,278.10327397999936,None,278.10327397999936,None,2023-03-27-13:17:40.232678,278.1180923000211,278.4202207000344,278.1180923000211,None,None,278.1180923000211,None,278.91980678003165,None,,,22052,0001,2023_Mar_27_1313,localizer,2021.1.3,59.96706609482581,
block,objects,objects007.bmp,,,,,0,39,39,39,,,,,,,,,,,,,,,,,,,,,,,,,,,,,,,,,,,,,,,,,,None,,278.91980678003165,None,278.91980678003165,None,2023-03-27-13:17:41.049265,278.9329117000452,279.236566400039,278.9329117000452,None,None,278.9329117000452,None,279.73622288004844,None,,,22052,0001,2023_Mar_27_1313,localizer,2021.1.3,59.96706609482581,
block,objects,objects003.bmp,,,,,0,40,40,40,,,,,,,,,,,,,,,,,,,,,,,,,,,,,,,,,,,,,,,,,,None,,279.73622288004844,None,279.73622288004844,None,2023-03-27-13:17:41.865692,279.7503033000394,280.05327990005026,279.7503033000394,None,None,279.7503033000394,None,280.55306298003416,None,,,22052,0001,2023_Mar_27_1313,localizer,2021.1.3,59.96706609482581,
block,objects,objects004.bmp,,,,,0,41,41,41,,,,,,,,,,,,,,,,,,,,,,,,,,,,,,,,,,,,,,,,,,None,,280.55306298003416,None,280.55306298003416,None,2023-03-27-13:17:42.681539,280.56690990005154,280.86973020003643,280.56690990005154,None,None,280.56690990005154,None,281.3761899800447,None,,,22052,0001,2023_Mar_27_1313,localizer,2021.1.3,59.96706609482581,
block,objects,objects081.bmp,,,,,0,42,42,42,,,,,,,,,,,,,,,,,,,,,,,,,,,,,,,,,,,,,,,,,,None,,281.3761899800447,None,281.3761899800447,None,2023-03-27-13:17:43.511393,281.39669950003736,281.70308370003477,281.39669950003736,None,None,281.39669950003736,None,282.186680080049,None,,,22052,0001,2023_Mar_27_1313,localizer,2021.1.3,59.96706609482581,
block,objects,objects024.bmp,,,,,0,43,43,43,,,,,,,,,,,,,,,,,,,,,,,,,,,,,,,,,,,,,,,,,,None,,282.186680080049,None,282.186680080049,None,2023-03-27-13:17:44.316192,282.2003419000539,282.5032633000519,282.2003419000539,None,None,282.2003419000539,None,283.00280648001353,None,,,22052,0001,2023_Mar_27_1313,localizer,2021.1.3,59.96706609482581,
block,objects,objects008.bmp,,,,,0,44,44,44,,,,,,,,,,,,,,,,,,,,,,,,,,,,,,,,,,,,,,,,,,None,,283.00280648001353,None,283.00280648001353,None,2023-03-27-13:17:45.131306,283.0159503000323,283.31989840004826,283.0159503000323,None,None,283.0159503000323,None,283.8196358800342,None,,,22052,0001,2023_Mar_27_1313,localizer,2021.1.3,59.96706609482581,
block_end,objects,objects010.bmp,,,,,0,45,45,45,,,,,,,,,,,,,,,,,,,,,,,,,,,,,,,,,,,,,,,,,,None,,283.8196358800342,None,283.8196358800342,None,2023-03-27-13:17:45.948352,283.8330426000175,284.1365384000237,283.8330426000175,None,None,283.8330426000175,None,284.6363158800232,None,,,22052,0001,2023_Mar_27_1313,localizer,2021.1.3,59.96706609482581,
block_start,faces,faces078.bmp,,,,,0,46,46,46,,,,,,,,,,,,,,,,,,,,,,,,,,,,,,,,,,,,,,,,,,t,1.7396780999843031,284.6366528000217,None,284.6366528000217,None,2023-03-27-13:17:48.531453,286.4136993000284,286.72014470002614,286.4136993000284,None,None,286.4136993000284,None,287.2201446800318,None,,,22052,0001,2023_Mar_27_1313,localizer,2021.1.3,59.96706609482581,
block,faces,faces007.bmp,,,,,0,47,47,47,,,,,,,,,,,,,,,,,,,,,,,,,,,,,,,,,,,,,,,,,,None,,287.2201446800318,None,287.2201446800318,None,2023-03-27-13:17:49.349660,287.23602370003937,287.53654650005046,287.23602370003937,None,None,287.23602370003937,None,288.03584118004073,None,,,22052,0001,2023_Mar_27_1313,localizer,2021.1.3,59.96706609482581,
block,faces,faces089.bmp,,,,,0,48,48,48,,,,,,,,,,,,,,,,,,,,,,,,,,,,,,,,,,,,,,,,,,None,,288.03584118004073,None,288.03584118004073,None,2023-03-27-13:17:50.164378,288.0484701000387,288.35399210004834,288.0484701000387,None,None,288.0484701000387,None,288.8517269800359,None,,,22052,0001,2023_Mar_27_1313,localizer,2021.1.3,59.96706609482581,
block,faces,faces044.bmp,,,,,0,49,49,49,,,,,,,,,,,,,,,,,,,,,,,,,,,,,,,,,,,,,,,,,,None,,288.8517269800359,None,288.8517269800359,None,2023-03-27-13:17:50.980426,288.8642864000285,289.1698350000079,288.8642864000285,None,None,288.8642864000285,None,289.6695556800405,None,,,22052,0001,2023_Mar_27_1313,localizer,2021.1.3,59.96706609482581,
block,faces,faces085.bmp,,,,,0,50,50,50,,,,,,,,,,,,,,,,,,,,,,,,,,,,,,,,,,,,,,,,,,None,,289.6695556800405,None,289.6695556800405,None,2023-03-27-13:17:51.798098,289.6830776000279,289.98655000003055,289.6830776000279,None,None,289.6830776000279,None,290.48644798001624,None,,,22052,0001,2023_Mar_27_1313,localizer,2021.1.3,59.96706609482581,
block,faces,faces014.bmp,,,,,0,51,51,51,,,,,,,,,,,,,,,,,,,,,,,,,,,,,,,,,,,,,,,,,,None,,290.48644798001624,None,290.48644798001624,None,2023-03-27-13:17:52.615014,290.5005257000448,290.8033284000121,290.5005257000448,None,None,290.5005257000448,None,291.30364228002145,None,,,22052,0001,2023_Mar_27_1313,localizer,2021.1.3,59.96706609482581,
block,faces,faces058.bmp,,,,,0,52,52,52,,,,,,,,,,,,,,,,,,,,,,,,,,,,,,,,,,,,,,,,,,None,,291.30364228002145,None,291.30364228002145,None,2023-03-27-13:17:53.432206,291.3167211000109,291.6199240999995,291.3167211000109,None,None,291.3167211000109,None,292.1197735800233,None,,,22052,0001,2023_Mar_27_1313,localizer,2021.1.3,59.96706609482581,
block,faces,faces034.bmp,,,,,0,53,53,53,,,,,,,,,,,,,,,,,,,,,,,,,,,,,,,,,,,,,,,,,,None,,292.1197735800233,None,292.1197735800233,None,2023-03-27-13:17:54.248553,292.1345939000021,292.43641300004674,292.1345939000021,None,None,292.1345939000021,None,292.9383476799994,None,,,22052,0001,2023_Mar_27_1313,localizer,2021.1.3,59.96706609482581,
block,faces,faces038.bmp,,,,,0,54,54,54,,,,,,,,,,,,,,,,,,,,,,,,,,,,,,,,,,,,,,,,,,None,,292.9383476799994,None,292.9383476799994,None,2023-03-27-13:17:55.071047,292.9624560000375,293.27002430002904,292.9624560000375,None,None,292.9624560000375,None,293.7530859800463,None,,,22052,0001,2023_Mar_27_1313,localizer,2021.1.3,59.96706609482581,
block,faces,faces055.bmp,,,,,0,55,55,55,,,,,,,,,,,,,,,,,,,,,,,,,,,,,,,,,,,,,,,,,,None,,293.7530859800463,None,293.7530859800463,None,2023-03-27-13:17:55.881660,293.7669466000516,294.06990950001637,293.7669466000516,None,None,293.7669466000516,None,294.5702006800275,None,,,22052,0001,2023_Mar_27_1313,localizer,2021.1.3,59.96706609482581,
block,faces,faces026.bmp,,,,,0,56,56,56,,,,,,,,,,,,,,,,,,,,,,,,,,,,,,,,,,,,,,,,,,None,,294.5702006800275,None,294.5702006800275,None,2023-03-27-13:17:56.699765,294.62003079999704,294.9200251000002,294.62003079999704,None,None,294.62003079999704,None,295.38683808004134,None,,,22052,0001,2023_Mar_27_1313,localizer,2021.1.3,59.96706609482581,
block,faces,faces045.bmp,,,,,0,57,57,57,,,,,,,,,,,,,,,,,,,,,,,,,,,,,,,,,,,,,,,,,,None,,295.38683808004134,None,295.38683808004134,None,2023-03-27-13:17:57.516411,295.40120730001945,295.7033367000404,295.40120730001945,None,None,295.40120730001945,None,296.20309888003976,None,,,22052,0001,2023_Mar_27_1313,localizer,2021.1.3,59.96706609482581,
block,faces,faces031.bmp,,,,,0,58,58,58,,,,,,,,,,,,,,,,,,,,,,,,,,,,,,,,,,,,,,,,,,None,,296.20309888003976,None,296.20309888003976,None,2023-03-27-13:17:58.331690,296.21547360002296,296.5202249000431,296.21547360002296,None,None,296.21547360002296,None,297.01994008003385,None,,,22052,0001,2023_Mar_27_1313,localizer,2021.1.3,59.96706609482581,
block,faces,faces062.bmp,,,,,0,59,59,59,,,,,,,,,,,,,,,,,,,,,,,,,,,,,,,,,,,,,,,,,,None,,297.01994008003385,None,297.01994008003385,None,2023-03-27-13:17:59.148732,297.03376880002907,297.33637410000665,297.03376880002907,None,None,297.03376880002907,None,297.8364987800305,None,,,22052,0001,2023_Mar_27_1313,localizer,2021.1.3,59.96706609482581,
block_end,faces,faces080.bmp,,,,,0,60,60,60,,,,,,,,,,,,,,,,,,,,,,,,,,,,,,,,,,,,,,,,,,None,,297.8364987800305,None,297.8364987800305,None,2023-03-27-13:17:59.965329,297.8537787999958,298.15447140001925,297.8537787999958,None,None,297.8537787999958,None,298.652876880049,None,,,22052,0001,2023_Mar_27_1313,localizer,2021.1.3,59.96706609482581,
block_start,scrambled,scrambled031.bmp,,,,,0,61,61,61,,,,,,,,,,,,,,,,,,,,,,,,,,,,,,,,,,,,,,,,,,t,1.723273700044956,298.6530333000119,None,298.6530333000119,None,2023-03-27-13:18:02.533401,300.40686690004077,300.71994000003906,300.40686690004077,None,None,300.40686690004077,None,301.219881780009,None,,,22052,0001,2023_Mar_27_1313,localizer,2021.1.3,59.96706609482581,
block,scrambled,scrambled075.bmp,,,,,0,62,62,62,,,,,,,,,,,,,,,,,,,,,,,,,,,,,,,,,,,,,,,,,,None,,301.219881780009,None,301.219881780009,None,2023-03-27-13:18:03.348714,301.2337993000401,301.53651679999894,301.2337993000401,None,None,301.2337993000401,None,302.03677208002773,None,,,22052,0001,2023_Mar_27_1313,localizer,2021.1.3,59.96706609482581,
block,scrambled,scrambled003.bmp,,,,,0,63,63,63,,,,,,,,,,,,,,,,,,,,,,,,,,,,,,,,,,,,,,,,,,None,,302.03677208002773,None,302.03677208002773,None,2023-03-27-13:18:04.166393,302.05157020001207,302.3533304000157,302.05157020001207,None,None,302.05157020001207,None,302.85329758000444,None,,,22052,0001,2023_Mar_27_1313,localizer,2021.1.3,59.96706609482581,
block,scrambled,scrambled025.bmp,,,,,0,64,64,64,,,,,,,,,,,,,,,,,,,,,,,,,,,,,,,,,,,,,,,,,,None,,302.85329758000444,None,302.85329758000444,None,2023-03-27-13:18:04.982146,302.8671427000081,303.17063040001085,302.8671427000081,None,None,302.8671427000081,None,303.6702228800568,None,,,22052,0001,2023_Mar_27_1313,localizer,2021.1.3,59.96706609482581,
block,scrambled,scrambled063.bmp,,,,,0,65,65,65,,,,,,,,,,,,,,,,,,,,,,,,,,,,,,,,,,,,,,,,,,None,,303.6702228800568,None,303.6702228800568,None,2023-03-27-13:18:05.799853,303.6853018000256,303.98665299999993,303.6853018000256,None,None,303.6853018000256,None,304.4863549800066,None,,,22052,0001,2023_Mar_27_1313,localizer,2021.1.3,59.96706609482581,
block,scrambled,scrambled066.bmp,,,,,0,66,66,66,,,,,,,,,,,,,,,,,,,,,,,,,,,,,,,,,,,,,,,,,,None,,304.4863549800066,None,304.4863549800066,None,2023-03-27-13:18:06.615005,304.48729980003554,304.7881011000136,304.48729980003554,None,None,304.48729980003554,None,305.28760748004424,None,,,22052,0001,2023_Mar_27_1313,localizer,2021.1.3,59.96706609482581,
block,scrambled,scrambled079.bmp,,,,,0,67,67,67,,,,,,,,,,,,,,,,,,,,,,,,,,,,,,,,,,,,,,,,,,None,,305.28760748004424,None,305.28760748004424,None,2023-03-27-13:18:07.422229,305.2940378000494,305.60354140005074,305.2940378000494,305.2940378000494,None,305.2940378000494,305.2940378000494,306.10329318002914,None,,,22052,0001,2023_Mar_27_1313,localizer,2021.1.3,59.96706609482581,
block,scrambled,scrambled018.bmp,,,,,0,68,68,68,,,,,,,,,,,,,,,,,,,,,,,,,,,,,,,,,,,,,,,,,,None,,306.10329318002914,None,306.10329318002914,None,2023-03-27-13:18:08.233142,306.1168714000378,306.4200673000305,306.1168714000378,None,None,306.1168714000378,None,306.91989478000323,None,,,22052,0001,2023_Mar_27_1313,localizer,2021.1.3,59.96706609482581,
block,scrambled,scrambled004.bmp,,,,,0,69,69,69,,,,,,,,,,,,,,,,,,,,,,,,,,,,,,,,,,,,,,,,,,None,,306.91989478000323,None,306.91989478000323,None,2023-03-27-13:18:09.048773,306.93209900002694,307.2362969000242,306.93209900002694,None,None,306.93209900002694,None,307.73655688003055,None,,,22052,0001,2023_Mar_27_1313,localizer,2021.1.3,59.96706609482581,
block,scrambled,scrambled036.bmp,,,,,0,70,70,70,,,,,,,,,,,,,,,,,,,,,,,,,,,,,,,,,,,,,,,,,,None,,307.73655688003055,None,307.73655688003055,None,2023-03-27-13:18:09.865604,307.73773240001174,308.0372568000457,307.73773240001174,None,None,307.73773240001174,None,308.5370975800033,None,,,22052,0001,2023_Mar_27_1313,localizer,2021.1.3,59.96706609482581,
block,scrambled,scrambled058.bmp,,,,,0,71,71,71,,,,,,,,,,,,,,,,,,,,,,,,,,,,,,,,,,,,,,,,,,None,,308.5370975800033,None,308.5370975800033,None,2023-03-27-13:18:10.668951,308.54922440001974,308.8567019000184,308.54922440001974,308.54922440001974,None,308.54922440001974,308.54922440001974,309.3526285800326,None,,,22052,0001,2023_Mar_27_1313,localizer,2021.1.3,59.96706609482581,
block,scrambled,scrambled045.bmp,,,,,0,72,72,72,,,,,,,,,,,,,,,,,,,,,,,,,,,,,,,,,,,,,,,,,,None,,309.3526285800326,None,309.3526285800326,None,2023-03-27-13:18:11.481580,309.3646685000276,309.67019289999735,309.3646685000276,None,None,309.3646685000276,None,310.17016048004734,None,,,22052,0001,2023_Mar_27_1313,localizer,2021.1.3,59.96706609482581,
block,scrambled,scrambled028.bmp,,,,,0,73,73,73,,,,,,,,,,,,,,,,,,,,,,,,,,,,,,,,,,,,,,,,,,None,,310.17016048004734,None,310.17016048004734,None,2023-03-27-13:18:12.300041,310.18413390003843,310.48678590002237,310.18413390003843,None,None,310.18413390003843,None,310.9864358800405,None,,,22052,0001,2023_Mar_27_1313,localizer,2021.1.3,59.96706609482581,
block,scrambled,scrambled064.bmp,,,,,0,74,74,74,,,,,,,,,,,,,,,,,,,,,,,,,,,,,,,,,,,,,,,,,,None,,310.9864358800405,None,310.9864358800405,None,2023-03-27-13:18:13.115069,311.0000634000171,311.30351970001357,311.0000634000171,None,None,311.0000634000171,None,311.8032631800452,None,,,22052,0001,2023_Mar_27_1313,localizer,2021.1.3,59.96706609482581,
block_end,scrambled,scrambled055.bmp,,,,,0,75,75,75,,,,,,,,,,,,,,,,,,,,,,,,,,,,,,,,,,,,,,,,,,None,,311.8032631800452,None,311.8032631800452,None,2023-03-27-13:18:13.931951,311.8043142000097,312.1202782000182,311.8043142000097,None,None,311.8043142000097,None,312.6038068800408,None,,,22052,0001,2023_Mar_27_1313,localizer,2021.1.3,59.96706609482581,
null_block,null_block,null_block.bmp,,,,,0,76,76,76,,,,,,,,,,,,,,,,,,,,,,,,,,,,,,,,,,,,,,,,,,t,1.7714044000022113,312.6047867000452,None,312.6047867000452,None,2023-03-27-13:18:16.533286,314.40360218004207,None,314.40360218004207,None,None,314.40360218004207,None,314.41060480003944,None,,,22052,0001,2023_Mar_27_1313,localizer,2021.1.3,59.96706609482581,
block_start,objects,objects078.bmp,,,,,0,77,77,77,,,,,,,,,,,,,,,,,,,,,,,,,,,,,,,,,,,,,,,,,,t,1.952057899965439,326.42346780002117,None,326.42346780002117,None,2023-03-27-13:18:30.533823,328.4173351000063,328.7199857000378,328.4173351000063,None,None,328.4173351000063,None,329.22013548001996,None,,,22052,0001,2023_Mar_27_1313,localizer,2021.1.3,59.96706609482581,
block,objects,objects085.bmp,,,,,0,78,78,78,,,,,,,,,,,,,,,,,,,,,,,,,,,,,,,,,,,,,,,,,,None,,329.22013548001996,None,329.22013548001996,None,2023-03-27-13:18:31.349100,329.2341243000119,329.53665100003127,329.2341243000119,None,None,329.2341243000119,None,330.0375871800061,None,,,22052,0001,2023_Mar_27_1313,localizer,2021.1.3,59.96706609482581,
block,objects,objects015.bmp,,,,,0,79,79,79,,,,,,,,,,,,,,,,,,,,,,,,,,,,,,,,,,,,,,,,,,None,,330.0375871800061,None,330.0375871800061,None,2023-03-27-13:18:32.167314,330.05331869999645,330.35352250002325,330.05331869999645,None,None,330.05331869999645,None,330.8533025800425,None,,,22052,0001,2023_Mar_27_1313,localizer,2021.1.3,59.96706609482581,
block,objects,objects017.bmp,,,,,0,80,80,80,,,,,,,,,,,,,,,,,,,,,,,,,,,,,,,,,,,,,,,,,,None,,330.8533025800425,None,330.8533025800425,None,2023-03-27-13:18:32.981759,330.8668105000397,331.17026220000116,330.8668105000397,None,None,330.8668105000397,None,331.6699882800167,None,,,22052,0001,2023_Mar_27_1313,localizer,2021.1.3,59.96706609482581,
block,objects,objects065.bmp,,,,,0,81,81,81,,,,,,,,,,,,,,,,,,,,,,,,,,,,,,,,,,,,,,,,,,None,,331.6699882800167,None,331.6699882800167,None,2023-03-27-13:18:33.798733,331.68346400000155,331.9870875000488,331.68346400000155,None,None,331.68346400000155,None,332.4866702800209,None,,,22052,0001,2023_Mar_27_1313,localizer,2021.1.3,59.96706609482581,
block,objects,objects041.bmp,,,,,0,82,82,82,,,,,,,,,,,,,,,,,,,,,,,,,,,,,,,,,,,,,,,,,,None,,332.4866702800209,None,332.4866702800209,None,2023-03-27-13:18:34.615422,332.5001990000019,332.80356190004386,332.5001990000019,None,None,332.5001990000019,None,333.3033512800175,None,,,22052,0001,2023_Mar_27_1313,localizer,2021.1.3,59.96706609482581,
block,objects,objects005.bmp,,,,,0,83,83,83,,,,,,,,,,,,,,,,,,,,,,,,,,,,,,,,,,,,,,,,,,None,,333.3033512800175,None,333.3033512800175,None,2023-03-27-13:18:35.432356,333.3173853000044,333.6203800000367,333.3173853000044,None,None,333.3173853000044,None,334.11998338004923,None,,,22052,0001,2023_Mar_27_1313,localizer,2021.1.3,59.96706609482581,
block,objects,objects082.bmp,,,,,0,84,84,84,,,,,,,,,,,,,,,,,,,,,,,,,,,,,,,,,,,,,,,,,,None,,334.11998338004923,None,334.11998338004923,None,2023-03-27-13:18:36.248951,334.1333378000418,334.436867100012,334.1333378000418,None,None,334.1333378000418,None,334.9363964800432,None,,,22052,0001,2023_Mar_27_1313,localizer,2021.1.3,59.96706609482581,
block,objects,objects060.bmp,,,,,0,85,85,85,,,,,,,,,,,,,,,,,,,,,,,,,,,,,,,,,,,,,,,,,,None,,334.9363964800432,None,334.9363964800432,None,2023-03-27-13:18:37.065441,334.94849390001036,335.253413700033,334.94849390001036,None,None,334.94849390001036,None,335.75347348002833,None,,,22052,0001,2023_Mar_27_1313,localizer,2021.1.3,59.96706609482581,
block,objects,objects062.bmp,,,,,0,86,86,86,,,,,,,,,,,,,,,,,,,,,,,,,,,,,,,,,,,,,,,,,,None,,335.75347348002833,None,335.75347348002833,None,2023-03-27-13:18:37.882446,335.7666489999974,336.07023680000566,335.7666489999974,None,None,335.7666489999974,None,336.5711157800106,None,,,22052,0001,2023_Mar_27_1313,localizer,2021.1.3,59.96706609482581,
block,objects,objects086.bmp,,,,,0,87,87,87,,,,,,,,,,,,,,,,,,,,,,,,,,,,,,,,,,,,,,,,,,None,,336.5711157800106,None,336.5711157800106,None,2023-03-27-13:18:38.701202,336.5868276000256,336.8869182000053,336.5868276000256,None,None,336.5868276000256,None,337.3865765800292,None,,,22052,0001,2023_Mar_27_1313,localizer,2021.1.3,59.96706609482581,
block,objects,objects084.bmp,,,,,0,88,88,88,,,,,,,,,,,,,,,,,,,,,,,,,,,,,,,,,,,,,,,,,,None,,337.3865765800292,None,337.3865765800292,None,2023-03-27-13:18:39.515346,337.39887230005115,337.7036752999993,337.39887230005115,None,None,337.39887230005115,None,338.20327738000196,None,,,22052,0001,2023_Mar_27_1313,localizer,2021.1.3,59.96706609482581,
block,objects,objects013.bmp,,,,,0,89,89,89,,,,,,,,,,,,,,,,,,,,,,,,,,,,,,,,,,,,,,,,,,None,,338.20327738000196,None,338.20327738000196,None,2023-03-27-13:18:40.332042,338.21518590004416,338.520544500032,338.21518590004416,None,None,338.21518590004416,None,339.0199119800527,None,,,22052,0001,2023_Mar_27_1313,localizer,2021.1.3,59.96706609482581,
block,objects,objects033.bmp,,,,,0,90,90,90,,,,,,,,,,,,,,,,,,,,,,,,,,,,,,,,,,,,,,,,,,None,,339.0199119800527,None,339.0199119800527,None,2023-03-27-13:18:41.148912,339.03333500004373,339.3368920000503,339.03333500004373,None,None,339.03333500004373,None,339.8363459800312,None,,,22052,0001,2023_Mar_27_1313,localizer,2021.1.3,59.96706609482581,
block_end,objects,objects002.bmp,,,,,0,91,91,91,,,,,,,,,,,,,,,,,,,,,,,,,,,,,,,,,,,,,,,,,,None,,339.8363459800312,None,339.8363459800312,None,2023-03-27-13:18:41.965123,339.84864760003984,340.15435730002355,339.84864760003984,None,None,339.84864760003984,None,340.6536310800293,None,,,22052,0001,2023_Mar_27_1313,localizer,2021.1.3,59.96706609482581,
block_start,faces,faces088.bmp,,,,,0,92,92,92,,,,,,,,,,,,,,,,,,,,,,,,,,,,,,,,,,,,,,,,,,t,1.7215476000565104,340.6537942000432,None,340.6537942000432,None,2023-03-27-13:18:44.533105,342.41938650002703,342.7202656000154,342.41938650002703,None,None,342.41938650002703,None,343.2200972800201,None,,,22052,0001,2023_Mar_27_1313,localizer,2021.1.3,59.96706609482581,
block,faces,faces016.bmp,,,,,0,93,93,93,,,,,,,,,,,,,,,,,,,,,,,,,,,,,,,,,,,,,,,,,,None,,343.2200972800201,None,343.2200972800201,None,2023-03-27-13:18:45.348878,343.2354397000163,343.53721690003294,343.2354397000163,None,None,343.2354397000163,None,344.0367565800261,None,,,22052,0001,2023_Mar_27_1313,localizer,2021.1.3,59.96706609482581,
block,faces,faces077.bmp,,,,,0,94,94,94,,,,,,,,,,,,,,,,,,,,,,,,,,,,,,,,,,,,,,,,,,None,,344.0367565800261,None,344.0367565800261,None,2023-03-27-13:18:46.165539,344.0508146000211,344.35491420002654,344.0508146000211,None,None,344.0508146000211,None,344.853102580033,None,,,22052,0001,2023_Mar_27_1313,localizer,2021.1.3,59.96706609482581,
block,faces,faces050.bmp,,,,,0,95,95,95,,,,,,,,,,,,,,,,,,,,,,,,,,,,,,,,,,,,,,,,,,None,,344.853102580033,None,344.853102580033,None,2023-03-27-13:18:46.981706,344.8648802000098,345.17046280001523,344.8648802000098,None,None,344.8648802000098,None,345.6699677800352,None,,,22052,0001,2023_Mar_27_1313,localizer,2021.1.3,59.96706609482581,
block,faces,faces040.bmp,,,,,0,96,96,96,,,,,,,,,,,,,,,,,,,,,,,,,,,,,,,,,,,,,,,,,,None,,345.6699677800352,None,345.6699677800352,None,2023-03-27-13:18:47.798962,345.68014450004557,345.98859960003756,345.68014450004557,None,None,345.68014450004557,None,346.48674338005367,None,,,22052,0001,2023_Mar_27_1313,localizer,2021.1.3,59.96706609482581,
block,faces,faces070.bmp,,,,,0,97,97,97,,,,,,,,,,,,,,,,,,,,,,,,,,,,,,,,,,,,,,,,,,None,,346.48674338005367,None,346.48674338005367,None,2023-03-27-13:18:48.615721,346.501070600003,346.8037194000208,346.501070600003,None,None,346.501070600003,None,347.3046562800009,None,,,22052,0001,2023_Mar_27_1313,localizer,2021.1.3,59.96706609482581,
block,faces,faces022.bmp,,,,,0,98,98,98,,,,,,,,,,,,,,,,,,,,,,,,,,,,,,,,,,,,,,,,,,None,,347.3046562800009,None,347.3046562800009,None,2023-03-27-13:18:49.435533,347.3229041000013,347.63704260002123,347.3229041000013,None,None,347.3229041000013,None,348.1201904800546,None,,,22052,0001,2023_Mar_27_1313,localizer,2021.1.3,59.96706609482581,
block,faces,faces010.bmp,,,,,0,99,99,99,,,,,,,,,,,,,,,,,,,,,,,,,,,,,,,,,,,,,,,,,,None,,348.1201904800546,None,348.1201904800546,None,2023-03-27-13:18:50.248984,348.13428660004865,348.4379403000348,348.13428660004865,None,None,348.13428660004865,None,348.93744028001674,None,,,22052,0001,2023_Mar_27_1313,localizer,2021.1.3,59.96706609482581,
block,faces,faces031.bmp,,,,,0,100,100,100,,,,,,,,,,,,,,,,,,,,,,,,,,,,,,,,,,,,,,,,,,None,,348.93744028001674,None,348.93744028001674,None,2023-03-27-13:18:51.067422,348.9401341000339,349.25398300000234,348.9401341000339,None,None,348.9401341000339,None,349.75444698004867,None,,,22052,0001,2023_Mar_27_1313,localizer,2021.1.3,59.96706609482581,
block,faces,faces030.bmp,,,,,0,101,101,101,,,,,,,,,,,,,,,,,,,,,,,,,,,,,,,,,,,,,,,,,,None,,349.75444698004867,None,349.75444698004867,None,2023-03-27-13:18:51.884893,349.7675403000321,350.070322900021,349.7675403000321,None,None,349.7675403000321,None,350.57019998002215,None,,,22052,0001,2023_Mar_27_1313,localizer,2021.1.3,59.96706609482581,
block,faces,faces086.bmp,,,,,0,102,102,102,,,,,,,,,,,,,,,,,,,,,,,,,,,,,,,,,,,,,,,,,,None,,350.57019998002215,None,350.57019998002215,None,2023-03-27-13:18:52.699003,350.58350560005056,350.8870515000308,350.58350560005056,None,None,350.58350560005056,None,351.38683728003525,None,,,22052,0001,2023_Mar_27_1313,localizer,2021.1.3,59.96706609482581,
block,faces,faces002.bmp,,,,,0,103,103,103,,,,,,,,,,,,,,,,,,,,,,,,,,,,,,,,,,,,,,,,,,None,,351.38683728003525,None,351.38683728003525,None,2023-03-27-13:18:53.515830,351.401972200023,351.70368920004694,351.401972200023,None,None,351.401972200023,None,352.20452398000634,None,,,22052,0001,2023_Mar_27_1313,localizer,2021.1.3,59.96706609482581,
block,faces,faces089.bmp,,,,,0,104,104,104,,,,,,,,,,,,,,,,,,,,,,,,,,,,,,,,,,,,,,,,,,None,,352.20452398000634,None,352.20452398000634,None,2023-03-27-13:18:54.336494,352.2081906000385,352.52037590002874,352.2081906000385,None,None,352.2081906000385,None,353.02019698001095,None,,,22052,0001,2023_Mar_27_1313,localizer,2021.1.3,59.96706609482581,
block,faces,faces026.bmp,,,,,0,105,105,105,,,,,,,,,,,,,,,,,,,,,,,,,,,,,,,,,,,,,,,,,,None,,353.02019698001095,None,353.02019698001095,None,2023-03-27-13:18:55.149238,353.02122630004305,353.33727890002774,353.02122630004305,None,None,353.02122630004305,None,353.8368318800058,None,,,22052,0001,2023_Mar_27_1313,localizer,2021.1.3,59.96706609482581,
block_end,faces,faces065.bmp,,,,,0,106,106,106,,,,,,,,,,,,,,,,,,,,,,,,,,,,,,,,,,,,,,,,,,None,,353.8368318800058,None,353.8368318800058,None,2023-03-27-13:18:55.965938,353.8515503000235,354.1539391000406,353.8515503000235,None,None,353.8515503000235,None,354.6536341800529,None,,,22052,0001,2023_Mar_27_1313,localizer,2021.1.3,59.96706609482581,
block_start,scenes,scenes004.bmp,,,,,0,107,107,107,,,,,,,,,,,,,,,,,,,,,,,,,,,,,,,,,,,,,,,,,,t,1.7214440000243485,354.65384350001113,None,354.65384350001113,None,2023-03-27-13:18:58.535817,356.42751120001776,356.73716840002453,356.42751120001776,None,None,356.42751120001776,None,357.2199490800558,None,,,22052,0001,2023_Mar_27_1313,localizer,2021.1.3,59.96706609482581,
block,scenes,scenes065.bmp,,,,,0,108,108,108,,,,,,,,,,,,,,,,,,,,,,,,,,,,,,,,,,,,,,,,,,None,,357.2199490800558,None,357.2199490800558,None,2023-03-27-13:18:59.348777,357.23301710002124,357.5371785000316,357.23301710002124,None,None,357.23301710002124,None,358.036784380005,None,,,22052,0001,2023_Mar_27_1313,localizer,2021.1.3,59.96706609482581,
block,scenes,scenes065.bmp,,,,,0,109,109,109,,,,,,,,,,,,,,,,,,,,,,,,,,,,,,,,,,,,,,,,,,None,,358.036784380005,None,358.036784380005,None,2023-03-27-13:19:00.165614,358.03791780001484,358.35352170001715,358.03791780001484,None,None,358.03791780001484,None,358.83761998001137,None,,,22052,0001,2023_Mar_27_1313,localizer,2021.1.3,59.96706609482581,
block,scenes,scenes078.bmp,,,,,0,110,110,110,,,,,,,,,,,,,,,,,,,,,,,,,,,,,,,,,,,,,,,,,,None,,358.83761998001137,None,358.83761998001137,None,2023-03-27-13:19:00.970622,358.85789179999847,359.1705623000162,358.85789179999847,358.85789179999847,None,358.85789179999847,358.85789179999847,359.6534851800243,None,,,22052,0001,2023_Mar_27_1313,localizer,2021.1.3,59.96706609482581,
block,scenes,scenes003.bmp,,,,,0,111,111,111,,,,,,,,,,,,,,,,,,,,,,,,,,,,,,,,,,,,,,,,,,None,,359.6534851800243,None,359.6534851800243,None,2023-03-27-13:19:01.782320,359.6678531000507,359.97025080001913,359.6678531000507,None,None,359.6678531000507,None,360.4697369800124,None,,,22052,0001,2023_Mar_27_1313,localizer,2021.1.3,59.96706609482581,
block,scenes,scenes092.bmp,,,,,0,112,112,112,,,,,,,,,,,,,,,,,,,,,,,,,,,,,,,,,,,,,,,,,,None,,360.4697369800124,None,360.4697369800124,None,2023-03-27-13:19:02.599067,360.482238400029,360.78732760000275,360.482238400029,None,None,360.482238400029,None,361.2871457800211,None,,,22052,0001,2023_Mar_27_1313,localizer,2021.1.3,59.96706609482581,
block,scenes,scenes051.bmp,,,,,0,113,113,113,,,,,,,,,,,,,,,,,,,,,,,,,,,,,,,,,,,,,,,,,,None,,361.2871457800211,None,361.2871457800211,None,2023-03-27-13:19:03.417181,361.302900700015,361.6041308999993,361.302900700015,None,None,361.302900700015,None,362.1031095800281,None,,,22052,0001,2023_Mar_27_1313,localizer,2021.1.3,59.96706609482581,
block,scenes,scenes024.bmp,,,,,0,114,114,114,,,,,,,,,,,,,,,,,,,,,,,,,,,,,,,,,,,,,,,,,,None,,362.1031095800281,None,362.1031095800281,None,2023-03-27-13:19:04.232241,362.1148972000228,362.4210680000251,362.1148972000228,None,None,362.1148972000228,None,362.9207020800386,None,,,22052,0001,2023_Mar_27_1313,localizer,2021.1.3,59.96706609482581,
block,scenes,scenes090.bmp,,,,,0,115,115,115,,,,,,,,,,,,,,,,,,,,,,,,,,,,,,,,,,,,,,,,,,None,,362.9207020800386,None,362.9207020800386,None,2023-03-27-13:19:05.050727,362.9358475000481,363.23706770001445,362.9358475000481,None,None,362.9358475000481,None,363.7365724800329,None,,,22052,0001,2023_Mar_27_1313,localizer,2021.1.3,59.96706609482581,
block,scenes,scenes088.bmp,,,,,0,116,116,116,,,,,,,,,,,,,,,,,,,,,,,,,,,,,,,,,,,,,,,,,,None,,363.7365724800329,None,363.7365724800329,None,2023-03-27-13:19:05.865856,363.74892100004945,364.05387880001217,363.74892100004945,None,None,363.74892100004945,None,364.55401978004375,None,,,22052,0001,2023_Mar_27_1313,localizer,2021.1.3,59.96706609482581,
block,scenes,scenes023.bmp,,,,,0,117,117,117,,,,,,,,,,,,,,,,,,,,,,,,,,,,,,,,,,,,,,,,,,None,,364.55401978004375,None,364.55401978004375,None,2023-03-27-13:19:06.684039,364.56910520000383,364.8707530000247,364.56910520000383,None,None,364.56910520000383,None,365.370395880047,None,,,22052,0001,2023_Mar_27_1313,localizer,2021.1.3,59.96706609482581,
block,scenes,scenes081.bmp,,,,,0,118,118,118,,,,,,,,,,,,,,,,,,,,,,,,,,,,,,,,,,,,,,,,,,None,,365.370395880047,None,365.370395880047,None,2023-03-27-13:19:07.499238,365.371251100034,365.6708253000397,365.371251100034,None,None,365.371251100034,None,366.17058068004553,None,,,22052,0001,2023_Mar_27_1313,localizer,2021.1.3,59.96706609482581,
block,scenes,scenes089.bmp,,,,,0,119,119,119,,,,,,,,,,,,,,,,,,,,,,,,,,,,,,,,,,,,,,,,,,None,,366.17058068004553,None,366.17058068004553,None,2023-03-27-13:19:08.302415,366.1822914000368,366.48749120003777,366.1822914000368,366.1822914000368,None,366.1822914000368,366.1822914000368,366.9870571800566,None,,,22052,0001,2023_Mar_27_1313,localizer,2021.1.3,59.96706609482581,
block,scenes,scenes074.bmp,,,,,0,120,120,120,,,,,,,,,,,,,,,,,,,,,,,,,,,,,,,,,,,,,,,,,,None,,366.9870571800566,None,366.9870571800566,None,2023-03-27-13:19:09.117098,367.00109640002484,367.3043012000271,367.00109640002484,None,None,367.00109640002484,None,367.8039013800153,None,,,22052,0001,2023_Mar_27_1313,localizer,2021.1.3,59.96706609482581,
block_end,scenes,scenes015.bmp,,,,,0,121,121,121,,,,,,,,,,,,,,,,,,,,,,,,,,,,,,,,,,,,,,,,,,None,,367.8039013800153,None,367.8039013800153,None,2023-03-27-13:19:09.932768,367.8189888000488,368.12065950001124,367.8189888000488,None,None,367.8189888000488,None,368.6212677800504,None,,,22052,0001,2023_Mar_27_1313,localizer,2021.1.3,59.96706609482581,
block_start,scrambled,scrambled070.bmp,,,,,0,122,122,122,,,,,,,,,,,,,,,,,,,,,,,,,,,,,,,,,,,,,,,,,,t,1.7529098000377417,368.6224035000196,None,368.6224035000196,None,2023-03-27-13:19:12.533060,370.4052176999976,370.7206653000321,370.4052176999976,None,None,370.4052176999976,None,371.20559818003676,None,,,22052,0001,2023_Mar_27_1313,localizer,2021.1.3,59.96706609482581,
block,scrambled,scrambled008.bmp,,,,,0,123,123,123,,,,,,,,,,,,,,,,,,,,,,,,,,,,,,,,,,,,,,,,,,None,,371.20559818003676,None,371.20559818003676,None,2023-03-27-13:19:13.340567,371.22410630004015,371.5375016000471,371.22410630004015,371.22410630004015,None,371.22410630004015,371.22410630004015,372.01970698000514,None,,,22052,0001,2023_Mar_27_1313,localizer,2021.1.3,59.96706609482581,
block,scrambled,scrambled007.bmp,,,,,0,124,124,124,,,,,,,,,,,,,,,,,,,,,,,,,,,,,,,,,,,,,,,,,,None,,372.01970698000514,None,372.01970698000514,None,2023-03-27-13:19:14.148583,372.03143260005163,372.3438565999968,372.03143260005163,None,None,372.03143260005163,None,372.8367205800314,None,,,22052,0001,2023_Mar_27_1313,localizer,2021.1.3,59.96706609482581,
block,scrambled,scrambled030.bmp,,,,,0,125,125,125,,,,,,,,,,,,,,,,,,,,,,,,,,,,,,,,,,,,,,,,,,None,,372.8367205800314,None,372.8367205800314,None,2023-03-27-13:19:14.965600,372.8475820000167,373.1539522000239,372.8475820000167,None,None,372.8475820000167,None,373.6543989800557,None,,,22052,0001,2023_Mar_27_1313,localizer,2021.1.3,59.96706609482581,
block,scrambled,scrambled015.bmp,,,,,0,126,126,126,,,,,,,,,,,,,,,,,,,,,,,,,,,,,,,,,,,,,,,,,,None,,373.6543989800557,None,373.6543989800557,None,2023-03-27-13:19:15.783282,373.66579840000486,373.970752000052,373.66579840000486,None,None,373.66579840000486,None,374.47238458003267,None,,,22052,0001,2023_Mar_27_1313,localizer,2021.1.3,59.96706609482581,
block,scrambled,scrambled013.bmp,,,,,0,127,127,127,,,,,,,,,,,,,,,,,,,,,,,,,,,,,,,,,,,,,,,,,,None,,374.47238458003267,None,374.47238458003267,None,2023-03-27-13:19:16.606282,374.49154650000855,374.803746300051,374.49154650000855,None,None,374.49154650000855,None,375.28604988000006,None,,,22052,0001,2023_Mar_27_1313,localizer,2021.1.3,59.96706609482581,
block,scrambled,scrambled033.bmp,,,,,0,128,128,128,,,,,,,,,,,,,,,,,,,,,,,,,,,,,,,,,,,,,,,,,,None,,375.28604988000006,None,375.28604988000006,None,2023-03-27-13:19:17.415229,375.28840830002446,375.6034264000482,375.28840830002446,None,None,375.28840830002446,None,376.1030187800352,None,,,22052,0001,2023_Mar_27_1313,localizer,2021.1.3,59.96706609482581,
block,scrambled,scrambled037.bmp,,,,,0,129,129,129,,,,,,,,,,,,,,,,,,,,,,,,,,,,,,,,,,,,,,,,,,None,,376.1030187800352,None,376.1030187800352,None,2023-03-27-13:19:18.231388,376.11440580000635,376.41997610003455,376.11440580000635,None,None,376.11440580000635,None,376.9204167800199,None,,,22052,0001,2023_Mar_27_1313,localizer,2021.1.3,59.96706609482581,
block,scrambled,scrambled003.bmp,,,,,0,130,130,130,,,,,,,,,,,,,,,,,,,,,,,,,,,,,,,,,,,,,,,,,,None,,376.9204167800199,None,376.9204167800199,None,2023-03-27-13:19:19.049505,376.9214228000492,377.2374091000529,376.9214228000492,None,None,376.9214228000492,None,377.7371313800395,None,,,22052,0001,2023_Mar_27_1313,localizer,2021.1.3,59.96706609482581,
block,scrambled,scrambled076.bmp,,,,,0,131,131,131,,,,,,,,,,,,,,,,,,,,,,,,,,,,,,,,,,,,,,,,,,None,,377.7371313800395,None,377.7371313800395,None,2023-03-27-13:19:19.866015,377.7465471000178,378.0548058000277,377.7465471000178,None,None,377.7465471000178,None,378.5537556800118,None,,,22052,0001,2023_Mar_27_1313,localizer,2021.1.3,59.96706609482581,
block,scrambled,scrambled002.bmp,,,,,0,132,132,132,,,,,,,,,,,,,,,,,,,,,,,,,,,,,,,,,,,,,,,,,,None,,378.5537556800118,None,378.5537556800118,None,2023-03-27-13:19:20.682643,378.56778179999674,378.87051620002603,378.56778179999674,None,None,378.56778179999674,None,379.3704532800184,None,,,22052,0001,2023_Mar_27_1313,localizer,2021.1.3,59.96706609482581,
block,scrambled,scrambled038.bmp,,,,,0,133,133,133,,,,,,,,,,,,,,,,,,,,,,,,,,,,,,,,,,,,,,,,,,None,,379.3704532800184,None,379.3704532800184,None,2023-03-27-13:19:21.499526,379.3847592000384,379.68992180004716,379.3847592000384,None,None,379.3847592000384,None,380.18807568002376,None,,,22052,0001,2023_Mar_27_1313,localizer,2021.1.3,59.96706609482581,
block,scrambled,scrambled053.bmp,,,,,0,134,134,134,,,,,,,,,,,,,,,,,,,,,,,,,,,,,,,,,,,,,,,,,,None,,380.18807568002376,None,380.18807568002376,None,2023-03-27-13:19:22.318109,380.20372360001784,380.50383880001027,380.20372360001784,None,None,380.20372360001784,None,381.00369278001017,None,,,22052,0001,2023_Mar_27_1313,localizer,2021.1.3,59.96706609482581,
block,scrambled,scrambled086.bmp,,,,,0,135,135,135,,,,,,,,,,,,,,,,,,,,,,,,,,,,,,,,,,,,,,,,,,None,,381.00369278001017,None,381.00369278001017,None,2023-03-27-13:19:23.132588,381.0158980000415,381.32067880005343,381.0158980000415,None,None,381.0158980000415,None,381.8207511800283,None,,,22052,0001,2023_Mar_27_1313,localizer,2021.1.3,59.96706609482581,
block_end,scrambled,scrambled082.bmp,,,,,0,136,136,136,,,,,,,,,,,,,,,,,,,,,,,,,,,,,,,,,,,,,,,,,,None,,381.8207511800283,None,381.8207511800283,None,2023-03-27-13:19:23.951752,381.8357663000352,382.137382200046,381.8357663000352,None,None,381.8357663000352,None,382.63757288004854,None,,,22052,0001,2023_Mar_27_1313,localizer,2021.1.3,59.96706609482581,
block_start,scenes,scenes014.bmp,,,,,0,137,137,137,,,,,,,,,,,,,,,,,,,,,,,,,,,,,,,,,,,,,,,,,,t,1.7377813999773934,382.63773720001336,None,382.63773720001336,None,2023-03-27-13:19:26.531559,384.41548590001184,384.7206928000087,384.41548590001184,None,None,384.41548590001184,None,385.22048138003447,None,,,22052,0001,2023_Mar_27_1313,localizer,2021.1.3,59.96706609482581,
block,scenes,scenes018.bmp,,,,,0,138,138,138,,,,,,,,,,,,,,,,,,,,,,,,,,,,,,,,,,,,,,,,,,None,,385.22048138003447,None,385.22048138003447,None,2023-03-27-13:19:27.349586,385.22987219999777,385.53724820003845,385.22987219999777,None,None,385.22987219999777,None,386.03715958000976,None,,,22052,0001,2023_Mar_27_1313,localizer,2021.1.3,59.96706609482581,
block,scenes,scenes002.bmp,,,,,0,139,139,139,,,,,,,,,,,,,,,,,,,,,,,,,,,,,,,,,,,,,,,,,,None,,386.03715958000976,None,386.03715958000976,None,2023-03-27-13:19:28.165825,386.05008080002153,386.3586089000455,386.05008080002153,None,None,386.05008080002153,None,386.8536976800242,None,,,22052,0001,2023_Mar_27_1313,localizer,2021.1.3,59.96706609482581,
block,scenes,scenes074.bmp,,,,,0,140,140,140,,,,,,,,,,,,,,,,,,,,,,,,,,,,,,,,,,,,,,,,,,None,,386.8536976800242,None,386.8536976800242,None,2023-03-27-13:19:28.982612,386.85492760001216,387.1707922000205,386.85492760001216,None,None,386.85492760001216,None,387.653990980034,None,,,22052,0001,2023_Mar_27_1313,localizer,2021.1.3,59.96706609482581,
block,scenes,scenes050.bmp,,,,,0,141,141,141,,,,,,,,,,,,,,,,,,,,,,,,,,,,,,,,,,,,,,,,,,None,,387.653990980034,None,387.653990980034,None,2023-03-27-13:19:29.784908,387.6693860000232,387.97095970000373,387.6693860000232,387.6693860000232,None,387.6693860000232,387.6693860000232,388.4702113800158,None,,,22052,0001,2023_Mar_27_1313,localizer,2021.1.3,59.96706609482581,
block,scenes,scenes069.bmp,,,,,0,142,142,142,,,,,,,,,,,,,,,,,,,,,,,,,,,,,,,,,,,,,,,,,,None,,388.4702113800158,None,388.4702113800158,None,2023-03-27-13:19:30.599135,388.47919929999625,388.7877081000479,388.47919929999625,None,None,388.47919929999625,None,389.28769848003867,None,,,22052,0001,2023_Mar_27_1313,localizer,2021.1.3,59.96706609482581,
block,scenes,scenes020.bmp,,,,,0,143,143,143,,,,,,,,,,,,,,,,,,,,,,,,,,,,,,,,,,,,,,,,,,None,,389.28769848003867,None,389.28769848003867,None,2023-03-27-13:19:31.417619,389.2900661000167,389.60472840000875,389.2900661000167,None,None,389.2900661000167,None,390.10422428001766,None,,,22052,0001,2023_Mar_27_1313,localizer,2021.1.3,59.96706609482581,
block,scenes,scenes068.bmp,,,,,0,144,144,144,,,,,,,,,,,,,,,,,,,,,,,,,,,,,,,,,,,,,,,,,,None,,390.10422428001766,None,390.10422428001766,None,2023-03-27-13:19:32.234116,390.11847580003086,390.420663100027,390.11847580003086,None,None,390.11847580003086,None,390.92117308001616,None,,,22052,0001,2023_Mar_27_1313,localizer,2021.1.3,59.96706609482581,
block,scenes,scenes058.bmp,,,,,0,145,145,145,,,,,,,,,,,,,,,,,,,,,,,,,,,,,,,,,,,,,,,,,,None,,390.92117308001616,None,390.92117308001616,None,2023-03-27-13:19:33.051085,390.9367391000269,391.23741880001035,390.9367391000269,None,None,390.9367391000269,None,391.73741428003996,None,,,22052,0001,2023_Mar_27_1313,localizer,2021.1.3,59.96706609482581,
block,scenes,scenes054.bmp,,,,,0,146,146,146,,,,,,,,,,,,,,,,,,,,,,,,,,,,,,,,,,,,,,,,,,None,,391.73741428003996,None,391.73741428003996,None,2023-03-27-13:19:33.867318,391.7529386000242,392.05413970001973,391.7529386000242,None,None,391.7529386000242,None,392.55440108003677,None,,,22052,0001,2023_Mar_27_1313,localizer,2021.1.3,59.96706609482581,
block,scenes,scenes010.bmp,,,,,0,147,147,147,,,,,,,,,,,,,,,,,,,,,,,,,,,,,,,,,,,,,,,,,,None,,392.55440108003677,None,392.55440108003677,None,2023-03-27-13:19:34.684296,392.5692959000007,392.87079529999755,392.5692959000007,None,None,392.5692959000007,None,393.3705027800461,None,,,22052,0001,2023_Mar_27_1313,localizer,2021.1.3,59.96706609482581,
block,scenes,scenes078.bmp,,,,,0,148,148,148,,,,,,,,,,,,,,,,,,,,,,,,,,,,,,,,,,,,,,,,,,None,,393.3705027800461,None,393.3705027800461,None,2023-03-27-13:19:35.499479,393.3716712000314,393.6875534999999,393.3716712000314,None,None,393.3716712000314,None,394.1710422800097,None,,,22052,0001,2023_Mar_27_1313,localizer,2021.1.3,59.96706609482581,
block,scenes,scenes081.bmp,,,,,0,149,149,149,,,,,,,,,,,,,,,,,,,,,,,,,,,,,,,,,,,,,,,,,,None,,394.1710422800097,None,394.1710422800097,None,2023-03-27-13:19:36.303043,394.1745071000187,394.48774970002705,394.1745071000187,394.1745071000187,None,394.1745071000187,394.1745071000187,394.9880477800325,None,,,22052,0001,2023_Mar_27_1313,localizer,2021.1.3,59.96706609482581,
block,scenes,scenes072.bmp,,,,,0,150,150,150,,,,,,,,,,,,,,,,,,,,,,,,,,,,,,,,,,,,,,,,,,None,,394.9880477800325,None,394.9880477800325,None,2023-03-27-13:19:37.117971,395.00358220003545,395.30397070001345,395.00358220003545,None,None,395.00358220003545,None,395.803867980052,None,,,22052,0001,2023_Mar_27_1313,localizer,2021.1.3,59.96706609482581,
block_end,scenes,scenes045.bmp,,,,,0,151,151,151,,,,,,,,,,,,,,,,,,,,,,,,,,,,,,,,,,,,,,,,,,None,,395.803867980052,None,395.803867980052,None,2023-03-27-13:19:37.932807,395.81773930002237,396.12036380002974,395.81773930002237,None,None,395.81773930002237,None,396.6215256800351,None,,,22052,0001,2023_Mar_27_1313,localizer,2021.1.3,59.96706609482581,
block_start,faces,faces066.bmp,,,,,0,152,152,152,,,,,,,,,,,,,,,,,,,,,,,,,,,,,,,,,,,,,,,,,,t,1.7535533999907784,396.6218735000002,None,396.6218735000002,None,2023-03-27-13:19:40.532868,398.41756970004644,398.72077650000574,398.41756970004644,None,None,398.41756970004644,None,399.22047028000816,None,,,22052,0001,2023_Mar_27_1313,localizer,2021.1.3,59.96706609482581,
block,faces,faces087.bmp,,,,,0,153,153,153,,,,,,,,,,,,,,,,,,,,,,,,,,,,,,,,,,,,,,,,,,None,,399.22047028000816,None,399.22047028000816,None,2023-03-27-13:19:41.349419,399.2358735000016,399.5372211000067,399.2358735000016,None,None,399.2358735000016,None,400.0369411800348,None,,,22052,0001,2023_Mar_27_1313,localizer,2021.1.3,59.96706609482581,
block,faces,faces052.bmp,,,,,0,154,154,154,,,,,,,,,,,,,,,,,,,,,,,,,,,,,,,,,,,,,,,,,,None,,400.0369411800348,None,400.0369411800348,None,2023-03-27-13:19:42.165905,400.04967870004475,400.3538673000294,400.04967870004475,None,None,400.04967870004475,None,400.85388148002676,None,,,22052,0001,2023_Mar_27_1313,localizer,2021.1.3,59.96706609482581,
block,faces,faces009.bmp,,,,,0,155,155,155,,,,,,,,,,,,,,,,,,,,,,,,,,,,,,,,,,,,,,,,,,None,,400.85388148002676,None,400.85388148002676,None,2023-03-27-13:19:42.982836,400.86675610003294,401.17105450003874,400.86675610003294,None,None,400.86675610003294,None,401.67040908001945,None,,,22052,0001,2023_Mar_27_1313,localizer,2021.1.3,59.96706609482581,
block,faces,faces067.bmp,,,,,0,156,156,156,,,,,,,,,,,,,,,,,,,,,,,,,,,,,,,,,,,,,,,,,,None,,401.67040908001945,None,401.67040908001945,None,2023-03-27-13:19:43.800362,401.6858682000311,401.98740460001864,401.6858682000311,None,None,401.6858682000311,None,402.48759668003186,None,,,22052,0001,2023_Mar_27_1313,localizer,2021.1.3,59.96706609482581,
block,faces,faces080.bmp,,,,,0,157,157,157,,,,,,,,,,,,,,,,,,,,,,,,,,,,,,,,,,,,,,,,,,None,,402.48759668003186,None,402.48759668003186,None,2023-03-27-13:19:44.617545,402.492091800028,402.803954300005,402.492091800028,None,None,402.492091800028,None,403.3037179800158,None,,,22052,0001,2023_Mar_27_1313,localizer,2021.1.3,59.96706609482581,
block,faces,faces028.bmp,,,,,0,158,158,158,,,,,,,,,,,,,,,,,,,,,,,,,,,,,,,,,,,,,,,,,,None,,403.3037179800158,None,403.3037179800158,None,2023-03-27-13:19:45.432685,403.31461260002106,403.62116560002323,403.31461260002106,None,None,403.31461260002106,None,404.1217864800419,None,,,22052,0001,2023_Mar_27_1313,localizer,2021.1.3,59.96706609482581,
block,faces,faces065.bmp,,,,,0,159,159,159,,,,,,,,,,,,,,,,,,,,,,,,,,,,,,,,,,,,,,,,,,None,,404.1217864800419,None,404.1217864800419,None,2023-03-27-13:19:46.254915,404.1276595000527,404.4376980000525,404.1276595000527,None,None,404.1276595000527,None,404.9379396800359,None,,,22052,0001,2023_Mar_27_1313,localizer,2021.1.3,59.96706609482581,
block,faces,faces048.bmp,,,,,0,160,160,160,,,,,,,,,,,,,,,,,,,,,,,,,,,,,,,,,,,,,,,,,,None,,404.9379396800359,None,404.9379396800359,None,2023-03-27-13:19:47.067891,404.95480680000037,405.27084700000705,404.95480680000037,None,None,404.95480680000037,None,405.75517868003226,None,,,22052,0001,2023_Mar_27_1313,localizer,2021.1.3,59.96706609482581,
block,faces,faces048.bmp,,,,,0,161,161,161,,,,,,,,,,,,,,,,,,,,,,,,,,,,,,,,,,,,,,,,,,None,,405.75517868003226,None,405.75517868003226,None,2023-03-27-13:19:47.887304,405.7590354999993,406.07150100002764,405.7590354999993,None,None,405.7590354999993,None,406.5701807800506,None,,,22052,0001,2023_Mar_27_1313,localizer,2021.1.3,59.96706609482581,
block,faces,faces074.bmp,,,,,0,162,162,162,,,,,,,,,,,,,,,,,,,,,,,,,,,,,,,,,,,,,,,,,,None,,406.5701807800506,None,406.5701807800506,None,2023-03-27-13:19:48.698163,406.57846150000114,406.88789250003174,406.57846150000114,None,None,406.57846150000114,None,407.38708898003097,None,,,22052,0001,2023_Mar_27_1313,localizer,2021.1.3,59.96706609482581,
block,faces,faces070.bmp,,,,,0,163,163,163,,,,,,,,,,,,,,,,,,,,,,,,,,,,,,,,,,,,,,,,,,None,,407.38708898003097,None,407.38708898003097,None,2023-03-27-13:19:49.515975,407.3881961000152,407.68803540000226,407.3881961000152,None,None,407.3881961000152,None,408.18780508000054,None,,,22052,0001,2023_Mar_27_1313,localizer,2021.1.3,59.96706609482581,
block,faces,faces033.bmp,,,,,0,164,164,164,,,,,,,,,,,,,,,,,,,,,,,,,,,,,,,,,,,,,,,,,,None,,408.18780508000054,None,408.18780508000054,None,2023-03-27-13:19:50.319952,408.21254180005053,408.52084550005384,408.21254180005053,408.21254180005053,None,408.21254180005053,408.21254180005053,409.0044755800336,None,,,22052,0001,2023_Mar_27_1313,localizer,2021.1.3,59.96706609482581,
block,faces,faces050.bmp,,,,,0,165,165,165,,,,,,,,,,,,,,,,,,,,,,,,,,,,,,,,,,,,,,,,,,None,,409.0044755800336,None,409.0044755800336,None,2023-03-27-13:19:51.134618,409.0071514000301,409.30856590002077,409.0071514000301,None,None,409.0071514000301,None,409.82019838000997,None,,,22052,0001,2023_Mar_27_1313,localizer,2021.1.3,59.96706609482581,
block_end,faces,faces024.bmp,,,,,0,166,166,166,,,,,,,,,,,,,,,,,,,,,,,,,,,,,,,,,,,,,,,,,,None,,409.82019838000997,None,409.82019838000997,None,2023-03-27-13:19:51.949187,409.833432000014,410.13744800002314,409.833432000014,None,None,409.833432000014,None,410.6370622800023,None,,,22052,0001,2023_Mar_27_1313,localizer,2021.1.3,59.96706609482581,
block_start,objects,objects079.bmp,,,,,0,167,167,167,,,,,,,,,,,,,,,,,,,,,,,,,,,,,,,,,,,,,,,,,,t,1.7380986000061966,410.63737630000105,None,410.63737630000105,None,2023-03-27-13:19:54.532489,412.4156386000104,412.72091230005026,412.4156386000104,None,None,412.4156386000104,None,413.2214641800092,None,,,22052,0001,2023_Mar_27_1313,localizer,2021.1.3,59.96706609482581,
block,objects,objects010.bmp,,,,,0,168,168,168,,,,,,,,,,,,,,,,,,,,,,,,,,,,,,,,,,,,,,,,,,None,,413.2214641800092,None,413.2214641800092,None,2023-03-27-13:19:55.351437,413.22396040003514,413.5370649000397,413.22396040003514,None,None,413.22396040003514,None,414.0368691800104,None,,,22052,0001,2023_Mar_27_1313,localizer,2021.1.3,59.96706609482581,
block,objects,objects040.bmp,,,,,0,169,169,169,,,,,,,,,,,,,,,,,,,,,,,,,,,,,,,,,,,,,,,,,,None,,414.0368691800104,None,414.0368691800104,None,2023-03-27-13:19:56.165462,414.0485591000179,414.3546701000305,414.0485591000179,None,None,414.0485591000179,None,414.8552489800204,None,,,22052,0001,2023_Mar_27_1313,localizer,2021.1.3,59.96706609482581,
block,objects,objects063.bmp,,,,,0,170,170,170,,,,,,,,,,,,,,,,,,,,,,,,,,,,,,,,,,,,,,,,,,None,,414.8552489800204,None,414.8552489800204,None,2023-03-27-13:19:56.988300,414.872592300002,415.1875135000446,414.872592300002,None,None,414.872592300002,None,415.67268308004714,None,,,22052,0001,2023_Mar_27_1313,localizer,2021.1.3,59.96706609482581,
block,objects,objects065.bmp,,,,,0,171,171,171,,,,,,,,,,,,,,,,,,,,,,,,,,,,,,,,,,,,,,,,,,None,,415.67268308004714,None,415.67268308004714,None,2023-03-27-13:19:57.806664,415.67693320004037,415.9879046000424,415.67693320004037,None,None,415.67693320004037,None,416.4767796800297,None,,,22052,0001,2023_Mar_27_1313,localizer,2021.1.3,59.96706609482581,
block,objects,objects028.bmp,,,,,0,172,172,172,,,,,,,,,,,,,,,,,,,,,,,,,,,,,,,,,,,,,,,,,,None,,416.4767796800297,None,416.4767796800297,None,2023-03-27-13:19:58.614646,416.4939140000497,416.80428090004716,416.4939140000497,416.4939140000497,None,416.4939140000497,416.4939140000497,417.288030280004,None,,,22052,0001,2023_Mar_27_1313,localizer,2021.1.3,59.96706609482581,
block,objects,objects020.bmp,,,,,0,173,173,173,,,,,,,,,,,,,,,,,,,,,,,,,,,,,,,,,,,,,,,,,,None,,417.288030280004,None,417.288030280004,None,2023-03-27-13:19:59.418019,417.30383460002486,417.60438070003875,417.30383460002486,None,None,417.30383460002486,None,418.1038828800374,None,,,22052,0001,2023_Mar_27_1313,localizer,2021.1.3,59.96706609482581,
block,objects,objects006.bmp,,,,,0,174,174,174,,,,,,,,,,,,,,,,,,,,,,,,,,,,,,,,,,,,,,,,,,None,,418.1038828800374,None,418.1038828800374,None,2023-03-27-13:20:00.231842,418.11569480004255,418.421021200018,418.11569480004255,None,None,418.11569480004255,None,418.9207372800156,None,,,22052,0001,2023_Mar_27_1313,localizer,2021.1.3,59.96706609482581,
block,objects,objects007.bmp,,,,,0,175,175,175,,,,,,,,,,,,,,,,,,,,,,,,,,,,,,,,,,,,,,,,,,None,,418.9207372800156,None,418.9207372800156,None,2023-03-27-13:20:01.049926,418.921883300005,419.23715670005186,418.921883300005,None,None,418.921883300005,None,419.7265897800389,None,,,22052,0001,2023_Mar_27_1313,localizer,2021.1.3,59.96706609482581,
block,objects,objects035.bmp,,,,,0,176,176,176,,,,,,,,,,,,,,,,,,,,,,,,,,,,,,,,,,,,,,,,,,None,,419.7265897800389,None,419.7265897800389,None,2023-03-27-13:20:01.860645,419.74489440000616,420.0541748999967,419.74489440000616,None,None,419.74489440000616,None,420.537759680039,None,,,22052,0001,2023_Mar_27_1313,localizer,2021.1.3,59.96706609482581,
block,objects,objects060.bmp,,,,,0,177,177,177,,,,,,,,,,,,,,,,,,,,,,,,,,,,,,,,,,,,,,,,,,None,,420.537759680039,None,420.537759680039,None,2023-03-27-13:20:02.667934,420.5387637000531,420.8540662000305,420.5387637000531,None,None,420.5387637000531,None,421.3540789800172,None,,,22052,0001,2023_Mar_27_1313,localizer,2021.1.3,59.96706609482581,
block,objects,objects016.bmp,,,,,0,178,178,178,,,,,,,,,,,,,,,,,,,,,,,,,,,,,,,,,,,,,,,,,,None,,421.3540789800172,None,421.3540789800172,None,2023-03-27-13:20:03.483094,421.35509170003934,421.67121410003165,421.35509170003934,None,None,421.35509170003934,None,422.15436368001974,None,,,22052,0001,2023_Mar_27_1313,localizer,2021.1.3,59.96706609482581,
block,objects,objects031.bmp,,,,,0,179,179,179,,,,,,,,,,,,,,,,,,,,,,,,,,,,,,,,,,,,,,,,,,None,,422.15436368001974,None,422.15436368001974,None,2023-03-27-13:20:04.286370,422.16990780003835,422.4712211000151,422.16990780003835,422.16990780003835,None,422.16990780003835,422.16990780003835,422.9704471800069,None,,,22052,0001,2023_Mar_27_1313,localizer,2021.1.3,59.96706609482581,
block,objects,objects037.bmp,,,,,0,180,180,180,,,,,,,,,,,,,,,,,,,,,,,,,,,,,,,,,,,,,,,,,,None,,422.9704471800069,None,422.9704471800069,None,2023-03-27-13:20:05.099471,422.98258790001273,423.2880807000329,422.98258790001273,None,None,422.98258790001273,None,423.78824028003146,None,,,22052,0001,2023_Mar_27_1313,localizer,2021.1.3,59.96706609482581,
block_end,objects,objects055.bmp,,,,,0,181,181,181,,,,,,,,,,,,,,,,,,,,,,,,,,,,,,,,,,,,,,,,,,None,,423.78824028003146,None,423.78824028003146,None,2023-03-27-13:20:05.918247,423.8039452000521,424.1042124000378,423.8039452000521,None,None,423.8039452000521,None,424.60415988005116,None,,,22052,0001,2023_Mar_27_1313,localizer,2021.1.3,59.96706609482581,
null_block,null_block,null_block.bmp,,,,,0,182,182,182,,,,,,,,,,,,,,,,,,,,,,,,,,,,,,,,,,,,,,,,,,t,1.7709796000272036,424.6044509000494,None,424.6044509000494,None,2023-03-27-13:20:08.532026,426.4038178800547,None,426.4038178800547,None,None,426.4038178800547,None,426.4069178000209,None,,,22052,0001,2023_Mar_27_1313,localizer,2021.1.3,59.96706609482581,
block_start,scenes,scenes059.bmp,,,,,0,183,183,183,,,,,,,,,,,,,,,,,,,,,,,,,,,,,,,,,,,,,,,,,,t,1.955068700015545,438.42043140000897,None,438.42043140000897,None,2023-03-27-13:20:22.533832,440.417034800048,440.7209246000275,440.417034800048,None,None,440.417034800048,None,441.22085398001946,None,,,22052,0001,2023_Mar_27_1313,localizer,2021.1.3,59.96706609482581,
block,scenes,scenes051.bmp,,,,,0,184,184,184,,,,,,,,,,,,,,,,,,,,,,,,,,,,,,,,,,,,,,,,,,None,,441.22085398001946,None,441.22085398001946,None,2023-03-27-13:20:23.350454,441.2219007000094,441.53783470002236,441.2219007000094,None,None,441.2219007000094,None,442.0371110800479,None,,,22052,0001,2023_Mar_27_1313,localizer,2021.1.3,59.96706609482581,
block,scenes,scenes009.bmp,,,,,0,185,185,185,,,,,,,,,,,,,,,,,,,,,,,,,,,,,,,,,,,,,,,,,,None,,442.0371110800479,None,442.0371110800479,None,2023-03-27-13:20:24.166190,442.0386933000409,442.3540941000101,442.0386933000409,None,None,442.0386933000409,None,442.85434638001607,None,,,22052,0001,2023_Mar_27_1313,localizer,2021.1.3,59.96706609482581,
block,scenes,scenes077.bmp,,,,,0,186,186,186,,,,,,,,,,,,,,,,,,,,,,,,,,,,,,,,,,,,,,,,,,None,,442.85434638001607,None,442.85434638001607,None,2023-03-27-13:20:24.983500,442.86423300002934,443.17102520004846,442.86423300002934,None,None,442.86423300002934,None,443.6709051800135,None,,,22052,0001,2023_Mar_27_1313,localizer,2021.1.3,59.96706609482581,
block,scenes,scenes045.bmp,,,,,0,187,187,187,,,,,,,,,,,,,,,,,,,,,,,,,,,,,,,,,,,,,,,,,,None,,443.6709051800135,None,443.6709051800135,None,2023-03-27-13:20:25.799988,443.6719640000374,443.9879048000439,443.6719640000374,None,None,443.6719640000374,None,444.4873952800117,None,,,22052,0001,2023_Mar_27_1313,localizer,2021.1.3,59.96706609482581,
block,scenes,scenes072.bmp,,,,,0,188,188,188,,,,,,,,,,,,,,,,,,,,,,,,,,,,,,,,,,,,,,,,,,None,,444.4873952800117,None,444.4873952800117,None,2023-03-27-13:20:26.616484,444.48860770004103,444.81045360001735,444.48860770004103,None,None,444.48860770004103,None,445.30396028005634,None,,,22052,0001,2023_Mar_27_1313,localizer,2021.1.3,59.96706609482581,
block,scenes,scenes085.bmp,,,,,0,189,189,189,,,,,,,,,,,,,,,,,,,,,,,,,,,,,,,,,,,,,,,,,,None,,445.30396028005634,None,445.30396028005634,None,2023-03-27-13:20:27.433294,445.30536630004644,445.62107550003566,445.30536630004644,None,None,445.30536630004644,None,446.1208111800079,None,,,22052,0001,2023_Mar_27_1313,localizer,2021.1.3,59.96706609482581,
block,scenes,scenes084.bmp,,,,,0,190,190,190,,,,,,,,,,,,,,,,,,,,,,,,,,,,,,,,,,,,,,,,,,None,,446.1208111800079,None,446.1208111800079,None,2023-03-27-13:20:28.249904,446.1292625000351,446.43776460003573,446.1292625000351,None,None,446.1292625000351,None,446.93765988000087,None,,,22052,0001,2023_Mar_27_1313,localizer,2021.1.3,59.96706609482581,
block,scenes,scenes054.bmp,,,,,0,191,191,191,,,,,,,,,,,,,,,,,,,,,,,,,,,,,,,,,,,,,,,,,,None,,446.93765988000087,None,446.93765988000087,None,2023-03-27-13:20:29.066749,446.9386679000454,447.2545699000475,446.9386679000454,None,None,446.9386679000454,None,447.7541356800066,None,,,22052,0001,2023_Mar_27_1313,localizer,2021.1.3,59.96706609482581,
block,scenes,scenes033.bmp,,,,,0,192,192,192,,,,,,,,,,,,,,,,,,,,,,,,,,,,,,,,,,,,,,,,,,None,,447.7541356800066,None,447.7541356800066,None,2023-03-27-13:20:29.883234,447.7664335000445,448.07086550001986,447.7664335000445,None,None,447.7664335000445,None,448.5708248800074,None,,,22052,0001,2023_Mar_27_1313,localizer,2021.1.3,59.96706609482581,
block,scenes,scenes001.bmp,,,,,0,193,193,193,,,,,,,,,,,,,,,,,,,,,,,,,,,,,,,,,,,,,,,,,,None,,448.5708248800074,None,448.5708248800074,None,2023-03-27-13:20:30.699923,448.5835525000002,448.8882913000416,448.5835525000002,None,None,448.5835525000002,None,449.38761368000996,None,,,22052,0001,2023_Mar_27_1313,localizer,2021.1.3,59.96706609482581,
block,scenes,scenes074.bmp,,,,,0,194,194,194,,,,,,,,,,,,,,,,,,,,,,,,,,,,,,,,,,,,,,,,,,None,,449.38761368000996,None,449.38761368000996,None,2023-03-27-13:20:31.516927,449.3886175000225,449.7044636000064,449.3886175000225,None,None,449.3886175000225,None,450.2041714799998,None,,,22052,0001,2023_Mar_27_1313,localizer,2021.1.3,59.96706609482581,
block,scenes,scenes022.bmp,,,,,0,195,195,195,,,,,,,,,,,,,,,,,,,,,,,,,,,,,,,,,,,,,,,,,,None,,450.2041714799998,None,450.2041714799998,None,2023-03-27-13:20:32.333496,450.2183454000042,450.52099400002044,450.2183454000042,None,None,450.2183454000042,None,451.0208545800124,None,,,22052,0001,2023_Mar_27_1313,localizer,2021.1.3,59.96706609482581,
block,scenes,scenes021.bmp,,,,,0,196,196,196,,,,,,,,,,,,,,,,,,,,,,,,,,,,,,,,,,,,,,,,,,None,,451.0208545800124,None,451.0208545800124,None,2023-03-27-13:20:33.149962,451.0348988000187,451.33780880004633,451.0348988000187,None,None,451.0348988000187,None,451.83742727999925,None,,,22052,0001,2023_Mar_27_1313,localizer,2021.1.3,59.96706609482581,
block_end,scenes,scenes012.bmp,,,,,0,197,197,197,,,,,,,,,,,,,,,,,,,,,,,,,,,,,,,,,,,,,,,,,,None,,451.83742727999925,None,451.83742727999925,None,2023-03-27-13:20:33.966927,451.84982140001375,452.1543957000249,451.84982140001375,None,None,451.84982140001375,None,452.6547583800566,None,,,22052,0001,2023_Mar_27_1313,localizer,2021.1.3,59.96706609482581,
block_start,objects,objects015.bmp,,,,,0,198,198,198,,,,,,,,,,,,,,,,,,,,,,,,,,,,,,,,,,,,,,,,,,t,1.7199550999794155,452.65495310002007,None,452.65495310002007,None,2023-03-27-13:20:36.527909,454.40113250003196,454.704374700028,454.40113250003196,None,None,454.40113250003196,None,455.20469108005636,None,,,22052,0001,2023_Mar_27_1313,localizer,2021.1.3,59.96706609482581,
block,objects,objects056.bmp,,,,,0,199,199,199,,,,,,,,,,,,,,,,,,,,,,,,,,,,,,,,,,,,,,,,,,None,,455.20469108005636,None,455.20469108005636,None,2023-03-27-13:20:37.335565,455.21945700002834,455.5208532999968,455.21945700002834,None,None,455.21945700002834,None,456.0209781800222,None,,,22052,0001,2023_Mar_27_1313,localizer,2021.1.3,59.96706609482581,
block,objects,objects049.bmp,,,,,0,200,200,200,,,,,,,,,,,,,,,,,,,,,,,,,,,,,,,,,,,,,,,,,,None,,456.0209781800222,None,456.0209781800222,None,2023-03-27-13:20:38.150097,456.0346070000087,456.33775990002323,456.0346070000087,None,None,456.0346070000087,None,456.83775768001215,None,,,22052,0001,2023_Mar_27_1313,localizer,2021.1.3,59.96706609482581,
block,objects,objects035.bmp,,,,,0,201,201,201,,,,,,,,,,,,,,,,,,,,,,,,,,,,,,,,,,,,,,,,,,None,,456.83775768001215,None,456.83775768001215,None,2023-03-27-13:20:38.967059,456.83860950003145,457.1544346000301,456.83860950003145,None,None,456.83860950003145,None,457.6380521800311,None,,,22052,0001,2023_Mar_27_1313,localizer,2021.1.3,59.96706609482581,
block,objects,objects011.bmp,,,,,0,202,202,202,,,,,,,,,,,,,,,,,,,,,,,,,,,,,,,,,,,,,,,,,,None,,457.6380521800311,None,457.6380521800311,None,2023-03-27-13:20:39.771360,457.6563245000434,457.97130269999616,457.6563245000434,457.6563245000434,None,457.6563245000434,457.6563245000434,458.4544117800251,None,,,22052,0001,2023_Mar_27_1313,localizer,2021.1.3,59.96706609482581,
block,objects,objects050.bmp,,,,,0,203,203,203,,,,,,,,,,,,,,,,,,,,,,,,,,,,,,,,,,,,,,,,,,None,,458.4544117800251,None,458.4544117800251,None,2023-03-27-13:20:40.583535,458.45546250004554,458.7710672999965,458.45546250004554,None,None,458.45546250004554,None,459.2557492800115,None,,,22052,0001,2023_Mar_27_1313,localizer,2021.1.3,59.96706609482581,
block,objects,objects041.bmp,,,,,0,204,204,204,,,,,,,,,,,,,,,,,,,,,,,,,,,,,,,,,,,,,,,,,,None,,459.2557492800115,None,459.2557492800115,None,2023-03-27-13:20:41.390762,459.26334320002934,459.5718331000535,459.26334320002934,459.26334320002934,None,459.26334320002934,459.26334320002934,460.07294818005175,None,,,22052,0001,2023_Mar_27_1313,localizer,2021.1.3,59.96706609482581,
block,objects,objects042.bmp,,,,,0,205,205,205,,,,,,,,,,,,,,,,,,,,,,,,,,,,,,,,,,,,,,,,,,None,,460.07294818005175,None,460.07294818005175,None,2023-03-27-13:20:42.207065,460.0925699000363,460.40472160000354,460.0925699000363,None,None,460.0925699000363,None,460.8878811800096,None,,,22052,0001,2023_Mar_27_1313,localizer,2021.1.3,59.96706609482581,
block,objects,objects009.bmp,,,,,0,206,206,206,,,,,,,,,,,,,,,,,,,,,,,,,,,,,,,,,,,,,,,,,,None,,460.8878811800096,None,460.8878811800096,None,2023-03-27-13:20:43.018008,460.9011212000041,461.2044533000444,460.9011212000041,None,None,460.9011212000041,None,461.7042193800153,None,,,22052,0001,2023_Mar_27_1313,localizer,2021.1.3,59.96706609482581,
block,objects,objects027.bmp,,,,,0,207,207,207,,,,,,,,,,,,,,,,,,,,,,,,,,,,,,,,,,,,,,,,,,None,,461.7042193800153,None,461.7042193800153,None,2023-03-27-13:20:43.833601,461.7174898000085,462.0212376000127,461.7174898000085,None,None,461.7174898000085,None,462.52203908000956,None,,,22052,0001,2023_Mar_27_1313,localizer,2021.1.3,59.96706609482581,
block,objects,objects046.bmp,,,,,0,208,208,208,,,,,,,,,,,,,,,,,,,,,,,,,,,,,,,,,,,,,,,,,,None,,462.52203908000956,None,462.52203908000956,None,2023-03-27-13:20:44.654347,462.53819560003467,462.83780100004515,462.53819560003467,None,None,462.53819560003467,None,463.3377151800378,None,,,22052,0001,2023_Mar_27_1313,localizer,2021.1.3,59.96706609482581,
block,objects,objects071.bmp,,,,,0,209,209,209,,,,,,,,,,,,,,,,,,,,,,,,,,,,,,,,,,,,,,,,,,None,,463.3377151800378,None,463.3377151800378,None,2023-03-27-13:20:45.466854,463.3507540000137,463.6544984000502,463.3507540000137,None,None,463.3507540000137,None,464.15382448004675,None,,,22052,0001,2023_Mar_27_1313,localizer,2021.1.3,59.96706609482581,
block,objects,objects006.bmp,,,,,0,210,210,210,,,,,,,,,,,,,,,,,,,,,,,,,,,,,,,,,,,,,,,,,,None,,464.15382448004675,None,464.15382448004675,None,2023-03-27-13:20:46.282971,464.15539710002486,464.47138060000725,464.15539710002486,None,None,464.15539710002486,None,464.95464868002455,None,,,22052,0001,2023_Mar_27_1313,localizer,2021.1.3,59.96706609482581,
block,objects,objects076.bmp,,,,,0,211,211,211,,,,,,,,,,,,,,,,,,,,,,,,,,,,,,,,,,,,,,,,,,None,,464.95464868002455,None,464.95464868002455,None,2023-03-27-13:20:47.087046,464.97093950002454,465.2711723000393,464.97093950002454,464.97093950002454,None,464.97093950002454,464.97093950002454,465.7716674800322,None,,,22052,0001,2023_Mar_27_1313,localizer,2021.1.3,59.96706609482581,
block_end,objects,objects080.bmp,,,,,0,212,212,212,,,,,,,,,,,,,,,,,,,,,,,,,,,,,,,,,,,,,,,,,,None,,465.7716674800322,None,465.7716674800322,None,2023-03-27-13:20:47.902666,465.78748749999795,466.087782800023,465.78748749999795,None,None,465.78748749999795,None,466.5878566800093,None,,,22052,0001,2023_Mar_27_1313,localizer,2021.1.3,59.96706609482581,
block_start,scrambled,scrambled027.bmp,,,,,0,213,213,213,,,,,,,,,,,,,,,,,,,,,,,,,,,,,,,,,,,,,,,,,,t,1.7863518000231124,466.5880554000032,None,466.5880554000032,None,2023-03-27-13:20:50.533555,468.4171325000352,468.72177600004943,468.4171325000352,None,None,468.4171325000352,None,469.22131608004565,None,,,22052,0001,2023_Mar_27_1313,localizer,2021.1.3,59.96706609482581,
block,scrambled,scrambled054.bmp,,,,,0,214,214,214,,,,,,,,,,,,,,,,,,,,,,,,,,,,,,,,,,,,,,,,,,None,,469.22131608004565,None,469.22131608004565,None,2023-03-27-13:20:51.351650,469.23510660004104,469.53772400005255,469.23510660004104,None,None,469.23510660004104,None,470.03743668002426,None,,,22052,0001,2023_Mar_27_1313,localizer,2021.1.3,59.96706609482581,
block,scrambled,scrambled021.bmp,,,,,0,215,215,215,,,,,,,,,,,,,,,,,,,,,,,,,,,,,,,,,,,,,,,,,,None,,470.03743668002426,None,470.03743668002426,None,2023-03-27-13:20:52.166604,470.0497663000133,470.36087090004,470.0497663000133,None,None,470.0497663000133,None,470.854612480005,None,,,22052,0001,2023_Mar_27_1313,localizer,2021.1.3,59.96706609482581,
block,scrambled,scrambled065.bmp,,,,,0,216,216,216,,,,,,,,,,,,,,,,,,,,,,,,,,,,,,,,,,,,,,,,,,None,,470.854612480005,None,470.854612480005,None,2023-03-27-13:20:52.984985,470.8684026999981,471.1716232000035,470.8684026999981,None,None,470.8684026999981,None,471.6721343800018,None,,,22052,0001,2023_Mar_27_1313,localizer,2021.1.3,59.96706609482581,
block,scrambled,scrambled056.bmp,,,,,0,217,217,217,,,,,,,,,,,,,,,,,,,,,,,,,,,,,,,,,,,,,,,,,,None,,471.6721343800018,None,471.6721343800018,None,2023-03-27-13:20:53.803452,471.687666700047,471.98789300001226,471.687666700047,None,None,471.687666700047,None,472.48771158003365,None,,,22052,0001,2023_Mar_27_1313,localizer,2021.1.3,59.96706609482581,
block,scrambled,scrambled056.bmp,,,,,0,218,218,218,,,,,,,,,,,,,,,,,,,,,,,,,,,,,,,,,,,,,,,,,,None,,472.48771158003365,None,472.48771158003365,None,2023-03-27-13:20:54.617088,472.4886774000479,472.80470080004307,472.4886774000479,None,None,472.4886774000479,None,473.28773608003394,None,,,22052,0001,2023_Mar_27_1313,localizer,2021.1.3,59.96706609482581,
block,scrambled,scrambled019.bmp,,,,,0,219,219,219,,,,,,,,,,,,,,,,,,,,,,,,,,,,,,,,,,,,,,,,,,None,,473.28773608003394,None,473.28773608003394,None,2023-03-27-13:20:55.418902,473.30203030002303,473.604655800038,473.30203030002303,473.30203030002303,None,473.30203030002303,473.30203030002303,474.10372988003655,None,,,22052,0001,2023_Mar_27_1313,localizer,2021.1.3,59.96706609482581,
block,scrambled,scrambled073.bmp,,,,,0,220,220,220,,,,,,,,,,,,,,,,,,,,,,,,,,,,,,,,,,,,,,,,,,None,,474.10372988003655,None,474.10372988003655,None,2023-03-27-13:20:56.232912,474.11023250001017,474.42121590004535,474.11023250001017,None,None,474.11023250001017,None,474.9210128800187,None,,,22052,0001,2023_Mar_27_1313,localizer,2021.1.3,59.96706609482581,
block,scrambled,scrambled008.bmp,,,,,0,221,221,221,,,,,,,,,,,,,,,,,,,,,,,,,,,,,,,,,,,,,,,,,,None,,474.9210128800187,None,474.9210128800187,None,2023-03-27-13:20:57.050191,474.9221311000292,475.23767719999887,474.9221311000292,None,None,474.9221311000292,None,475.737716380012,None,,,22052,0001,2023_Mar_27_1313,localizer,2021.1.3,59.96706609482581,
block,scrambled,scrambled024.bmp,,,,,0,222,222,222,,,,,,,,,,,,,,,,,,,,,,,,,,,,,,,,,,,,,,,,,,None,,475.737716380012,None,475.737716380012,None,2023-03-27-13:20:57.867022,475.75077480002074,476.05529540003045,475.75077480002074,None,None,475.75077480002074,None,476.55428088005283,None,,,22052,0001,2023_Mar_27_1313,localizer,2021.1.3,59.96706609482581,
block,scrambled,scrambled079.bmp,,,,,0,223,223,223,,,,,,,,,,,,,,,,,,,,,,,,,,,,,,,,,,,,,,,,,,None,,476.55428088005283,None,476.55428088005283,None,2023-03-27-13:20:58.683484,476.5554857000243,476.8558943000389,476.5554857000243,None,None,476.5554857000243,None,477.35449648005306,None,,,22052,0001,2023_Mar_27_1313,localizer,2021.1.3,59.96706609482581,
block,scrambled,scrambled039.bmp,,,,,0,224,224,224,,,,,,,,,,,,,,,,,,,,,,,,,,,,,,,,,,,,,,,,,,None,,477.35449648005306,None,477.35449648005306,None,2023-03-27-13:20:59.485883,477.37077950005187,477.67140430002473,477.37077950005187,477.37077950005187,None,477.37077950005187,477.37077950005187,478.1709680800268,None,,,22052,0001,2023_Mar_27_1313,localizer,2021.1.3,59.96706609482581,
block,scrambled,scrambled082.bmp,,,,,0,225,225,225,,,,,,,,,,,,,,,,,,,,,,,,,,,,,,,,,,,,,,,,,,None,,478.1709680800268,None,478.1709680800268,None,2023-03-27-13:21:00.300312,478.1721598000149,478.4879123000428,478.1721598000149,None,None,478.1721598000149,None,478.9877492800297,None,,,22052,0001,2023_Mar_27_1313,localizer,2021.1.3,59.96706609482581,
block,scrambled,scrambled078.bmp,,,,,0,226,226,226,,,,,,,,,,,,,,,,,,,,,,,,,,,,,,,,,,,,,,,,,,None,,478.9877492800297,None,478.9877492800297,None,2023-03-27-13:21:01.116941,479.00000120000914,479.3047194000101,479.00000120000914,None,None,479.00000120000914,None,479.8045256800542,None,,,22052,0001,2023_Mar_27_1313,localizer,2021.1.3,59.96706609482581,
block_end,scrambled,scrambled085.bmp,,,,,0,227,227,227,,,,,,,,,,,,,,,,,,,,,,,,,,,,,,,,,,,,,,,,,,None,,479.8045256800542,None,479.8045256800542,None,2023-03-27-13:21:01.933854,479.817850499996,480.1213387000025,479.817850499996,None,None,479.817850499996,None,480.6210558800085,None,,,22052,0001,2023_Mar_27_1313,localizer,2021.1.3,59.96706609482581,
block_start,faces,faces035.bmp,,,,,0,228,228,228,,,,,,,,,,,,,,,,,,,,,,,,,,,,,,,,,,,,,,,,,,t,1.7530349000007845,480.621428100043,None,480.621428100043,None,2023-03-27-13:21:04.533744,482.41889870003797,482.72113900003023,482.41889870003797,None,None,482.41889870003797,None,483.2211671800178,None,,,22052,0001,2023_Mar_27_1313,localizer,2021.1.3,59.96706609482581,
block,faces,faces040.bmp,,,,,0,229,229,229,,,,,,,,,,,,,,,,,,,,,,,,,,,,,,,,,,,,,,,,,,None,,483.2211671800178,None,483.2211671800178,None,2023-03-27-13:21:05.350365,483.22226160002174,483.5381422000355,483.22226160002174,None,None,483.22226160002174,None,484.0222166800231,None,,,22052,0001,2023_Mar_27_1313,localizer,2021.1.3,59.96706609482581,
block,faces,faces075.bmp,,,,,0,230,230,230,,,,,,,,,,,,,,,,,,,,,,,,,,,,,,,,,,,,,,,,,,None,,484.0222166800231,None,484.0222166800231,None,2023-03-27-13:21:06.155582,484.0414687000448,484.3611695000436,484.0414687000448,484.0414687000448,None,484.0414687000448,484.0414687000448,484.838015180052,None,,,22052,0001,2023_Mar_27_1313,localizer,2021.1.3,59.96706609482581,
block,faces,faces074.bmp,,,,,0,231,231,231,,,,,,,,,,,,,,,,,,,,,,,,,,,,,,,,,,,,,,,,,,None,,484.838015180052,None,484.838015180052,None,2023-03-27-13:21:06.968199,484.8389706000453,485.1384872000199,484.8389706000453,None,None,484.8389706000453,None,485.6379943800566,None,,,22052,0001,2023_Mar_27_1313,localizer,2021.1.3,59.96706609482581,
block,faces,faces066.bmp,,,,,0,232,232,232,,,,,,,,,,,,,,,,,,,,,,,,,,,,,,,,,,,,,,,,,,None,,485.6379943800566,None,485.6379943800566,None,2023-03-27-13:21:07.769273,485.6411810000427,485.954968200007,485.6411810000427,485.6411810000427,None,485.6411810000427,485.6411810000427,486.4540801800031,None,,,22052,0001,2023_Mar_27_1313,localizer,2021.1.3,59.96706609482581,
block,faces,faces022.bmp,,,,,0,233,233,233,,,,,,,,,,,,,,,,,,,,,,,,,,,,,,,,,,,,,,,,,,None,,486.4540801800031,None,486.4540801800031,None,2023-03-27-13:21:08.583297,486.4554311000393,486.7712952000438,486.4554311000393,None,None,486.4554311000393,None,487.2544649800111,None,,,22052,0001,2023_Mar_27_1313,localizer,2021.1.3,59.96706609482581,
block,faces,faces038.bmp,,,,,0,234,234,234,,,,,,,,,,,,,,,,,,,,,,,,,,,,,,,,,,,,,,,,,,None,,487.2544649800111,None,487.2544649800111,None,2023-03-27-13:21:09.385675,487.25769779999973,487.5718945999979,487.25769779999973,487.25769779999973,None,487.25769779999973,487.25769779999973,488.0713656800508,None,,,22052,0001,2023_Mar_27_1313,localizer,2021.1.3,59.96706609482581,
block,faces,faces041.bmp,,,,,0,235,235,235,,,,,,,,,,,,,,,,,,,,,,,,,,,,,,,,,,,,,,,,,,None,,488.0713656800508,None,488.0713656800508,None,2023-03-27-13:21:10.200642,488.0865756000276,488.3877834000159,488.0865756000276,None,None,488.0865756000276,None,488.88795678000315,None,,,22052,0001,2023_Mar_27_1313,localizer,2021.1.3,59.96706609482581,
block,faces,faces008.bmp,,,,,0,236,236,236,,,,,,,,,,,,,,,,,,,,,,,,,,,,,,,,,,,,,,,,,,None,,488.88795678000315,None,488.88795678000315,None,2023-03-27-13:21:11.017092,488.9028736000182,489.205124900036,488.9028736000182,None,None,488.9028736000182,None,489.70415607999894,None,,,22052,0001,2023_Mar_27_1313,localizer,2021.1.3,59.96706609482581,
block,faces,faces010.bmp,,,,,0,237,237,237,,,,,,,,,,,,,,,,,,,,,,,,,,,,,,,,,,,,,,,,,,None,,489.70415607999894,None,489.70415607999894,None,2023-03-27-13:21:11.832542,489.7058654000284,490.021373399999,489.7058654000284,None,None,489.7058654000284,None,490.52117938004085,None,,,22052,0001,2023_Mar_27_1313,localizer,2021.1.3,59.96706609482581,
block,faces,faces023.bmp,,,,,0,238,238,238,,,,,,,,,,,,,,,,,,,,,,,,,,,,,,,,,,,,,,,,,,None,,490.52117938004085,None,490.52117938004085,None,2023-03-27-13:21:12.650486,490.53476860001683,490.8378845000407,490.53476860001683,None,None,490.53476860001683,None,491.33868938000523,None,,,22052,0001,2023_Mar_27_1313,localizer,2021.1.3,59.96706609482581,
block,faces,faces058.bmp,,,,,0,239,239,239,,,,,,,,,,,,,,,,,,,,,,,,,,,,,,,,,,,,,,,,,,None,,491.33868938000523,None,491.33868938000523,None,2023-03-27-13:21:13.469086,491.34158050001133,491.6551385000348,491.34158050001133,None,None,491.34158050001133,None,492.14247028002865,None,,,22052,0001,2023_Mar_27_1313,localizer,2021.1.3,59.96706609482581,
block,faces,faces031.bmp,,,,,0,240,240,240,,,,,,,,,,,,,,,,,,,,,,,,,,,,,,,,,,,,,,,,,,None,,492.14247028002865,None,492.14247028002865,None,2023-03-27-13:21:14.277824,492.14932120003505,492.45509740000125,492.14932120003505,492.14932120003505,None,492.14932120003505,492.14932120003505,492.95471908003674,None,,,22052,0001,2023_Mar_27_1313,localizer,2021.1.3,59.96706609482581,
block,faces,faces047.bmp,,,,,0,241,241,241,,,,,,,,,,,,,,,,,,,,,,,,,,,,,,,,,,,,,,,,,,None,,492.95471908003674,None,492.95471908003674,None,2023-03-27-13:21:15.084944,492.9695717000286,493.27131380001083,492.9695717000286,None,None,492.9695717000286,None,493.77137838004273,None,,,22052,0001,2023_Mar_27_1313,localizer,2021.1.3,59.96706609482581,
block_end,faces,faces052.bmp,,,,,0,242,242,242,,,,,,,,,,,,,,,,,,,,,,,,,,,,,,,,,,,,,,,,,,None,,493.77137838004273,None,493.77137838004273,None,2023-03-27-13:21:15.900646,493.7721876000287,494.08835980005097,493.7721876000287,None,None,493.7721876000287,None,494.5722029800236,None,,,22052,0001,2023_Mar_27_1313,localizer,2021.1.3,59.96706609482581,
null_block,null_block,null_block.bmp,,,,,0,243,243,243,,,,,,,,,,,,,,,,,,,,,,,,,,,,,,,,,,,,,,,,,,t,1.8011756999767385,494.57342560001416,None,494.57342560001416,None,2023-03-27-13:21:18.532548,496.40404078000574,None,496.40404078000574,None,None,496.40404078000574,None,496.40664500003913,None,,,22052,0001,2023_Mar_27_1313,localizer,2021.1.3,59.96706609482581,
,,,,,,,,,,,,,,,,,,,,,,,,,,,,,,,,,,,,,,,,,,,,,,,,,,,,,,,,,,,,,,,,,,,,508.40740280004684,None,,,,,,,
