block_type,condition,img_name,Button.thisRepN,Button.thisTrialN,Button.thisN,Button.thisIndex,trials.thisRepN,trials.thisTrialN,trials.thisN,trials.thisIndex,Ready_experimenter_text.started,Ready_experimenter_text.stopped,Ready_experimenter_resp.keys,Ready_experimenter_resp.rt,Ready_experimenter_resp.started,Ready_experimenter_resp.stopped,Alignment_background.started,Alignment_background.stopped,Alignment_image.started,Alignment_image.stopped,Alignment_resp.keys,Alignment_resp.rt,Alignment_resp.started,Alignment_resp.stopped,Button_text.started,Button_text.stopped,Index_text.started,Index_text.stopped,Index_resp.keys,Index_resp.rt,Index_resp.started,Index_resp.stopped,Middle_text.started,Middle_text.stopped,Middle_resp.keys,Middle_resp.rt,Middle_resp.started,Middle_resp.stopped,Repeat_text.started,Repeat_text.stopped,Repeat_resp.keys,Repeat_resp.corr,Repeat_resp.rt,Repeat_resp.started,Repeat_resp.stopped,instruction_text.started,instruction_text.stopped,key_resp.keys,key_resp.rt,key_resp.started,key_resp.stopped,scanner_t.keys,scanner_t.rt,scanner_t.started,scanner_t.stopped,fixation_wait_for_t.started,fixation_wait_for_t.stopped,real_timestamp_trial_start,image.started,image.stopped,fixation.started,fixation.stopped,repeat_response.keys,repeat_response.started,repeat_response.stopped,fixation_null.started,fixation_null.stopped,repeat_response.rt,end_text.started,end_text.stopped,participant,run,date,expName,psychopyVersion,frameRate,
,,,,,,,,,,,11.174641599995084,None,return,395.41291230000206,11.174641599995084,None,,,,,,,,,,,,,,,,,,,,,,,,,,,,,,,,,,,,,,,,,,,,,,,,,,,,,,,22051,0002,2023_Mar_22_1306,localizer,2021.1.3,59.9646208730516,
,,,,,,,,,,,,,,,,,406.6412629999977,None,406.6412629999977,None,return,0.584516300004907,406.6412629999977,None,,,,,,,,,,,,,,,,,,,,,,,,,,,,,,,,,,,,,,,,,,,,,,,22051,0002,2023_Mar_22_1306,localizer,2021.1.3,59.9646208730516,
,,,0,0,0,0,,,,,,,,,,,,,,,,,,,407.2468426999985,None,408.26169399998616,None,y,1.7170587999862619,408.26169399998616,None,409.99964490000275,None,b,1.1376532999856863,409.99964490000275,None,411.1627092999988,None,n,0,0.8780840999970678,411.1627092999988,None,,,,,,,,,,,,,,,,,,,,,,,,,,22051,0002,2023_Mar_22_1306,localizer,2021.1.3,59.9646208730516,
,,,,,,,,,,,,,,,,,,,,,,,,,,,,,,,,,,,,,,,,,,,,,,412.06191879999824,None,y,58.79952490000869,412.06191879999824,None,,,,,,,,,,,,,,,,,,,,22051,0002,2023_Mar_22_1306,localizer,2021.1.3,59.9646208730516,
null_block,null_block,null_block.bmp,,,,,0,0,0,0,,,,,,,,,,,,,,,,,,,,,,,,,,,,,,,,,,,,,,,,,,t,16.345216900022933,470.9174504999828,None,470.9174504999828,None,2023-03-22-13:14:04.090991,487.2794896700012,None,487.2794896700012,None,None,487.2794896700012,None,487.2850211999903,None,,,,22051,0002,2023_Mar_22_1306,localizer,2021.1.3,59.9646208730516,
block_start,scenes,scenes022.bmp,,,,,0,1,1,1,,,,,,,,,,,,,,,,,,,,,,,,,,,,,,,,,,,,,,,,,,t,1.9651970000122674,499.2966241000104,None,499.2966241000104,None,2023-03-22-13:14:18.094958,501.2976517000061,501.6126249000081,501.2976517000061,None,None,501.2976517000061,None,502.0960517699947,None,,,,22051,0002,2023_Mar_22_1306,localizer,2021.1.3,59.9646208730516,
block,scenes,scenes007.bmp,,,,,0,2,2,2,,,,,,,,,,,,,,,,,,,,,,,,,,,,,,,,,,,,,,,,,,None,,502.0960517699947,None,502.0960517699947,None,2023-03-22-13:14:18.907704,502.1125095000025,502.41255189999356,502.1125095000025,None,None,502.1125095000025,None,502.9124395699997,None,,,,22051,0002,2023_Mar_22_1306,localizer,2021.1.3,59.9646208730516,
block,scenes,scenes008.bmp,,,,,0,3,3,3,,,,,,,,,,,,,,,,,,,,,,,,,,,,,,,,,,,,,,,,,,None,,502.9124395699997,None,502.9124395699997,None,2023-03-22-13:14:19.724025,502.91337049999856,503.213132600009,502.91337049999856,None,None,502.91337049999856,None,503.712698270008,None,,,,22051,0002,2023_Mar_22_1306,localizer,2021.1.3,59.9646208730516,
block,scenes,scenes038.bmp,,,,,0,4,4,4,,,,,,,,,,,,,,,,,,,,,,,,,,,,,,,,,,,,,,,,,,None,,503.712698270008,None,503.712698270008,None,2023-03-22-13:14:20.526343,503.7140908000001,504.0121669000073,503.7140908000001,503.7140908000001,None,503.7140908000001,503.7140908000001,504.5131540700037,None,,,,22051,0002,2023_Mar_22_1306,localizer,2021.1.3,59.9646208730516,
block,scenes,scenes041.bmp,,,,,0,5,5,5,,,,,,,,,,,,,,,,,,,,,,,,,,,,,,,,,,,,,,,,,,None,,504.5131540700037,None,504.5131540700037,None,2023-03-22-13:14:21.327004,504.5276516999875,504.82922290000715,504.5276516999875,504.5276516999875,None,504.5276516999875,504.5276516999875,505.3293271700037,None,,,,22051,0002,2023_Mar_22_1306,localizer,2021.1.3,59.9646208730516,
block,scenes,scenes089.bmp,,,,,0,6,6,6,,,,,,,,,,,,,,,,,,,,,,,,,,,,,,,,,,,,,,,,,,None,,505.3293271700037,None,505.3293271700037,None,2023-03-22-13:14:22.140981,505.3301582999993,505.6290780999989,505.3301582999993,None,None,505.3301582999993,None,506.13229527000806,None,,,,22051,0002,2023_Mar_22_1306,localizer,2021.1.3,59.9646208730516,
block,scenes,scenes020.bmp,,,,,0,7,7,7,,,,,,,,,,,,,,,,,,,,,,,,,,,,,,,,,,,,,,,,,,None,,506.13229527000806,None,506.13229527000806,None,2023-03-22-13:14:22.947287,506.13961270000436,506.4489195999922,506.13961270000436,506.13961270000436,None,506.13961270000436,506.13961270000436,506.9459868700011,None,,,,22051,0002,2023_Mar_22_1306,localizer,2021.1.3,59.9646208730516,
block,scenes,scenes091.bmp,,,,,0,8,8,8,,,,,,,,,,,,,,,,,,,,,,,,,,,,,,,,,,,,,,,,,,None,,506.9459868700011,None,506.9459868700011,None,2023-03-22-13:14:23.757639,506.9466174999834,507.2455547999998,506.9466174999834,None,None,506.9466174999834,None,507.7460651700036,None,,,,22051,0002,2023_Mar_22_1306,localizer,2021.1.3,59.9646208730516,
block,scenes,scenes058.bmp,,,,,0,9,9,9,,,,,,,,,,,,,,,,,,,,,,,,,,,,,,,,,,,,,,,,,,None,,507.7460651700036,None,507.7460651700036,None,2023-03-22-13:14:24.559712,507.7594672999985,508.062838199985,507.7594672999985,507.7594672999985,None,507.7594672999985,507.7594672999985,508.5638493699895,None,,,,22051,0002,2023_Mar_22_1306,localizer,2021.1.3,59.9646208730516,
block,scenes,scenes045.bmp,,,,,0,10,10,10,,,,,,,,,,,,,,,,,,,,,,,,,,,,,,,,,,,,,,,,,,None,,508.5638493699895,None,508.5638493699895,None,2023-03-22-13:14:25.376659,508.57818929999485,508.87985409999965,508.57818929999485,None,None,508.57818929999485,None,509.3800080699963,None,,,,22051,0002,2023_Mar_22_1306,localizer,2021.1.3,59.9646208730516,
block,scenes,scenes019.bmp,,,,,0,11,11,11,,,,,,,,,,,,,,,,,,,,,,,,,,,,,,,,,,,,,,,,,,None,,509.3800080699963,None,509.3800080699963,None,2023-03-22-13:14:26.192838,509.39263469999423,509.6956291999959,509.39263469999423,None,None,509.39263469999423,None,510.1957653700025,None,,,,22051,0002,2023_Mar_22_1306,localizer,2021.1.3,59.9646208730516,
block,scenes,scenes025.bmp,,,,,0,12,12,12,,,,,,,,,,,,,,,,,,,,,,,,,,,,,,,,,,,,,,,,,,None,,510.1957653700025,None,510.1957653700025,None,2023-03-22-13:14:27.007422,510.2107818000077,510.5124901999952,510.2107818000077,None,None,510.2107818000077,None,511.01262066998754,None,,,,22051,0002,2023_Mar_22_1306,localizer,2021.1.3,59.9646208730516,
block,scenes,scenes014.bmp,,,,,0,13,13,13,,,,,,,,,,,,,,,,,,,,,,,,,,,,,,,,,,,,,,,,,,None,,511.01262066998754,None,511.01262066998754,None,2023-03-22-13:14:27.824275,511.02528229999007,511.3289572999929,511.02528229999007,None,None,511.02528229999007,None,511.82894616998385,None,,,,22051,0002,2023_Mar_22_1306,localizer,2021.1.3,59.9646208730516,
block,scenes,scenes084.bmp,,,,,0,14,14,14,,,,,,,,,,,,,,,,,,,,,,,,,,,,,,,,,,,,,,,,,,None,,511.82894616998385,None,511.82894616998385,None,2023-03-22-13:14:28.639485,511.83534200000577,512.1457339999906,511.83534200000577,None,None,511.83534200000577,None,512.6461080700043,None,,,,22051,0002,2023_Mar_22_1306,localizer,2021.1.3,59.9646208730516,
block_end,scenes,scenes053.bmp,,,,,0,15,15,15,,,,,,,,,,,,,,,,,,,,,,,,,,,,,,,,,,,,,,,,,,None,,512.6461080700043,None,512.6461080700043,None,2023-03-22-13:14:29.457993,512.6578913999838,512.962282499997,512.6578913999838,None,None,512.6578913999838,None,513.462699069985,None,,,,22051,0002,2023_Mar_22_1306,localizer,2021.1.3,59.9646208730516,
block_start,objects,objects042.bmp,,,,,0,16,16,16,,,,,,,,,,,,,,,,,,,,,,,,,,,,,,,,,,,,,,,,,,t,1.7988392999977805,513.4625610999938,None,513.4625610999938,None,2023-03-22-13:14:32.090190,515.2805139999837,515.5794085999951,515.2805139999837,None,None,515.2805139999837,None,516.096173069987,None,,,,22051,0002,2023_Mar_22_1306,localizer,2021.1.3,59.9646208730516,
block,objects,objects078.bmp,,,,,0,17,17,17,,,,,,,,,,,,,,,,,,,,,,,,,,,,,,,,,,,,,,,,,,None,,516.096173069987,None,516.096173069987,None,2023-03-22-13:14:32.907828,516.1076948999835,516.4123156999995,516.1076948999835,None,None,516.1076948999835,None,516.9127263700008,None,,,,22051,0002,2023_Mar_22_1306,localizer,2021.1.3,59.9646208730516,
block,objects,objects029.bmp,,,,,0,18,18,18,,,,,,,,,,,,,,,,,,,,,,,,,,,,,,,,,,,,,,,,,,None,,516.9127263700008,None,516.9127263700008,None,2023-03-22-13:14:33.724381,516.9133655999904,517.2125921999977,516.9133655999904,None,None,516.9133655999904,None,517.7133325700066,None,,,,22051,0002,2023_Mar_22_1306,localizer,2021.1.3,59.9646208730516,
block,objects,objects039.bmp,,,,,0,19,19,19,,,,,,,,,,,,,,,,,,,,,,,,,,,,,,,,,,,,,,,,,,None,,517.7133325700066,None,517.7133325700066,None,2023-03-22-13:14:34.528189,517.7163671999879,518.0290194999834,517.7163671999879,517.7163671999879,None,517.7163671999879,517.7163671999879,518.5292997700104,None,,,,22051,0002,2023_Mar_22_1306,localizer,2021.1.3,59.9646208730516,
block,objects,objects072.bmp,,,,,0,20,20,20,,,,,,,,,,,,,,,,,,,,,,,,,,,,,,,,,,,,,,,,,,None,,518.5292997700104,None,518.5292997700104,None,2023-03-22-13:14:35.340959,518.536297899991,518.8460102000099,518.536297899991,None,None,518.536297899991,None,519.3462457699876,None,,,,22051,0002,2023_Mar_22_1306,localizer,2021.1.3,59.9646208730516,
block,objects,objects082.bmp,,,,,0,21,21,21,,,,,,,,,,,,,,,,,,,,,,,,,,,,,,,,,,,,,,,,,,None,,519.3462457699876,None,519.3462457699876,None,2023-03-22-13:14:36.157899,519.3470036000072,519.645952299994,519.3470036000072,None,None,519.3470036000072,None,520.1473636699899,None,,,,22051,0002,2023_Mar_22_1306,localizer,2021.1.3,59.9646208730516,
block,objects,objects077.bmp,,,,,0,22,22,22,,,,,,,,,,,,,,,,,,,,,,,,,,,,,,,,,,,,,,,,,,None,,520.1473636699899,None,520.1473636699899,None,2023-03-22-13:14:36.963968,520.1657540999877,520.4798986999958,520.1657540999877,520.1657540999877,None,520.1657540999877,520.1657540999877,520.9635844700039,None,,,,22051,0002,2023_Mar_22_1306,localizer,2021.1.3,59.9646208730516,
block,objects,objects088.bmp,,,,,0,23,23,23,,,,,,,,,,,,,,,,,,,,,,,,,,,,,,,,,,,,,,,,,,None,,520.9635844700039,None,520.9635844700039,None,2023-03-22-13:14:37.776083,520.9640215999971,521.2794763999991,520.9640215999971,None,None,520.9640215999971,None,521.7797328699904,None,,,,22051,0002,2023_Mar_22_1306,localizer,2021.1.3,59.9646208730516,
block,objects,objects016.bmp,,,,,0,24,24,24,,,,,,,,,,,,,,,,,,,,,,,,,,,,,,,,,,,,,,,,,,None,,521.7797328699904,None,521.7797328699904,None,2023-03-22-13:14:38.591384,521.7922732000006,522.0957906999975,521.7922732000006,None,None,521.7922732000006,None,522.5962425699923,None,,,,22051,0002,2023_Mar_22_1306,localizer,2021.1.3,59.9646208730516,
block,objects,objects016.bmp,,,,,0,25,25,25,,,,,,,,,,,,,,,,,,,,,,,,,,,,,,,,,,,,,,,,,,None,,522.5962425699923,None,522.5962425699923,None,2023-03-22-13:14:39.407920,522.5971028000058,522.9126980000001,522.5971028000058,None,y,522.5971028000058,None,523.396672269993,None,0.4732261000026483,,,22051,0002,2023_Mar_22_1306,localizer,2021.1.3,59.9646208730516,
block,objects,objects044.bmp,,,,,0,26,26,26,,,,,,,,,,,,,,,,,,,,,,,,,,,,,,,,,,,,,,,,,,None,,523.396672269993,None,523.396672269993,None,2023-03-22-13:14:40.211495,523.4120200999896,523.7125008000003,523.4120200999896,523.4120200999896,None,523.4120200999896,523.4120200999896,524.21268707001,None,,,,22051,0002,2023_Mar_22_1306,localizer,2021.1.3,59.9646208730516,
block,objects,objects030.bmp,,,,,0,27,27,27,,,,,,,,,,,,,,,,,,,,,,,,,,,,,,,,,,,,,,,,,,None,,524.21268707001,None,524.21268707001,None,2023-03-22-13:14:41.024344,524.2135377000086,524.5128941999865,524.2135377000086,None,None,524.2135377000086,None,525.0130797699909,None,,,,22051,0002,2023_Mar_22_1306,localizer,2021.1.3,59.9646208730516,
block,objects,objects024.bmp,,,,,0,28,28,28,,,,,,,,,,,,,,,,,,,,,,,,,,,,,,,,,,,,,,,,,,None,,525.0130797699909,None,525.0130797699909,None,2023-03-22-13:14:41.827943,525.0159432000073,525.3293656999886,525.0159432000073,525.0159432000073,None,525.0159432000073,525.0159432000073,525.8291128700017,None,,,,22051,0002,2023_Mar_22_1306,localizer,2021.1.3,59.9646208730516,
block,objects,objects031.bmp,,,,,0,29,29,29,,,,,,,,,,,,,,,,,,,,,,,,,,,,,,,,,,,,,,,,,,None,,525.8291128700017,None,525.8291128700017,None,2023-03-22-13:14:42.640773,525.839384699997,526.145672099985,525.839384699997,None,None,525.839384699997,None,526.6461850700085,None,,,,22051,0002,2023_Mar_22_1306,localizer,2021.1.3,59.9646208730516,
block_end,objects,objects046.bmp,,,,,0,30,30,30,,,,,,,,,,,,,,,,,,,,,,,,,,,,,,,,,,,,,,,,,,None,,526.6461850700085,None,526.6461850700085,None,2023-03-22-13:14:43.457843,526.6575290999899,526.9627135999908,526.6575290999899,None,None,526.6575290999899,None,527.4628766699985,None,,,,22051,0002,2023_Mar_22_1306,localizer,2021.1.3,59.9646208730516,
block_start,faces,faces053.bmp,,,,,0,31,31,31,,,,,,,,,,,,,,,,,,,,,,,,,,,,,,,,,,,,,,,,,,t,1.7991039000044111,527.4629792000051,None,527.4629792000051,None,2023-03-22-13:14:46.098661,529.2902895000007,529.5958943000005,529.2902895000007,None,None,529.2902895000007,None,530.0959110700002,None,,,,22051,0002,2023_Mar_22_1306,localizer,2021.1.3,59.9646208730516,
block,faces,faces040.bmp,,,,,0,32,32,32,,,,,,,,,,,,,,,,,,,,,,,,,,,,,,,,,,,,,,,,,,None,,530.0959110700002,None,530.0959110700002,None,2023-03-22-13:14:46.906574,530.0971698999929,530.3963988999894,530.0971698999929,None,None,530.0971698999929,None,530.8982484700042,None,,,,22051,0002,2023_Mar_22_1306,localizer,2021.1.3,59.9646208730516,
block,faces,faces089.bmp,,,,,0,33,33,33,,,,,,,,,,,,,,,,,,,,,,,,,,,,,,,,,,,,,,,,,,None,,530.8982484700042,None,530.8982484700042,None,2023-03-22-13:14:47.715480,530.9157870000054,531.2289045999933,530.9157870000054,530.9157870000054,None,530.9157870000054,530.9157870000054,531.7141603699944,None,,,,22051,0002,2023_Mar_22_1306,localizer,2021.1.3,59.9646208730516,
block,faces,faces072.bmp,,,,,0,34,34,34,,,,,,,,,,,,,,,,,,,,,,,,,,,,,,,,,,,,,,,,,,None,,531.7141603699944,None,531.7141603699944,None,2023-03-22-13:14:48.526798,531.7160571999848,532.0293858000077,531.7160571999848,None,None,531.7160571999848,None,532.5307487699844,None,,,,22051,0002,2023_Mar_22_1306,localizer,2021.1.3,59.9646208730516,
block,faces,faces013.bmp,,,,,0,35,35,35,,,,,,,,,,,,,,,,,,,,,,,,,,,,,,,,,,,,,,,,,,None,,532.5307487699844,None,532.5307487699844,None,2023-03-22-13:14:49.343580,532.5331038000004,532.8458399999945,532.5331038000004,None,None,532.5331038000004,None,533.346982969984,None,,,,22051,0002,2023_Mar_22_1306,localizer,2021.1.3,59.9646208730516,
block,faces,faces052.bmp,,,,,0,36,36,36,,,,,,,,,,,,,,,,,,,,,,,,,,,,,,,,,,,,,,,,,,None,,533.346982969984,None,533.346982969984,None,2023-03-22-13:14:50.159817,533.3614135000098,533.6690944999864,533.3614135000098,None,None,533.3614135000098,None,534.1626480699866,None,,,,22051,0002,2023_Mar_22_1306,localizer,2021.1.3,59.9646208730516,
block,faces,faces085.bmp,,,,,0,37,37,37,,,,,,,,,,,,,,,,,,,,,,,,,,,,,,,,,,,,,,,,,,None,,534.1626480699866,None,534.1626480699866,None,2023-03-22-13:14:50.974310,534.1636775000079,534.4627181999967,534.1636775000079,None,None,534.1636775000079,None,534.9627691699949,None,,,,22051,0002,2023_Mar_22_1306,localizer,2021.1.3,59.9646208730516,
block,faces,faces003.bmp,,,,,0,38,38,38,,,,,,,,,,,,,,,,,,,,,,,,,,,,,,,,,,,,,,,,,,None,,534.9627691699949,None,534.9627691699949,None,2023-03-22-13:14:51.776648,534.9758933999983,535.2793066999875,534.9758933999983,534.9758933999983,None,534.9758933999983,534.9758933999983,535.7796664700087,None,,,,22051,0002,2023_Mar_22_1306,localizer,2021.1.3,59.9646208730516,
block,faces,faces034.bmp,,,,,0,39,39,39,,,,,,,,,,,,,,,,,,,,,,,,,,,,,,,,,,,,,,,,,,None,,535.7796664700087,None,535.7796664700087,None,2023-03-22-13:14:52.591326,535.7804306999897,536.0958114000096,535.7804306999897,None,None,535.7804306999897,None,536.57961717,None,,,,22051,0002,2023_Mar_22_1306,localizer,2021.1.3,59.9646208730516,
block,faces,faces058.bmp,,,,,0,40,40,40,,,,,,,,,,,,,,,,,,,,,,,,,,,,,,,,,,,,,,,,,,None,,536.57961717,None,536.57961717,None,2023-03-22-13:14:53.393502,536.5910111999838,536.8958278000064,536.5910111999838,536.5910111999838,None,536.5910111999838,536.5910111999838,537.3958729699895,None,,,,22051,0002,2023_Mar_22_1306,localizer,2021.1.3,59.9646208730516,
block,faces,faces081.bmp,,,,,0,41,41,41,,,,,,,,,,,,,,,,,,,,,,,,,,,,,,,,,,,,,,,,,,None,,537.3958729699895,None,537.3958729699895,None,2023-03-22-13:14:54.206538,537.4075991999998,537.7125616999983,537.4075991999998,None,None,537.4075991999998,None,538.2129558699904,None,,,,22051,0002,2023_Mar_22_1306,localizer,2021.1.3,59.9646208730516,
block,faces,faces001.bmp,,,,,0,42,42,42,,,,,,,,,,,,,,,,,,,,,,,,,,,,,,,,,,,,,,,,,,None,,538.2129558699904,None,538.2129558699904,None,2023-03-22-13:14:55.024611,538.2257863999985,538.5324936999823,538.2257863999985,None,None,538.2257863999985,None,539.0303486699937,None,,,,22051,0002,2023_Mar_22_1306,localizer,2021.1.3,59.9646208730516,
block,faces,faces031.bmp,,,,,0,43,43,43,,,,,,,,,,,,,,,,,,,,,,,,,,,,,,,,,,,,,,,,,,None,,539.0303486699937,None,539.0303486699937,None,2023-03-22-13:14:55.842973,539.040258699999,539.3460395000002,539.040258699999,None,None,539.040258699999,None,539.8474752700073,None,,,,22051,0002,2023_Mar_22_1306,localizer,2021.1.3,59.9646208730516,
block,faces,faces080.bmp,,,,,0,44,44,44,,,,,,,,,,,,,,,,,,,,,,,,,,,,,,,,,,,,,,,,,,None,,539.8474752700073,None,539.8474752700073,None,2023-03-22-13:14:56.660686,539.8521066000103,540.1635590000078,539.8521066000103,None,None,539.8521066000103,None,540.6636353699956,None,,,,22051,0002,2023_Mar_22_1306,localizer,2021.1.3,59.9646208730516,
block_end,faces,faces038.bmp,,,,,0,45,45,45,,,,,,,,,,,,,,,,,,,,,,,,,,,,,,,,,,,,,,,,,,None,,540.6636353699956,None,540.6636353699956,None,2023-03-22-13:14:57.476265,540.6844641999924,540.9961019000039,540.6844641999924,None,None,540.6844641999924,None,541.4795797700004,None,,,,22051,0002,2023_Mar_22_1306,localizer,2021.1.3,59.9646208730516,
block_start,scrambled,scrambled038.bmp,,,,,0,46,46,46,,,,,,,,,,,,,,,,,,,,,,,,,,,,,,,,,,,,,,,,,,t,1.782326499989722,541.4792242999829,None,541.4792242999829,None,2023-03-22-13:15:00.091204,543.2887532000022,543.5959983000066,543.2887532000022,None,None,543.2887532000022,None,544.0958749699872,None,,,,22051,0002,2023_Mar_22_1306,localizer,2021.1.3,59.9646208730516,
block,scrambled,scrambled076.bmp,,,,,0,47,47,47,,,,,,,,,,,,,,,,,,,,,,,,,,,,,,,,,,,,,,,,,,None,,544.0958749699872,None,544.0958749699872,None,2023-03-22-13:15:00.906537,544.0972639000101,544.4128142999834,544.0972639000101,None,None,544.0972639000101,None,544.9125635699835,None,,,,22051,0002,2023_Mar_22_1306,localizer,2021.1.3,59.9646208730516,
block,scrambled,scrambled017.bmp,,,,,0,48,48,48,,,,,,,,,,,,,,,,,,,,,,,,,,,,,,,,,,,,,,,,,,None,,544.9125635699835,None,544.9125635699835,None,2023-03-22-13:15:01.724229,544.9192907999968,545.229410800006,544.9192907999968,None,None,544.9192907999968,None,545.7296449700021,None,,,,22051,0002,2023_Mar_22_1306,localizer,2021.1.3,59.9646208730516,
block,scrambled,scrambled040.bmp,,,,,0,49,49,49,,,,,,,,,,,,,,,,,,,,,,,,,,,,,,,,,,,,,,,,,,None,,545.7296449700021,None,545.7296449700021,None,2023-03-22-13:15:02.541510,545.741036499996,546.0464212000079,545.741036499996,None,None,545.741036499996,None,546.5466508699989,None,,,,22051,0002,2023_Mar_22_1306,localizer,2021.1.3,59.9646208730516,
block,scrambled,scrambled079.bmp,,,,,0,50,50,50,,,,,,,,,,,,,,,,,,,,,,,,,,,,,,,,,,,,,,,,,,None,,546.5466508699989,None,546.5466508699989,None,2023-03-22-13:15:03.358465,546.5583612000046,546.8628715999948,546.5583612000046,None,None,546.5583612000046,None,547.3626457700099,None,,,,22051,0002,2023_Mar_22_1306,localizer,2021.1.3,59.9646208730516,
block,scrambled,scrambled072.bmp,,,,,0,51,51,51,,,,,,,,,,,,,,,,,,,,,,,,,,,,,,,,,,,,,,,,,,None,,547.3626457700099,None,547.3626457700099,None,2023-03-22-13:15:04.174312,547.3732518999896,547.6794633999816,547.3732518999896,None,None,547.3732518999896,None,548.1796567699872,None,,,,22051,0002,2023_Mar_22_1306,localizer,2021.1.3,59.9646208730516,
block,scrambled,scrambled070.bmp,,,,,0,52,52,52,,,,,,,,,,,,,,,,,,,,,,,,,,,,,,,,,,,,,,,,,,None,,548.1796567699872,None,548.1796567699872,None,2023-03-22-13:15:04.991318,548.1905581000028,548.4960339000099,548.1905581000028,None,None,548.1905581000028,None,548.9960458700021,None,,,,22051,0002,2023_Mar_22_1306,localizer,2021.1.3,59.9646208730516,
block,scrambled,scrambled032.bmp,,,,,0,53,53,53,,,,,,,,,,,,,,,,,,,,,,,,,,,,,,,,,,,,,,,,,,None,,548.9960458700021,None,548.9960458700021,None,2023-03-22-13:15:05.807932,548.9970359999861,549.2962297000049,548.9970359999861,None,None,548.9970359999861,None,549.7963951700018,None,,,,22051,0002,2023_Mar_22_1306,localizer,2021.1.3,59.9646208730516,
block,scrambled,scrambled035.bmp,,,,,0,54,54,54,,,,,,,,,,,,,,,,,,,,,,,,,,,,,,,,,,,,,,,,,,None,,549.7963951700018,None,549.7963951700018,None,2023-03-22-13:15:06.609053,549.7968433999922,550.0961749999842,549.7968433999922,549.7968433999922,None,549.7968433999922,549.7968433999922,550.5975593700074,None,,,,22051,0002,2023_Mar_22_1306,localizer,2021.1.3,59.9646208730516,
block,scrambled,scrambled081.bmp,,,,,0,55,55,55,,,,,,,,,,,,,,,,,,,,,,,,,,,,,,,,,,,,,,,,,,None,,550.5975593700074,None,550.5975593700074,None,2023-03-22-13:15:07.413230,550.6143742999993,550.9294831999869,550.6143742999993,550.6143742999993,None,550.6143742999993,550.6143742999993,551.4151237700077,None,,,,22051,0002,2023_Mar_22_1306,localizer,2021.1.3,59.9646208730516,
block,scrambled,scrambled073.bmp,,,,,0,56,56,56,,,,,,,,,,,,,,,,,,,,,,,,,,,,,,,,,,,,,,,,,,None,,551.4151237700077,None,551.4151237700077,None,2023-03-22-13:15:08.230950,551.4179850000073,551.7295431999955,551.4179850000073,None,None,551.4179850000073,None,552.230236069992,None,,,,22051,0002,2023_Mar_22_1306,localizer,2021.1.3,59.9646208730516,
block,scrambled,scrambled080.bmp,,,,,0,57,57,57,,,,,,,,,,,,,,,,,,,,,,,,,,,,,,,,,,,,,,,,,,None,,552.230236069992,None,552.230236069992,None,2023-03-22-13:15:09.043078,552.2429006999882,552.5461290999956,552.2429006999882,None,None,552.2429006999882,None,553.0461279700045,None,,,,22051,0002,2023_Mar_22_1306,localizer,2021.1.3,59.9646208730516,
block,scrambled,scrambled029.bmp,,,,,0,58,58,58,,,,,,,,,,,,,,,,,,,,,,,,,,,,,,,,,,,,,,,,,,None,,553.0461279700045,None,553.0461279700045,None,2023-03-22-13:15:09.857790,553.057934899989,553.3627680999925,553.057934899989,None,None,553.057934899989,None,553.8627878699859,None,,,,22051,0002,2023_Mar_22_1306,localizer,2021.1.3,59.9646208730516,
block,scrambled,scrambled042.bmp,,,,,0,59,59,59,,,,,,,,,,,,,,,,,,,,,,,,,,,,,,,,,,,,,,,,,,None,,553.8627878699859,None,553.8627878699859,None,2023-03-22-13:15:10.674456,553.8639192999981,554.1794375999889,553.8639192999981,None,None,553.8639192999981,None,554.6797738700058,None,,,,22051,0002,2023_Mar_22_1306,localizer,2021.1.3,59.9646208730516,
block_end,scrambled,scrambled018.bmp,,,,,0,60,60,60,,,,,,,,,,,,,,,,,,,,,,,,,,,,,,,,,,,,,,,,,,None,,554.6797738700058,None,554.6797738700058,None,2023-03-22-13:15:11.491502,554.6911301999935,554.9961257999821,554.6911301999935,None,None,554.6911301999935,None,555.4964535699925,None,,,,22051,0002,2023_Mar_22_1306,localizer,2021.1.3,59.9646208730516,
block_start,scrambled,scrambled012.bmp,,,,,0,61,61,61,,,,,,,,,,,,,,,,,,,,,,,,,,,,,,,,,,,,,,,,,,t,1.7653592000133358,555.4962263999914,None,555.4962263999914,None,2023-03-22-13:15:14.093712,557.2952734999999,557.5965491000097,557.2952734999999,None,None,557.2952734999999,None,558.0964364699845,None,,,,22051,0002,2023_Mar_22_1306,localizer,2021.1.3,59.9646208730516,
block,scrambled,scrambled016.bmp,,,,,0,62,62,62,,,,,,,,,,,,,,,,,,,,,,,,,,,,,,,,,,,,,,,,,,None,,558.0964364699845,None,558.0964364699845,None,2023-03-22-13:15:14.908117,558.097136700002,558.396268499986,558.097136700002,None,None,558.097136700002,None,558.896214269998,None,,,,22051,0002,2023_Mar_22_1306,localizer,2021.1.3,59.9646208730516,
block,scrambled,scrambled055.bmp,,,,,0,63,63,63,,,,,,,,,,,,,,,,,,,,,,,,,,,,,,,,,,,,,,,,,,None,,558.896214269998,None,558.896214269998,None,2023-03-22-13:15:15.709876,558.8973393999913,559.1966871999903,558.8973393999913,558.8973393999913,None,558.8973393999913,558.8973393999913,559.6967724699876,None,,,,22051,0002,2023_Mar_22_1306,localizer,2021.1.3,59.9646208730516,
block,scrambled,scrambled055.bmp,,,,,0,64,64,64,,,,,,,,,,,,,,,,,,,,,,,,,,,,,,,,,,,,,,,,,,None,,559.6967724699876,None,559.6967724699876,None,2023-03-22-13:15:16.510425,559.6995800999866,560.0132885999919,559.6995800999866,559.6995800999866,y,559.6995800999866,559.6995800999866,560.5135242699995,None,0.6988351999898441,,,22051,0002,2023_Mar_22_1306,localizer,2021.1.3,59.9646208730516,
block,scrambled,scrambled029.bmp,,,,,0,65,65,65,,,,,,,,,,,,,,,,,,,,,,,,,,,,,,,,,,,,,,,,,,None,,560.5135242699995,None,560.5135242699995,None,2023-03-22-13:15:17.325377,560.5140479999827,560.8294373000099,560.5140479999827,None,None,560.5140479999827,None,561.3131035699859,None,,,,22051,0002,2023_Mar_22_1306,localizer,2021.1.3,59.9646208730516,
block,scrambled,scrambled081.bmp,,,,,0,66,66,66,,,,,,,,,,,,,,,,,,,,,,,,,,,,,,,,,,,,,,,,,,None,,561.3131035699859,None,561.3131035699859,None,2023-03-22-13:15:18.125766,561.3138045000087,561.6129156999814,561.3138045000087,561.3138045000087,None,561.3138045000087,561.3138045000087,562.1129720699915,None,,,,22051,0002,2023_Mar_22_1306,localizer,2021.1.3,59.9646208730516,
block,scrambled,scrambled086.bmp,,,,,0,67,67,67,,,,,,,,,,,,,,,,,,,,,,,,,,,,,,,,,,,,,,,,,,None,,562.1129720699915,None,562.1129720699915,None,2023-03-22-13:15:18.925855,562.1250741999829,562.429601699987,562.1250741999829,562.1250741999829,None,562.1250741999829,562.1250741999829,562.9299004700093,None,,,,22051,0002,2023_Mar_22_1306,localizer,2021.1.3,59.9646208730516,
block,scrambled,scrambled032.bmp,,,,,0,68,68,68,,,,,,,,,,,,,,,,,,,,,,,,,,,,,,,,,,,,,,,,,,None,,562.9299004700093,None,562.9299004700093,None,2023-03-22-13:15:19.741789,562.9304827000014,563.2295159999921,562.9304827000014,None,None,562.9304827000014,None,563.7296040700109,None,,,,22051,0002,2023_Mar_22_1306,localizer,2021.1.3,59.9646208730516,
block,scrambled,scrambled020.bmp,,,,,0,69,69,69,,,,,,,,,,,,,,,,,,,,,,,,,,,,,,,,,,,,,,,,,,None,,563.7296040700109,None,563.7296040700109,None,2023-03-22-13:15:20.543435,563.7423271999869,564.046875,563.7423271999869,563.7423271999869,None,563.7423271999869,563.7423271999869,564.5490155699896,None,,,,22051,0002,2023_Mar_22_1306,localizer,2021.1.3,59.9646208730516,
block,scrambled,scrambled088.bmp,,,,,0,70,70,70,,,,,,,,,,,,,,,,,,,,,,,,,,,,,,,,,,,,,,,,,,None,,564.5490155699896,None,564.5490155699896,None,2023-03-22-13:15:21.364686,564.5692715999903,564.8801739999908,564.5692715999903,None,None,564.5692715999903,None,565.3636916699994,None,,,,22051,0002,2023_Mar_22_1306,localizer,2021.1.3,59.9646208730516,
block,scrambled,scrambled007.bmp,,,,,0,71,71,71,,,,,,,,,,,,,,,,,,,,,,,,,,,,,,,,,,,,,,,,,,None,,565.3636916699994,None,565.3636916699994,None,2023-03-22-13:15:22.176325,565.3767373999872,565.6794998999976,565.3767373999872,None,None,565.3767373999872,None,566.1798106699949,None,,,,22051,0002,2023_Mar_22_1306,localizer,2021.1.3,59.9646208730516,
block,scrambled,scrambled024.bmp,,,,,0,72,72,72,,,,,,,,,,,,,,,,,,,,,,,,,,,,,,,,,,,,,,,,,,None,,566.1798106699949,None,566.1798106699949,None,2023-03-22-13:15:22.991473,566.1907392999856,566.4976522999932,566.1907392999856,None,None,566.1907392999856,None,566.9965727699979,None,,,,22051,0002,2023_Mar_22_1306,localizer,2021.1.3,59.9646208730516,
block,scrambled,scrambled068.bmp,,,,,0,73,73,73,,,,,,,,,,,,,,,,,,,,,,,,,,,,,,,,,,,,,,,,,,None,,566.9965727699979,None,566.9965727699979,None,2023-03-22-13:15:23.808238,566.997340300004,567.3128660999937,566.997340300004,None,None,566.997340300004,None,567.7965478700004,None,,,,22051,0002,2023_Mar_22_1306,localizer,2021.1.3,59.9646208730516,
block,scrambled,scrambled031.bmp,,,,,0,74,74,74,,,,,,,,,,,,,,,,,,,,,,,,,,,,,,,,,,,,,,,,,,None,,567.7965478700004,None,567.7965478700004,None,2023-03-22-13:15:24.609528,567.7971408999874,568.0969886000094,567.7971408999874,567.7971408999874,None,567.7971408999874,567.7971408999874,568.5970490699925,None,,,,22051,0002,2023_Mar_22_1306,localizer,2021.1.3,59.9646208730516,
block_end,scrambled,scrambled033.bmp,,,,,0,75,75,75,,,,,,,,,,,,,,,,,,,,,,,,,,,,,,,,,,,,,,,,,,None,,568.5970490699925,None,568.5970490699925,None,2023-03-22-13:15:25.411894,568.6000130999892,568.9136453999963,568.6000130999892,568.6000130999892,None,568.6000130999892,568.6000130999892,569.4138251699857,None,,,,22051,0002,2023_Mar_22_1306,localizer,2021.1.3,59.9646208730516,
block_start,faces,faces044.bmp,,,,,0,76,76,76,,,,,,,,,,,,,,,,,,,,,,,,,,,,,,,,,,,,,,,,,,t,1.848180200002389,569.4136242000095,None,569.4136242000095,None,2023-03-22-13:15:28.091925,571.2807007000083,571.5796926000039,571.2807007000083,None,None,571.2807007000083,None,572.0804367699835,None,,,,22051,0002,2023_Mar_22_1306,localizer,2021.1.3,59.9646208730516,
block,faces,faces045.bmp,,,,,0,77,77,77,,,,,,,,,,,,,,,,,,,,,,,,,,,,,,,,,,,,,,,,,,None,,572.0804367699835,None,572.0804367699835,None,2023-03-22-13:15:28.895082,572.096571800008,572.3965104999952,572.096571800008,572.096571800008,None,572.096571800008,572.096571800008,572.8964429699932,None,,,,22051,0002,2023_Mar_22_1306,localizer,2021.1.3,59.9646208730516,
block,faces,faces084.bmp,,,,,0,78,78,78,,,,,,,,,,,,,,,,,,,,,,,,,,,,,,,,,,,,,,,,,,None,,572.8964429699932,None,572.8964429699932,None,2023-03-22-13:15:29.708110,572.9070457000053,573.2128893999907,572.9070457000053,None,None,572.9070457000053,None,573.7133517700073,None,,,,22051,0002,2023_Mar_22_1306,localizer,2021.1.3,59.9646208730516,
block,faces,faces004.bmp,,,,,0,79,79,79,,,,,,,,,,,,,,,,,,,,,,,,,,,,,,,,,,,,,,,,,,None,,573.7133517700073,None,573.7133517700073,None,2023-03-22-13:15:30.525134,573.7303827999858,574.0297953999834,573.7303827999858,None,None,573.7303827999858,None,574.529902570002,None,,,,22051,0002,2023_Mar_22_1306,localizer,2021.1.3,59.9646208730516,
block,faces,faces027.bmp,,,,,0,80,80,80,,,,,,,,,,,,,,,,,,,,,,,,,,,,,,,,,,,,,,,,,,None,,574.529902570002,None,574.529902570002,None,2023-03-22-13:15:31.341803,574.5307440999895,574.8299227999814,574.5307440999895,None,None,574.5307440999895,None,575.3301295700018,None,,,,22051,0002,2023_Mar_22_1306,localizer,2021.1.3,59.9646208730516,
block,faces,faces024.bmp,,,,,0,81,81,81,,,,,,,,,,,,,,,,,,,,,,,,,,,,,,,,,,,,,,,,,,None,,575.3301295700018,None,575.3301295700018,None,2023-03-22-13:15:32.143785,575.3329529000039,575.6463291999826,575.3329529000039,575.3329529000039,None,575.3329529000039,575.3329529000039,576.1465503699961,None,,,,22051,0002,2023_Mar_22_1306,localizer,2021.1.3,59.9646208730516,
block,faces,faces050.bmp,,,,,0,82,82,82,,,,,,,,,,,,,,,,,,,,,,,,,,,,,,,,,,,,,,,,,,None,,576.1465503699961,None,576.1465503699961,None,2023-03-22-13:15:32.958216,576.1473227000097,576.4462202999857,576.1473227000097,None,None,576.1473227000097,None,576.9468011700025,None,,,,22051,0002,2023_Mar_22_1306,localizer,2021.1.3,59.9646208730516,
block,faces,faces082.bmp,,,,,0,83,83,83,,,,,,,,,,,,,,,,,,,,,,,,,,,,,,,,,,,,,,,,,,None,,576.9468011700025,None,576.9468011700025,None,2023-03-22-13:15:33.760457,576.9479740999814,577.2637222000048,576.9479740999814,576.9479740999814,None,576.9479740999814,576.9479740999814,577.763163869991,None,,,,22051,0002,2023_Mar_22_1306,localizer,2021.1.3,59.9646208730516,
block,faces,faces006.bmp,,,,,0,84,84,84,,,,,,,,,,,,,,,,,,,,,,,,,,,,,,,,,,,,,,,,,,None,,577.763163869991,None,577.763163869991,None,2023-03-22-13:15:34.574831,577.7640588000068,578.063411399984,577.7640588000068,None,None,577.7640588000068,None,578.5634602699953,None,,,,22051,0002,2023_Mar_22_1306,localizer,2021.1.3,59.9646208730516,
block,faces,faces060.bmp,,,,,0,85,85,85,,,,,,,,,,,,,,,,,,,,,,,,,,,,,,,,,,,,,,,,,,None,,578.5634602699953,None,578.5634602699953,None,2023-03-22-13:15:35.377332,578.5741439999838,578.8795882999839,578.5741439999838,578.5741439999838,None,578.5741439999838,578.5741439999838,579.3811220700096,None,,,,22051,0002,2023_Mar_22_1306,localizer,2021.1.3,59.9646208730516,
block,faces,faces081.bmp,,,,,0,86,86,86,,,,,,,,,,,,,,,,,,,,,,,,,,,,,,,,,,,,,,,,,,None,,579.3811220700096,None,579.3811220700096,None,2023-03-22-13:15:36.194304,579.3835915999953,579.6963988000061,579.3835915999953,None,None,579.3835915999953,None,580.1965665699914,None,,,,22051,0002,2023_Mar_22_1306,localizer,2021.1.3,59.9646208730516,
block,faces,faces047.bmp,,,,,0,87,87,87,,,,,,,,,,,,,,,,,,,,,,,,,,,,,,,,,,,,,,,,,,None,,580.1965665699914,None,580.1965665699914,None,2023-03-22-13:15:37.008233,580.1972607999924,580.4964521999937,580.1972607999924,None,None,580.1972607999924,None,580.9964987699874,None,,,,22051,0002,2023_Mar_22_1306,localizer,2021.1.3,59.9646208730516,
block,faces,faces003.bmp,,,,,0,88,88,88,,,,,,,,,,,,,,,,,,,,,,,,,,,,,,,,,,,,,,,,,,None,,580.9964987699874,None,580.9964987699874,None,2023-03-22-13:15:37.810234,580.9976938999898,581.3131004000024,580.9976938999898,580.9976938999898,None,580.9976938999898,580.9976938999898,581.8028625700041,None,,,,22051,0002,2023_Mar_22_1306,localizer,2021.1.3,59.9646208730516,
block,faces,faces070.bmp,,,,,0,89,89,89,,,,,,,,,,,,,,,,,,,,,,,,,,,,,,,,,,,,,,,,,,None,,581.8028625700041,None,581.8028625700041,None,2023-03-22-13:15:38.622363,581.8094504000037,582.1131700999977,581.8094504000037,581.8094504000037,None,581.8094504000037,581.8094504000037,582.6134000699909,None,,,,22051,0002,2023_Mar_22_1306,localizer,2021.1.3,59.9646208730516,
block_end,faces,faces068.bmp,,,,,0,90,90,90,,,,,,,,,,,,,,,,,,,,,,,,,,,,,,,,,,,,,,,,,,None,,582.6134000699909,None,582.6134000699909,None,2023-03-22-13:15:39.425187,582.6235596000042,582.9336212000053,582.6235596000042,None,None,582.6235596000042,None,583.4321146699891,None,,,,22051,0002,2023_Mar_22_1306,localizer,2021.1.3,59.9646208730516,
null_block,null_block,null_block.bmp,,,,,0,91,91,91,,,,,,,,,,,,,,,,,,,,,,,,,,,,,,,,,,,,,,,,,,t,1.8278993999992963,583.4337365000101,None,583.4337365000101,None,2023-03-22-13:15:42.090133,585.2802643699921,None,585.2802643699921,None,None,585.2802643699921,None,585.2899985999975,None,,,,22051,0002,2023_Mar_22_1306,localizer,2021.1.3,59.9646208730516,
block_start,objects,objects002.bmp,,,,,0,92,92,92,,,,,,,,,,,,,,,,,,,,,,,,,,,,,,,,,,,,,,,,,,t,1.9643469999718945,597.2971243000065,None,597.2971243000065,None,2023-03-22-13:15:56.091753,599.2807512999862,599.5963742999884,599.2807512999862,None,None,599.2807512999862,None,600.0806151700032,None,,,,22051,0002,2023_Mar_22_1306,localizer,2021.1.3,59.9646208730516,
block,objects,objects057.bmp,,,,,0,93,93,93,,,,,,,,,,,,,,,,,,,,,,,,,,,,,,,,,,,,,,,,,,None,,600.0806151700032,None,600.0806151700032,None,2023-03-22-13:15:56.895205,600.0962292999902,600.3964565999922,600.0962292999902,600.0962292999902,None,600.0962292999902,600.0962292999902,600.8964951699833,None,,,,22051,0002,2023_Mar_22_1306,localizer,2021.1.3,59.9646208730516,
block,objects,objects078.bmp,,,,,0,94,94,94,,,,,,,,,,,,,,,,,,,,,,,,,,,,,,,,,,,,,,,,,,None,,600.8964951699833,None,600.8964951699833,None,2023-03-22-13:15:57.708429,600.8973799000087,601.196558399999,600.8973799000087,None,None,600.8973799000087,None,601.6969381699979,None,,,,22051,0002,2023_Mar_22_1306,localizer,2021.1.3,59.9646208730516,
block,objects,objects007.bmp,,,,,0,95,95,95,,,,,,,,,,,,,,,,,,,,,,,,,,,,,,,,,,,,,,,,,,None,,601.6969381699979,None,601.6969381699979,None,2023-03-22-13:15:58.510839,601.7119365999824,602.0144790000049,601.7119365999824,601.7119365999824,None,601.7119365999824,601.7119365999824,602.51332426999,None,,,,22051,0002,2023_Mar_22_1306,localizer,2021.1.3,59.9646208730516,
block,objects,objects049.bmp,,,,,0,96,96,96,,,,,,,,,,,,,,,,,,,,,,,,,,,,,,,,,,,,,,,,,,None,,602.51332426999,None,602.51332426999,None,2023-03-22-13:15:59.324920,602.5142601999978,602.813341400004,602.5142601999978,None,None,602.5142601999978,None,603.3295113700093,None,,,,22051,0002,2023_Mar_22_1306,localizer,2021.1.3,59.9646208730516,
block,objects,objects015.bmp,,,,,0,97,97,97,,,,,,,,,,,,,,,,,,,,,,,,,,,,,,,,,,,,,,,,,,None,,603.3295113700093,None,603.3295113700093,None,2023-03-22-13:16:00.141431,603.3367032000097,603.6464870999916,603.3367032000097,None,None,603.3367032000097,None,604.1469648700091,None,,,,22051,0002,2023_Mar_22_1306,localizer,2021.1.3,59.9646208730516,
block,objects,objects077.bmp,,,,,0,98,98,98,,,,,,,,,,,,,,,,,,,,,,,,,,,,,,,,,,,,,,,,,,None,,604.1469648700091,None,604.1469648700091,None,2023-03-22-13:16:00.958630,604.1475333999842,604.4465881999931,604.1475333999842,None,None,604.1475333999842,None,604.9473887699947,None,,,,22051,0002,2023_Mar_22_1306,localizer,2021.1.3,59.9646208730516,
block,objects,objects047.bmp,,,,,0,99,99,99,,,,,,,,,,,,,,,,,,,,,,,,,,,,,,,,,,,,,,,,,,None,,604.9473887699947,None,604.9473887699947,None,2023-03-22-13:16:01.762004,604.950050399988,605.2637273999862,604.950050399988,604.950050399988,None,604.950050399988,604.950050399988,605.7638696700102,None,,,,22051,0002,2023_Mar_22_1306,localizer,2021.1.3,59.9646208730516,
block,objects,objects062.bmp,,,,,0,100,100,100,,,,,,,,,,,,,,,,,,,,,,,,,,,,,,,,,,,,,,,,,,None,,605.7638696700102,None,605.7638696700102,None,2023-03-22-13:16:02.575545,605.7720267999975,606.0799262000073,605.7720267999975,None,None,605.7720267999975,None,606.580232670001,None,,,,22051,0002,2023_Mar_22_1306,localizer,2021.1.3,59.9646208730516,
block,objects,objects048.bmp,,,,,0,101,101,101,,,,,,,,,,,,,,,,,,,,,,,,,,,,,,,,,,,,,,,,,,None,,606.580232670001,None,606.580232670001,None,2023-03-22-13:16:03.391928,606.580890799989,606.8798752999865,606.580890799989,None,None,606.580890799989,None,607.3801475700108,None,,,,22051,0002,2023_Mar_22_1306,localizer,2021.1.3,59.9646208730516,
block,objects,objects019.bmp,,,,,0,102,102,102,,,,,,,,,,,,,,,,,,,,,,,,,,,,,,,,,,,,,,,,,,None,,607.3801475700108,None,607.3801475700108,None,2023-03-22-13:16:04.192862,607.3808343999845,607.6801631999842,607.3808343999845,607.3808343999845,None,607.3808343999845,607.3808343999845,608.1798812700087,None,,,,22051,0002,2023_Mar_22_1306,localizer,2021.1.3,59.9646208730516,
block,objects,objects036.bmp,,,,,0,103,103,103,,,,,,,,,,,,,,,,,,,,,,,,,,,,,,,,,,,,,,,,,,None,,608.1798812700087,None,608.1798812700087,None,2023-03-22-13:16:04.993202,608.1813406999863,608.4964319999854,608.1813406999863,608.1813406999863,None,608.1813406999863,608.1813406999863,608.982220169995,None,,,,22051,0002,2023_Mar_22_1306,localizer,2021.1.3,59.9646208730516,
block,objects,objects020.bmp,,,,,0,104,104,104,,,,,,,,,,,,,,,,,,,,,,,,,,,,,,,,,,,,,,,,,,None,,608.982220169995,None,608.982220169995,None,2023-03-22-13:16:05.799861,608.9895364999829,609.2974091999931,608.9895364999829,608.9895364999829,None,608.9895364999829,608.9895364999829,609.7974671699864,None,,,,22051,0002,2023_Mar_22_1306,localizer,2021.1.3,59.9646208730516,
block,objects,objects038.bmp,,,,,0,105,105,105,,,,,,,,,,,,,,,,,,,,,,,,,,,,,,,,,,,,,,,,,,None,,609.7974671699864,None,609.7974671699864,None,2023-03-22-13:16:06.610533,609.8108658999845,610.113983999996,609.8108658999845,None,None,609.8108658999845,None,610.6132524700021,None,,,,22051,0002,2023_Mar_22_1306,localizer,2021.1.3,59.9646208730516,
block_end,objects,objects068.bmp,,,,,0,106,106,106,,,,,,,,,,,,,,,,,,,,,,,,,,,,,,,,,,,,,,,,,,None,,610.6132524700021,None,610.6132524700021,None,2023-03-22-13:16:07.425047,610.6141139999963,610.9298150999821,610.6141139999963,None,None,610.6141139999963,None,611.4197655699915,None,,,,22051,0002,2023_Mar_22_1306,localizer,2021.1.3,59.9646208730516,
block_start,scenes,scenes010.bmp,,,,,0,107,107,107,,,,,,,,,,,,,,,,,,,,,,,,,,,,,,,,,,,,,,,,,,t,1.841762900003232,611.4197089000081,None,611.4197089000081,None,2023-03-22-13:16:10.092490,613.2813748999906,613.580764399987,613.2813748999906,None,None,613.2813748999906,None,614.0808007699903,None,,,,22051,0002,2023_Mar_22_1306,localizer,2021.1.3,59.9646208730516,
block,scenes,scenes012.bmp,,,,,0,108,108,108,,,,,,,,,,,,,,,,,,,,,,,,,,,,,,,,,,,,,,,,,,None,,614.0808007699903,None,614.0808007699903,None,2023-03-22-13:16:10.895652,614.0956513999845,614.3963913999905,614.0956513999845,614.0956513999845,None,614.0956513999845,614.0956513999845,614.8967617700051,None,,,,22051,0002,2023_Mar_22_1306,localizer,2021.1.3,59.9646208730516,
block,scenes,scenes033.bmp,,,,,0,109,109,109,,,,,,,,,,,,,,,,,,,,,,,,,,,,,,,,,,,,,,,,,,None,,614.8967617700051,None,614.8967617700051,None,2023-03-22-13:16:11.708652,614.8975826000096,615.1988936999987,614.8975826000096,None,None,614.8975826000096,None,615.697568969999,None,,,,22051,0002,2023_Mar_22_1306,localizer,2021.1.3,59.9646208730516,
block,scenes,scenes080.bmp,,,,,0,110,110,110,,,,,,,,,,,,,,,,,,,,,,,,,,,,,,,,,,,,,,,,,,None,,615.697568969999,None,615.697568969999,None,2023-03-22-13:16:12.512557,615.7006055999955,616.0132172000012,615.7006055999955,615.7006055999955,None,615.7006055999955,615.7006055999955,616.513446969993,None,,,,22051,0002,2023_Mar_22_1306,localizer,2021.1.3,59.9646208730516,
block,scenes,scenes014.bmp,,,,,0,111,111,111,,,,,,,,,,,,,,,,,,,,,,,,,,,,,,,,,,,,,,,,,,None,,616.513446969993,None,616.513446969993,None,2023-03-22-13:16:13.325620,616.5142670999921,616.8135784000042,616.5142670999921,None,None,616.5142670999921,None,617.3300398699881,None,,,,22051,0002,2023_Mar_22_1306,localizer,2021.1.3,59.9646208730516,
block,scenes,scenes052.bmp,,,,,0,112,112,112,,,,,,,,,,,,,,,,,,,,,,,,,,,,,,,,,,,,,,,,,,None,,617.3300398699881,None,617.3300398699881,None,2023-03-22-13:16:14.142274,617.3311962999869,617.6528839000093,617.3311962999869,None,None,617.3311962999869,None,618.1303134699934,None,,,,22051,0002,2023_Mar_22_1306,localizer,2021.1.3,59.9646208730516,
block,scenes,scenes059.bmp,,,,,0,113,113,113,,,,,,,,,,,,,,,,,,,,,,,,,,,,,,,,,,,,,,,,,,None,,618.1303134699934,None,618.1303134699934,None,2023-03-22-13:16:14.944406,618.1321138000058,618.4467719999957,618.1321138000058,618.1321138000058,None,618.1321138000058,618.1321138000058,618.9466068700073,None,,,,22051,0002,2023_Mar_22_1306,localizer,2021.1.3,59.9646208730516,
block,scenes,scenes039.bmp,,,,,0,114,114,114,,,,,,,,,,,,,,,,,,,,,,,,,,,,,,,,,,,,,,,,,,None,,618.9466068700073,None,618.9466068700073,None,2023-03-22-13:16:15.758590,618.9477420999901,619.2632556000026,618.9477420999901,None,None,618.9477420999901,None,619.7476149699884,None,,,,22051,0002,2023_Mar_22_1306,localizer,2021.1.3,59.9646208730516,
block,scenes,scenes056.bmp,,,,,0,115,115,115,,,,,,,,,,,,,,,,,,,,,,,,,,,,,,,,,,,,,,,,,,None,,619.7476149699884,None,619.7476149699884,None,2023-03-22-13:16:16.562591,619.7506063999899,620.0631855000101,619.7506063999899,619.7506063999899,None,619.7506063999899,619.7506063999899,620.5635508699867,None,,,,22051,0002,2023_Mar_22_1306,localizer,2021.1.3,59.9646208730516,
block,scenes,scenes021.bmp,,,,,0,116,116,116,,,,,,,,,,,,,,,,,,,,,,,,,,,,,,,,,,,,,,,,,,None,,620.5635508699867,None,620.5635508699867,None,2023-03-22-13:16:17.375569,620.5759947999904,620.8806952000014,620.5759947999904,None,None,620.5759947999904,None,621.3804644700082,None,,,,22051,0002,2023_Mar_22_1306,localizer,2021.1.3,59.9646208730516,
block,scenes,scenes062.bmp,,,,,0,117,117,117,,,,,,,,,,,,,,,,,,,,,,,,,,,,,,,,,,,,,,,,,,None,,621.3804644700082,None,621.3804644700082,None,2023-03-22-13:16:18.192699,621.393997999985,621.6966047000024,621.393997999985,None,None,621.393997999985,None,622.196572570008,None,,,,22051,0002,2023_Mar_22_1306,localizer,2021.1.3,59.9646208730516,
block,scenes,scenes041.bmp,,,,,0,118,118,118,,,,,,,,,,,,,,,,,,,,,,,,,,,,,,,,,,,,,,,,,,None,,622.196572570008,None,622.196572570008,None,2023-03-22-13:16:19.008636,622.1977456999884,622.5133337999869,622.1977456999884,None,None,622.1977456999884,None,622.9998485699995,None,,,,22051,0002,2023_Mar_22_1306,localizer,2021.1.3,59.9646208730516,
block,scenes,scenes083.bmp,,,,,0,119,119,119,,,,,,,,,,,,,,,,,,,,,,,,,,,,,,,,,,,,,,,,,,None,,622.9998485699995,None,622.9998485699995,None,2023-03-22-13:16:19.816080,623.0163470999978,623.3299051999929,623.0163470999978,623.0163470999978,None,623.0163470999978,623.0163470999978,623.8135595699947,None,,,,22051,0002,2023_Mar_22_1306,localizer,2021.1.3,59.9646208730516,
block,scenes,scenes055.bmp,,,,,0,120,120,120,,,,,,,,,,,,,,,,,,,,,,,,,,,,,,,,,,,,,,,,,,None,,623.8135595699947,None,623.8135595699947,None,2023-03-22-13:16:20.625648,623.814126399986,624.1133284000098,623.814126399986,None,None,623.814126399986,None,624.6136797699961,None,,,,22051,0002,2023_Mar_22_1306,localizer,2021.1.3,59.9646208730516,
block_end,scenes,scenes089.bmp,,,,,0,121,121,121,,,,,,,,,,,,,,,,,,,,,,,,,,,,,,,,,,,,,,,,,,None,,624.6136797699961,None,624.6136797699961,None,2023-03-22-13:16:21.427900,624.6150599999819,624.9139512999973,624.6150599999819,624.6150599999819,None,624.6150599999819,624.6150599999819,625.414149969985,None,,,,22051,0002,2023_Mar_22_1306,localizer,2021.1.3,59.9646208730516,
block_start,scrambled,scrambled031.bmp,,,,,0,122,122,122,,,,,,,,,,,,,,,,,,,,,,,,,,,,,,,,,,,,,,,,,,t,1.8462521000183187,625.4143470999843,None,625.4143470999843,None,2023-03-22-13:16:24.094630,627.283952400001,627.5980603999924,627.283952400001,None,None,627.283952400001,None,628.0981730699947,None,,,,22051,0002,2023_Mar_22_1306,localizer,2021.1.3,59.9646208730516,
block,scrambled,scrambled069.bmp,,,,,0,123,123,123,,,,,,,,,,,,,,,,,,,,,,,,,,,,,,,,,,,,,,,,,,None,,628.0981730699947,None,628.0981730699947,None,2023-03-22-13:16:24.911890,628.1123592999938,628.4131824999931,628.1123592999938,None,None,628.1123592999938,None,628.9135599700036,None,,,,22051,0002,2023_Mar_22_1306,localizer,2021.1.3,59.9646208730516,
block,scrambled,scrambled011.bmp,,,,,0,124,124,124,,,,,,,,,,,,,,,,,,,,,,,,,,,,,,,,,,,,,,,,,,None,,628.9135599700036,None,628.9135599700036,None,2023-03-22-13:16:25.725769,628.9143145999988,629.213614999986,628.9143145999988,None,None,628.9143145999988,None,629.7138283699984,None,,,,22051,0002,2023_Mar_22_1306,localizer,2021.1.3,59.9646208730516,
block,scrambled,scrambled080.bmp,,,,,0,125,125,125,,,,,,,,,,,,,,,,,,,,,,,,,,,,,,,,,,,,,,,,,,None,,629.7138283699984,None,629.7138283699984,None,2023-03-22-13:16:26.528268,629.7155351999972,630.030128399987,629.7155351999972,629.7155351999972,None,629.7155351999972,629.7155351999972,630.5308683699928,None,,,,22051,0002,2023_Mar_22_1306,localizer,2021.1.3,59.9646208730516,
block,scrambled,scrambled083.bmp,,,,,0,126,126,126,,,,,,,,,,,,,,,,,,,,,,,,,,,,,,,,,,,,,,,,,,None,,630.5308683699928,None,630.5308683699928,None,2023-03-22-13:16:27.343315,630.5437474999926,630.846666700003,630.5437474999926,None,None,630.5437474999926,None,631.3467738699925,None,,,,22051,0002,2023_Mar_22_1306,localizer,2021.1.3,59.9646208730516,
block,scrambled,scrambled004.bmp,,,,,0,127,127,127,,,,,,,,,,,,,,,,,,,,,,,,,,,,,,,,,,,,,,,,,,None,,631.3467738699925,None,631.3467738699925,None,2023-03-22-13:16:28.159038,631.3539414999832,631.6637764000043,631.3539414999832,None,None,631.3539414999832,None,632.1656757699908,None,,,,22051,0002,2023_Mar_22_1306,localizer,2021.1.3,59.9646208730516,
block,scrambled,scrambled029.bmp,,,,,0,128,128,128,,,,,,,,,,,,,,,,,,,,,,,,,,,,,,,,,,,,,,,,,,None,,632.1656757699908,None,632.1656757699908,None,2023-03-22-13:16:28.981105,632.169971700001,632.4801015999983,632.169971700001,None,None,632.169971700001,None,632.9803283699963,None,,,,22051,0002,2023_Mar_22_1306,localizer,2021.1.3,59.9646208730516,
block,scrambled,scrambled052.bmp,,,,,0,129,129,129,,,,,,,,,,,,,,,,,,,,,,,,,,,,,,,,,,,,,,,,,,None,,632.9803283699963,None,632.9803283699963,None,2023-03-22-13:16:29.792625,632.981006499991,633.2863992000057,632.981006499991,None,None,632.981006499991,None,633.7823255700001,None,,,,22051,0002,2023_Mar_22_1306,localizer,2021.1.3,59.9646208730516,
block,scrambled,scrambled032.bmp,,,,,0,130,130,130,,,,,,,,,,,,,,,,,,,,,,,,,,,,,,,,,,,,,,,,,,None,,633.7823255700001,None,633.7823255700001,None,2023-03-22-13:16:30.600788,633.7899244999862,634.0967689999961,633.7899244999862,633.7899244999862,None,633.7899244999862,633.7899244999862,634.5971666699858,None,,,,22051,0002,2023_Mar_22_1306,localizer,2021.1.3,59.9646208730516,
block,scrambled,scrambled061.bmp,,,,,0,131,131,131,,,,,,,,,,,,,,,,,,,,,,,,,,,,,,,,,,,,,,,,,,None,,634.5971666699858,None,634.5971666699858,None,2023-03-22-13:16:31.409700,634.5977902000013,634.9133443000028,634.5977902000013,None,None,634.5977902000013,None,635.413701970008,None,,,,22051,0002,2023_Mar_22_1306,localizer,2021.1.3,59.9646208730516,
block,scrambled,scrambled075.bmp,,,,,0,132,132,132,,,,,,,,,,,,,,,,,,,,,,,,,,,,,,,,,,,,,,,,,,None,,635.413701970008,None,635.413701970008,None,2023-03-22-13:16:32.226033,635.4257223999884,635.7322682999948,635.4257223999884,None,None,635.4257223999884,None,636.2302826699976,None,,,,22051,0002,2023_Mar_22_1306,localizer,2021.1.3,59.9646208730516,
block,scrambled,scrambled040.bmp,,,,,0,133,133,133,,,,,,,,,,,,,,,,,,,,,,,,,,,,,,,,,,,,,,,,,,None,,636.2302826699976,None,636.2302826699976,None,2023-03-22-13:16:33.042894,636.2310647999984,636.5303417999821,636.2310647999984,None,None,636.2310647999984,None,637.0301167700032,None,,,,22051,0002,2023_Mar_22_1306,localizer,2021.1.3,59.9646208730516,
block,scrambled,scrambled077.bmp,,,,,0,134,134,134,,,,,,,,,,,,,,,,,,,,,,,,,,,,,,,,,,,,,,,,,,None,,637.0301167700032,None,637.0301167700032,None,2023-03-22-13:16:33.844670,637.0309861999995,637.3299800000095,637.0309861999995,637.0309861999995,None,637.0309861999995,637.0309861999995,637.8302349699894,None,,,,22051,0002,2023_Mar_22_1306,localizer,2021.1.3,59.9646208730516,
block,scrambled,scrambled060.bmp,,,,,0,135,135,135,,,,,,,,,,,,,,,,,,,,,,,,,,,,,,,,,,,,,,,,,,None,,637.8302349699894,None,637.8302349699894,None,2023-03-22-13:16:34.643642,637.8309439999866,638.1301781999937,637.8309439999866,637.8309439999866,None,637.8309439999866,637.8309439999866,638.6303805700096,None,,,,22051,0002,2023_Mar_22_1306,localizer,2021.1.3,59.9646208730516,
block_end,scrambled,scrambled072.bmp,,,,,0,136,136,136,,,,,,,,,,,,,,,,,,,,,,,,,,,,,,,,,,,,,,,,,,None,,638.6303805700096,None,638.6303805700096,None,2023-03-22-13:16:35.451827,638.6446922000032,638.9479278000072,638.6446922000032,638.6446922000032,None,638.6446922000032,638.6446922000032,639.446930269996,None,,,,22051,0002,2023_Mar_22_1306,localizer,2021.1.3,59.9646208730516,
block_start,faces,faces031.bmp,,,,,0,137,137,137,,,,,,,,,,,,,,,,,,,,,,,,,,,,,,,,,,,,,,,,,,t,1.8139996999816503,639.4466294999875,None,639.4466294999875,None,2023-03-22-13:16:38.094917,641.2888718000031,641.5968330999895,641.2888718000031,None,None,641.2888718000031,None,642.0981938700075,None,,,,22051,0002,2023_Mar_22_1306,localizer,2021.1.3,59.9646208730516,
block,faces,faces059.bmp,,,,,0,138,138,138,,,,,,,,,,,,,,,,,,,,,,,,,,,,,,,,,,,,,,,,,,None,,642.0981938700075,None,642.0981938700075,None,2023-03-22-13:16:38.911864,642.1073197000078,642.4138323999941,642.1073197000078,None,None,642.1073197000078,None,642.91498517,None,,,,22051,0002,2023_Mar_22_1306,localizer,2021.1.3,59.9646208730516,
block,faces,faces005.bmp,,,,,0,139,139,139,,,,,,,,,,,,,,,,,,,,,,,,,,,,,,,,,,,,,,,,,,None,,642.91498517,None,642.91498517,None,2023-03-22-13:16:39.728665,642.929149500007,643.2301792000071,642.929149500007,None,None,642.929149500007,None,643.7304567699845,None,,,,22051,0002,2023_Mar_22_1306,localizer,2021.1.3,59.9646208730516,
block,faces,faces005.bmp,,,,,0,140,140,140,,,,,,,,,,,,,,,,,,,,,,,,,,,,,,,,,,,,,,,,,,None,,643.7304567699845,None,643.7304567699845,None,2023-03-22-13:16:40.542998,643.7311824999924,644.0302777999896,643.7311824999924,None,None,643.7311824999924,None,644.5326977700112,None,,,,22051,0002,2023_Mar_22_1306,localizer,2021.1.3,59.9646208730516,
block,faces,faces048.bmp,,,,,0,141,141,141,,,,,,,,,,,,,,,,,,,,,,,,,,,,,,,,,,,,,,,,,,None,,644.5326977700112,None,644.5326977700112,None,2023-03-22-13:16:41.348278,644.548663900001,644.8633727999986,644.548663900001,644.548663900001,y,644.548663900001,644.548663900001,645.3472051699879,None,0.12384689997998066,,,22051,0002,2023_Mar_22_1306,localizer,2021.1.3,59.9646208730516,
block,faces,faces071.bmp,,,,,0,142,142,142,,,,,,,,,,,,,,,,,,,,,,,,,,,,,,,,,,,,,,,,,,None,,645.3472051699879,None,645.3472051699879,None,2023-03-22-13:16:42.159957,645.3566514999839,645.6635899999819,645.3566514999839,None,None,645.3566514999839,None,646.1635443700012,None,,,,22051,0002,2023_Mar_22_1306,localizer,2021.1.3,59.9646208730516,
block,faces,faces053.bmp,,,,,0,143,143,143,,,,,,,,,,,,,,,,,,,,,,,,,,,,,,,,,,,,,,,,,,None,,646.1635443700012,None,646.1635443700012,None,2023-03-22-13:16:42.976142,646.1690137999831,646.4801533999853,646.1690137999831,None,None,646.1690137999831,None,646.9800884700031,None,,,,22051,0002,2023_Mar_22_1306,localizer,2021.1.3,59.9646208730516,
block,faces,faces037.bmp,,,,,0,144,144,144,,,,,,,,,,,,,,,,,,,,,,,,,,,,,,,,,,,,,,,,,,None,,646.9800884700031,None,646.9800884700031,None,2023-03-22-13:16:43.792889,646.9903332999966,647.2967313999834,646.9903332999966,None,None,646.9903332999966,None,647.7970546699886,None,,,,22051,0002,2023_Mar_22_1306,localizer,2021.1.3,59.9646208730516,
block,faces,faces056.bmp,,,,,0,145,145,145,,,,,,,,,,,,,,,,,,,,,,,,,,,,,,,,,,,,,,,,,,None,,647.7970546699886,None,647.7970546699886,None,2023-03-22-13:16:44.609689,647.802746500005,648.113881199999,647.802746500005,None,None,647.802746500005,None,648.6141065699863,None,,,,22051,0002,2023_Mar_22_1306,localizer,2021.1.3,59.9646208730516,
block,faces,faces002.bmp,,,,,0,146,146,146,,,,,,,,,,,,,,,,,,,,,,,,,,,,,,,,,,,,,,,,,,None,,648.6141065699863,None,648.6141065699863,None,2023-03-22-13:16:45.426898,648.6229039999889,648.9305935000011,648.6229039999889,None,None,648.6229039999889,None,649.4322790699895,None,,,,22051,0002,2023_Mar_22_1306,localizer,2021.1.3,59.9646208730516,
block,faces,faces016.bmp,,,,,0,147,147,147,,,,,,,,,,,,,,,,,,,,,,,,,,,,,,,,,,,,,,,,,,None,,649.4322790699895,None,649.4322790699895,None,2023-03-22-13:16:46.248864,649.4451380999817,649.7469959000009,649.4451380999817,None,None,649.4451380999817,None,650.2469016699994,None,,,,22051,0002,2023_Mar_22_1306,localizer,2021.1.3,59.9646208730516,
block,faces,faces003.bmp,,,,,0,148,148,148,,,,,,,,,,,,,,,,,,,,,,,,,,,,,,,,,,,,,,,,,,None,,650.2469016699994,None,650.2469016699994,None,2023-03-22-13:16:47.059587,650.2527675000019,650.564043499995,650.2527675000019,None,None,650.2527675000019,None,651.064369769994,None,,,,22051,0002,2023_Mar_22_1306,localizer,2021.1.3,59.9646208730516,
block,faces,faces050.bmp,,,,,0,149,149,149,,,,,,,,,,,,,,,,,,,,,,,,,,,,,,,,,,,,,,,,,,None,,651.064369769994,None,651.064369769994,None,2023-03-22-13:16:47.878045,651.0722415999917,651.380210000003,651.0722415999917,None,None,651.0722415999917,None,651.8807880699984,None,,,,22051,0002,2023_Mar_22_1306,localizer,2021.1.3,59.9646208730516,
block,faces,faces047.bmp,,,,,0,150,150,150,,,,,,,,,,,,,,,,,,,,,,,,,,,,,,,,,,,,,,,,,,None,,651.8807880699984,None,651.8807880699984,None,2023-03-22-13:16:48.693877,651.8935335999995,652.1968738999858,651.8935335999995,None,None,651.8935335999995,None,652.6971679700015,None,,,,22051,0002,2023_Mar_22_1306,localizer,2021.1.3,59.9646208730516,
block_end,faces,faces075.bmp,,,,,0,151,151,151,,,,,,,,,,,,,,,,,,,,,,,,,,,,,,,,,,,,,,,,,,None,,652.6971679700015,None,652.6971679700015,None,2023-03-22-13:16:49.509913,652.7029411999974,653.0136748999939,652.7029411999974,None,None,652.7029411999974,None,653.5139340700058,None,,,,22051,0002,2023_Mar_22_1306,localizer,2021.1.3,59.9646208730516,
block_start,scenes,scenes027.bmp,,,,,0,152,152,152,,,,,,,,,,,,,,,,,,,,,,,,,,,,,,,,,,,,,,,,,,t,1.7467404999770224,653.513810000004,None,653.513810000004,None,2023-03-22-13:16:52.095138,655.2961860999931,655.5967567999905,655.2961860999931,None,None,655.2961860999931,None,656.0972518699942,None,,,,22051,0002,2023_Mar_22_1306,localizer,2021.1.3,59.9646208730516,
block,scenes,scenes088.bmp,,,,,0,153,153,153,,,,,,,,,,,,,,,,,,,,,,,,,,,,,,,,,,,,,,,,,,None,,656.0972518699942,None,656.0972518699942,None,2023-03-22-13:16:52.910345,656.1031728000089,656.4137265000027,656.1031728000089,None,None,656.1031728000089,None,656.9140669699933,None,,,,22051,0002,2023_Mar_22_1306,localizer,2021.1.3,59.9646208730516,
block,scenes,scenes056.bmp,,,,,0,154,154,154,,,,,,,,,,,,,,,,,,,,,,,,,,,,,,,,,,,,,,,,,,None,,656.9140669699933,None,656.9140669699933,None,2023-03-22-13:16:53.727112,656.9217869999993,657.2300714000012,656.9217869999993,None,None,656.9217869999993,None,657.7308551699913,None,,,,22051,0002,2023_Mar_22_1306,localizer,2021.1.3,59.9646208730516,
block,scenes,scenes064.bmp,,,,,0,155,155,155,,,,,,,,,,,,,,,,,,,,,,,,,,,,,,,,,,,,,,,,,,None,,657.7308551699913,None,657.7308551699913,None,2023-03-22-13:16:54.543931,657.7424465999939,658.0475749000034,657.7424465999939,None,None,657.7424465999939,None,658.5477841699845,None,,,,22051,0002,2023_Mar_22_1306,localizer,2021.1.3,59.9646208730516,
block,scenes,scenes014.bmp,,,,,0,156,156,156,,,,,,,,,,,,,,,,,,,,,,,,,,,,,,,,,,,,,,,,,,None,,658.5477841699845,None,658.5477841699845,None,2023-03-22-13:16:55.361539,658.556709299999,658.8636302000086,658.556709299999,None,None,658.556709299999,None,659.3652693699929,None,,,,22051,0002,2023_Mar_22_1306,localizer,2021.1.3,59.9646208730516,
block,scenes,scenes063.bmp,,,,,0,157,157,157,,,,,,,,,,,,,,,,,,,,,,,,,,,,,,,,,,,,,,,,,,None,,659.3652693699929,None,659.3652693699929,None,2023-03-22-13:16:56.179330,659.3754476000031,659.6804104000039,659.3754476000031,None,None,659.3754476000031,None,660.1816196700034,None,,,,22051,0002,2023_Mar_22_1306,localizer,2021.1.3,59.9646208730516,
block,scenes,scenes017.bmp,,,,,0,158,158,158,,,,,,,,,,,,,,,,,,,,,,,,,,,,,,,,,,,,,,,,,,None,,660.1816196700034,None,660.1816196700034,None,2023-03-22-13:16:56.996510,660.1959043999959,660.4969361999829,660.1959043999959,None,None,660.1959043999959,None,660.9973177699954,None,,,,22051,0002,2023_Mar_22_1306,localizer,2021.1.3,59.9646208730516,
block,scenes,scenes058.bmp,,,,,0,159,159,159,,,,,,,,,,,,,,,,,,,,,,,,,,,,,,,,,,,,,,,,,,None,,660.9973177699954,None,660.9973177699954,None,2023-03-22-13:16:57.810248,661.0041993999912,661.3138078000047,661.0041993999912,None,None,661.0041993999912,None,661.813887269987,None,,,,22051,0002,2023_Mar_22_1306,localizer,2021.1.3,59.9646208730516,
block,scenes,scenes077.bmp,,,,,0,160,160,160,,,,,,,,,,,,,,,,,,,,,,,,,,,,,,,,,,,,,,,,,,None,,661.813887269987,None,661.813887269987,None,2023-03-22-13:16:58.626838,661.8263428999926,662.1305973999843,661.8263428999926,None,None,661.8263428999926,None,662.6307780700096,None,,,,22051,0002,2023_Mar_22_1306,localizer,2021.1.3,59.9646208730516,
block,scenes,scenes074.bmp,,,,,0,161,161,161,,,,,,,,,,,,,,,,,,,,,,,,,,,,,,,,,,,,,,,,,,None,,662.6307780700096,None,662.6307780700096,None,2023-03-22-13:16:59.443972,662.6383207000035,662.9470838999841,662.6383207000035,None,None,662.6383207000035,None,663.4474287700083,None,,,,22051,0002,2023_Mar_22_1306,localizer,2021.1.3,59.9646208730516,
block,scenes,scenes020.bmp,,,,,0,162,162,162,,,,,,,,,,,,,,,,,,,,,,,,,,,,,,,,,,,,,,,,,,None,,663.4474287700083,None,663.4474287700083,None,2023-03-22-13:17:00.260625,663.4549293000018,663.7636714999971,663.4549293000018,None,None,663.4549293000018,None,664.2645905699989,None,,,,22051,0002,2023_Mar_22_1306,localizer,2021.1.3,59.9646208730516,
block,scenes,scenes078.bmp,,,,,0,163,163,163,,,,,,,,,,,,,,,,,,,,,,,,,,,,,,,,,,,,,,,,,,None,,664.2645905699989,None,664.2645905699989,None,2023-03-22-13:17:01.078584,664.2766983000038,664.5805825999996,664.2766983000038,None,None,664.2766983000038,None,665.0805217699905,None,,,,22051,0002,2023_Mar_22_1306,localizer,2021.1.3,59.9646208730516,
block,scenes,scenes019.bmp,,,,,0,164,164,164,,,,,,,,,,,,,,,,,,,,,,,,,,,,,,,,,,,,,,,,,,None,,665.0805217699905,None,665.0805217699905,None,2023-03-22-13:17:01.893548,665.0863863999839,665.3969236999983,665.0863863999839,None,None,665.0863863999839,None,665.897150169994,None,,,,22051,0002,2023_Mar_22_1306,localizer,2021.1.3,59.9646208730516,
block,scenes,scenes008.bmp,,,,,0,165,165,165,,,,,,,,,,,,,,,,,,,,,,,,,,,,,,,,,,,,,,,,,,None,,665.897150169994,None,665.897150169994,None,2023-03-22-13:17:02.710423,665.9041388999904,666.214585299982,665.9041388999904,None,None,665.9041388999904,None,666.7146285700088,None,,,,22051,0002,2023_Mar_22_1306,localizer,2021.1.3,59.9646208730516,
block_end,scenes,scenes051.bmp,,,,,0,166,166,166,,,,,,,,,,,,,,,,,,,,,,,,,,,,,,,,,,,,,,,,,,None,,666.7146285700088,None,666.7146285700088,None,2023-03-22-13:17:03.528873,666.7250447999977,667.0302499999816,666.7250447999977,None,None,666.7250447999977,None,667.5304802700063,None,,,,22051,0002,2023_Mar_22_1306,localizer,2021.1.3,59.9646208730516,
null_block,null_block,null_block.bmp,,,,,0,167,167,167,,,,,,,,,,,,,,,,,,,,,,,,,,,,,,,,,,,,,,,,,,t,1.7300466999877244,667.5304418999876,None,667.5304418999876,None,2023-03-22-13:17:06.092823,669.2807014700026,None,669.2807014700026,None,None,669.2807014700026,None,669.290270700003,None,,,,22051,0002,2023_Mar_22_1306,localizer,2021.1.3,59.9646208730516,
block_start,objects,objects060.bmp,,,,,0,168,168,168,,,,,,,,,,,,,,,,,,,,,,,,,,,,,,,,,,,,,,,,,,t,1.9634365999954753,681.2972966000088,None,681.2972966000088,None,2023-03-22-13:17:20.098241,683.2965464000008,683.5971539999882,683.2965464000008,None,None,683.2965464000008,None,684.0978919700079,None,,,,22051,0002,2023_Mar_22_1306,localizer,2021.1.3,59.9646208730516,
block,objects,objects012.bmp,,,,,0,169,169,169,,,,,,,,,,,,,,,,,,,,,,,,,,,,,,,,,,,,,,,,,,None,,684.0978919700079,None,684.0978919700079,None,2023-03-22-13:17:20.912953,684.1093378000078,684.4140135000052,684.1093378000078,None,None,684.1093378000078,None,684.9166901700024,None,,,,22051,0002,2023_Mar_22_1306,localizer,2021.1.3,59.9646208730516,
block,objects,objects018.bmp,,,,,0,170,170,170,,,,,,,,,,,,,,,,,,,,,,,,,,,,,,,,,,,,,,,,,,None,,684.9166901700024,None,684.9166901700024,None,2023-03-22-13:17:21.734003,684.9317012999963,685.2472404,684.9317012999963,None,None,684.9317012999963,None,685.7318742700096,None,,,,22051,0002,2023_Mar_22_1306,localizer,2021.1.3,59.9646208730516,
block,objects,objects006.bmp,,,,,0,171,171,171,,,,,,,,,,,,,,,,,,,,,,,,,,,,,,,,,,,,,,,,,,None,,685.7318742700096,None,685.7318742700096,None,2023-03-22-13:17:22.547519,685.7474008999998,686.0471283000079,685.7474008999998,None,None,685.7474008999998,None,686.5472405700071,None,,,,22051,0002,2023_Mar_22_1306,localizer,2021.1.3,59.9646208730516,
block,objects,objects074.bmp,,,,,0,172,172,172,,,,,,,,,,,,,,,,,,,,,,,,,,,,,,,,,,,,,,,,,,None,,686.5472405700071,None,686.5472405700071,None,2023-03-22-13:17:23.360754,686.5532153999957,686.8536435999849,686.5532153999957,None,None,686.5532153999957,None,687.3653560699837,None,,,,22051,0002,2023_Mar_22_1306,localizer,2021.1.3,59.9646208730516,
block,objects,objects056.bmp,,,,,0,173,173,173,,,,,,,,,,,,,,,,,,,,,,,,,,,,,,,,,,,,,,,,,,None,,687.3653560699837,None,687.3653560699837,None,2023-03-22-13:17:24.180234,687.3794465000101,687.6803653000097,687.3794465000101,None,None,687.3794465000101,None,688.1806481699983,None,,,,22051,0002,2023_Mar_22_1306,localizer,2021.1.3,59.9646208730516,
block,objects,objects035.bmp,,,,,0,174,174,174,,,,,,,,,,,,,,,,,,,,,,,,,,,,,,,,,,,,,,,,,,None,,688.1806481699983,None,688.1806481699983,None,2023-03-22-13:17:24.994199,688.1918437999848,688.497328700003,688.1918437999848,None,None,688.1918437999848,None,688.998509169987,None,,,,22051,0002,2023_Mar_22_1306,localizer,2021.1.3,59.9646208730516,
block,objects,objects064.bmp,,,,,0,175,175,175,,,,,,,,,,,,,,,,,,,,,,,,,,,,,,,,,,,,,,,,,,None,,688.998509169987,None,688.998509169987,None,2023-03-22-13:17:25.814113,689.0080593999883,689.3138563999964,689.0080593999883,None,None,689.0080593999883,None,689.8146509700106,None,,,,22051,0002,2023_Mar_22_1306,localizer,2021.1.3,59.9646208730516,
block,objects,objects066.bmp,,,,,0,176,176,176,,,,,,,,,,,,,,,,,,,,,,,,,,,,,,,,,,,,,,,,,,None,,689.8146509700106,None,689.8146509700106,None,2023-03-22-13:17:26.629225,689.8271422999969,690.1300293999957,689.8271422999969,None,None,689.8271422999969,None,690.6309290699952,None,,,,22051,0002,2023_Mar_22_1306,localizer,2021.1.3,59.9646208730516,
block,objects,objects019.bmp,,,,,0,177,177,177,,,,,,,,,,,,,,,,,,,,,,,,,,,,,,,,,,,,,,,,,,None,,690.6309290699952,None,690.6309290699952,None,2023-03-22-13:17:27.444531,690.6378134999832,690.9472210000094,690.6378134999832,None,None,690.6378134999832,None,691.448554169992,None,,,,22051,0002,2023_Mar_22_1306,localizer,2021.1.3,59.9646208730516,
block,objects,objects063.bmp,,,,,0,178,178,178,,,,,,,,,,,,,,,,,,,,,,,,,,,,,,,,,,,,,,,,,,None,,691.448554169992,None,691.448554169992,None,2023-03-22-13:17:28.263347,691.4577565999934,691.7638452999818,691.4577565999934,None,None,691.4577565999934,None,692.2642474700057,None,,,,22051,0002,2023_Mar_22_1306,localizer,2021.1.3,59.9646208730516,
block,objects,objects005.bmp,,,,,0,179,179,179,,,,,,,,,,,,,,,,,,,,,,,,,,,,,,,,,,,,,,,,,,None,,692.2642474700057,None,692.2642474700057,None,2023-03-22-13:17:29.077827,692.2761141000083,692.5805340000079,692.2761141000083,None,None,692.2761141000083,None,693.0812616700074,None,,,,22051,0002,2023_Mar_22_1306,localizer,2021.1.3,59.9646208730516,
block,objects,objects059.bmp,,,,,0,180,180,180,,,,,,,,,,,,,,,,,,,,,,,,,,,,,,,,,,,,,,,,,,None,,693.0812616700074,None,693.0812616700074,None,2023-03-22-13:17:29.895910,693.089150499989,693.3970993999974,693.089150499989,None,None,693.089150499989,None,693.8972572699946,None,,,,22051,0002,2023_Mar_22_1306,localizer,2021.1.3,59.9646208730516,
block,objects,objects051.bmp,,,,,0,181,181,181,,,,,,,,,,,,,,,,,,,,,,,,,,,,,,,,,,,,,,,,,,None,,693.8972572699946,None,693.8972572699946,None,2023-03-22-13:17:30.710942,693.9031160000013,694.214323799999,693.9031160000013,None,None,693.9031160000013,None,694.7137732699863,None,,,,22051,0002,2023_Mar_22_1306,localizer,2021.1.3,59.9646208730516,
block_end,objects,objects058.bmp,,,,,0,182,182,182,,,,,,,,,,,,,,,,,,,,,,,,,,,,,,,,,,,,,,,,,,None,,694.7137732699863,None,694.7137732699863,None,2023-03-22-13:17:31.527769,694.7244089999876,695.0305582000001,694.7244089999876,None,None,694.7244089999876,None,695.5308199700027,None,,,,22051,0002,2023_Mar_22_1306,localizer,2021.1.3,59.9646208730516,
block_start,faces,faces005.bmp,,,,,0,183,183,183,,,,,,,,,,,,,,,,,,,,,,,,,,,,,,,,,,,,,,,,,,t,1.7298561000206973,695.5307611000026,None,695.5307611000026,None,2023-03-22-13:17:34.094090,697.282000599982,697.5970723000064,697.282000599982,None,None,697.282000599982,None,698.1036278699991,None,,,,22051,0002,2023_Mar_22_1306,localizer,2021.1.3,59.9646208730516,
block,faces,faces055.bmp,,,,,0,184,184,184,,,,,,,,,,,,,,,,,,,,,,,,,,,,,,,,,,,,,,,,,,None,,698.1036278699991,None,698.1036278699991,None,2023-03-22-13:17:34.924372,698.119099500007,698.4305953999865,698.119099500007,None,None,698.119099500007,None,698.914386669983,None,,,,22051,0002,2023_Mar_22_1306,localizer,2021.1.3,59.9646208730516,
block,faces,faces042.bmp,,,,,0,185,185,185,,,,,,,,,,,,,,,,,,,,,,,,,,,,,,,,,,,,,,,,,,None,,698.914386669983,None,698.914386669983,None,2023-03-22-13:17:35.728388,698.9222569999984,699.2304107999953,698.9222569999984,None,None,698.9222569999984,None,699.7310668700026,None,,,,22051,0002,2023_Mar_22_1306,localizer,2021.1.3,59.9646208730516,
block,faces,faces077.bmp,,,,,0,186,186,186,,,,,,,,,,,,,,,,,,,,,,,,,,,,,,,,,,,,,,,,,,None,,699.7310668700026,None,699.7310668700026,None,2023-03-22-13:17:36.544772,699.7438423999993,700.047637199983,699.7438423999993,None,None,699.7438423999993,None,700.5475983699959,None,,,,22051,0002,2023_Mar_22_1306,localizer,2021.1.3,59.9646208730516,
block,faces,faces012.bmp,,,,,0,187,187,187,,,,,,,,,,,,,,,,,,,,,,,,,,,,,,,,,,,,,,,,,,None,,700.5475983699959,None,700.5475983699959,None,2023-03-22-13:17:37.361560,700.5595362999884,700.8638938000076,700.5595362999884,None,None,700.5595362999884,None,701.364022169984,None,,,,22051,0002,2023_Mar_22_1306,localizer,2021.1.3,59.9646208730516,
block,faces,faces064.bmp,,,,,0,188,188,188,,,,,,,,,,,,,,,,,,,,,,,,,,,,,,,,,,,,,,,,,,None,,701.364022169984,None,701.364022169984,None,2023-03-22-13:17:38.177866,701.37096629999,701.6802124000096,701.37096629999,None,None,701.37096629999,None,702.1808150699886,None,,,,22051,0002,2023_Mar_22_1306,localizer,2021.1.3,59.9646208730516,
block,faces,faces050.bmp,,,,,0,189,189,189,,,,,,,,,,,,,,,,,,,,,,,,,,,,,,,,,,,,,,,,,,None,,702.1808150699886,None,702.1808150699886,None,2023-03-22-13:17:38.994684,702.1815322999901,702.4809029999888,702.1815322999901,None,None,702.1815322999901,None,702.9814032700029,None,,,,22051,0002,2023_Mar_22_1306,localizer,2021.1.3,59.9646208730516,
block,faces,faces047.bmp,,,,,0,190,190,190,,,,,,,,,,,,,,,,,,,,,,,,,,,,,,,,,,,,,,,,,,None,,702.9814032700029,None,702.9814032700029,None,2023-03-22-13:17:39.798465,702.9845796999871,703.298016899993,702.9845796999871,702.9845796999871,None,702.9845796999871,702.9845796999871,703.7981129699853,None,,,,22051,0002,2023_Mar_22_1306,localizer,2021.1.3,59.9646208730516,
block,faces,faces035.bmp,,,,,0,191,191,191,,,,,,,,,,,,,,,,,,,,,,,,,,,,,,,,,,,,,,,,,,None,,703.7981129699853,None,703.7981129699853,None,2023-03-22-13:17:40.613006,703.812780599983,704.1143314999936,703.812780599983,None,None,703.812780599983,None,704.6140936700045,None,,,,22051,0002,2023_Mar_22_1306,localizer,2021.1.3,59.9646208730516,
block,faces,faces051.bmp,,,,,0,192,192,192,,,,,,,,,,,,,,,,,,,,,,,,,,,,,,,,,,,,,,,,,,None,,704.6140936700045,None,704.6140936700045,None,2023-03-22-13:17:41.428018,704.627178099996,704.9304267999833,704.627178099996,None,None,704.627178099996,None,705.4202231699834,None,,,,22051,0002,2023_Mar_22_1306,localizer,2021.1.3,59.9646208730516,
block,faces,faces086.bmp,,,,,0,193,193,193,,,,,,,,,,,,,,,,,,,,,,,,,,,,,,,,,,,,,,,,,,None,,705.4202231699834,None,705.4202231699834,None,2023-03-22-13:17:42.241482,705.4324953999894,705.7474481999816,705.4324953999894,None,None,705.4324953999894,None,706.2309060700005,None,,,,22051,0002,2023_Mar_22_1306,localizer,2021.1.3,59.9646208730516,
block,faces,faces078.bmp,,,,,0,194,194,194,,,,,,,,,,,,,,,,,,,,,,,,,,,,,,,,,,,,,,,,,,None,,706.2309060700005,None,706.2309060700005,None,2023-03-22-13:17:43.045089,706.2380412000057,706.5476555000059,706.2380412000057,None,None,706.2380412000057,None,707.0474335699924,None,,,,22051,0002,2023_Mar_22_1306,localizer,2021.1.3,59.9646208730516,
block,faces,faces007.bmp,,,,,0,195,195,195,,,,,,,,,,,,,,,,,,,,,,,,,,,,,,,,,,,,,,,,,,None,,707.0474335699924,None,707.0474335699924,None,2023-03-22-13:17:43.861416,707.0589518999914,707.3648961999861,707.0589518999914,None,None,707.0589518999914,None,707.8711754699995,None,,,,22051,0002,2023_Mar_22_1306,localizer,2021.1.3,59.9646208730516,
block,faces,faces014.bmp,,,,,0,196,196,196,,,,,,,,,,,,,,,,,,,,,,,,,,,,,,,,,,,,,,,,,,None,,707.8711754699995,None,707.8711754699995,None,2023-03-22-13:17:44.692562,707.8889806999941,708.1973756999942,707.8889806999941,None,None,707.8889806999941,None,708.6806745699956,None,,,,22051,0002,2023_Mar_22_1306,localizer,2021.1.3,59.9646208730516,
block_end,faces,faces018.bmp,,,,,0,197,197,197,,,,,,,,,,,,,,,,,,,,,,,,,,,,,,,,,,,,,,,,,,None,,708.6806745699956,None,708.6806745699956,None,2023-03-22-13:17:45.494693,708.6873331000097,708.9972613999853,708.6873331000097,None,None,708.6873331000097,None,709.4976190699905,None,,,,22051,0002,2023_Mar_22_1306,localizer,2021.1.3,59.9646208730516,
block_start,scrambled,scrambled033.bmp,,,,,0,198,198,198,,,,,,,,,,,,,,,,,,,,,,,,,,,,,,,,,,,,,,,,,,t,1.763379600015469,709.4973102000076,None,709.4973102000076,None,2023-03-22-13:17:48.094022,711.2861666000099,711.5993052999838,711.2861666000099,None,None,711.2861666000099,None,712.0975680699863,None,,,,22051,0002,2023_Mar_22_1306,localizer,2021.1.3,59.9646208730516,
block,scrambled,scrambled061.bmp,,,,,0,199,199,199,,,,,,,,,,,,,,,,,,,,,,,,,,,,,,,,,,,,,,,,,,None,,712.0975680699863,None,712.0975680699863,None,2023-03-22-13:17:48.911661,712.1034526999865,712.4143626999867,712.1034526999865,None,None,712.1034526999865,None,712.914507269999,None,,,,22051,0002,2023_Mar_22_1306,localizer,2021.1.3,59.9646208730516,
block,scrambled,scrambled057.bmp,,,,,0,200,200,200,,,,,,,,,,,,,,,,,,,,,,,,,,,,,,,,,,,,,,,,,,None,,712.914507269999,None,712.914507269999,None,2023-03-22-13:17:49.728822,712.9262367000047,713.2308579999954,712.9262367000047,None,None,712.9262367000047,None,713.7307479699899,None,,,,22051,0002,2023_Mar_22_1306,localizer,2021.1.3,59.9646208730516,
block,scrambled,scrambled012.bmp,,,,,0,201,201,201,,,,,,,,,,,,,,,,,,,,,,,,,,,,,,,,,,,,,,,,,,None,,713.7307479699899,None,713.7307479699899,None,2023-03-22-13:17:50.544877,713.7360584999842,714.0481450000079,713.7360584999842,None,None,713.7360584999842,None,714.5478348699922,None,,,,22051,0002,2023_Mar_22_1306,localizer,2021.1.3,59.9646208730516,
block,scrambled,scrambled013.bmp,,,,,0,202,202,202,,,,,,,,,,,,,,,,,,,,,,,,,,,,,,,,,,,,,,,,,,None,,714.5478348699922,None,714.5478348699922,None,2023-03-22-13:17:51.361982,714.5548199999903,714.8664804,714.5548199999903,None,None,714.5548199999903,None,715.3642506700068,None,,,,22051,0002,2023_Mar_22_1306,localizer,2021.1.3,59.9646208730516,
block,scrambled,scrambled062.bmp,,,,,0,203,203,203,,,,,,,,,,,,,,,,,,,,,,,,,,,,,,,,,,,,,,,,,,None,,715.3642506700068,None,715.3642506700068,None,2023-03-22-13:17:52.178674,715.3761736000015,715.6807390000031,715.3761736000015,None,None,715.3761736000015,None,716.1808685699885,None,,,,22051,0002,2023_Mar_22_1306,localizer,2021.1.3,59.9646208730516,
block,scrambled,scrambled068.bmp,,,,,0,204,204,204,,,,,,,,,,,,,,,,,,,,,,,,,,,,,,,,,,,,,,,,,,None,,716.1808685699885,None,716.1808685699885,None,2023-03-22-13:17:52.995200,716.1874652999977,716.497423199995,716.1874652999977,None,None,716.1874652999977,None,716.9975498699874,None,,,,22051,0002,2023_Mar_22_1306,localizer,2021.1.3,59.9646208730516,
block,scrambled,scrambled050.bmp,,,,,0,205,205,205,,,,,,,,,,,,,,,,,,,,,,,,,,,,,,,,,,,,,,,,,,None,,716.9975498699874,None,716.9975498699874,None,2023-03-22-13:17:53.812008,717.0084505999985,717.3139239999873,717.0084505999985,None,None,717.0084505999985,None,717.8143315699941,None,,,,22051,0002,2023_Mar_22_1306,localizer,2021.1.3,59.9646208730516,
block,scrambled,scrambled085.bmp,,,,,0,206,206,206,,,,,,,,,,,,,,,,,,,,,,,,,,,,,,,,,,,,,,,,,,None,,717.8143315699941,None,717.8143315699941,None,2023-03-22-13:17:54.628553,717.8202210000018,718.1308460999862,717.8202210000018,None,None,717.8202210000018,None,718.6311318699969,None,,,,22051,0002,2023_Mar_22_1306,localizer,2021.1.3,59.9646208730516,
block,scrambled,scrambled048.bmp,,,,,0,207,207,207,,,,,,,,,,,,,,,,,,,,,,,,,,,,,,,,,,,,,,,,,,None,,718.6311318699969,None,718.6311318699969,None,2023-03-22-13:17:55.445354,718.6428113000002,718.9473615000024,718.6428113000002,None,None,718.6428113000002,None,719.4472817699949,None,,,,22051,0002,2023_Mar_22_1306,localizer,2021.1.3,59.9646208730516,
block,scrambled,scrambled064.bmp,,,,,0,208,208,208,,,,,,,,,,,,,,,,,,,,,,,,,,,,,,,,,,,,,,,,,,None,,719.4472817699949,None,719.4472817699949,None,2023-03-22-13:17:56.260216,719.4507403000025,719.7637496999814,719.4507403000025,None,None,719.4507403000025,None,720.2645217699989,None,,,,22051,0002,2023_Mar_22_1306,localizer,2021.1.3,59.9646208730516,
block,scrambled,scrambled027.bmp,,,,,0,209,209,209,,,,,,,,,,,,,,,,,,,,,,,,,,,,,,,,,,,,,,,,,,None,,720.2645217699989,None,720.2645217699989,None,2023-03-22-13:17:57.079012,720.2720279000059,720.5814499999979,720.2720279000059,None,None,720.2720279000059,None,721.0815454699856,None,,,,22051,0002,2023_Mar_22_1306,localizer,2021.1.3,59.9646208730516,
block,scrambled,scrambled036.bmp,,,,,0,210,210,210,,,,,,,,,,,,,,,,,,,,,,,,,,,,,,,,,,,,,,,,,,None,,721.0815454699856,None,721.0815454699856,None,2023-03-22-13:17:57.896830,721.0942817000032,721.4038996000018,721.0942817000032,None,None,721.0942817000032,None,721.9000287699979,None,,,,22051,0002,2023_Mar_22_1306,localizer,2021.1.3,59.9646208730516,
block,scrambled,scrambled088.bmp,,,,,0,211,211,211,,,,,,,,,,,,,,,,,,,,,,,,,,,,,,,,,,,,,,,,,,None,,721.9000287699979,None,721.9000287699979,None,2023-03-22-13:17:58.715805,721.9094292999944,722.2172452000086,721.9094292999944,None,None,721.9094292999944,None,722.7147692700033,None,,,,22051,0002,2023_Mar_22_1306,localizer,2021.1.3,59.9646208730516,
block_end,scrambled,scrambled053.bmp,,,,,0,212,212,212,,,,,,,,,,,,,,,,,,,,,,,,,,,,,,,,,,,,,,,,,,None,,722.7147692700033,None,722.7147692700033,None,2023-03-22-13:17:59.530147,722.7223057000083,723.0307863999915,722.7223057000083,None,None,722.7223057000083,None,723.5309484699916,None,,,,22051,0002,2023_Mar_22_1306,localizer,2021.1.3,59.9646208730516,
null_block,null_block,null_block.bmp,,,,,0,213,213,213,,,,,,,,,,,,,,,,,,,,,,,,,,,,,,,,,,,,,,,,,,t,1.7299570000031963,723.5307429000095,None,723.5307429000095,None,2023-03-22-13:18:02.094429,725.2809947699949,None,725.2809947699949,None,None,725.2809947699949,None,725.2824453999929,None,,,,22051,0002,2023_Mar_22_1306,localizer,2021.1.3,59.9646208730516,
block_start,scenes,scenes081.bmp,,,,,0,214,214,214,,,,,,,,,,,,,,,,,,,,,,,,,,,,,,,,,,,,,,,,,,t,1.978616799984593,737.2810484000074,None,737.2810484000074,None,2023-03-22-13:18:16.096853,739.2899970999861,739.5976152000076,739.2899970999861,None,None,739.2899970999861,None,740.0976899699832,None,,,,22051,0002,2023_Mar_22_1306,localizer,2021.1.3,59.9646208730516,
block,scenes,scenes081.bmp,,,,,0,215,215,215,,,,,,,,,,,,,,,,,,,,,,,,,,,,,,,,,,,,,,,,,,None,,740.0976899699832,None,740.0976899699832,None,2023-03-22-13:18:16.912648,740.0986288999848,740.4142304999987,740.0986288999848,None,y,740.0986288999848,None,740.9141540699871,None,0.4867611000081524,,,22051,0002,2023_Mar_22_1306,localizer,2021.1.3,59.9646208730516,
block,scenes,scenes054.bmp,,,,,0,216,216,216,,,,,,,,,,,,,,,,,,,,,,,,,,,,,,,,,,,,,,,,,,None,,740.9141540699871,None,740.9141540699871,None,2023-03-22-13:18:17.728909,740.920555699995,741.2333886999986,740.920555699995,None,None,740.920555699995,None,741.7310055700015,None,,,,22051,0002,2023_Mar_22_1306,localizer,2021.1.3,59.9646208730516,
block,scenes,scenes065.bmp,,,,,0,217,217,217,,,,,,,,,,,,,,,,,,,,,,,,,,,,,,,,,,,,,,,,,,None,,741.7310055700015,None,741.7310055700015,None,2023-03-22-13:18:18.546009,741.742614399991,742.0488286000036,741.742614399991,None,None,741.742614399991,None,742.5366458700097,None,,,,22051,0002,2023_Mar_22_1306,localizer,2021.1.3,59.9646208730516,
block,scenes,scenes008.bmp,,,,,0,218,218,218,,,,,,,,,,,,,,,,,,,,,,,,,,,,,,,,,,,,,,,,,,None,,742.5366458700097,None,742.5366458700097,None,2023-03-22-13:18:19.354409,742.5398610999982,742.8534720999887,742.5398610999982,None,None,742.5398610999982,None,743.3473966699909,None,,,,22051,0002,2023_Mar_22_1306,localizer,2021.1.3,59.9646208730516,
block,scenes,scenes058.bmp,,,,,0,219,219,219,,,,,,,,,,,,,,,,,,,,,,,,,,,,,,,,,,,,,,,,,,None,,743.3473966699909,None,743.3473966699909,None,2023-03-22-13:18:20.162205,743.3486984999909,743.6644059999962,743.3486984999909,None,None,743.3486984999909,None,744.1489431699971,None,,,,22051,0002,2023_Mar_22_1306,localizer,2021.1.3,59.9646208730516,
block,scenes,scenes031.bmp,,,,,0,220,220,220,,,,,,,,,,,,,,,,,,,,,,,,,,,,,,,,,,,,,,,,,,None,,744.1489431699971,None,744.1489431699971,None,2023-03-22-13:18:20.966738,744.1666476999817,744.4808520000079,744.1666476999817,744.1666476999817,None,744.1666476999817,744.1666476999817,744.965139970003,None,,,,22051,0002,2023_Mar_22_1306,localizer,2021.1.3,59.9646208730516,
block,scenes,scenes060.bmp,,,,,0,221,221,221,,,,,,,,,,,,,,,,,,,,,,,,,,,,,,,,,,,,,,,,,,None,,744.965139970003,None,744.965139970003,None,2023-03-22-13:18:21.781145,744.9742475000094,745.2812222999928,744.9742475000094,None,None,744.9742475000094,None,745.7815575700021,None,,,,22051,0002,2023_Mar_22_1306,localizer,2021.1.3,59.9646208730516,
block,scenes,scenes013.bmp,,,,,0,222,222,222,,,,,,,,,,,,,,,,,,,,,,,,,,,,,,,,,,,,,,,,,,None,,745.7815575700021,None,745.7815575700021,None,2023-03-22-13:18:22.596617,745.7892565999937,746.0978485000087,745.7892565999937,None,None,745.7892565999937,None,746.5982716699888,None,,,,22051,0002,2023_Mar_22_1306,localizer,2021.1.3,59.9646208730516,
block,scenes,scenes043.bmp,,,,,0,223,223,223,,,,,,,,,,,,,,,,,,,,,,,,,,,,,,,,,,,,,,,,,,None,,746.5982716699888,None,746.5982716699888,None,2023-03-22-13:18:23.413143,746.6099537999835,746.914077399997,746.6099537999835,None,None,746.6099537999835,None,747.4144153699978,None,,,,22051,0002,2023_Mar_22_1306,localizer,2021.1.3,59.9646208730516,
block,scenes,scenes078.bmp,,,,,0,224,224,224,,,,,,,,,,,,,,,,,,,,,,,,,,,,,,,,,,,,,,,,,,None,,747.4144153699978,None,747.4144153699978,None,2023-03-22-13:18:24.229313,747.4150683000044,747.7144556999847,747.4150683000044,None,None,747.4150683000044,None,748.2147350700048,None,,,,22051,0002,2023_Mar_22_1306,localizer,2021.1.3,59.9646208730516,
block,scenes,scenes009.bmp,,,,,0,225,225,225,,,,,,,,,,,,,,,,,,,,,,,,,,,,,,,,,,,,,,,,,,None,,748.2147350700048,None,748.2147350700048,None,2023-03-22-13:18:25.032635,748.2243395999831,748.5312665000092,748.2243395999831,748.2243395999831,None,748.2243395999831,748.2243395999831,749.0376051700092,None,,,,22051,0002,2023_Mar_22_1306,localizer,2021.1.3,59.9646208730516,
block,scenes,scenes077.bmp,,,,,0,226,226,226,,,,,,,,,,,,,,,,,,,,,,,,,,,,,,,,,,,,,,,,,,None,,749.0376051700092,None,749.0376051700092,None,2023-03-22-13:18:25.857333,749.0427385999938,749.3479559999832,749.0427385999938,None,None,749.0427385999938,None,749.8530813699996,None,,,,22051,0002,2023_Mar_22_1306,localizer,2021.1.3,59.9646208730516,
block,scenes,scenes086.bmp,,,,,0,227,227,227,,,,,,,,,,,,,,,,,,,,,,,,,,,,,,,,,,,,,,,,,,None,,749.8530813699996,None,749.8530813699996,None,2023-03-22-13:18:26.668040,749.8632655999972,750.1647414999898,749.8632655999972,None,None,749.8632655999972,None,750.664753869985,None,,,,22051,0002,2023_Mar_22_1306,localizer,2021.1.3,59.9646208730516,
block_end,scenes,scenes027.bmp,,,,,0,228,228,228,,,,,,,,,,,,,,,,,,,,,,,,,,,,,,,,,,,,,,,,,,None,,750.664753869985,None,750.664753869985,None,2023-03-22-13:18:27.479941,750.6654134999844,750.9809494999936,750.6654134999844,None,None,750.6654134999844,None,751.4650496699848,None,,,,22051,0002,2023_Mar_22_1306,localizer,2021.1.3,59.9646208730516,
block_start,objects,objects065.bmp,,,,,0,229,229,229,,,,,,,,,,,,,,,,,,,,,,,,,,,,,,,,,,,,,,,,,,t,1.794215100002475,751.4655621999991,None,751.4655621999991,None,2023-03-22-13:18:30.098382,753.2967129999888,753.5978029999824,753.2967129999888,None,None,753.2967129999888,None,754.0974984700093,None,,,,22051,0002,2023_Mar_22_1306,localizer,2021.1.3,59.9646208730516,
block,objects,objects023.bmp,,,,,0,230,230,230,,,,,,,,,,,,,,,,,,,,,,,,,,,,,,,,,,,,,,,,,,None,,754.0974984700093,None,754.0974984700093,None,2023-03-22-13:18:30.910941,754.1008032999816,754.4146180999815,754.1008032999816,None,None,754.1008032999816,None,754.9154605700111,None,,,,22051,0002,2023_Mar_22_1306,localizer,2021.1.3,59.9646208730516,
block,objects,objects025.bmp,,,,,0,231,231,231,,,,,,,,,,,,,,,,,,,,,,,,,,,,,,,,,,,,,,,,,,None,,754.9154605700111,None,754.9154605700111,None,2023-03-22-13:18:31.731510,754.9284636999946,755.2310357999813,754.9284636999946,None,None,754.9284636999946,None,755.7308284699917,None,,,,22051,0002,2023_Mar_22_1306,localizer,2021.1.3,59.9646208730516,
block,objects,objects087.bmp,,,,,0,232,232,232,,,,,,,,,,,,,,,,,,,,,,,,,,,,,,,,,,,,,,,,,,None,,755.7308284699917,None,755.7308284699917,None,2023-03-22-13:18:32.545732,755.7361430999881,756.0484704999835,755.7361430999881,None,None,755.7361430999881,None,756.548765070003,None,,,,22051,0002,2023_Mar_22_1306,localizer,2021.1.3,59.9646208730516,
block,objects,objects078.bmp,,,,,0,233,233,233,,,,,,,,,,,,,,,,,,,,,,,,,,,,,,,,,,,,,,,,,,None,,756.548765070003,None,756.548765070003,None,2023-03-22-13:18:33.364902,756.5564204999828,756.8668173000042,756.5564204999828,None,None,756.5564204999828,None,757.3659912699892,None,,,,22051,0002,2023_Mar_22_1306,localizer,2021.1.3,59.9646208730516,
block,objects,objects041.bmp,,,,,0,234,234,234,,,,,,,,,,,,,,,,,,,,,,,,,,,,,,,,,,,,,,,,,,None,,757.3659912699892,None,757.3659912699892,None,2023-03-22-13:18:34.182092,757.3789980000001,757.6810869000037,757.3789980000001,None,None,757.3789980000001,None,758.1817445699941,None,,,,22051,0002,2023_Mar_22_1306,localizer,2021.1.3,59.9646208730516,
block,objects,objects024.bmp,,,,,0,235,235,235,,,,,,,,,,,,,,,,,,,,,,,,,,,,,,,,,,,,,,,,,,None,,758.1817445699941,None,758.1817445699941,None,2023-03-22-13:18:34.997064,758.189332799986,758.4982874999987,758.189332799986,None,None,758.189332799986,None,758.9984599699907,None,,,,22051,0002,2023_Mar_22_1306,localizer,2021.1.3,59.9646208730516,
block,objects,objects016.bmp,,,,,0,236,236,236,,,,,,,,,,,,,,,,,,,,,,,,,,,,,,,,,,,,,,,,,,None,,758.9984599699907,None,758.9984599699907,None,2023-03-22-13:18:35.814587,759.0060847999994,759.3143505000044,759.0060847999994,None,None,759.0060847999994,None,759.814513969986,None,,,,22051,0002,2023_Mar_22_1306,localizer,2021.1.3,59.9646208730516,
block,objects,objects035.bmp,,,,,0,237,237,237,,,,,,,,,,,,,,,,,,,,,,,,,,,,,,,,,,,,,,,,,,None,,759.814513969986,None,759.814513969986,None,2023-03-22-13:18:36.629691,759.815254199988,760.1174946000101,759.815254199988,None,None,759.815254199988,None,760.6153231699951,None,,,,22051,0002,2023_Mar_22_1306,localizer,2021.1.3,59.9646208730516,
block,objects,objects059.bmp,,,,,0,238,238,238,,,,,,,,,,,,,,,,,,,,,,,,,,,,,,,,,,,,,,,,,,None,,760.6153231699951,None,760.6153231699951,None,2023-03-22-13:18:37.434347,760.6190580999828,760.9311614999897,760.6190580999828,760.6190580999828,None,760.6190580999828,760.6190580999828,761.4324043699831,None,,,,22051,0002,2023_Mar_22_1306,localizer,2021.1.3,59.9646208730516,
block,objects,objects011.bmp,,,,,0,239,239,239,,,,,,,,,,,,,,,,,,,,,,,,,,,,,,,,,,,,,,,,,,None,,761.4324043699831,None,761.4324043699831,None,2023-03-22-13:18:38.248787,761.4412263999984,761.7476250999898,761.4412263999984,None,None,761.4412263999984,None,762.2477476700093,None,,,,22051,0002,2023_Mar_22_1306,localizer,2021.1.3,59.9646208730516,
block,objects,objects052.bmp,,,,,0,240,240,240,,,,,,,,,,,,,,,,,,,,,,,,,,,,,,,,,,,,,,,,,,None,,762.2477476700093,None,762.2477476700093,None,2023-03-22-13:18:39.062986,762.2522046999948,762.5644548999844,762.2522046999948,None,None,762.2522046999948,None,763.0645128700068,None,,,,22051,0002,2023_Mar_22_1306,localizer,2021.1.3,59.9646208730516,
block,objects,objects079.bmp,,,,,0,241,241,241,,,,,,,,,,,,,,,,,,,,,,,,,,,,,,,,,,,,,,,,,,None,,763.0645128700068,None,763.0645128700068,None,2023-03-22-13:18:39.879764,763.0700397999899,763.3815422999905,763.0700397999899,None,None,763.0700397999899,None,763.8811108699825,None,,,,22051,0002,2023_Mar_22_1306,localizer,2021.1.3,59.9646208730516,
block,objects,objects068.bmp,,,,,0,242,242,242,,,,,,,,,,,,,,,,,,,,,,,,,,,,,,,,,,,,,,,,,,None,,763.8811108699825,None,763.8811108699825,None,2023-03-22-13:18:40.696386,763.8851085999922,764.1977642999846,763.8851085999922,None,None,763.8851085999922,None,764.697328570002,None,,,,22051,0002,2023_Mar_22_1306,localizer,2021.1.3,59.9646208730516,
block_end,objects,objects051.bmp,,,,,0,243,243,243,,,,,,,,,,,,,,,,,,,,,,,,,,,,,,,,,,,,,,,,,,None,,764.697328570002,None,764.697328570002,None,2023-03-22-13:18:41.511403,764.6991582000046,765.0147657000052,764.6991582000046,None,None,764.6991582000046,None,765.5142284700065,None,,,,22051,0002,2023_Mar_22_1306,localizer,2021.1.3,59.9646208730516,
,,,,,,,,,,,,,,,,,,,,,,,,,,,,,,,,,,,,,,,,,,,,,,,,,,,,,,,,,,,,,,,,,,,,,765.514030499995,None,,,,,,,
