block_type,condition,img_name,Button.thisRepN,Button.thisTrialN,Button.thisN,Button.thisIndex,trials.thisRepN,trials.thisTrialN,trials.thisN,trials.thisIndex,Ready_experimenter_text.started,Ready_experimenter_text.stopped,Ready_experimenter_resp.keys,Ready_experimenter_resp.rt,Ready_experimenter_resp.started,Ready_experimenter_resp.stopped,Alignment_background.started,Alignment_background.stopped,Alignment_image.started,Alignment_image.stopped,Alignment_resp.keys,Alignment_resp.rt,Alignment_resp.started,Alignment_resp.stopped,Button_text.started,Button_text.stopped,Index_text.started,Index_text.stopped,Index_resp.keys,Index_resp.rt,Index_resp.started,Index_resp.stopped,Middle_text.started,Middle_text.stopped,Middle_resp.keys,Middle_resp.rt,Middle_resp.started,Middle_resp.stopped,Repeat_text.started,Repeat_text.stopped,Repeat_resp.keys,Repeat_resp.corr,Repeat_resp.rt,Repeat_resp.started,Repeat_resp.stopped,instruction_text.started,instruction_text.stopped,key_resp.keys,key_resp.rt,key_resp.started,key_resp.stopped,scanner_t.keys,scanner_t.rt,scanner_t.started,scanner_t.stopped,fixation_wait_for_t.started,fixation_wait_for_t.stopped,real_timestamp_trial_start,image.started,image.stopped,fixation.started,fixation.stopped,repeat_response.keys,repeat_response.started,repeat_response.stopped,fixation_null.started,fixation_null.stopped,repeat_response.rt,end_text.started,end_text.stopped,participant,run,date,expName,psychopyVersion,frameRate,
,,,,,,,,,,,7.610925699584186,None,return,90.86017009988427,7.610925699584186,None,,,,,,,,,,,,,,,,,,,,,,,,,,,,,,,,,,,,,,,,,,,,,,,,,,,,,,,11003,0001,2021_Nov_12_1435,localizer,2021.1.3,59.04892262626157,
,,,,,,,,,,,,,,,,,98.51860640011728,None,98.51860640011728,None,return,1.4560734005644917,98.51860640011728,None,,,,,,,,,,,,,,,,,,,,,,,,,,,,,,,,,,,,,,,,,,,,,,,11003,0001,2021_Nov_12_1435,localizer,2021.1.3,59.04892262626157,
,,,0,0,0,0,,,,,,,,,,,,,,,,,,,99.9975220002234,None,101.01204819977283,None,y,3.613929499872029,101.01204819977283,None,104.65237789973617,None,b,1.6575764995068312,104.65237789973617,None,106.33044399973005,None,n,0,7.553189500235021,106.33044399973005,None,,,,,,,,,,,,,,,,,,,,,,,,,,11003,0001,2021_Nov_12_1435,localizer,2021.1.3,59.04892262626157,
,,,,,,,,,,,,,,,,,,,,,,,,,,,,,,,,,,,,,,,,,,,,,,113.89876449946314,None,y,8.15327150002122,113.89876449946314,None,,,,,,,,,,,,,,,,,,,,11003,0001,2021_Nov_12_1435,localizer,2021.1.3,59.04892262626157,
null_block,null_block,null_block.bmp,,,,,0,0,0,0,,,,,,,,,,,,,,,,,,,,,,,,,,,,,,,,,,,,,,,,,,t,15.02357150055468,122.09921600017697,None,122.09921600017697,None,2021-11-12-14:38:09.617882,137.14661006964744,None,137.14661006964744,None,None,137.14661006964744,None,137.15034599974751,None,,,,11003,0001,2021_Nov_12_1435,localizer,2021.1.3,59.04892262626157,
block_start,objects,objects082.bmp,,,,,0,1,1,1,,,,,,,,,,,,,,,,,,,,,,,,,,,,,,,,,,,,,,,,,,t,1.959307400509715,149.16359669994563,None,149.16359669994563,None,2021-11-12-14:38:23.621089,151.14904269948602,151.46299850009382,151.14904269948602,None,None,151.14904269948602,None,151.96356826983393,None,,,,11003,0001,2021_Nov_12_1435,localizer,2021.1.3,59.04892262626157,
block,objects,objects029.bmp,,,,,0,2,2,2,,,,,,,,,,,,,,,,,,,,,,,,,,,,,,,,,,,,,,,,,,None,,151.96356826983393,None,151.96356826983393,None,2021-11-12-14:38:24.437661,151.96419040020555,152.26446369942278,151.96419040020555,None,None,151.96419040020555,None,152.76342476960272,None,,,,11003,0001,2021_Nov_12_1435,localizer,2021.1.3,59.04892262626157,
block,objects,objects071.bmp,,,,,0,3,3,3,,,,,,,,,,,,,,,,,,,,,,,,,,,,,,,,,,,,,,,,,,None,,152.76342476960272,None,152.76342476960272,None,2021-11-12-14:38:25.238641,152.7647140994668,153.08000899944454,152.7647140994668,152.7647140994668,None,152.7647140994668,152.7647140994668,153.56476987022907,None,,,,11003,0001,2021_Nov_12_1435,localizer,2021.1.3,59.04892262626157,
block,objects,objects045.bmp,,,,,0,4,4,4,,,,,,,,,,,,,,,,,,,,,,,,,,,,,,,,,,,,,,,,,,None,,153.56476987022907,None,153.56476987022907,None,2021-11-12-14:38:26.043887,153.57106770016253,153.8808915000409,153.57106770016253,153.57106770016253,None,153.57106770016253,153.57106770016253,154.38019396979362,None,,,,11003,0001,2021_Nov_12_1435,localizer,2021.1.3,59.04892262626157,
block,objects,objects037.bmp,,,,,0,5,5,5,,,,,,,,,,,,,,,,,,,,,,,,,,,,,,,,,,,,,,,,,,None,,154.38019396979362,None,154.38019396979362,None,2021-11-12-14:38:26.854486,154.38091550022364,154.68028370011598,154.38091550022364,None,None,154.38091550022364,None,155.18257086966187,None,,,,11003,0001,2021_Nov_12_1435,localizer,2021.1.3,59.04892262626157,
block,objects,objects020.bmp,,,,,0,6,6,6,,,,,,,,,,,,,,,,,,,,,,,,,,,,,,,,,,,,,,,,,,None,,155.18257086966187,None,155.18257086966187,None,2021-11-12-14:38:27.659811,155.1854996997863,155.4964635996148,155.1854996997863,155.1854996997863,None,155.1854996997863,155.1854996997863,155.99696626942605,None,,,,11003,0001,2021_Nov_12_1435,localizer,2021.1.3,59.04892262626157,
block,objects,objects050.bmp,,,,,0,7,7,7,,,,,,,,,,,,,,,,,,,,,,,,,,,,,,,,,,,,,,,,,,None,,155.99696626942605,None,155.99696626942605,None,2021-11-12-14:38:28.469816,155.997508299537,156.29683970008045,155.997508299537,None,None,155.997508299537,None,156.7967522699386,None,,,,11003,0001,2021_Nov_12_1435,localizer,2021.1.3,59.04892262626157,
block,objects,objects080.bmp,,,,,0,8,8,8,,,,,,,,,,,,,,,,,,,,,,,,,,,,,,,,,,,,,,,,,,None,,156.7967522699386,None,156.7967522699386,None,2021-11-12-14:38:29.271860,156.7995581002906,157.11340560019016,156.7995581002906,156.7995581002906,None,156.7995581002906,156.7995581002906,157.6027832698077,None,,,,11003,0001,2021_Nov_12_1435,localizer,2021.1.3,59.04892262626157,
block,objects,objects010.bmp,,,,,0,9,9,9,,,,,,,,,,,,,,,,,,,,,,,,,,,,,,,,,,,,,,,,,,None,,157.6027832698077,None,157.6027832698077,None,2021-11-12-14:38:30.083768,157.60864190012217,157.9136053994298,157.60864190012217,157.60864190012217,None,157.60864190012217,157.60864190012217,158.41454806979746,None,,,,11003,0001,2021_Nov_12_1435,localizer,2021.1.3,59.04892262626157,
block,objects,objects064.bmp,,,,,0,10,10,10,,,,,,,,,,,,,,,,,,,,,,,,,,,,,,,,,,,,,,,,,,None,,158.41454806979746,None,158.41454806979746,None,2021-11-12-14:38:30.889795,158.41771980002522,158.73017140012234,158.41771980002522,None,None,158.41771980002522,None,159.2305056700483,None,,,,11003,0001,2021_Nov_12_1435,localizer,2021.1.3,59.04892262626157,
block,objects,objects019.bmp,,,,,0,11,11,11,,,,,,,,,,,,,,,,,,,,,,,,,,,,,,,,,,,,,,,,,,None,,159.2305056700483,None,159.2305056700483,None,2021-11-12-14:38:31.704806,159.23126699961722,159.53054390009493,159.23126699961722,None,None,159.23126699961722,None,160.0304962700233,None,,,,11003,0001,2021_Nov_12_1435,localizer,2021.1.3,59.04892262626157,
block,objects,objects028.bmp,,,,,0,12,12,12,,,,,,,,,,,,,,,,,,,,,,,,,,,,,,,,,,,,,,,,,,None,,160.0304962700233,None,160.0304962700233,None,2021-11-12-14:38:32.506691,160.03328320011497,160.34673250000924,160.03328320011497,160.03328320011497,None,160.03328320011497,160.03328320011497,160.84697077013553,None,,,,11003,0001,2021_Nov_12_1435,localizer,2021.1.3,59.04892262626157,
block,objects,objects039.bmp,,,,,0,13,13,13,,,,,,,,,,,,,,,,,,,,,,,,,,,,,,,,,,,,,,,,,,None,,160.84697077013553,None,160.84697077013553,None,2021-11-12-14:38:33.321078,160.84766099974513,161.1627871003002,160.84766099974513,None,None,160.84766099974513,None,161.64670126941056,None,,,,11003,0001,2021_Nov_12_1435,localizer,2021.1.3,59.04892262626157,
block,objects,objects054.bmp,,,,,0,14,14,14,,,,,,,,,,,,,,,,,,,,,,,,,,,,,,,,,,,,,,,,,,None,,161.64670126941056,None,161.64670126941056,None,2021-11-12-14:38:34.122005,161.64971360005438,161.96357659995556,161.64971360005438,161.64971360005438,None,161.64971360005438,161.64971360005438,162.46351346988232,None,,,,11003,0001,2021_Nov_12_1435,localizer,2021.1.3,59.04892262626157,
block_end,objects,objects036.bmp,,,,,0,15,15,15,,,,,,,,,,,,,,,,,,,,,,,,,,,,,,,,,,,,,,,,,,None,,162.46351346988232,None,162.46351346988232,None,2021-11-12-14:38:34.937197,162.4642298994586,162.7638966999948,162.4642298994586,None,None,162.4642298994586,None,163.28001336995513,None,,,,11003,0001,2021_Nov_12_1435,localizer,2021.1.3,59.04892262626157,
block_start,faces,faces036.bmp,,,,,0,16,16,16,,,,,,,,,,,,,,,,,,,,,,,,,,,,,,,,,,,,,,,,,,t,1.8426903998479247,163.28011200018227,None,163.28011200018227,None,2021-11-12-14:38:37.621343,165.149409099482,165.46365979965776,165.149409099482,None,None,165.149409099482,None,165.96378566939384,None,,,,11003,0001,2021_Nov_12_1435,localizer,2021.1.3,59.04892262626157,
block,faces,faces085.bmp,,,,,0,17,17,17,,,,,,,,,,,,,,,,,,,,,,,,,,,,,,,,,,,,,,,,,,None,,165.96378566939384,None,165.96378566939384,None,2021-11-12-14:38:38.436898,165.96438849996775,166.2636786000803,165.96438849996775,None,None,165.96438849996775,None,166.7636407693848,None,,,,11003,0001,2021_Nov_12_1435,localizer,2021.1.3,59.04892262626157,
block,faces,faces024.bmp,,,,,0,18,18,18,,,,,,,,,,,,,,,,,,,,,,,,,,,,,,,,,,,,,,,,,,None,,166.7636407693848,None,166.7636407693848,None,2021-11-12-14:38:39.239725,166.76670709997416,167.08051260001957,166.76670709997416,166.76670709997416,None,166.76670709997416,166.76670709997416,167.58043897021562,None,,,,11003,0001,2021_Nov_12_1435,localizer,2021.1.3,59.04892262626157,
block,faces,faces080.bmp,,,,,0,19,19,19,,,,,,,,,,,,,,,,,,,,,,,,,,,,,,,,,,,,,,,,,,None,,167.58043897021562,None,167.58043897021562,None,2021-11-12-14:38:40.054765,167.58320240024477,167.89696650020778,167.58320240024477,None,None,167.58320240024477,None,168.39675966985524,None,,,,11003,0001,2021_Nov_12_1435,localizer,2021.1.3,59.04892262626157,
block,faces,faces065.bmp,,,,,0,20,20,20,,,,,,,,,,,,,,,,,,,,,,,,,,,,,,,,,,,,,,,,,,None,,168.39675966985524,None,168.39675966985524,None,2021-11-12-14:38:40.869855,168.3983848001808,168.71371779963374,168.3983848001808,None,None,168.3983848001808,None,169.2137324694544,None,,,,11003,0001,2021_Nov_12_1435,localizer,2021.1.3,59.04892262626157,
block,faces,faces010.bmp,,,,,0,21,21,21,,,,,,,,,,,,,,,,,,,,,,,,,,,,,,,,,,,,,,,,,,None,,169.2137324694544,None,169.2137324694544,None,2021-11-12-14:38:41.687841,169.21477049961686,169.5302278995514,169.21477049961686,None,None,169.21477049961686,None,170.0304035698995,None,,,,11003,0001,2021_Nov_12_1435,localizer,2021.1.3,59.04892262626157,
block,faces,faces006.bmp,,,,,0,22,22,22,,,,,,,,,,,,,,,,,,,,,,,,,,,,,,,,,,,,,,,,,,None,,170.0304035698995,None,170.0304035698995,None,2021-11-12-14:38:42.504711,170.03097539953887,170.3303004996851,170.03097539953887,None,None,170.03097539953887,None,170.83049046956003,None,,,,11003,0001,2021_Nov_12_1435,localizer,2021.1.3,59.04892262626157,
block,faces,faces047.bmp,,,,,0,23,23,23,,,,,,,,,,,,,,,,,,,,,,,,,,,,,,,,,,,,,,,,,,None,,170.83049046956003,None,170.83049046956003,None,2021-11-12-14:38:43.306791,170.83340630028397,171.14705500006676,170.83340630028397,170.83340630028397,None,170.83340630028397,170.83340630028397,171.6341105695814,None,,,,11003,0001,2021_Nov_12_1435,localizer,2021.1.3,59.04892262626157,
block,faces,faces055.bmp,,,,,0,24,24,24,,,,,,,,,,,,,,,,,,,,,,,,,,,,,,,,,,,,,,,,,,None,,171.6341105695814,None,171.6341105695814,None,2021-11-12-14:38:44.113313,171.64169009961188,171.94701819960028,171.64169009961188,171.64169009961188,None,171.64169009961188,171.64169009961188,172.4466786697507,None,,,,11003,0001,2021_Nov_12_1435,localizer,2021.1.3,59.04892262626157,
block,faces,faces075.bmp,,,,,0,25,25,25,,,,,,,,,,,,,,,,,,,,,,,,,,,,,,,,,,,,,,,,,,None,,172.4466786697507,None,172.4466786697507,None,2021-11-12-14:38:44.919797,172.44745610002428,172.7467205002904,172.44745610002428,None,None,172.44745610002428,None,173.2472659699619,None,,,,11003,0001,2021_Nov_12_1435,localizer,2021.1.3,59.04892262626157,
block,faces,faces066.bmp,,,,,0,26,26,26,,,,,,,,,,,,,,,,,,,,,,,,,,,,,,,,,,,,,,,,,,None,,173.2472659699619,None,173.2472659699619,None,2021-11-12-14:38:45.723520,173.25038539990783,173.5639027999714,173.25038539990783,173.25038539990783,None,173.25038539990783,173.25038539990783,174.06397166997195,None,,,,11003,0001,2021_Nov_12_1435,localizer,2021.1.3,59.04892262626157,
block,faces,faces030.bmp,,,,,0,27,27,27,,,,,,,,,,,,,,,,,,,,,,,,,,,,,,,,,,,,,,,,,,None,,174.06397166997195,None,174.06397166997195,None,2021-11-12-14:38:46.538226,174.06571019999683,174.3807912999764,174.06571019999683,None,None,174.06571019999683,None,174.88037667013705,None,,,,11003,0001,2021_Nov_12_1435,localizer,2021.1.3,59.04892262626157,
block,faces,faces078.bmp,,,,,0,28,28,28,,,,,,,,,,,,,,,,,,,,,,,,,,,,,,,,,,,,,,,,,,None,,174.88037667013705,None,174.88037667013705,None,2021-11-12-14:38:47.353700,174.88121359981596,175.18026909977198,174.88121359981596,None,None,174.88121359981596,None,175.68042616974563,None,,,,11003,0001,2021_Nov_12_1435,localizer,2021.1.3,59.04892262626157,
block,faces,faces070.bmp,,,,,0,29,29,29,,,,,,,,,,,,,,,,,,,,,,,,,,,,,,,,,,,,,,,,,,None,,175.68042616974563,None,175.68042616974563,None,2021-11-12-14:38:48.156627,175.68319780007005,175.99700110033154,175.68319780007005,175.68319780007005,None,175.68319780007005,175.68319780007005,176.4965568702668,None,,,,11003,0001,2021_Nov_12_1435,localizer,2021.1.3,59.04892262626157,
block_end,faces,faces044.bmp,,,,,0,30,30,30,,,,,,,,,,,,,,,,,,,,,,,,,,,,,,,,,,,,,,,,,,None,,176.4965568702668,None,176.4965568702668,None,2021-11-12-14:38:48.969671,176.4978278996423,176.81350659951568,176.4978278996423,None,None,176.4978278996423,None,177.29764766953886,None,,,,11003,0001,2021_Nov_12_1435,localizer,2021.1.3,59.04892262626157,
block_start,scrambled,scrambled032.bmp,,,,,0,31,31,31,,,,,,,,,,,,,,,,,,,,,,,,,,,,,,,,,,,,,,,,,,t,1.8246265994384885,177.29821120016277,None,177.29821120016277,None,2021-11-12-14:38:51.618548,179.14849449973553,179.46343829948455,179.14849449973553,None,None,179.14849449973553,None,179.963019069843,None,,,,11003,0001,2021_Nov_12_1435,localizer,2021.1.3,59.04892262626157,
block,scrambled,scrambled005.bmp,,,,,0,32,32,32,,,,,,,,,,,,,,,,,,,,,,,,,,,,,,,,,,,,,,,,,,None,,179.963019069843,None,179.963019069843,None,2021-11-12-14:38:52.436425,179.96478169970214,180.2804389996454,179.96478169970214,None,None,179.96478169970214,None,180.7645503697917,None,,,,11003,0001,2021_Nov_12_1435,localizer,2021.1.3,59.04892262626157,
block,scrambled,scrambled047.bmp,,,,,0,33,33,33,,,,,,,,,,,,,,,,,,,,,,,,,,,,,,,,,,,,,,,,,,None,,180.7645503697917,None,180.7645503697917,None,2021-11-12-14:38:53.240839,180.7687226003036,181.0810012994334,180.7687226003036,180.7687226003036,None,180.7687226003036,180.7687226003036,181.58145537003875,None,,,,11003,0001,2021_Nov_12_1435,localizer,2021.1.3,59.04892262626157,
block,scrambled,scrambled064.bmp,,,,,0,34,34,34,,,,,,,,,,,,,,,,,,,,,,,,,,,,,,,,,,,,,,,,,,None,,181.58145537003875,None,181.58145537003875,None,2021-11-12-14:38:54.053639,181.5809773998335,181.88048470020294,181.5809773998335,None,None,181.5809773998335,None,182.3801312694326,None,,,,11003,0001,2021_Nov_12_1435,localizer,2021.1.3,59.04892262626157,
block,scrambled,scrambled074.bmp,,,,,0,35,35,35,,,,,,,,,,,,,,,,,,,,,,,,,,,,,,,,,,,,,,,,,,None,,182.3801312694326,None,182.3801312694326,None,2021-11-12-14:38:54.855241,182.38140400033444,182.69671539962292,182.38140400033444,182.38140400033444,None,182.38140400033444,182.38140400033444,183.1971270699054,None,,,,11003,0001,2021_Nov_12_1435,localizer,2021.1.3,59.04892262626157,
block,scrambled,scrambled044.bmp,,,,,0,36,36,36,,,,,,,,,,,,,,,,,,,,,,,,,,,,,,,,,,,,,,,,,,None,,183.1971270699054,None,183.1971270699054,None,2021-11-12-14:38:55.671414,183.19784469995648,183.513144900091,183.19784469995648,None,None,183.19784469995648,None,184.01319726984948,None,,,,11003,0001,2021_Nov_12_1435,localizer,2021.1.3,59.04892262626157,
block,scrambled,scrambled061.bmp,,,,,0,37,37,37,,,,,,,,,,,,,,,,,,,,,,,,,,,,,,,,,,,,,,,,,,None,,184.01319726984948,None,184.01319726984948,None,2021-11-12-14:38:56.486312,184.0142355998978,184.31333510018885,184.0142355998978,None,None,184.0142355998978,None,184.8136484693736,None,,,,11003,0001,2021_Nov_12_1435,localizer,2021.1.3,59.04892262626157,
block,scrambled,scrambled035.bmp,,,,,0,38,38,38,,,,,,,,,,,,,,,,,,,,,,,,,,,,,,,,,,,,,,,,,,None,,184.8136484693736,None,184.8136484693736,None,2021-11-12-14:38:57.287760,184.81959579978138,185.11622560024261,184.81959579978138,184.81959579978138,None,184.81959579978138,184.81959579978138,185.63054936993868,None,,,,11003,0001,2021_Nov_12_1435,localizer,2021.1.3,59.04892262626157,
block,scrambled,scrambled011.bmp,,,,,0,39,39,39,,,,,,,,,,,,,,,,,,,,,,,,,,,,,,,,,,,,,,,,,,None,,185.63054936993868,None,185.63054936993868,None,2021-11-12-14:38:58.104638,185.6313014999032,185.93052799999714,185.6313014999032,None,None,185.6313014999032,None,186.4305626699701,None,,,,11003,0001,2021_Nov_12_1435,localizer,2021.1.3,59.04892262626157,
block,scrambled,scrambled056.bmp,,,,,0,40,40,40,,,,,,,,,,,,,,,,,,,,,,,,,,,,,,,,,,,,,,,,,,None,,186.4305626699701,None,186.4305626699701,None,2021-11-12-14:38:58.906867,186.43333890009671,186.7466636998579,186.43333890009671,186.43333890009671,None,186.43333890009671,186.43333890009671,187.24720946941525,None,,,,11003,0001,2021_Nov_12_1435,localizer,2021.1.3,59.04892262626157,
block,scrambled,scrambled033.bmp,,,,,0,41,41,41,,,,,,,,,,,,,,,,,,,,,,,,,,,,,,,,,,,,,,,,,,None,,187.24720946941525,None,187.24720946941525,None,2021-11-12-14:38:59.721302,187.24790580011904,187.54621129948646,187.24790580011904,None,None,187.24790580011904,None,188.04745496958495,None,,,,11003,0001,2021_Nov_12_1435,localizer,2021.1.3,59.04892262626157,
block,scrambled,scrambled082.bmp,,,,,0,42,42,42,,,,,,,,,,,,,,,,,,,,,,,,,,,,,,,,,,,,,,,,,,None,,188.04745496958495,None,188.04745496958495,None,2021-11-12-14:39:00.523551,188.05047050025314,188.3635855000466,188.05047050025314,188.05047050025314,None,188.05047050025314,188.05047050025314,188.8650055700913,None,,,,11003,0001,2021_Nov_12_1435,localizer,2021.1.3,59.04892262626157,
block,scrambled,scrambled042.bmp,,,,,0,43,43,43,,,,,,,,,,,,,,,,,,,,,,,,,,,,,,,,,,,,,,,,,,None,,188.8650055700913,None,188.8650055700913,None,2021-11-12-14:39:01.341243,188.86818279977888,189.1805395996198,188.86818279977888,None,None,188.86818279977888,None,189.6814422696829,None,,,,11003,0001,2021_Nov_12_1435,localizer,2021.1.3,59.04892262626157,
block,scrambled,scrambled071.bmp,,,,,0,44,44,44,,,,,,,,,,,,,,,,,,,,,,,,,,,,,,,,,,,,,,,,,,None,,189.6814422696829,None,189.6814422696829,None,2021-11-12-14:39:02.156130,189.6835198001936,189.9970594001934,189.6835198001936,None,None,189.6835198001936,None,190.49734566975386,None,,,,11003,0001,2021_Nov_12_1435,localizer,2021.1.3,59.04892262626157,
block_end,scrambled,scrambled025.bmp,,,,,0,45,45,45,,,,,,,,,,,,,,,,,,,,,,,,,,,,,,,,,,,,,,,,,,None,,190.49734566975386,None,190.49734566975386,None,2021-11-12-14:39:02.970645,190.4978772997856,190.8133904002607,190.4978772997856,None,None,190.4978772997856,None,191.2971705697477,None,,,,11003,0001,2021_Nov_12_1435,localizer,2021.1.3,59.04892262626157,
block_start,scenes,scenes048.bmp,,,,,0,46,46,46,,,,,,,,,,,,,,,,,,,,,,,,,,,,,,,,,,,,,,,,,,t,1.824825500138104,191.2971954997629,None,191.2971954997629,None,2021-11-12-14:39:05.618189,193.1479899995029,193.4635253995657,193.1479899995029,None,None,193.1479899995029,None,193.9473610702902,None,,,,11003,0001,2021_Nov_12_1435,localizer,2021.1.3,59.04892262626157,
block,scenes,scenes088.bmp,,,,,0,47,47,47,,,,,,,,,,,,,,,,,,,,,,,,,,,,,,,,,,,,,,,,,,None,,193.9473610702902,None,193.9473610702902,None,2021-11-12-14:39:06.423445,193.95009759999812,194.26380799990147,193.95009759999812,193.95009759999812,None,193.95009759999812,193.95009759999812,194.76477797012777,None,,,,11003,0001,2021_Nov_12_1435,localizer,2021.1.3,59.04892262626157,
block,scenes,scenes047.bmp,,,,,0,48,48,48,,,,,,,,,,,,,,,,,,,,,,,,,,,,,,,,,,,,,,,,,,None,,194.76477797012777,None,194.76477797012777,None,2021-11-12-14:39:07.238874,194.76789249945432,195.08049319963902,194.76789249945432,None,None,194.76789249945432,None,195.58007687013597,None,,,,11003,0001,2021_Nov_12_1435,localizer,2021.1.3,59.04892262626157,
block,scenes,scenes042.bmp,,,,,0,49,49,49,,,,,,,,,,,,,,,,,,,,,,,,,,,,,,,,,,,,,,,,,,None,,195.58007687013597,None,195.58007687013597,None,2021-11-12-14:39:08.053197,195.58169090002775,195.8971157995984,195.58169090002775,None,None,195.58169090002775,None,196.3807596700266,None,,,,11003,0001,2021_Nov_12_1435,localizer,2021.1.3,59.04892262626157,
block,scenes,scenes089.bmp,,,,,0,50,50,50,,,,,,,,,,,,,,,,,,,,,,,,,,,,,,,,,,,,,,,,,,None,,196.3807596700266,None,196.3807596700266,None,2021-11-12-14:39:08.857854,196.38470199983567,196.6974331997335,196.38470199983567,196.38470199983567,None,196.38470199983567,196.38470199983567,197.1981658698991,None,,,,11003,0001,2021_Nov_12_1435,localizer,2021.1.3,59.04892262626157,
block,scenes,scenes009.bmp,,,,,0,51,51,51,,,,,,,,,,,,,,,,,,,,,,,,,,,,,,,,,,,,,,,,,,None,,197.1981658698991,None,197.1981658698991,None,2021-11-12-14:39:09.673403,197.2015416994691,197.51413850020617,197.2015416994691,None,None,197.2015416994691,None,198.0141153695062,None,,,,11003,0001,2021_Nov_12_1435,localizer,2021.1.3,59.04892262626157,
block,scenes,scenes080.bmp,,,,,0,52,52,52,,,,,,,,,,,,,,,,,,,,,,,,,,,,,,,,,,,,,,,,,,None,,198.0141153695062,None,198.0141153695062,None,2021-11-12-14:39:10.488404,198.01572429947555,198.3300777003169,198.01572429947555,None,None,198.01572429947555,None,198.83052507005632,None,,,,11003,0001,2021_Nov_12_1435,localizer,2021.1.3,59.04892262626157,
block,scenes,scenes054.bmp,,,,,0,53,53,53,,,,,,,,,,,,,,,,,,,,,,,,,,,,,,,,,,,,,,,,,,None,,198.83052507005632,None,198.83052507005632,None,2021-11-12-14:39:11.303824,198.8312163995579,199.14654229953885,198.8312163995579,None,None,198.8312163995579,None,199.63022796958685,None,,,,11003,0001,2021_Nov_12_1435,localizer,2021.1.3,59.04892262626157,
block,scenes,scenes068.bmp,,,,,0,54,54,54,,,,,,,,,,,,,,,,,,,,,,,,,,,,,,,,,,,,,,,,,,None,,199.63022796958685,None,199.63022796958685,None,2021-11-12-14:39:12.105338,199.63147380016744,199.94689099956304,199.63147380016744,199.63147380016744,None,199.63147380016744,199.63147380016744,200.43079736977816,None,,,,11003,0001,2021_Nov_12_1435,localizer,2021.1.3,59.04892262626157,
block,scenes,scenes033.bmp,,,,,0,55,55,55,,,,,,,,,,,,,,,,,,,,,,,,,,,,,,,,,,,,,,,,,,None,,200.43079736977816,None,200.43079736977816,None,2021-11-12-14:39:12.907871,200.43477789964527,200.74762469995767,200.43477789964527,200.43477789964527,None,200.43477789964527,200.43477789964527,201.24894786961377,None,,,,11003,0001,2021_Nov_12_1435,localizer,2021.1.3,59.04892262626157,
block,scenes,scenes011.bmp,,,,,0,56,56,56,,,,,,,,,,,,,,,,,,,,,,,,,,,,,,,,,,,,,,,,,,None,,201.24894786961377,None,201.24894786961377,None,2021-11-12-14:39:13.727007,201.25429410021752,201.56369419954717,201.25429410021752,None,None,201.25429410021752,None,202.0637775702402,None,,,,11003,0001,2021_Nov_12_1435,localizer,2021.1.3,59.04892262626157,
block,scenes,scenes011.bmp,,,,,0,57,57,57,,,,,,,,,,,,,,,,,,,,,,,,,,,,,,,,,,,,,,,,,,None,,202.0637775702402,None,202.0637775702402,None,2021-11-12-14:39:14.536991,202.0646332995966,202.3801405997947,202.0646332995966,None,y,202.0646332995966,None,202.8640987701714,None,0.3220053995028138,,,11003,0001,2021_Nov_12_1435,localizer,2021.1.3,59.04892262626157,
block,scenes,scenes061.bmp,,,,,0,58,58,58,,,,,,,,,,,,,,,,,,,,,,,,,,,,,,,,,,,,,,,,,,None,,202.8640987701714,None,202.8640987701714,None,2021-11-12-14:39:15.340304,202.86718809977174,203.1808215994388,202.86718809977174,202.86718809977174,None,202.86718809977174,202.86718809977174,203.68096697013826,None,,,,11003,0001,2021_Nov_12_1435,localizer,2021.1.3,59.04892262626157,
block,scenes,scenes040.bmp,,,,,0,59,59,59,,,,,,,,,,,,,,,,,,,,,,,,,,,,,,,,,,,,,,,,,,None,,203.68096697013826,None,203.68096697013826,None,2021-11-12-14:39:16.155246,203.6831010999158,203.99675159994513,203.6831010999158,None,None,203.6831010999158,None,204.49724036976696,None,,,,11003,0001,2021_Nov_12_1435,localizer,2021.1.3,59.04892262626157,
block_end,scenes,scenes050.bmp,,,,,0,60,60,60,,,,,,,,,,,,,,,,,,,,,,,,,,,,,,,,,,,,,,,,,,None,,204.49724036976696,None,204.49724036976696,None,2021-11-12-14:39:16.970352,204.49827769957483,204.81358239986002,204.49827769957483,None,None,204.49827769957483,None,205.29764386974276,None,,,,11003,0001,2021_Nov_12_1435,localizer,2021.1.3,59.04892262626157,
block_start,scenes,scenes055.bmp,,,,,0,61,61,61,,,,,,,,,,,,,,,,,,,,,,,,,,,,,,,,,,,,,,,,,,t,1.8244085004553199,205.29773280024529,None,205.29773280024529,None,2021-11-12-14:39:19.626189,207.1598081998527,207.46393140032887,207.1598081998527,None,None,207.1598081998527,None,207.9642104698345,None,,,,11003,0001,2021_Nov_12_1435,localizer,2021.1.3,59.04892262626157,
block,scenes,scenes016.bmp,,,,,0,62,62,62,,,,,,,,,,,,,,,,,,,,,,,,,,,,,,,,,,,,,,,,,,None,,207.9642104698345,None,207.9642104698345,None,2021-11-12-14:39:20.438312,207.97157669998705,208.28030790016055,207.97157669998705,None,None,207.97157669998705,None,208.7806868698448,None,,,,11003,0001,2021_Nov_12_1435,localizer,2021.1.3,59.04892262626157,
block,scenes,scenes032.bmp,,,,,0,63,63,63,,,,,,,,,,,,,,,,,,,,,,,,,,,,,,,,,,,,,,,,,,None,,208.7806868698448,None,208.7806868698448,None,2021-11-12-14:39:21.253818,208.79244379978627,209.09684029966593,208.79244379978627,None,None,208.79244379978627,None,209.59710576999933,None,,,,11003,0001,2021_Nov_12_1435,localizer,2021.1.3,59.04892262626157,
block,scenes,scenes052.bmp,,,,,0,64,64,64,,,,,,,,,,,,,,,,,,,,,,,,,,,,,,,,,,,,,,,,,,None,,209.59710576999933,None,209.59710576999933,None,2021-11-12-14:39:22.070416,209.6027830997482,209.91372810024768,209.6027830997482,None,None,209.6027830997482,None,210.41375877019019,None,,,,11003,0001,2021_Nov_12_1435,localizer,2021.1.3,59.04892262626157,
block,scenes,scenes026.bmp,,,,,0,65,65,65,,,,,,,,,,,,,,,,,,,,,,,,,,,,,,,,,,,,,,,,,,None,,210.41375877019019,None,210.41375877019019,None,2021-11-12-14:39:22.886871,210.42474189959466,210.73000840004534,210.42474189959466,None,None,210.42474189959466,None,211.2303811699152,None,,,,11003,0001,2021_Nov_12_1435,localizer,2021.1.3,59.04892262626157,
block,scenes,scenes023.bmp,,,,,0,66,66,66,,,,,,,,,,,,,,,,,,,,,,,,,,,,,,,,,,,,,,,,,,None,,211.2303811699152,None,211.2303811699152,None,2021-11-12-14:39:23.703743,211.23588719964027,211.54732859972864,211.23588719964027,None,None,211.23588719964027,None,212.04749007020146,None,,,,11003,0001,2021_Nov_12_1435,localizer,2021.1.3,59.04892262626157,
block,scenes,scenes091.bmp,,,,,0,67,67,67,,,,,,,,,,,,,,,,,,,,,,,,,,,,,,,,,,,,,,,,,,None,,212.04749007020146,None,212.04749007020146,None,2021-11-12-14:39:24.521626,212.05483729951084,212.36392079945654,212.05483729951084,None,None,212.05483729951084,None,212.86379186958075,None,,,,11003,0001,2021_Nov_12_1435,localizer,2021.1.3,59.04892262626157,
block,scenes,scenes056.bmp,,,,,0,68,68,68,,,,,,,,,,,,,,,,,,,,,,,,,,,,,,,,,,,,,,,,,,None,,212.86379186958075,None,212.86379186958075,None,2021-11-12-14:39:25.336884,212.8713954994455,213.18116350006312,212.8713954994455,None,None,212.8713954994455,None,213.681127570197,None,,,,11003,0001,2021_Nov_12_1435,localizer,2021.1.3,59.04892262626157,
block,scenes,scenes037.bmp,,,,,0,69,69,69,,,,,,,,,,,,,,,,,,,,,,,,,,,,,,,,,,,,,,,,,,None,,213.681127570197,None,213.681127570197,None,2021-11-12-14:39:26.155227,213.68907339964062,213.9978296002373,213.68907339964062,None,None,213.68907339964062,None,214.49785117022694,None,,,,11003,0001,2021_Nov_12_1435,localizer,2021.1.3,59.04892262626157,
block,scenes,scenes079.bmp,,,,,0,70,70,70,,,,,,,,,,,,,,,,,,,,,,,,,,,,,,,,,,,,,,,,,,None,,214.49785117022694,None,214.49785117022694,None,2021-11-12-14:39:26.971800,214.5055694002658,214.81446919962764,214.5055694002658,None,None,214.5055694002658,None,215.31424986999482,None,,,,11003,0001,2021_Nov_12_1435,localizer,2021.1.3,59.04892262626157,
block,scenes,scenes030.bmp,,,,,0,71,71,71,,,,,,,,,,,,,,,,,,,,,,,,,,,,,,,,,,,,,,,,,,None,,215.31424986999482,None,215.31424986999482,None,2021-11-12-14:39:27.788419,215.32070999965072,215.63014800008386,215.32070999965072,None,None,215.32070999965072,None,216.12007946949453,None,,,,11003,0001,2021_Nov_12_1435,localizer,2021.1.3,59.04892262626157,
block,scenes,scenes063.bmp,,,,,0,72,72,72,,,,,,,,,,,,,,,,,,,,,,,,,,,,,,,,,,,,,,,,,,None,,216.12007946949453,None,216.12007946949453,None,2021-11-12-14:39:28.600894,216.1365636996925,216.44695189967752,216.1365636996925,None,None,216.1365636996925,None,216.93066216968,None,,,,11003,0001,2021_Nov_12_1435,localizer,2021.1.3,59.04892262626157,
block,scenes,scenes020.bmp,,,,,0,73,73,73,,,,,,,,,,,,,,,,,,,,,,,,,,,,,,,,,,,,,,,,,,None,,216.93066216968,None,216.93066216968,None,2021-11-12-14:39:29.404951,216.93851340003312,217.2481730999425,216.93851340003312,None,None,216.93851340003312,None,217.74705886989832,None,,,,11003,0001,2021_Nov_12_1435,localizer,2021.1.3,59.04892262626157,
block,scenes,scenes008.bmp,,,,,0,74,74,74,,,,,,,,,,,,,,,,,,,,,,,,,,,,,,,,,,,,,,,,,,None,,217.74705886989832,None,217.74705886989832,None,2021-11-12-14:39:30.220438,217.75300250016153,218.06346870027483,217.75300250016153,None,None,217.75300250016153,None,218.56389746963978,None,,,,11003,0001,2021_Nov_12_1435,localizer,2021.1.3,59.04892262626157,
block_end,scenes,scenes002.bmp,,,,,0,75,75,75,,,,,,,,,,,,,,,,,,,,,,,,,,,,,,,,,,,,,,,,,,None,,218.56389746963978,None,218.56389746963978,None,2021-11-12-14:39:31.037011,218.5693501997739,218.88026869948953,218.5693501997739,None,None,218.5693501997739,None,219.3806768698618,None,,,,11003,0001,2021_Nov_12_1435,localizer,2021.1.3,59.04892262626157,
null_block,null_block,null_block.bmp,,,,,0,76,76,76,,,,,,,,,,,,,,,,,,,,,,,,,,,,,,,,,,,,,,,,,,t,1.7413178998976946,219.38046689983457,None,219.38046689983457,None,2021-11-12-14:39:33.620237,221.14712696950883,None,221.14712696950883,None,None,221.14712696950883,None,221.15173340030015,None,,,,11003,0001,2021_Nov_12_1435,localizer,2021.1.3,59.04892262626157,
block_start,faces,faces062.bmp,,,,,0,77,77,77,,,,,,,,,,,,,,,,,,,,,,,,,,,,,,,,,,,,,,,,,,t,1.9583413004875183,233.16368369944394,None,233.16368369944394,None,2021-11-12-14:39:47.621240,235.1538116997108,235.46372949983925,235.1538116997108,None,None,235.1538116997108,None,235.96387447007,None,,,,11003,0001,2021_Nov_12_1435,localizer,2021.1.3,59.04892262626157,
block,faces,faces070.bmp,,,,,0,78,78,78,,,,,,,,,,,,,,,,,,,,,,,,,,,,,,,,,,,,,,,,,,None,,235.96387447007,None,235.96387447007,None,2021-11-12-14:39:48.437397,235.96467760019004,236.26386339962482,235.96467760019004,None,None,235.96467760019004,None,236.76448777001352,None,,,,11003,0001,2021_Nov_12_1435,localizer,2021.1.3,59.04892262626157,
block,faces,faces065.bmp,,,,,0,79,79,79,,,,,,,,,,,,,,,,,,,,,,,,,,,,,,,,,,,,,,,,,,None,,236.76448777001352,None,236.76448777001352,None,2021-11-12-14:39:49.240770,236.767542200163,237.08005919959396,236.767542200163,236.767542200163,None,236.767542200163,236.767542200163,237.58033466953785,None,,,,11003,0001,2021_Nov_12_1435,localizer,2021.1.3,59.04892262626157,
block,faces,faces015.bmp,,,,,0,80,80,80,,,,,,,,,,,,,,,,,,,,,,,,,,,,,,,,,,,,,,,,,,None,,237.58033466953785,None,237.58033466953785,None,2021-11-12-14:39:50.053708,237.58619759976864,237.8972081001848,237.58619759976864,None,None,237.58619759976864,None,238.39739706981928,None,,,,11003,0001,2021_Nov_12_1435,localizer,2021.1.3,59.04892262626157,
block,faces,faces069.bmp,,,,,0,81,81,81,,,,,,,,,,,,,,,,,,,,,,,,,,,,,,,,,,,,,,,,,,None,,238.39739706981928,None,238.39739706981928,None,2021-11-12-14:39:50.871739,238.4047970995307,238.7140982998535,238.4047970995307,None,None,238.4047970995307,None,239.21425066944212,None,,,,11003,0001,2021_Nov_12_1435,localizer,2021.1.3,59.04892262626157,
block,faces,faces074.bmp,,,,,0,82,82,82,,,,,,,,,,,,,,,,,,,,,,,,,,,,,,,,,,,,,,,,,,None,,239.21425066944212,None,239.21425066944212,None,2021-11-12-14:39:51.687562,239.22048219945282,239.5306486003101,239.22048219945282,None,None,239.22048219945282,None,240.0307682702318,None,,,,11003,0001,2021_Nov_12_1435,localizer,2021.1.3,59.04892262626157,
block,faces,faces064.bmp,,,,,0,83,83,83,,,,,,,,,,,,,,,,,,,,,,,,,,,,,,,,,,,,,,,,,,None,,240.0307682702318,None,240.0307682702318,None,2021-11-12-14:39:52.505082,240.03723119944334,240.3473912999034,240.03723119944334,None,None,240.03723119944334,None,240.84736836943776,None,,,,11003,0001,2021_Nov_12_1435,localizer,2021.1.3,59.04892262626157,
block,faces,faces087.bmp,,,,,0,84,84,84,,,,,,,,,,,,,,,,,,,,,,,,,,,,,,,,,,,,,,,,,,None,,240.84736836943776,None,240.84736836943776,None,2021-11-12-14:39:53.320683,240.8543705996126,241.16373419947922,240.8543705996126,None,None,240.8543705996126,None,241.66409726962448,None,,,,11003,0001,2021_Nov_12_1435,localizer,2021.1.3,59.04892262626157,
block,faces,faces056.bmp,,,,,0,85,85,85,,,,,,,,,,,,,,,,,,,,,,,,,,,,,,,,,,,,,,,,,,None,,241.66409726962448,None,241.66409726962448,None,2021-11-12-14:39:54.138380,241.6709690997377,241.98143479973078,241.6709690997377,None,None,241.6709690997377,None,242.48014226984233,None,,,,11003,0001,2021_Nov_12_1435,localizer,2021.1.3,59.04892262626157,
block,faces,faces042.bmp,,,,,0,86,86,86,,,,,,,,,,,,,,,,,,,,,,,,,,,,,,,,,,,,,,,,,,None,,242.48014226984233,None,242.48014226984233,None,2021-11-12-14:39:54.953553,242.48573550023139,242.79700519982725,242.48573550023139,None,None,242.48573550023139,None,243.2977902699262,None,,,,11003,0001,2021_Nov_12_1435,localizer,2021.1.3,59.04892262626157,
block,faces,faces072.bmp,,,,,0,87,87,87,,,,,,,,,,,,,,,,,,,,,,,,,,,,,,,,,,,,,,,,,,None,,243.2977902699262,None,243.2977902699262,None,2021-11-12-14:39:55.771894,243.30952139943838,243.61402190010995,243.30952139943838,None,None,243.30952139943838,None,244.1139349700883,None,,,,11003,0001,2021_Nov_12_1435,localizer,2021.1.3,59.04892262626157,
block,faces,faces072.bmp,,,,,0,88,88,88,,,,,,,,,,,,,,,,,,,,,,,,,,,,,,,,,,,,,,,,,,None,,244.1139349700883,None,244.1139349700883,None,2021-11-12-14:39:56.587047,244.11476419959217,244.41471130028367,244.11476419959217,None,y,244.11476419959217,None,244.91438417006285,None,0.45695080049335957,,,11003,0001,2021_Nov_12_1435,localizer,2021.1.3,59.04892262626157,
block,faces,faces057.bmp,,,,,0,89,89,89,,,,,,,,,,,,,,,,,,,,,,,,,,,,,,,,,,,,,,,,,,None,,244.91438417006285,None,244.91438417006285,None,2021-11-12-14:39:57.390669,244.9241966996342,245.23170039989054,244.9241966996342,244.9241966996342,None,244.9241966996342,244.9241966996342,245.7326999694109,None,,,,11003,0001,2021_Nov_12_1435,localizer,2021.1.3,59.04892262626157,
block,faces,faces061.bmp,,,,,0,90,90,90,,,,,,,,,,,,,,,,,,,,,,,,,,,,,,,,,,,,,,,,,,None,,245.7326999694109,None,245.7326999694109,None,2021-11-12-14:39:58.210754,245.74630639981478,246.04678079951555,245.74630639981478,None,None,245.74630639981478,None,246.5474610697478,None,,,,11003,0001,2021_Nov_12_1435,localizer,2021.1.3,59.04892262626157,
block_end,faces,faces073.bmp,,,,,0,91,91,91,,,,,,,,,,,,,,,,,,,,,,,,,,,,,,,,,,,,,,,,,,None,,246.5474610697478,None,246.5474610697478,None,2021-11-12-14:39:59.020801,246.55688690021634,246.86357679963112,246.55688690021634,None,None,246.55688690021634,None,247.36407486964018,None,,,,11003,0001,2021_Nov_12_1435,localizer,2021.1.3,59.04892262626157,
block_start,objects,objects052.bmp,,,,,0,92,92,92,,,,,,,,,,,,,,,,,,,,,,,,,,,,,,,,,,,,,,,,,,t,1.758331399410963,247.3639490995556,None,247.3639490995556,None,2021-11-12-14:40:01.631206,249.16774849966168,249.48082720022649,249.16774849966168,None,None,249.16774849966168,None,249.96601446960122,None,,,,11003,0001,2021_Nov_12_1435,localizer,2021.1.3,59.04892262626157,
block,objects,objects003.bmp,,,,,0,93,93,93,,,,,,,,,,,,,,,,,,,,,,,,,,,,,,,,,,,,,,,,,,None,,249.96601446960122,None,249.96601446960122,None,2021-11-12-14:40:02.443267,249.978147899732,250.2803218998015,249.978147899732,None,None,249.978147899732,None,250.78051906973124,None,,,,11003,0001,2021_Nov_12_1435,localizer,2021.1.3,59.04892262626157,
block,objects,objects049.bmp,,,,,0,94,94,94,,,,,,,,,,,,,,,,,,,,,,,,,,,,,,,,,,,,,,,,,,None,,250.78051906973124,None,250.78051906973124,None,2021-11-12-14:40:03.253635,250.78597890026867,251.09714379999787,250.78597890026867,None,None,250.78597890026867,None,251.59734007027,None,,,,11003,0001,2021_Nov_12_1435,localizer,2021.1.3,59.04892262626157,
block,objects,objects001.bmp,,,,,0,95,95,95,,,,,,,,,,,,,,,,,,,,,,,,,,,,,,,,,,,,,,,,,,None,,251.59734007027,None,251.59734007027,None,2021-11-12-14:40:04.070454,251.60295759979635,251.91448479983956,251.60295759979635,None,None,251.60295759979635,None,252.41495337020606,None,,,,11003,0001,2021_Nov_12_1435,localizer,2021.1.3,59.04892262626157,
block,objects,objects042.bmp,,,,,0,96,96,96,,,,,,,,,,,,,,,,,,,,,,,,,,,,,,,,,,,,,,,,,,None,,252.41495337020606,None,252.41495337020606,None,2021-11-12-14:40:04.889032,252.42212499957532,252.7306447001174,252.42212499957532,None,None,252.42212499957532,None,253.23190627023578,None,,,,11003,0001,2021_Nov_12_1435,localizer,2021.1.3,59.04892262626157,
block,objects,objects032.bmp,,,,,0,97,97,97,,,,,,,,,,,,,,,,,,,,,,,,,,,,,,,,,,,,,,,,,,None,,253.23190627023578,None,253.23190627023578,None,2021-11-12-14:40:05.707091,253.2401545997709,253.54714650008827,253.2401545997709,None,None,253.2401545997709,None,254.04732286985964,None,,,,11003,0001,2021_Nov_12_1435,localizer,2021.1.3,59.04892262626157,
block,objects,objects047.bmp,,,,,0,98,98,98,,,,,,,,,,,,,,,,,,,,,,,,,,,,,,,,,,,,,,,,,,None,,254.04732286985964,None,254.04732286985964,None,2021-11-12-14:40:06.520378,254.0530925001949,254.36374450009316,254.0530925001949,None,None,254.0530925001949,None,254.86453106962145,None,,,,11003,0001,2021_Nov_12_1435,localizer,2021.1.3,59.04892262626157,
block,objects,objects083.bmp,,,,,0,99,99,99,,,,,,,,,,,,,,,,,,,,,,,,,,,,,,,,,,,,,,,,,,None,,254.86453106962145,None,254.86453106962145,None,2021-11-12-14:40:07.338823,254.87808759976178,255.1815102994442,254.87808759976178,None,None,254.87808759976178,None,255.68170746937395,None,,,,11003,0001,2021_Nov_12_1435,localizer,2021.1.3,59.04892262626157,
block,objects,objects036.bmp,,,,,0,100,100,100,,,,,,,,,,,,,,,,,,,,,,,,,,,,,,,,,,,,,,,,,,None,,255.68170746937395,None,255.68170746937395,None,2021-11-12-14:40:08.156802,255.6837329994887,255.99718930013478,255.6837329994887,None,None,255.6837329994887,None,256.4977709693834,None,,,,11003,0001,2021_Nov_12_1435,localizer,2021.1.3,59.04892262626157,
block,objects,objects027.bmp,,,,,0,101,101,101,,,,,,,,,,,,,,,,,,,,,,,,,,,,,,,,,,,,,,,,,,None,,256.4977709693834,None,256.4977709693834,None,2021-11-12-14:40:08.971989,256.50382629968226,256.8145225001499,256.50382629968226,None,None,256.50382629968226,None,257.3145732698962,None,,,,11003,0001,2021_Nov_12_1435,localizer,2021.1.3,59.04892262626157,
block,objects,objects021.bmp,,,,,0,102,102,102,,,,,,,,,,,,,,,,,,,,,,,,,,,,,,,,,,,,,,,,,,None,,257.3145732698962,None,257.3145732698962,None,2021-11-12-14:40:09.788783,257.32099669985473,257.6305125998333,257.32099669985473,None,None,257.32099669985473,None,258.1303883694112,None,,,,11003,0001,2021_Nov_12_1435,localizer,2021.1.3,59.04892262626157,
block,objects,objects084.bmp,,,,,0,103,103,103,,,,,,,,,,,,,,,,,,,,,,,,,,,,,,,,,,,,,,,,,,None,,258.1303883694112,None,258.1303883694112,None,2021-11-12-14:40:10.603508,258.1362728998065,258.44730899948627,258.1362728998065,None,None,258.1362728998065,None,258.9476913694292,None,,,,11003,0001,2021_Nov_12_1435,localizer,2021.1.3,59.04892262626157,
block,objects,objects059.bmp,,,,,0,104,104,104,,,,,,,,,,,,,,,,,,,,,,,,,,,,,,,,,,,,,,,,,,None,,258.9476913694292,None,258.9476913694292,None,2021-11-12-14:40:11.421800,258.95343569945544,259.26433769986033,258.95343569945544,None,None,258.95343569945544,None,259.7639501696452,None,,,,11003,0001,2021_Nov_12_1435,localizer,2021.1.3,59.04892262626157,
block,objects,objects011.bmp,,,,,0,105,105,105,,,,,,,,,,,,,,,,,,,,,,,,,,,,,,,,,,,,,,,,,,None,,259.7639501696452,None,259.7639501696452,None,2021-11-12-14:40:12.237275,259.769444799982,260.0806388994679,259.769444799982,None,None,259.769444799982,None,260.5826375694945,None,,,,11003,0001,2021_Nov_12_1435,localizer,2021.1.3,59.04892262626157,
block_end,objects,objects079.bmp,,,,,0,106,106,106,,,,,,,,,,,,,,,,,,,,,,,,,,,,,,,,,,,,,,,,,,None,,260.5826375694945,None,260.5826375694945,None,2021-11-12-14:40:13.060623,260.59578979946673,260.89714199956506,260.59578979946673,None,None,260.59578979946673,None,261.40333676952866,None,,,,11003,0001,2021_Nov_12_1435,localizer,2021.1.3,59.04892262626157,
block_start,scrambled,scrambled052.bmp,,,,,0,107,107,107,,,,,,,,,,,,,,,,,,,,,,,,,,,,,,,,,,,,,,,,,,t,1.718338900245726,261.4035948002711,None,261.4035948002711,None,2021-11-12-14:40:15.618843,263.1517917998135,263.4649222996086,263.1517917998135,None,None,263.1517917998135,None,263.9644254693761,None,,,,11003,0001,2021_Nov_12_1435,localizer,2021.1.3,59.04892262626157,
block,scrambled,scrambled049.bmp,,,,,0,108,108,108,,,,,,,,,,,,,,,,,,,,,,,,,,,,,,,,,,,,,,,,,,None,,263.9644254693761,None,263.9644254693761,None,2021-11-12-14:40:16.438723,263.9720278996974,264.2805349994451,263.9720278996974,None,None,263.9720278996974,None,264.78098016940055,None,,,,11003,0001,2021_Nov_12_1435,localizer,2021.1.3,59.04892262626157,
block,scrambled,scrambled084.bmp,,,,,0,109,109,109,,,,,,,,,,,,,,,,,,,,,,,,,,,,,,,,,,,,,,,,,,None,,264.78098016940055,None,264.78098016940055,None,2021-11-12-14:40:17.254058,264.78394179977477,265.10364460013807,264.78394179977477,None,None,264.78394179977477,None,265.5971988696605,None,,,,11003,0001,2021_Nov_12_1435,localizer,2021.1.3,59.04892262626157,
block,scrambled,scrambled027.bmp,,,,,0,110,110,110,,,,,,,,,,,,,,,,,,,,,,,,,,,,,,,,,,,,,,,,,,None,,265.5971988696605,None,265.5971988696605,None,2021-11-12-14:40:18.070316,265.60295179951936,265.91427369974554,265.60295179951936,None,None,265.60295179951936,None,266.4154249696061,None,,,,11003,0001,2021_Nov_12_1435,localizer,2021.1.3,59.04892262626157,
block,scrambled,scrambled032.bmp,,,,,0,111,111,111,,,,,,,,,,,,,,,,,,,,,,,,,,,,,,,,,,,,,,,,,,None,,266.4154249696061,None,266.4154249696061,None,2021-11-12-14:40:18.889824,266.424472999759,266.7313617998734,266.424472999759,None,None,266.424472999759,None,267.23270187024025,None,,,,11003,0001,2021_Nov_12_1435,localizer,2021.1.3,59.04892262626157,
block,scrambled,scrambled030.bmp,,,,,0,112,112,112,,,,,,,,,,,,,,,,,,,,,,,,,,,,,,,,,,,,,,,,,,None,,267.23270187024025,None,267.23270187024025,None,2021-11-12-14:40:19.710805,267.24648889992386,267.5484529994428,267.24648889992386,None,None,267.24648889992386,None,268.0469675702974,None,,,,11003,0001,2021_Nov_12_1435,localizer,2021.1.3,59.04892262626157,
block,scrambled,scrambled039.bmp,,,,,0,113,113,113,,,,,,,,,,,,,,,,,,,,,,,,,,,,,,,,,,,,,,,,,,None,,268.0469675702974,None,268.0469675702974,None,2021-11-12-14:40:20.520085,268.0572089999914,268.36407579947263,268.0572089999914,None,None,268.0572089999914,None,268.8641453698277,None,,,,11003,0001,2021_Nov_12_1435,localizer,2021.1.3,59.04892262626157,
block,scrambled,scrambled015.bmp,,,,,0,114,114,114,,,,,,,,,,,,,,,,,,,,,,,,,,,,,,,,,,,,,,,,,,None,,268.8641453698277,None,268.8641453698277,None,2021-11-12-14:40:21.337758,268.869638199918,269.18105619959533,268.869638199918,None,None,268.869638199918,None,269.68177866991607,None,,,,11003,0001,2021_Nov_12_1435,localizer,2021.1.3,59.04892262626157,
block,scrambled,scrambled037.bmp,,,,,0,115,115,115,,,,,,,,,,,,,,,,,,,,,,,,,,,,,,,,,,,,,,,,,,None,,269.68177866991607,None,269.68177866991607,None,2021-11-12-14:40:22.156870,269.6894602002576,269.9968761000782,269.6894602002576,None,None,269.6894602002576,None,270.49747867006806,None,,,,11003,0001,2021_Nov_12_1435,localizer,2021.1.3,59.04892262626157,
block,scrambled,scrambled073.bmp,,,,,0,116,116,116,,,,,,,,,,,,,,,,,,,,,,,,,,,,,,,,,,,,,,,,,,None,,270.49747867006806,None,270.49747867006806,None,2021-11-12-14:40:22.970591,270.5029250001535,270.8137737996876,270.5029250001535,None,None,270.5029250001535,None,271.3145878702402,None,,,,11003,0001,2021_Nov_12_1435,localizer,2021.1.3,59.04892262626157,
block,scrambled,scrambled008.bmp,,,,,0,117,117,117,,,,,,,,,,,,,,,,,,,,,,,,,,,,,,,,,,,,,,,,,,None,,271.3145878702402,None,271.3145878702402,None,2021-11-12-14:40:23.788692,271.32191899977624,271.6312688002363,271.32191899977624,None,None,271.32191899977624,None,272.13036136943845,None,,,,11003,0001,2021_Nov_12_1435,localizer,2021.1.3,59.04892262626157,
block,scrambled,scrambled002.bmp,,,,,0,118,118,118,,,,,,,,,,,,,,,,,,,,,,,,,,,,,,,,,,,,,,,,,,None,,272.13036136943845,None,272.13036136943845,None,2021-11-12-14:40:24.603190,272.1390915000811,272.4475154997781,272.1390915000811,None,None,272.1390915000811,None,272.94774407017974,None,,,,11003,0001,2021_Nov_12_1435,localizer,2021.1.3,59.04892262626157,
block,scrambled,scrambled031.bmp,,,,,0,119,119,119,,,,,,,,,,,,,,,,,,,,,,,,,,,,,,,,,,,,,,,,,,None,,272.94774407017974,None,272.94774407017974,None,2021-11-12-14:40:25.421893,272.95385770034045,273.264366700314,272.95385770034045,None,None,272.95385770034045,None,273.7643521694466,None,,,,11003,0001,2021_Nov_12_1435,localizer,2021.1.3,59.04892262626157,
block,scrambled,scrambled056.bmp,,,,,0,120,120,120,,,,,,,,,,,,,,,,,,,,,,,,,,,,,,,,,,,,,,,,,,None,,273.7643521694466,None,273.7643521694466,None,2021-11-12-14:40:26.238340,273.76493109948933,274.06463470030576,273.76493109948933,None,None,273.76493109948933,None,274.56524096950886,None,,,,11003,0001,2021_Nov_12_1435,localizer,2021.1.3,59.04892262626157,
block_end,scrambled,scrambled044.bmp,,,,,0,121,121,121,,,,,,,,,,,,,,,,,,,,,,,,,,,,,,,,,,,,,,,,,,None,,274.56524096950886,None,274.56524096950886,None,2021-11-12-14:40:27.042457,274.5694725997746,274.8812748994678,274.5694725997746,274.5694725997746,None,274.5694725997746,274.5694725997746,275.3808981698006,None,,,,11003,0001,2021_Nov_12_1435,localizer,2021.1.3,59.04892262626157,
block_start,scenes,scenes034.bmp,,,,,0,122,122,122,,,,,,,,,,,,,,,,,,,,,,,,,,,,,,,,,,,,,,,,,,t,1.7410792000591755,275.38073099963367,None,275.38073099963367,None,2021-11-12-14:40:29.622466,277.18335749953985,277.4973502000794,277.18335749953985,None,None,277.18335749953985,None,277.9655902698636,None,,,,11003,0001,2021_Nov_12_1435,localizer,2021.1.3,59.04892262626157,
block,scenes,scenes057.bmp,,,,,0,123,123,123,,,,,,,,,,,,,,,,,,,,,,,,,,,,,,,,,,,,,,,,,,None,,277.9655902698636,None,277.9655902698636,None,2021-11-12-14:40:30.442673,277.9782988000661,278.2818563003093,277.9782988000661,None,None,277.9782988000661,None,278.7818372702226,None,,,,11003,0001,2021_Nov_12_1435,localizer,2021.1.3,59.04892262626157,
block,scenes,scenes038.bmp,,,,,0,124,124,124,,,,,,,,,,,,,,,,,,,,,,,,,,,,,,,,,,,,,,,,,,None,,278.7818372702226,None,278.7818372702226,None,2021-11-12-14:40:31.256930,278.79243199992925,279.09855780005455,278.79243199992925,None,None,278.79243199992925,None,279.59748627021906,None,,,,11003,0001,2021_Nov_12_1435,localizer,2021.1.3,59.04892262626157,
block,scenes,scenes028.bmp,,,,,0,125,125,125,,,,,,,,,,,,,,,,,,,,,,,,,,,,,,,,,,,,,,,,,,None,,279.59748627021906,None,279.59748627021906,None,2021-11-12-14:40:32.070811,279.6080657001585,279.914044899866,279.6080657001585,None,None,279.6080657001585,None,280.4147267701104,None,,,,11003,0001,2021_Nov_12_1435,localizer,2021.1.3,59.04892262626157,
block,scenes,scenes082.bmp,,,,,0,126,126,126,,,,,,,,,,,,,,,,,,,,,,,,,,,,,,,,,,,,,,,,,,None,,280.4147267701104,None,280.4147267701104,None,2021-11-12-14:40:32.888828,280.42200590018183,280.7309868000448,280.42200590018183,None,None,280.42200590018183,None,281.23162466995416,None,,,,11003,0001,2021_Nov_12_1435,localizer,2021.1.3,59.04892262626157,
block,scenes,scenes074.bmp,,,,,0,127,127,127,,,,,,,,,,,,,,,,,,,,,,,,,,,,,,,,,,,,,,,,,,None,,281.23162466995416,None,281.23162466995416,None,2021-11-12-14:40:33.705861,281.2389198001474,281.5472707003355,281.2389198001474,None,None,281.2389198001474,None,282.0476350696757,None,,,,11003,0001,2021_Nov_12_1435,localizer,2021.1.3,59.04892262626157,
block,scenes,scenes059.bmp,,,,,0,128,128,128,,,,,,,,,,,,,,,,,,,,,,,,,,,,,,,,,,,,,,,,,,None,,282.0476350696757,None,282.0476350696757,None,2021-11-12-14:40:34.520942,282.0531773995608,282.3639877997339,282.0531773995608,None,None,282.0531773995608,None,282.8651126693934,None,,,,11003,0001,2021_Nov_12_1435,localizer,2021.1.3,59.04892262626157,
block,scenes,scenes076.bmp,,,,,0,129,129,129,,,,,,,,,,,,,,,,,,,,,,,,,,,,,,,,,,,,,,,,,,None,,282.8651126693934,None,282.8651126693934,None,2021-11-12-14:40:35.339338,282.87266049999744,283.18103579990566,282.87266049999744,None,None,282.87266049999744,None,283.68092736937103,None,,,,11003,0001,2021_Nov_12_1435,localizer,2021.1.3,59.04892262626157,
block,scenes,scenes029.bmp,,,,,0,130,130,130,,,,,,,,,,,,,,,,,,,,,,,,,,,,,,,,,,,,,,,,,,None,,283.68092736937103,None,283.68092736937103,None,2021-11-12-14:40:36.154289,283.6865083994344,283.99732119962573,283.6865083994344,None,None,283.6865083994344,None,284.4980750694871,None,,,,11003,0001,2021_Nov_12_1435,localizer,2021.1.3,59.04892262626157,
block,scenes,scenes060.bmp,,,,,0,131,131,131,,,,,,,,,,,,,,,,,,,,,,,,,,,,,,,,,,,,,,,,,,None,,284.4980750694871,None,284.4980750694871,None,2021-11-12-14:40:36.970200,284.5031182002276,284.8142349002883,284.5031182002276,None,None,284.5031182002276,None,285.3152482701465,None,,,,11003,0001,2021_Nov_12_1435,localizer,2021.1.3,59.04892262626157,
block,scenes,scenes035.bmp,,,,,0,132,132,132,,,,,,,,,,,,,,,,,,,,,,,,,,,,,,,,,,,,,,,,,,None,,285.3152482701465,None,285.3152482701465,None,2021-11-12-14:40:37.790512,285.3233674997464,285.6308517996222,285.3233674997464,None,None,285.3233674997464,None,286.1313707694411,None,,,,11003,0001,2021_Nov_12_1435,localizer,2021.1.3,59.04892262626157,
block,scenes,scenes018.bmp,,,,,0,133,133,133,,,,,,,,,,,,,,,,,,,,,,,,,,,,,,,,,,,,,,,,,,None,,286.1313707694411,None,286.1313707694411,None,2021-11-12-14:40:38.606522,286.1435885000974,286.44726580008864,286.1435885000974,None,None,286.1435885000974,None,286.9472407694906,None,,,,11003,0001,2021_Nov_12_1435,localizer,2021.1.3,59.04892262626157,
block,scenes,scenes071.bmp,,,,,0,134,134,134,,,,,,,,,,,,,,,,,,,,,,,,,,,,,,,,,,,,,,,,,,None,,286.9472407694906,None,286.9472407694906,None,2021-11-12-14:40:39.419440,286.9500348996371,287.2639910997823,286.9500348996371,None,None,286.9500348996371,None,287.765117569454,None,,,,11003,0001,2021_Nov_12_1435,localizer,2021.1.3,59.04892262626157,
block,scenes,scenes013.bmp,,,,,0,135,135,135,,,,,,,,,,,,,,,,,,,,,,,,,,,,,,,,,,,,,,,,,,None,,287.765117569454,None,287.765117569454,None,2021-11-12-14:40:40.239216,287.7721312996,288.080505900085,287.7721312996,None,None,287.7721312996,None,288.58102966994045,None,,,,11003,0001,2021_Nov_12_1435,localizer,2021.1.3,59.04892262626157,
block_end,scenes,scenes046.bmp,,,,,0,136,136,136,,,,,,,,,,,,,,,,,,,,,,,,,,,,,,,,,,,,,,,,,,None,,288.58102966994045,None,288.58102966994045,None,2021-11-12-14:40:41.054163,288.59182349964976,288.8973439997062,288.59182349964976,None,None,288.59182349964976,None,289.3980766698718,None,,,,11003,0001,2021_Nov_12_1435,localizer,2021.1.3,59.04892262626157,
block_start,faces,faces075.bmp,,,,,0,137,137,137,,,,,,,,,,,,,,,,,,,,,,,,,,,,,,,,,,,,,,,,,,t,1.7237697001546621,289.3980384003371,None,289.3980384003371,None,2021-11-12-14:40:43.621256,291.1490936996415,291.46474539954215,291.1490936996415,None,None,291.1490936996415,None,291.9487467702478,None,,,,11003,0001,2021_Nov_12_1435,localizer,2021.1.3,59.04892262626157,
block,faces,faces067.bmp,,,,,0,138,138,138,,,,,,,,,,,,,,,,,,,,,,,,,,,,,,,,,,,,,,,,,,None,,291.9487467702478,None,291.9487467702478,None,2021-11-12-14:40:44.425913,291.95938370004296,292.26384839974344,291.95938370004296,291.95938370004296,None,291.95938370004296,291.95938370004296,292.7647777698934,None,,,,11003,0001,2021_Nov_12_1435,localizer,2021.1.3,59.04892262626157,
block,faces,faces008.bmp,,,,,0,139,139,139,,,,,,,,,,,,,,,,,,,,,,,,,,,,,,,,,,,,,,,,,,None,,292.7647777698934,None,292.7647777698934,None,2021-11-12-14:40:45.239051,292.77118990011513,293.08166120015085,292.77118990011513,None,None,292.77118990011513,None,293.5818932695314,None,,,,11003,0001,2021_Nov_12_1435,localizer,2021.1.3,59.04892262626157,
block,faces,faces022.bmp,,,,,0,140,140,140,,,,,,,,,,,,,,,,,,,,,,,,,,,,,,,,,,,,,,,,,,None,,293.5818932695314,None,293.5818932695314,None,2021-11-12-14:40:46.056650,293.59447519946843,293.8973835995421,293.59447519946843,None,None,293.59447519946843,None,294.3979635700583,None,,,,11003,0001,2021_Nov_12_1435,localizer,2021.1.3,59.04892262626157,
block,faces,faces016.bmp,,,,,0,141,141,141,,,,,,,,,,,,,,,,,,,,,,,,,,,,,,,,,,,,,,,,,,None,,294.3979635700583,None,294.3979635700583,None,2021-11-12-14:40:46.871248,294.40404929965734,294.7142570996657,294.40404929965734,None,None,294.40404929965734,None,295.21433536950497,None,,,,11003,0001,2021_Nov_12_1435,localizer,2021.1.3,59.04892262626157,
block,faces,faces055.bmp,,,,,0,142,142,142,,,,,,,,,,,,,,,,,,,,,,,,,,,,,,,,,,,,,,,,,,None,,295.21433536950497,None,295.21433536950497,None,2021-11-12-14:40:47.687488,295.2150176996365,295.5308408997953,295.2150176996365,None,None,295.2150176996365,None,296.014252069965,None,,,,11003,0001,2021_Nov_12_1435,localizer,2021.1.3,59.04892262626157,
block,faces,faces049.bmp,,,,,0,143,143,143,,,,,,,,,,,,,,,,,,,,,,,,,,,,,,,,,,,,,,,,,,None,,296.014252069965,None,296.014252069965,None,2021-11-12-14:40:48.489164,296.02271149959415,296.33118489943445,296.02271149959415,296.02271149959415,None,296.02271149959415,296.02271149959415,296.83130046967415,None,,,,11003,0001,2021_Nov_12_1435,localizer,2021.1.3,59.04892262626157,
block,faces,faces073.bmp,,,,,0,144,144,144,,,,,,,,,,,,,,,,,,,,,,,,,,,,,,,,,,,,,,,,,,None,,296.83130046967415,None,296.83130046967415,None,2021-11-12-14:40:49.305318,296.8321778997779,297.14730739966035,296.8321778997779,None,None,296.8321778997779,None,297.647575270012,None,,,,11003,0001,2021_Nov_12_1435,localizer,2021.1.3,59.04892262626157,
block,faces,faces011.bmp,,,,,0,145,145,145,,,,,,,,,,,,,,,,,,,,,,,,,,,,,,,,,,,,,,,,,,None,,297.647575270012,None,297.647575270012,None,2021-11-12-14:40:50.120689,297.6535689001903,297.9644643003121,297.6535689001903,None,None,297.6535689001903,None,298.46630896963177,None,,,,11003,0001,2021_Nov_12_1435,localizer,2021.1.3,59.04892262626157,
block,faces,faces050.bmp,,,,,0,146,146,146,,,,,,,,,,,,,,,,,,,,,,,,,,,,,,,,,,,,,,,,,,None,,298.46630896963177,None,298.46630896963177,None,2021-11-12-14:40:50.943479,298.48304979968816,298.79732530005276,298.48304979968816,None,None,298.48304979968816,None,299.2809627695009,None,,,,11003,0001,2021_Nov_12_1435,localizer,2021.1.3,59.04892262626157,
block,faces,faces059.bmp,,,,,0,147,147,147,,,,,,,,,,,,,,,,,,,,,,,,,,,,,,,,,,,,,,,,,,None,,299.2809627695009,None,299.2809627695009,None,2021-11-12-14:40:51.754075,299.28760099969804,299.59746669977903,299.28760099969804,None,None,299.28760099969804,None,300.0873743701726,None,,,,11003,0001,2021_Nov_12_1435,localizer,2021.1.3,59.04892262626157,
block,faces,faces040.bmp,,,,,0,148,148,148,,,,,,,,,,,,,,,,,,,,,,,,,,,,,,,,,,,,,,,,,,None,,300.0873743701726,None,300.0873743701726,None,2021-11-12-14:40:52.564384,300.09892129991204,300.41446810029447,300.09892129991204,None,None,300.09892129991204,None,300.89799297004936,None,,,,11003,0001,2021_Nov_12_1435,localizer,2021.1.3,59.04892262626157,
block,faces,faces086.bmp,,,,,0,149,149,149,,,,,,,,,,,,,,,,,,,,,,,,,,,,,,,,,,,,,,,,,,None,,300.89799297004936,None,300.89799297004936,None,2021-11-12-14:40:53.372294,300.9041034998372,301.21407809946686,300.9041034998372,None,None,300.9041034998372,None,301.71430396996436,None,,,,11003,0001,2021_Nov_12_1435,localizer,2021.1.3,59.04892262626157,
block,faces,faces029.bmp,,,,,0,150,150,150,,,,,,,,,,,,,,,,,,,,,,,,,,,,,,,,,,,,,,,,,,None,,301.71430396996436,None,301.71430396996436,None,2021-11-12-14:40:54.187723,301.721043699421,302.03081270027906,301.721043699421,None,None,301.721043699421,None,302.531137070246,None,,,,11003,0001,2021_Nov_12_1435,localizer,2021.1.3,59.04892262626157,
block_end,faces,faces043.bmp,,,,,0,151,151,151,,,,,,,,,,,,,,,,,,,,,,,,,,,,,,,,,,,,,,,,,,None,,302.531137070246,None,302.531137070246,None,2021-11-12-14:40:55.005270,302.5338519997895,302.84763399977237,302.5338519997895,None,None,302.5338519997895,None,303.34782716967163,None,,,,11003,0001,2021_Nov_12_1435,localizer,2021.1.3,59.04892262626157,
null_block,null_block,null_block.bmp,,,,,0,152,152,152,,,,,,,,,,,,,,,,,,,,,,,,,,,,,,,,,,,,,,,,,,t,1.7740644998848438,303.3477636994794,None,303.3477636994794,None,2021-11-12-14:40:57.619976,305.1476388700306,None,305.1476388700306,None,None,305.1476388700306,None,305.15025509987026,None,,,,11003,0001,2021_Nov_12_1435,localizer,2021.1.3,59.04892262626157,
block_start,objects,objects087.bmp,,,,,0,153,153,153,,,,,,,,,,,,,,,,,,,,,,,,,,,,,,,,,,,,,,,,,,t,1.9572079004719853,317.16460799984634,None,317.16460799984634,None,2021-11-12-14:41:11.620658,319.1576038999483,319.46410810016096,319.1576038999483,None,None,319.1576038999483,None,319.96511216983197,None,,,,11003,0001,2021_Nov_12_1435,localizer,2021.1.3,59.04892262626157,
block,objects,objects064.bmp,,,,,0,154,154,154,,,,,,,,,,,,,,,,,,,,,,,,,,,,,,,,,,,,,,,,,,None,,319.96511216983197,None,319.96511216983197,None,2021-11-12-14:41:12.439397,319.96740380022675,320.28204130008817,319.96740380022675,None,None,319.96740380022675,None,320.78196006976066,None,,,,11003,0001,2021_Nov_12_1435,localizer,2021.1.3,59.04892262626157,
block,objects,objects039.bmp,,,,,0,155,155,155,,,,,,,,,,,,,,,,,,,,,,,,,,,,,,,,,,,,,,,,,,None,,320.78196006976066,None,320.78196006976066,None,2021-11-12-14:41:13.256153,320.78430190030485,321.0983482999727,320.78430190030485,None,None,320.78430190030485,None,321.5985640702769,None,,,,11003,0001,2021_Nov_12_1435,localizer,2021.1.3,59.04892262626157,
block,objects,objects069.bmp,,,,,0,156,156,156,,,,,,,,,,,,,,,,,,,,,,,,,,,,,,,,,,,,,,,,,,None,,321.5985640702769,None,321.5985640702769,None,2021-11-12-14:41:14.072805,321.6109675997868,321.91434899996966,321.6109675997868,None,None,321.6109675997868,None,322.4151529693976,None,,,,11003,0001,2021_Nov_12_1435,localizer,2021.1.3,59.04892262626157,
block,objects,objects075.bmp,,,,,0,157,157,157,,,,,,,,,,,,,,,,,,,,,,,,,,,,,,,,,,,,,,,,,,None,,322.4151529693976,None,322.4151529693976,None,2021-11-12-14:41:14.889251,322.42291860003024,322.7306308997795,322.42291860003024,None,None,322.42291860003024,None,323.2312271693721,None,,,,11003,0001,2021_Nov_12_1435,localizer,2021.1.3,59.04892262626157,
block,objects,objects083.bmp,,,,,0,158,158,158,,,,,,,,,,,,,,,,,,,,,,,,,,,,,,,,,,,,,,,,,,None,,323.2312271693721,None,323.2312271693721,None,2021-11-12-14:41:15.704336,323.23192640021443,323.5312454001978,323.23192640021443,None,None,323.23192640021443,None,324.0319284699857,None,,,,11003,0001,2021_Nov_12_1435,localizer,2021.1.3,59.04892262626157,
block,objects,objects030.bmp,,,,,0,159,159,159,,,,,,,,,,,,,,,,,,,,,,,,,,,,,,,,,,,,,,,,,,None,,324.0319284699857,None,324.0319284699857,None,2021-11-12-14:41:16.508118,324.0417470000684,324.3475179998204,324.0417470000684,324.0417470000684,None,324.0417470000684,324.0417470000684,324.8474525693804,None,,,,11003,0001,2021_Nov_12_1435,localizer,2021.1.3,59.04892262626157,
block,objects,objects002.bmp,,,,,0,160,160,160,,,,,,,,,,,,,,,,,,,,,,,,,,,,,,,,,,,,,,,,,,None,,324.8474525693804,None,324.8474525693804,None,2021-11-12-14:41:17.320630,324.85322239995,325.16471409983933,324.85322239995,None,None,324.85322239995,None,325.664721869491,None,,,,11003,0001,2021_Nov_12_1435,localizer,2021.1.3,59.04892262626157,
block,objects,objects082.bmp,,,,,0,161,161,161,,,,,,,,,,,,,,,,,,,,,,,,,,,,,,,,,,,,,,,,,,None,,325.664721869491,None,325.664721869491,None,2021-11-12-14:41:18.138808,325.6653247997165,325.9647097000852,325.6653247997165,None,None,325.6653247997165,None,326.46477436982093,None,,,,11003,0001,2021_Nov_12_1435,localizer,2021.1.3,59.04892262626157,
block,objects,objects022.bmp,,,,,0,162,162,162,,,,,,,,,,,,,,,,,,,,,,,,,,,,,,,,,,,,,,,,,,None,,326.46477436982093,None,326.46477436982093,None,2021-11-12-14:41:18.940872,326.4781972998753,326.7815346997231,326.4781972998753,326.4781972998753,None,326.4781972998753,326.4781972998753,327.2816404696554,None,,,,11003,0001,2021_Nov_12_1435,localizer,2021.1.3,59.04892262626157,
block,objects,objects003.bmp,,,,,0,163,163,163,,,,,,,,,,,,,,,,,,,,,,,,,,,,,,,,,,,,,,,,,,None,,327.2816404696554,None,327.2816404696554,None,2021-11-12-14:41:19.755931,327.2835671994835,327.5985773000866,327.2835671994835,None,None,327.2835671994835,None,328.0983128702268,None,,,,11003,0001,2021_Nov_12_1435,localizer,2021.1.3,59.04892262626157,
block,objects,objects068.bmp,,,,,0,164,164,164,,,,,,,,,,,,,,,,,,,,,,,,,,,,,,,,,,,,,,,,,,None,,328.0983128702268,None,328.0983128702268,None,2021-11-12-14:41:20.572602,328.10635279957205,328.41502080019563,328.10635279957205,None,None,328.10635279957205,None,328.91505746971814,None,,,,11003,0001,2021_Nov_12_1435,localizer,2021.1.3,59.04892262626157,
block,objects,objects088.bmp,,,,,0,165,165,165,,,,,,,,,,,,,,,,,,,,,,,,,,,,,,,,,,,,,,,,,,None,,328.91505746971814,None,328.91505746971814,None,2021-11-12-14:41:21.389307,328.9244168000296,329.231492199935,328.9244168000296,None,None,328.9244168000296,None,329.7316671699285,None,,,,11003,0001,2021_Nov_12_1435,localizer,2021.1.3,59.04892262626157,
block,objects,objects042.bmp,,,,,0,166,166,166,,,,,,,,,,,,,,,,,,,,,,,,,,,,,,,,,,,,,,,,,,None,,329.7316671699285,None,329.7316671699285,None,2021-11-12-14:41:22.205769,329.7336804997176,330.04830059967935,329.7336804997176,None,None,329.7336804997176,None,330.54828956965355,None,,,,11003,0001,2021_Nov_12_1435,localizer,2021.1.3,59.04892262626157,
block_end,objects,objects010.bmp,,,,,0,167,167,167,,,,,,,,,,,,,,,,,,,,,,,,,,,,,,,,,,,,,,,,,,None,,330.54828956965355,None,330.54828956965355,None,2021-11-12-14:41:23.022541,330.5503014996648,330.8639906998724,330.5503014996648,None,None,330.5503014996648,None,331.36475266944615,None,,,,11003,0001,2021_Nov_12_1435,localizer,2021.1.3,59.04892262626157,
block_start,scrambled,scrambled055.bmp,,,,,0,168,168,168,,,,,,,,,,,,,,,,,,,,,,,,,,,,,,,,,,,,,,,,,,t,1.7575226007029414,331.3648044001311,None,331.3648044001311,None,2021-11-12-14:41:25.620103,333.1529104998335,333.46530060004443,333.1529104998335,None,None,333.1529104998335,None,333.96549486983565,None,,,,11003,0001,2021_Nov_12_1435,localizer,2021.1.3,59.04892262626157,
block,scrambled,scrambled046.bmp,,,,,0,169,169,169,,,,,,,,,,,,,,,,,,,,,,,,,,,,,,,,,,,,,,,,,,None,,333.96549486983565,None,333.96549486983565,None,2021-11-12-14:41:26.439718,333.97789280023426,334.28155810013413,333.97789280023426,None,None,333.97789280023426,None,334.78171106949446,None,,,,11003,0001,2021_Nov_12_1435,localizer,2021.1.3,59.04892262626157,
block,scrambled,scrambled046.bmp,,,,,0,170,170,170,,,,,,,,,,,,,,,,,,,,,,,,,,,,,,,,,,,,,,,,,,None,,334.78171106949446,None,334.78171106949446,None,2021-11-12-14:41:27.256005,334.78383510001004,335.0982353994623,334.78383510001004,None,y,334.78383510001004,None,335.59786276947705,None,0.5706500001251698,,,11003,0001,2021_Nov_12_1435,localizer,2021.1.3,59.04892262626157,
block,scrambled,scrambled006.bmp,,,,,0,171,171,171,,,,,,,,,,,,,,,,,,,,,,,,,,,,,,,,,,,,,,,,,,None,,335.59786276947705,None,335.59786276947705,None,2021-11-12-14:41:28.072117,335.60416099987924,335.91452320013195,335.60416099987924,None,None,335.60416099987924,None,336.4145772695541,None,,,,11003,0001,2021_Nov_12_1435,localizer,2021.1.3,59.04892262626157,
block,scrambled,scrambled068.bmp,,,,,0,172,172,172,,,,,,,,,,,,,,,,,,,,,,,,,,,,,,,,,,,,,,,,,,None,,336.4145772695541,None,336.4145772695541,None,2021-11-12-14:41:28.887690,336.4255055002868,336.7311595994979,336.4255055002868,None,None,336.4255055002868,None,337.23113397005943,None,,,,11003,0001,2021_Nov_12_1435,localizer,2021.1.3,59.04892262626157,
block,scrambled,scrambled015.bmp,,,,,0,173,173,173,,,,,,,,,,,,,,,,,,,,,,,,,,,,,,,,,,,,,,,,,,None,,337.23113397005943,None,337.23113397005943,None,2021-11-12-14:41:29.704245,337.23195249959826,337.5311091998592,337.23195249959826,None,None,337.23195249959826,None,338.0312489695847,None,,,,11003,0001,2021_Nov_12_1435,localizer,2021.1.3,59.04892262626157,
block,scrambled,scrambled053.bmp,,,,,0,174,174,174,,,,,,,,,,,,,,,,,,,,,,,,,,,,,,,,,,,,,,,,,,None,,338.0312489695847,None,338.0312489695847,None,2021-11-12-14:41:30.507355,338.0389376003295,338.34788759984076,338.0389376003295,338.0389376003295,None,338.0389376003295,338.0389376003295,338.8481032695621,None,,,,11003,0001,2021_Nov_12_1435,localizer,2021.1.3,59.04892262626157,
block,scrambled,scrambled013.bmp,,,,,0,175,175,175,,,,,,,,,,,,,,,,,,,,,,,,,,,,,,,,,,,,,,,,,,None,,338.8481032695621,None,338.8481032695621,None,2021-11-12-14:41:31.322323,338.85893480014056,339.16442869976163,338.85893480014056,None,None,338.85893480014056,None,339.6645751694217,None,,,,11003,0001,2021_Nov_12_1435,localizer,2021.1.3,59.04892262626157,
block,scrambled,scrambled078.bmp,,,,,0,176,176,176,,,,,,,,,,,,,,,,,,,,,,,,,,,,,,,,,,,,,,,,,,None,,339.6645751694217,None,339.6645751694217,None,2021-11-12-14:41:32.137687,339.67009009979665,339.981057099998,339.67009009979665,None,None,339.67009009979665,None,340.4809609694406,None,,,,11003,0001,2021_Nov_12_1435,localizer,2021.1.3,59.04892262626157,
block,scrambled,scrambled073.bmp,,,,,0,177,177,177,,,,,,,,,,,,,,,,,,,,,,,,,,,,,,,,,,,,,,,,,,None,,340.4809609694406,None,340.4809609694406,None,2021-11-12-14:41:32.954077,340.4819269999862,340.7810351997614,340.4819269999862,None,None,340.4819269999862,None,341.2815524699166,None,,,,11003,0001,2021_Nov_12_1435,localizer,2021.1.3,59.04892262626157,
block,scrambled,scrambled071.bmp,,,,,0,178,178,178,,,,,,,,,,,,,,,,,,,,,,,,,,,,,,,,,,,,,,,,,,None,,341.2815524699166,None,341.2815524699166,None,2021-11-12-14:41:33.757750,341.2846264000982,341.596611299552,341.2846264000982,341.2846264000982,None,341.2846264000982,341.2846264000982,342.09821086991576,None,,,,11003,0001,2021_Nov_12_1435,localizer,2021.1.3,59.04892262626157,
block,scrambled,scrambled051.bmp,,,,,0,179,179,179,,,,,,,,,,,,,,,,,,,,,,,,,,,,,,,,,,,,,,,,,,None,,342.09821086991576,None,342.09821086991576,None,2021-11-12-14:41:34.572316,342.10585880000144,342.4143695998937,342.10585880000144,None,None,342.10585880000144,None,342.9145749701187,None,,,,11003,0001,2021_Nov_12_1435,localizer,2021.1.3,59.04892262626157,
block,scrambled,scrambled047.bmp,,,,,0,180,180,180,,,,,,,,,,,,,,,,,,,,,,,,,,,,,,,,,,,,,,,,,,None,,342.9145749701187,None,342.9145749701187,None,2021-11-12-14:41:35.387703,342.91531589999795,343.2306677000597,342.91531589999795,None,None,342.91531589999795,None,343.7145122695714,None,,,,11003,0001,2021_Nov_12_1435,localizer,2021.1.3,59.04892262626157,
block,scrambled,scrambled049.bmp,,,,,0,181,181,181,,,,,,,,,,,,,,,,,,,,,,,,,,,,,,,,,,,,,,,,,,None,,343.7145122695714,None,343.7145122695714,None,2021-11-12-14:41:36.189646,343.71715470030904,344.0309410998598,343.71715470030904,343.71715470030904,None,343.71715470030904,343.71715470030904,344.5309334700927,None,,,,11003,0001,2021_Nov_12_1435,localizer,2021.1.3,59.04892262626157,
block_end,scrambled,scrambled061.bmp,,,,,0,182,182,182,,,,,,,,,,,,,,,,,,,,,,,,,,,,,,,,,,,,,,,,,,None,,344.5309334700927,None,344.5309334700927,None,2021-11-12-14:41:37.004048,344.5318296998739,344.83120169956237,344.5318296998739,None,None,344.5318296998739,None,345.33119566980747,None,,,,11003,0001,2021_Nov_12_1435,localizer,2021.1.3,59.04892262626157,
block_start,objects,objects054.bmp,,,,,0,183,183,183,,,,,,,,,,,,,,,,,,,,,,,,,,,,,,,,,,,,,,,,,,t,1.7896229000762105,345.3309928001836,None,345.3309928001836,None,2021-11-12-14:41:39.622762,347.15105979982764,347.4648553999141,347.15105979982764,None,None,347.15105979982764,None,347.96490616966037,None,,,,11003,0001,2021_Nov_12_1435,localizer,2021.1.3,59.04892262626157,
block,objects,objects048.bmp,,,,,0,184,184,184,,,,,,,,,,,,,,,,,,,,,,,,,,,,,,,,,,,,,,,,,,None,,347.96490616966037,None,347.96490616966037,None,2021-11-12-14:41:40.439187,347.9710093997419,348.2810539994389,347.9710093997419,None,None,347.9710093997419,None,348.7816246697679,None,,,,11003,0001,2021_Nov_12_1435,localizer,2021.1.3,59.04892262626157,
block,objects,objects023.bmp,,,,,0,185,185,185,,,,,,,,,,,,,,,,,,,,,,,,,,,,,,,,,,,,,,,,,,None,,348.7816246697679,None,348.7816246697679,None,2021-11-12-14:41:41.255726,348.7915375996381,349.09779139980674,348.7915375996381,None,None,348.7915375996381,None,349.597836169973,None,,,,11003,0001,2021_Nov_12_1435,localizer,2021.1.3,59.04892262626157,
block,objects,objects082.bmp,,,,,0,186,186,186,,,,,,,,,,,,,,,,,,,,,,,,,,,,,,,,,,,,,,,,,,None,,349.597836169973,None,349.597836169973,None,2021-11-12-14:41:42.071159,349.5986014995724,349.8978699995205,349.5986014995724,None,None,349.5986014995724,None,350.39819106981156,None,,,,11003,0001,2021_Nov_12_1435,localizer,2021.1.3,59.04892262626157,
block,objects,objects024.bmp,,,,,0,187,187,187,,,,,,,,,,,,,,,,,,,,,,,,,,,,,,,,,,,,,,,,,,None,,350.39819106981156,None,350.39819106981156,None,2021-11-12-14:41:42.873400,350.40621419996023,350.71442189998925,350.40621419996023,350.40621419996023,None,350.40621419996023,350.40621419996023,351.21453086994586,None,,,,11003,0001,2021_Nov_12_1435,localizer,2021.1.3,59.04892262626157,
block,objects,objects063.bmp,,,,,0,188,188,188,,,,,,,,,,,,,,,,,,,,,,,,,,,,,,,,,,,,,,,,,,None,,351.21453086994586,None,351.21453086994586,None,2021-11-12-14:41:43.687669,351.2203366998583,351.5309851001948,351.2203366998583,None,None,351.2203366998583,None,352.0310238698497,None,,,,11003,0001,2021_Nov_12_1435,localizer,2021.1.3,59.04892262626157,
block,objects,objects074.bmp,,,,,0,189,189,189,,,,,,,,,,,,,,,,,,,,,,,,,,,,,,,,,,,,,,,,,,None,,352.0310238698497,None,352.0310238698497,None,2021-11-12-14:41:44.504332,352.0368055999279,352.34799490030855,352.0368055999279,None,None,352.0368055999279,None,352.84804777018724,None,,,,11003,0001,2021_Nov_12_1435,localizer,2021.1.3,59.04892262626157,
block,objects,objects084.bmp,,,,,0,190,190,190,,,,,,,,,,,,,,,,,,,,,,,,,,,,,,,,,,,,,,,,,,None,,352.84804777018724,None,352.84804777018724,None,2021-11-12-14:41:45.320133,352.8484351998195,353.14777619950473,352.8484351998195,None,None,352.8484351998195,None,353.64768756981937,None,,,,11003,0001,2021_Nov_12_1435,localizer,2021.1.3,59.04892262626157,
block,objects,objects067.bmp,,,,,0,191,191,191,,,,,,,,,,,,,,,,,,,,,,,,,,,,,,,,,,,,,,,,,,None,,353.64768756981937,None,353.64768756981937,None,2021-11-12-14:41:46.122993,353.65583859942853,353.96467429958284,353.65583859942853,353.65583859942853,None,353.65583859942853,353.65583859942853,354.46478536967186,None,,,,11003,0001,2021_Nov_12_1435,localizer,2021.1.3,59.04892262626157,
block,objects,objects008.bmp,,,,,0,192,192,192,,,,,,,,,,,,,,,,,,,,,,,,,,,,,,,,,,,,,,,,,,None,,354.46478536967186,None,354.46478536967186,None,2021-11-12-14:41:46.938894,354.47110239975154,354.7811396997422,354.47110239975154,None,None,354.47110239975154,None,355.28119206950066,None,,,,11003,0001,2021_Nov_12_1435,localizer,2021.1.3,59.04892262626157,
block,objects,objects034.bmp,,,,,0,193,193,193,,,,,,,,,,,,,,,,,,,,,,,,,,,,,,,,,,,,,,,,,,None,,355.28119206950066,None,355.28119206950066,None,2021-11-12-14:41:47.754308,355.2866957001388,355.5977523000911,355.2866957001388,None,None,355.2866957001388,None,356.0875954698771,None,,,,11003,0001,2021_Nov_12_1435,localizer,2021.1.3,59.04892262626157,
block,objects,objects002.bmp,,,,,0,194,194,194,,,,,,,,,,,,,,,,,,,,,,,,,,,,,,,,,,,,,,,,,,None,,356.0875954698771,None,356.0875954698771,None,2021-11-12-14:41:48.564611,356.09186770021915,356.39808200020343,356.09186770021915,None,None,356.09186770021915,None,356.89761016946284,None,,,,11003,0001,2021_Nov_12_1435,localizer,2021.1.3,59.04892262626157,
block,objects,objects002.bmp,,,,,0,195,195,195,,,,,,,,,,,,,,,,,,,,,,,,,,,,,,,,,,,,,,,,,,None,,356.89761016946284,None,356.89761016946284,None,2021-11-12-14:41:49.369762,356.8986823000014,357.21422769967467,356.8986823000014,None,y,356.8986823000014,None,357.6977331699803,None,0.560809999704361,,,11003,0001,2021_Nov_12_1435,localizer,2021.1.3,59.04892262626157,
block,objects,objects032.bmp,,,,,0,196,196,196,,,,,,,,,,,,,,,,,,,,,,,,,,,,,,,,,,,,,,,,,,None,,357.6977331699803,None,357.6977331699803,None,2021-11-12-14:41:50.172845,357.6988460998982,358.0143726002425,357.6988460998982,357.6988460998982,None,357.6988460998982,357.6988460998982,358.4979179702699,None,,,,11003,0001,2021_Nov_12_1435,localizer,2021.1.3,59.04892262626157,
block_end,objects,objects004.bmp,,,,,0,197,197,197,,,,,,,,,,,,,,,,,,,,,,,,,,,,,,,,,,,,,,,,,,None,,358.4979179702699,None,358.4979179702699,None,2021-11-12-14:41:50.973027,358.50596779957414,358.8145099999383,358.50596779957414,358.50596779957414,None,358.50596779957414,358.50596779957414,359.3145645694807,None,,,,11003,0001,2021_Nov_12_1435,localizer,2021.1.3,59.04892262626157,
block_start,scenes,scenes092.bmp,,,,,0,198,198,198,,,,,,,,,,,,,,,,,,,,,,,,,,,,,,,,,,,,,,,,,,t,1.8060874994844198,359.3145739994943,None,359.3145739994943,None,2021-11-12-14:41:53.621577,361.1552638998255,361.4640656998381,361.1552638998255,None,None,361.1552638998255,None,361.9645005702972,None,,,,11003,0001,2021_Nov_12_1435,localizer,2021.1.3,59.04892262626157,
block,scenes,scenes036.bmp,,,,,0,199,199,199,,,,,,,,,,,,,,,,,,,,,,,,,,,,,,,,,,,,,,,,,,None,,361.9645005702972,None,361.9645005702972,None,2021-11-12-14:41:54.437615,361.9707335997373,362.280954499729,361.9707335997373,None,None,361.9707335997373,None,362.7832438699901,None,,,,11003,0001,2021_Nov_12_1435,localizer,2021.1.3,59.04892262626157,
block,scenes,scenes075.bmp,,,,,0,200,200,200,,,,,,,,,,,,,,,,,,,,,,,,,,,,,,,,,,,,,,,,,,None,,362.7832438699901,None,362.7832438699901,None,2021-11-12-14:41:55.259262,362.79375830013305,363.09773339983076,362.79375830013305,None,None,362.79375830013305,None,363.5977684702724,None,,,,11003,0001,2021_Nov_12_1435,localizer,2021.1.3,59.04892262626157,
block,scenes,scenes018.bmp,,,,,0,201,201,201,,,,,,,,,,,,,,,,,,,,,,,,,,,,,,,,,,,,,,,,,,None,,363.5977684702724,None,363.5977684702724,None,2021-11-12-14:41:56.070884,363.59865020029247,363.8977961000055,363.59865020029247,None,None,363.59865020029247,None,364.39814337026326,None,,,,11003,0001,2021_Nov_12_1435,localizer,2021.1.3,59.04892262626157,
block,scenes,scenes060.bmp,,,,,0,202,202,202,,,,,,,,,,,,,,,,,,,,,,,,,,,,,,,,,,,,,,,,,,None,,364.39814337026326,None,364.39814337026326,None,2021-11-12-14:41:56.874245,364.4009940000251,364.71485109999776,364.4009940000251,364.4009940000251,None,364.4009940000251,364.4009940000251,365.21473856978116,None,,,,11003,0001,2021_Nov_12_1435,localizer,2021.1.3,59.04892262626157,
block,scenes,scenes037.bmp,,,,,0,203,203,203,,,,,,,,,,,,,,,,,,,,,,,,,,,,,,,,,,,,,,,,,,None,,365.21473856978116,None,365.21473856978116,None,2021-11-12-14:41:57.688846,365.2155662002042,365.51462189946324,365.2155662002042,None,None,365.2155662002042,None,366.0311826696619,None,,,,11003,0001,2021_Nov_12_1435,localizer,2021.1.3,59.04892262626157,
block,scenes,scenes005.bmp,,,,,0,204,204,204,,,,,,,,,,,,,,,,,,,,,,,,,,,,,,,,,,,,,,,,,,None,,366.0311826696619,None,366.0311826696619,None,2021-11-12-14:41:58.504297,366.0673054996878,366.3815137995407,366.0673054996878,None,None,366.0673054996878,None,366.84809046946464,None,,,,11003,0001,2021_Nov_12_1435,localizer,2021.1.3,59.04892262626157,
block,scenes,scenes069.bmp,,,,,0,205,205,205,,,,,,,,,,,,,,,,,,,,,,,,,,,,,,,,,,,,,,,,,,None,,366.84809046946464,None,366.84809046946464,None,2021-11-12-14:41:59.321293,366.8590581994504,367.1642809994519,366.8590581994504,None,None,366.8590581994504,None,367.653373269923,None,,,,11003,0001,2021_Nov_12_1435,localizer,2021.1.3,59.04892262626157,
block,scenes,scenes061.bmp,,,,,0,206,206,206,,,,,,,,,,,,,,,,,,,,,,,,,,,,,,,,,,,,,,,,,,None,,367.653373269923,None,367.653373269923,None,2021-11-12-14:42:00.130476,367.65780290029943,367.9646547995508,367.65780290029943,None,None,367.65780290029943,None,368.46484916992483,None,,,,11003,0001,2021_Nov_12_1435,localizer,2021.1.3,59.04892262626157,
block,scenes,scenes035.bmp,,,,,0,207,207,207,,,,,,,,,,,,,,,,,,,,,,,,,,,,,,,,,,,,,,,,,,None,,368.46484916992483,None,368.46484916992483,None,2021-11-12-14:42:00.938895,368.4654366001487,368.76469870004803,368.4654366001487,None,None,368.4654366001487,None,369.264807870239,None,,,,11003,0001,2021_Nov_12_1435,localizer,2021.1.3,59.04892262626157,
block,scenes,scenes074.bmp,,,,,0,208,208,208,,,,,,,,,,,,,,,,,,,,,,,,,,,,,,,,,,,,,,,,,,None,,369.264807870239,None,369.264807870239,None,2021-11-12-14:42:01.740910,369.26771030016243,369.581461600028,369.26771030016243,369.26771030016243,None,369.26771030016243,369.26771030016243,370.0813921695575,None,,,,11003,0001,2021_Nov_12_1435,localizer,2021.1.3,59.04892262626157,
block,scenes,scenes010.bmp,,,,,0,209,209,209,,,,,,,,,,,,,,,,,,,,,,,,,,,,,,,,,,,,,,,,,,None,,370.0813921695575,None,370.0813921695575,None,2021-11-12-14:42:02.554716,370.0882273996249,370.3976879995316,370.0882273996249,None,None,370.0882273996249,None,370.89788927007464,None,,,,11003,0001,2021_Nov_12_1435,localizer,2021.1.3,59.04892262626157,
block,scenes,scenes039.bmp,,,,,0,210,210,210,,,,,,,,,,,,,,,,,,,,,,,,,,,,,,,,,,,,,,,,,,None,,370.89788927007464,None,370.89788927007464,None,2021-11-12-14:42:03.371008,370.903186599724,371.21472410019487,370.903186599724,None,None,370.903186599724,None,371.7146559698507,None,,,,11003,0001,2021_Nov_12_1435,localizer,2021.1.3,59.04892262626157,
block,scenes,scenes003.bmp,,,,,0,211,211,211,,,,,,,,,,,,,,,,,,,,,,,,,,,,,,,,,,,,,,,,,,None,,371.7146559698507,None,371.7146559698507,None,2021-11-12-14:42:04.187979,371.7214013002813,372.03086799941957,371.7214013002813,None,None,371.7214013002813,None,372.5316159702837,None,,,,11003,0001,2021_Nov_12_1435,localizer,2021.1.3,59.04892262626157,
block_end,scenes,scenes001.bmp,,,,,0,212,212,212,,,,,,,,,,,,,,,,,,,,,,,,,,,,,,,,,,,,,,,,,,None,,372.5316159702837,None,372.5316159702837,None,2021-11-12-14:42:05.005721,372.53818649984896,372.8478287998587,372.53818649984896,None,None,372.53818649984896,None,373.3479130702093,None,,,,11003,0001,2021_Nov_12_1435,localizer,2021.1.3,59.04892262626157,
block_start,scrambled,scrambled041.bmp,,,,,0,213,213,213,,,,,,,,,,,,,,,,,,,,,,,,,,,,,,,,,,,,,,,,,,t,1.772783700376749,373.3478218000382,None,373.3478218000382,None,2021-11-12-14:42:07.622358,375.1506765000522,375.4645758997649,375.1506765000522,None,None,375.1506765000522,None,375.96476616952566,None,,,,11003,0001,2021_Nov_12_1435,localizer,2021.1.3,59.04892262626157,
block,scrambled,scrambled077.bmp,,,,,0,214,214,214,,,,,,,,,,,,,,,,,,,,,,,,,,,,,,,,,,,,,,,,,,None,,375.96476616952566,None,375.96476616952566,None,2021-11-12-14:42:08.437888,375.97021399997175,376.2818267000839,375.97021399997175,None,None,375.97021399997175,None,376.7816480701789,None,,,,11003,0001,2021_Nov_12_1435,localizer,2021.1.3,59.04892262626157,
block,scrambled,scrambled074.bmp,,,,,0,215,215,215,,,,,,,,,,,,,,,,,,,,,,,,,,,,,,,,,,,,,,,,,,None,,376.7816480701789,None,376.7816480701789,None,2021-11-12-14:42:09.255849,376.7823941996321,377.080885999836,376.7823941996321,None,None,376.7823941996321,None,377.59819267001,None,,,,11003,0001,2021_Nov_12_1435,localizer,2021.1.3,59.04892262626157,
block,scrambled,scrambled006.bmp,,,,,0,216,216,216,,,,,,,,,,,,,,,,,,,,,,,,,,,,,,,,,,,,,,,,,,None,,377.59819267001,None,377.59819267001,None,2021-11-12-14:42:10.071508,377.59875959996134,377.8980588996783,377.59875959996134,None,None,377.59875959996134,None,378.3981865696609,None,,,,11003,0001,2021_Nov_12_1435,localizer,2021.1.3,59.04892262626157,
block,scrambled,scrambled060.bmp,,,,,0,217,217,217,,,,,,,,,,,,,,,,,,,,,,,,,,,,,,,,,,,,,,,,,,None,,378.3981865696609,None,378.3981865696609,None,2021-11-12-14:42:10.874476,378.4069186002016,378.7145018996671,378.4069186002016,378.4069186002016,None,378.4069186002016,378.4069186002016,379.21470766942946,None,,,,11003,0001,2021_Nov_12_1435,localizer,2021.1.3,59.04892262626157,
block,scrambled,scrambled045.bmp,,,,,0,218,218,218,,,,,,,,,,,,,,,,,,,,,,,,,,,,,,,,,,,,,,,,,,None,,379.21470766942946,None,379.21470766942946,None,2021-11-12-14:42:11.687820,379.22148059960455,379.5311203999445,379.22148059960455,None,None,379.22148059960455,None,380.03079666998235,None,,,,11003,0001,2021_Nov_12_1435,localizer,2021.1.3,59.04892262626157,
block,scrambled,scrambled067.bmp,,,,,0,219,219,219,,,,,,,,,,,,,,,,,,,,,,,,,,,,,,,,,,,,,,,,,,None,,380.03079666998235,None,380.03079666998235,None,2021-11-12-14:42:12.503968,380.037071400322,380.3478196999058,380.037071400322,None,None,380.037071400322,None,380.8481578702107,None,,,,11003,0001,2021_Nov_12_1435,localizer,2021.1.3,59.04892262626157,
block,scrambled,scrambled015.bmp,,,,,0,220,220,220,,,,,,,,,,,,,,,,,,,,,,,,,,,,,,,,,,,,,,,,,,None,,380.8481578702107,None,380.8481578702107,None,2021-11-12-14:42:13.321488,380.84877669997513,381.1644244994968,380.84877669997513,None,None,380.84877669997513,None,381.6480437699705,None,,,,11003,0001,2021_Nov_12_1435,localizer,2021.1.3,59.04892262626157,
block,scrambled,scrambled085.bmp,,,,,0,221,221,221,,,,,,,,,,,,,,,,,,,,,,,,,,,,,,,,,,,,,,,,,,None,,381.6480437699705,None,381.6480437699705,None,2021-11-12-14:42:14.123209,381.65724929980934,381.9645513994619,381.65724929980934,381.65724929980934,None,381.65724929980934,381.65724929980934,382.4647494699806,None,,,,11003,0001,2021_Nov_12_1435,localizer,2021.1.3,59.04892262626157,
block,scrambled,scrambled016.bmp,,,,,0,222,222,222,,,,,,,,,,,,,,,,,,,,,,,,,,,,,,,,,,,,,,,,,,None,,382.4647494699806,None,382.4647494699806,None,2021-11-12-14:42:14.938073,382.471747700125,382.7809659000486,382.471747700125,None,None,382.471747700125,None,383.2815373694524,None,,,,11003,0001,2021_Nov_12_1435,localizer,2021.1.3,59.04892262626157,
block,scrambled,scrambled054.bmp,,,,,0,223,223,223,,,,,,,,,,,,,,,,,,,,,,,,,,,,,,,,,,,,,,,,,,None,,383.2815373694524,None,383.2815373694524,None,2021-11-12-14:42:15.754668,383.28803689964116,383.59788670018315,383.28803689964116,None,None,383.28803689964116,None,384.0982832700014,None,,,,11003,0001,2021_Nov_12_1435,localizer,2021.1.3,59.04892262626157,
block,scrambled,scrambled082.bmp,,,,,0,224,224,224,,,,,,,,,,,,,,,,,,,,,,,,,,,,,,,,,,,,,,,,,,None,,384.0982832700014,None,384.0982832700014,None,2021-11-12-14:42:16.572435,384.09892929997295,384.39825929980725,384.09892929997295,None,None,384.09892929997295,None,384.89831257015464,None,,,,11003,0001,2021_Nov_12_1435,localizer,2021.1.3,59.04892262626157,
block,scrambled,scrambled010.bmp,,,,,0,225,225,225,,,,,,,,,,,,,,,,,,,,,,,,,,,,,,,,,,,,,,,,,,None,,384.89831257015464,None,384.89831257015464,None,2021-11-12-14:42:17.374414,384.90685319993645,385.21443650033325,384.90685319993645,384.90685319993645,None,384.90685319993645,384.90685319993645,385.71534567009655,None,,,,11003,0001,2021_Nov_12_1435,localizer,2021.1.3,59.04892262626157,
block,scrambled,scrambled076.bmp,,,,,0,226,226,226,,,,,,,,,,,,,,,,,,,,,,,,,,,,,,,,,,,,,,,,,,None,,385.71534567009655,None,385.71534567009655,None,2021-11-12-14:42:18.189446,385.7226432003081,386.03124769963324,385.7226432003081,None,None,385.7226432003081,None,386.5316335694864,None,,,,11003,0001,2021_Nov_12_1435,localizer,2021.1.3,59.04892262626157,
block_end,scrambled,scrambled014.bmp,,,,,0,227,227,227,,,,,,,,,,,,,,,,,,,,,,,,,,,,,,,,,,,,,,,,,,None,,386.5316335694864,None,386.5316335694864,None,2021-11-12-14:42:19.004447,386.5424164002761,386.84803089965135,386.5424164002761,None,None,386.5424164002761,None,387.34829817023126,None,,,,11003,0001,2021_Nov_12_1435,localizer,2021.1.3,59.04892262626157,
null_block,null_block,null_block.bmp,,,,,0,228,228,228,,,,,,,,,,,,,,,,,,,,,,,,,,,,,,,,,,,,,,,,,,t,1.7723801992833614,387.34820130001754,None,387.34820130001754,None,2021-11-12-14:42:21.620164,389.14782366957513,None,389.14782366957513,None,None,389.14782366957513,None,389.1504587996751,None,,,,11003,0001,2021_Nov_12_1435,localizer,2021.1.3,59.04892262626157,
block_start,faces,faces034.bmp,,,,,0,229,229,229,,,,,,,,,,,,,,,,,,,,,,,,,,,,,,,,,,,,,,,,,,t,1.9549227999523282,401.16568619944155,None,401.16568619944155,None,2021-11-12-14:42:35.623367,403.15588460024446,403.4648842997849,403.15588460024446,None,None,403.15588460024446,None,403.9647026700899,None,,,,11003,0001,2021_Nov_12_1435,localizer,2021.1.3,59.04892262626157,
block,faces,faces069.bmp,,,,,0,230,230,230,,,,,,,,,,,,,,,,,,,,,,,,,,,,,,,,,,,,,,,,,,None,,403.9647026700899,None,403.9647026700899,None,2021-11-12-14:42:36.437750,403.96571949962527,404.28139809984714,403.96571949962527,None,None,403.96571949962527,None,404.76499116942284,None,,,,11003,0001,2021_Nov_12_1435,localizer,2021.1.3,59.04892262626157,
block,faces,faces018.bmp,,,,,0,231,231,231,,,,,,,,,,,,,,,,,,,,,,,,,,,,,,,,,,,,,,,,,,None,,404.76499116942284,None,404.76499116942284,None,2021-11-12-14:42:37.240099,404.77272529993206,405.08115269988775,404.77272529993206,404.77272529993206,None,404.77272529993206,404.77272529993206,405.58233807012437,None,,,,11003,0001,2021_Nov_12_1435,localizer,2021.1.3,59.04892262626157,
block,faces,faces027.bmp,,,,,0,232,232,232,,,,,,,,,,,,,,,,,,,,,,,,,,,,,,,,,,,,,,,,,,None,,405.58233807012437,None,405.58233807012437,None,2021-11-12-14:42:38.056569,405.5897790994495,405.8981160996482,405.5897790994495,None,None,405.5897790994495,None,406.39834067001937,None,,,,11003,0001,2021_Nov_12_1435,localizer,2021.1.3,59.04892262626157,
block,faces,faces002.bmp,,,,,0,233,233,233,,,,,,,,,,,,,,,,,,,,,,,,,,,,,,,,,,,,,,,,,,None,,406.39834067001937,None,406.39834067001937,None,2021-11-12-14:42:38.871454,406.40396329946816,406.7148551000282,406.40396329946816,None,None,406.40396329946816,None,407.215698469989,None,,,,11003,0001,2021_Nov_12_1435,localizer,2021.1.3,59.04892262626157,
block,faces,faces086.bmp,,,,,0,234,234,234,,,,,,,,,,,,,,,,,,,,,,,,,,,,,,,,,,,,,,,,,,None,,407.215698469989,None,407.215698469989,None,2021-11-12-14:42:39.690529,407.2183572994545,407.5322850998491,407.2183572994545,None,None,407.2183572994545,None,408.0314095696434,None,,,,11003,0001,2021_Nov_12_1435,localizer,2021.1.3,59.04892262626157,
block,faces,faces047.bmp,,,,,0,235,235,235,,,,,,,,,,,,,,,,,,,,,,,,,,,,,,,,,,,,,,,,,,None,,408.0314095696434,None,408.0314095696434,None,2021-11-12-14:42:40.504525,408.03231200017035,408.33151999954134,408.03231200017035,None,None,408.03231200017035,None,408.8319859696552,None,,,,11003,0001,2021_Nov_12_1435,localizer,2021.1.3,59.04892262626157,
block,faces,faces053.bmp,,,,,0,236,236,236,,,,,,,,,,,,,,,,,,,,,,,,,,,,,,,,,,,,,,,,,,None,,408.8319859696552,None,408.8319859696552,None,2021-11-12-14:42:41.308085,408.8400890994817,409.14814729988575,408.8400890994817,408.8400890994817,None,408.8400890994817,408.8400890994817,409.64860486947,None,,,,11003,0001,2021_Nov_12_1435,localizer,2021.1.3,59.04892262626157,
block,faces,faces082.bmp,,,,,0,237,237,237,,,,,,,,,,,,,,,,,,,,,,,,,,,,,,,,,,,,,,,,,,None,,409.64860486947,None,409.64860486947,None,2021-11-12-14:42:42.123515,409.6559696998447,409.96490919962525,409.6559696998447,None,None,409.6559696998447,None,410.46494416948406,None,,,,11003,0001,2021_Nov_12_1435,localizer,2021.1.3,59.04892262626157,
block,faces,faces065.bmp,,,,,0,238,238,238,,,,,,,,,,,,,,,,,,,,,,,,,,,,,,,,,,,,,,,,,,None,,410.46494416948406,None,410.46494416948406,None,2021-11-12-14:42:42.939053,410.4659081995487,410.76491309981793,410.4659081995487,None,None,410.4659081995487,None,411.26528316978363,None,,,,11003,0001,2021_Nov_12_1435,localizer,2021.1.3,59.04892262626157,
block,faces,faces025.bmp,,,,,0,239,239,239,,,,,,,,,,,,,,,,,,,,,,,,,,,,,,,,,,,,,,,,,,None,,411.26528316978363,None,411.26528316978363,None,2021-11-12-14:42:43.741408,411.2790064997971,411.58195749949664,411.2790064997971,411.2790064997971,None,411.2790064997971,411.2790064997971,412.0820163698867,None,,,,11003,0001,2021_Nov_12_1435,localizer,2021.1.3,59.04892262626157,
block,faces,faces026.bmp,,,,,0,240,240,240,,,,,,,,,,,,,,,,,,,,,,,,,,,,,,,,,,,,,,,,,,None,,412.0820163698867,None,412.0820163698867,None,2021-11-12-14:42:44.556273,412.08996019978076,412.3987020002678,412.08996019978076,None,None,412.08996019978076,None,412.8981326702982,None,,,,11003,0001,2021_Nov_12_1435,localizer,2021.1.3,59.04892262626157,
block,faces,faces033.bmp,,,,,0,241,241,241,,,,,,,,,,,,,,,,,,,,,,,,,,,,,,,,,,,,,,,,,,None,,412.8981326702982,None,412.8981326702982,None,2021-11-12-14:42:45.371243,412.90099519956857,413.21496840007603,412.90099519956857,None,None,412.90099519956857,None,413.7146627694368,None,,,,11003,0001,2021_Nov_12_1435,localizer,2021.1.3,59.04892262626157,
block,faces,faces074.bmp,,,,,0,242,242,242,,,,,,,,,,,,,,,,,,,,,,,,,,,,,,,,,,,,,,,,,,None,,413.7146627694368,None,413.7146627694368,None,2021-11-12-14:42:46.187896,413.7154610995203,414.0146826002747,413.7154610995203,None,None,413.7154610995203,None,414.5151155699044,None,,,,11003,0001,2021_Nov_12_1435,localizer,2021.1.3,59.04892262626157,
block_end,faces,faces013.bmp,,,,,0,243,243,243,,,,,,,,,,,,,,,,,,,,,,,,,,,,,,,,,,,,,,,,,,None,,414.5151155699044,None,414.5151155699044,None,2021-11-12-14:42:46.991424,414.5280893994495,414.8316518999636,414.5280893994495,414.5280893994495,None,414.5280893994495,414.5280893994495,415.3315379699692,None,,,,11003,0001,2021_Nov_12_1435,localizer,2021.1.3,59.04892262626157,
,,,,,,,,,,,,,,,,,,,,,,,,,,,,,,,,,,,,,,,,,,,,,,,,,,,,,,,,,,,,,,,,,,,,,415.33078799955547,None,,,,,,,
