block_type,condition,img_name,Button.thisRepN,Button.thisTrialN,Button.thisN,Button.thisIndex,trials.thisRepN,trials.thisTrialN,trials.thisN,trials.thisIndex,Ready_experimenter_text.started,Ready_experimenter_text.stopped,Ready_experimenter_resp.keys,Ready_experimenter_resp.rt,Ready_experimenter_resp.started,Ready_experimenter_resp.stopped,Alignment_background.started,Alignment_background.stopped,Alignment_image.started,Alignment_image.stopped,Alignment_resp.keys,Alignment_resp.rt,Alignment_resp.started,Alignment_resp.stopped,Button_text.started,Button_text.stopped,Index_text.started,Index_text.stopped,Index_resp.keys,Index_resp.rt,Index_resp.started,Index_resp.stopped,Middle_text.started,Middle_text.stopped,Middle_resp.keys,Middle_resp.rt,Middle_resp.started,Middle_resp.stopped,Repeat_text.started,Repeat_text.stopped,Repeat_resp.keys,Repeat_resp.corr,Repeat_resp.rt,Repeat_resp.started,Repeat_resp.stopped,instruction_text.started,instruction_text.stopped,key_resp.keys,key_resp.rt,key_resp.started,key_resp.stopped,scanner_t.keys,scanner_t.rt,scanner_t.started,scanner_t.stopped,fixation_wait_for_t.started,fixation_wait_for_t.stopped,real_timestamp_trial_start,image.started,image.stopped,fixation.started,fixation.stopped,repeat_response.keys,repeat_response.started,repeat_response.stopped,fixation_null.started,fixation_null.stopped,repeat_response.rt,end_text.started,end_text.stopped,participant,run,date,expName,psychopyVersion,frameRate,
,,,,,,,,,,,12.088186600245535,None,return,73.09076460078359,12.088186600245535,None,,,,,,,,,,,,,,,,,,,,,,,,,,,,,,,,,,,,,,,,,,,,,,,,,,,,,,,11002,0001,2021_Nov_12_0921,localizer,2021.1.3,59.97922298309383,
,,,,,,,,,,,,,,,,,85.2175657004118,None,85.2175657004118,None,return,2.1870691999793053,85.2175657004118,None,,,,,,,,,,,,,,,,,,,,,,,,,,,,,,,,,,,,,,,,,,,,,,,11002,0001,2021_Nov_12_0921,localizer,2021.1.3,59.97922298309383,
,,,0,0,0,0,,,,,,,,,,,,,,,,,,,87.41967959981412,None,88.43057360034436,None,y,3.7129656998440623,88.43057360034436,None,92.1649045003578,None,b,2.8446253994479775,92.1649045003578,None,95.03188209980726,None,n,0,56.24611260090023,95.03188209980726,None,,,,,,,,,,,,,,,,,,,,,,,,,,11002,0001,2021_Nov_12_0921,localizer,2021.1.3,59.97922298309383,
,,,,,,,,,,,,,,,,,,,,,,,,,,,,,,,,,,,,,,,,,,,,,,151.29802149999887,None,y,7.8363367998972535,151.29802149999887,None,,,,,,,,,,,,,,,,,,,,11002,0001,2021_Nov_12_0921,localizer,2021.1.3,59.97922298309383,
block_start,scrambled,scrambled023.bmp,,,,,0,0,0,0,,,,,,,,,,,,,,,,,,,,,,,,,,,,,,,,,,,,,,,,,,t,15.13021899946034,159.2313516996801,None,159.2313516996801,None,2021-11-12-09:24:41.011682,174.3931180005893,174.69799839984626,174.3931180005893,None,None,174.3931180005893,None,175.19829959040507,None,,,,11002,0001,2021_Nov_12_0921,localizer,2021.1.3,59.97922298309383,
block,scrambled,scrambled021.bmp,,,,,0,1,1,1,,,,,,,,,,,,,,,,,,,,,,,,,,,,,,,,,,,,,,,,,,None,,175.19829959040507,None,175.19829959040507,None,2021-11-12-09:24:41.830861,175.21081080008298,175.51518350001425,175.21081080008298,None,None,175.21081080008298,None,176.0152671904303,None,,,,11002,0001,2021_Nov_12_0921,localizer,2021.1.3,59.97922298309383,
block,scrambled,scrambled077.bmp,,,,,0,2,2,2,,,,,,,,,,,,,,,,,,,,,,,,,,,,,,,,,,,,,,,,,,None,,176.0152671904303,None,176.0152671904303,None,2021-11-12-09:24:42.646897,176.0265995003283,176.33183369971812,176.0265995003283,None,None,176.0265995003283,None,176.8328676902689,None,,,,11002,0001,2021_Nov_12_0921,localizer,2021.1.3,59.97922298309383,
block,scrambled,scrambled071.bmp,,,,,0,3,3,3,,,,,,,,,,,,,,,,,,,,,,,,,,,,,,,,,,,,,,,,,,None,,176.8328676902689,None,176.8328676902689,None,2021-11-12-09:24:43.466918,176.845080900006,177.1490826997906,176.845080900006,None,None,176.845080900006,None,177.6493942904286,None,,,,11002,0001,2021_Nov_12_0921,localizer,2021.1.3,59.97922298309383,
block,scrambled,scrambled016.bmp,,,,,0,4,4,4,,,,,,,,,,,,,,,,,,,,,,,,,,,,,,,,,,,,,,,,,,None,,177.6493942904286,None,177.6493942904286,None,2021-11-12-09:24:44.282939,177.66371699981391,177.96525000035763,177.66371699981391,None,None,177.66371699981391,None,178.46504599032923,None,,,,11002,0001,2021_Nov_12_0921,localizer,2021.1.3,59.97922298309383,
block,scrambled,scrambled084.bmp,,,,,0,5,5,5,,,,,,,,,,,,,,,,,,,,,,,,,,,,,,,,,,,,,,,,,,None,,178.46504599032923,None,178.46504599032923,None,2021-11-12-09:24:45.096608,178.47682300023735,178.78168760053813,178.47682300023735,None,None,178.47682300023735,None,179.28214959045872,None,,,,11002,0001,2021_Nov_12_0921,localizer,2021.1.3,59.97922298309383,
block,scrambled,scrambled017.bmp,,,,,0,6,6,6,,,,,,,,,,,,,,,,,,,,,,,,,,,,,,,,,,,,,,,,,,None,,179.28214959045872,None,179.28214959045872,None,2021-11-12-09:24:45.914794,179.29266479983926,179.59841850027442,179.29266479983926,None,None,179.29266479983926,None,180.09854228971525,None,,,,11002,0001,2021_Nov_12_0921,localizer,2021.1.3,59.97922298309383,
block,scrambled,scrambled042.bmp,,,,,0,7,7,7,,,,,,,,,,,,,,,,,,,,,,,,,,,,,,,,,,,,,,,,,,None,,180.09854228971525,None,180.09854228971525,None,2021-11-12-09:24:46.730109,180.1082835001871,180.41514740046114,180.1082835001871,None,None,180.1082835001871,None,180.9155687903054,None,,,,11002,0001,2021_Nov_12_0921,localizer,2021.1.3,59.97922298309383,
block,scrambled,scrambled004.bmp,,,,,0,8,8,8,,,,,,,,,,,,,,,,,,,,,,,,,,,,,,,,,,,,,,,,,,None,,180.9155687903054,None,180.9155687903054,None,2021-11-12-09:24:47.547154,180.92320520058274,181.2314218999818,180.92320520058274,None,None,180.92320520058274,None,181.7316441898234,None,,,,11002,0001,2021_Nov_12_0921,localizer,2021.1.3,59.97922298309383,
block,scrambled,scrambled038.bmp,,,,,0,9,9,9,,,,,,,,,,,,,,,,,,,,,,,,,,,,,,,,,,,,,,,,,,None,,181.7316441898234,None,181.7316441898234,None,2021-11-12-09:24:48.363248,181.74254589993507,182.04843549989164,181.74254589993507,None,None,181.74254589993507,None,182.54841318996623,None,,,,11002,0001,2021_Nov_12_0921,localizer,2021.1.3,59.97922298309383,
block,scrambled,scrambled031.bmp,,,,,0,10,10,10,,,,,,,,,,,,,,,,,,,,,,,,,,,,,,,,,,,,,,,,,,None,,182.54841318996623,None,182.54841318996623,None,2021-11-12-09:24:49.180024,182.55840010009706,182.86517070047557,182.55840010009706,None,None,182.55840010009706,None,183.36503048976883,None,,,,11002,0001,2021_Nov_12_0921,localizer,2021.1.3,59.97922298309383,
block,scrambled,scrambled060.bmp,,,,,0,11,11,11,,,,,,,,,,,,,,,,,,,,,,,,,,,,,,,,,,,,,,,,,,None,,183.36503048976883,None,183.36503048976883,None,2021-11-12-09:24:49.996684,183.37459279969335,183.68175160046667,183.37459279969335,None,None,183.37459279969335,None,184.18203018968924,None,,,,11002,0001,2021_Nov_12_0921,localizer,2021.1.3,59.97922298309383,
block,scrambled,scrambled080.bmp,,,,,0,12,12,12,,,,,,,,,,,,,,,,,,,,,,,,,,,,,,,,,,,,,,,,,,None,,184.18203018968924,None,184.18203018968924,None,2021-11-12-09:24:50.814677,184.19270229991525,184.49825489986688,184.19270229991525,None,None,184.19270229991525,None,184.99844099013134,None,,,,11002,0001,2021_Nov_12_0921,localizer,2021.1.3,59.97922298309383,
block,scrambled,scrambled018.bmp,,,,,0,13,13,13,,,,,,,,,,,,,,,,,,,,,,,,,,,,,,,,,,,,,,,,,,None,,184.99844099013134,None,184.99844099013134,None,2021-11-12-09:24:51.630702,185.00813379976898,185.31496699992567,185.00813379976898,None,None,185.00813379976898,None,185.81529108984395,None,,,,11002,0001,2021_Nov_12_0921,localizer,2021.1.3,59.97922298309383,
block_end,scrambled,scrambled036.bmp,,,,,0,14,14,14,,,,,,,,,,,,,,,,,,,,,,,,,,,,,,,,,,,,,,,,,,None,,185.81529108984395,None,185.81529108984395,None,2021-11-12-09:24:52.447211,185.82626280002296,186.13170980010182,185.82626280002296,None,None,185.82626280002296,None,186.63203459037467,None,,,,11002,0001,2021_Nov_12_0921,localizer,2021.1.3,59.97922298309383,
block_start,faces,faces058.bmp,,,,,0,15,15,15,,,,,,,,,,,,,,,,,,,,,,,,,,,,,,,,,,,,,,,,,,t,1.7297627003863454,186.63193560019135,None,186.63193560019135,None,2021-11-12-09:24:55.016748,188.39580649975687,188.69819859974086,188.39580649975687,None,None,188.39580649975687,None,189.19844589000567,None,,,,11002,0001,2021_Nov_12_0921,localizer,2021.1.3,59.97922298309383,
block,faces,faces059.bmp,,,,,0,16,16,16,,,,,,,,,,,,,,,,,,,,,,,,,,,,,,,,,,,,,,,,,,None,,189.19844589000567,None,189.19844589000567,None,2021-11-12-09:24:55.830258,189.20860149990767,189.51489720027894,189.20860149990767,None,None,189.20860149990767,None,190.01533418977633,None,,,,11002,0001,2021_Nov_12_0921,localizer,2021.1.3,59.97922298309383,
block,faces,faces001.bmp,,,,,0,17,17,17,,,,,,,,,,,,,,,,,,,,,,,,,,,,,,,,,,,,,,,,,,None,,190.01533418977633,None,190.01533418977633,None,2021-11-12-09:24:56.648168,190.02763990033418,190.33157640043646,190.02763990033418,None,None,190.02763990033418,None,190.83160668974742,None,,,,11002,0001,2021_Nov_12_0921,localizer,2021.1.3,59.97922298309383,
block,faces,faces010.bmp,,,,,0,18,18,18,,,,,,,,,,,,,,,,,,,,,,,,,,,,,,,,,,,,,,,,,,None,,190.83160668974742,None,190.83160668974742,None,2021-11-12-09:24:57.463475,190.84138999972492,191.14821740053594,190.84138999972492,None,None,190.84138999972492,None,191.64838398983701,None,,,,11002,0001,2021_Nov_12_0921,localizer,2021.1.3,59.97922298309383,
block,faces,faces015.bmp,,,,,0,19,19,19,,,,,,,,,,,,,,,,,,,,,,,,,,,,,,,,,,,,,,,,,,None,,191.64838398983701,None,191.64838398983701,None,2021-11-12-09:24:58.280272,191.6569803999737,191.96508689969778,191.6569803999737,None,None,191.6569803999737,None,192.46518979026004,None,,,,11002,0001,2021_Nov_12_0921,localizer,2021.1.3,59.97922298309383,
block,faces,faces017.bmp,,,,,0,20,20,20,,,,,,,,,,,,,,,,,,,,,,,,,,,,,,,,,,,,,,,,,,None,,192.46518979026004,None,192.46518979026004,None,2021-11-12-09:24:59.098298,192.4768634000793,192.78150040004402,192.4768634000793,None,None,192.4768634000793,None,193.28168829055502,None,,,,11002,0001,2021_Nov_12_0921,localizer,2021.1.3,59.97922298309383,
block,faces,faces089.bmp,,,,,0,21,21,21,,,,,,,,,,,,,,,,,,,,,,,,,,,,,,,,,,,,,,,,,,None,,193.28168829055502,None,193.28168829055502,None,2021-11-12-09:24:59.913743,193.29259730037302,193.5987903000787,193.29259730037302,None,None,193.29259730037302,None,194.0996313904412,None,,,,11002,0001,2021_Nov_12_0921,localizer,2021.1.3,59.97922298309383,
block,faces,faces037.bmp,,,,,0,22,22,22,,,,,,,,,,,,,,,,,,,,,,,,,,,,,,,,,,,,,,,,,,None,,194.0996313904412,None,194.0996313904412,None,2021-11-12-09:25:00.734223,194.11515189986676,194.41610690020025,194.11515189986676,None,None,194.11515189986676,None,194.91629768991842,None,,,,11002,0001,2021_Nov_12_0921,localizer,2021.1.3,59.97922298309383,
block,faces,faces012.bmp,,,,,0,23,23,23,,,,,,,,,,,,,,,,,,,,,,,,,,,,,,,,,,,,,,,,,,None,,194.91629768991842,None,194.91629768991842,None,2021-11-12-09:25:01.551220,194.93232520017773,195.23225400038064,194.93232520017773,None,None,194.93232520017773,None,195.7324262903072,None,,,,11002,0001,2021_Nov_12_0921,localizer,2021.1.3,59.97922298309383,
block,faces,faces002.bmp,,,,,0,24,24,24,,,,,,,,,,,,,,,,,,,,,,,,,,,,,,,,,,,,,,,,,,None,,195.7324262903072,None,195.7324262903072,None,2021-11-12-09:25:02.365607,195.74719289969653,196.04888070002198,195.74719289969653,None,None,195.74719289969653,None,196.54899709010496,None,,,,11002,0001,2021_Nov_12_0921,localizer,2021.1.3,59.97922298309383,
block,faces,faces063.bmp,,,,,0,25,25,25,,,,,,,,,,,,,,,,,,,,,,,,,,,,,,,,,,,,,,,,,,None,,196.54899709010496,None,196.54899709010496,None,2021-11-12-09:25:03.182132,196.56064349971712,196.86496159993112,196.56064349971712,None,None,196.56064349971712,None,197.3649717903696,None,,,,11002,0001,2021_Nov_12_0921,localizer,2021.1.3,59.97922298309383,
block,faces,faces007.bmp,,,,,0,26,26,26,,,,,,,,,,,,,,,,,,,,,,,,,,,,,,,,,,,,,,,,,,None,,197.3649717903696,None,197.3649717903696,None,2021-11-12-09:25:03.997025,197.3713966999203,197.6815574001521,197.3713966999203,None,None,197.3713966999203,None,198.18202769001945,None,,,,11002,0001,2021_Nov_12_0921,localizer,2021.1.3,59.97922298309383,
block,faces,faces014.bmp,,,,,0,27,27,27,,,,,,,,,,,,,,,,,,,,,,,,,,,,,,,,,,,,,,,,,,None,,198.18202769001945,None,198.18202769001945,None,2021-11-12-09:25:04.814296,198.19262779969722,198.49848259985447,198.19262779969722,None,None,198.19262779969722,None,198.99839508989825,None,,,,11002,0001,2021_Nov_12_0921,localizer,2021.1.3,59.97922298309383,
block,faces,faces038.bmp,,,,,0,28,28,28,,,,,,,,,,,,,,,,,,,,,,,,,,,,,,,,,,,,,,,,,,None,,198.99839508989825,None,198.99839508989825,None,2021-11-12-09:25:05.630356,199.01475550048053,199.31486480031163,199.01475550048053,None,None,199.01475550048053,None,199.81533299004658,None,,,,11002,0001,2021_Nov_12_0921,localizer,2021.1.3,59.97922298309383,
block_end,faces,faces087.bmp,,,,,0,29,29,29,,,,,,,,,,,,,,,,,,,,,,,,,,,,,,,,,,,,,,,,,,None,,199.81533299004658,None,199.81533299004658,None,2021-11-12-09:25:06.447315,199.8212326001376,200.13085880037397,199.8212326001376,None,None,199.8212326001376,None,200.63178369021043,None,,,,11002,0001,2021_Nov_12_0921,localizer,2021.1.3,59.97922298309383,
block_start,scenes,scenes068.bmp,,,,,0,30,30,30,,,,,,,,,,,,,,,,,,,,,,,,,,,,,,,,,,,,,,,,,,t,1.7299776002764702,200.6314668999985,None,200.6314668999985,None,2021-11-12-09:25:09.013568,202.39170849975199,202.69818350020796,202.39170849975199,None,None,202.39170849975199,None,203.19839799022301,None,,,,11002,0001,2021_Nov_12_0921,localizer,2021.1.3,59.97922298309383,
block,scenes,scenes071.bmp,,,,,0,31,31,31,,,,,,,,,,,,,,,,,,,,,,,,,,,,,,,,,,,,,,,,,,None,,203.19839799022301,None,203.19839799022301,None,2021-11-12-09:25:09.830754,203.20816719997674,203.51521959993988,203.20816719997674,None,None,203.20816719997674,None,204.015091289673,None,,,,11002,0001,2021_Nov_12_0921,localizer,2021.1.3,59.97922298309383,
block,scenes,scenes007.bmp,,,,,0,32,32,32,,,,,,,,,,,,,,,,,,,,,,,,,,,,,,,,,,,,,,,,,,None,,204.015091289673,None,204.015091289673,None,2021-11-12-09:25:10.647336,204.02870339993387,204.33171419985592,204.02870339993387,None,None,204.02870339993387,None,204.8317068898119,None,,,,11002,0001,2021_Nov_12_0921,localizer,2021.1.3,59.97922298309383,
block,scenes,scenes074.bmp,,,,,0,33,33,33,,,,,,,,,,,,,,,,,,,,,,,,,,,,,,,,,,,,,,,,,,None,,204.8317068898119,None,204.8317068898119,None,2021-11-12-09:25:11.464265,204.84004619996995,205.1484094997868,204.84004619996995,None,None,204.84004619996995,None,205.6484624900855,None,,,,11002,0001,2021_Nov_12_0921,localizer,2021.1.3,59.97922298309383,
block,scenes,scenes001.bmp,,,,,0,34,34,34,,,,,,,,,,,,,,,,,,,,,,,,,,,,,,,,,,,,,,,,,,None,,205.6484624900855,None,205.6484624900855,None,2021-11-12-09:25:12.280752,205.65846080053598,205.9647359997034,205.65846080053598,None,None,205.65846080053598,None,206.4652864904143,None,,,,11002,0001,2021_Nov_12_0921,localizer,2021.1.3,59.97922298309383,
block,scenes,scenes057.bmp,,,,,0,35,35,35,,,,,,,,,,,,,,,,,,,,,,,,,,,,,,,,,,,,,,,,,,None,,206.4652864904143,None,206.4652864904143,None,2021-11-12-09:25:13.097816,206.4750439999625,206.78165050037205,206.4750439999625,None,None,206.4750439999625,None,207.2815687897615,None,,,,11002,0001,2021_Nov_12_0921,localizer,2021.1.3,59.97922298309383,
block,scenes,scenes004.bmp,,,,,0,36,36,36,,,,,,,,,,,,,,,,,,,,,,,,,,,,,,,,,,,,,,,,,,None,,207.2815687897615,None,207.2815687897615,None,2021-11-12-09:25:13.913912,207.29074910003692,207.59837940055877,207.29074910003692,None,None,207.29074910003692,None,208.0992932905443,None,,,,11002,0001,2021_Nov_12_0921,localizer,2021.1.3,59.97922298309383,
block,scenes,scenes027.bmp,,,,,0,37,37,37,,,,,,,,,,,,,,,,,,,,,,,,,,,,,,,,,,,,,,,,,,None,,208.0992932905443,None,208.0992932905443,None,2021-11-12-09:25:14.732879,208.11182519979775,208.41502839978784,208.11182519979775,None,None,208.11182519979775,None,208.9149825897999,None,,,,11002,0001,2021_Nov_12_0921,localizer,2021.1.3,59.97922298309383,
block,scenes,scenes014.bmp,,,,,0,38,38,38,,,,,,,,,,,,,,,,,,,,,,,,,,,,,,,,,,,,,,,,,,None,,208.9149825897999,None,208.9149825897999,None,2021-11-12-09:25:15.547373,208.9245143001899,209.23151540011168,208.9245143001899,None,None,208.9245143001899,None,209.7318797902204,None,,,,11002,0001,2021_Nov_12_0921,localizer,2021.1.3,59.97922298309383,
block,scenes,scenes063.bmp,,,,,0,39,39,39,,,,,,,,,,,,,,,,,,,,,,,,,,,,,,,,,,,,,,,,,,None,,209.7318797902204,None,209.7318797902204,None,2021-11-12-09:25:16.364287,209.7434219000861,210.04836270026863,209.7434219000861,None,None,209.7434219000861,None,210.54880768982693,None,,,,11002,0001,2021_Nov_12_0921,localizer,2021.1.3,59.97922298309383,
block,scenes,scenes029.bmp,,,,,0,40,40,40,,,,,,,,,,,,,,,,,,,,,,,,,,,,,,,,,,,,,,,,,,None,,210.54880768982693,None,210.54880768982693,None,2021-11-12-09:25:17.181434,210.5595535999164,210.86501609999686,210.5595535999164,None,None,210.5595535999164,None,211.36646899012848,None,,,,11002,0001,2021_Nov_12_0921,localizer,2021.1.3,59.97922298309383,
block,scenes,scenes044.bmp,,,,,0,41,41,41,,,,,,,,,,,,,,,,,,,,,,,,,,,,,,,,,,,,,,,,,,None,,211.36646899012848,None,211.36646899012848,None,2021-11-12-09:25:18.001990,211.38204259984195,211.68143100012094,211.38204259984195,None,None,211.38204259984195,None,212.18183699054643,None,,,,11002,0001,2021_Nov_12_0921,localizer,2021.1.3,59.97922298309383,
block,scenes,scenes065.bmp,,,,,0,42,42,42,,,,,,,,,,,,,,,,,,,,,,,,,,,,,,,,,,,,,,,,,,None,,212.18183699054643,None,212.18183699054643,None,2021-11-12-09:25:18.814321,212.1909963004291,212.4981442000717,212.1909963004291,None,None,212.1909963004291,None,212.9988021905534,None,,,,11002,0001,2021_Nov_12_0921,localizer,2021.1.3,59.97922298309383,
block,scenes,scenes011.bmp,,,,,0,43,43,43,,,,,,,,,,,,,,,,,,,,,,,,,,,,,,,,,,,,,,,,,,None,,212.9988021905534,None,212.9988021905534,None,2021-11-12-09:25:19.632640,213.00957330036908,213.31510869972408,213.00957330036908,None,None,213.00957330036908,None,213.81505169058218,None,,,,11002,0001,2021_Nov_12_0921,localizer,2021.1.3,59.97922298309383,
block_end,scenes,scenes022.bmp,,,,,0,44,44,44,,,,,,,,,,,,,,,,,,,,,,,,,,,,,,,,,,,,,,,,,,None,,213.81505169058218,None,213.81505169058218,None,2021-11-12-09:25:20.447778,213.82604170031846,214.13141799997538,213.82604170031846,None,None,213.82604170031846,None,214.63231689007952,None,,,,11002,0001,2021_Nov_12_0921,localizer,2021.1.3,59.97922298309383,
block_start,objects,objects032.bmp,,,,,0,45,45,45,,,,,,,,,,,,,,,,,,,,,,,,,,,,,,,,,,,,,,,,,,t,1.729148699901998,214.63220170047134,None,214.63220170047134,None,2021-11-12-09:25:23.015216,216.3930825004354,216.6984628001228,216.3930825004354,None,None,216.3930825004354,None,217.1984626901336,None,,,,11002,0001,2021_Nov_12_0921,localizer,2021.1.3,59.97922298309383,
block,objects,objects032.bmp,,,,,0,46,46,46,,,,,,,,,,,,,,,,,,,,,,,,,,,,,,,,,,,,,,,,,,None,,217.1984626901336,None,217.1984626901336,None,2021-11-12-09:25:23.831085,217.19925110042095,217.49852420017123,217.19925110042095,None,y,217.19925110042095,None,218.00071188984438,None,0.5959107996895909,,,11002,0001,2021_Nov_12_0921,localizer,2021.1.3,59.97922298309383,
block,objects,objects073.bmp,,,,,0,47,47,47,,,,,,,,,,,,,,,,,,,,,,,,,,,,,,,,,,,,,,,,,,None,,218.00071188984438,None,218.00071188984438,None,2021-11-12-09:25:24.639253,218.02186600025743,218.33301310054958,218.02186600025743,218.02186600025743,None,218.02186600025743,218.02186600025743,218.81580409025773,None,,,,11002,0001,2021_Nov_12_0921,localizer,2021.1.3,59.97922298309383,
block,objects,objects014.bmp,,,,,0,48,48,48,,,,,,,,,,,,,,,,,,,,,,,,,,,,,,,,,,,,,,,,,,None,,218.81580409025773,None,218.81580409025773,None,2021-11-12-09:25:25.449631,218.82718009967357,219.1317912004888,218.82718009967357,None,None,218.82718009967357,None,219.63199269017204,None,,,,11002,0001,2021_Nov_12_0921,localizer,2021.1.3,59.97922298309383,
block,objects,objects021.bmp,,,,,0,49,49,49,,,,,,,,,,,,,,,,,,,,,,,,,,,,,,,,,,,,,,,,,,None,,219.63199269017204,None,219.63199269017204,None,2021-11-12-09:25:26.264682,219.64129639975727,219.94833040051162,219.64129639975727,None,None,219.64129639975727,None,220.44911479009315,None,,,,11002,0001,2021_Nov_12_0921,localizer,2021.1.3,59.97922298309383,
block,objects,objects072.bmp,,,,,0,50,50,50,,,,,,,,,,,,,,,,,,,,,,,,,,,,,,,,,,,,,,,,,,None,,220.44911479009315,None,220.44911479009315,None,2021-11-12-09:25:27.082817,220.4608196998015,220.76507350057364,220.4608196998015,None,None,220.4608196998015,None,221.26499238973483,None,,,,11002,0001,2021_Nov_12_0921,localizer,2021.1.3,59.97922298309383,
block,objects,objects006.bmp,,,,,0,51,51,51,,,,,,,,,,,,,,,,,,,,,,,,,,,,,,,,,,,,,,,,,,None,,221.26499238973483,None,221.26499238973483,None,2021-11-12-09:25:27.897737,221.27353589981794,221.5817951001227,221.27353589981794,None,None,221.27353589981794,None,222.08197769047692,None,,,,11002,0001,2021_Nov_12_0921,localizer,2021.1.3,59.97922298309383,
block,objects,objects044.bmp,,,,,0,52,52,52,,,,,,,,,,,,,,,,,,,,,,,,,,,,,,,,,,,,,,,,,,None,,222.08197769047692,None,222.08197769047692,None,2021-11-12-09:25:28.714847,222.0922427996993,222.39836889971048,222.0922427996993,None,None,222.0922427996993,None,222.8987382900901,None,,,,11002,0001,2021_Nov_12_0921,localizer,2021.1.3,59.97922298309383,
block,objects,objects036.bmp,,,,,0,53,53,53,,,,,,,,,,,,,,,,,,,,,,,,,,,,,,,,,,,,,,,,,,None,,222.8987382900901,None,222.8987382900901,None,2021-11-12-09:25:29.532560,222.90960029978305,223.21539629995823,222.90960029978305,None,None,222.90960029978305,None,223.71589568993076,None,,,,11002,0001,2021_Nov_12_0921,localizer,2021.1.3,59.97922298309383,
block,objects,objects085.bmp,,,,,0,54,54,54,,,,,,,,,,,,,,,,,,,,,,,,,,,,,,,,,,,,,,,,,,None,,223.71589568993076,None,223.71589568993076,None,2021-11-12-09:25:30.349692,223.72738600056618,224.031743099913,223.72738600056618,None,None,223.72738600056618,None,224.53230748968198,None,,,,11002,0001,2021_Nov_12_0921,localizer,2021.1.3,59.97922298309383,
block,objects,objects018.bmp,,,,,0,55,55,55,,,,,,,,,,,,,,,,,,,,,,,,,,,,,,,,,,,,,,,,,,None,,224.53230748968198,None,224.53230748968198,None,2021-11-12-09:25:31.166157,224.54417170025408,224.8484017001465,224.54417170025408,None,None,224.54417170025408,None,225.34826819030567,None,,,,11002,0001,2021_Nov_12_0921,localizer,2021.1.3,59.97922298309383,
block,objects,objects002.bmp,,,,,0,56,56,56,,,,,,,,,,,,,,,,,,,,,,,,,,,,,,,,,,,,,,,,,,None,,225.34826819030567,None,225.34826819030567,None,2021-11-12-09:25:31.981126,225.3567249001935,225.66516450047493,225.3567249001935,None,None,225.3567249001935,None,226.16515059014782,None,,,,11002,0001,2021_Nov_12_0921,localizer,2021.1.3,59.97922298309383,
block,objects,objects048.bmp,,,,,0,57,57,57,,,,,,,,,,,,,,,,,,,,,,,,,,,,,,,,,,,,,,,,,,None,,226.16515059014782,None,226.16515059014782,None,2021-11-12-09:25:32.798029,226.1743838004768,226.48218759987503,226.1743838004768,None,None,226.1743838004768,None,226.9818429899402,None,,,,11002,0001,2021_Nov_12_0921,localizer,2021.1.3,59.97922298309383,
block,objects,objects030.bmp,,,,,0,58,58,58,,,,,,,,,,,,,,,,,,,,,,,,,,,,,,,,,,,,,,,,,,None,,226.9818429899402,None,226.9818429899402,None,2021-11-12-09:25:33.614744,226.99106280039996,227.29852909967303,226.99106280039996,None,None,226.99106280039996,None,227.79846659014,None,,,,11002,0001,2021_Nov_12_0921,localizer,2021.1.3,59.97922298309383,
block_end,objects,objects062.bmp,,,,,0,59,59,59,,,,,,,,,,,,,,,,,,,,,,,,,,,,,,,,,,,,,,,,,,None,,227.79846659014,None,227.79846659014,None,2021-11-12-09:25:34.431395,227.80660810042173,228.11525200027972,227.80660810042173,None,None,227.80660810042173,None,228.6151928900741,None,,,,11002,0001,2021_Nov_12_0921,localizer,2021.1.3,59.97922298309383,
null_block,null_block,null_block.bmp,,,,,0,60,60,60,,,,,,,,,,,,,,,,,,,,,,,,,,,,,,,,,,,,,,,,,,t,1.74649260006845,228.61501719988883,None,228.61501719988883,None,2021-11-12-09:25:37.020023,230.40083407964556,None,230.40083407964556,None,None,230.40083407964556,None,230.39976819977164,None,,,,11002,0001,2021_Nov_12_0921,localizer,2021.1.3,59.97922298309383,
block_start,scenes,scenes001.bmp,,,,,0,61,61,61,,,,,,,,,,,,,,,,,,,,,,,,,,,,,,,,,,,,,,,,,,t,1.9626519996672869,242.3987475000322,None,242.3987475000322,None,2021-11-12-09:25:51.017177,244.38335380051285,244.6982092000544,244.38335380051285,None,None,244.38335380051285,None,245.18310329029336,None,,,,11002,0001,2021_Nov_12_0921,localizer,2021.1.3,59.97922298309383,
block,scenes,scenes090.bmp,,,,,0,62,62,62,,,,,,,,,,,,,,,,,,,,,,,,,,,,,,,,,,,,,,,,,,None,,245.18310329029336,None,245.18310329029336,None,2021-11-12-09:25:51.821650,245.22141440026462,245.53181149996817,245.22141440026462,245.22141440026462,None,245.22141440026462,245.22141440026462,245.99852989045903,None,,,,11002,0001,2021_Nov_12_0921,localizer,2021.1.3,59.97922298309383,
block,scenes,scenes037.bmp,,,,,0,63,63,63,,,,,,,,,,,,,,,,,,,,,,,,,,,,,,,,,,,,,,,,,,None,,245.99852989045903,None,245.99852989045903,None,2021-11-12-09:25:52.631977,246.00782989989966,246.3152270996943,246.00782989989966,None,None,246.00782989989966,None,246.8152761905454,None,,,,11002,0001,2021_Nov_12_0921,localizer,2021.1.3,59.97922298309383,
block,scenes,scenes037.bmp,,,,,0,64,64,64,,,,,,,,,,,,,,,,,,,,,,,,,,,,,,,,,,,,,,,,,,None,,246.8152761905454,None,246.8152761905454,None,2021-11-12-09:25:53.448978,246.8161458997056,247.11581410001963,246.8161458997056,None,y,246.8161458997056,None,247.61561838993802,None,0.6511346995830536,,,11002,0001,2021_Nov_12_0921,localizer,2021.1.3,59.97922298309383,
block,scenes,scenes052.bmp,,,,,0,65,65,65,,,,,,,,,,,,,,,,,,,,,,,,,,,,,,,,,,,,,,,,,,None,,247.61561838993802,None,247.61561838993802,None,2021-11-12-09:25:54.252099,247.62949720025063,247.9322587000206,247.62949720025063,247.62949720025063,None,247.62949720025063,247.62949720025063,248.43262398978695,None,,,,11002,0001,2021_Nov_12_0921,localizer,2021.1.3,59.97922298309383,
block,scenes,scenes033.bmp,,,,,0,66,66,66,,,,,,,,,,,,,,,,,,,,,,,,,,,,,,,,,,,,,,,,,,None,,248.43262398978695,None,248.43262398978695,None,2021-11-12-09:25:55.067128,248.44430490024388,248.7482837997377,248.44430490024388,None,None,248.44430490024388,None,249.2486472901888,None,,,,11002,0001,2021_Nov_12_0921,localizer,2021.1.3,59.97922298309383,
block,scenes,scenes076.bmp,,,,,0,67,67,67,,,,,,,,,,,,,,,,,,,,,,,,,,,,,,,,,,,,,,,,,,None,,249.2486472901888,None,249.2486472901888,None,2021-11-12-09:25:55.882189,249.2583068003878,249.56527900043875,249.2583068003878,None,None,249.2583068003878,None,250.065313390363,None,,,,11002,0001,2021_Nov_12_0921,localizer,2021.1.3,59.97922298309383,
block,scenes,scenes084.bmp,,,,,0,68,68,68,,,,,,,,,,,,,,,,,,,,,,,,,,,,,,,,,,,,,,,,,,None,,250.065313390363,None,250.065313390363,None,2021-11-12-09:25:56.698880,250.07457119971514,250.3816266003996,250.07457119971514,None,None,250.07457119971514,None,250.88204488987103,None,,,,11002,0001,2021_Nov_12_0921,localizer,2021.1.3,59.97922298309383,
block,scenes,scenes039.bmp,,,,,0,69,69,69,,,,,,,,,,,,,,,,,,,,,,,,,,,,,,,,,,,,,,,,,,None,,250.88204488987103,None,250.88204488987103,None,2021-11-12-09:25:57.515633,250.89216430019587,251.19876470044255,250.89216430019587,None,None,250.89216430019587,None,251.698742690403,None,,,,11002,0001,2021_Nov_12_0921,localizer,2021.1.3,59.97922298309383,
block,scenes,scenes079.bmp,,,,,0,70,70,70,,,,,,,,,,,,,,,,,,,,,,,,,,,,,,,,,,,,,,,,,,None,,251.698742690403,None,251.698742690403,None,2021-11-12-09:25:58.332578,251.70871379971504,252.01587649993598,251.70871379971504,None,None,251.70871379971504,None,252.50507919015362,None,,,,11002,0001,2021_Nov_12_0921,localizer,2021.1.3,59.97922298309383,
block,scenes,scenes058.bmp,,,,,0,71,71,71,,,,,,,,,,,,,,,,,,,,,,,,,,,,,,,,,,,,,,,,,,None,,252.50507919015362,None,252.50507919015362,None,2021-11-12-09:25:59.147588,252.5277749998495,252.83182330057025,252.5277749998495,None,None,252.5277749998495,None,253.31597169013693,None,,,,11002,0001,2021_Nov_12_0921,localizer,2021.1.3,59.97922298309383,
block,scenes,scenes092.bmp,,,,,0,72,72,72,,,,,,,,,,,,,,,,,,,,,,,,,,,,,,,,,,,,,,,,,,None,,253.31597169013693,None,253.31597169013693,None,2021-11-12-09:25:59.950650,253.32764840032905,253.63184939976782,253.32764840032905,None,None,253.32764840032905,None,254.13211099049076,None,,,,11002,0001,2021_Nov_12_0921,localizer,2021.1.3,59.97922298309383,
block,scenes,scenes007.bmp,,,,,0,73,73,73,,,,,,,,,,,,,,,,,,,,,,,,,,,,,,,,,,,,,,,,,,None,,254.13211099049076,None,254.13211099049076,None,2021-11-12-09:26:00.765791,254.1329207997769,254.44850890059024,254.1329207997769,None,None,254.1329207997769,None,254.93200669055804,None,,,,11002,0001,2021_Nov_12_0921,localizer,2021.1.3,59.97922298309383,
block,scenes,scenes021.bmp,,,,,0,74,74,74,,,,,,,,,,,,,,,,,,,,,,,,,,,,,,,,,,,,,,,,,,None,,254.93200669055804,None,254.93200669055804,None,2021-11-12-09:26:01.566709,254.9430368002504,255.24864370003343,254.9430368002504,254.9430368002504,None,254.9430368002504,254.9430368002504,255.748817690555,None,,,,11002,0001,2021_Nov_12_0921,localizer,2021.1.3,59.97922298309383,
block_end,scenes,scenes086.bmp,,,,,0,75,75,75,,,,,,,,,,,,,,,,,,,,,,,,,,,,,,,,,,,,,,,,,,None,,255.748817690555,None,255.748817690555,None,2021-11-12-09:26:02.382546,255.75873749982566,256.06523690000176,255.75873749982566,None,None,255.75873749982566,None,256.5654134898447,None,,,,11002,0001,2021_Nov_12_0921,localizer,2021.1.3,59.97922298309383,
null_block,null_block,null_block.bmp,,,,,0,76,76,76,,,,,,,,,,,,,,,,,,,,,,,,,,,,,,,,,,,,,,,,,,t,1.7961056996136904,256.5652759000659,None,256.5652759000659,None,2021-11-12-09:26:05.014762,258.3819539899938,None,258.3819539899938,None,None,258.3819539899938,None,258.38428479991853,None,,,,11002,0001,2021_Nov_12_0921,localizer,2021.1.3,59.97922298309383,
block_start,scrambled,scrambled037.bmp,,,,,0,77,77,77,,,,,,,,,,,,,,,,,,,,,,,,,,,,,,,,,,,,,,,,,,t,1.9629215998575091,270.39834120031446,None,270.39834120031446,None,2021-11-12-09:26:19.021871,272.3979230998084,272.6990470997989,272.3979230998084,None,None,272.3979230998084,None,273.19948738990354,None,,,,11002,0001,2021_Nov_12_0921,localizer,2021.1.3,59.97922298309383,
block,scrambled,scrambled029.bmp,,,,,0,78,78,78,,,,,,,,,,,,,,,,,,,,,,,,,,,,,,,,,,,,,,,,,,None,,273.19948738990354,None,273.19948738990354,None,2021-11-12-09:26:19.834709,273.211097500287,273.51528550032526,273.211097500287,None,None,273.211097500287,None,274.015454689879,None,,,,11002,0001,2021_Nov_12_0921,localizer,2021.1.3,59.97922298309383,
block,scrambled,scrambled077.bmp,,,,,0,79,79,79,,,,,,,,,,,,,,,,,,,,,,,,,,,,,,,,,,,,,,,,,,None,,274.015454689879,None,274.015454689879,None,2021-11-12-09:26:20.649706,274.0164253003895,274.331959400326,274.0164253003895,None,None,274.0164253003895,None,274.81545438980686,None,,,,11002,0001,2021_Nov_12_0921,localizer,2021.1.3,59.97922298309383,
block,scrambled,scrambled072.bmp,,,,,0,80,80,80,,,,,,,,,,,,,,,,,,,,,,,,,,,,,,,,,,,,,,,,,,None,,274.81545438980686,None,274.81545438980686,None,2021-11-12-09:26:21.451728,274.8262061998248,275.1325399996713,274.8262061998248,274.8262061998248,None,274.8262061998248,274.8262061998248,275.6329622901045,None,,,,11002,0001,2021_Nov_12_0921,localizer,2021.1.3,59.97922298309383,
block,scrambled,scrambled052.bmp,,,,,0,81,81,81,,,,,,,,,,,,,,,,,,,,,,,,,,,,,,,,,,,,,,,,,,None,,275.6329622901045,None,275.6329622901045,None,2021-11-12-09:26:22.268246,275.64446210023016,275.9493759004399,275.64446210023016,None,None,275.64446210023016,None,276.44880458982664,None,,,,11002,0001,2021_Nov_12_0921,localizer,2021.1.3,59.97922298309383,
block,scrambled,scrambled083.bmp,,,,,0,82,82,82,,,,,,,,,,,,,,,,,,,,,,,,,,,,,,,,,,,,,,,,,,None,,276.44880458982664,None,276.44880458982664,None,2021-11-12-09:26:23.083438,276.4571523005143,276.7654796997085,276.4571523005143,None,None,276.4571523005143,None,277.26560239018875,None,,,,11002,0001,2021_Nov_12_0921,localizer,2021.1.3,59.97922298309383,
block,scrambled,scrambled069.bmp,,,,,0,83,83,83,,,,,,,,,,,,,,,,,,,,,,,,,,,,,,,,,,,,,,,,,,None,,277.26560239018875,None,277.26560239018875,None,2021-11-12-09:26:23.899947,277.2752243001014,277.5822184998542,277.2752243001014,None,None,277.2752243001014,None,278.0825566899963,None,,,,11002,0001,2021_Nov_12_0921,localizer,2021.1.3,59.97922298309383,
block,scrambled,scrambled028.bmp,,,,,0,84,84,84,,,,,,,,,,,,,,,,,,,,,,,,,,,,,,,,,,,,,,,,,,None,,278.0825566899963,None,278.0825566899963,None,2021-11-12-09:26:24.716920,278.0932302000001,278.39875950012356,278.0932302000001,None,None,278.0932302000001,None,278.8994358898141,None,,,,11002,0001,2021_Nov_12_0921,localizer,2021.1.3,59.97922298309383,
block,scrambled,scrambled064.bmp,,,,,0,85,85,85,,,,,,,,,,,,,,,,,,,,,,,,,,,,,,,,,,,,,,,,,,None,,278.8994358898141,None,278.8994358898141,None,2021-11-12-09:26:25.535011,278.9111123997718,279.2152804005891,278.9111123997718,None,None,278.9111123997718,None,279.7158163896762,None,,,,11002,0001,2021_Nov_12_0921,localizer,2021.1.3,59.97922298309383,
block,scrambled,scrambled086.bmp,,,,,0,86,86,86,,,,,,,,,,,,,,,,,,,,,,,,,,,,,,,,,,,,,,,,,,None,,279.7158163896762,None,279.7158163896762,None,2021-11-12-09:26:26.350230,279.72561000008136,280.0338102001697,279.72561000008136,None,None,279.72561000008136,None,280.5334578900598,None,,,,11002,0001,2021_Nov_12_0921,localizer,2021.1.3,59.97922298309383,
block,scrambled,scrambled051.bmp,,,,,0,87,87,87,,,,,,,,,,,,,,,,,,,,,,,,,,,,,,,,,,,,,,,,,,None,,280.5334578900598,None,280.5334578900598,None,2021-11-12-09:26:27.172041,280.5494678001851,280.84841230046004,280.5494678001851,None,None,280.5494678001851,None,281.34914799025285,None,,,,11002,0001,2021_Nov_12_0921,localizer,2021.1.3,59.97922298309383,
block,scrambled,scrambled020.bmp,,,,,0,88,88,88,,,,,,,,,,,,,,,,,,,,,,,,,,,,,,,,,,,,,,,,,,None,,281.34914799025285,None,281.34914799025285,None,2021-11-12-09:26:27.983610,281.359656999819,281.66528489999473,281.359656999819,None,None,281.359656999819,None,282.16573399016636,None,,,,11002,0001,2021_Nov_12_0921,localizer,2021.1.3,59.97922298309383,
block,scrambled,scrambled021.bmp,,,,,0,89,89,89,,,,,,,,,,,,,,,,,,,,,,,,,,,,,,,,,,,,,,,,,,None,,282.16573399016636,None,282.16573399016636,None,2021-11-12-09:26:28.800452,282.16630110051483,282.4651883998886,282.16630110051483,None,None,282.16630110051483,None,282.9656508899294,None,,,,11002,0001,2021_Nov_12_0921,localizer,2021.1.3,59.97922298309383,
block,scrambled,scrambled041.bmp,,,,,0,90,90,90,,,,,,,,,,,,,,,,,,,,,,,,,,,,,,,,,,,,,,,,,,None,,282.9656508899294,None,282.9656508899294,None,2021-11-12-09:26:29.602138,282.97662360034883,283.2819365002215,282.97662360034883,282.97662360034883,None,282.97662360034883,282.97662360034883,283.7810749904253,None,,,,11002,0001,2021_Nov_12_0921,localizer,2021.1.3,59.97922298309383,
block_end,scrambled,scrambled040.bmp,,,,,0,91,91,91,,,,,,,,,,,,,,,,,,,,,,,,,,,,,,,,,,,,,,,,,,None,,283.7810749904253,None,283.7810749904253,None,2021-11-12-09:26:30.415826,283.7843492999673,284.09935470018536,283.7843492999673,None,None,283.7843492999673,None,284.58355479026216,None,,,,11002,0001,2021_Nov_12_0921,localizer,2021.1.3,59.97922298309383,
block_start,objects,objects059.bmp,,,,,0,92,92,92,,,,,,,,,,,,,,,,,,,,,,,,,,,,,,,,,,,,,,,,,,t,1.7757569998502731,284.5845456998795,None,284.5845456998795,None,2021-11-12-09:26:33.015074,286.39070530049503,286.6994075998664,286.39070530049503,None,None,286.39070530049503,None,287.1991018903442,None,,,,11002,0001,2021_Nov_12_0921,localizer,2021.1.3,59.97922298309383,
block,objects,objects032.bmp,,,,,0,93,93,93,,,,,,,,,,,,,,,,,,,,,,,,,,,,,,,,,,,,,,,,,,None,,287.1991018903442,None,287.1991018903442,None,2021-11-12-09:26:33.833997,287.1998551003635,287.5154440999031,287.1998551003635,None,None,287.1998551003635,None,287.9991029900499,None,,,,11002,0001,2021_Nov_12_0921,localizer,2021.1.3,59.97922298309383,
block,objects,objects049.bmp,,,,,0,94,94,94,,,,,,,,,,,,,,,,,,,,,,,,,,,,,,,,,,,,,,,,,,None,,287.9991029900499,None,287.9991029900499,None,2021-11-12-09:26:34.635729,288.010958599858,288.315479000099,288.010958599858,288.010958599858,None,288.010958599858,288.010958599858,288.8168521904387,None,,,,11002,0001,2021_Nov_12_0921,localizer,2021.1.3,59.97922298309383,
block,objects,objects063.bmp,,,,,0,95,95,95,,,,,,,,,,,,,,,,,,,,,,,,,,,,,,,,,,,,,,,,,,None,,288.8168521904387,None,288.8168521904387,None,2021-11-12-09:26:35.452693,288.82916569989175,289.132208599709,288.82916569989175,None,None,288.82916569989175,None,289.63224789025264,None,,,,11002,0001,2021_Nov_12_0921,localizer,2021.1.3,59.97922298309383,
block,objects,objects088.bmp,,,,,0,96,96,96,,,,,,,,,,,,,,,,,,,,,,,,,,,,,,,,,,,,,,,,,,None,,289.63224789025264,None,289.63224789025264,None,2021-11-12-09:26:36.266947,289.6415977003053,289.9487950997427,289.6415977003053,None,None,289.6415977003053,None,290.4494043904357,None,,,,11002,0001,2021_Nov_12_0921,localizer,2021.1.3,59.97922298309383,
block,objects,objects034.bmp,,,,,0,97,97,97,,,,,,,,,,,,,,,,,,,,,,,,,,,,,,,,,,,,,,,,,,None,,290.4494043904357,None,290.4494043904357,None,2021-11-12-09:26:37.085229,290.45576770044863,290.76549480017275,290.45576770044863,None,None,290.45576770044863,None,291.26584179038184,None,,,,11002,0001,2021_Nov_12_0921,localizer,2021.1.3,59.97922298309383,
block,objects,objects003.bmp,,,,,0,98,98,98,,,,,,,,,,,,,,,,,,,,,,,,,,,,,,,,,,,,,,,,,,None,,291.26584179038184,None,291.26584179038184,None,2021-11-12-09:26:37.900586,291.2755113998428,291.5824421001598,291.2755113998428,None,None,291.2755113998428,None,292.08226868966597,None,,,,11002,0001,2021_Nov_12_0921,localizer,2021.1.3,59.97922298309383,
block,objects,objects062.bmp,,,,,0,99,99,99,,,,,,,,,,,,,,,,,,,,,,,,,,,,,,,,,,,,,,,,,,None,,292.08226868966597,None,292.08226868966597,None,2021-11-12-09:26:38.717632,292.0832222998142,292.3823282998055,292.0832222998142,None,None,292.0832222998142,None,292.88249449050056,None,,,,11002,0001,2021_Nov_12_0921,localizer,2021.1.3,59.97922298309383,
block,objects,objects068.bmp,,,,,0,100,100,100,,,,,,,,,,,,,,,,,,,,,,,,,,,,,,,,,,,,,,,,,,None,,292.88249449050056,None,292.88249449050056,None,2021-11-12-09:26:39.519489,292.89458440057933,293.19898200035095,292.89458440057933,292.89458440057933,None,292.89458440057933,292.89458440057933,293.6989326904528,None,,,,11002,0001,2021_Nov_12_0921,localizer,2021.1.3,59.97922298309383,
block,objects,objects046.bmp,,,,,0,101,101,101,,,,,,,,,,,,,,,,,,,,,,,,,,,,,,,,,,,,,,,,,,None,,293.6989326904528,None,293.6989326904528,None,2021-11-12-09:26:40.333748,293.70943170040846,294.0157273998484,293.70943170040846,None,None,293.70943170040846,None,294.51545859025794,None,,,,11002,0001,2021_Nov_12_0921,localizer,2021.1.3,59.97922298309383,
block,objects,objects065.bmp,,,,,0,102,102,102,,,,,,,,,,,,,,,,,,,,,,,,,,,,,,,,,,,,,,,,,,None,,294.51545859025794,None,294.51545859025794,None,2021-11-12-09:26:41.150305,294.5237472001463,294.8320123003796,294.5237472001463,None,None,294.5237472001463,None,295.33349428968506,None,,,,11002,0001,2021_Nov_12_0921,localizer,2021.1.3,59.97922298309383,
block,objects,objects043.bmp,,,,,0,103,103,103,,,,,,,,,,,,,,,,,,,,,,,,,,,,,,,,,,,,,,,,,,None,,295.33349428968506,None,295.33349428968506,None,2021-11-12-09:26:41.969280,295.34310000017285,295.64868250023574,295.34310000017285,None,None,295.34310000017285,None,296.14894269024956,None,,,,11002,0001,2021_Nov_12_0921,localizer,2021.1.3,59.97922298309383,
block,objects,objects060.bmp,,,,,0,104,104,104,,,,,,,,,,,,,,,,,,,,,,,,,,,,,,,,,,,,,,,,,,None,,296.14894269024956,None,296.14894269024956,None,2021-11-12-09:26:42.783831,296.1581341000274,296.4654123997316,296.1581341000274,None,None,296.1581341000274,None,296.9654373898171,None,,,,11002,0001,2021_Nov_12_0921,localizer,2021.1.3,59.97922298309383,
block,objects,objects037.bmp,,,,,0,105,105,105,,,,,,,,,,,,,,,,,,,,,,,,,,,,,,,,,,,,,,,,,,None,,296.9654373898171,None,296.9654373898171,None,2021-11-12-09:26:43.600935,296.97487530019134,297.28201540000737,296.97487530019134,None,None,296.97487530019134,None,297.7821891902946,None,,,,11002,0001,2021_Nov_12_0921,localizer,2021.1.3,59.97922298309383,
block_end,objects,objects079.bmp,,,,,0,106,106,106,,,,,,,,,,,,,,,,,,,,,,,,,,,,,,,,,,,,,,,,,,None,,297.7821891902946,None,297.7821891902946,None,2021-11-12-09:26:44.417126,297.79129240009934,298.09921840019524,297.79129240009934,None,None,297.79129240009934,None,298.60020108977335,None,,,,11002,0001,2021_Nov_12_0921,localizer,2021.1.3,59.97922298309383,
block_start,faces,faces041.bmp,,,,,0,107,107,107,,,,,,,,,,,,,,,,,,,,,,,,,,,,,,,,,,,,,,,,,,t,1.7601723996922374,298.60003160033375,None,298.60003160033375,None,2021-11-12-09:26:47.018049,300.39457360003144,300.69912240002304,300.39457360003144,None,None,300.39457360003144,None,301.19922079043465,None,,,,11002,0001,2021_Nov_12_0921,localizer,2021.1.3,59.97922298309383,
block,faces,faces029.bmp,,,,,0,108,108,108,,,,,,,,,,,,,,,,,,,,,,,,,,,,,,,,,,,,,,,,,,None,,301.19922079043465,None,301.19922079043465,None,2021-11-12-09:26:47.834257,301.20972630009055,301.51548730023205,301.20972630009055,None,None,301.20972630009055,None,302.0162524896674,None,,,,11002,0001,2021_Nov_12_0921,localizer,2021.1.3,59.97922298309383,
block,faces,faces037.bmp,,,,,0,109,109,109,,,,,,,,,,,,,,,,,,,,,,,,,,,,,,,,,,,,,,,,,,None,,302.0162524896674,None,302.0162524896674,None,2021-11-12-09:26:48.652244,302.0166809000075,302.3157710004598,302.0166809000075,None,None,302.0166809000075,None,302.83231758968907,None,,,,11002,0001,2021_Nov_12_0921,localizer,2021.1.3,59.97922298309383,
block,faces,faces084.bmp,,,,,0,110,110,110,,,,,,,,,,,,,,,,,,,,,,,,,,,,,,,,,,,,,,,,,,None,,302.83231758968907,None,302.83231758968907,None,2021-11-12-09:26:49.467730,302.841601700522,303.1495681004599,302.841601700522,None,None,302.841601700522,None,303.65129819037395,None,,,,11002,0001,2021_Nov_12_0921,localizer,2021.1.3,59.97922298309383,
block,faces,faces057.bmp,,,,,0,111,111,111,,,,,,,,,,,,,,,,,,,,,,,,,,,,,,,,,,,,,,,,,,None,,303.65129819037395,None,303.65129819037395,None,2021-11-12-09:26:50.288373,303.6647762004286,303.96583649981767,303.6647762004286,None,None,303.6647762004286,None,304.4656198899262,None,,,,11002,0001,2021_Nov_12_0921,localizer,2021.1.3,59.97922298309383,
block,faces,faces054.bmp,,,,,0,112,112,112,,,,,,,,,,,,,,,,,,,,,,,,,,,,,,,,,,,,,,,,,,None,,304.4656198899262,None,304.4656198899262,None,2021-11-12-09:26:51.100748,304.47482809983194,304.78187520056963,304.47482809983194,None,None,304.47482809983194,None,305.28244249047714,None,,,,11002,0001,2021_Nov_12_0921,localizer,2021.1.3,59.97922298309383,
block,faces,faces005.bmp,,,,,0,113,113,113,,,,,,,,,,,,,,,,,,,,,,,,,,,,,,,,,,,,,,,,,,None,,305.28244249047714,None,305.28244249047714,None,2021-11-12-09:26:51.917585,305.29241560027003,305.5987514005974,305.29241560027003,None,None,305.29241560027003,None,306.09911459023135,None,,,,11002,0001,2021_Nov_12_0921,localizer,2021.1.3,59.97922298309383,
block,faces,faces030.bmp,,,,,0,114,114,114,,,,,,,,,,,,,,,,,,,,,,,,,,,,,,,,,,,,,,,,,,None,,306.09911459023135,None,306.09911459023135,None,2021-11-12-09:26:52.734621,306.11071120016277,306.41596230026335,306.11071120016277,None,None,306.11071120016277,None,306.91559479003774,None,,,,11002,0001,2021_Nov_12_0921,localizer,2021.1.3,59.97922298309383,
block,faces,faces004.bmp,,,,,0,115,115,115,,,,,,,,,,,,,,,,,,,,,,,,,,,,,,,,,,,,,,,,,,None,,306.91559479003774,None,306.91559479003774,None,2021-11-12-09:26:53.551103,306.9265184998512,307.2322527002543,306.9265184998512,None,None,306.9265184998512,None,307.7330738901161,None,,,,11002,0001,2021_Nov_12_0921,localizer,2021.1.3,59.97922298309383,
block,faces,faces010.bmp,,,,,0,116,116,116,,,,,,,,,,,,,,,,,,,,,,,,,,,,,,,,,,,,,,,,,,None,,307.7330738901161,None,307.7330738901161,None,2021-11-12-09:26:54.369420,307.73508429992944,308.04960259981453,307.73508429992944,None,None,307.73508429992944,None,308.5497104897164,None,,,,11002,0001,2021_Nov_12_0921,localizer,2021.1.3,59.97922298309383,
block,faces,faces046.bmp,,,,,0,117,117,117,,,,,,,,,,,,,,,,,,,,,,,,,,,,,,,,,,,,,,,,,,None,,308.5497104897164,None,308.5497104897164,None,2021-11-12-09:26:55.186082,308.5622166004032,308.8654006998986,308.5622166004032,None,None,308.5622166004032,None,309.36562638999897,None,,,,11002,0001,2021_Nov_12_0921,localizer,2021.1.3,59.97922298309383,
block,faces,faces012.bmp,,,,,0,118,118,118,,,,,,,,,,,,,,,,,,,,,,,,,,,,,,,,,,,,,,,,,,None,,309.36562638999897,None,309.36562638999897,None,2021-11-12-09:26:56.000853,309.3665687004104,309.6655312003568,309.3665687004104,None,None,309.3665687004104,None,310.1670525901951,None,,,,11002,0001,2021_Nov_12_0921,localizer,2021.1.3,59.97922298309383,
block,faces,faces014.bmp,,,,,0,119,119,119,,,,,,,,,,,,,,,,,,,,,,,,,,,,,,,,,,,,,,,,,,None,,310.1670525901951,None,310.1670525901951,None,2021-11-12-09:26:56.806461,310.1710977004841,310.4823107002303,310.1710977004841,310.1710977004841,None,310.1710977004841,310.1710977004841,310.98206828990953,None,,,,11002,0001,2021_Nov_12_0921,localizer,2021.1.3,59.97922298309383,
block,faces,faces015.bmp,,,,,0,120,120,120,,,,,,,,,,,,,,,,,,,,,,,,,,,,,,,,,,,,,,,,,,None,,310.98206828990953,None,310.98206828990953,None,2021-11-12-09:26:57.617563,310.98304220009595,311.2828743001446,310.98304220009595,None,None,310.98304220009595,None,311.7829973901622,None,,,,11002,0001,2021_Nov_12_0921,localizer,2021.1.3,59.97922298309383,
block_end,faces,faces008.bmp,,,,,0,121,121,121,,,,,,,,,,,,,,,,,,,,,,,,,,,,,,,,,,,,,,,,,,None,,311.7829973901622,None,311.7829973901622,None,2021-11-12-09:26:58.422260,311.8003299999982,312.09963930025697,311.8003299999982,311.8003299999982,None,311.8003299999982,311.8003299999982,312.59907159013676,None,,,,11002,0001,2021_Nov_12_0921,localizer,2021.1.3,59.97922298309383,
block_start,faces,faces048.bmp,,,,,0,122,122,122,,,,,,,,,,,,,,,,,,,,,,,,,,,,,,,,,,,,,,,,,,t,1.7610220005735755,312.5991647001356,None,312.5991647001356,None,2021-11-12-09:27:01.018476,314.393837899901,314.6988874003291,314.393837899901,None,None,314.393837899901,None,315.1998042901047,None,,,,11002,0001,2021_Nov_12_0921,localizer,2021.1.3,59.97922298309383,
block,faces,faces038.bmp,,,,,0,123,123,123,,,,,,,,,,,,,,,,,,,,,,,,,,,,,,,,,,,,,,,,,,None,,315.1998042901047,None,315.1998042901047,None,2021-11-12-09:27:01.835344,315.2011280003935,315.5156207997352,315.2011280003935,None,None,315.2011280003935,None,316.0155030897819,None,,,,11002,0001,2021_Nov_12_0921,localizer,2021.1.3,59.97922298309383,
block,faces,faces079.bmp,,,,,0,124,124,124,,,,,,,,,,,,,,,,,,,,,,,,,,,,,,,,,,,,,,,,,,None,,316.0155030897819,None,316.0155030897819,None,2021-11-12-09:27:02.650707,316.02487220056355,316.33222160022706,316.02487220056355,None,None,316.02487220056355,None,316.83248199047523,None,,,,11002,0001,2021_Nov_12_0921,localizer,2021.1.3,59.97922298309383,
block,faces,faces045.bmp,,,,,0,125,125,125,,,,,,,,,,,,,,,,,,,,,,,,,,,,,,,,,,,,,,,,,,None,,316.83248199047523,None,316.83248199047523,None,2021-11-12-09:27:03.467902,316.8422961998731,317.1489637000486,316.8422961998731,None,None,316.8422961998731,None,317.64882868984716,None,,,,11002,0001,2021_Nov_12_0921,localizer,2021.1.3,59.97922298309383,
block,faces,faces067.bmp,,,,,0,126,126,126,,,,,,,,,,,,,,,,,,,,,,,,,,,,,,,,,,,,,,,,,,None,,317.64882868984716,None,317.64882868984716,None,2021-11-12-09:27:04.284334,317.65931100025773,317.9656627997756,317.65931100025773,None,None,317.65931100025773,None,318.4656951901503,None,,,,11002,0001,2021_Nov_12_0921,localizer,2021.1.3,59.97922298309383,
block,faces,faces058.bmp,,,,,0,127,127,127,,,,,,,,,,,,,,,,,,,,,,,,,,,,,,,,,,,,,,,,,,None,,318.4656951901503,None,318.4656951901503,None,2021-11-12-09:27:05.101226,318.4667554004118,318.78226100001484,318.4667554004118,None,None,318.4667554004118,None,319.26582849016415,None,,,,11002,0001,2021_Nov_12_0921,localizer,2021.1.3,59.97922298309383,
block,faces,faces016.bmp,,,,,0,128,128,128,,,,,,,,,,,,,,,,,,,,,,,,,,,,,,,,,,,,,,,,,,None,,319.26582849016415,None,319.26582849016415,None,2021-11-12-09:27:05.902885,319.27771130017936,319.58232760056853,319.27771130017936,319.27771130017936,None,319.27771130017936,319.27771130017936,320.08366379039364,None,,,,11002,0001,2021_Nov_12_0921,localizer,2021.1.3,59.97922298309383,
block,faces,faces085.bmp,,,,,0,129,129,129,,,,,,,,,,,,,,,,,,,,,,,,,,,,,,,,,,,,,,,,,,None,,320.08366379039364,None,320.08366379039364,None,2021-11-12-09:27:06.720397,320.09690880030394,320.4012074004859,320.09690880030394,None,None,320.09690880030394,None,320.89984748968857,None,,,,11002,0001,2021_Nov_12_0921,localizer,2021.1.3,59.97922298309383,
block,faces,faces088.bmp,,,,,0,130,130,130,,,,,,,,,,,,,,,,,,,,,,,,,,,,,,,,,,,,,,,,,,None,,320.89984748968857,None,320.89984748968857,None,2021-11-12-09:27:07.536591,320.91450349986553,321.21599220018834,320.91450349986553,None,None,320.91450349986553,None,321.7158036901616,None,,,,11002,0001,2021_Nov_12_0921,localizer,2021.1.3,59.97922298309383,
block,faces,faces081.bmp,,,,,0,131,131,131,,,,,,,,,,,,,,,,,,,,,,,,,,,,,,,,,,,,,,,,,,None,,321.7158036901616,None,321.7158036901616,None,2021-11-12-09:27:08.351376,321.72623590007424,322.0321915997192,321.72623590007424,None,None,321.72623590007424,None,322.53307939032095,None,,,,11002,0001,2021_Nov_12_0921,localizer,2021.1.3,59.97922298309383,
block,faces,faces004.bmp,,,,,0,132,132,132,,,,,,,,,,,,,,,,,,,,,,,,,,,,,,,,,,,,,,,,,,None,,322.53307939032095,None,322.53307939032095,None,2021-11-12-09:27:09.169694,322.53461949992925,322.8497166996822,322.53461949992925,None,None,322.53461949992925,None,323.33510589031505,None,,,,11002,0001,2021_Nov_12_0921,localizer,2021.1.3,59.97922298309383,
block,faces,faces027.bmp,,,,,0,133,133,133,,,,,,,,,,,,,,,,,,,,,,,,,,,,,,,,,,,,,,,,,,None,,323.33510589031505,None,323.33510589031505,None,2021-11-12-09:27:09.977872,323.3583983005956,323.66606890037656,323.3583983005956,323.3583983005956,None,323.3583983005956,323.3583983005956,324.1491517898627,None,,,,11002,0001,2021_Nov_12_0921,localizer,2021.1.3,59.97922298309383,
block,faces,faces082.bmp,,,,,0,134,134,134,,,,,,,,,,,,,,,,,,,,,,,,,,,,,,,,,,,,,,,,,,None,,324.1491517898627,None,324.1491517898627,None,2021-11-12-09:27:10.785057,324.1596183003858,324.46562280040234,324.1596183003858,None,None,324.1596183003858,None,324.9658370901831,None,,,,11002,0001,2021_Nov_12_0921,localizer,2021.1.3,59.97922298309383,
block,faces,faces008.bmp,,,,,0,135,135,135,,,,,,,,,,,,,,,,,,,,,,,,,,,,,,,,,,,,,,,,,,None,,324.9658370901831,None,324.9658370901831,None,2021-11-12-09:27:11.602146,324.96663499996066,325.26596499979496,324.96663499996066,None,None,324.96663499996066,None,325.7661486900412,None,,,,11002,0001,2021_Nov_12_0921,localizer,2021.1.3,59.97922298309383,
block_end,faces,faces087.bmp,,,,,0,136,136,136,,,,,,,,,,,,,,,,,,,,,,,,,,,,,,,,,,,,,,,,,,None,,325.7661486900412,None,325.7661486900412,None,2021-11-12-09:27:12.405381,325.76854579988867,326.08212469983846,325.76854579988867,325.76854579988867,None,325.76854579988867,325.76854579988867,326.5836687897332,None,,,,11002,0001,2021_Nov_12_0921,localizer,2021.1.3,59.97922298309383,
null_block,null_block,null_block.bmp,,,,,0,137,137,137,,,,,,,,,,,,,,,,,,,,,,,,,,,,,,,,,,,,,,,,,,t,1.7767930002883077,326.58347779978067,None,326.58347779978067,None,2021-11-12-09:27:15.021974,328.3840402903967,None,328.3840402903967,None,None,328.3840402903967,None,328.3917640997097,None,,,,11002,0001,2021_Nov_12_0921,localizer,2021.1.3,59.97922298309383,
block_start,scenes,scenes008.bmp,,,,,0,138,138,138,,,,,,,,,,,,,,,,,,,,,,,,,,,,,,,,,,,,,,,,,,t,1.9612850993871689,340.39897290058434,None,340.39897290058434,None,2021-11-12-09:27:29.020236,342.3943071998656,342.69902679976076,342.3943071998656,None,None,342.3943071998656,None,343.19953969018536,None,,,,11002,0001,2021_Nov_12_0921,localizer,2021.1.3,59.97922298309383,
block,scenes,scenes003.bmp,,,,,0,139,139,139,,,,,,,,,,,,,,,,,,,,,,,,,,,,,,,,,,,,,,,,,,None,,343.19953969018536,None,343.19953969018536,None,2021-11-12-09:27:29.835931,343.21040160022676,343.5157157005742,343.21040160022676,None,None,343.21040160022676,None,344.01575869033115,None,,,,11002,0001,2021_Nov_12_0921,localizer,2021.1.3,59.97922298309383,
block,scenes,scenes030.bmp,,,,,0,140,140,140,,,,,,,,,,,,,,,,,,,,,,,,,,,,,,,,,,,,,,,,,,None,,344.01575869033115,None,344.01575869033115,None,2021-11-12-09:27:30.652025,344.024006200023,344.3358434997499,344.024006200023,None,None,344.024006200023,None,344.8323456904851,None,,,,11002,0001,2021_Nov_12_0921,localizer,2021.1.3,59.97922298309383,
block,scenes,scenes064.bmp,,,,,0,141,141,141,,,,,,,,,,,,,,,,,,,,,,,,,,,,,,,,,,,,,,,,,,None,,344.8323456904851,None,344.8323456904851,None,2021-11-12-09:27:31.468633,344.8365567000583,345.14925760030746,344.8365567000583,None,None,344.8365567000583,None,345.64942029016095,None,,,,11002,0001,2021_Nov_12_0921,localizer,2021.1.3,59.97922298309383,
block,scenes,scenes081.bmp,,,,,0,142,142,142,,,,,,,,,,,,,,,,,,,,,,,,,,,,,,,,,,,,,,,,,,None,,345.64942029016095,None,345.64942029016095,None,2021-11-12-09:27:32.285724,345.6600692002103,345.96612800005823,345.6600692002103,None,None,345.6600692002103,None,346.46564178997653,None,,,,11002,0001,2021_Nov_12_0921,localizer,2021.1.3,59.97922298309383,
block,scenes,scenes025.bmp,,,,,0,143,143,143,,,,,,,,,,,,,,,,,,,,,,,,,,,,,,,,,,,,,,,,,,None,,346.46564178997653,None,346.46564178997653,None,2021-11-12-09:27:33.101732,346.4756073001772,346.7825720002875,346.4756073001772,None,None,346.4756073001772,None,347.27263189004736,None,,,,11002,0001,2021_Nov_12_0921,localizer,2021.1.3,59.97922298309383,
block,scenes,scenes076.bmp,,,,,0,144,144,144,,,,,,,,,,,,,,,,,,,,,,,,,,,,,,,,,,,,,,,,,,None,,347.27263189004736,None,347.27263189004736,None,2021-11-12-09:27:33.914809,347.2799792997539,347.58271799981594,347.2799792997539,None,None,347.2799792997539,None,348.0828546899371,None,,,,11002,0001,2021_Nov_12_0921,localizer,2021.1.3,59.97922298309383,
block,scenes,scenes004.bmp,,,,,0,145,145,145,,,,,,,,,,,,,,,,,,,,,,,,,,,,,,,,,,,,,,,,,,None,,348.0828546899371,None,348.0828546899371,None,2021-11-12-09:27:34.720420,348.0835431003943,348.38246040046215,348.0835431003943,None,None,348.0835431003943,None,348.88259298997,None,,,,11002,0001,2021_Nov_12_0921,localizer,2021.1.3,59.97922298309383,
block,scenes,scenes038.bmp,,,,,0,146,146,146,,,,,,,,,,,,,,,,,,,,,,,,,,,,,,,,,,,,,,,,,,None,,348.88259298997,None,348.88259298997,None,2021-11-12-09:27:35.520988,348.8912335000932,349.1993928998709,348.8912335000932,348.8912335000932,None,348.8912335000932,348.8912335000932,349.69957348974424,None,,,,11002,0001,2021_Nov_12_0921,localizer,2021.1.3,59.97922298309383,
block,scenes,scenes086.bmp,,,,,0,147,147,147,,,,,,,,,,,,,,,,,,,,,,,,,,,,,,,,,,,,,,,,,,None,,349.69957348974424,None,349.69957348974424,None,2021-11-12-09:27:36.337173,349.700179300271,350.0154838003218,349.700179300271,None,None,349.700179300271,None,350.5002497899346,None,,,,11002,0001,2021_Nov_12_0921,localizer,2021.1.3,59.97922298309383,
block,scenes,scenes021.bmp,,,,,0,148,148,148,,,,,,,,,,,,,,,,,,,,,,,,,,,,,,,,,,,,,,,,,,None,,350.5002497899346,None,350.5002497899346,None,2021-11-12-09:27:37.139821,350.50439739972353,350.81545410025865,350.50439739972353,350.50439739972353,None,350.50439739972353,350.50439739972353,351.3155802897178,None,,,,11002,0001,2021_Nov_12_0921,localizer,2021.1.3,59.97922298309383,
block,scenes,scenes050.bmp,,,,,0,149,149,149,,,,,,,,,,,,,,,,,,,,,,,,,,,,,,,,,,,,,,,,,,None,,351.3155802897178,None,351.3155802897178,None,2021-11-12-09:27:37.952054,351.32349679991603,351.6328504998237,351.32349679991603,None,None,351.32349679991603,None,352.13625909006225,None,,,,11002,0001,2021_Nov_12_0921,localizer,2021.1.3,59.97922298309383,
block,scenes,scenes059.bmp,,,,,0,150,150,150,,,,,,,,,,,,,,,,,,,,,,,,,,,,,,,,,,,,,,,,,,None,,352.13625909006225,None,352.13625909006225,None,2021-11-12-09:27:38.782648,352.15475040022284,352.4658465003595,352.15475040022284,None,None,352.15475040022284,None,352.9492405903526,None,,,,11002,0001,2021_Nov_12_0921,localizer,2021.1.3,59.97922298309383,
block,scenes,scenes066.bmp,,,,,0,151,151,151,,,,,,,,,,,,,,,,,,,,,,,,,,,,,,,,,,,,,,,,,,None,,352.9492405903526,None,352.9492405903526,None,2021-11-12-09:27:39.585759,352.9591140002012,353.2657925998792,352.9591140002012,None,None,352.9591140002012,None,353.76585679026323,None,,,,11002,0001,2021_Nov_12_0921,localizer,2021.1.3,59.97922298309383,
block_end,scenes,scenes071.bmp,,,,,0,152,152,152,,,,,,,,,,,,,,,,,,,,,,,,,,,,,,,,,,,,,,,,,,None,,353.76585679026323,None,353.76585679026323,None,2021-11-12-09:27:40.402610,353.76728169992566,354.08239660039544,353.76728169992566,None,None,353.76728169992566,None,354.5826385905035,None,,,,11002,0001,2021_Nov_12_0921,localizer,2021.1.3,59.97922298309383,
block_start,scrambled,scrambled051.bmp,,,,,0,153,153,153,,,,,,,,,,,,,,,,,,,,,,,,,,,,,,,,,,,,,,,,,,t,1.7778598004952073,354.58238949999213,None,354.58238949999213,None,2021-11-12-09:27:43.020833,356.38602150045335,356.6997047001496,356.38602150045335,None,None,356.38602150045335,None,357.2000283905305,None,,,,11002,0001,2021_Nov_12_0921,localizer,2021.1.3,59.97922298309383,
block,scrambled,scrambled024.bmp,,,,,0,154,154,154,,,,,,,,,,,,,,,,,,,,,,,,,,,,,,,,,,,,,,,,,,None,,357.2000283905305,None,357.2000283905305,None,2021-11-12-09:27:43.837700,357.21157960034907,357.5158154005185,357.21157960034907,None,None,357.21157960034907,None,358.01708419052886,None,,,,11002,0001,2021_Nov_12_0921,localizer,2021.1.3,59.97922298309383,
block,scrambled,scrambled073.bmp,,,,,0,155,155,155,,,,,,,,,,,,,,,,,,,,,,,,,,,,,,,,,,,,,,,,,,None,,358.01708419052886,None,358.01708419052886,None,2021-11-12-09:27:44.655386,358.03122350014746,358.33266369998455,358.03122350014746,None,None,358.03122350014746,None,358.83309049056845,None,,,,11002,0001,2021_Nov_12_0921,localizer,2021.1.3,59.97922298309383,
block,scrambled,scrambled066.bmp,,,,,0,156,156,156,,,,,,,,,,,,,,,,,,,,,,,,,,,,,,,,,,,,,,,,,,None,,358.83309049056845,None,358.83309049056845,None,2021-11-12-09:27:45.470965,358.8438560003415,359.14899769984186,358.8438560003415,None,None,358.8438560003415,None,359.6492194904946,None,,,,11002,0001,2021_Nov_12_0921,localizer,2021.1.3,59.97922298309383,
block,scrambled,scrambled061.bmp,,,,,0,157,157,157,,,,,,,,,,,,,,,,,,,,,,,,,,,,,,,,,,,,,,,,,,None,,359.6492194904946,None,359.6492194904946,None,2021-11-12-09:27:46.285928,359.65844400040805,359.9656686997041,359.65844400040805,None,None,359.65844400040805,None,360.46614208994436,None,,,,11002,0001,2021_Nov_12_0921,localizer,2021.1.3,59.97922298309383,
block,scrambled,scrambled008.bmp,,,,,0,158,158,158,,,,,,,,,,,,,,,,,,,,,,,,,,,,,,,,,,,,,,,,,,None,,360.46614208994436,None,360.46614208994436,None,2021-11-12-09:27:47.102851,360.4770876998082,360.7831915002316,360.4770876998082,None,None,360.4770876998082,None,361.283168690186,None,,,,11002,0001,2021_Nov_12_0921,localizer,2021.1.3,59.97922298309383,
block,scrambled,scrambled008.bmp,,,,,0,159,159,159,,,,,,,,,,,,,,,,,,,,,,,,,,,,,,,,,,,,,,,,,,None,,361.283168690186,None,361.283168690186,None,2021-11-12-09:27:47.921067,361.28388600051403,361.59951720014215,361.28388600051403,None,y,361.28388600051403,None,362.0829778899439,None,0.5111035006120801,,,11002,0001,2021_Nov_12_0921,localizer,2021.1.3,59.97922298309383,
block,scrambled,scrambled065.bmp,,,,,0,160,160,160,,,,,,,,,,,,,,,,,,,,,,,,,,,,,,,,,,,,,,,,,,None,,362.0829778899439,None,362.0829778899439,None,2021-11-12-09:27:48.722945,362.09643539972603,362.39930350054055,362.09643539972603,362.09643539972603,None,362.09643539972603,362.09643539972603,362.8994861905463,None,,,,11002,0001,2021_Nov_12_0921,localizer,2021.1.3,59.97922298309383,
block,scrambled,scrambled015.bmp,,,,,0,161,161,161,,,,,,,,,,,,,,,,,,,,,,,,,,,,,,,,,,,,,,,,,,None,,362.8994861905463,None,362.8994861905463,None,2021-11-12-09:27:49.536287,362.90992040000856,363.2160334996879,362.90992040000856,None,None,362.90992040000856,None,363.7158526898362,None,,,,11002,0001,2021_Nov_12_0921,localizer,2021.1.3,59.97922298309383,
block,scrambled,scrambled070.bmp,,,,,0,162,162,162,,,,,,,,,,,,,,,,,,,,,,,,,,,,,,,,,,,,,,,,,,None,,363.7158526898362,None,363.7158526898362,None,2021-11-12-09:27:50.352680,363.7256131004542,364.0320584997535,363.7256131004542,None,None,363.7256131004542,None,364.53382609030234,None,,,,11002,0001,2021_Nov_12_0921,localizer,2021.1.3,59.97922298309383,
block,scrambled,scrambled058.bmp,,,,,0,163,163,163,,,,,,,,,,,,,,,,,,,,,,,,,,,,,,,,,,,,,,,,,,None,,364.53382609030234,None,364.53382609030234,None,2021-11-12-09:27:51.173653,364.5479912003502,364.8492320002988,364.5479912003502,None,None,364.5479912003502,None,365.3495000897907,None,,,,11002,0001,2021_Nov_12_0921,localizer,2021.1.3,59.97922298309383,
block,scrambled,scrambled033.bmp,,,,,0,164,164,164,,,,,,,,,,,,,,,,,,,,,,,,,,,,,,,,,,,,,,,,,,None,,365.3495000897907,None,365.3495000897907,None,2021-11-12-09:27:51.986578,365.36137100029737,365.66612039972097,365.36137100029737,None,None,365.36137100029737,None,366.1659442902543,None,,,,11002,0001,2021_Nov_12_0921,localizer,2021.1.3,59.97922298309383,
block,scrambled,scrambled040.bmp,,,,,0,165,165,165,,,,,,,,,,,,,,,,,,,,,,,,,,,,,,,,,,,,,,,,,,None,,366.1659442902543,None,366.1659442902543,None,2021-11-12-09:27:52.802963,366.16673490032554,366.4658800000325,366.16673490032554,None,None,366.16673490032554,None,366.9661245903932,None,,,,11002,0001,2021_Nov_12_0921,localizer,2021.1.3,59.97922298309383,
block,scrambled,scrambled079.bmp,,,,,0,166,166,166,,,,,,,,,,,,,,,,,,,,,,,,,,,,,,,,,,,,,,,,,,None,,366.9661245903932,None,366.9661245903932,None,2021-11-12-09:27:53.605241,366.9779970003292,367.2825734000653,366.9779970003292,366.9779970003292,None,366.9779970003292,366.9779970003292,367.7827704901807,None,,,,11002,0001,2021_Nov_12_0921,localizer,2021.1.3,59.97922298309383,
block_end,scrambled,scrambled081.bmp,,,,,0,167,167,167,,,,,,,,,,,,,,,,,,,,,,,,,,,,,,,,,,,,,,,,,,None,,367.7827704901807,None,367.7827704901807,None,2021-11-12-09:27:54.419903,367.78988089971244,368.0995020000264,367.78988089971244,None,None,367.78988089971244,None,368.5994871900417,None,,,,11002,0001,2021_Nov_12_0921,localizer,2021.1.3,59.97922298309383,
block_start,objects,objects024.bmp,,,,,0,168,168,168,,,,,,,,,,,,,,,,,,,,,,,,,,,,,,,,,,,,,,,,,,t,1.7606718000024557,368.59945289976895,None,368.59945289976895,None,2021-11-12-09:27:57.018514,370.39349179994315,370.69940860010684,370.39349179994315,None,None,370.39349179994315,None,371.1994383902289,None,,,,11002,0001,2021_Nov_12_0921,localizer,2021.1.3,59.97922298309383,
block,objects,objects014.bmp,,,,,0,169,169,169,,,,,,,,,,,,,,,,,,,,,,,,,,,,,,,,,,,,,,,,,,None,,371.1994383902289,None,371.1994383902289,None,2021-11-12-09:27:57.837041,371.2002750998363,371.4994638999924,371.2002750998363,None,None,371.2002750998363,None,372.01602958971637,None,,,,11002,0001,2021_Nov_12_0921,localizer,2021.1.3,59.97922298309383,
block,objects,objects082.bmp,,,,,0,170,170,170,,,,,,,,,,,,,,,,,,,,,,,,,,,,,,,,,,,,,,,,,,None,,372.01602958971637,None,372.01602958971637,None,2021-11-12-09:27:58.653330,372.02524830028415,372.33245230000466,372.02524830028415,None,None,372.02524830028415,None,372.8326652896591,None,,,,11002,0001,2021_Nov_12_0921,localizer,2021.1.3,59.97922298309383,
block,objects,objects036.bmp,,,,,0,171,171,171,,,,,,,,,,,,,,,,,,,,,,,,,,,,,,,,,,,,,,,,,,None,,372.8326652896591,None,372.8326652896591,None,2021-11-12-09:27:59.469765,372.83345380052924,373.1491366997361,372.83345380052924,None,None,372.83345380052924,None,373.6326852905564,None,,,,11002,0001,2021_Nov_12_0921,localizer,2021.1.3,59.97922298309383,
block,objects,objects054.bmp,,,,,0,172,172,172,,,,,,,,,,,,,,,,,,,,,,,,,,,,,,,,,,,,,,,,,,None,,373.6326852905564,None,373.6326852905564,None,2021-11-12-09:28:00.271937,373.6437117001042,373.9491619002074,373.6437117001042,373.6437117001042,None,373.6437117001042,373.6437117001042,374.4499388904311,None,,,,11002,0001,2021_Nov_12_0921,localizer,2021.1.3,59.97922298309383,
block,objects,objects078.bmp,,,,,0,173,173,173,,,,,,,,,,,,,,,,,,,,,,,,,,,,,,,,,,,,,,,,,,None,,374.4499388904311,None,374.4499388904311,None,2021-11-12-09:28:01.088111,374.4605205003172,374.76572880055755,374.4605205003172,None,None,374.4605205003172,None,375.2660718903877,None,,,,11002,0001,2021_Nov_12_0921,localizer,2021.1.3,59.97922298309383,
block,objects,objects035.bmp,,,,,0,174,174,174,,,,,,,,,,,,,,,,,,,,,,,,,,,,,,,,,,,,,,,,,,None,,375.2660718903877,None,375.2660718903877,None,2021-11-12-09:28:01.903229,375.2766989003867,375.5825628004968,375.2766989003867,None,None,375.2766989003867,None,376.08331998987126,None,,,,11002,0001,2021_Nov_12_0921,localizer,2021.1.3,59.97922298309383,
block,objects,objects003.bmp,,,,,0,175,175,175,,,,,,,,,,,,,,,,,,,,,,,,,,,,,,,,,,,,,,,,,,None,,376.08331998987126,None,376.08331998987126,None,2021-11-12-09:28:02.721667,376.0837749997154,376.38292550016195,376.0837749997154,None,None,376.0837749997154,None,376.8828774903901,None,,,,11002,0001,2021_Nov_12_0921,localizer,2021.1.3,59.97922298309383,
block,objects,objects057.bmp,,,,,0,176,176,176,,,,,,,,,,,,,,,,,,,,,,,,,,,,,,,,,,,,,,,,,,None,,376.8828774903901,None,376.8828774903901,None,2021-11-12-09:28:03.522075,376.8950217003003,377.19940069969743,376.8950217003003,376.8950217003003,None,376.8950217003003,376.8950217003003,377.70009209020066,None,,,,11002,0001,2021_Nov_12_0921,localizer,2021.1.3,59.97922298309383,
block,objects,objects008.bmp,,,,,0,177,177,177,,,,,,,,,,,,,,,,,,,,,,,,,,,,,,,,,,,,,,,,,,None,,377.70009209020066,None,377.70009209020066,None,2021-11-12-09:28:04.338673,377.7107591005042,378.0158352004364,377.7107591005042,None,None,377.7107591005042,None,378.5160158899613,None,,,,11002,0001,2021_Nov_12_0921,localizer,2021.1.3,59.97922298309383,
block,objects,objects027.bmp,,,,,0,178,178,178,,,,,,,,,,,,,,,,,,,,,,,,,,,,,,,,,,,,,,,,,,None,,378.5160158899613,None,378.5160158899613,None,2021-11-12-09:28:05.153272,378.5246012005955,378.833412299864,378.5246012005955,None,None,378.5246012005955,None,379.3324934904464,None,,,,11002,0001,2021_Nov_12_0921,localizer,2021.1.3,59.97922298309383,
block,objects,objects031.bmp,,,,,0,179,179,179,,,,,,,,,,,,,,,,,,,,,,,,,,,,,,,,,,,,,,,,,,None,,379.3324934904464,None,379.3324934904464,None,2021-11-12-09:28:05.969771,379.34065929986537,379.6493396004662,379.34065929986537,None,None,379.34065929986537,None,380.14943499015646,None,,,,11002,0001,2021_Nov_12_0921,localizer,2021.1.3,59.97922298309383,
block,objects,objects009.bmp,,,,,0,180,180,180,,,,,,,,,,,,,,,,,,,,,,,,,,,,,,,,,,,,,,,,,,None,,380.14943499015646,None,380.14943499015646,None,2021-11-12-09:28:06.786732,380.15907710045576,380.46652590017766,380.15907710045576,None,None,380.15907710045576,None,380.96606399016457,None,,,,11002,0001,2021_Nov_12_0921,localizer,2021.1.3,59.97922298309383,
block,objects,objects075.bmp,,,,,0,181,181,181,,,,,,,,,,,,,,,,,,,,,,,,,,,,,,,,,,,,,,,,,,None,,380.96606399016457,None,380.96606399016457,None,2021-11-12-09:28:07.603387,380.975582100451,381.28237510006875,380.975582100451,None,None,380.975582100451,None,381.78262738967317,None,,,,11002,0001,2021_Nov_12_0921,localizer,2021.1.3,59.97922298309383,
block_end,objects,objects050.bmp,,,,,0,182,182,182,,,,,,,,,,,,,,,,,,,,,,,,,,,,,,,,,,,,,,,,,,None,,381.78262738967317,None,381.78262738967317,None,2021-11-12-09:28:08.420136,381.79238650016487,382.0992780998349,381.79238650016487,None,None,381.79238650016487,None,382.59941409053283,None,,,,11002,0001,2021_Nov_12_0921,localizer,2021.1.3,59.97922298309383,
block_start,objects,objects084.bmp,,,,,0,183,183,183,,,,,,,,,,,,,,,,,,,,,,,,,,,,,,,,,,,,,,,,,,t,1.7607920002192259,382.59930150024593,None,382.59930150024593,None,2021-11-12-09:28:11.020454,384.3889049999416,384.70578610058874,384.3889049999416,None,None,384.3889049999416,None,385.19993878984826,None,,,,11002,0001,2021_Nov_12_0921,localizer,2021.1.3,59.97922298309383,
block,objects,objects001.bmp,,,,,0,184,184,184,,,,,,,,,,,,,,,,,,,,,,,,,,,,,,,,,,,,,,,,,,None,,385.19993878984826,None,385.19993878984826,None,2021-11-12-09:28:11.838352,385.21073130052537,385.51600550021976,385.21073130052537,None,None,385.21073130052537,None,386.01610499052333,None,,,,11002,0001,2021_Nov_12_0921,localizer,2021.1.3,59.97922298309383,
block,objects,objects041.bmp,,,,,0,185,185,185,,,,,,,,,,,,,,,,,,,,,,,,,,,,,,,,,,,,,,,,,,None,,386.01610499052333,None,386.01610499052333,None,2021-11-12-09:28:12.653571,386.0257390001789,386.33268710039556,386.0257390001789,None,None,386.0257390001789,None,386.8324326899834,None,,,,11002,0001,2021_Nov_12_0921,localizer,2021.1.3,59.97922298309383,
block,objects,objects087.bmp,,,,,0,186,186,186,,,,,,,,,,,,,,,,,,,,,,,,,,,,,,,,,,,,,,,,,,None,,386.8324326899834,None,386.8324326899834,None,2021-11-12-09:28:13.469937,386.840936800465,387.1494658999145,386.840936800465,None,None,386.840936800465,None,387.64956769058483,None,,,,11002,0001,2021_Nov_12_0921,localizer,2021.1.3,59.97922298309383,
block,objects,objects048.bmp,,,,,0,187,187,187,,,,,,,,,,,,,,,,,,,,,,,,,,,,,,,,,,,,,,,,,,None,,387.64956769058483,None,387.64956769058483,None,2021-11-12-09:28:14.287305,387.6501118000597,387.9495371999219,387.6501118000597,None,None,387.6501118000597,None,388.44936578990894,None,,,,11002,0001,2021_Nov_12_0921,localizer,2021.1.3,59.97922298309383,
block,objects,objects030.bmp,,,,,0,188,188,188,,,,,,,,,,,,,,,,,,,,,,,,,,,,,,,,,,,,,,,,,,None,,388.44936578990894,None,388.44936578990894,None,2021-11-12-09:28:15.088737,388.4503512000665,388.74930530041456,388.4503512000665,388.4503512000665,None,388.4503512000665,388.4503512000665,389.25327778970825,None,,,,11002,0001,2021_Nov_12_0921,localizer,2021.1.3,59.97922298309383,
block,objects,objects070.bmp,,,,,0,189,189,189,,,,,,,,,,,,,,,,,,,,,,,,,,,,,,,,,,,,,,,,,,None,,389.25327778970825,None,389.25327778970825,None,2021-11-12-09:28:15.901699,389.27180839981884,389.5825840998441,389.27180839981884,389.27180839981884,None,389.27180839981884,389.27180839981884,390.06641959017145,None,,,,11002,0001,2021_Nov_12_0921,localizer,2021.1.3,59.97922298309383,
block,objects,objects042.bmp,,,,,0,190,190,190,,,,,,,,,,,,,,,,,,,,,,,,,,,,,,,,,,,,,,,,,,None,,390.06641959017145,None,390.06641959017145,None,2021-11-12-09:28:16.704191,390.0773290004581,390.3832624005154,390.0773290004581,None,None,390.0773290004581,None,390.8836408899166,None,,,,11002,0001,2021_Nov_12_0921,localizer,2021.1.3,59.97922298309383,
block,objects,objects061.bmp,,,,,0,191,191,191,,,,,,,,,,,,,,,,,,,,,,,,,,,,,,,,,,,,,,,,,,None,,390.8836408899166,None,390.8836408899166,None,2021-11-12-09:28:17.522234,390.89492970053107,391.1993003003299,390.89492970053107,None,None,390.89492970053107,None,391.69950078977274,None,,,,11002,0001,2021_Nov_12_0921,localizer,2021.1.3,59.97922298309383,
block,objects,objects051.bmp,,,,,0,192,192,192,,,,,,,,,,,,,,,,,,,,,,,,,,,,,,,,,,,,,,,,,,None,,391.69950078977274,None,391.69950078977274,None,2021-11-12-09:28:18.337336,391.71027700044215,392.01723560038954,391.71027700044215,None,None,391.71027700044215,None,392.51616059048104,None,,,,11002,0001,2021_Nov_12_0921,localizer,2021.1.3,59.97922298309383,
block,objects,objects082.bmp,,,,,0,193,193,193,,,,,,,,,,,,,,,,,,,,,,,,,,,,,,,,,,,,,,,,,,None,,392.51616059048104,None,392.51616059048104,None,2021-11-12-09:28:19.154266,392.5168364997953,392.81625519972295,392.5168364997953,None,None,392.5168364997953,None,393.31649158978837,None,,,,11002,0001,2021_Nov_12_0921,localizer,2021.1.3,59.97922298309383,
block,objects,objects045.bmp,,,,,0,194,194,194,,,,,,,,,,,,,,,,,,,,,,,,,,,,,,,,,,,,,,,,,,None,,393.31649158978837,None,393.31649158978837,None,2021-11-12-09:28:19.957219,393.3304240005091,393.6325751002878,393.3304240005091,393.3304240005091,None,393.3304240005091,393.3304240005091,394.133458290156,None,,,,11002,0001,2021_Nov_12_0921,localizer,2021.1.3,59.97922298309383,
block,objects,objects013.bmp,,,,,0,195,195,195,,,,,,,,,,,,,,,,,,,,,,,,,,,,,,,,,,,,,,,,,,None,,394.133458290156,None,394.133458290156,None,2021-11-12-09:28:20.772146,394.14519670046866,394.448963300325,394.14519670046866,None,None,394.14519670046866,None,394.94957139054316,None,,,,11002,0001,2021_Nov_12_0921,localizer,2021.1.3,59.97922298309383,
block,objects,objects026.bmp,,,,,0,196,196,196,,,,,,,,,,,,,,,,,,,,,,,,,,,,,,,,,,,,,,,,,,None,,394.94957139054316,None,394.94957139054316,None,2021-11-12-09:28:21.587497,394.95940820034593,395.26611460000277,394.95940820034593,None,None,394.95940820034593,None,395.76575988987463,None,,,,11002,0001,2021_Nov_12_0921,localizer,2021.1.3,59.97922298309383,
block_end,objects,objects033.bmp,,,,,0,197,197,197,,,,,,,,,,,,,,,,,,,,,,,,,,,,,,,,,,,,,,,,,,None,,395.76575988987463,None,395.76575988987463,None,2021-11-12-09:28:22.402514,395.77407910022885,396.08238400053233,395.77407910022885,None,None,395.77407910022885,None,396.58414439009505,None,,,,11002,0001,2021_Nov_12_0921,localizer,2021.1.3,59.97922298309383,
block_start,scenes,scenes055.bmp,,,,,0,198,198,198,,,,,,,,,,,,,,,,,,,,,,,,,,,,,,,,,,,,,,,,,,t,1.7764524994418025,396.58396119996905,None,396.58396119996905,None,2021-11-12-09:28:25.024031,398.39695340022445,398.6997336996719,398.39695340022445,None,None,398.39695340022445,None,399.19943979000675,None,,,,11002,0001,2021_Nov_12_0921,localizer,2021.1.3,59.97922298309383,
block,scenes,scenes085.bmp,,,,,0,199,199,199,,,,,,,,,,,,,,,,,,,,,,,,,,,,,,,,,,,,,,,,,,None,,399.19943979000675,None,399.19943979000675,None,2021-11-12-09:28:25.836784,399.2077770996839,399.5158398002386,399.2077770996839,None,None,399.2077770996839,None,400.0165242905729,None,,,,11002,0001,2021_Nov_12_0921,localizer,2021.1.3,59.97922298309383,
block,scenes,scenes015.bmp,,,,,0,200,200,200,,,,,,,,,,,,,,,,,,,,,,,,,,,,,,,,,,,,,,,,,,None,,400.0165242905729,None,400.0165242905729,None,2021-11-12-09:28:26.654403,400.0278540002182,400.33289400022477,400.0278540002182,None,None,400.0278540002182,None,400.8329878904857,None,,,,11002,0001,2021_Nov_12_0921,localizer,2021.1.3,59.97922298309383,
block,scenes,scenes012.bmp,,,,,0,201,201,201,,,,,,,,,,,,,,,,,,,,,,,,,,,,,,,,,,,,,,,,,,None,,400.8329878904857,None,400.8329878904857,None,2021-11-12-09:28:27.471097,400.84398220013827,401.1493792999536,400.84398220013827,None,None,400.84398220013827,None,401.650139289815,None,,,,11002,0001,2021_Nov_12_0921,localizer,2021.1.3,59.97922298309383,
block,scenes,scenes073.bmp,,,,,0,202,202,202,,,,,,,,,,,,,,,,,,,,,,,,,,,,,,,,,,,,,,,,,,None,,401.650139289815,None,401.650139289815,None,2021-11-12-09:28:28.289194,401.6632241997868,401.9657199997455,401.6632241997868,None,None,401.6632241997868,None,402.46633089045065,None,,,,11002,0001,2021_Nov_12_0921,localizer,2021.1.3,59.97922298309383,
block,scenes,scenes029.bmp,,,,,0,203,203,203,,,,,,,,,,,,,,,,,,,,,,,,,,,,,,,,,,,,,,,,,,None,,402.46633089045065,None,402.46633089045065,None,2021-11-12-09:28:29.104267,402.4673155006021,402.78286449983716,402.4673155006021,None,None,402.4673155006021,None,403.2827155905776,None,,,,11002,0001,2021_Nov_12_0921,localizer,2021.1.3,59.97922298309383,
block,scenes,scenes030.bmp,,,,,0,204,204,204,,,,,,,,,,,,,,,,,,,,,,,,,,,,,,,,,,,,,,,,,,None,,403.2827155905776,None,403.2827155905776,None,2021-11-12-09:28:29.920680,403.2836039997637,403.59920920059085,403.2836039997637,None,None,403.2836039997637,None,404.09865578999745,None,,,,11002,0001,2021_Nov_12_0921,localizer,2021.1.3,59.97922298309383,
block,scenes,scenes006.bmp,,,,,0,205,205,205,,,,,,,,,,,,,,,,,,,,,,,,,,,,,,,,,,,,,,,,,,None,,404.09865578999745,None,404.09865578999745,None,2021-11-12-09:28:30.736646,404.1074587004259,404.41619389969856,404.1074587004259,None,None,404.1074587004259,None,404.9160227905028,None,,,,11002,0001,2021_Nov_12_0921,localizer,2021.1.3,59.97922298309383,
block,scenes,scenes048.bmp,,,,,0,206,206,206,,,,,,,,,,,,,,,,,,,,,,,,,,,,,,,,,,,,,,,,,,None,,404.9160227905028,None,404.9160227905028,None,2021-11-12-09:28:31.554031,404.9277544999495,405.2326725004241,404.9277544999495,None,None,404.9277544999495,None,405.7331440904178,None,,,,11002,0001,2021_Nov_12_0921,localizer,2021.1.3,59.97922298309383,
block,scenes,scenes002.bmp,,,,,0,207,207,207,,,,,,,,,,,,,,,,,,,,,,,,,,,,,,,,,,,,,,,,,,None,,405.7331440904178,None,405.7331440904178,None,2021-11-12-09:28:32.372210,405.73960020020604,406.0498783001676,405.73960020020604,None,None,405.73960020020604,None,406.54947048975157,None,,,,11002,0001,2021_Nov_12_0921,localizer,2021.1.3,59.97922298309383,
block,scenes,scenes027.bmp,,,,,0,208,208,208,,,,,,,,,,,,,,,,,,,,,,,,,,,,,,,,,,,,,,,,,,None,,406.54947048975157,None,406.54947048975157,None,2021-11-12-09:28:33.187527,406.5503139998764,406.86619279999286,406.5503139998764,None,None,406.5503139998764,None,407.3497834903188,None,,,,11002,0001,2021_Nov_12_0921,localizer,2021.1.3,59.97922298309383,
block,scenes,scenes062.bmp,,,,,0,209,209,209,,,,,,,,,,,,,,,,,,,,,,,,,,,,,,,,,,,,,,,,,,None,,407.3497834903188,None,407.3497834903188,None,2021-11-12-09:28:33.989895,407.36327390000224,407.66610909998417,407.36327390000224,407.36327390000224,None,407.36327390000224,407.36327390000224,408.16640888983386,None,,,,11002,0001,2021_Nov_12_0921,localizer,2021.1.3,59.97922298309383,
block,scenes,scenes035.bmp,,,,,0,210,210,210,,,,,,,,,,,,,,,,,,,,,,,,,,,,,,,,,,,,,,,,,,None,,408.16640888983386,None,408.16640888983386,None,2021-11-12-09:28:34.805042,408.1772312996909,408.4823626000434,408.1772312996909,None,None,408.1772312996909,None,408.98404689030724,None,,,,11002,0001,2021_Nov_12_0921,localizer,2021.1.3,59.97922298309383,
block,scenes,scenes078.bmp,,,,,0,211,211,211,,,,,,,,,,,,,,,,,,,,,,,,,,,,,,,,,,,,,,,,,,None,,408.98404689030724,None,408.98404689030724,None,2021-11-12-09:28:35.624282,408.99810430034995,409.299472800456,408.99810430034995,None,None,408.99810430034995,None,409.79915309036153,None,,,,11002,0001,2021_Nov_12_0921,localizer,2021.1.3,59.97922298309383,
block_end,scenes,scenes004.bmp,,,,,0,212,212,212,,,,,,,,,,,,,,,,,,,,,,,,,,,,,,,,,,,,,,,,,,None,,409.79915309036153,None,409.79915309036153,None,2021-11-12-09:28:36.437335,409.8005793001503,410.11611330043525,409.8005793001503,None,None,409.8005793001503,None,410.59982448993253,None,,,,11002,0001,2021_Nov_12_0921,localizer,2021.1.3,59.97922298309383,
block_start,scrambled,scrambled063.bmp,,,,,0,213,213,213,,,,,,,,,,,,,,,,,,,,,,,,,,,,,,,,,,,,,,,,,,t,1.7606427995488048,410.5995415998623,None,410.5995415998623,None,2021-11-12-09:28:39.021513,412.394040199928,412.69957919977605,412.394040199928,None,None,412.394040199928,None,413.1994675899856,None,,,,11002,0001,2021_Nov_12_0921,localizer,2021.1.3,59.97922298309383,
block,scrambled,scrambled023.bmp,,,,,0,214,214,214,,,,,,,,,,,,,,,,,,,,,,,,,,,,,,,,,,,,,,,,,,None,,413.1994675899856,None,413.1994675899856,None,2021-11-12-09:28:39.837714,413.2003466002643,413.4995758002624,413.2003466002643,None,None,413.2003466002643,None,413.9999480898492,None,,,,11002,0001,2021_Nov_12_0921,localizer,2021.1.3,59.97922298309383,
block,scrambled,scrambled076.bmp,,,,,0,215,215,215,,,,,,,,,,,,,,,,,,,,,,,,,,,,,,,,,,,,,,,,,,None,,413.9999480898492,None,413.9999480898492,None,2021-11-12-09:28:40.641179,414.01425880007446,414.31660110037774,414.01425880007446,414.01425880007446,None,414.01425880007446,414.01425880007446,414.8167582898401,None,,,,11002,0001,2021_Nov_12_0921,localizer,2021.1.3,59.97922298309383,
block,scrambled,scrambled043.bmp,,,,,0,216,216,216,,,,,,,,,,,,,,,,,,,,,,,,,,,,,,,,,,,,,,,,,,None,,414.8167582898401,None,414.8167582898401,None,2021-11-12-09:28:41.456235,414.8272877000272,415.1329282997176,414.8272877000272,None,None,414.8272877000272,None,415.6331816901453,None,,,,11002,0001,2021_Nov_12_0921,localizer,2021.1.3,59.97922298309383,
block,scrambled,scrambled044.bmp,,,,,0,217,217,217,,,,,,,,,,,,,,,,,,,,,,,,,,,,,,,,,,,,,,,,,,None,,415.6331816901453,None,415.6331816901453,None,2021-11-12-09:28:42.271496,415.6431676996872,415.9496408002451,415.6431676996872,None,None,415.6431676996872,None,416.44962069010364,None,,,,11002,0001,2021_Nov_12_0921,localizer,2021.1.3,59.97922298309383,
block,scrambled,scrambled010.bmp,,,,,0,218,218,218,,,,,,,,,,,,,,,,,,,,,,,,,,,,,,,,,,,,,,,,,,None,,416.44962069010364,None,416.44962069010364,None,2021-11-12-09:28:43.088364,416.458108600229,416.766225900501,416.458108600229,None,None,416.458108600229,None,417.2669958899729,None,,,,11002,0001,2021_Nov_12_0921,localizer,2021.1.3,59.97922298309383,
block,scrambled,scrambled030.bmp,,,,,0,219,219,219,,,,,,,,,,,,,,,,,,,,,,,,,,,,,,,,,,,,,,,,,,None,,417.2669958899729,None,417.2669958899729,None,2021-11-12-09:28:43.906501,417.27852450031787,417.5829095998779,417.27852450031787,None,None,417.27852450031787,None,418.0835878903978,None,,,,11002,0001,2021_Nov_12_0921,localizer,2021.1.3,59.97922298309383,
block,scrambled,scrambled080.bmp,,,,,0,220,220,220,,,,,,,,,,,,,,,,,,,,,,,,,,,,,,,,,,,,,,,,,,None,,418.0835878903978,None,418.0835878903978,None,2021-11-12-09:28:44.722964,418.08509439975023,418.39988819975406,418.08509439975023,None,None,418.08509439975023,None,418.89968849057334,None,,,,11002,0001,2021_Nov_12_0921,localizer,2021.1.3,59.97922298309383,
block,scrambled,scrambled009.bmp,,,,,0,221,221,221,,,,,,,,,,,,,,,,,,,,,,,,,,,,,,,,,,,,,,,,,,None,,418.89968849057334,None,418.89968849057334,None,2021-11-12-09:28:45.538233,418.9097028998658,419.21605870034546,418.9097028998658,None,None,418.9097028998658,None,419.71645629024135,None,,,,11002,0001,2021_Nov_12_0921,localizer,2021.1.3,59.97922298309383,
block,scrambled,scrambled041.bmp,,,,,0,222,222,222,,,,,,,,,,,,,,,,,,,,,,,,,,,,,,,,,,,,,,,,,,None,,419.71645629024135,None,419.71645629024135,None,2021-11-12-09:28:46.355000,419.7171336999163,420.0162610998377,419.7171336999163,None,None,419.7171336999163,None,420.51649039043116,None,,,,11002,0001,2021_Nov_12_0921,localizer,2021.1.3,59.97922298309383,
block,scrambled,scrambled056.bmp,,,,,0,223,223,223,,,,,,,,,,,,,,,,,,,,,,,,,,,,,,,,,,,,,,,,,,None,,420.51649039043116,None,420.51649039043116,None,2021-11-12-09:28:47.156938,420.52838530018926,420.8327194005251,420.52838530018926,420.52838530018926,None,420.52838530018926,420.52838530018926,421.33303739028054,None,,,,11002,0001,2021_Nov_12_0921,localizer,2021.1.3,59.97922298309383,
block,scrambled,scrambled028.bmp,,,,,0,224,224,224,,,,,,,,,,,,,,,,,,,,,,,,,,,,,,,,,,,,,,,,,,None,,421.33303739028054,None,421.33303739028054,None,2021-11-12-09:28:47.971517,421.3336722003296,421.6327836001292,421.3336722003296,None,None,421.3336722003296,None,422.13351039020347,None,,,,11002,0001,2021_Nov_12_0921,localizer,2021.1.3,59.97922298309383,
block,scrambled,scrambled029.bmp,,,,,0,225,225,225,,,,,,,,,,,,,,,,,,,,,,,,,,,,,,,,,,,,,,,,,,None,,422.13351039020347,None,422.13351039020347,None,2021-11-12-09:28:48.774987,422.1363924006,422.45036470051855,422.1363924006,422.1363924006,None,422.1363924006,422.1363924006,422.9359962902032,None,,,,11002,0001,2021_Nov_12_0921,localizer,2021.1.3,59.97922298309383,
block,scrambled,scrambled084.bmp,,,,,0,226,226,226,,,,,,,,,,,,,,,,,,,,,,,,,,,,,,,,,,,,,,,,,,None,,422.9359962902032,None,422.9359962902032,None,2021-11-12-09:28:49.577642,422.94336290005594,423.2495047999546,422.94336290005594,422.94336290005594,None,422.94336290005594,422.94336290005594,423.74964069006967,None,,,,11002,0001,2021_Nov_12_0921,localizer,2021.1.3,59.97922298309383,
block_end,scrambled,scrambled047.bmp,,,,,0,227,227,227,,,,,,,,,,,,,,,,,,,,,,,,,,,,,,,,,,,,,,,,,,None,,423.74964069006967,None,423.74964069006967,None,2021-11-12-09:28:50.395416,423.7700986005366,424.0829579997808,423.7700986005366,None,None,423.7700986005366,None,424.56556539041924,None,,,,11002,0001,2021_Nov_12_0921,localizer,2021.1.3,59.97922298309383,
null_block,null_block,null_block.bmp,,,,,0,228,228,228,,,,,,,,,,,,,,,,,,,,,,,,,,,,,,,,,,,,,,,,,,t,1.794739100150764,424.56546169985086,None,424.56546169985086,None,2021-11-12-09:28:53.019473,426.3825716896914,None,426.3825716896914,None,None,426.3825716896914,None,426.38411230035126,None,,,,11002,0001,2021_Nov_12_0921,localizer,2021.1.3,59.97922298309383,
block_start,faces,faces046.bmp,,,,,0,229,229,229,,,,,,,,,,,,,,,,,,,,,,,,,,,,,,,,,,,,,,,,,,t,1.9591119000688195,438.3998402003199,None,438.3998402003199,None,2021-11-12-09:29:07.023880,440.3844894999638,440.6992939999327,440.3844894999638,None,None,440.3844894999638,None,441.19931779047477,None,,,,11002,0001,2021_Nov_12_0921,localizer,2021.1.3,59.97922298309383,
block,faces,faces044.bmp,,,,,0,230,230,230,,,,,,,,,,,,,,,,,,,,,,,,,,,,,,,,,,,,,,,,,,None,,441.19931779047477,None,441.19931779047477,None,2021-11-12-09:29:07.837378,441.2082799002528,441.5160387000069,441.2082799002528,None,None,441.2082799002528,None,442.01622598981487,None,,,,11002,0001,2021_Nov_12_0921,localizer,2021.1.3,59.97922298309383,
block,faces,faces031.bmp,,,,,0,231,231,231,,,,,,,,,,,,,,,,,,,,,,,,,,,,,,,,,,,,,,,,,,None,,442.01622598981487,None,442.01622598981487,None,2021-11-12-09:29:08.655301,442.02530890051275,442.3329464001581,442.02530890051275,None,None,442.02530890051275,None,442.83267849022525,None,,,,11002,0001,2021_Nov_12_0921,localizer,2021.1.3,59.97922298309383,
block,faces,faces033.bmp,,,,,0,232,232,232,,,,,,,,,,,,,,,,,,,,,,,,,,,,,,,,,,,,,,,,,,None,,442.83267849022525,None,442.83267849022525,None,2021-11-12-09:29:09.471780,442.84846210014075,443.14991649985313,442.84846210014075,None,None,442.84846210014075,None,443.6496828905307,None,,,,11002,0001,2021_Nov_12_0921,localizer,2021.1.3,59.97922298309383,
block,faces,faces069.bmp,,,,,0,233,233,233,,,,,,,,,,,,,,,,,,,,,,,,,,,,,,,,,,,,,,,,,,None,,443.6496828905307,None,443.6496828905307,None,2021-11-12-09:29:10.288806,443.660284999758,443.9660831000656,443.660284999758,None,None,443.660284999758,None,444.4566068899818,None,,,,11002,0001,2021_Nov_12_0921,localizer,2021.1.3,59.97922298309383,
block,faces,faces030.bmp,,,,,0,234,234,234,,,,,,,,,,,,,,,,,,,,,,,,,,,,,,,,,,,,,,,,,,None,,444.4566068899818,None,444.4566068899818,None,2021-11-12-09:29:11.103541,444.4670606004074,444.7825512001291,444.4670606004074,None,None,444.4670606004074,None,445.26661988990384,None,,,,11002,0001,2021_Nov_12_0921,localizer,2021.1.3,59.97922298309383,
block,faces,faces034.bmp,,,,,0,235,235,235,,,,,,,,,,,,,,,,,,,,,,,,,,,,,,,,,,,,,,,,,,None,,445.26661988990384,None,445.26661988990384,None,2021-11-12-09:29:11.905311,445.27500210050493,445.5832964004949,445.27500210050493,None,None,445.27500210050493,None,446.0833902898245,None,,,,11002,0001,2021_Nov_12_0921,localizer,2021.1.3,59.97922298309383,
block,faces,faces026.bmp,,,,,0,236,236,236,,,,,,,,,,,,,,,,,,,,,,,,,,,,,,,,,,,,,,,,,,None,,446.0833902898245,None,446.0833902898245,None,2021-11-12-09:29:12.722776,446.1218467997387,446.43276039976627,446.1218467997387,None,None,446.1218467997387,None,446.89972119024026,None,,,,11002,0001,2021_Nov_12_0921,localizer,2021.1.3,59.97922298309383,
block,faces,faces040.bmp,,,,,0,237,237,237,,,,,,,,,,,,,,,,,,,,,,,,,,,,,,,,,,,,,,,,,,None,,446.89972119024026,None,446.89972119024026,None,2021-11-12-09:29:13.538936,446.90980040002614,447.2163577005267,446.90980040002614,None,None,446.90980040002614,None,447.71639148974793,None,,,,11002,0001,2021_Nov_12_0921,localizer,2021.1.3,59.97922298309383,
block,faces,faces089.bmp,,,,,0,238,238,238,,,,,,,,,,,,,,,,,,,,,,,,,,,,,,,,,,,,,,,,,,None,,447.71639148974793,None,447.71639148974793,None,2021-11-12-09:29:14.355628,447.71726839989424,448.03253469988704,447.71726839989424,None,None,447.71726839989424,None,448.53288959050553,None,,,,11002,0001,2021_Nov_12_0921,localizer,2021.1.3,59.97922298309383,
block,faces,faces051.bmp,,,,,0,239,239,239,,,,,,,,,,,,,,,,,,,,,,,,,,,,,,,,,,,,,,,,,,None,,448.53288959050553,None,448.53288959050553,None,2021-11-12-09:29:15.172151,448.5432679997757,448.84974170010537,448.5432679997757,None,None,448.5432679997757,None,449.34955248972403,None,,,,11002,0001,2021_Nov_12_0921,localizer,2021.1.3,59.97922298309383,
block,faces,faces063.bmp,,,,,0,240,240,240,,,,,,,,,,,,,,,,,,,,,,,,,,,,,,,,,,,,,,,,,,None,,449.34955248972403,None,449.34955248972403,None,2021-11-12-09:29:15.988842,449.3507626000792,449.66619880031794,449.3507626000792,None,None,449.3507626000792,None,450.16643019011246,None,,,,11002,0001,2021_Nov_12_0921,localizer,2021.1.3,59.97922298309383,
block,faces,faces063.bmp,,,,,0,241,241,241,,,,,,,,,,,,,,,,,,,,,,,,,,,,,,,,,,,,,,,,,,None,,450.16643019011246,None,450.16643019011246,None,2021-11-12-09:29:16.805742,450.1673820000142,450.4825614998117,450.1673820000142,None,y,450.1673820000142,None,450.96646289052444,None,0.514708399772644,,,11002,0001,2021_Nov_12_0921,localizer,2021.1.3,59.97922298309383,
block,faces,faces037.bmp,,,,,0,242,242,242,,,,,,,,,,,,,,,,,,,,,,,,,,,,,,,,,,,,,,,,,,None,,450.96646289052444,None,450.96646289052444,None,2021-11-12-09:29:17.606792,450.96730319969356,451.2663772003725,450.96730319969356,450.96730319969356,None,450.96730319969356,450.96730319969356,451.7727857901715,None,,,,11002,0001,2021_Nov_12_0921,localizer,2021.1.3,59.97922298309383,
block_end,faces,faces018.bmp,,,,,0,243,243,243,,,,,,,,,,,,,,,,,,,,,,,,,,,,,,,,,,,,,,,,,,None,,451.7727857901715,None,451.7727857901715,None,2021-11-12-09:29:18.419925,451.7898907000199,452.0998057005927,451.7898907000199,None,None,451.7898907000199,None,452.58379509011286,None,,,,11002,0001,2021_Nov_12_0921,localizer,2021.1.3,59.97922298309383,
,,,,,,,,,,,,,,,,,,,,,,,,,,,,,,,,,,,,,,,,,,,,,,,,,,,,,,,,,,,,,,,,,,,,,452.58238209970295,None,,,,,,,
