block_type,condition,img_name,Button.thisRepN,Button.thisTrialN,Button.thisN,Button.thisIndex,trials.thisRepN,trials.thisTrialN,trials.thisN,trials.thisIndex,Ready_experimenter_text.started,Ready_experimenter_text.stopped,Ready_experimenter_resp.keys,Ready_experimenter_resp.rt,Ready_experimenter_resp.started,Ready_experimenter_resp.stopped,Alignment_background.started,Alignment_background.stopped,Alignment_image.started,Alignment_image.stopped,Alignment_resp.keys,Alignment_resp.rt,Alignment_resp.started,Alignment_resp.stopped,Button_text.started,Button_text.stopped,Index_text.started,Index_text.stopped,Index_resp.keys,Index_resp.rt,Index_resp.started,Index_resp.stopped,Middle_text.started,Middle_text.stopped,Middle_resp.keys,Middle_resp.rt,Middle_resp.started,Middle_resp.stopped,Repeat_text.started,Repeat_text.stopped,Repeat_resp.keys,Repeat_resp.corr,Repeat_resp.rt,Repeat_resp.started,Repeat_resp.stopped,instruction_text.started,instruction_text.stopped,key_resp.keys,key_resp.rt,key_resp.started,key_resp.stopped,scanner_t.keys,scanner_t.rt,scanner_t.started,scanner_t.stopped,fixation_wait_for_t.started,fixation_wait_for_t.stopped,real_timestamp_trial_start,image.started,image.stopped,fixation.started,fixation.stopped,repeat_response.keys,repeat_response.started,repeat_response.stopped,fixation_null.started,fixation_null.stopped,repeat_response.rt,end_text.started,end_text.stopped,participant,run,date,expName,psychopyVersion,frameRate,
,,,,,,,,,,,17.454958700574934,None,return,25.91058269981295,17.454958700574934,None,,,,,,,,,,,,,,,,,,,,,,,,,,,,,,,,,,,,,,,,,,,,,,,,,,,,,,,11003,0002,2021_Nov_12_1503,localizer,2021.1.3,59.944311631464515,
,,,,,,,,,,,,,,,,,43.412453500553966,None,43.412453500553966,None,return,1.3061977000907063,43.412453500553966,None,,,,,,,,,,,,,,,,,,,,,,,,,,,,,,,,,,,,,,,,,,,,,,,11003,0002,2021_Nov_12_1503,localizer,2021.1.3,59.944311631464515,
,,,0,0,0,0,,,,,,,,,,,,,,,,,,,44.731315299868584,None,45.73178840056062,None,y,6.529668600298464,45.73178840056062,None,52.28267019987106,None,b,4.971086099743843,52.28267019987106,None,57.28210860025138,None,n,0,82.6168958004564,57.28210860025138,None,,,,,,,,,,,,,,,,,,,,,,,,,,11003,0002,2021_Nov_12_1503,localizer,2021.1.3,59.944311631464515,
,,,,,,,,,,,,,,,,,,,,,,,,,,,,,,,,,,,,,,,,,,,,,,139.91631969995797,None,y,11.581686099991202,139.91631969995797,None,,,,,,,,,,,,,,,,,,,,11003,0002,2021_Nov_12_1503,localizer,2021.1.3,59.944311631464515,
null_block,null_block,null_block.bmp,,,,,0,0,0,0,,,,,,,,,,,,,,,,,,,,,,,,,,,,,,,,,,,,,,,,,,t,9.401160299777985,151.5763925006613,None,151.5763925006613,None,2021-11-12-15:05:27.769106,161.01558252032845,None,161.01558252032845,None,None,161.01558252032845,None,161.01613240037113,None,,,,11003,0002,2021_Nov_12_1503,localizer,2021.1.3,59.944311631464515,
block_start,scenes,scenes022.bmp,,,,,0,1,1,1,,,,,,,,,,,,,,,,,,,,,,,,,,,,,,,,,,,,,,,,,,t,1.2571096001192927,173.01561550050974,None,173.01561550050974,None,2021-11-12-15:05:41.073210,174.31411819998175,174.6156481001526,174.31411819998175,None,None,174.31411819998175,None,175.1156634603627,None,,,,11003,0002,2021_Nov_12_1503,localizer,2021.1.3,59.944311631464515,
block,scenes,scenes007.bmp,,,,,0,2,2,2,,,,,,,,,,,,,,,,,,,,,,,,,,,,,,,,,,,,,,,,,,None,,175.1156634603627,None,175.1156634603627,None,2021-11-12-15:05:41.891881,175.1377220004797,175.44895400013775,175.1377220004797,None,None,175.1377220004797,None,175.9322995598428,None,,,,11003,0002,2021_Nov_12_1503,localizer,2021.1.3,59.944311631464515,
block,scenes,scenes008.bmp,,,,,0,3,3,3,,,,,,,,,,,,,,,,,,,,,,,,,,,,,,,,,,,,,,,,,,None,,175.9322995598428,None,175.9322995598428,None,2021-11-12-15:05:42.707721,175.9474223004654,176.24889700021595,175.9474223004654,None,None,175.9474223004654,None,176.74889616006985,None,,,,11003,0002,2021_Nov_12_1503,localizer,2021.1.3,59.944311631464515,
block,scenes,scenes038.bmp,,,,,0,4,4,4,,,,,,,,,,,,,,,,,,,,,,,,,,,,,,,,,,,,,,,,,,None,,176.74889616006985,None,176.74889616006985,None,2021-11-12-15:05:43.523201,176.76164219994098,177.06564250029624,176.76164219994098,None,None,176.76164219994098,None,177.56558615984395,None,,,,11003,0002,2021_Nov_12_1503,localizer,2021.1.3,59.944311631464515,
block,scenes,scenes041.bmp,,,,,0,5,5,5,,,,,,,,,,,,,,,,,,,,,,,,,,,,,,,,,,,,,,,,,,None,,177.56558615984395,None,177.56558615984395,None,2021-11-12-15:05:44.339996,177.60165540035814,177.91559750027955,177.60165540035814,None,None,177.60165540035814,None,178.38223346034064,None,,,,11003,0002,2021_Nov_12_1503,localizer,2021.1.3,59.944311631464515,
block,scenes,scenes089.bmp,,,,,0,6,6,6,,,,,,,,,,,,,,,,,,,,,,,,,,,,,,,,,,,,,,,,,,None,,178.38223346034064,None,178.38223346034064,None,2021-11-12-15:05:45.156656,178.39635790046304,178.69896609988064,178.39635790046304,None,None,178.39635790046304,None,179.1989993601106,None,,,,11003,0002,2021_Nov_12_1503,localizer,2021.1.3,59.944311631464515,
block,scenes,scenes020.bmp,,,,,0,7,7,7,,,,,,,,,,,,,,,,,,,,,,,,,,,,,,,,,,,,,,,,,,None,,179.1989993601106,None,179.1989993601106,None,2021-11-12-15:05:45.973420,179.21184850018471,179.51563780009747,179.21184850018471,None,None,179.21184850018471,None,180.01571946023032,None,,,,11003,0002,2021_Nov_12_1503,localizer,2021.1.3,59.944311631464515,
block,scenes,scenes091.bmp,,,,,0,8,8,8,,,,,,,,,,,,,,,,,,,,,,,,,,,,,,,,,,,,,,,,,,None,,180.01571946023032,None,180.01571946023032,None,2021-11-12-15:05:46.790154,180.02864759974182,180.33231440000236,180.02864759974182,None,None,180.02864759974182,None,180.8322485600598,None,,,,11003,0002,2021_Nov_12_1503,localizer,2021.1.3,59.944311631464515,
block,scenes,scenes058.bmp,,,,,0,9,9,9,,,,,,,,,,,,,,,,,,,,,,,,,,,,,,,,,,,,,,,,,,None,,180.8322485600598,None,180.8322485600598,None,2021-11-12-15:05:47.605728,180.85183090064675,181.1656595999375,180.85183090064675,None,None,180.85183090064675,None,181.6489375605248,None,,,,11003,0002,2021_Nov_12_1503,localizer,2021.1.3,59.944311631464515,
block,scenes,scenes045.bmp,,,,,0,10,10,10,,,,,,,,,,,,,,,,,,,,,,,,,,,,,,,,,,,,,,,,,,None,,181.6489375605248,None,181.6489375605248,None,2021-11-12-15:05:48.423154,181.66920999996364,181.982321199961,181.66920999996364,None,None,181.66920999996364,None,182.4656807602383,None,,,,11003,0002,2021_Nov_12_1503,localizer,2021.1.3,59.944311631464515,
block,scenes,scenes019.bmp,,,,,0,11,11,11,,,,,,,,,,,,,,,,,,,,,,,,,,,,,,,,,,,,,,,,,,None,,182.4656807602383,None,182.4656807602383,None,2021-11-12-15:05:49.240106,182.49697470013052,182.7990011004731,182.49697470013052,None,None,182.49697470013052,None,183.28228696053847,None,,,,11003,0002,2021_Nov_12_1503,localizer,2021.1.3,59.944311631464515,
block,scenes,scenes025.bmp,,,,,0,12,12,12,,,,,,,,,,,,,,,,,,,,,,,,,,,,,,,,,,,,,,,,,,None,,183.28228696053847,None,183.28228696053847,None,2021-11-12-15:05:50.056570,183.30347330030054,183.61565029993653,183.30347330030054,None,None,183.30347330030054,None,184.09902865989133,None,,,,11003,0002,2021_Nov_12_1503,localizer,2021.1.3,59.944311631464515,
block,scenes,scenes014.bmp,,,,,0,13,13,13,,,,,,,,,,,,,,,,,,,,,,,,,,,,,,,,,,,,,,,,,,None,,184.09902865989133,None,184.09902865989133,None,2021-11-12-15:05:50.873458,184.11866390053183,184.43234509974718,184.11866390053183,None,None,184.11866390053183,None,184.91568166008219,None,,,,11003,0002,2021_Nov_12_1503,localizer,2021.1.3,59.944311631464515,
block,scenes,scenes084.bmp,,,,,0,14,14,14,,,,,,,,,,,,,,,,,,,,,,,,,,,,,,,,,,,,,,,,,,None,,184.91568166008219,None,184.91568166008219,None,2021-11-12-15:05:51.689131,184.93454470019788,185.24901270028204,184.93454470019788,None,None,184.93454470019788,None,185.7323545598425,None,,,,11003,0002,2021_Nov_12_1503,localizer,2021.1.3,59.944311631464515,
block_end,scenes,scenes053.bmp,,,,,0,15,15,15,,,,,,,,,,,,,,,,,,,,,,,,,,,,,,,,,,,,,,,,,,None,,185.7323545598425,None,185.7323545598425,None,2021-11-12-15:05:52.506326,185.74788630008698,186.04901930037886,185.74788630008698,None,None,185.74788630008698,None,186.54903266010805,None,,,,11003,0002,2021_Nov_12_1503,localizer,2021.1.3,59.944311631464515,
block_start,objects,objects042.bmp,,,,,0,16,16,16,,,,,,,,,,,,,,,,,,,,,,,,,,,,,,,,,,,,,,,,,,t,2.8716120002791286,186.54897950030863,None,186.54897950030863,None,2021-11-12-15:05:56.221494,189.4610946001485,189.76562890037894,189.4610946001485,None,None,189.4610946001485,None,190.26564146010205,None,,,,11003,0002,2021_Nov_12_1503,localizer,2021.1.3,59.944311631464515,
block,objects,objects078.bmp,,,,,0,17,17,17,,,,,,,,,,,,,,,,,,,,,,,,,,,,,,,,,,,,,,,,,,None,,190.26564146010205,None,190.26564146010205,None,2021-11-12-15:05:57.040051,190.28713269997388,190.59905530046672,190.28713269997388,None,None,190.28713269997388,None,191.08223026050254,None,,,,11003,0002,2021_Nov_12_1503,localizer,2021.1.3,59.944311631464515,
block,objects,objects029.bmp,,,,,0,18,18,18,,,,,,,,,,,,,,,,,,,,,,,,,,,,,,,,,,,,,,,,,,None,,191.08223026050254,None,191.08223026050254,None,2021-11-12-15:05:57.853549,191.09049510024488,191.3989703003317,191.09049510024488,None,None,191.09049510024488,None,191.89884845996275,None,,,,11003,0002,2021_Nov_12_1503,localizer,2021.1.3,59.944311631464515,
block,objects,objects039.bmp,,,,,0,19,19,19,,,,,,,,,,,,,,,,,,,,,,,,,,,,,,,,,,,,,,,,,,None,,191.89884845996275,None,191.89884845996275,None,2021-11-12-15:05:58.668400,191.90418689977378,192.21571569982916,191.90418689977378,None,None,191.90418689977378,None,192.71573096038773,None,,,,11003,0002,2021_Nov_12_1503,localizer,2021.1.3,59.944311631464515,
block,objects,objects072.bmp,,,,,0,20,20,20,,,,,,,,,,,,,,,,,,,,,,,,,,,,,,,,,,,,,,,,,,None,,192.71573096038773,None,192.71573096038773,None,2021-11-12-15:05:59.489961,192.73627140000463,193.04904299974442,192.73627140000463,None,None,192.73627140000463,None,193.53237585993483,None,,,,11003,0002,2021_Nov_12_1503,localizer,2021.1.3,59.944311631464515,
block,objects,objects082.bmp,,,,,0,21,21,21,,,,,,,,,,,,,,,,,,,,,,,,,,,,,,,,,,,,,,,,,,None,,193.53237585993483,None,193.53237585993483,None,2021-11-12-15:06:00.307597,193.5462397998199,193.84904380049556,193.5462397998199,None,None,193.5462397998199,None,194.34907545978203,None,,,,11003,0002,2021_Nov_12_1503,localizer,2021.1.3,59.944311631464515,
block,objects,objects077.bmp,,,,,0,22,22,22,,,,,,,,,,,,,,,,,,,,,,,,,,,,,,,,,,,,,,,,,,None,,194.34907545978203,None,194.34907545978203,None,2021-11-12-15:06:01.123025,194.36920149996877,194.68240770045668,194.36920149996877,None,None,194.36920149996877,None,195.1656420602463,None,,,,11003,0002,2021_Nov_12_1503,localizer,2021.1.3,59.944311631464515,
block,objects,objects088.bmp,,,,,0,23,23,23,,,,,,,,,,,,,,,,,,,,,,,,,,,,,,,,,,,,,,,,,,None,,195.1656420602463,None,195.1656420602463,None,2021-11-12-15:06:01.940078,195.1797071006149,195.48238140065223,195.1797071006149,None,None,195.1797071006149,None,195.98241196004673,None,,,,11003,0002,2021_Nov_12_1503,localizer,2021.1.3,59.944311631464515,
block,objects,objects016.bmp,,,,,0,24,24,24,,,,,,,,,,,,,,,,,,,,,,,,,,,,,,,,,,,,,,,,,,None,,195.98241196004673,None,195.98241196004673,None,2021-11-12-15:06:02.757389,196.004494599998,196.31574210058898,196.004494599998,None,None,196.004494599998,None,196.79909346057102,None,,,,11003,0002,2021_Nov_12_1503,localizer,2021.1.3,59.944311631464515,
block,objects,objects016.bmp,,,,,0,25,25,25,,,,,,,,,,,,,,,,,,,,,,,,,,,,,,,,,,,,,,,,,,None,,196.79909346057102,None,196.79909346057102,None,2021-11-12-15:06:03.573522,196.81192050036043,197.11570880003273,196.81192050036043,None,y,196.81192050036043,None,197.61576066063716,None,0.4856646005064249,,,11003,0002,2021_Nov_12_1503,localizer,2021.1.3,59.944311631464515,
block,objects,objects044.bmp,,,,,0,26,26,26,,,,,,,,,,,,,,,,,,,,,,,,,,,,,,,,,,,,,,,,,,None,,197.61576066063716,None,197.61576066063716,None,2021-11-12-15:06:04.389973,197.6365795005113,197.94908490031958,197.6365795005113,None,None,197.6365795005113,None,198.4324391604401,None,,,,11003,0002,2021_Nov_12_1503,localizer,2021.1.3,59.944311631464515,
block,objects,objects030.bmp,,,,,0,27,27,27,,,,,,,,,,,,,,,,,,,,,,,,,,,,,,,,,,,,,,,,,,None,,198.4324391604401,None,198.4324391604401,None,2021-11-12-15:06:05.207669,198.44625240005553,198.74909059982747,198.44625240005553,None,None,198.44625240005553,None,199.24908266020938,None,,,,11003,0002,2021_Nov_12_1503,localizer,2021.1.3,59.944311631464515,
block,objects,objects024.bmp,,,,,0,28,28,28,,,,,,,,,,,,,,,,,,,,,,,,,,,,,,,,,,,,,,,,,,None,,199.24908266020938,None,199.24908266020938,None,2021-11-12-15:06:06.022168,199.2605725005269,199.56574090011418,199.2605725005269,None,None,199.2605725005269,None,200.0657902601175,None,,,,11003,0002,2021_Nov_12_1503,localizer,2021.1.3,59.944311631464515,
block,objects,objects031.bmp,,,,,0,29,29,29,,,,,,,,,,,,,,,,,,,,,,,,,,,,,,,,,,,,,,,,,,None,,200.0657902601175,None,200.0657902601175,None,2021-11-12-15:06:06.840022,200.08614089991897,200.39890620019287,200.08614089991897,None,None,200.08614089991897,None,200.8824702602811,None,,,,11003,0002,2021_Nov_12_1503,localizer,2021.1.3,59.944311631464515,
block_end,objects,objects046.bmp,,,,,0,30,30,30,,,,,,,,,,,,,,,,,,,,,,,,,,,,,,,,,,,,,,,,,,None,,200.8824702602811,None,200.8824702602811,None,2021-11-12-15:06:07.656692,200.9025928005576,201.21575560048223,200.9025928005576,None,None,200.9025928005576,None,201.6991000602953,None,,,,11003,0002,2021_Nov_12_1503,localizer,2021.1.3,59.944311631464515,
block_start,faces,faces053.bmp,,,,,0,31,31,31,,,,,,,,,,,,,,,,,,,,,,,,,,,,,,,,,,,,,,,,,,t,3.4016546001657844,201.6990916999057,None,201.6990916999057,None,2021-11-12-15:06:11.887933,205.12923900038004,205.43202150054276,205.12923900038004,None,None,205.12923900038004,None,205.9324922597967,None,,,,11003,0002,2021_Nov_12_1503,localizer,2021.1.3,59.944311631464515,
block,faces,faces040.bmp,,,,,0,32,32,32,,,,,,,,,,,,,,,,,,,,,,,,,,,,,,,,,,,,,,,,,,None,,205.9324922597967,None,205.9324922597967,None,2021-11-12-15:06:12.707908,205.94567489996552,206.249125899747,205.94567489996552,None,None,205.94567489996552,None,206.7489431601949,None,,,,11003,0002,2021_Nov_12_1503,localizer,2021.1.3,59.944311631464515,
block,faces,faces089.bmp,,,,,0,33,33,33,,,,,,,,,,,,,,,,,,,,,,,,,,,,,,,,,,,,,,,,,,None,,206.7489431601949,None,206.7489431601949,None,2021-11-12-15:06:13.523155,206.76505680009723,207.06535460054874,206.76505680009723,None,None,206.76505680009723,None,207.5658078602515,None,,,,11003,0002,2021_Nov_12_1503,localizer,2021.1.3,59.944311631464515,
block,faces,faces072.bmp,,,,,0,34,34,34,,,,,,,,,,,,,,,,,,,,,,,,,,,,,,,,,,,,,,,,,,None,,207.5658078602515,None,207.5658078602515,None,2021-11-12-15:06:14.340236,207.57994410023093,207.88227319996804,207.57994410023093,None,None,207.57994410023093,None,208.38235385986044,None,,,,11003,0002,2021_Nov_12_1503,localizer,2021.1.3,59.944311631464515,
block,faces,faces013.bmp,,,,,0,35,35,35,,,,,,,,,,,,,,,,,,,,,,,,,,,,,,,,,,,,,,,,,,None,,208.38235385986044,None,208.38235385986044,None,2021-11-12-15:06:15.156744,208.3963598003611,208.69915040023625,208.3963598003611,None,None,208.3963598003611,None,209.19914086060598,None,,,,11003,0002,2021_Nov_12_1503,localizer,2021.1.3,59.944311631464515,
block,faces,faces052.bmp,,,,,0,36,36,36,,,,,,,,,,,,,,,,,,,,,,,,,,,,,,,,,,,,,,,,,,None,,209.19914086060598,None,209.19914086060598,None,2021-11-12-15:06:15.972566,209.2184115005657,209.53229490015656,209.2184115005657,None,None,209.2184115005657,None,210.01565636033192,None,,,,11003,0002,2021_Nov_12_1503,localizer,2021.1.3,59.944311631464515,
block,faces,faces085.bmp,,,,,0,37,37,37,,,,,,,,,,,,,,,,,,,,,,,,,,,,,,,,,,,,,,,,,,None,,210.01565636033192,None,210.01565636033192,None,2021-11-12-15:06:16.789887,210.0283169001341,210.3324570003897,210.0283169001341,None,None,210.0283169001341,None,210.83229606030508,None,,,,11003,0002,2021_Nov_12_1503,localizer,2021.1.3,59.944311631464515,
block,faces,faces003.bmp,,,,,0,38,38,38,,,,,,,,,,,,,,,,,,,,,,,,,,,,,,,,,,,,,,,,,,None,,210.83229606030508,None,210.83229606030508,None,2021-11-12-15:06:17.598859,210.84630759991705,211.1491031004116,210.84630759991705,None,None,210.84630759991705,None,211.64914375999942,None,,,,11003,0002,2021_Nov_12_1503,localizer,2021.1.3,59.944311631464515,
block,faces,faces034.bmp,,,,,0,39,39,39,,,,,,,,,,,,,,,,,,,,,,,,,,,,,,,,,,,,,,,,,,None,,211.64914375999942,None,211.64914375999942,None,2021-11-12-15:06:18.423571,211.66200880054384,211.96579010039568,211.66200880054384,None,None,211.66200880054384,None,212.4658498604782,None,,,,11003,0002,2021_Nov_12_1503,localizer,2021.1.3,59.944311631464515,
block,faces,faces058.bmp,,,,,0,40,40,40,,,,,,,,,,,,,,,,,,,,,,,,,,,,,,,,,,,,,,,,,,None,,212.4658498604782,None,212.4658498604782,None,2021-11-12-15:06:19.240081,212.48580260016024,212.79909420013428,212.48580260016024,None,None,212.48580260016024,None,213.28249846016988,None,,,,11003,0002,2021_Nov_12_1503,localizer,2021.1.3,59.944311631464515,
block,faces,faces081.bmp,,,,,0,41,41,41,,,,,,,,,,,,,,,,,,,,,,,,,,,,,,,,,,,,,,,,,,None,,213.28249846016988,None,213.28249846016988,None,2021-11-12-15:06:20.055734,213.30177609995008,213.61582420021296,213.30177609995008,None,None,213.30177609995008,None,214.0991672602482,None,,,,11003,0002,2021_Nov_12_1503,localizer,2021.1.3,59.944311631464515,
block,faces,faces001.bmp,,,,,0,42,42,42,,,,,,,,,,,,,,,,,,,,,,,,,,,,,,,,,,,,,,,,,,None,,214.0991672602482,None,214.0991672602482,None,2021-11-12-15:06:20.872943,214.120412199758,214.4324754998088,214.120412199758,None,None,214.120412199758,None,214.91584416003897,None,,,,11003,0002,2021_Nov_12_1503,localizer,2021.1.3,59.944311631464515,
block,faces,faces031.bmp,,,,,0,43,43,43,,,,,,,,,,,,,,,,,,,,,,,,,,,,,,,,,,,,,,,,,,None,,214.91584416003897,None,214.91584416003897,None,2021-11-12-15:06:21.690053,214.93621640000492,215.249053100124,214.93621640000492,None,None,214.93621640000492,None,215.73252326054498,None,,,,11003,0002,2021_Nov_12_1503,localizer,2021.1.3,59.944311631464515,
block,faces,faces080.bmp,,,,,0,44,44,44,,,,,,,,,,,,,,,,,,,,,,,,,,,,,,,,,,,,,,,,,,None,,215.73252326054498,None,215.73252326054498,None,2021-11-12-15:06:22.506949,215.74764990061522,216.048943400383,215.74764990061522,None,None,215.74764990061522,None,216.5491916601546,None,,,,11003,0002,2021_Nov_12_1503,localizer,2021.1.3,59.944311631464515,
block_end,faces,faces038.bmp,,,,,0,45,45,45,,,,,,,,,,,,,,,,,,,,,,,,,,,,,,,,,,,,,,,,,,None,,216.5491916601546,None,216.5491916601546,None,2021-11-12-15:06:23.323634,216.57027720008045,216.8824359998107,216.57027720008045,None,None,216.57027720008045,None,217.3657340602018,None,,,,11003,0002,2021_Nov_12_1503,localizer,2021.1.3,59.944311631464515,
block_start,scrambled,scrambled038.bmp,,,,,0,46,46,46,,,,,,,,,,,,,,,,,,,,,,,,,,,,,,,,,,,,,,,,,,t,2.210597699508071,217.3656652001664,None,217.3656652001664,None,2021-11-12-15:06:26.371671,219.61868039984256,219.93244510050863,219.61868039984256,None,None,219.61868039984256,None,220.4158162604086,None,,,,11003,0002,2021_Nov_12_1503,localizer,2021.1.3,59.944311631464515,
block,scrambled,scrambled076.bmp,,,,,0,47,47,47,,,,,,,,,,,,,,,,,,,,,,,,,,,,,,,,,,,,,,,,,,None,,220.4158162604086,None,220.4158162604086,None,2021-11-12-15:06:27.190027,220.42974739987403,220.73249420057982,220.42974739987403,None,None,220.42974739987403,None,221.23259246060624,None,,,,11003,0002,2021_Nov_12_1503,localizer,2021.1.3,59.944311631464515,
block,scrambled,scrambled017.bmp,,,,,0,48,48,48,,,,,,,,,,,,,,,,,,,,,,,,,,,,,,,,,,,,,,,,,,None,,221.23259246060624,None,221.23259246060624,None,2021-11-12-15:06:28.006831,221.25359710026532,221.56587400007993,221.25359710026532,None,None,221.25359710026532,None,222.04922426017,None,,,,11003,0002,2021_Nov_12_1503,localizer,2021.1.3,59.944311631464515,
block,scrambled,scrambled040.bmp,,,,,0,49,49,49,,,,,,,,,,,,,,,,,,,,,,,,,,,,,,,,,,,,,,,,,,None,,222.04922426017,None,222.04922426017,None,2021-11-12-15:06:28.823647,222.06929890066385,222.38228490017354,222.06929890066385,None,None,222.06929890066385,None,222.86589606003835,None,,,,11003,0002,2021_Nov_12_1503,localizer,2021.1.3,59.944311631464515,
block,scrambled,scrambled079.bmp,,,,,0,50,50,50,,,,,,,,,,,,,,,,,,,,,,,,,,,,,,,,,,,,,,,,,,None,,222.86589606003835,None,222.86589606003835,None,2021-11-12-15:06:29.639840,222.87980910018086,223.18255640007555,222.87980910018086,None,None,222.87980910018086,None,223.68249776018783,None,,,,11003,0002,2021_Nov_12_1503,localizer,2021.1.3,59.944311631464515,
block,scrambled,scrambled072.bmp,,,,,0,51,51,51,,,,,,,,,,,,,,,,,,,,,,,,,,,,,,,,,,,,,,,,,,None,,223.68249776018783,None,223.68249776018783,None,2021-11-12-15:06:30.456719,223.70339930057526,224.015887000598,223.70339930057526,None,None,223.70339930057526,None,224.4992457599379,None,,,,11003,0002,2021_Nov_12_1503,localizer,2021.1.3,59.944311631464515,
block,scrambled,scrambled070.bmp,,,,,0,52,52,52,,,,,,,,,,,,,,,,,,,,,,,,,,,,,,,,,,,,,,,,,,None,,224.4992457599379,None,224.4992457599379,None,2021-11-12-15:06:31.274481,224.52120140008628,224.83245099987835,224.52120140008628,None,None,224.52120140008628,None,225.31582146035507,None,,,,11003,0002,2021_Nov_12_1503,localizer,2021.1.3,59.944311631464515,
block,scrambled,scrambled032.bmp,,,,,0,53,53,53,,,,,,,,,,,,,,,,,,,,,,,,,,,,,,,,,,,,,,,,,,None,,225.31582146035507,None,225.31582146035507,None,2021-11-12-15:06:32.090040,225.32963570021093,225.6325759002939,225.32963570021093,None,None,225.32963570021093,None,226.1324050602503,None,,,,11003,0002,2021_Nov_12_1503,localizer,2021.1.3,59.944311631464515,
block,scrambled,scrambled035.bmp,,,,,0,54,54,54,,,,,,,,,,,,,,,,,,,,,,,,,,,,,,,,,,,,,,,,,,None,,226.1324050602503,None,226.1324050602503,None,2021-11-12-15:06:32.900710,226.13496519997716,226.44918810017407,226.13496519997716,None,None,226.13496519997716,None,226.94926276048645,None,,,,11003,0002,2021_Nov_12_1503,localizer,2021.1.3,59.944311631464515,
block,scrambled,scrambled081.bmp,,,,,0,55,55,55,,,,,,,,,,,,,,,,,,,,,,,,,,,,,,,,,,,,,,,,,,None,,226.94926276048645,None,226.94926276048645,None,2021-11-12-15:06:33.723683,226.97187309991568,227.2825570004061,226.97187309991568,None,None,226.97187309991568,None,227.76591186029836,None,,,,11003,0002,2021_Nov_12_1503,localizer,2021.1.3,59.944311631464515,
block,scrambled,scrambled073.bmp,,,,,0,56,56,56,,,,,,,,,,,,,,,,,,,,,,,,,,,,,,,,,,,,,,,,,,None,,227.76591186029836,None,227.76591186029836,None,2021-11-12-15:06:34.541132,227.78084200061858,228.0825661001727,227.78084200061858,None,None,227.78084200061858,None,228.58259586049243,None,,,,11003,0002,2021_Nov_12_1503,localizer,2021.1.3,59.944311631464515,
block,scrambled,scrambled080.bmp,,,,,0,57,57,57,,,,,,,,,,,,,,,,,,,,,,,,,,,,,,,,,,,,,,,,,,None,,228.58259586049243,None,228.58259586049243,None,2021-11-12-15:06:35.357009,228.60283260047436,228.91589669976383,228.60283260047436,None,None,228.60283260047436,None,229.39927246039733,None,,,,11003,0002,2021_Nov_12_1503,localizer,2021.1.3,59.944311631464515,
block,scrambled,scrambled029.bmp,,,,,0,58,58,58,,,,,,,,,,,,,,,,,,,,,,,,,,,,,,,,,,,,,,,,,,None,,229.39927246039733,None,229.39927246039733,None,2021-11-12-15:06:36.173490,229.42016249988228,229.73253250028938,229.42016249988228,None,None,229.42016249988228,None,230.21577625991776,None,,,,11003,0002,2021_Nov_12_1503,localizer,2021.1.3,59.944311631464515,
block,scrambled,scrambled042.bmp,,,,,0,59,59,59,,,,,,,,,,,,,,,,,,,,,,,,,,,,,,,,,,,,,,,,,,None,,230.21577625991776,None,230.21577625991776,None,2021-11-12-15:06:36.982133,230.21682719979435,230.5159208001569,230.21682719979435,None,None,230.21682719979435,None,231.01595916030928,None,,,,11003,0002,2021_Nov_12_1503,localizer,2021.1.3,59.944311631464515,
block_end,scrambled,scrambled018.bmp,,,,,0,60,60,60,,,,,,,,,,,,,,,,,,,,,,,,,,,,,,,,,,,,,,,,,,None,,231.01595916030928,None,231.01595916030928,None,2021-11-12-15:06:37.793182,231.0386880002916,231.3492580000311,231.0386880002916,231.0386880002916,None,231.0386880002916,231.0386880002916,231.83223525984212,None,,,,11003,0002,2021_Nov_12_1503,localizer,2021.1.3,59.944311631464515,
block_start,scrambled,scrambled012.bmp,,,,,0,61,61,61,,,,,,,,,,,,,,,,,,,,,,,,,,,,,,,,,,,,,,,,,,t,4.78247409965843,231.8323208000511,None,231.8323208000511,None,2021-11-12-15:06:43.404868,236.68373270053416,236.9826258001849,236.68373270053416,None,None,236.68373270053416,None,237.44931136062368,None,,,,11003,0002,2021_Nov_12_1503,localizer,2021.1.3,59.944311631464515,
block,scrambled,scrambled016.bmp,,,,,0,62,62,62,,,,,,,,,,,,,,,,,,,,,,,,,,,,,,,,,,,,,,,,,,None,,237.44931136062368,None,237.44931136062368,None,2021-11-12-15:06:44.223534,237.4631901998073,237.7658991003409,237.4631901998073,None,None,237.4631901998073,None,238.2659847605042,None,,,,11003,0002,2021_Nov_12_1503,localizer,2021.1.3,59.944311631464515,
block,scrambled,scrambled055.bmp,,,,,0,63,63,63,,,,,,,,,,,,,,,,,,,,,,,,,,,,,,,,,,,,,,,,,,None,,238.2659847605042,None,238.2659847605042,None,2021-11-12-15:06:45.039396,238.27200010046363,238.58257270045578,238.27200010046363,None,None,238.27200010046363,None,239.08267416050657,None,,,,11003,0002,2021_Nov_12_1503,localizer,2021.1.3,59.944311631464515,
block,scrambled,scrambled055.bmp,,,,,0,64,64,64,,,,,,,,,,,,,,,,,,,,,,,,,,,,,,,,,,,,,,,,,,None,,239.08267416050657,None,239.08267416050657,None,2021-11-12-15:06:45.856712,239.09628779999912,239.39928899984807,239.09628779999912,None,y,239.09628779999912,None,239.89932596022263,None,0.6049399003386497,,,11003,0002,2021_Nov_12_1503,localizer,2021.1.3,59.944311631464515,
block,scrambled,scrambled029.bmp,,,,,0,65,65,65,,,,,,,,,,,,,,,,,,,,,,,,,,,,,,,,,,,,,,,,,,None,,239.89932596022263,None,239.89932596022263,None,2021-11-12-15:06:46.673763,239.91297840047628,240.21597500052303,239.91297840047628,None,None,239.91297840047628,None,240.715973259788,None,,,,11003,0002,2021_Nov_12_1503,localizer,2021.1.3,59.944311631464515,
block,scrambled,scrambled081.bmp,,,,,0,66,66,66,,,,,,,,,,,,,,,,,,,,,,,,,,,,,,,,,,,,,,,,,,None,,240.715973259788,None,240.715973259788,None,2021-11-12-15:06:47.488994,240.72740640025586,241.0326439999044,240.72740640025586,None,None,240.72740640025586,None,241.53266306025907,None,,,,11003,0002,2021_Nov_12_1503,localizer,2021.1.3,59.944311631464515,
block,scrambled,scrambled086.bmp,,,,,0,67,67,67,,,,,,,,,,,,,,,,,,,,,,,,,,,,,,,,,,,,,,,,,,None,,241.53266306025907,None,241.53266306025907,None,2021-11-12-15:06:48.304879,241.57482790015638,241.88264890015125,241.57482790015638,None,None,241.57482790015638,None,242.34928786000236,None,,,,11003,0002,2021_Nov_12_1503,localizer,2021.1.3,59.944311631464515,
block,scrambled,scrambled032.bmp,,,,,0,68,68,68,,,,,,,,,,,,,,,,,,,,,,,,,,,,,,,,,,,,,,,,,,None,,242.34928786000236,None,242.34928786000236,None,2021-11-12-15:06:49.124501,242.36290790047497,242.66599000059068,242.36290790047497,None,None,242.36290790047497,None,243.16603576010093,None,,,,11003,0002,2021_Nov_12_1503,localizer,2021.1.3,59.944311631464515,
block,scrambled,scrambled020.bmp,,,,,0,69,69,69,,,,,,,,,,,,,,,,,,,,,,,,,,,,,,,,,,,,,,,,,,None,,243.16603576010093,None,243.16603576010093,None,2021-11-12-15:06:49.940464,243.1867695003748,243.49931370001286,243.1867695003748,None,None,243.1867695003748,None,243.98267306005582,None,,,,11003,0002,2021_Nov_12_1503,localizer,2021.1.3,59.944311631464515,
block,scrambled,scrambled088.bmp,,,,,0,70,70,70,,,,,,,,,,,,,,,,,,,,,,,,,,,,,,,,,,,,,,,,,,None,,243.98267306005582,None,243.98267306005582,None,2021-11-12-15:06:50.756198,244.0038753002882,244.315977900289,244.0038753002882,None,None,244.0038753002882,None,244.79935075985267,None,,,,11003,0002,2021_Nov_12_1503,localizer,2021.1.3,59.944311631464515,
block,scrambled,scrambled007.bmp,,,,,0,71,71,71,,,,,,,,,,,,,,,,,,,,,,,,,,,,,,,,,,,,,,,,,,None,,244.79935075985267,None,244.79935075985267,None,2021-11-12-15:06:51.572646,244.81943350005895,245.13264460023493,244.81943350005895,None,None,244.81943350005895,None,245.61595625979825,None,,,,11003,0002,2021_Nov_12_1503,localizer,2021.1.3,59.944311631464515,
block,scrambled,scrambled024.bmp,,,,,0,72,72,72,,,,,,,,,,,,,,,,,,,,,,,,,,,,,,,,,,,,,,,,,,None,,245.61595625979825,None,245.61595625979825,None,2021-11-12-15:06:52.390165,245.6359882997349,245.94914530031383,245.6359882997349,None,None,245.6359882997349,None,246.43266156027093,None,,,,11003,0002,2021_Nov_12_1503,localizer,2021.1.3,59.944311631464515,
block,scrambled,scrambled068.bmp,,,,,0,73,73,73,,,,,,,,,,,,,,,,,,,,,,,,,,,,,,,,,,,,,,,,,,None,,246.43266156027093,None,246.43266156027093,None,2021-11-12-15:06:53.206867,246.4452594006434,246.74935160018504,246.4452594006434,None,None,246.4452594006434,None,247.24935406064614,None,,,,11003,0002,2021_Nov_12_1503,localizer,2021.1.3,59.944311631464515,
block,scrambled,scrambled031.bmp,,,,,0,74,74,74,,,,,,,,,,,,,,,,,,,,,,,,,,,,,,,,,,,,,,,,,,None,,247.24935406064614,None,247.24935406064614,None,2021-11-12-15:06:54.022582,247.26079209987074,247.56590200029314,247.26079209987074,None,None,247.26079209987074,None,248.06574366046115,None,,,,11003,0002,2021_Nov_12_1503,localizer,2021.1.3,59.944311631464515,
block_end,scrambled,scrambled033.bmp,,,,,0,75,75,75,,,,,,,,,,,,,,,,,,,,,,,,,,,,,,,,,,,,,,,,,,None,,248.06574366046115,None,248.06574366046115,None,2021-11-12-15:06:54.838207,248.07660400029272,248.38269540015608,248.07660400029272,None,None,248.07660400029272,None,248.8827000604011,None,,,,11003,0002,2021_Nov_12_1503,localizer,2021.1.3,59.944311631464515,
block_start,faces,faces044.bmp,,,,,0,76,76,76,,,,,,,,,,,,,,,,,,,,,,,,,,,,,,,,,,,,,,,,,,t,2.638214400038123,248.8826825004071,None,248.8826825004071,None,2021-11-12-15:06:58.320869,251.56050739996135,251.8660041000694,251.56050739996135,None,None,251.56050739996135,None,252.3660332606174,None,,,,11003,0002,2021_Nov_12_1503,localizer,2021.1.3,59.944311631464515,
block,faces,faces045.bmp,,,,,0,77,77,77,,,,,,,,,,,,,,,,,,,,,,,,,,,,,,,,,,,,,,,,,,None,,252.3660332606174,None,252.3660332606174,None,2021-11-12-15:06:59.140251,252.38823579996824,252.6993813002482,252.38823579996824,None,None,252.38823579996824,None,253.18255756041034,None,,,,11003,0002,2021_Nov_12_1503,localizer,2021.1.3,59.944311631464515,
block,faces,faces084.bmp,,,,,0,78,78,78,,,,,,,,,,,,,,,,,,,,,,,,,,,,,,,,,,,,,,,,,,None,,253.18255756041034,None,253.18255756041034,None,2021-11-12-15:06:59.953836,253.1985063003376,253.49937549978495,253.1985063003376,None,None,253.1985063003376,None,253.9993865600787,None,,,,11003,0002,2021_Nov_12_1503,localizer,2021.1.3,59.944311631464515,
block,faces,faces004.bmp,,,,,0,79,79,79,,,,,,,,,,,,,,,,,,,,,,,,,,,,,,,,,,,,,,,,,,None,,253.9993865600787,None,253.9993865600787,None,2021-11-12-15:07:00.774594,254.0199199002236,254.33229169994593,254.0199199002236,None,None,254.0199199002236,None,254.81599366003647,None,,,,11003,0002,2021_Nov_12_1503,localizer,2021.1.3,59.944311631464515,
block,faces,faces027.bmp,,,,,0,80,80,80,,,,,,,,,,,,,,,,,,,,,,,,,,,,,,,,,,,,,,,,,,None,,254.81599366003647,None,254.81599366003647,None,2021-11-12-15:07:01.590382,254.82878830004483,255.13272320013493,254.82878830004483,None,None,254.82878830004483,None,255.6325580597855,None,,,,11003,0002,2021_Nov_12_1503,localizer,2021.1.3,59.944311631464515,
block,faces,faces024.bmp,,,,,0,81,81,81,,,,,,,,,,,,,,,,,,,,,,,,,,,,,,,,,,,,,,,,,,None,,255.6325580597855,None,255.6325580597855,None,2021-11-12-15:07:02.399542,255.6337168002501,255.9327087001875,255.6337168002501,None,None,255.6337168002501,None,256.4327407599427,None,,,,11003,0002,2021_Nov_12_1503,localizer,2021.1.3,59.944311631464515,
block,faces,faces050.bmp,,,,,0,82,82,82,,,,,,,,,,,,,,,,,,,,,,,,,,,,,,,,,,,,,,,,,,None,,256.4327407599427,None,256.4327407599427,None,2021-11-12-15:07:03.209943,256.4484699005261,256.74935759976506,256.4484699005261,256.4484699005261,None,256.4484699005261,256.4484699005261,257.24936476061123,None,,,,11003,0002,2021_Nov_12_1503,localizer,2021.1.3,59.944311631464515,
block,faces,faces082.bmp,,,,,0,83,83,83,,,,,,,,,,,,,,,,,,,,,,,,,,,,,,,,,,,,,,,,,,None,,257.24936476061123,None,257.24936476061123,None,2021-11-12-15:07:04.017291,257.25033820047975,257.54936280008405,257.25033820047975,None,None,257.25033820047975,None,258.04941316032784,None,,,,11003,0002,2021_Nov_12_1503,localizer,2021.1.3,59.944311631464515,
block,faces,faces006.bmp,,,,,0,84,84,84,,,,,,,,,,,,,,,,,,,,,,,,,,,,,,,,,,,,,,,,,,None,,258.04941316032784,None,258.04941316032784,None,2021-11-12-15:07:04.826614,258.06512640044093,258.36609959974885,258.06512640044093,258.06512640044093,None,258.06512640044093,258.06512640044093,258.8660829606466,None,,,,11003,0002,2021_Nov_12_1503,localizer,2021.1.3,59.944311631464515,
block,faces,faces060.bmp,,,,,0,85,85,85,,,,,,,,,,,,,,,,,,,,,,,,,,,,,,,,,,,,,,,,,,None,,258.8660829606466,None,258.8660829606466,None,2021-11-12-15:07:05.639129,258.88534709997475,259.1993883000687,258.88534709997475,None,None,258.88534709997475,None,259.68273876039314,None,,,,11003,0002,2021_Nov_12_1503,localizer,2021.1.3,59.944311631464515,
block,faces,faces081.bmp,,,,,0,86,86,86,,,,,,,,,,,,,,,,,,,,,,,,,,,,,,,,,,,,,,,,,,None,,259.68273876039314,None,259.68273876039314,None,2021-11-12-15:07:06.457155,259.6957295006141,259.99943440034986,259.6957295006141,None,None,259.6957295006141,None,260.4993921601214,None,,,,11003,0002,2021_Nov_12_1503,localizer,2021.1.3,59.944311631464515,
block,faces,faces047.bmp,,,,,0,87,87,87,,,,,,,,,,,,,,,,,,,,,,,,,,,,,,,,,,,,,,,,,,None,,260.4993921601214,None,260.4993921601214,None,2021-11-12-15:07:07.272616,260.5108275003731,260.81606630049646,260.5108275003731,None,None,260.5108275003731,None,261.31593536017465,None,,,,11003,0002,2021_Nov_12_1503,localizer,2021.1.3,59.944311631464515,
block,faces,faces003.bmp,,,,,0,88,88,88,,,,,,,,,,,,,,,,,,,,,,,,,,,,,,,,,,,,,,,,,,None,,261.31593536017465,None,261.31593536017465,None,2021-11-12-15:07:08.089366,261.327874599956,261.63270060066134,261.327874599956,None,None,261.327874599956,None,262.13274016035723,None,,,,11003,0002,2021_Nov_12_1503,localizer,2021.1.3,59.944311631464515,
block,faces,faces070.bmp,,,,,0,89,89,89,,,,,,,,,,,,,,,,,,,,,,,,,,,,,,,,,,,,,,,,,,None,,262.13274016035723,None,262.13274016035723,None,2021-11-12-15:07:08.906697,262.14222849998623,262.4494168004021,262.14222849998623,None,None,262.14222849998623,None,262.94942026017236,None,,,,11003,0002,2021_Nov_12_1503,localizer,2021.1.3,59.944311631464515,
block_end,faces,faces068.bmp,,,,,0,90,90,90,,,,,,,,,,,,,,,,,,,,,,,,,,,,,,,,,,,,,,,,,,None,,262.94942026017236,None,262.94942026017236,None,2021-11-12-15:07:09.722878,262.96967990044504,263.28268980048597,262.96967990044504,None,None,262.96967990044504,None,263.7660889605992,None,,,,11003,0002,2021_Nov_12_1503,localizer,2021.1.3,59.944311631464515,
null_block,null_block,null_block.bmp,,,,,0,91,91,91,,,,,,,,,,,,,,,,,,,,,,,,,,,,,,,,,,,,,,,,,,t,2.625462000258267,263.76607070025057,None,263.76607070025057,None,2021-11-12-15:07:13.188566,266.43282141983514,None,266.43282141983514,None,None,266.43282141983514,None,266.4346684999764,None,,,,11003,0002,2021_Nov_12_1503,localizer,2021.1.3,59.944311631464515,
block_start,objects,objects002.bmp,,,,,0,92,92,92,,,,,,,,,,,,,,,,,,,,,,,,,,,,,,,,,,,,,,,,,,t,5.533457700163126,278.4495622003451,None,278.4495622003451,None,2021-11-12-15:07:30.775680,284.0091249998659,284.3162583000958,284.0091249998659,None,None,284.0091249998659,None,284.81624956047165,None,,,,11003,0002,2021_Nov_12_1503,localizer,2021.1.3,59.944311631464515,
block,objects,objects057.bmp,,,,,0,93,93,93,,,,,,,,,,,,,,,,,,,,,,,,,,,,,,,,,,,,,,,,,,None,,284.81624956047165,None,284.81624956047165,None,2021-11-12-15:07:31.587466,284.8289184998721,285.1328571997583,284.8289184998721,None,None,284.8289184998721,None,285.6327709601261,None,,,,11003,0002,2021_Nov_12_1503,localizer,2021.1.3,59.944311631464515,
block,objects,objects078.bmp,,,,,0,94,94,94,,,,,,,,,,,,,,,,,,,,,,,,,,,,,,,,,,,,,,,,,,None,,285.6327709601261,None,285.6327709601261,None,2021-11-12-15:07:32.399128,285.63376209978014,285.9328840998933,285.63376209978014,None,None,285.63376209978014,None,286.4328807600774,None,,,,11003,0002,2021_Nov_12_1503,localizer,2021.1.3,59.944311631464515,
block,objects,objects007.bmp,,,,,0,95,95,95,,,,,,,,,,,,,,,,,,,,,,,,,,,,,,,,,,,,,,,,,,None,,286.4328807600774,None,286.4328807600774,None,2021-11-12-15:07:33.209298,286.4559682002291,286.76613240037113,286.4559682002291,286.4559682002291,None,286.4559682002291,286.4559682002291,287.24949396019804,None,,,,11003,0002,2021_Nov_12_1503,localizer,2021.1.3,59.944311631464515,
block,objects,objects049.bmp,,,,,0,96,96,96,,,,,,,,,,,,,,,,,,,,,,,,,,,,,,,,,,,,,,,,,,None,,287.24949396019804,None,287.24949396019804,None,2021-11-12-15:07:34.023921,287.26370500028133,287.566238200292,287.26370500028133,None,None,287.26370500028133,None,288.0662301600911,None,,,,11003,0002,2021_Nov_12_1503,localizer,2021.1.3,59.944311631464515,
block,objects,objects015.bmp,,,,,0,97,97,97,,,,,,,,,,,,,,,,,,,,,,,,,,,,,,,,,,,,,,,,,,None,,288.0662301600911,None,288.0662301600911,None,2021-11-12-15:07:34.839453,288.0854599997401,288.399520999752,288.0854599997401,None,None,288.0854599997401,None,288.8826598598622,None,,,,11003,0002,2021_Nov_12_1503,localizer,2021.1.3,59.944311631464515,
block,objects,objects077.bmp,,,,,0,98,98,98,,,,,,,,,,,,,,,,,,,,,,,,,,,,,,,,,,,,,,,,,,None,,288.8826598598622,None,288.8826598598622,None,2021-11-12-15:07:35.653514,288.8918940005824,289.19956120010465,288.8918940005824,None,None,288.8918940005824,None,289.69954216005283,None,,,,11003,0002,2021_Nov_12_1503,localizer,2021.1.3,59.944311631464515,
block,objects,objects047.bmp,,,,,0,99,99,99,,,,,,,,,,,,,,,,,,,,,,,,,,,,,,,,,,,,,,,,,,None,,289.69954216005283,None,289.69954216005283,None,2021-11-12-15:07:36.473750,289.71338760014623,290.0161978006363,289.71338760014623,None,None,289.71338760014623,None,290.5162410604768,None,,,,11003,0002,2021_Nov_12_1503,localizer,2021.1.3,59.944311631464515,
block,objects,objects062.bmp,,,,,0,100,100,100,,,,,,,,,,,,,,,,,,,,,,,,,,,,,,,,,,,,,,,,,,None,,290.5162410604768,None,290.5162410604768,None,2021-11-12-15:07:37.290262,290.53690099995583,290.84959079977125,290.53690099995583,None,None,290.53690099995583,None,291.3330114603974,None,,,,11003,0002,2021_Nov_12_1503,localizer,2021.1.3,59.944311631464515,
block,objects,objects048.bmp,,,,,0,101,101,101,,,,,,,,,,,,,,,,,,,,,,,,,,,,,,,,,,,,,,,,,,None,,291.3330114603974,None,291.3330114603974,None,2021-11-12-15:07:38.107384,291.3458719998598,291.6495318002999,291.3458719998598,None,None,291.3458719998598,None,292.1495978598483,None,,,,11003,0002,2021_Nov_12_1503,localizer,2021.1.3,59.944311631464515,
block,objects,objects019.bmp,,,,,0,102,102,102,,,,,,,,,,,,,,,,,,,,,,,,,,,,,,,,,,,,,,,,,,None,,292.1495978598483,None,292.1495978598483,None,2021-11-12-15:07:38.924012,292.1624140003696,292.46614939998835,292.1624140003696,None,None,292.1624140003696,None,292.9662053602748,None,,,,11003,0002,2021_Nov_12_1503,localizer,2021.1.3,59.944311631464515,
block,objects,objects036.bmp,,,,,0,103,103,103,,,,,,,,,,,,,,,,,,,,,,,,,,,,,,,,,,,,,,,,,,None,,292.9662053602748,None,292.9662053602748,None,2021-11-12-15:07:39.740609,292.98018100019544,293.2828411003575,292.98018100019544,None,None,292.98018100019544,None,293.7829584599473,None,,,,11003,0002,2021_Nov_12_1503,localizer,2021.1.3,59.944311631464515,
block,objects,objects020.bmp,,,,,0,104,104,104,,,,,,,,,,,,,,,,,,,,,,,,,,,,,,,,,,,,,,,,,,None,,293.7829584599473,None,293.7829584599473,None,2021-11-12-15:07:40.558378,293.7970535000786,294.09962419979274,293.7970535000786,None,None,293.7970535000786,None,294.59961066013204,None,,,,11003,0002,2021_Nov_12_1503,localizer,2021.1.3,59.944311631464515,
block,objects,objects038.bmp,,,,,0,105,105,105,,,,,,,,,,,,,,,,,,,,,,,,,,,,,,,,,,,,,,,,,,None,,294.59961066013204,None,294.59961066013204,None,2021-11-12-15:07:41.373688,294.62207140028477,294.9329377003014,294.62207140028477,None,None,294.62207140028477,None,295.4162569603883,None,,,,11003,0002,2021_Nov_12_1503,localizer,2021.1.3,59.944311631464515,
block_end,objects,objects068.bmp,,,,,0,106,106,106,,,,,,,,,,,,,,,,,,,,,,,,,,,,,,,,,,,,,,,,,,None,,295.4162569603883,None,295.4162569603883,None,2021-11-12-15:07:42.190680,295.4290541000664,295.73294190037996,295.4290541000664,None,None,295.4290541000664,None,296.23294926052915,None,,,,11003,0002,2021_Nov_12_1503,localizer,2021.1.3,59.944311631464515,
block_start,scenes,scenes010.bmp,,,,,0,107,107,107,,,,,,,,,,,,,,,,,,,,,,,,,,,,,,,,,,,,,,,,,,t,2.844332699663937,296.2329294998199,None,296.2329294998199,None,2021-11-12-15:07:45.872871,299.11348829977214,299.41629089973867,299.11348829977214,None,None,299.11348829977214,None,299.91617646059024,None,,,,11003,0002,2021_Nov_12_1503,localizer,2021.1.3,59.944311631464515,
block,scenes,scenes012.bmp,,,,,0,108,108,108,,,,,,,,,,,,,,,,,,,,,,,,,,,,,,,,,,,,,,,,,,None,,299.91617646059024,None,299.91617646059024,None,2021-11-12-15:07:46.688604,299.93589260056615,300.24961660057306,299.93589260056615,None,None,299.93589260056615,None,300.7329123605974,None,,,,11003,0002,2021_Nov_12_1503,localizer,2021.1.3,59.944311631464515,
block,scenes,scenes033.bmp,,,,,0,109,109,109,,,,,,,,,,,,,,,,,,,,,,,,,,,,,,,,,,,,,,,,,,None,,300.7329123605974,None,300.7329123605974,None,2021-11-12-15:07:47.507133,300.746762400493,301.04964360035956,300.746762400493,None,None,300.746762400493,None,301.54964586058634,None,,,,11003,0002,2021_Nov_12_1503,localizer,2021.1.3,59.944311631464515,
block,scenes,scenes080.bmp,,,,,0,110,110,110,,,,,,,,,,,,,,,,,,,,,,,,,,,,,,,,,,,,,,,,,,None,,301.54964586058634,None,301.54964586058634,None,2021-11-12-15:07:48.324629,301.5632295003161,301.8663183003664,301.5632295003161,None,None,301.5632295003161,None,302.3663094601594,None,,,,11003,0002,2021_Nov_12_1503,localizer,2021.1.3,59.944311631464515,
block,scenes,scenes014.bmp,,,,,0,111,111,111,,,,,,,,,,,,,,,,,,,,,,,,,,,,,,,,,,,,,,,,,,None,,302.3663094601594,None,302.3663094601594,None,2021-11-12-15:07:49.139733,302.37816509976983,302.6829832000658,302.37816509976983,None,None,302.37816509976983,None,303.18299616025763,None,,,,11003,0002,2021_Nov_12_1503,localizer,2021.1.3,59.944311631464515,
block,scenes,scenes052.bmp,,,,,0,112,112,112,,,,,,,,,,,,,,,,,,,,,,,,,,,,,,,,,,,,,,,,,,None,,303.18299616025763,None,303.18299616025763,None,2021-11-12-15:07:49.957283,303.1957785002887,303.49963659979403,303.1957785002887,None,None,303.1957785002887,None,303.99946766057985,None,,,,11003,0002,2021_Nov_12_1503,localizer,2021.1.3,59.944311631464515,
block,scenes,scenes059.bmp,,,,,0,113,113,113,,,,,,,,,,,,,,,,,,,,,,,,,,,,,,,,,,,,,,,,,,None,,303.99946766057985,None,303.99946766057985,None,2021-11-12-15:07:50.773169,304.01160280033946,304.31631320063025,304.01160280033946,None,None,304.01160280033946,None,304.81635326044636,None,,,,11003,0002,2021_Nov_12_1503,localizer,2021.1.3,59.944311631464515,
block,scenes,scenes039.bmp,,,,,0,114,114,114,,,,,,,,,,,,,,,,,,,,,,,,,,,,,,,,,,,,,,,,,,None,,304.81635326044636,None,304.81635326044636,None,2021-11-12-15:07:51.591580,304.82999819982797,305.13298310060054,304.82999819982797,None,None,304.82999819982797,None,305.6329674598761,None,,,,11003,0002,2021_Nov_12_1503,localizer,2021.1.3,59.944311631464515,
block,scenes,scenes056.bmp,,,,,0,115,115,115,,,,,,,,,,,,,,,,,,,,,,,,,,,,,,,,,,,,,,,,,,None,,305.6329674598761,None,305.6329674598761,None,2021-11-12-15:07:52.407185,305.6456198999658,305.9496595999226,305.6456198999658,None,None,305.6456198999658,None,306.4496691598557,None,,,,11003,0002,2021_Nov_12_1503,localizer,2021.1.3,59.944311631464515,
block,scenes,scenes021.bmp,,,,,0,116,116,116,,,,,,,,,,,,,,,,,,,,,,,,,,,,,,,,,,,,,,,,,,None,,306.4496691598557,None,306.4496691598557,None,2021-11-12-15:07:53.223092,306.46947189979255,306.78286899998784,306.46947189979255,None,None,306.46947189979255,None,307.2663848604076,None,,,,11003,0002,2021_Nov_12_1503,localizer,2021.1.3,59.944311631464515,
block,scenes,scenes062.bmp,,,,,0,117,117,117,,,,,,,,,,,,,,,,,,,,,,,,,,,,,,,,,,,,,,,,,,None,,307.2663848604076,None,307.2663848604076,None,2021-11-12-15:07:54.040795,307.2871209997684,307.599447700195,307.2871209997684,None,None,307.2871209997684,None,308.0829458598979,None,,,,11003,0002,2021_Nov_12_1503,localizer,2021.1.3,59.944311631464515,
block,scenes,scenes041.bmp,,,,,0,118,118,118,,,,,,,,,,,,,,,,,,,,,,,,,,,,,,,,,,,,,,,,,,None,,308.0829458598979,None,308.0829458598979,None,2021-11-12-15:07:54.857008,308.09233400039375,308.39967089984566,308.09233400039375,None,None,308.09233400039375,None,308.8996860598214,None,,,,11003,0002,2021_Nov_12_1503,localizer,2021.1.3,59.944311631464515,
block,scenes,scenes083.bmp,,,,,0,119,119,119,,,,,,,,,,,,,,,,,,,,,,,,,,,,,,,,,,,,,,,,,,None,,308.8996860598214,None,308.8996860598214,None,2021-11-12-15:07:55.673138,308.91928029991686,309.2329716999084,308.91928029991686,None,None,308.91928029991686,None,309.7163362604566,None,,,,11003,0002,2021_Nov_12_1503,localizer,2021.1.3,59.944311631464515,
block,scenes,scenes055.bmp,,,,,0,120,120,120,,,,,,,,,,,,,,,,,,,,,,,,,,,,,,,,,,,,,,,,,,None,,309.7163362604566,None,309.7163362604566,None,2021-11-12-15:07:56.490371,309.73007069993764,310.03307340014726,309.73007069993764,None,None,309.73007069993764,None,310.533012960013,None,,,,11003,0002,2021_Nov_12_1503,localizer,2021.1.3,59.944311631464515,
block_end,scenes,scenes089.bmp,,,,,0,121,121,121,,,,,,,,,,,,,,,,,,,,,,,,,,,,,,,,,,,,,,,,,,None,,310.533012960013,None,310.533012960013,None,2021-11-12-15:07:57.307423,310.5461646001786,310.84970560017973,310.5461646001786,None,None,310.5461646001786,None,311.34951926013457,None,,,,11003,0002,2021_Nov_12_1503,localizer,2021.1.3,59.944311631464515,
block_start,scrambled,scrambled031.bmp,,,,,0,122,122,122,,,,,,,,,,,,,,,,,,,,,,,,,,,,,,,,,,,,,,,,,,t,2.1498163994401693,311.3495412999764,None,311.3495412999764,None,2021-11-12-15:08:00.288056,313.5273361997679,313.8330776998773,313.5273361997679,None,None,313.5273361997679,None,314.33305806005376,None,,,,11003,0002,2021_Nov_12_1503,localizer,2021.1.3,59.944311631464515,
block,scrambled,scrambled069.bmp,,,,,0,123,123,123,,,,,,,,,,,,,,,,,,,,,,,,,,,,,,,,,,,,,,,,,,None,,314.33305806005376,None,314.33305806005376,None,2021-11-12-15:08:01.107267,314.3534633005038,314.66626620013267,314.3534633005038,None,None,314.3534633005038,None,315.14963886039334,None,,,,11003,0002,2021_Nov_12_1503,localizer,2021.1.3,59.944311631464515,
block,scrambled,scrambled011.bmp,,,,,0,124,124,124,,,,,,,,,,,,,,,,,,,,,,,,,,,,,,,,,,,,,,,,,,None,,315.14963886039334,None,315.14963886039334,None,2021-11-12-15:08:01.923851,315.1634825002402,315.46637920010835,315.1634825002402,None,None,315.1634825002402,None,315.9663889602758,None,,,,11003,0002,2021_Nov_12_1503,localizer,2021.1.3,59.944311631464515,
block,scrambled,scrambled080.bmp,,,,,0,125,125,125,,,,,,,,,,,,,,,,,,,,,,,,,,,,,,,,,,,,,,,,,,None,,315.9663889602758,None,315.9663889602758,None,2021-11-12-15:08:02.740607,315.9801753005013,316.2830384997651,315.9801753005013,None,None,315.9801753005013,None,316.7830428601243,None,,,,11003,0002,2021_Nov_12_1503,localizer,2021.1.3,59.944311631464515,
block,scrambled,scrambled083.bmp,,,,,0,126,126,126,,,,,,,,,,,,,,,,,,,,,,,,,,,,,,,,,,,,,,,,,,None,,316.7830428601243,None,316.7830428601243,None,2021-11-12-15:08:03.556954,316.79899669997394,317.0997112002224,316.79899669997394,None,None,316.79899669997394,None,317.5997546602972,None,,,,11003,0002,2021_Nov_12_1503,localizer,2021.1.3,59.944311631464515,
block,scrambled,scrambled004.bmp,,,,,0,127,127,127,,,,,,,,,,,,,,,,,,,,,,,,,,,,,,,,,,,,,,,,,,None,,317.5997546602972,None,317.5997546602972,None,2021-11-12-15:08:04.374170,317.6196993999183,317.93296959996223,317.6196993999183,None,None,317.6196993999183,None,318.4163260598667,None,,,,11003,0002,2021_Nov_12_1503,localizer,2021.1.3,59.944311631464515,
block,scrambled,scrambled029.bmp,,,,,0,128,128,128,,,,,,,,,,,,,,,,,,,,,,,,,,,,,,,,,,,,,,,,,,None,,318.4163260598667,None,318.4163260598667,None,2021-11-12-15:08:05.191535,318.4298812998459,318.7330335006118,318.4298812998459,None,None,318.4298812998459,None,319.23303786003964,None,,,,11003,0002,2021_Nov_12_1503,localizer,2021.1.3,59.944311631464515,
block,scrambled,scrambled052.bmp,,,,,0,129,129,129,,,,,,,,,,,,,,,,,,,,,,,,,,,,,,,,,,,,,,,,,,None,,319.23303786003964,None,319.23303786003964,None,2021-11-12-15:08:06.007454,319.2470752000809,319.5496914004907,319.2470752000809,None,None,319.2470752000809,None,320.0497426603921,None,,,,11003,0002,2021_Nov_12_1503,localizer,2021.1.3,59.944311631464515,
block,scrambled,scrambled032.bmp,,,,,0,130,130,130,,,,,,,,,,,,,,,,,,,,,,,,,,,,,,,,,,,,,,,,,,None,,320.0497426603921,None,320.0497426603921,None,2021-11-12-15:08:06.823808,320.0622086999938,320.3663889002055,320.0622086999938,None,None,320.0622086999938,None,320.8664105598815,None,,,,11003,0002,2021_Nov_12_1503,localizer,2021.1.3,59.944311631464515,
block,scrambled,scrambled061.bmp,,,,,0,131,131,131,,,,,,,,,,,,,,,,,,,,,,,,,,,,,,,,,,,,,,,,,,None,,320.8664105598815,None,320.8664105598815,None,2021-11-12-15:08:07.640819,320.88042039982975,321.18307580053806,320.88042039982975,None,None,320.88042039982975,None,321.6830963603221,None,,,,11003,0002,2021_Nov_12_1503,localizer,2021.1.3,59.944311631464515,
block,scrambled,scrambled075.bmp,,,,,0,132,132,132,,,,,,,,,,,,,,,,,,,,,,,,,,,,,,,,,,,,,,,,,,None,,321.6830963603221,None,321.6830963603221,None,2021-11-12-15:08:08.457166,321.7157103000209,322.0164042003453,321.7157103000209,None,None,321.7157103000209,None,322.49976386027413,None,,,,11003,0002,2021_Nov_12_1503,localizer,2021.1.3,59.944311631464515,
block,scrambled,scrambled040.bmp,,,,,0,133,133,133,,,,,,,,,,,,,,,,,,,,,,,,,,,,,,,,,,,,,,,,,,None,,322.49976386027413,None,322.49976386027413,None,2021-11-12-15:08:09.274813,322.51261030044407,322.81631490029395,322.51261030044407,None,None,322.51261030044407,None,323.3163388603367,None,,,,11003,0002,2021_Nov_12_1503,localizer,2021.1.3,59.944311631464515,
block,scrambled,scrambled077.bmp,,,,,0,134,134,134,,,,,,,,,,,,,,,,,,,,,,,,,,,,,,,,,,,,,,,,,,None,,323.3163388603367,None,323.3163388603367,None,2021-11-12-15:08:10.090549,323.3301277998835,323.633093200624,323.3301277998835,None,None,323.3301277998835,None,324.13293576044964,None,,,,11003,0002,2021_Nov_12_1503,localizer,2021.1.3,59.944311631464515,
block,scrambled,scrambled060.bmp,,,,,0,135,135,135,,,,,,,,,,,,,,,,,,,,,,,,,,,,,,,,,,,,,,,,,,None,,324.13293576044964,None,324.13293576044964,None,2021-11-12-15:08:10.899283,324.13402110058814,324.43303770013154,324.13402110058814,None,None,324.13402110058814,None,324.94969935985284,None,,,,11003,0002,2021_Nov_12_1503,localizer,2021.1.3,59.944311631464515,
block_end,scrambled,scrambled072.bmp,,,,,0,136,136,136,,,,,,,,,,,,,,,,,,,,,,,,,,,,,,,,,,,,,,,,,,None,,324.94969935985284,None,324.94969935985284,None,2021-11-12-15:08:11.724914,324.9633144000545,325.26642290037125,324.9633144000545,None,None,324.9633144000545,None,325.7664592600428,None,,,,11003,0002,2021_Nov_12_1503,localizer,2021.1.3,59.944311631464515,
block_start,faces,faces031.bmp,,,,,0,137,137,137,,,,,,,,,,,,,,,,,,,,,,,,,,,,,,,,,,,,,,,,,,t,2.6946543008089066,325.76640080008656,None,325.76640080008656,None,2021-11-12-15:08:15.255547,328.4955286998302,328.79977149982005,328.4955286998302,None,None,328.4955286998302,None,329.29982736045497,None,,,,11003,0002,2021_Nov_12_1503,localizer,2021.1.3,59.944311631464515,
block,faces,faces059.bmp,,,,,0,138,138,138,,,,,,,,,,,,,,,,,,,,,,,,,,,,,,,,,,,,,,,,,,None,,329.29982736045497,None,329.29982736045497,None,2021-11-12-15:08:16.073686,329.3133215000853,329.61647740006447,329.3133215000853,None,None,329.3133215000853,None,330.1164607600309,None,,,,11003,0002,2021_Nov_12_1503,localizer,2021.1.3,59.944311631464515,
block,faces,faces005.bmp,,,,,0,139,139,139,,,,,,,,,,,,,,,,,,,,,,,,,,,,,,,,,,,,,,,,,,None,,330.1164607600309,None,330.1164607600309,None,2021-11-12-15:08:16.890871,330.13800630066544,330.449785400182,330.13800630066544,None,None,330.13800630066544,None,330.9331539598294,None,,,,11003,0002,2021_Nov_12_1503,localizer,2021.1.3,59.944311631464515,
block,faces,faces005.bmp,,,,,0,140,140,140,,,,,,,,,,,,,,,,,,,,,,,,,,,,,,,,,,,,,,,,,,None,,330.9331539598294,None,330.9331539598294,None,2021-11-12-15:08:17.707562,330.9460476003587,331.2497405000031,330.9460476003587,None,y,330.9460476003587,None,331.7497515602969,None,0.6334046004340053,,,11003,0002,2021_Nov_12_1503,localizer,2021.1.3,59.944311631464515,
block,faces,faces048.bmp,,,,,0,141,141,141,,,,,,,,,,,,,,,,,,,,,,,,,,,,,,,,,,,,,,,,,,None,,331.7497515602969,None,331.7497515602969,None,2021-11-12-15:08:18.523959,331.77190990000963,332.08313169982284,331.77190990000963,None,None,331.77190990000963,None,332.566396459844,None,,,,11003,0002,2021_Nov_12_1503,localizer,2021.1.3,59.944311631464515,
block,faces,faces071.bmp,,,,,0,142,142,142,,,,,,,,,,,,,,,,,,,,,,,,,,,,,,,,,,,,,,,,,,None,,332.566396459844,None,332.566396459844,None,2021-11-12-15:08:19.340613,332.59034080058336,332.8998143998906,332.59034080058336,None,None,332.59034080058336,None,333.38312846040355,None,,,,11003,0002,2021_Nov_12_1503,localizer,2021.1.3,59.944311631464515,
block,faces,faces053.bmp,,,,,0,143,143,143,,,,,,,,,,,,,,,,,,,,,,,,,,,,,,,,,,,,,,,,,,None,,333.38312846040355,None,333.38312846040355,None,2021-11-12-15:08:20.157346,333.3957770001143,333.6997969998047,333.3957770001143,None,None,333.3957770001143,None,334.19984146011996,None,,,,11003,0002,2021_Nov_12_1503,localizer,2021.1.3,59.944311631464515,
block,faces,faces037.bmp,,,,,0,144,144,144,,,,,,,,,,,,,,,,,,,,,,,,,,,,,,,,,,,,,,,,,,None,,334.19984146011996,None,334.19984146011996,None,2021-11-12-15:08:20.974251,334.21970870066434,334.53312890045345,334.21970870066434,None,None,334.21970870066434,None,335.01646366054194,None,,,,11003,0002,2021_Nov_12_1503,localizer,2021.1.3,59.944311631464515,
block,faces,faces056.bmp,,,,,0,145,145,145,,,,,,,,,,,,,,,,,,,,,,,,,,,,,,,,,,,,,,,,,,None,,335.01646366054194,None,335.01646366054194,None,2021-11-12-15:08:21.791879,335.03021210059524,335.3331577004865,335.03021210059524,None,None,335.03021210059524,None,335.832872760389,None,,,,11003,0002,2021_Nov_12_1503,localizer,2021.1.3,59.944311631464515,
block,faces,faces002.bmp,,,,,0,146,146,146,,,,,,,,,,,,,,,,,,,,,,,,,,,,,,,,,,,,,,,,,,None,,335.832872760389,None,335.832872760389,None,2021-11-12-15:08:22.599221,335.8340507000685,336.13316289987415,335.8340507000685,None,None,335.8340507000685,None,336.6331889600493,None,,,,11003,0002,2021_Nov_12_1503,localizer,2021.1.3,59.944311631464515,
block,faces,faces016.bmp,,,,,0,147,147,147,,,,,,,,,,,,,,,,,,,,,,,,,,,,,,,,,,,,,,,,,,None,,336.6331889600493,None,336.6331889600493,None,2021-11-12-15:08:23.410389,336.64885979983956,336.9498129999265,336.64885979983956,336.64885979983956,None,336.64885979983956,336.64885979983956,337.4496678606607,None,,,,11003,0002,2021_Nov_12_1503,localizer,2021.1.3,59.944311631464515,
block,faces,faces003.bmp,,,,,0,148,148,148,,,,,,,,,,,,,,,,,,,,,,,,,,,,,,,,,,,,,,,,,,None,,337.4496678606607,None,337.4496678606607,None,2021-11-12-15:08:24.224881,337.45845590066165,337.76648730039597,337.45845590066165,None,None,337.45845590066165,None,338.2665006601252,None,,,,11003,0002,2021_Nov_12_1503,localizer,2021.1.3,59.944311631464515,
block,faces,faces050.bmp,,,,,0,149,149,149,,,,,,,,,,,,,,,,,,,,,,,,,,,,,,,,,,,,,,,,,,None,,338.2665006601252,None,338.2665006601252,None,2021-11-12-15:08:25.040723,338.2803645003587,338.5831503998488,338.2803645003587,None,None,338.2803645003587,None,339.0831718602218,None,,,,11003,0002,2021_Nov_12_1503,localizer,2021.1.3,59.944311631464515,
block,faces,faces047.bmp,,,,,0,150,150,150,,,,,,,,,,,,,,,,,,,,,,,,,,,,,,,,,,,,,,,,,,None,,339.0831718602218,None,339.0831718602218,None,2021-11-12-15:08:25.857199,339.09683569986373,339.39967960026115,339.09683569986373,None,None,339.09683569986373,None,339.8998710605316,None,,,,11003,0002,2021_Nov_12_1503,localizer,2021.1.3,59.944311631464515,
block_end,faces,faces075.bmp,,,,,0,151,151,151,,,,,,,,,,,,,,,,,,,,,,,,,,,,,,,,,,,,,,,,,,None,,339.8998710605316,None,339.8998710605316,None,2021-11-12-15:08:26.674081,339.9124277001247,340.2165052006021,339.9124277001247,None,None,339.9124277001247,None,340.71653566034513,None,,,,11003,0002,2021_Nov_12_1503,localizer,2021.1.3,59.944311631464515,
block_start,scenes,scenes027.bmp,,,,,0,152,152,152,,,,,,,,,,,,,,,,,,,,,,,,,,,,,,,,,,,,,,,,,,t,3.602805900387466,340.7163676004857,None,340.7163676004857,None,2021-11-12-15:08:31.122108,344.3713047998026,344.6832218999043,344.3713047998026,None,None,344.3713047998026,None,345.1665373601951,None,,,,11003,0002,2021_Nov_12_1503,localizer,2021.1.3,59.944311631464515,
block,scenes,scenes088.bmp,,,,,0,153,153,153,,,,,,,,,,,,,,,,,,,,,,,,,,,,,,,,,,,,,,,,,,None,,345.1665373601951,None,345.1665373601951,None,2021-11-12-15:08:31.940767,345.180374099873,345.48311770055443,345.180374099873,None,None,345.180374099873,None,345.98307336019354,None,,,,11003,0002,2021_Nov_12_1503,localizer,2021.1.3,59.944311631464515,
block,scenes,scenes056.bmp,,,,,0,154,154,154,,,,,,,,,,,,,,,,,,,,,,,,,,,,,,,,,,,,,,,,,,None,,345.98307336019354,None,345.98307336019354,None,2021-11-12-15:08:32.757293,345.9969244003296,346.29991800058633,345.9969244003296,None,None,345.9969244003296,None,346.7998910601251,None,,,,11003,0002,2021_Nov_12_1503,localizer,2021.1.3,59.944311631464515,
block,scenes,scenes064.bmp,,,,,0,155,155,155,,,,,,,,,,,,,,,,,,,,,,,,,,,,,,,,,,,,,,,,,,None,,346.7998910601251,None,346.7998910601251,None,2021-11-12-15:08:33.575101,346.81594800017774,347.116333800368,346.81594800017774,None,None,346.81594800017774,None,347.6163766606711,None,,,,11003,0002,2021_Nov_12_1503,localizer,2021.1.3,59.944311631464515,
block,scenes,scenes014.bmp,,,,,0,156,156,156,,,,,,,,,,,,,,,,,,,,,,,,,,,,,,,,,,,,,,,,,,None,,347.6163766606711,None,347.6163766606711,None,2021-11-12-15:08:34.390794,347.624454700388,347.9332306003198,347.624454700388,None,None,347.624454700388,None,348.43322776062416,None,,,,11003,0002,2021_Nov_12_1503,localizer,2021.1.3,59.944311631464515,
block,scenes,scenes063.bmp,,,,,0,157,157,157,,,,,,,,,,,,,,,,,,,,,,,,,,,,,,,,,,,,,,,,,,None,,348.43322776062416,None,348.43322776062416,None,2021-11-12-15:08:35.207639,348.4460562998429,348.74987350031734,348.4460562998429,None,None,348.4460562998429,None,349.249698460009,None,,,,11003,0002,2021_Nov_12_1503,localizer,2021.1.3,59.944311631464515,
block,scenes,scenes017.bmp,,,,,0,158,158,158,,,,,,,,,,,,,,,,,,,,,,,,,,,,,,,,,,,,,,,,,,None,,349.249698460009,None,349.249698460009,None,2021-11-12-15:08:36.024112,349.2705679005012,349.5832093004137,349.2705679005012,None,None,349.2705679005012,None,350.066586960014,None,,,,11003,0002,2021_Nov_12_1503,localizer,2021.1.3,59.944311631464515,
block,scenes,scenes058.bmp,,,,,0,159,159,159,,,,,,,,,,,,,,,,,,,,,,,,,,,,,,,,,,,,,,,,,,None,,350.066586960014,None,350.066586960014,None,2021-11-12-15:08:36.841846,350.0802159002051,350.3830602997914,350.0802159002051,None,None,350.0802159002051,None,350.883170059789,None,,,,11003,0002,2021_Nov_12_1503,localizer,2021.1.3,59.944311631464515,
block,scenes,scenes077.bmp,,,,,0,160,160,160,,,,,,,,,,,,,,,,,,,,,,,,,,,,,,,,,,,,,,,,,,None,,350.883170059789,None,350.883170059789,None,2021-11-12-15:08:37.657576,350.9041852001101,351.2163706002757,350.9041852001101,None,None,350.9041852001101,None,351.69993676049637,None,,,,11003,0002,2021_Nov_12_1503,localizer,2021.1.3,59.944311631464515,
block,scenes,scenes074.bmp,,,,,0,161,161,161,,,,,,,,,,,,,,,,,,,,,,,,,,,,,,,,,,,,,,,,,,None,,351.69993676049637,None,351.69993676049637,None,2021-11-12-15:08:38.475167,351.71377370040864,352.0163536006585,351.71377370040864,None,None,351.71377370040864,None,352.51659375978636,None,,,,11003,0002,2021_Nov_12_1503,localizer,2021.1.3,59.944311631464515,
block,scenes,scenes020.bmp,,,,,0,162,162,162,,,,,,,,,,,,,,,,,,,,,,,,,,,,,,,,,,,,,,,,,,None,,352.51659375978636,None,352.51659375978636,None,2021-11-12-15:08:39.291013,352.5306344004348,352.8332203999162,352.5306344004348,None,None,352.5306344004348,None,353.3332660597749,None,,,,11003,0002,2021_Nov_12_1503,localizer,2021.1.3,59.944311631464515,
block,scenes,scenes078.bmp,,,,,0,163,163,163,,,,,,,,,,,,,,,,,,,,,,,,,,,,,,,,,,,,,,,,,,None,,353.3332660597749,None,353.3332660597749,None,2021-11-12-15:08:40.107479,353.3539493000135,353.66658159997314,353.3539493000135,None,None,353.3539493000135,None,354.1499170604162,None,,,,11003,0002,2021_Nov_12_1503,localizer,2021.1.3,59.944311631464515,
block,scenes,scenes019.bmp,,,,,0,164,164,164,,,,,,,,,,,,,,,,,,,,,,,,,,,,,,,,,,,,,,,,,,None,,354.1499170604162,None,354.1499170604162,None,2021-11-12-15:08:40.924334,354.1630079001188,354.4665662003681,354.1630079001188,None,None,354.1630079001188,None,354.96659055994826,None,,,,11003,0002,2021_Nov_12_1503,localizer,2021.1.3,59.944311631464515,
block,scenes,scenes008.bmp,,,,,0,165,165,165,,,,,,,,,,,,,,,,,,,,,,,,,,,,,,,,,,,,,,,,,,None,,354.96659055994826,None,354.96659055994826,None,2021-11-12-15:08:41.740809,354.979218499735,355.2832180997357,354.979218499735,None,None,354.979218499735,None,355.78306516064333,None,,,,11003,0002,2021_Nov_12_1503,localizer,2021.1.3,59.944311631464515,
block_end,scenes,scenes051.bmp,,,,,0,166,166,166,,,,,,,,,,,,,,,,,,,,,,,,,,,,,,,,,,,,,,,,,,None,,355.78306516064333,None,355.78306516064333,None,2021-11-12-15:08:42.557285,355.8079080004245,356.11659300047904,355.8079080004245,None,None,355.8079080004245,None,356.59992406042295,None,,,,11003,0002,2021_Nov_12_1503,localizer,2021.1.3,59.944311631464515,
null_block,null_block,null_block.bmp,,,,,0,167,167,167,,,,,,,,,,,,,,,,,,,,,,,,,,,,,,,,,,,,,,,,,,t,4.294567999430001,356.5998934004456,None,356.5998934004456,None,2021-11-12-15:08:47.689851,360.9333339201287,None,360.9333339201287,None,None,360.9333339201287,None,360.93690930027515,None,,,,11003,0002,2021_Nov_12_1503,localizer,2021.1.3,59.944311631464515,
block_start,objects,objects060.bmp,,,,,0,168,168,168,,,,,,,,,,,,,,,,,,,,,,,,,,,,,,,,,,,,,,,,,,t,1.0771067002788186,372.9500552006066,None,372.9500552006066,None,2021-11-12-15:09:00.826263,374.06576990056783,374.3666759999469,374.06576990056783,None,None,374.06576990056783,None,374.8666486599483,None,,,,11003,0002,2021_Nov_12_1503,localizer,2021.1.3,59.944311631464515,
block,objects,objects012.bmp,,,,,0,169,169,169,,,,,,,,,,,,,,,,,,,,,,,,,,,,,,,,,,,,,,,,,,None,,374.8666486599483,None,374.8666486599483,None,2021-11-12-15:09:01.640142,374.8861496001482,375.20006350055337,374.8861496001482,None,None,374.8861496001482,None,375.68337186044084,None,,,,11003,0002,2021_Nov_12_1503,localizer,2021.1.3,59.944311631464515,
block,objects,objects018.bmp,,,,,0,170,170,170,,,,,,,,,,,,,,,,,,,,,,,,,,,,,,,,,,,,,,,,,,None,,375.68337186044084,None,375.68337186044084,None,2021-11-12-15:09:02.457591,375.70416809991,376.01670160051435,375.70416809991,None,None,375.70416809991,None,376.5000546601601,None,,,,11003,0002,2021_Nov_12_1503,localizer,2021.1.3,59.944311631464515,
block,objects,objects006.bmp,,,,,0,171,171,171,,,,,,,,,,,,,,,,,,,,,,,,,,,,,,,,,,,,,,,,,,None,,376.5000546601601,None,376.5000546601601,None,2021-11-12-15:09:03.274455,376.52122600004077,376.83333940058947,376.52122600004077,None,None,376.52122600004077,None,377.3167298602872,None,,,,11003,0002,2021_Nov_12_1503,localizer,2021.1.3,59.944311631464515,
block,objects,objects074.bmp,,,,,0,172,172,172,,,,,,,,,,,,,,,,,,,,,,,,,,,,,,,,,,,,,,,,,,None,,377.3167298602872,None,377.3167298602872,None,2021-11-12-15:09:04.090949,377.3305278001353,377.63337399996817,377.3305278001353,None,None,377.3305278001353,None,378.1333313602023,None,,,,11003,0002,2021_Nov_12_1503,localizer,2021.1.3,59.944311631464515,
block,objects,objects056.bmp,,,,,0,173,173,173,,,,,,,,,,,,,,,,,,,,,,,,,,,,,,,,,,,,,,,,,,None,,378.1333313602023,None,378.1333313602023,None,2021-11-12-15:09:04.906604,378.16712480038404,378.46671430021524,378.16712480038404,None,None,378.16712480038404,None,378.9498996603303,None,,,,11003,0002,2021_Nov_12_1503,localizer,2021.1.3,59.944311631464515,
block,objects,objects035.bmp,,,,,0,174,174,174,,,,,,,,,,,,,,,,,,,,,,,,,,,,,,,,,,,,,,,,,,None,,378.9498996603303,None,378.9498996603303,None,2021-11-12-15:09:05.724762,378.9706763997674,379.2833745004609,378.9706763997674,None,None,378.9706763997674,None,379.76670896066355,None,,,,11003,0002,2021_Nov_12_1503,localizer,2021.1.3,59.944311631464515,
block,objects,objects064.bmp,,,,,0,175,175,175,,,,,,,,,,,,,,,,,,,,,,,,,,,,,,,,,,,,,,,,,,None,,379.76670896066355,None,379.76670896066355,None,2021-11-12-15:09:06.541136,379.78088780026883,380.0832556001842,379.78088780026883,None,None,379.78088780026883,None,380.5834142602049,None,,,,11003,0002,2021_Nov_12_1503,localizer,2021.1.3,59.944311631464515,
block,objects,objects066.bmp,,,,,0,176,176,176,,,,,,,,,,,,,,,,,,,,,,,,,,,,,,,,,,,,,,,,,,None,,380.5834142602049,None,380.5834142602049,None,2021-11-12-15:09:07.357830,380.60318400058895,380.9166759997606,380.60318400058895,None,None,380.60318400058895,None,381.40006436025726,None,,,,11003,0002,2021_Nov_12_1503,localizer,2021.1.3,59.944311631464515,
block,objects,objects019.bmp,,,,,0,177,177,177,,,,,,,,,,,,,,,,,,,,,,,,,,,,,,,,,,,,,,,,,,None,,381.40006436025726,None,381.40006436025726,None,2021-11-12-15:09:08.173822,381.4134319005534,381.71673770062625,381.4134319005534,None,None,381.4134319005534,None,382.2167461606674,None,,,,11003,0002,2021_Nov_12_1503,localizer,2021.1.3,59.944311631464515,
block,objects,objects063.bmp,,,,,0,178,178,178,,,,,,,,,,,,,,,,,,,,,,,,,,,,,,,,,,,,,,,,,,None,,382.2167461606674,None,382.2167461606674,None,2021-11-12-15:09:08.991135,382.22958349995315,382.5333323003724,382.22958349995315,None,None,382.22958349995315,None,383.0334566597827,None,,,,11003,0002,2021_Nov_12_1503,localizer,2021.1.3,59.944311631464515,
block,objects,objects005.bmp,,,,,0,179,179,179,,,,,,,,,,,,,,,,,,,,,,,,,,,,,,,,,,,,,,,,,,None,,383.0334566597827,None,383.0334566597827,None,2021-11-12-15:09:09.806365,383.0528250001371,383.3667441997677,383.0528250001371,None,None,383.0528250001371,None,383.85010456005114,None,,,,11003,0002,2021_Nov_12_1503,localizer,2021.1.3,59.944311631464515,
block,objects,objects059.bmp,,,,,0,180,180,180,,,,,,,,,,,,,,,,,,,,,,,,,,,,,,,,,,,,,,,,,,None,,383.85010456005114,None,383.85010456005114,None,2021-11-12-15:09:10.625327,383.8650609999895,384.16672489978373,383.8650609999895,None,None,383.8650609999895,None,384.6667746602558,None,,,,11003,0002,2021_Nov_12_1503,localizer,2021.1.3,59.944311631464515,
block,objects,objects051.bmp,,,,,0,181,181,181,,,,,,,,,,,,,,,,,,,,,,,,,,,,,,,,,,,,,,,,,,None,,384.6667746602558,None,384.6667746602558,None,2021-11-12-15:09:11.442036,384.6821950003505,384.98340949974954,384.6821950003505,None,None,384.6821950003505,None,385.48343366002666,None,,,,11003,0002,2021_Nov_12_1503,localizer,2021.1.3,59.944311631464515,
block_end,objects,objects058.bmp,,,,,0,182,182,182,,,,,,,,,,,,,,,,,,,,,,,,,,,,,,,,,,,,,,,,,,None,,385.48343366002666,None,385.48343366002666,None,2021-11-12-15:09:12.257653,385.50385079998523,385.81672360002995,385.50385079998523,None,None,385.50385079998523,None,386.30009216060864,None,,,,11003,0002,2021_Nov_12_1503,localizer,2021.1.3,59.944311631464515,
block_start,faces,faces005.bmp,,,,,0,183,183,183,,,,,,,,,,,,,,,,,,,,,,,,,,,,,,,,,,,,,,,,,,t,5.1992907002568245,386.30001290049404,None,386.30001290049404,None,2021-11-12-15:09:18.288160,391.5307414000854,391.8335046004504,391.5307414000854,None,None,391.5307414000854,None,392.3333824601956,None,,,,11003,0002,2021_Nov_12_1503,localizer,2021.1.3,59.944311631464515,
block,faces,faces055.bmp,,,,,0,184,184,184,,,,,,,,,,,,,,,,,,,,,,,,,,,,,,,,,,,,,,,,,,None,,392.3333824601956,None,392.3333824601956,None,2021-11-12-15:09:19.106647,392.3471042998135,392.6501607997343,392.3471042998135,None,None,392.3471042998135,None,393.15003966065126,None,,,,11003,0002,2021_Nov_12_1503,localizer,2021.1.3,59.944311631464515,
block,faces,faces042.bmp,,,,,0,185,185,185,,,,,,,,,,,,,,,,,,,,,,,,,,,,,,,,,,,,,,,,,,None,,393.15003966065126,None,393.15003966065126,None,2021-11-12-15:09:19.924260,393.16393190063536,393.4667973006144,393.16393190063536,None,None,393.16393190063536,None,393.9667850601487,None,,,,11003,0002,2021_Nov_12_1503,localizer,2021.1.3,59.944311631464515,
block,faces,faces077.bmp,,,,,0,186,186,186,,,,,,,,,,,,,,,,,,,,,,,,,,,,,,,,,,,,,,,,,,None,,393.9667850601487,None,393.9667850601487,None,2021-11-12-15:09:20.740827,393.98772810027003,394.30014669988304,393.98772810027003,None,None,393.98772810027003,None,394.7835024603643,None,,,,11003,0002,2021_Nov_12_1503,localizer,2021.1.3,59.944311631464515,
block,faces,faces012.bmp,,,,,0,187,187,187,,,,,,,,,,,,,,,,,,,,,,,,,,,,,,,,,,,,,,,,,,None,,394.7835024603643,None,394.7835024603643,None,2021-11-12-15:09:21.558920,394.80552760045975,395.11676430050284,394.80552760045975,None,None,394.80552760045975,None,395.6001395600848,None,,,,11003,0002,2021_Nov_12_1503,localizer,2021.1.3,59.944311631464515,
block,faces,faces064.bmp,,,,,0,188,188,188,,,,,,,,,,,,,,,,,,,,,,,,,,,,,,,,,,,,,,,,,,None,,395.6001395600848,None,395.6001395600848,None,2021-11-12-15:09:22.376088,395.61180390045047,395.91678670048714,395.61180390045047,None,None,395.61180390045047,None,396.416830160562,None,,,,11003,0002,2021_Nov_12_1503,localizer,2021.1.3,59.944311631464515,
block,faces,faces050.bmp,,,,,0,189,189,189,,,,,,,,,,,,,,,,,,,,,,,,,,,,,,,,,,,,,,,,,,None,,396.416830160562,None,396.416830160562,None,2021-11-12-15:09:23.191361,396.42999680060893,396.73338699992746,396.42999680060893,None,None,396.42999680060893,None,397.23330816058444,None,,,,11003,0002,2021_Nov_12_1503,localizer,2021.1.3,59.944311631464515,
block,faces,faces047.bmp,,,,,0,190,190,190,,,,,,,,,,,,,,,,,,,,,,,,,,,,,,,,,,,,,,,,,,None,,397.23330816058444,None,397.23330816058444,None,2021-11-12-15:09:24.007719,397.24642410036176,397.55013330001384,397.24642410036176,None,None,397.24642410036176,None,398.05022145984697,None,,,,11003,0002,2021_Nov_12_1503,localizer,2021.1.3,59.944311631464515,
block,faces,faces035.bmp,,,,,0,191,191,191,,,,,,,,,,,,,,,,,,,,,,,,,,,,,,,,,,,,,,,,,,None,,398.05022145984697,None,398.05022145984697,None,2021-11-12-15:09:24.823635,398.07004430051893,398.38335510063916,398.07004430051893,None,None,398.07004430051893,None,398.86664385991173,None,,,,11003,0002,2021_Nov_12_1503,localizer,2021.1.3,59.944311631464515,
block,faces,faces051.bmp,,,,,0,192,192,192,,,,,,,,,,,,,,,,,,,,,,,,,,,,,,,,,,,,,,,,,,None,,398.86664385991173,None,398.86664385991173,None,2021-11-12-15:09:25.641869,398.8891976000741,399.20016410015523,398.8891976000741,None,None,398.8891976000741,None,399.6835138601251,None,,,,11003,0002,2021_Nov_12_1503,localizer,2021.1.3,59.944311631464515,
block,faces,faces086.bmp,,,,,0,193,193,193,,,,,,,,,,,,,,,,,,,,,,,,,,,,,,,,,,,,,,,,,,None,,399.6835138601251,None,399.6835138601251,None,2021-11-12-15:09:26.457727,399.6961481003091,400.0001082001254,399.6961481003091,None,None,399.6961481003091,None,400.50002846019345,None,,,,11003,0002,2021_Nov_12_1503,localizer,2021.1.3,59.944311631464515,
block,faces,faces078.bmp,,,,,0,194,194,194,,,,,,,,,,,,,,,,,,,,,,,,,,,,,,,,,,,,,,,,,,None,,400.50002846019345,None,400.50002846019345,None,2021-11-12-15:09:27.273898,400.5136283999309,400.81682880036533,400.5136283999309,None,None,400.5136283999309,None,401.3168485601433,None,,,,11003,0002,2021_Nov_12_1503,localizer,2021.1.3,59.944311631464515,
block,faces,faces007.bmp,,,,,0,195,195,195,,,,,,,,,,,,,,,,,,,,,,,,,,,,,,,,,,,,,,,,,,None,,401.3168485601433,None,401.3168485601433,None,2021-11-12-15:09:28.092063,401.3392261005938,401.64990529976785,401.3392261005938,None,None,401.3392261005938,None,402.1334737603553,None,,,,11003,0002,2021_Nov_12_1503,localizer,2021.1.3,59.944311631464515,
block,faces,faces014.bmp,,,,,0,196,196,196,,,,,,,,,,,,,,,,,,,,,,,,,,,,,,,,,,,,,,,,,,None,,402.1334737603553,None,402.1334737603553,None,2021-11-12-15:09:28.907885,402.15464679989964,402.4668562998995,402.15464679989964,None,None,402.15464679989964,None,402.9501948597841,None,,,,11003,0002,2021_Nov_12_1503,localizer,2021.1.3,59.944311631464515,
block_end,faces,faces018.bmp,,,,,0,197,197,197,,,,,,,,,,,,,,,,,,,,,,,,,,,,,,,,,,,,,,,,,,None,,402.9501948597841,None,402.9501948597841,None,2021-11-12-15:09:29.725410,402.96513270027936,403.26676550041884,402.96513270027936,None,None,402.96513270027936,None,403.766801659856,None,,,,11003,0002,2021_Nov_12_1503,localizer,2021.1.3,59.944311631464515,
block_start,scrambled,scrambled033.bmp,,,,,0,198,198,198,,,,,,,,,,,,,,,,,,,,,,,,,,,,,,,,,,,,,,,,,,t,2.397047800011933,403.766823399812,None,403.766823399812,None,2021-11-12-15:09:32.955631,406.1958765005693,406.50014190003276,406.1958765005693,None,None,406.1958765005693,None,407.0002078599297,None,,,,11003,0002,2021_Nov_12_1503,localizer,2021.1.3,59.944311631464515,
block,scrambled,scrambled061.bmp,,,,,0,199,199,199,,,,,,,,,,,,,,,,,,,,,,,,,,,,,,,,,,,,,,,,,,None,,407.0002078599297,None,407.0002078599297,None,2021-11-12-15:09:33.775438,407.01373319979757,407.3168408004567,407.01373319979757,None,None,407.01373319979757,None,407.816737060342,None,,,,11003,0002,2021_Nov_12_1503,localizer,2021.1.3,59.944311631464515,
block,scrambled,scrambled057.bmp,,,,,0,200,200,200,,,,,,,,,,,,,,,,,,,,,,,,,,,,,,,,,,,,,,,,,,None,,407.816737060342,None,407.816737060342,None,2021-11-12-15:09:34.590955,407.8416066998616,408.1501874998212,407.8416066998616,None,None,407.8416066998616,None,408.6335561600514,None,,,,11003,0002,2021_Nov_12_1503,localizer,2021.1.3,59.944311631464515,
block,scrambled,scrambled012.bmp,,,,,0,201,201,201,,,,,,,,,,,,,,,,,,,,,,,,,,,,,,,,,,,,,,,,,,None,,408.6335561600514,None,408.6335561600514,None,2021-11-12-15:09:35.407963,408.64635130017996,408.950133100152,408.64635130017996,None,None,408.64635130017996,None,409.4502327599563,None,,,,11003,0002,2021_Nov_12_1503,localizer,2021.1.3,59.944311631464515,
block,scrambled,scrambled013.bmp,,,,,0,202,202,202,,,,,,,,,,,,,,,,,,,,,,,,,,,,,,,,,,,,,,,,,,None,,409.4502327599563,None,409.4502327599563,None,2021-11-12-15:09:36.224447,409.46404800005257,409.7668906999752,409.46404800005257,None,None,409.46404800005257,None,410.2668813605793,None,,,,11003,0002,2021_Nov_12_1503,localizer,2021.1.3,59.944311631464515,
block,scrambled,scrambled062.bmp,,,,,0,203,203,203,,,,,,,,,,,,,,,,,,,,,,,,,,,,,,,,,,,,,,,,,,None,,410.2668813605793,None,410.2668813605793,None,2021-11-12-15:09:37.041870,410.2894737999886,410.6001785006374,410.2894737999886,None,None,410.2894737999886,None,411.0835705603473,None,,,,11003,0002,2021_Nov_12_1503,localizer,2021.1.3,59.944311631464515,
block,scrambled,scrambled068.bmp,,,,,0,204,204,204,,,,,,,,,,,,,,,,,,,,,,,,,,,,,,,,,,,,,,,,,,None,,411.0835705603473,None,411.0835705603473,None,2021-11-12-15:09:37.857780,411.09621190000325,411.40023860055953,411.09621190000325,None,None,411.09621190000325,None,411.9001434602775,None,,,,11003,0002,2021_Nov_12_1503,localizer,2021.1.3,59.944311631464515,
block,scrambled,scrambled050.bmp,,,,,0,205,205,205,,,,,,,,,,,,,,,,,,,,,,,,,,,,,,,,,,,,,,,,,,None,,411.9001434602775,None,411.9001434602775,None,2021-11-12-15:09:38.674128,411.92109590023756,412.2335622003302,411.92109590023756,None,None,411.92109590023756,None,412.7168375606649,None,,,,11003,0002,2021_Nov_12_1503,localizer,2021.1.3,59.944311631464515,
block,scrambled,scrambled085.bmp,,,,,0,206,206,206,,,,,,,,,,,,,,,,,,,,,,,,,,,,,,,,,,,,,,,,,,None,,412.7168375606649,None,412.7168375606649,None,2021-11-12-15:09:39.491249,412.730905899778,413.0335666006431,412.730905899778,None,None,412.730905899778,None,413.53359516048806,None,,,,11003,0002,2021_Nov_12_1503,localizer,2021.1.3,59.944311631464515,
block,scrambled,scrambled048.bmp,,,,,0,207,207,207,,,,,,,,,,,,,,,,,,,,,,,,,,,,,,,,,,,,,,,,,,None,,413.53359516048806,None,413.53359516048806,None,2021-11-12-15:09:40.307806,413.55379050038755,413.8669166006148,413.55379050038755,None,None,413.55379050038755,None,414.35009125983345,None,,,,11003,0002,2021_Nov_12_1503,localizer,2021.1.3,59.944311631464515,
block,scrambled,scrambled064.bmp,,,,,0,208,208,208,,,,,,,,,,,,,,,,,,,,,,,,,,,,,,,,,,,,,,,,,,None,,414.35009125983345,None,414.35009125983345,None,2021-11-12-15:09:41.124972,414.36272560060024,414.66689079999924,414.36272560060024,None,None,414.36272560060024,None,415.16693245982754,None,,,,11003,0002,2021_Nov_12_1503,localizer,2021.1.3,59.944311631464515,
block,scrambled,scrambled027.bmp,,,,,0,209,209,209,,,,,,,,,,,,,,,,,,,,,,,,,,,,,,,,,,,,,,,,,,None,,415.16693245982754,None,415.16693245982754,None,2021-11-12-15:09:41.940892,415.17930539976805,415.48354869987816,415.17930539976805,None,None,415.17930539976805,None,415.98360536051916,None,,,,11003,0002,2021_Nov_12_1503,localizer,2021.1.3,59.944311631464515,
block,scrambled,scrambled036.bmp,,,,,0,210,210,210,,,,,,,,,,,,,,,,,,,,,,,,,,,,,,,,,,,,,,,,,,None,,415.98360536051916,None,415.98360536051916,None,2021-11-12-15:09:42.758027,416.0044301999733,416.3169106999412,416.0044301999733,None,None,416.0044301999733,None,416.80026736008006,None,,,,11003,0002,2021_Nov_12_1503,localizer,2021.1.3,59.944311631464515,
block,scrambled,scrambled088.bmp,,,,,0,211,211,211,,,,,,,,,,,,,,,,,,,,,,,,,,,,,,,,,,,,,,,,,,None,,416.80026736008006,None,416.80026736008006,None,2021-11-12-15:09:43.574679,416.81433339975774,417.11692619975656,416.81433339975774,None,None,416.81433339975774,None,417.616884860117,None,,,,11003,0002,2021_Nov_12_1503,localizer,2021.1.3,59.944311631464515,
block_end,scrambled,scrambled053.bmp,,,,,0,212,212,212,,,,,,,,,,,,,,,,,,,,,,,,,,,,,,,,,,,,,,,,,,None,,417.616884860117,None,417.616884860117,None,2021-11-12-15:09:44.392101,417.6318268002942,417.93324830010533,417.6318268002942,None,None,417.6318268002942,None,418.4335267598741,None,,,,11003,0002,2021_Nov_12_1503,localizer,2021.1.3,59.944311631464515,
null_block,null_block,null_block.bmp,,,,,0,213,213,213,,,,,,,,,,,,,,,,,,,,,,,,,,,,,,,,,,,,,,,,,,t,2.594995799474418,418.4333918001503,None,418.4333918001503,None,2021-11-12-15:09:47.822727,421.0669931199402,None,421.0669931199402,None,None,421.0669931199402,None,421.06984429992735,None,,,,11003,0002,2021_Nov_12_1503,localizer,2021.1.3,59.944311631464515,
block_start,scenes,scenes081.bmp,,,,,0,214,214,214,,,,,,,,,,,,,,,,,,,,,,,,,,,,,,,,,,,,,,,,,,t,3.1581137999892235,433.0837203999981,None,433.0837203999981,None,2021-11-12-15:10:03.042498,436.28300140053034,436.5835030004382,436.28300140053034,None,None,436.28300140053034,None,437.0836656604894,None,,,,11003,0002,2021_Nov_12_1503,localizer,2021.1.3,59.944311631464515,
block,scenes,scenes081.bmp,,,,,0,215,215,215,,,,,,,,,,,,,,,,,,,,,,,,,,,,,,,,,,,,,,,,,,None,,437.0836656604894,None,437.0836656604894,None,2021-11-12-15:10:03.858078,437.09680770058185,437.4003683999181,437.09680770058185,None,y,437.09680770058185,None,437.9003796604462,None,0.4594013998284936,,,11003,0002,2021_Nov_12_1503,localizer,2021.1.3,59.944311631464515,
block,scenes,scenes054.bmp,,,,,0,216,216,216,,,,,,,,,,,,,,,,,,,,,,,,,,,,,,,,,,,,,,,,,,None,,437.9003796604462,None,437.9003796604462,None,2021-11-12-15:10:04.674353,437.91296490002424,438.2170387003571,437.91296490002424,None,None,437.91296490002424,None,438.71694785999136,None,,,,11003,0002,2021_Nov_12_1503,localizer,2021.1.3,59.944311631464515,
block,scenes,scenes065.bmp,,,,,0,217,217,217,,,,,,,,,,,,,,,,,,,,,,,,,,,,,,,,,,,,,,,,,,None,,438.71694785999136,None,438.71694785999136,None,2021-11-12-15:10:05.491366,438.73763410001993,439.0502874003723,438.73763410001993,None,None,438.73763410001993,None,439.53341136025267,None,,,,11003,0002,2021_Nov_12_1503,localizer,2021.1.3,59.944311631464515,
block,scenes,scenes008.bmp,,,,,0,218,218,218,,,,,,,,,,,,,,,,,,,,,,,,,,,,,,,,,,,,,,,,,,None,,439.53341136025267,None,439.53341136025267,None,2021-11-12-15:10:06.304939,439.5419524004683,439.8503870004788,439.5419524004683,None,None,439.5419524004683,None,440.3504103598185,None,,,,11003,0002,2021_Nov_12_1503,localizer,2021.1.3,59.944311631464515,
block,scenes,scenes058.bmp,,,,,0,219,219,219,,,,,,,,,,,,,,,,,,,,,,,,,,,,,,,,,,,,,,,,,,None,,440.3504103598185,None,440.3504103598185,None,2021-11-12-15:10:07.124822,440.3642255999148,440.66705590020865,440.3642255999148,None,None,440.3642255999148,None,441.16705996068197,None,,,,11003,0002,2021_Nov_12_1503,localizer,2021.1.3,59.944311631464515,
block,scenes,scenes031.bmp,,,,,0,220,220,220,,,,,,,,,,,,,,,,,,,,,,,,,,,,,,,,,,,,,,,,,,None,,441.16705996068197,None,441.16705996068197,None,2021-11-12-15:10:07.940493,441.1874732002616,441.50039209984243,441.1874732002616,None,None,441.1874732002616,None,441.9836890603416,None,,,,11003,0002,2021_Nov_12_1503,localizer,2021.1.3,59.944311631464515,
block,scenes,scenes060.bmp,,,,,0,221,221,221,,,,,,,,,,,,,,,,,,,,,,,,,,,,,,,,,,,,,,,,,,None,,441.9836890603416,None,441.9836890603416,None,2021-11-12-15:10:08.758905,441.9988048002124,442.3003871003166,441.9988048002124,None,None,441.9988048002124,None,442.80041566016155,None,,,,11003,0002,2021_Nov_12_1503,localizer,2021.1.3,59.944311631464515,
block,scenes,scenes013.bmp,,,,,0,222,222,222,,,,,,,,,,,,,,,,,,,,,,,,,,,,,,,,,,,,,,,,,,None,,442.80041566016155,None,442.80041566016155,None,2021-11-12-15:10:09.574836,442.81352260056883,443.1170048005879,442.81352260056883,None,None,442.81352260056883,None,443.61691135996955,None,,,,11003,0002,2021_Nov_12_1503,localizer,2021.1.3,59.944311631464515,
block,scenes,scenes043.bmp,,,,,0,223,223,223,,,,,,,,,,,,,,,,,,,,,,,,,,,,,,,,,,,,,,,,,,None,,443.61691135996955,None,443.61691135996955,None,2021-11-12-15:10:10.390633,443.6352126998827,443.9336721999571,443.6352126998827,None,None,443.6352126998827,None,444.43374796016144,None,,,,11003,0002,2021_Nov_12_1503,localizer,2021.1.3,59.944311631464515,
block,scenes,scenes078.bmp,,,,,0,224,224,224,,,,,,,,,,,,,,,,,,,,,,,,,,,,,,,,,,,,,,,,,,None,,444.43374796016144,None,444.43374796016144,None,2021-11-12-15:10:11.208203,444.4468796001747,444.7503753006458,444.4468796001747,None,None,444.4468796001747,None,445.2504223602824,None,,,,11003,0002,2021_Nov_12_1503,localizer,2021.1.3,59.944311631464515,
block,scenes,scenes009.bmp,,,,,0,225,225,225,,,,,,,,,,,,,,,,,,,,,,,,,,,,,,,,,,,,,,,,,,None,,445.2504223602824,None,445.2504223602824,None,2021-11-12-15:10:12.024848,445.2645911006257,445.5670640999451,445.2645911006257,None,None,445.2645911006257,None,446.0670902597718,None,,,,11003,0002,2021_Nov_12_1503,localizer,2021.1.3,59.944311631464515,
block,scenes,scenes077.bmp,,,,,0,226,226,226,,,,,,,,,,,,,,,,,,,,,,,,,,,,,,,,,,,,,,,,,,None,,446.0670902597718,None,446.0670902597718,None,2021-11-12-15:10:12.841491,446.0799414003268,446.383753400296,446.0799414003268,None,None,446.0799414003268,None,446.8837605602108,None,,,,11003,0002,2021_Nov_12_1503,localizer,2021.1.3,59.944311631464515,
block,scenes,scenes086.bmp,,,,,0,227,227,227,,,,,,,,,,,,,,,,,,,,,,,,,,,,,,,,,,,,,,,,,,None,,446.8837605602108,None,446.8837605602108,None,2021-11-12-15:10:13.658171,446.9037736002356,447.2170798005536,446.9037736002356,None,None,446.9037736002356,None,447.700406060461,None,,,,11003,0002,2021_Nov_12_1503,localizer,2021.1.3,59.944311631464515,
block_end,scenes,scenes027.bmp,,,,,0,228,228,228,,,,,,,,,,,,,,,,,,,,,,,,,,,,,,,,,,,,,,,,,,None,,447.700406060461,None,447.700406060461,None,2021-11-12-15:10:14.474838,447.7085226001218,448.0170921999961,447.7085226001218,None,None,447.7085226001218,None,448.5167360602878,None,,,,11003,0002,2021_Nov_12_1503,localizer,2021.1.3,59.944311631464515,
block_start,objects,objects065.bmp,,,,,0,229,229,229,,,,,,,,,,,,,,,,,,,,,,,,,,,,,,,,,,,,,,,,,,t,3.165330399759114,448.51682190038264,None,448.51682190038264,None,2021-11-12-15:10:18.472802,451.719275300391,452.03376870043576,451.719275300391,None,None,451.719275300391,None,452.51693416005,None,,,,11003,0002,2021_Nov_12_1503,localizer,2021.1.3,59.944311631464515,
block,objects,objects023.bmp,,,,,0,230,230,230,,,,,,,,,,,,,,,,,,,,,,,,,,,,,,,,,,,,,,,,,,None,,452.51693416005,None,452.51693416005,None,2021-11-12-15:10:19.291355,452.5299529004842,452.833559400402,452.5299529004842,None,None,452.5299529004842,None,453.33380226036536,None,,,,11003,0002,2021_Nov_12_1503,localizer,2021.1.3,59.944311631464515,
block,objects,objects025.bmp,,,,,0,231,231,231,,,,,,,,,,,,,,,,,,,,,,,,,,,,,,,,,,,,,,,,,,None,,453.33380226036536,None,453.33380226036536,None,2021-11-12-15:10:20.108220,453.35830590035766,453.66692719981074,453.35830590035766,None,None,453.35830590035766,None,454.1504288603552,None,,,,11003,0002,2021_Nov_12_1503,localizer,2021.1.3,59.944311631464515,
block,objects,objects087.bmp,,,,,0,232,232,232,,,,,,,,,,,,,,,,,,,,,,,,,,,,,,,,,,,,,,,,,,None,,454.1504288603552,None,454.1504288603552,None,2021-11-12-15:10:20.925838,454.16422019992024,454.4671274004504,454.16422019992024,None,None,454.16422019992024,None,454.9671526606195,None,,,,11003,0002,2021_Nov_12_1503,localizer,2021.1.3,59.944311631464515,
block,objects,objects078.bmp,,,,,0,233,233,233,,,,,,,,,,,,,,,,,,,,,,,,,,,,,,,,,,,,,,,,,,None,,454.9671526606195,None,454.9671526606195,None,2021-11-12-15:10:21.741567,454.9811516003683,455.2837292999029,454.9811516003683,None,None,454.9811516003683,None,455.7838109600358,None,,,,11003,0002,2021_Nov_12_1503,localizer,2021.1.3,59.944311631464515,
block,objects,objects041.bmp,,,,,0,234,234,234,,,,,,,,,,,,,,,,,,,,,,,,,,,,,,,,,,,,,,,,,,None,,455.7838109600358,None,455.7838109600358,None,2021-11-12-15:10:22.558238,455.80526020005345,456.117136400193,455.80526020005345,None,None,455.80526020005345,None,456.6002873600461,None,,,,11003,0002,2021_Nov_12_1503,localizer,2021.1.3,59.944311631464515,
block,objects,objects024.bmp,,,,,0,235,235,235,,,,,,,,,,,,,,,,,,,,,,,,,,,,,,,,,,,,,,,,,,None,,456.6002873600461,None,456.6002873600461,None,2021-11-12-15:10:23.367140,456.6014819005504,456.90041220001876,456.6014819005504,None,None,456.6014819005504,None,457.4004936599173,None,,,,11003,0002,2021_Nov_12_1503,localizer,2021.1.3,59.944311631464515,
block,objects,objects016.bmp,,,,,0,236,236,236,,,,,,,,,,,,,,,,,,,,,,,,,,,,,,,,,,,,,,,,,,None,,457.4004936599173,None,457.4004936599173,None,2021-11-12-15:10:24.175711,457.41390050016344,457.7171170003712,457.41390050016344,457.41390050016344,None,457.41390050016344,457.41390050016344,458.21706945998596,None,,,,11003,0002,2021_Nov_12_1503,localizer,2021.1.3,59.944311631464515,
block,objects,objects035.bmp,,,,,0,237,237,237,,,,,,,,,,,,,,,,,,,,,,,,,,,,,,,,,,,,,,,,,,None,,458.21706945998596,None,458.21706945998596,None,2021-11-12-15:10:24.990028,458.2293856004253,458.5338198998943,458.2293856004253,None,None,458.2293856004253,None,459.0338369597681,None,,,,11003,0002,2021_Nov_12_1503,localizer,2021.1.3,59.944311631464515,
block,objects,objects059.bmp,,,,,0,238,238,238,,,,,,,,,,,,,,,,,,,,,,,,,,,,,,,,,,,,,,,,,,None,,459.0338369597681,None,459.0338369597681,None,2021-11-12-15:10:25.808258,459.04671590030193,459.3504961002618,459.04671590030193,None,None,459.04671590030193,None,459.8505088602193,None,,,,11003,0002,2021_Nov_12_1503,localizer,2021.1.3,59.944311631464515,
block,objects,objects011.bmp,,,,,0,239,239,239,,,,,,,,,,,,,,,,,,,,,,,,,,,,,,,,,,,,,,,,,,None,,459.8505088602193,None,459.8505088602193,None,2021-11-12-15:10:26.624914,459.86329350061715,460.1670879004523,459.86329350061715,None,None,459.86329350061715,None,460.6671308604069,None,,,,11003,0002,2021_Nov_12_1503,localizer,2021.1.3,59.944311631464515,
block,objects,objects052.bmp,,,,,0,240,240,240,,,,,,,,,,,,,,,,,,,,,,,,,,,,,,,,,,,,,,,,,,None,,460.6671308604069,None,460.6671308604069,None,2021-11-12-15:10:27.441541,460.67996640037745,460.98382900003344,460.67996640037745,None,None,460.67996640037745,None,461.4838479598053,None,,,,11003,0002,2021_Nov_12_1503,localizer,2021.1.3,59.944311631464515,
block,objects,objects079.bmp,,,,,0,241,241,241,,,,,,,,,,,,,,,,,,,,,,,,,,,,,,,,,,,,,,,,,,None,,461.4838479598053,None,461.4838479598053,None,2021-11-12-15:10:28.259060,461.4976673005149,461.8004708997905,461.4976673005149,None,None,461.4976673005149,None,462.30049706054854,None,,,,11003,0002,2021_Nov_12_1503,localizer,2021.1.3,59.944311631464515,
block,objects,objects068.bmp,,,,,0,242,242,242,,,,,,,,,,,,,,,,,,,,,,,,,,,,,,,,,,,,,,,,,,None,,462.30049706054854,None,462.30049706054854,None,2021-11-12-15:10:29.075709,462.31541400030255,462.61716429982334,462.31541400030255,None,None,462.31541400030255,None,463.1172041603364,None,,,,11003,0002,2021_Nov_12_1503,localizer,2021.1.3,59.944311631464515,
block_end,objects,objects051.bmp,,,,,0,243,243,243,,,,,,,,,,,,,,,,,,,,,,,,,,,,,,,,,,,,,,,,,,None,,463.1172041603364,None,463.1172041603364,None,2021-11-12-15:10:29.890635,463.1289769001305,463.43386470060796,463.1289769001305,None,None,463.1289769001305,None,463.93386086067187,None,,,,11003,0002,2021_Nov_12_1503,localizer,2021.1.3,59.944311631464515,
,,,,,,,,,,,,,,,,,,,,,,,,,,,,,,,,,,,,,,,,,,,,,,,,,,,,,,,,,,,,,,,,,,,,,463.933812700212,None,,,,,,,
