block_type,condition,img_name,Button.thisRepN,Button.thisTrialN,Button.thisN,Button.thisIndex,trials.thisRepN,trials.thisTrialN,trials.thisN,trials.thisIndex,Ready_experimenter_text.started,Ready_experimenter_text.stopped,Ready_experimenter_resp.keys,Ready_experimenter_resp.rt,Ready_experimenter_resp.started,Ready_experimenter_resp.stopped,Alignment_background.started,Alignment_background.stopped,Alignment_image.started,Alignment_image.stopped,Alignment_resp.keys,Alignment_resp.rt,Alignment_resp.started,Alignment_resp.stopped,Button_text.started,Button_text.stopped,Index_text.started,Index_text.stopped,Index_resp.keys,Index_resp.rt,Index_resp.started,Index_resp.stopped,Middle_text.started,Middle_text.stopped,Middle_resp.keys,Middle_resp.rt,Middle_resp.started,Middle_resp.stopped,Repeat_text.started,Repeat_text.stopped,Repeat_resp.keys,Repeat_resp.corr,Repeat_resp.rt,Repeat_resp.started,Repeat_resp.stopped,instruction_text.started,instruction_text.stopped,key_resp.keys,key_resp.rt,key_resp.started,key_resp.stopped,scanner_t.keys,scanner_t.rt,scanner_t.started,scanner_t.stopped,fixation_wait_for_t.started,fixation_wait_for_t.stopped,real_timestamp_trial_start,image.started,image.stopped,fixation.started,fixation.stopped,repeat_response.keys,repeat_response.started,repeat_response.stopped,fixation_null.started,fixation_null.stopped,repeat_response.rt,end_text.started,end_text.stopped,participant,run,date,expName,psychopyVersion,frameRate,
,,,,,,,,,,,14.5995552999957,None,return,87.27201869999408,14.5995552999957,None,,,,,,,,,,,,,,,,,,,,,,,,,,,,,,,,,,,,,,,,,,,,,,,,,,,,,,,12011,0001,2022_Feb_03_0927,localizer,2021.1.3,60.48750509722457,
,,,,,,,,,,,,,,,,,101.92058139998699,None,101.92058139998699,None,return,8.812227000016719,101.92058139998699,None,,,,,,,,,,,,,,,,,,,,,,,,,,,,,,,,,,,,,,,,,,,,,,,12011,0001,2022_Feb_03_0927,localizer,2021.1.3,60.48750509722457,
,,,0,0,0,0,,,,,,,,,,,,,,,,,,,110.75890479999362,None,111.76926839997759,None,y,1.6667356000107247,111.76926839997759,None,113.45860519999405,None,b,1.988997600012226,113.45860519999405,None,115.47013679999509,None,n,0,2.746910999994725,115.47013679999509,None,,,,,,,,,,,,,,,,,,,,,,,,,,12011,0001,2022_Feb_03_0927,localizer,2021.1.3,60.48750509722457,
,,,,,,,,,,,,,,,,,,,,,,,,,,,,,,,,,,,,,,,,,,,,,,118.23775739999837,None,y,31.443956699979026,118.23775739999837,None,,,,,,,,,,,,,,,,,,,,12011,0001,2022_Feb_03_0927,localizer,2021.1.3,60.48750509722457,
block_start,objects,objects022.bmp,,,,,0,0,0,0,,,,,,,,,,,,,,,,,,,,,,,,,,,,,,,,,,,,,,,,,,t,16.26437520000036,149.77328329999,None,149.77328329999,None,2022-02-03-09:30:13.703702,166.06965910000145,166.3704259999795,166.06965910000145,None,None,166.06965910000145,None,166.87005289998197,None,,,,12011,0001,2022_Feb_03_0927,localizer,2021.1.3,60.48750509722457,
block,objects,objects082.bmp,,,,,0,1,1,1,,,,,,,,,,,,,,,,,,,,,,,,,,,,,,,,,,,,,,,,,,None,,166.87005289998197,None,166.87005289998197,None,2022-02-03-09:30:14.521242,166.8839367000037,167.1867004999949,166.8839367000037,None,None,166.8839367000037,None,167.68689459997987,None,,,,12011,0001,2022_Feb_03_0927,localizer,2021.1.3,60.48750509722457,
block,objects,objects027.bmp,,,,,0,2,2,2,,,,,,,,,,,,,,,,,,,,,,,,,,,,,,,,,,,,,,,,,,None,,167.68689459997987,None,167.68689459997987,None,2022-02-03-09:30:15.335092,167.69842279999284,168.0046702999971,167.69842279999284,None,None,167.69842279999284,None,168.50345349997806,None,,,,12011,0001,2022_Feb_03_0927,localizer,2021.1.3,60.48750509722457,
block,objects,objects088.bmp,,,,,0,3,3,3,,,,,,,,,,,,,,,,,,,,,,,,,,,,,,,,,,,,,,,,,,None,,168.50345349997806,None,168.50345349997806,None,2022-02-03-09:30:16.151654,168.51454889998422,168.82024139998248,168.51454889998422,None,None,168.51454889998422,None,169.32024269998365,None,,,,12011,0001,2022_Feb_03_0927,localizer,2021.1.3,60.48750509722457,
block,objects,objects014.bmp,,,,,0,4,4,4,,,,,,,,,,,,,,,,,,,,,,,,,,,,,,,,,,,,,,,,,,None,,169.32024269998365,None,169.32024269998365,None,2022-02-03-09:30:16.968440,169.33055009998498,169.63669809998828,169.33055009998498,None,None,169.33055009998498,None,170.13677649999445,None,,,,12011,0001,2022_Feb_03_0927,localizer,2021.1.3,60.48750509722457,
block,objects,objects085.bmp,,,,,0,5,5,5,,,,,,,,,,,,,,,,,,,,,,,,,,,,,,,,,,,,,,,,,,None,,170.13677649999445,None,170.13677649999445,None,2022-02-03-09:30:17.785169,170.14786810000078,170.45378869998967,170.14786810000078,None,None,170.14786810000078,None,170.9528229999909,None,,,,12011,0001,2022_Feb_03_0927,localizer,2021.1.3,60.48750509722457,
block,objects,objects021.bmp,,,,,0,6,6,6,,,,,,,,,,,,,,,,,,,,,,,,,,,,,,,,,,,,,,,,,,None,,170.9528229999909,None,170.9528229999909,None,2022-02-03-09:30:18.601030,170.96178889999283,171.2710232999816,170.96178889999283,None,None,170.96178889999283,None,171.7705837000016,None,,,,12011,0001,2022_Feb_03_0927,localizer,2021.1.3,60.48750509722457,
block,objects,objects025.bmp,,,,,0,7,7,7,,,,,,,,,,,,,,,,,,,,,,,,,,,,,,,,,,,,,,,,,,None,,171.7705837000016,None,171.7705837000016,None,2022-02-03-09:30:19.419755,171.78169589999015,172.08709279997856,171.78169589999015,None,None,171.78169589999015,None,172.58678519998503,None,,,,12011,0001,2022_Feb_03_0927,localizer,2021.1.3,60.48750509722457,
block,objects,objects080.bmp,,,,,0,8,8,8,,,,,,,,,,,,,,,,,,,,,,,,,,,,,,,,,,,,,,,,,,None,,172.58678519998503,None,172.58678519998503,None,2022-02-03-09:30:20.235001,172.5968714999908,172.90417349999188,172.5968714999908,None,None,172.5968714999908,None,173.40377769999614,None,,,,12011,0001,2022_Feb_03_0927,localizer,2021.1.3,60.48750509722457,
block,objects,objects026.bmp,,,,,0,9,9,9,,,,,,,,,,,,,,,,,,,,,,,,,,,,,,,,,,,,,,,,,,None,,173.40377769999614,None,173.40377769999614,None,2022-02-03-09:30:21.053034,173.41723199997796,173.72092579997843,173.41723199997796,None,None,173.41723199997796,None,174.21969589997607,None,,,,12011,0001,2022_Feb_03_0927,localizer,2021.1.3,60.48750509722457,
block,objects,objects030.bmp,,,,,0,10,10,10,,,,,,,,,,,,,,,,,,,,,,,,,,,,,,,,,,,,,,,,,,None,,174.21969589997607,None,174.21969589997607,None,2022-02-03-09:30:21.867900,174.22852659999626,174.5368521999917,174.22852659999626,None,None,174.22852659999626,None,175.03700410000457,None,,,,12011,0001,2022_Feb_03_0927,localizer,2021.1.3,60.48750509722457,
block,objects,objects054.bmp,,,,,0,11,11,11,,,,,,,,,,,,,,,,,,,,,,,,,,,,,,,,,,,,,,,,,,None,,175.03700410000457,None,175.03700410000457,None,2022-02-03-09:30:22.685406,175.04800469998736,175.35380599999917,175.04800469998736,None,None,175.04800469998736,None,175.8540554999985,None,,,,12011,0001,2022_Feb_03_0927,localizer,2021.1.3,60.48750509722457,
block,objects,objects078.bmp,,,,,0,12,12,12,,,,,,,,,,,,,,,,,,,,,,,,,,,,,,,,,,,,,,,,,,None,,175.8540554999985,None,175.8540554999985,None,2022-02-03-09:30:23.503243,175.8662516999757,176.17371589998947,175.8662516999757,None,None,175.8662516999757,None,176.66946809999936,None,,,,12011,0001,2022_Feb_03_0927,localizer,2021.1.3,60.48750509722457,
block,objects,objects033.bmp,,,,,0,13,13,13,,,,,,,,,,,,,,,,,,,,,,,,,,,,,,,,,,,,,,,,,,None,,176.66946809999936,None,176.66946809999936,None,2022-02-03-09:30:24.317675,176.67815989998053,176.98752389999572,176.67815989998053,None,None,176.67815989998053,None,177.48666349998385,None,,,,12011,0001,2022_Feb_03_0927,localizer,2021.1.3,60.48750509722457,
block_end,objects,objects073.bmp,,,,,0,14,14,14,,,,,,,,,,,,,,,,,,,,,,,,,,,,,,,,,,,,,,,,,,None,,177.48666349998385,None,177.48666349998385,None,2022-02-03-09:30:25.135042,177.49779379999381,177.80416969998623,177.49779379999381,None,None,177.49779379999381,None,178.30447429999768,None,,,,12011,0001,2022_Feb_03_0927,localizer,2021.1.3,60.48750509722457,
null_block,null_block,null_block.bmp,,,,,0,15,15,15,,,,,,,,,,,,,,,,,,,,,,,,,,,,,,,,,,,,,,,,,,t,1.731772800005274,178.3048659999913,None,178.3048659999913,None,2022-02-03-09:30:27.704587,180.07117199997884,None,180.07117199997884,None,None,180.07117199997884,None,180.0720490999811,None,,,,12011,0001,2022_Feb_03_0927,localizer,2021.1.3,60.48750509722457,
block_start,scrambled,scrambled005.bmp,,,,,0,16,16,16,,,,,,,,,,,,,,,,,,,,,,,,,,,,,,,,,,,,,,,,,,t,1.9488907999766525,192.08764650000376,None,192.08764650000376,None,2022-02-03-09:30:41.704236,194.0659958999895,194.37178079999285,194.0659958999895,None,None,194.0659958999895,None,194.8708628999797,None,,,,12011,0001,2022_Feb_03_0927,localizer,2021.1.3,60.48750509722457,
block,scrambled,scrambled013.bmp,,,,,0,17,17,17,,,,,,,,,,,,,,,,,,,,,,,,,,,,,,,,,,,,,,,,,,None,,194.8708628999797,None,194.8708628999797,None,2022-02-03-09:30:42.520051,194.88201309999567,195.18726979999337,194.88201309999567,None,None,194.88201309999567,None,195.68641539999808,None,,,,12011,0001,2022_Feb_03_0927,localizer,2021.1.3,60.48750509722457,
block,scrambled,scrambled036.bmp,,,,,0,18,18,18,,,,,,,,,,,,,,,,,,,,,,,,,,,,,,,,,,,,,,,,,,None,,195.68641539999808,None,195.68641539999808,None,2022-02-03-09:30:43.334341,195.69456000000355,196.00432349997573,195.69456000000355,None,None,195.69456000000355,None,196.504190500002,None,,,,12011,0001,2022_Feb_03_0927,localizer,2021.1.3,60.48750509722457,
block,scrambled,scrambled021.bmp,,,,,0,19,19,19,,,,,,,,,,,,,,,,,,,,,,,,,,,,,,,,,,,,,,,,,,None,,196.504190500002,None,196.504190500002,None,2022-02-03-09:30:44.153342,196.5163149999862,196.82063339999877,196.5163149999862,None,None,196.5163149999862,None,197.32042490000313,None,,,,12011,0001,2022_Feb_03_0927,localizer,2021.1.3,60.48750509722457,
block,scrambled,scrambled047.bmp,,,,,0,20,20,20,,,,,,,,,,,,,,,,,,,,,,,,,,,,,,,,,,,,,,,,,,None,,197.32042490000313,None,197.32042490000313,None,2022-02-03-09:30:44.969596,197.33215189998737,197.63756619999185,197.33215189998737,None,None,197.33215189998737,None,198.12656219998317,None,,,,12011,0001,2022_Feb_03_0927,localizer,2021.1.3,60.48750509722457,
block,scrambled,scrambled052.bmp,,,,,0,21,21,21,,,,,,,,,,,,,,,,,,,,,,,,,,,,,,,,,,,,,,,,,,None,,198.12656219998317,None,198.12656219998317,None,2022-02-03-09:30:45.781552,198.14583589998074,198.45395749999443,198.14583589998074,None,None,198.14583589998074,None,198.9379508999904,None,,,,12011,0001,2022_Feb_03_0927,localizer,2021.1.3,60.48750509722457,
block,scrambled,scrambled083.bmp,,,,,0,22,22,22,,,,,,,,,,,,,,,,,,,,,,,,,,,,,,,,,,,,,,,,,,None,,198.9379508999904,None,198.9379508999904,None,2022-02-03-09:30:46.587136,198.94606989997556,199.25384550000308,198.94606989997556,None,None,198.94606989997556,None,199.7542438000004,None,,,,12011,0001,2022_Feb_03_0927,localizer,2021.1.3,60.48750509722457,
block,scrambled,scrambled035.bmp,,,,,0,23,23,23,,,,,,,,,,,,,,,,,,,,,,,,,,,,,,,,,,,,,,,,,,None,,199.7542438000004,None,199.7542438000004,None,2022-02-03-09:30:47.403347,199.76631300000008,200.07147749999422,199.76631300000008,None,None,199.76631300000008,None,200.5707315999811,None,,,,12011,0001,2022_Feb_03_0927,localizer,2021.1.3,60.48750509722457,
block,scrambled,scrambled035.bmp,,,,,0,24,24,24,,,,,,,,,,,,,,,,,,,,,,,,,,,,,,,,,,,,,,,,,,None,,200.5707315999811,None,200.5707315999811,None,2022-02-03-09:30:48.219920,200.5727175999782,200.88781919999747,200.5727175999782,None,None,200.5727175999782,None,201.38655970000255,None,,,,12011,0001,2022_Feb_03_0927,localizer,2021.1.3,60.48750509722457,
block,scrambled,scrambled068.bmp,,,,,0,25,25,25,,,,,,,,,,,,,,,,,,,,,,,,,,,,,,,,,,,,,,,,,,None,,201.38655970000255,None,201.38655970000255,None,2022-02-03-09:30:49.034763,201.39638209997793,201.70357189999777,201.39638209997793,None,y,201.39638209997793,None,202.19161820000446,None,0.2569347000098787,,,12011,0001,2022_Feb_03_0927,localizer,2021.1.3,60.48750509722457,
block,scrambled,scrambled043.bmp,,,,,0,26,26,26,,,,,,,,,,,,,,,,,,,,,,,,,,,,,,,,,,,,,,,,,,None,,202.19161820000446,None,202.19161820000446,None,2022-02-03-09:30:49.841913,202.20563209999818,202.52094560000114,202.20563209999818,None,None,202.20563209999818,None,203.00317909998412,None,,,,12011,0001,2022_Feb_03_0927,localizer,2021.1.3,60.48750509722457,
block,scrambled,scrambled042.bmp,,,,,0,27,27,27,,,,,,,,,,,,,,,,,,,,,,,,,,,,,,,,,,,,,,,,,,None,,203.00317909998412,None,203.00317909998412,None,2022-02-03-09:30:50.651391,203.01147389999824,203.32118729999638,203.01147389999824,None,None,203.01147389999824,None,203.82049390000466,None,,,,12011,0001,2022_Feb_03_0927,localizer,2021.1.3,60.48750509722457,
block,scrambled,scrambled055.bmp,,,,,0,28,28,28,,,,,,,,,,,,,,,,,,,,,,,,,,,,,,,,,,,,,,,,,,None,,203.82049390000466,None,203.82049390000466,None,2022-02-03-09:30:51.470292,203.8328728999768,204.1377722999896,203.8328728999768,None,None,203.8328728999768,None,204.63786829998426,None,,,,12011,0001,2022_Feb_03_0927,localizer,2021.1.3,60.48750509722457,
block,scrambled,scrambled082.bmp,,,,,0,29,29,29,,,,,,,,,,,,,,,,,,,,,,,,,,,,,,,,,,,,,,,,,,None,,204.63786829998426,None,204.63786829998426,None,2022-02-03-09:30:52.286032,204.64669839999988,204.9542082999833,204.64669839999988,None,None,204.64669839999988,None,205.45433479997737,None,,,,12011,0001,2022_Feb_03_0927,localizer,2021.1.3,60.48750509722457,
block_end,scrambled,scrambled032.bmp,,,,,0,30,30,30,,,,,,,,,,,,,,,,,,,,,,,,,,,,,,,,,,,,,,,,,,None,,205.45433479997737,None,205.45433479997737,None,2022-02-03-09:30:53.103659,205.4665189999796,205.77129049997893,205.4665189999796,None,None,205.4665189999796,None,206.27048779999896,None,,,,12011,0001,2022_Feb_03_0927,localizer,2021.1.3,60.48750509722457,
block_start,scenes,scenes063.bmp,,,,,0,31,31,31,,,,,,,,,,,,,,,,,,,,,,,,,,,,,,,,,,,,,,,,,,t,1.7656863000011072,206.2710087999876,None,206.2710087999876,None,2022-02-03-09:30:55.703387,208.06512739998288,208.3709594999964,208.06512739998288,None,None,208.06512739998288,None,208.87229180000432,None,,,,12011,0001,2022_Feb_03_0927,localizer,2021.1.3,60.48750509722457,
block,scenes,scenes016.bmp,,,,,0,32,32,32,,,,,,,,,,,,,,,,,,,,,,,,,,,,,,,,,,,,,,,,,,None,,208.87229180000432,None,208.87229180000432,None,2022-02-03-09:30:56.523682,208.89280509998207,209.20490299997618,208.89280509998207,None,None,208.89280509998207,None,209.6866000999784,None,,,,12011,0001,2022_Feb_03_0927,localizer,2021.1.3,60.48750509722457,
block,scenes,scenes011.bmp,,,,,0,33,33,33,,,,,,,,,,,,,,,,,,,,,,,,,,,,,,,,,,,,,,,,,,None,,209.6866000999784,None,209.6866000999784,None,2022-02-03-09:30:57.334542,209.69530379999196,210.00332989997696,209.69530379999196,None,None,209.69530379999196,None,210.50405229999743,None,,,,12011,0001,2022_Feb_03_0927,localizer,2021.1.3,60.48750509722457,
block,scenes,scenes052.bmp,,,,,0,34,34,34,,,,,,,,,,,,,,,,,,,,,,,,,,,,,,,,,,,,,,,,,,None,,210.50405229999743,None,210.50405229999743,None,2022-02-03-09:30:58.153241,210.5163501999923,210.82067899999674,210.5163501999923,None,None,210.5163501999923,None,211.32143879998185,None,,,,12011,0001,2022_Feb_03_0927,localizer,2021.1.3,60.48750509722457,
block,scenes,scenes028.bmp,,,,,0,35,35,35,,,,,,,,,,,,,,,,,,,,,,,,,,,,,,,,,,,,,,,,,,None,,211.32143879998185,None,211.32143879998185,None,2022-02-03-09:30:58.970748,211.33516180000152,211.6376283999998,211.33516180000152,None,None,211.33516180000152,None,212.13699249998027,None,,,,12011,0001,2022_Feb_03_0927,localizer,2021.1.3,60.48750509722457,
block,scenes,scenes015.bmp,,,,,0,36,36,36,,,,,,,,,,,,,,,,,,,,,,,,,,,,,,,,,,,,,,,,,,None,,212.13699249998027,None,212.13699249998027,None,2022-02-03-09:30:59.785192,212.1481608999893,212.4546313000028,212.1481608999893,None,None,212.1481608999893,None,212.95466569999408,None,,,,12011,0001,2022_Feb_03_0927,localizer,2021.1.3,60.48750509722457,
block,scenes,scenes059.bmp,,,,,0,37,37,37,,,,,,,,,,,,,,,,,,,,,,,,,,,,,,,,,,,,,,,,,,None,,212.95466569999408,None,212.95466569999408,None,2022-02-03-09:31:00.604995,212.96812589999172,213.27122709999094,212.96812589999172,None,None,212.96812589999172,None,213.77045499998204,None,,,,12011,0001,2022_Feb_03_0927,localizer,2021.1.3,60.48750509722457,
block,scenes,scenes005.bmp,,,,,0,38,38,38,,,,,,,,,,,,,,,,,,,,,,,,,,,,,,,,,,,,,,,,,,None,,213.77045499998204,None,213.77045499998204,None,2022-02-03-09:31:01.418876,213.78183299998636,214.08742070000153,213.78183299998636,None,None,213.78183299998636,None,214.58757269998605,None,,,,12011,0001,2022_Feb_03_0927,localizer,2021.1.3,60.48750509722457,
block,scenes,scenes023.bmp,,,,,0,39,39,39,,,,,,,,,,,,,,,,,,,,,,,,,,,,,,,,,,,,,,,,,,None,,214.58757269998605,None,214.58757269998605,None,2022-02-03-09:31:02.237763,214.60077399999136,214.9045255999954,214.60077399999136,None,y,214.60077399999136,None,215.40417559999915,None,0.6064250000054017,,,12011,0001,2022_Feb_03_0927,localizer,2021.1.3,60.48750509722457,
block,scenes,scenes081.bmp,,,,,0,40,40,40,,,,,,,,,,,,,,,,,,,,,,,,,,,,,,,,,,,,,,,,,,None,,215.40417559999915,None,215.40417559999915,None,2022-02-03-09:31:03.053345,215.41633169999113,215.7208277999889,215.41633169999113,None,None,215.41633169999113,None,216.22030189999205,None,,,,12011,0001,2022_Feb_03_0927,localizer,2021.1.3,60.48750509722457,
block,scenes,scenes022.bmp,,,,,0,41,41,41,,,,,,,,,,,,,,,,,,,,,,,,,,,,,,,,,,,,,,,,,,None,,216.22030189999205,None,216.22030189999205,None,2022-02-03-09:31:03.868505,216.23142070000176,216.53759919997538,216.23142070000176,None,None,216.23142070000176,None,217.03744989999396,None,,,,12011,0001,2022_Feb_03_0927,localizer,2021.1.3,60.48750509722457,
block,scenes,scenes027.bmp,,,,,0,42,42,42,,,,,,,,,,,,,,,,,,,,,,,,,,,,,,,,,,,,,,,,,,None,,217.03744989999396,None,217.03744989999396,None,2022-02-03-09:31:04.686728,217.04985339997802,217.35444139997708,217.04985339997802,None,None,217.04985339997802,None,217.85446359999187,None,,,,12011,0001,2022_Feb_03_0927,localizer,2021.1.3,60.48750509722457,
block,scenes,scenes010.bmp,,,,,0,43,43,43,,,,,,,,,,,,,,,,,,,,,,,,,,,,,,,,,,,,,,,,,,None,,217.85446359999187,None,217.85446359999187,None,2022-02-03-09:31:05.503795,217.86757370000123,218.17124389999663,217.86757370000123,None,None,217.86757370000123,None,218.67045830000134,None,,,,12011,0001,2022_Feb_03_0927,localizer,2021.1.3,60.48750509722457,
block,scenes,scenes001.bmp,,,,,0,44,44,44,,,,,,,,,,,,,,,,,,,,,,,,,,,,,,,,,,,,,,,,,,None,,218.67045830000134,None,218.67045830000134,None,2022-02-03-09:31:06.318658,218.68097609997494,218.9873138999974,218.68097609997494,None,None,218.68097609997494,None,219.48705239997653,None,,,,12011,0001,2022_Feb_03_0927,localizer,2021.1.3,60.48750509722457,
block_end,scenes,scenes043.bmp,,,,,0,45,45,45,,,,,,,,,,,,,,,,,,,,,,,,,,,,,,,,,,,,,,,,,,None,,219.48705239997653,None,219.48705239997653,None,2022-02-03-09:31:07.135450,219.49862989998655,219.80417059999309,219.49862989998655,None,None,219.49862989998655,None,220.30360509998573,None,,,,12011,0001,2022_Feb_03_0927,localizer,2021.1.3,60.48750509722457,
block_start,faces,faces011.bmp,,,,,0,46,46,46,,,,,,,,,,,,,,,,,,,,,,,,,,,,,,,,,,,,,,,,,,t,1.7327363999793306,220.303868899995,None,220.303868899995,None,2022-02-03-09:31:09.700940,222.0653619999939,222.37074049998773,222.0653619999939,None,None,222.0653619999939,None,222.87020490000432,None,,,,12011,0001,2022_Feb_03_0927,localizer,2021.1.3,60.48750509722457,
block,faces,faces027.bmp,,,,,0,47,47,47,,,,,,,,,,,,,,,,,,,,,,,,,,,,,,,,,,,,,,,,,,None,,222.87020490000432,None,222.87020490000432,None,2022-02-03-09:31:10.518609,222.8816665999766,223.18765759997768,222.8816665999766,None,None,222.8816665999766,None,223.68731889998017,None,,,,12011,0001,2022_Feb_03_0927,localizer,2021.1.3,60.48750509722457,
block,faces,faces067.bmp,,,,,0,48,48,48,,,,,,,,,,,,,,,,,,,,,,,,,,,,,,,,,,,,,,,,,,None,,223.68731889998017,None,223.68731889998017,None,2022-02-03-09:31:11.336537,223.6995519999764,224.00371569997515,223.6995519999764,None,None,223.6995519999764,None,224.50467600000266,None,,,,12011,0001,2022_Feb_03_0927,localizer,2021.1.3,60.48750509722457,
block,faces,faces023.bmp,,,,,0,49,49,49,,,,,,,,,,,,,,,,,,,,,,,,,,,,,,,,,,,,,,,,,,None,,224.50467600000266,None,224.50467600000266,None,2022-02-03-09:31:12.153995,224.51768699998502,224.8210720999923,224.51768699998502,None,None,224.51768699998502,None,225.32057549998572,None,,,,12011,0001,2022_Feb_03_0927,localizer,2021.1.3,60.48750509722457,
block,faces,faces010.bmp,,,,,0,50,50,50,,,,,,,,,,,,,,,,,,,,,,,,,,,,,,,,,,,,,,,,,,None,,225.32057549998572,None,225.32057549998572,None,2022-02-03-09:31:12.969767,225.33244119997835,225.63726560000214,225.33244119997835,None,None,225.33244119997835,None,226.138165999981,None,,,,12011,0001,2022_Feb_03_0927,localizer,2021.1.3,60.48750509722457,
block,faces,faces083.bmp,,,,,0,51,51,51,,,,,,,,,,,,,,,,,,,,,,,,,,,,,,,,,,,,,,,,,,None,,226.138165999981,None,226.138165999981,None,2022-02-03-09:31:13.788207,226.15215219999664,226.4536933999916,226.15215219999664,None,None,226.15215219999664,None,226.95370259999473,None,,,,12011,0001,2022_Feb_03_0927,localizer,2021.1.3,60.48750509722457,
block,faces,faces049.bmp,,,,,0,52,52,52,,,,,,,,,,,,,,,,,,,,,,,,,,,,,,,,,,,,,,,,,,None,,226.95370259999473,None,226.95370259999473,None,2022-02-03-09:31:14.601903,226.96558570000343,227.27097199999844,226.96558570000343,None,None,226.96558570000343,None,227.77040689999413,None,,,,12011,0001,2022_Feb_03_0927,localizer,2021.1.3,60.48750509722457,
block,faces,faces018.bmp,,,,,0,53,53,53,,,,,,,,,,,,,,,,,,,,,,,,,,,,,,,,,,,,,,,,,,None,,227.77040689999413,None,227.77040689999413,None,2022-02-03-09:31:15.419611,227.77987619998748,228.08692899998277,227.77987619998748,None,None,227.77987619998748,None,228.58721160000132,None,,,,12011,0001,2022_Feb_03_0927,localizer,2021.1.3,60.48750509722457,
block,faces,faces037.bmp,,,,,0,54,54,54,,,,,,,,,,,,,,,,,,,,,,,,,,,,,,,,,,,,,,,,,,None,,228.58721160000132,None,228.58721160000132,None,2022-02-03-09:31:16.235411,228.59906539999065,228.90375040000072,228.59906539999065,None,None,228.59906539999065,None,229.40412879999204,None,,,,12011,0001,2022_Feb_03_0927,localizer,2021.1.3,60.48750509722457,
block,faces,faces073.bmp,,,,,0,55,55,55,,,,,,,,,,,,,,,,,,,,,,,,,,,,,,,,,,,,,,,,,,None,,229.40412879999204,None,229.40412879999204,None,2022-02-03-09:31:17.053300,229.41531640000176,229.72108909999952,229.41531640000176,None,None,229.41531640000176,None,230.22046380000248,None,,,,12011,0001,2022_Feb_03_0927,localizer,2021.1.3,60.48750509722457,
block,faces,faces014.bmp,,,,,0,56,56,56,,,,,,,,,,,,,,,,,,,,,,,,,,,,,,,,,,,,,,,,,,None,,230.22046380000248,None,230.22046380000248,None,2022-02-03-09:31:17.868897,230.23181070000282,230.5376866000006,230.23181070000282,None,None,230.23181070000282,None,231.03723769997887,None,,,,12011,0001,2022_Feb_03_0927,localizer,2021.1.3,60.48750509722457,
block,faces,faces065.bmp,,,,,0,57,57,57,,,,,,,,,,,,,,,,,,,,,,,,,,,,,,,,,,,,,,,,,,None,,231.03723769997887,None,231.03723769997887,None,2022-02-03-09:31:18.685645,231.0500777999987,231.35466859998996,231.0500777999987,None,None,231.0500777999987,None,231.85437769997807,None,,,,12011,0001,2022_Feb_03_0927,localizer,2021.1.3,60.48750509722457,
block,faces,faces006.bmp,,,,,0,58,58,58,,,,,,,,,,,,,,,,,,,,,,,,,,,,,,,,,,,,,,,,,,None,,231.85437769997807,None,231.85437769997807,None,2022-02-03-09:31:19.503567,231.86648389999755,232.1708058999793,231.86648389999755,None,None,231.86648389999755,None,232.67055859997927,None,,,,12011,0001,2022_Feb_03_0927,localizer,2021.1.3,60.48750509722457,
block,faces,faces044.bmp,,,,,0,59,59,59,,,,,,,,,,,,,,,,,,,,,,,,,,,,,,,,,,,,,,,,,,None,,232.67055859997927,None,232.67055859997927,None,2022-02-03-09:31:20.318956,232.68172919997596,232.98762919998262,232.68172919997596,None,None,232.68172919997596,None,233.4869604000036,None,,,,12011,0001,2022_Feb_03_0927,localizer,2021.1.3,60.48750509722457,
block_end,faces,faces012.bmp,,,,,0,60,60,60,,,,,,,,,,,,,,,,,,,,,,,,,,,,,,,,,,,,,,,,,,None,,233.4869604000036,None,233.4869604000036,None,2022-02-03-09:31:21.135347,233.49781149998307,233.804204199987,233.49781149998307,None,None,233.49781149998307,None,234.30406659997826,None,,,,12011,0001,2022_Feb_03_0927,localizer,2021.1.3,60.48750509722457,
block_start,faces,faces025.bmp,,,,,0,61,61,61,,,,,,,,,,,,,,,,,,,,,,,,,,,,,,,,,,,,,,,,,,t,1.7325873000081629,234.30436389998067,None,234.30436389998067,None,2022-02-03-09:31:23.703876,236.06868939998094,236.37126259997603,236.06868939998094,None,None,236.06868939998094,None,236.87049329998845,None,,,,12011,0001,2022_Feb_03_0927,localizer,2021.1.3,60.48750509722457,
block,faces,faces078.bmp,,,,,0,62,62,62,,,,,,,,,,,,,,,,,,,,,,,,,,,,,,,,,,,,,,,,,,None,,236.87049329998845,None,236.87049329998845,None,2022-02-03-09:31:24.518693,236.88122969999677,237.18748979998054,236.88122969999677,None,None,236.88122969999677,None,237.68713139997854,None,,,,12011,0001,2022_Feb_03_0927,localizer,2021.1.3,60.48750509722457,
block,faces,faces048.bmp,,,,,0,63,63,63,,,,,,,,,,,,,,,,,,,,,,,,,,,,,,,,,,,,,,,,,,None,,237.68713139997854,None,237.68713139997854,None,2022-02-03-09:31:25.335737,237.69854719997966,238.00455119999242,237.69854719997966,None,None,237.69854719997966,None,238.50405529999117,None,,,,12011,0001,2022_Feb_03_0927,localizer,2021.1.3,60.48750509722457,
block,faces,faces039.bmp,,,,,0,64,64,64,,,,,,,,,,,,,,,,,,,,,,,,,,,,,,,,,,,,,,,,,,None,,238.50405529999117,None,238.50405529999117,None,2022-02-03-09:31:26.152252,238.5160421000037,238.82072059999336,238.5160421000037,None,None,238.5160421000037,None,239.32025349997858,None,,,,12011,0001,2022_Feb_03_0927,localizer,2021.1.3,60.48750509722457,
block,faces,faces002.bmp,,,,,0,65,65,65,,,,,,,,,,,,,,,,,,,,,,,,,,,,,,,,,,,,,,,,,,None,,239.32025349997858,None,239.32025349997858,None,2022-02-03-09:31:26.968453,239.33083989997976,239.63759859997663,239.33083989997976,None,None,239.33083989997976,None,240.13743209998066,None,,,,12011,0001,2022_Feb_03_0927,localizer,2021.1.3,60.48750509722457,
block,faces,faces019.bmp,,,,,0,66,66,66,,,,,,,,,,,,,,,,,,,,,,,,,,,,,,,,,,,,,,,,,,None,,240.13743209998066,None,240.13743209998066,None,2022-02-03-09:31:27.786841,240.15464110000175,240.45435529999668,240.15464110000175,None,None,240.15464110000175,None,240.95427379997855,None,,,,12011,0001,2022_Feb_03_0927,localizer,2021.1.3,60.48750509722457,
block,faces,faces069.bmp,,,,,0,67,67,67,,,,,,,,,,,,,,,,,,,,,,,,,,,,,,,,,,,,,,,,,,None,,240.95427379997855,None,240.95427379997855,None,2022-02-03-09:31:28.603659,240.96655789998476,241.2706825999776,240.96655789998476,None,None,240.96655789998476,None,241.77066770000093,None,,,,12011,0001,2022_Feb_03_0927,localizer,2021.1.3,60.48750509722457,
block,faces,faces023.bmp,,,,,0,68,68,68,,,,,,,,,,,,,,,,,,,,,,,,,,,,,,,,,,,,,,,,,,None,,241.77066770000093,None,241.77066770000093,None,2022-02-03-09:31:29.418868,241.77182759999414,242.09404329999234,241.77182759999414,None,y,241.77182759999414,None,242.58744559997868,None,0.6757632000080775,,,12011,0001,2022_Feb_03_0927,localizer,2021.1.3,60.48750509722457,
block,faces,faces011.bmp,,,,,0,69,69,69,,,,,,,,,,,,,,,,,,,,,,,,,,,,,,,,,,,,,,,,,,None,,242.58744559997868,None,242.58744559997868,None,2022-02-03-09:31:30.242636,242.59866909999982,242.9040554999956,242.59866909999982,None,y,242.59866909999982,None,243.40386019998405,None,0.6448567000043113,,,12011,0001,2022_Feb_03_0927,localizer,2021.1.3,60.48750509722457,
block,faces,faces070.bmp,,,,,0,70,70,70,,,,,,,,,,,,,,,,,,,,,,,,,,,,,,,,,,,,,,,,,,None,,243.40386019998405,None,243.40386019998405,None,2022-02-03-09:31:31.052026,243.41549149999628,243.7208277999889,243.41549149999628,None,None,243.41549149999628,None,244.22156339999347,None,,,,12011,0001,2022_Feb_03_0927,localizer,2021.1.3,60.48750509722457,
block,faces,faces089.bmp,,,,,0,71,71,71,,,,,,,,,,,,,,,,,,,,,,,,,,,,,,,,,,,,,,,,,,None,,244.22156339999347,None,244.22156339999347,None,2022-02-03-09:31:31.871742,244.2363795999845,244.53756850000354,244.2363795999845,None,None,244.2363795999845,None,245.03703109997733,None,,,,12011,0001,2022_Feb_03_0927,localizer,2021.1.3,60.48750509722457,
block,faces,faces088.bmp,,,,,0,72,72,72,,,,,,,,,,,,,,,,,,,,,,,,,,,,,,,,,,,,,,,,,,None,,245.03703109997733,None,245.03703109997733,None,2022-02-03-09:31:32.685230,245.04904839998926,245.35389509997913,245.04904839998926,None,None,245.04904839998926,None,245.85396279999114,None,,,,12011,0001,2022_Feb_03_0927,localizer,2021.1.3,60.48750509722457,
block,faces,faces005.bmp,,,,,0,73,73,73,,,,,,,,,,,,,,,,,,,,,,,,,,,,,,,,,,,,,,,,,,None,,245.85396279999114,None,245.85396279999114,None,2022-02-03-09:31:33.502163,245.8656715999823,246.17089639999904,245.8656715999823,None,None,245.8656715999823,None,246.67015369998117,None,,,,12011,0001,2022_Feb_03_0927,localizer,2021.1.3,60.48750509722457,
block,faces,faces065.bmp,,,,,0,74,74,74,,,,,,,,,,,,,,,,,,,,,,,,,,,,,,,,,,,,,,,,,,None,,246.67015369998117,None,246.67015369998117,None,2022-02-03-09:31:34.318357,246.67184789999737,246.98767469997983,246.67184789999737,None,y,246.67184789999737,None,247.48720339999127,None,0.5494998999929521,,,12011,0001,2022_Feb_03_0927,localizer,2021.1.3,60.48750509722457,
block_end,faces,faces062.bmp,,,,,0,75,75,75,,,,,,,,,,,,,,,,,,,,,,,,,,,,,,,,,,,,,,,,,,None,,247.48720339999127,None,247.48720339999127,None,2022-02-03-09:31:35.135402,247.49786689999746,247.80439569998998,247.49786689999746,None,None,247.49786689999746,None,248.3040180999873,None,,,,12011,0001,2022_Feb_03_0927,localizer,2021.1.3,60.48750509722457,
block_start,objects,objects029.bmp,,,,,0,76,76,76,,,,,,,,,,,,,,,,,,,,,,,,,,,,,,,,,,,,,,,,,,t,1.7327056999783963,248.304253099981,None,248.304253099981,None,2022-02-03-09:31:37.702571,250.06587389999186,250.37130109997815,250.06587389999186,None,None,250.06587389999186,None,250.87255869999936,None,,,,12011,0001,2022_Feb_03_0927,localizer,2021.1.3,60.48750509722457,
block,objects,objects060.bmp,,,,,0,77,77,77,,,,,,,,,,,,,,,,,,,,,,,,,,,,,,,,,,,,,,,,,,None,,250.87255869999936,None,250.87255869999936,None,2022-02-03-09:31:38.523708,250.88776799998595,251.18755939998664,250.88776799998595,None,None,250.88776799998595,None,251.6869252999808,None,,,,12011,0001,2022_Feb_03_0927,localizer,2021.1.3,60.48750509722457,
block,objects,objects053.bmp,,,,,0,78,78,78,,,,,,,,,,,,,,,,,,,,,,,,,,,,,,,,,,,,,,,,,,None,,251.6869252999808,None,251.6869252999808,None,2022-02-03-09:31:39.335129,251.6954089999781,252.0042787999846,251.6954089999781,None,None,251.6954089999781,None,252.50334960000183,None,,,,12011,0001,2022_Feb_03_0927,localizer,2021.1.3,60.48750509722457,
block,objects,objects021.bmp,,,,,0,79,79,79,,,,,,,,,,,,,,,,,,,,,,,,,,,,,,,,,,,,,,,,,,None,,252.50334960000183,None,252.50334960000183,None,2022-02-03-09:31:40.151554,252.50520069999038,252.82134759999462,252.50520069999038,None,y,252.50520069999038,None,253.304237499999,None,0.631133899994893,,,12011,0001,2022_Feb_03_0927,localizer,2021.1.3,60.48750509722457,
block,objects,objects027.bmp,,,,,0,80,80,80,,,,,,,,,,,,,,,,,,,,,,,,,,,,,,,,,,,,,,,,,,None,,253.304237499999,None,253.304237499999,None,2022-02-03-09:31:40.955630,253.30751169999712,253.62117969998508,253.30751169999712,253.30751169999712,None,253.30751169999712,253.30751169999712,254.12085909997987,None,,,,12011,0001,2022_Feb_03_0927,localizer,2021.1.3,60.48750509722457,
block,objects,objects081.bmp,,,,,0,81,81,81,,,,,,,,,,,,,,,,,,,,,,,,,,,,,,,,,,,,,,,,,,None,,254.12085909997987,None,254.12085909997987,None,2022-02-03-09:31:41.769180,254.12748929997906,254.43772229997558,254.12748929997906,None,y,254.12748929997906,None,254.93783089997888,None,0.016858399991178885,,,12011,0001,2022_Feb_03_0927,localizer,2021.1.3,60.48750509722457,
block,objects,objects015.bmp,,,,,0,82,82,82,,,,,,,,,,,,,,,,,,,,,,,,,,,,,,,,,,,,,,,,,,None,,254.93783089997888,None,254.93783089997888,None,2022-02-03-09:31:42.588007,254.95096989997546,255.25478369998746,254.95096989997546,None,None,254.95096989997546,None,255.753736199977,None,,,,12011,0001,2022_Feb_03_0927,localizer,2021.1.3,60.48750509722457,
block,objects,objects070.bmp,,,,,0,83,83,83,,,,,,,,,,,,,,,,,,,,,,,,,,,,,,,,,,,,,,,,,,None,,255.753736199977,None,255.753736199977,None,2022-02-03-09:31:43.402088,255.76354029998765,256.07066969998414,255.76354029998765,None,None,255.76354029998765,None,256.5708861999941,None,,,,12011,0001,2022_Feb_03_0927,localizer,2021.1.3,60.48750509722457,
block,objects,objects017.bmp,,,,,0,84,84,84,,,,,,,,,,,,,,,,,,,,,,,,,,,,,,,,,,,,,,,,,,None,,256.5708861999941,None,256.5708861999941,None,2022-02-03-09:31:44.219284,256.58198869999615,256.88786219997564,256.58198869999615,None,None,256.58198869999615,None,257.3878036999871,None,,,,12011,0001,2022_Feb_03_0927,localizer,2021.1.3,60.48750509722457,
block,objects,objects052.bmp,,,,,0,85,85,85,,,,,,,,,,,,,,,,,,,,,,,,,,,,,,,,,,,,,,,,,,None,,257.3878036999871,None,257.3878036999871,None,2022-02-03-09:31:45.038042,257.4019749999861,257.7041957999754,257.4019749999861,None,None,257.4019749999861,None,258.2045812999917,None,,,,12011,0001,2022_Feb_03_0927,localizer,2021.1.3,60.48750509722457,
block,objects,objects076.bmp,,,,,0,86,86,86,,,,,,,,,,,,,,,,,,,,,,,,,,,,,,,,,,,,,,,,,,None,,258.2045812999917,None,258.2045812999917,None,2022-02-03-09:31:45.853768,258.2167174999777,258.52079189999495,258.2167174999777,None,None,258.2167174999777,None,259.0209972999786,None,,,,12011,0001,2022_Feb_03_0927,localizer,2021.1.3,60.48750509722457,
block,objects,objects054.bmp,,,,,0,87,87,87,,,,,,,,,,,,,,,,,,,,,,,,,,,,,,,,,,,,,,,,,,None,,259.0209972999786,None,259.0209972999786,None,2022-02-03-09:31:46.670189,259.0219730999961,259.33757509998395,259.0219730999961,None,y,259.0219730999961,None,259.83672839998906,None,0.7016080000030342,,,12011,0001,2022_Feb_03_0927,localizer,2021.1.3,60.48750509722457,
block,objects,objects006.bmp,,,,,0,88,88,88,,,,,,,,,,,,,,,,,,,,,,,,,,,,,,,,,,,,,,,,,,None,,259.83672839998906,None,259.83672839998906,None,2022-02-03-09:31:47.484930,259.84636349999346,260.1538062999898,259.84636349999346,None,None,259.84636349999346,None,260.653979599991,None,,,,12011,0001,2022_Feb_03_0927,localizer,2021.1.3,60.48750509722457,
block,objects,objects058.bmp,,,,,0,89,89,89,,,,,,,,,,,,,,,,,,,,,,,,,,,,,,,,,,,,,,,,,,None,,260.653979599991,None,260.653979599991,None,2022-02-03-09:31:48.302373,260.6605013999797,260.970971200004,260.6605013999797,None,None,260.6605013999797,None,261.4709618999826,None,,,,12011,0001,2022_Feb_03_0927,localizer,2021.1.3,60.48750509722457,
block_end,objects,objects003.bmp,,,,,0,90,90,90,,,,,,,,,,,,,,,,,,,,,,,,,,,,,,,,,,,,,,,,,,None,,261.4709618999826,None,261.4709618999826,None,2022-02-03-09:31:49.120136,261.4821178999846,261.7885529999912,261.4821178999846,None,None,261.4821178999846,None,262.2883515999914,None,,,,12011,0001,2022_Feb_03_0927,localizer,2021.1.3,60.48750509722457,
null_block,null_block,null_block.bmp,,,,,0,91,91,91,,,,,,,,,,,,,,,,,,,,,,,,,,,,,,,,,,,,,,,,,,t,1.7481274000019766,262.2887930999859,None,262.2887930999859,None,2022-02-03-09:31:51.702462,264.05511720000356,None,264.05511720000356,None,None,264.05511720000356,None,264.05706479999935,None,,,,12011,0001,2022_Feb_03_0927,localizer,2021.1.3,60.48750509722457,
block_start,scenes,scenes038.bmp,,,,,0,92,92,92,,,,,,,,,,,,,,,,,,,,,,,,,,,,,,,,,,,,,,,,,,t,1.964850300020771,276.07224169999245,None,276.07224169999245,None,2022-02-03-09:32:05.705347,278.0670530999778,278.3715092999919,278.0670530999778,None,None,278.0670530999778,None,278.87087669999744,None,,,,12011,0001,2022_Feb_03_0927,localizer,2021.1.3,60.48750509722457,
block,scenes,scenes053.bmp,,,,,0,93,93,93,,,,,,,,,,,,,,,,,,,,,,,,,,,,,,,,,,,,,,,,,,None,,278.87087669999744,None,278.87087669999744,None,2022-02-03-09:32:06.518927,278.88074749999214,279.1931544999825,278.88074749999214,None,None,278.88074749999214,None,279.68714449999095,None,,,,12011,0001,2022_Feb_03_0927,localizer,2021.1.3,60.48750509722457,
block,scenes,scenes087.bmp,,,,,0,94,94,94,,,,,,,,,,,,,,,,,,,,,,,,,,,,,,,,,,,,,,,,,,None,,279.68714449999095,None,279.68714449999095,None,2022-02-03-09:32:07.334355,279.6962663999875,280.0046761999838,279.6962663999875,None,None,279.6962663999875,None,280.50416549998624,None,,,,12011,0001,2022_Feb_03_0927,localizer,2021.1.3,60.48750509722457,
block,scenes,scenes024.bmp,,,,,0,95,95,95,,,,,,,,,,,,,,,,,,,,,,,,,,,,,,,,,,,,,,,,,,None,,280.50416549998624,None,280.50416549998624,None,2022-02-03-09:32:08.153606,280.5155483999988,280.82112449998385,280.5155483999988,None,None,280.5155483999988,None,281.32085660000155,None,,,,12011,0001,2022_Feb_03_0927,localizer,2021.1.3,60.48750509722457,
block,scenes,scenes019.bmp,,,,,0,96,96,96,,,,,,,,,,,,,,,,,,,,,,,,,,,,,,,,,,,,,,,,,,None,,281.32085660000155,None,281.32085660000155,None,2022-02-03-09:32:08.968943,281.3267878999759,281.638065999985,281.3267878999759,None,None,281.3267878999759,None,282.1378527999826,None,,,,12011,0001,2022_Feb_03_0927,localizer,2021.1.3,60.48750509722457,
block,scenes,scenes032.bmp,,,,,0,97,97,97,,,,,,,,,,,,,,,,,,,,,,,,,,,,,,,,,,,,,,,,,,None,,282.1378527999826,None,282.1378527999826,None,2022-02-03-09:32:09.787047,282.14893179998035,282.4547147999983,282.14893179998035,None,None,282.14893179998035,None,282.95617509999136,None,,,,12011,0001,2022_Feb_03_0927,localizer,2021.1.3,60.48750509722457,
block,scenes,scenes069.bmp,,,,,0,98,98,98,,,,,,,,,,,,,,,,,,,,,,,,,,,,,,,,,,,,,,,,,,None,,282.95617509999136,None,282.95617509999136,None,2022-02-03-09:32:10.608513,282.9736039999989,283.28799280000385,282.9736039999989,None,y,282.9736039999989,None,283.77267679999056,None,0.563679700018838,,,12011,0001,2022_Feb_03_0927,localizer,2021.1.3,60.48750509722457,
block,scenes,scenes016.bmp,,,,,0,99,99,99,,,,,,,,,,,,,,,,,,,,,,,,,,,,,,,,,,,,,,,,,,None,,283.77267679999056,None,283.77267679999056,None,2022-02-03-09:32:11.424744,283.7771729999804,284.0878840999794,283.7771729999804,None,y,283.7771729999804,None,284.58758319997867,None,0.6603516000031959,,,12011,0001,2022_Feb_03_0927,localizer,2021.1.3,60.48750509722457,
block,scenes,scenes055.bmp,,,,,0,100,100,100,,,,,,,,,,,,,,,,,,,,,,,,,,,,,,,,,,,,,,,,,,None,,284.58758319997867,None,284.58758319997867,None,2022-02-03-09:32:12.235764,284.5993259999959,284.90504779998446,284.5993259999959,None,None,284.5993259999959,None,285.4060611999797,None,,,,12011,0001,2022_Feb_03_0927,localizer,2021.1.3,60.48750509722457,
block,scenes,scenes046.bmp,,,,,0,101,101,101,,,,,,,,,,,,,,,,,,,,,,,,,,,,,,,,,,,,,,,,,,None,,285.4060611999797,None,285.4060611999797,None,2022-02-03-09:32:13.059247,285.4223861999926,285.73798279999755,285.4223861999926,None,None,285.4223861999926,None,286.2204103000025,None,,,,12011,0001,2022_Feb_03_0927,localizer,2021.1.3,60.48750509722457,
block,scenes,scenes089.bmp,,,,,0,102,102,102,,,,,,,,,,,,,,,,,,,,,,,,,,,,,,,,,,,,,,,,,,None,,286.2204103000025,None,286.2204103000025,None,2022-02-03-09:32:13.867806,286.2289804999891,286.53834979998646,286.2289804999891,None,None,286.2289804999891,None,287.0377637999976,None,,,,12011,0001,2022_Feb_03_0927,localizer,2021.1.3,60.48750509722457,
block,scenes,scenes089.bmp,,,,,0,103,103,103,,,,,,,,,,,,,,,,,,,,,,,,,,,,,,,,,,,,,,,,,,None,,287.0377637999976,None,287.0377637999976,None,2022-02-03-09:32:14.687158,287.0390208000026,287.35456589999376,287.0390208000026,None,y,287.0390208000026,None,287.854353299996,None,0.5633741999918129,,,12011,0001,2022_Feb_03_0927,localizer,2021.1.3,60.48750509722457,
block,scenes,scenes079.bmp,,,,,0,104,104,104,,,,,,,,,,,,,,,,,,,,,,,,,,,,,,,,,,,,,,,,,,None,,287.854353299996,None,287.854353299996,None,2022-02-03-09:32:15.502822,287.8666632999957,288.1711869999999,287.8666632999957,None,None,287.8666632999957,None,288.67049129999066,None,,,,12011,0001,2022_Feb_03_0927,localizer,2021.1.3,60.48750509722457,
block,scenes,scenes050.bmp,,,,,0,105,105,105,,,,,,,,,,,,,,,,,,,,,,,,,,,,,,,,,,,,,,,,,,None,,288.67049129999066,None,288.67049129999066,None,2022-02-03-09:32:16.318700,288.67945989998407,288.98803639999824,288.67945989998407,None,None,288.67945989998407,None,289.4891451999923,None,,,,12011,0001,2022_Feb_03_0927,localizer,2021.1.3,60.48750509722457,
block_end,scenes,scenes011.bmp,,,,,0,106,106,106,,,,,,,,,,,,,,,,,,,,,,,,,,,,,,,,,,,,,,,,,,None,,289.4891451999923,None,289.4891451999923,None,2022-02-03-09:32:17.140317,289.49267819998204,289.8050489999878,289.49267819998204,None,y,289.49267819998204,None,290.3042862999922,None,0.6748199999856297,,,12011,0001,2022_Feb_03_0927,localizer,2021.1.3,60.48750509722457,
block_start,scrambled,scrambled026.bmp,,,,,0,107,107,107,,,,,,,,,,,,,,,,,,,,,,,,,,,,,,,,,,,,,,,,,,t,1.7322317000071052,290.3046491999994,None,290.3046491999994,None,2022-02-03-09:32:19.709002,292.0754051999829,292.38823729997966,292.0754051999829,None,None,292.0754051999829,None,292.8708906999876,None,,,,12011,0001,2022_Feb_03_0927,localizer,2021.1.3,60.48750509722457,
block,scrambled,scrambled030.bmp,,,,,0,108,108,108,,,,,,,,,,,,,,,,,,,,,,,,,,,,,,,,,,,,,,,,,,None,,292.8708906999876,None,292.8708906999876,None,2022-02-03-09:32:20.519090,292.881273099978,293.1943540999782,292.881273099978,None,y,292.881273099978,None,293.6874741999985,None,0.023224799981107935,,,12011,0001,2022_Feb_03_0927,localizer,2021.1.3,60.48750509722457,
block,scrambled,scrambled072.bmp,,,,,0,109,109,109,,,,,,,,,,,,,,,,,,,,,,,,,,,,,,,,,,,,,,,,,,None,,293.6874741999985,None,293.6874741999985,None,2022-02-03-09:32:21.334683,293.69620989999385,294.00561469999957,293.69620989999385,None,None,293.69620989999385,None,294.505118499996,None,,,,12011,0001,2022_Feb_03_0927,localizer,2021.1.3,60.48750509722457,
block,scrambled,scrambled047.bmp,,,,,0,110,110,110,,,,,,,,,,,,,,,,,,,,,,,,,,,,,,,,,,,,,,,,,,None,,294.505118499996,None,294.505118499996,None,2022-02-03-09:32:22.154277,294.5074805999757,294.80716860000393,294.5074805999757,None,y,294.5074805999757,None,295.3216659999947,None,0.4740365000034217,,,12011,0001,2022_Feb_03_0927,localizer,2021.1.3,60.48750509722457,
block,scrambled,scrambled017.bmp,,,,,0,111,111,111,,,,,,,,,,,,,,,,,,,,,,,,,,,,,,,,,,,,,,,,,,None,,295.3216659999947,None,295.3216659999947,None,2022-02-03-09:32:22.973011,295.3365946999984,295.63796719998936,295.3365946999984,None,None,295.3365946999984,None,296.1381487999955,None,,,,12011,0001,2022_Feb_03_0927,localizer,2021.1.3,60.48750509722457,
block,scrambled,scrambled077.bmp,,,,,0,112,112,112,,,,,,,,,,,,,,,,,,,,,,,,,,,,,,,,,,,,,,,,,,None,,296.1381487999955,None,296.1381487999955,None,2022-02-03-09:32:23.787338,296.15022179999505,296.45456289997674,296.15022179999505,None,None,296.15022179999505,None,296.9536611999996,None,,,,12011,0001,2022_Feb_03_0927,localizer,2021.1.3,60.48750509722457,
block,scrambled,scrambled041.bmp,,,,,0,113,113,113,,,,,,,,,,,,,,,,,,,,,,,,,,,,,,,,,,,,,,,,,,None,,296.9536611999996,None,296.9536611999996,None,2022-02-03-09:32:24.600891,296.9616962999862,297.2714120000019,296.9616962999862,None,None,296.9616962999862,None,297.77128389997813,None,,,,12011,0001,2022_Feb_03_0927,localizer,2021.1.3,60.48750509722457,
block,scrambled,scrambled039.bmp,,,,,0,114,114,114,,,,,,,,,,,,,,,,,,,,,,,,,,,,,,,,,,,,,,,,,,None,,297.77128389997813,None,297.77128389997813,None,2022-02-03-09:32:25.420660,297.7835644999868,298.0880968999991,297.7835644999868,None,None,297.7835644999868,None,298.58746629999075,None,,,,12011,0001,2022_Feb_03_0927,localizer,2021.1.3,60.48750509722457,
block,scrambled,scrambled004.bmp,,,,,0,115,115,115,,,,,,,,,,,,,,,,,,,,,,,,,,,,,,,,,,,,,,,,,,None,,298.58746629999075,None,298.58746629999075,None,2022-02-03-09:32:26.235667,298.598050599976,298.90445529998397,298.598050599976,None,None,298.598050599976,None,299.404331899996,None,,,,12011,0001,2022_Feb_03_0927,localizer,2021.1.3,60.48750509722457,
block,scrambled,scrambled027.bmp,,,,,0,116,116,116,,,,,,,,,,,,,,,,,,,,,,,,,,,,,,,,,,,,,,,,,,None,,299.404331899996,None,299.404331899996,None,2022-02-03-09:32:27.053528,299.4156952999765,299.720573700004,299.4156952999765,None,None,299.4156952999765,None,300.2104553999874,None,,,,12011,0001,2022_Feb_03_0927,localizer,2021.1.3,60.48750509722457,
block,scrambled,scrambled045.bmp,,,,,0,117,117,117,,,,,,,,,,,,,,,,,,,,,,,,,,,,,,,,,,,,,,,,,,None,,300.2104553999874,None,300.2104553999874,None,2022-02-03-09:32:27.862648,300.22561209998094,300.53797229999327,300.22561209998094,None,None,300.22561209998094,None,301.0207215000031,None,,,,12011,0001,2022_Feb_03_0927,localizer,2021.1.3,60.48750509722457,
block,scrambled,scrambled076.bmp,,,,,0,118,118,118,,,,,,,,,,,,,,,,,,,,,,,,,,,,,,,,,,,,,,,,,,None,,301.0207215000031,None,301.0207215000031,None,2022-02-03-09:32:28.668752,301.0305842999951,301.3379754999769,301.0305842999951,None,None,301.0305842999951,None,301.8383960999985,None,,,,12011,0001,2022_Feb_03_0927,localizer,2021.1.3,60.48750509722457,
block,scrambled,scrambled019.bmp,,,,,0,119,119,119,,,,,,,,,,,,,,,,,,,,,,,,,,,,,,,,,,,,,,,,,,None,,301.8383960999985,None,301.8383960999985,None,2022-02-03-09:32:29.488648,301.8518672999926,302.1546315999876,301.8518672999926,None,None,301.8518672999926,None,302.65411399999573,None,,,,12011,0001,2022_Feb_03_0927,localizer,2021.1.3,60.48750509722457,
block,scrambled,scrambled080.bmp,,,,,0,120,120,120,,,,,,,,,,,,,,,,,,,,,,,,,,,,,,,,,,,,,,,,,,None,,302.65411399999573,None,302.65411399999573,None,2022-02-03-09:32:30.302313,302.66540359999635,302.9714885999856,302.66540359999635,None,None,302.66540359999635,None,303.4719856999785,None,,,,12011,0001,2022_Feb_03_0927,localizer,2021.1.3,60.48750509722457,
block_end,scrambled,scrambled034.bmp,,,,,0,121,121,121,,,,,,,,,,,,,,,,,,,,,,,,,,,,,,,,,,,,,,,,,,None,,303.4719856999785,None,303.4719856999785,None,2022-02-03-09:32:31.122081,303.48191699999734,303.78820179999457,303.48191699999734,None,None,303.48191699999734,None,304.2872882999858,None,,,,12011,0001,2022_Feb_03_0927,localizer,2021.1.3,60.48750509722457,
block_start,faces,faces004.bmp,,,,,0,122,122,122,,,,,,,,,,,,,,,,,,,,,,,,,,,,,,,,,,,,,,,,,,t,1.749528599990299,304.2877162999939,None,304.2877162999939,None,2022-02-03-09:32:33.702267,306.0703942999826,306.3712013999757,306.0703942999826,None,None,306.0703942999826,None,306.87118559999215,None,,,,12011,0001,2022_Feb_03_0927,localizer,2021.1.3,60.48750509722457,
block,faces,faces043.bmp,,,,,0,123,123,123,,,,,,,,,,,,,,,,,,,,,,,,,,,,,,,,,,,,,,,,,,None,,306.87118559999215,None,306.87118559999215,None,2022-02-03-09:32:34.520397,306.88450419998844,307.19443189998856,306.88450419998844,None,None,306.88450419998844,None,307.69373319998556,None,,,,12011,0001,2022_Feb_03_0927,localizer,2021.1.3,60.48750509722457,
block,faces,faces076.bmp,,,,,0,124,124,124,,,,,,,,,,,,,,,,,,,,,,,,,,,,,,,,,,,,,,,,,,None,,307.69373319998556,None,307.69373319998556,None,2022-02-03-09:32:35.349721,307.71350729998085,308.02112560000387,307.71350729998085,None,None,307.71350729998085,None,308.50425809999285,None,,,,12011,0001,2022_Feb_03_0927,localizer,2021.1.3,60.48750509722457,
block,faces,faces032.bmp,,,,,0,125,125,125,,,,,,,,,,,,,,,,,,,,,,,,,,,,,,,,,,,,,,,,,,None,,308.50425809999285,None,308.50425809999285,None,2022-02-03-09:32:36.152458,308.515408199979,308.8213595999987,308.515408199979,None,None,308.515408199979,None,309.3209406000009,None,,,,12011,0001,2022_Feb_03_0927,localizer,2021.1.3,60.48750509722457,
block,faces,faces030.bmp,,,,,0,126,126,126,,,,,,,,,,,,,,,,,,,,,,,,,,,,,,,,,,,,,,,,,,None,,309.3209406000009,None,309.3209406000009,None,2022-02-03-09:32:36.969350,309.335030599992,309.6379803000018,309.335030599992,None,None,309.335030599992,None,310.1376370999991,None,,,,12011,0001,2022_Feb_03_0927,localizer,2021.1.3,60.48750509722457,
block,faces,faces040.bmp,,,,,0,127,127,127,,,,,,,,,,,,,,,,,,,,,,,,,,,,,,,,,,,,,,,,,,None,,310.1376370999991,None,310.1376370999991,None,2022-02-03-09:32:37.785850,310.14848239999264,310.45483479998074,310.14848239999264,None,None,310.14848239999264,None,310.95548100000303,None,,,,12011,0001,2022_Feb_03_0927,localizer,2021.1.3,60.48750509722457,
block,faces,faces069.bmp,,,,,0,128,128,128,,,,,,,,,,,,,,,,,,,,,,,,,,,,,,,,,,,,,,,,,,None,,310.95548100000303,None,310.95548100000303,None,2022-02-03-09:32:38.605834,310.9649529999879,311.2710116999806,310.9649529999879,None,y,310.9649529999879,None,311.77181860000417,None,0.5107386999879964,,,12011,0001,2022_Feb_03_0927,localizer,2021.1.3,60.48750509722457,
block,faces,faces067.bmp,,,,,0,129,129,129,,,,,,,,,,,,,,,,,,,,,,,,,,,,,,,,,,,,,,,,,,None,,311.77181860000417,None,311.77181860000417,None,2022-02-03-09:32:39.421826,311.7749269999913,312.08785369998077,311.7749269999913,None,y,311.7749269999913,None,312.588110699979,None,0.535546200000681,,,12011,0001,2022_Feb_03_0927,localizer,2021.1.3,60.48750509722457,
block,faces,faces063.bmp,,,,,0,130,130,130,,,,,,,,,,,,,,,,,,,,,,,,,,,,,,,,,,,,,,,,,,None,,312.588110699979,None,312.588110699979,None,2022-02-03-09:32:40.237400,312.60178460000316,312.9052059999958,312.60178460000316,None,None,312.60178460000316,None,313.40540839998573,None,,,,12011,0001,2022_Feb_03_0927,localizer,2021.1.3,60.48750509722457,
block,faces,faces047.bmp,,,,,0,131,131,131,,,,,,,,,,,,,,,,,,,,,,,,,,,,,,,,,,,,,,,,,,None,,313.40540839998573,None,313.40540839998573,None,2022-02-03-09:32:41.054730,313.4237921999884,313.7381393999967,313.4237921999884,None,None,313.4237921999884,None,314.2218770999956,None,,,,12011,0001,2022_Feb_03_0927,localizer,2021.1.3,60.48750509722457,
block,faces,faces068.bmp,,,,,0,132,132,132,,,,,,,,,,,,,,,,,,,,,,,,,,,,,,,,,,,,,,,,,,None,,314.2218770999956,None,314.2218770999956,None,2022-02-03-09:32:41.871868,314.2368416999816,314.53896720000193,314.2368416999816,None,None,314.2368416999816,None,315.0378067000041,None,,,,12011,0001,2022_Feb_03_0927,localizer,2021.1.3,60.48750509722457,
block,faces,faces048.bmp,,,,,0,133,133,133,,,,,,,,,,,,,,,,,,,,,,,,,,,,,,,,,,,,,,,,,,None,,315.0378067000041,None,315.0378067000041,None,2022-02-03-09:32:42.687228,315.0389719999803,315.3547869999893,315.0389719999803,None,y,315.0389719999803,None,315.854488000003,None,0.6984554000082426,,,12011,0001,2022_Feb_03_0927,localizer,2021.1.3,60.48750509722457,
block,faces,faces007.bmp,,,,,0,134,134,134,,,,,,,,,,,,,,,,,,,,,,,,,,,,,,,,,,,,,,,,,,None,,315.854488000003,None,315.854488000003,None,2022-02-03-09:32:43.503258,315.86585519998334,316.1726174999785,315.86585519998334,None,None,315.86585519998334,None,316.6721011999965,None,,,,12011,0001,2022_Feb_03_0927,localizer,2021.1.3,60.48750509722457,
block,faces,faces007.bmp,,,,,0,135,135,135,,,,,,,,,,,,,,,,,,,,,,,,,,,,,,,,,,,,,,,,,,None,,316.6721011999965,None,316.6721011999965,None,2022-02-03-09:32:44.323263,316.67574409997906,316.9887367999763,316.67574409997906,None,y,316.67574409997906,None,317.4882991999824,None,0.6187371000123676,,,12011,0001,2022_Feb_03_0927,localizer,2021.1.3,60.48750509722457,
block_end,faces,faces082.bmp,,,,,0,136,136,136,,,,,,,,,,,,,,,,,,,,,,,,,,,,,,,,,,,,,,,,,,None,,317.4882991999824,None,317.4882991999824,None,2022-02-03-09:32:45.137469,317.5013082999794,317.8048075999832,317.5013082999794,None,None,317.5013082999794,None,318.3063030999823,None,,,,12011,0001,2022_Feb_03_0927,localizer,2021.1.3,60.48750509722457,
block_start,objects,objects031.bmp,,,,,0,137,137,137,,,,,,,,,,,,,,,,,,,,,,,,,,,,,,,,,,,,,,,,,,t,1.7296527000144124,318.3072923999862,None,318.3072923999862,None,2022-02-03-09:32:47.709217,320.07581159999245,320.3886108000006,320.07581159999245,None,None,320.07581159999245,None,320.8705932999932,None,,,,12011,0001,2022_Feb_03_0927,localizer,2021.1.3,60.48750509722457,
block,objects,objects058.bmp,,,,,0,138,138,138,,,,,,,,,,,,,,,,,,,,,,,,,,,,,,,,,,,,,,,,,,None,,320.8705932999932,None,320.8705932999932,None,2022-02-03-09:32:48.517807,320.8725660999771,321.1881233000022,320.8725660999771,None,None,320.8725660999771,None,321.6879357999918,None,,,,12011,0001,2022_Feb_03_0927,localizer,2021.1.3,60.48750509722457,
block,objects,objects025.bmp,,,,,0,139,139,139,,,,,,,,,,,,,,,,,,,,,,,,,,,,,,,,,,,,,,,,,,None,,321.6879357999918,None,321.6879357999918,None,2022-02-03-09:32:49.336134,321.6888794999977,322.00469079997856,321.6888794999977,None,y,321.6888794999977,None,322.5038236000022,None,0.6105918999819551,,,12011,0001,2022_Feb_03_0927,localizer,2021.1.3,60.48750509722457,
block,objects,objects012.bmp,,,,,0,140,140,140,,,,,,,,,,,,,,,,,,,,,,,,,,,,,,,,,,,,,,,,,,None,,322.5038236000022,None,322.5038236000022,None,2022-02-03-09:32:50.152062,322.5129212999891,322.82139329999336,322.5129212999891,None,None,322.5129212999891,None,323.32217629998047,None,,,,12011,0001,2022_Feb_03_0927,localizer,2021.1.3,60.48750509722457,
block,objects,objects077.bmp,,,,,0,141,141,141,,,,,,,,,,,,,,,,,,,,,,,,,,,,,,,,,,,,,,,,,,None,,323.32217629998047,None,323.32217629998047,None,2022-02-03-09:32:50.971539,323.33460929998546,323.63831079998636,323.33460929998546,None,None,323.33460929998546,None,324.13793059999296,None,,,,12011,0001,2022_Feb_03_0927,localizer,2021.1.3,60.48750509722457,
block,objects,objects082.bmp,,,,,0,142,142,142,,,,,,,,,,,,,,,,,,,,,,,,,,,,,,,,,,,,,,,,,,None,,324.13793059999296,None,324.13793059999296,None,2022-02-03-09:32:51.786162,324.13893769998685,324.438167299988,324.13893769998685,None,y,324.13893769998685,None,324.9382478999818,None,0.5764610000187531,,,12011,0001,2022_Feb_03_0927,localizer,2021.1.3,60.48750509722457,
block,objects,objects001.bmp,,,,,0,143,143,143,,,,,,,,,,,,,,,,,,,,,,,,,,,,,,,,,,,,,,,,,,None,,324.9382478999818,None,324.9382478999818,None,2022-02-03-09:32:52.589428,324.9521107999899,325.2547387999948,324.9521107999899,324.9521107999899,None,324.9521107999899,324.9521107999899,325.7544323999813,None,,,,12011,0001,2022_Feb_03_0927,localizer,2021.1.3,60.48750509722457,
block,objects,objects081.bmp,,,,,0,144,144,144,,,,,,,,,,,,,,,,,,,,,,,,,,,,,,,,,,,,,,,,,,None,,325.7544323999813,None,325.7544323999813,None,2022-02-03-09:32:53.402671,325.75564399998984,326.07144589998643,325.75564399998984,None,y,325.75564399998984,None,326.57111739997924,None,0.5367567000212148,,,12011,0001,2022_Feb_03_0927,localizer,2021.1.3,60.48750509722457,
block,objects,objects071.bmp,,,,,0,145,145,145,,,,,,,,,,,,,,,,,,,,,,,,,,,,,,,,,,,,,,,,,,None,,326.57111739997924,None,326.57111739997924,None,2022-02-03-09:32:54.219316,326.58198590000393,326.88804799999343,326.58198590000393,None,None,326.58198590000393,None,327.3879560999834,None,,,,12011,0001,2022_Feb_03_0927,localizer,2021.1.3,60.48750509722457,
block,objects,objects034.bmp,,,,,0,146,146,146,,,,,,,,,,,,,,,,,,,,,,,,,,,,,,,,,,,,,,,,,,None,,327.3879560999834,None,327.3879560999834,None,2022-02-03-09:32:55.036155,327.3992935999995,327.70496519998414,327.3992935999995,None,None,327.3992935999995,None,328.20401169999093,None,,,,12011,0001,2022_Feb_03_0927,localizer,2021.1.3,60.48750509722457,
block,objects,objects068.bmp,,,,,0,147,147,147,,,,,,,,,,,,,,,,,,,,,,,,,,,,,,,,,,,,,,,,,,None,,328.20401169999093,None,328.20401169999093,None,2022-02-03-09:32:55.852216,328.2139102999936,328.521305399976,328.2139102999936,None,None,328.2139102999936,None,329.0221227999922,None,,,,12011,0001,2022_Feb_03_0927,localizer,2021.1.3,60.48750509722457,
block,objects,objects007.bmp,,,,,0,148,148,148,,,,,,,,,,,,,,,,,,,,,,,,,,,,,,,,,,,,,,,,,,None,,329.0221227999922,None,329.0221227999922,None,2022-02-03-09:32:56.671493,329.03736049999134,329.33921159998863,329.03736049999134,None,None,329.03736049999134,None,329.83892549998416,None,,,,12011,0001,2022_Feb_03_0927,localizer,2021.1.3,60.48750509722457,
block,objects,objects072.bmp,,,,,0,149,149,149,,,,,,,,,,,,,,,,,,,,,,,,,,,,,,,,,,,,,,,,,,None,,329.83892549998416,None,329.83892549998416,None,2022-02-03-09:32:57.488245,329.8477765999851,330.154722199979,329.8477765999851,None,None,329.8477765999851,None,330.6545355000038,None,,,,12011,0001,2022_Feb_03_0927,localizer,2021.1.3,60.48750509722457,
block,objects,objects024.bmp,,,,,0,150,150,150,,,,,,,,,,,,,,,,,,,,,,,,,,,,,,,,,,,,,,,,,,None,,330.6545355000038,None,330.6545355000038,None,2022-02-03-09:32:58.302734,330.6659076999931,330.9717115999956,330.6659076999931,None,None,330.6659076999931,None,331.4711994999874,None,,,,12011,0001,2022_Feb_03_0927,localizer,2021.1.3,60.48750509722457,
block_end,objects,objects045.bmp,,,,,0,151,151,151,,,,,,,,,,,,,,,,,,,,,,,,,,,,,,,,,,,,,,,,,,None,,331.4711994999874,None,331.4711994999874,None,2022-02-03-09:32:59.119394,331.4821855999762,331.78743860000395,331.4821855999762,None,None,331.4821855999762,None,332.2881342999957,None,,,,12011,0001,2022_Feb_03_0927,localizer,2021.1.3,60.48750509722457,
null_block,null_block,null_block.bmp,,,,,0,152,152,152,,,,,,,,,,,,,,,,,,,,,,,,,,,,,,,,,,,,,,,,,,t,1.7471090000180993,332.2885071999917,None,332.2885071999917,None,2022-02-03-09:33:01.701724,334.0542885999806,None,334.0542885999806,None,None,334.0542885999806,None,334.0573763999855,None,,,,12011,0001,2022_Feb_03_0927,localizer,2021.1.3,60.48750509722457,
block_start,scrambled,scrambled032.bmp,,,,,0,153,153,153,,,,,,,,,,,,,,,,,,,,,,,,,,,,,,,,,,,,,,,,,,t,1.963544099999126,346.0720941000036,None,346.0720941000036,None,2022-02-03-09:33:15.705174,348.0574341999891,348.3721210999938,348.0574341999891,None,None,348.0574341999891,None,348.8720451999892,None,,,,12011,0001,2022_Feb_03_0927,localizer,2021.1.3,60.48750509722457,
block,scrambled,scrambled038.bmp,,,,,0,154,154,154,,,,,,,,,,,,,,,,,,,,,,,,,,,,,,,,,,,,,,,,,,None,,348.8720451999892,None,348.8720451999892,None,2022-02-03-09:33:16.520261,348.88203099998645,349.1878169999982,348.88203099998645,None,y,348.88203099998645,None,349.68839159999914,None,0.63937459999579,,,12011,0001,2022_Feb_03_0927,localizer,2021.1.3,60.48750509722457,
block,scrambled,scrambled017.bmp,,,,,0,155,155,155,,,,,,,,,,,,,,,,,,,,,,,,,,,,,,,,,,,,,,,,,,None,,349.68839159999914,None,349.68839159999914,None,2022-02-03-09:33:17.337584,349.6892934999778,349.98888209997676,349.6892934999778,None,None,349.6892934999778,None,350.48839279999663,None,,,,12011,0001,2022_Feb_03_0927,localizer,2021.1.3,60.48750509722457,
block,scrambled,scrambled084.bmp,,,,,0,156,156,156,,,,,,,,,,,,,,,,,,,,,,,,,,,,,,,,,,,,,,,,,,None,,350.48839279999663,None,350.48839279999663,None,2022-02-03-09:33:18.139577,350.5035013000015,350.806110799982,350.5035013000015,350.5035013000015,None,350.5035013000015,350.5035013000015,351.30601579997744,None,,,,12011,0001,2022_Feb_03_0927,localizer,2021.1.3,60.48750509722457,
block,scrambled,scrambled033.bmp,,,,,0,157,157,157,,,,,,,,,,,,,,,,,,,,,,,,,,,,,,,,,,,,,,,,,,None,,351.30601579997744,None,351.30601579997744,None,2022-02-03-09:33:18.957174,351.32175319999806,351.62196550000226,351.32175319999806,None,None,351.32175319999806,None,352.1214836999919,None,,,,12011,0001,2022_Feb_03_0927,localizer,2021.1.3,60.48750509722457,
block,scrambled,scrambled087.bmp,,,,,0,158,158,158,,,,,,,,,,,,,,,,,,,,,,,,,,,,,,,,,,,,,,,,,,None,,352.1214836999919,None,352.1214836999919,None,2022-02-03-09:33:19.770875,352.13284679999924,352.43877249999787,352.13284679999924,None,None,352.13284679999924,None,352.9386681999807,None,,,,12011,0001,2022_Feb_03_0927,localizer,2021.1.3,60.48750509722457,
block,scrambled,scrambled012.bmp,,,,,0,159,159,159,,,,,,,,,,,,,,,,,,,,,,,,,,,,,,,,,,,,,,,,,,None,,352.9386681999807,None,352.9386681999807,None,2022-02-03-09:33:20.588026,352.95178959998884,353.2546448999783,352.95178959998884,None,None,352.95178959998884,None,353.7546031000005,None,,,,12011,0001,2022_Feb_03_0927,localizer,2021.1.3,60.48750509722457,
block,scrambled,scrambled081.bmp,,,,,0,160,160,160,,,,,,,,,,,,,,,,,,,,,,,,,,,,,,,,,,,,,,,,,,None,,353.7546031000005,None,353.7546031000005,None,2022-02-03-09:33:21.402913,353.7661121999845,354.07149859998026,353.7661121999845,None,None,353.7661121999845,None,354.57126279998045,None,,,,12011,0001,2022_Feb_03_0927,localizer,2021.1.3,60.48750509722457,
block,scrambled,scrambled047.bmp,,,,,0,161,161,161,,,,,,,,,,,,,,,,,,,,,,,,,,,,,,,,,,,,,,,,,,None,,354.57126279998045,None,354.57126279998045,None,2022-02-03-09:33:22.219355,354.5724435999873,354.8883712999814,354.5724435999873,None,y,354.5724435999873,None,355.3880052999797,None,0.7442054999992251,,,12011,0001,2022_Feb_03_0927,localizer,2021.1.3,60.48750509722457,
block,scrambled,scrambled037.bmp,,,,,0,162,162,162,,,,,,,,,,,,,,,,,,,,,,,,,,,,,,,,,,,,,,,,,,None,,355.3880052999797,None,355.3880052999797,None,2022-02-03-09:33:23.036417,355.39951079999446,355.70510540000396,355.39951079999446,None,None,355.39951079999446,None,356.2049879000027,None,,,,12011,0001,2022_Feb_03_0927,localizer,2021.1.3,60.48750509722457,
block,scrambled,scrambled051.bmp,,,,,0,163,163,163,,,,,,,,,,,,,,,,,,,,,,,,,,,,,,,,,,,,,,,,,,None,,356.2049879000027,None,356.2049879000027,None,2022-02-03-09:33:23.854182,356.2163042000029,356.52170419998583,356.2163042000029,None,None,356.2163042000029,None,357.0207110999821,None,,,,12011,0001,2022_Feb_03_0927,localizer,2021.1.3,60.48750509722457,
block,scrambled,scrambled079.bmp,,,,,0,164,164,164,,,,,,,,,,,,,,,,,,,,,,,,,,,,,,,,,,,,,,,,,,None,,357.0207110999821,None,357.0207110999821,None,2022-02-03-09:33:24.667803,357.02903439998045,357.3388949999935,357.02903439998045,None,None,357.02903439998045,None,357.83849659997793,None,,,,12011,0001,2022_Feb_03_0927,localizer,2021.1.3,60.48750509722457,
block,scrambled,scrambled029.bmp,,,,,0,165,165,165,,,,,,,,,,,,,,,,,,,,,,,,,,,,,,,,,,,,,,,,,,None,,357.83849659997793,None,357.83849659997793,None,2022-02-03-09:33:25.487706,357.85055829997873,358.1549739999755,357.85055829997873,None,None,357.85055829997873,None,358.6556742000015,None,,,,12011,0001,2022_Feb_03_0927,localizer,2021.1.3,60.48750509722457,
block,scrambled,scrambled073.bmp,,,,,0,166,166,166,,,,,,,,,,,,,,,,,,,,,,,,,,,,,,,,,,,,,,,,,,None,,358.6556742000015,None,358.6556742000015,None,2022-02-03-09:33:26.305853,358.6685609999986,358.9712763999996,358.6685609999986,None,None,358.6685609999986,None,359.4714874999976,None,,,,12011,0001,2022_Feb_03_0927,localizer,2021.1.3,60.48750509722457,
block_end,scrambled,scrambled071.bmp,,,,,0,167,167,167,,,,,,,,,,,,,,,,,,,,,,,,,,,,,,,,,,,,,,,,,,None,,359.4714874999976,None,359.4714874999976,None,2022-02-03-09:33:27.119686,359.48247989997617,359.7885300999915,359.48247989997617,None,None,359.48247989997617,None,360.28808869999773,None,,,,12011,0001,2022_Feb_03_0927,localizer,2021.1.3,60.48750509722457,
block_start,scenes,scenes047.bmp,,,,,0,168,168,168,,,,,,,,,,,,,,,,,,,,,,,,,,,,,,,,,,,,,,,,,,t,1.7472677000041585,360.2883215000038,None,360.2883215000038,None,2022-02-03-09:33:29.701133,362.0658532999805,362.37232880000374,362.0658532999805,None,None,362.0658532999805,None,362.8715541000041,None,,,,12011,0001,2022_Feb_03_0927,localizer,2021.1.3,60.48750509722457,
block,scenes,scenes073.bmp,,,,,0,169,169,169,,,,,,,,,,,,,,,,,,,,,,,,,,,,,,,,,,,,,,,,,,None,,362.8715541000041,None,362.8715541000041,None,2022-02-03-09:33:30.521349,362.8849502999801,363.18803520000074,362.8849502999801,None,None,362.8849502999801,None,363.6876812000031,None,,,,12011,0001,2022_Feb_03_0927,localizer,2021.1.3,60.48750509722457,
block,scenes,scenes089.bmp,,,,,0,170,170,170,,,,,,,,,,,,,,,,,,,,,,,,,,,,,,,,,,,,,,,,,,None,,363.6876812000031,None,363.6876812000031,None,2022-02-03-09:33:31.334889,363.68966489998274,364.00526109998464,363.68966489998274,None,y,363.68966489998274,None,364.504128299994,None,0.4977995000081137,,,12011,0001,2022_Feb_03_0927,localizer,2021.1.3,60.48750509722457,
block,scenes,scenes061.bmp,,,,,0,171,171,171,,,,,,,,,,,,,,,,,,,,,,,,,,,,,,,,,,,,,,,,,,None,,364.504128299994,None,364.504128299994,None,2022-02-03-09:33:32.151337,364.51355119998334,364.82189859999926,364.51355119998334,None,None,364.51355119998334,None,365.3214475999906,None,,,,12011,0001,2022_Feb_03_0927,localizer,2021.1.3,60.48750509722457,
block,scenes,scenes033.bmp,,,,,0,172,172,172,,,,,,,,,,,,,,,,,,,,,,,,,,,,,,,,,,,,,,,,,,None,,365.3214475999906,None,365.3214475999906,None,2022-02-03-09:33:32.969861,365.33257779999985,365.638629699999,365.33257779999985,None,None,365.33257779999985,None,366.1382451000012,None,,,,12011,0001,2022_Feb_03_0927,localizer,2021.1.3,60.48750509722457,
block,scenes,scenes056.bmp,,,,,0,173,173,173,,,,,,,,,,,,,,,,,,,,,,,,,,,,,,,,,,,,,,,,,,None,,366.1382451000012,None,366.1382451000012,None,2022-02-03-09:33:33.786664,366.1488058999821,366.4551955999923,366.1488058999821,None,None,366.1488058999821,None,366.9549066999956,None,,,,12011,0001,2022_Feb_03_0927,localizer,2021.1.3,60.48750509722457,
block,scenes,scenes078.bmp,,,,,0,174,174,174,,,,,,,,,,,,,,,,,,,,,,,,,,,,,,,,,,,,,,,,,,None,,366.9549066999956,None,366.9549066999956,None,2022-02-03-09:33:34.603144,366.9660540999903,367.2767659999954,366.9660540999903,None,None,366.9660540999903,None,367.7708394999994,None,,,,12011,0001,2022_Feb_03_0927,localizer,2021.1.3,60.48750509722457,
block,scenes,scenes079.bmp,,,,,0,175,175,175,,,,,,,,,,,,,,,,,,,,,,,,,,,,,,,,,,,,,,,,,,None,,367.7708394999994,None,367.7708394999994,None,2022-02-03-09:33:35.418253,367.77310049999505,368.08819159999257,367.77310049999505,None,y,367.77310049999505,None,368.58797129999436,None,0.5062449999968521,,,12011,0001,2022_Feb_03_0927,localizer,2021.1.3,60.48750509722457,
block,scenes,scenes059.bmp,,,,,0,176,176,176,,,,,,,,,,,,,,,,,,,,,,,,,,,,,,,,,,,,,,,,,,None,,368.58797129999436,None,368.58797129999436,None,2022-02-03-09:33:36.236174,368.58950109998113,368.9049840999942,368.58950109998113,None,None,368.58950109998113,None,369.40482419999023,None,,,,12011,0001,2022_Feb_03_0927,localizer,2021.1.3,60.48750509722457,
block,scenes,scenes039.bmp,,,,,0,177,177,177,,,,,,,,,,,,,,,,,,,,,,,,,,,,,,,,,,,,,,,,,,None,,369.40482419999023,None,369.40482419999023,None,2022-02-03-09:33:37.053024,369.4152479999757,369.7235131999769,369.4152479999757,None,None,369.4152479999757,None,370.2220149999979,None,,,,12011,0001,2022_Feb_03_0927,localizer,2021.1.3,60.48750509722457,
block,scenes,scenes045.bmp,,,,,0,178,178,178,,,,,,,,,,,,,,,,,,,,,,,,,,,,,,,,,,,,,,,,,,None,,370.2220149999979,None,370.2220149999979,None,2022-02-03-09:33:37.870214,370.2330399999919,370.53855420000036,370.2330399999919,None,None,370.2330399999919,None,371.0380644999881,None,,,,12011,0001,2022_Feb_03_0927,localizer,2021.1.3,60.48750509722457,
block,scenes,scenes064.bmp,,,,,0,179,179,179,,,,,,,,,,,,,,,,,,,,,,,,,,,,,,,,,,,,,,,,,,None,,371.0380644999881,None,371.0380644999881,None,2022-02-03-09:33:38.686351,371.0487654999888,371.35523580000154,371.0487654999888,None,None,371.0487654999888,None,371.8568589999835,None,,,,12011,0001,2022_Feb_03_0927,localizer,2021.1.3,60.48750509722457,
block,scenes,scenes069.bmp,,,,,0,180,180,180,,,,,,,,,,,,,,,,,,,,,,,,,,,,,,,,,,,,,,,,,,None,,371.8568589999835,None,371.8568589999835,None,2022-02-03-09:33:39.508475,371.86224570000195,372.17135329998564,371.86224570000195,None,None,371.86224570000195,None,372.6715143999812,None,,,,12011,0001,2022_Feb_03_0927,localizer,2021.1.3,60.48750509722457,
block,scenes,scenes070.bmp,,,,,0,181,181,181,,,,,,,,,,,,,,,,,,,,,,,,,,,,,,,,,,,,,,,,,,None,,372.6715143999812,None,372.6715143999812,None,2022-02-03-09:33:40.319910,372.68218619999243,372.9882890000008,372.68218619999243,None,None,372.68218619999243,None,373.48825379998596,None,,,,12011,0001,2022_Feb_03_0927,localizer,2021.1.3,60.48750509722457,
block_end,scenes,scenes001.bmp,,,,,0,182,182,182,,,,,,,,,,,,,,,,,,,,,,,,,,,,,,,,,,,,,,,,,,None,,373.48825379998596,None,373.48825379998596,None,2022-02-03-09:33:41.136454,373.4892576999846,373.8052173999895,373.4892576999846,None,None,373.4892576999846,None,374.30464509998853,None,,,,12011,0001,2022_Feb_03_0927,localizer,2021.1.3,60.48750509722457,
block_start,faces,faces048.bmp,,,,,0,183,183,183,,,,,,,,,,,,,,,,,,,,,,,,,,,,,,,,,,,,,,,,,,t,1.7305253999948036,374.3050232999958,None,374.3050232999958,None,2022-02-03-09:33:43.702114,376.0560284999956,376.37184779997915,376.0560284999956,None,y,376.0560284999956,None,376.8554825999803,None,0.4556901000032667,,,12011,0001,2022_Feb_03_0927,localizer,2021.1.3,60.48750509722457,
block,faces,faces088.bmp,,,,,0,184,184,184,,,,,,,,,,,,,,,,,,,,,,,,,,,,,,,,,,,,,,,,,,None,,376.8554825999803,None,376.8554825999803,None,2022-02-03-09:33:44.507727,376.8600336999807,377.17251499998383,376.8600336999807,376.8600336999807,y,376.8600336999807,376.8600336999807,377.672238599995,None,0.45652579999295995,,,12011,0001,2022_Feb_03_0927,localizer,2021.1.3,60.48750509722457,
block,faces,faces064.bmp,,,,,0,185,185,185,,,,,,,,,,,,,,,,,,,,,,,,,,,,,,,,,,,,,,,,,,None,,377.672238599995,None,377.672238599995,None,2022-02-03-09:33:45.320402,377.680590199976,377.98842859998695,377.680590199976,None,None,377.680590199976,None,378.48813709999956,None,,,,12011,0001,2022_Feb_03_0927,localizer,2021.1.3,60.48750509722457,
block,faces,faces054.bmp,,,,,0,186,186,186,,,,,,,,,,,,,,,,,,,,,,,,,,,,,,,,,,,,,,,,,,None,,378.48813709999956,None,378.48813709999956,None,2022-02-03-09:33:46.136460,378.4989997999801,378.8051849999756,378.4989997999801,None,None,378.4989997999801,None,379.3050725999841,None,,,,12011,0001,2022_Feb_03_0927,localizer,2021.1.3,60.48750509722457,
block,faces,faces033.bmp,,,,,0,187,187,187,,,,,,,,,,,,,,,,,,,,,,,,,,,,,,,,,,,,,,,,,,None,,379.3050725999841,None,379.3050725999841,None,2022-02-03-09:33:46.954266,379.32398519999697,379.63822699998855,379.32398519999697,None,None,379.32398519999697,None,380.121138399982,None,,,,12011,0001,2022_Feb_03_0927,localizer,2021.1.3,60.48750509722457,
block,faces,faces027.bmp,,,,,0,188,188,188,,,,,,,,,,,,,,,,,,,,,,,,,,,,,,,,,,,,,,,,,,None,,380.121138399982,None,380.121138399982,None,2022-02-03-09:33:47.769341,380.1226173999894,380.42227849998744,380.1226173999894,None,None,380.1226173999894,None,380.9219651999796,None,,,,12011,0001,2022_Feb_03_0927,localizer,2021.1.3,60.48750509722457,
block,faces,faces068.bmp,,,,,0,189,189,189,,,,,,,,,,,,,,,,,,,,,,,,,,,,,,,,,,,,,,,,,,None,,380.9219651999796,None,380.9219651999796,None,2022-02-03-09:33:48.573149,380.9253093999869,381.2380304999824,380.9253093999869,380.9253093999869,None,380.9253093999869,380.9253093999869,381.7382582999911,None,,,,12011,0001,2022_Feb_03_0927,localizer,2021.1.3,60.48750509722457,
block,faces,faces025.bmp,,,,,0,190,190,190,,,,,,,,,,,,,,,,,,,,,,,,,,,,,,,,,,,,,,,,,,None,,381.7382582999911,None,381.7382582999911,None,2022-02-03-09:33:49.386800,381.7394571999903,382.05536030000076,381.7394571999903,None,y,381.7394571999903,None,382.5548060999921,None,0.7760689000133425,,,12011,0001,2022_Feb_03_0927,localizer,2021.1.3,60.48750509722457,
block,faces,faces042.bmp,,,,,0,191,191,191,,,,,,,,,,,,,,,,,,,,,,,,,,,,,,,,,,,,,,,,,,None,,382.5548060999921,None,382.5548060999921,None,2022-02-03-09:33:50.203242,382.5650040000037,382.8720970999857,382.5650040000037,None,None,382.5650040000037,None,383.3715836999967,None,,,,12011,0001,2022_Feb_03_0927,localizer,2021.1.3,60.48750509722457,
block,faces,faces071.bmp,,,,,0,192,192,192,,,,,,,,,,,,,,,,,,,,,,,,,,,,,,,,,,,,,,,,,,None,,383.3715836999967,None,383.3715836999967,None,2022-02-03-09:33:51.019977,383.3832021999988,383.688384899986,383.3832021999988,None,None,383.3832021999988,None,384.18868779998445,None,,,,12011,0001,2022_Feb_03_0927,localizer,2021.1.3,60.48750509722457,
block,faces,faces003.bmp,,,,,0,193,193,193,,,,,,,,,,,,,,,,,,,,,,,,,,,,,,,,,,,,,,,,,,None,,384.18868779998445,None,384.18868779998445,None,2022-02-03-09:33:51.837817,384.2005899999931,384.50526209999225,384.2005899999931,None,None,384.2005899999931,None,385.00494370000376,None,,,,12011,0001,2022_Feb_03_0927,localizer,2021.1.3,60.48750509722457,
block,faces,faces026.bmp,,,,,0,194,194,194,,,,,,,,,,,,,,,,,,,,,,,,,,,,,,,,,,,,,,,,,,None,,385.00494370000376,None,385.00494370000376,None,2022-02-03-09:33:52.653141,385.04498899998725,385.35528079999494,385.04498899998725,None,None,385.04498899998725,None,385.8217741000029,None,,,,12011,0001,2022_Feb_03_0927,localizer,2021.1.3,60.48750509722457,
block,faces,faces082.bmp,,,,,0,195,195,195,,,,,,,,,,,,,,,,,,,,,,,,,,,,,,,,,,,,,,,,,,None,,385.8217741000029,None,385.8217741000029,None,2022-02-03-09:33:53.469953,385.82303209998645,386.1388883999898,385.82303209998645,None,None,385.82303209998645,None,386.6383689999842,None,,,,12011,0001,2022_Feb_03_0927,localizer,2021.1.3,60.48750509722457,
block,faces,faces078.bmp,,,,,0,196,196,196,,,,,,,,,,,,,,,,,,,,,,,,,,,,,,,,,,,,,,,,,,None,,386.6383689999842,None,386.6383689999842,None,2022-02-03-09:33:54.286567,386.6394702999969,386.95520090000355,386.6394702999969,None,None,386.6394702999969,None,387.45492469998715,None,,,,12011,0001,2022_Feb_03_0927,localizer,2021.1.3,60.48750509722457,
block_end,faces,faces058.bmp,,,,,0,197,197,197,,,,,,,,,,,,,,,,,,,,,,,,,,,,,,,,,,,,,,,,,,None,,387.45492469998715,None,387.45492469998715,None,2022-02-03-09:33:55.103344,387.4670824999921,387.7720980999875,387.4670824999921,None,None,387.4670824999921,None,388.2725227999821,None,,,,12011,0001,2022_Feb_03_0927,localizer,2021.1.3,60.48750509722457,
block_start,objects,objects086.bmp,,,,,0,198,198,198,,,,,,,,,,,,,,,,,,,,,,,,,,,,,,,,,,,,,,,,,,t,1.762698000005912,388.27292839999427,None,388.27292839999427,None,2022-02-03-09:33:57.702226,390.06443569998373,390.3718488999875,390.06443569998373,None,None,390.06443569998373,None,390.87178629999687,None,,,,12011,0001,2022_Feb_03_0927,localizer,2021.1.3,60.48750509722457,
block,objects,objects048.bmp,,,,,0,199,199,199,,,,,,,,,,,,,,,,,,,,,,,,,,,,,,,,,,,,,,,,,,None,,390.87178629999687,None,390.87178629999687,None,2022-02-03-09:33:58.520207,390.8814683999808,391.19515970000066,390.8814683999808,None,None,390.8814683999808,None,391.6887150999886,None,,,,12011,0001,2022_Feb_03_0927,localizer,2021.1.3,60.48750509722457,
block,objects,objects012.bmp,,,,,0,200,200,200,,,,,,,,,,,,,,,,,,,,,,,,,,,,,,,,,,,,,,,,,,None,,391.6887150999886,None,391.6887150999886,None,2022-02-03-09:33:59.337864,391.6898380999919,392.00506419999874,391.6898380999919,None,y,391.6898380999919,None,392.50456829999746,None,0.7342498000070918,,,12011,0001,2022_Feb_03_0927,localizer,2021.1.3,60.48750509722457,
block,objects,objects012.bmp,,,,,0,201,201,201,,,,,,,,,,,,,,,,,,,,,,,,,,,,,,,,,,,,,,,,,,None,,392.50456829999746,None,392.50456829999746,None,2022-02-03-09:34:00.152772,392.50617049998255,392.82216589999734,392.50617049998255,None,None,392.50617049998255,None,393.3054231999762,None,,,,12011,0001,2022_Feb_03_0927,localizer,2021.1.3,60.48750509722457,
block,objects,objects060.bmp,,,,,0,202,202,202,,,,,,,,,,,,,,,,,,,,,,,,,,,,,,,,,,,,,,,,,,None,,393.3054231999762,None,393.3054231999762,None,2022-02-03-09:34:00.956609,393.30860659998143,393.621462399984,393.30860659998143,393.30860659998143,None,393.30860659998143,393.30860659998143,394.12178919998985,None,,,,12011,0001,2022_Feb_03_0927,localizer,2021.1.3,60.48750509722457,
block,objects,objects082.bmp,,,,,0,203,203,203,,,,,,,,,,,,,,,,,,,,,,,,,,,,,,,,,,,,,,,,,,None,,394.12178919998985,None,394.12178919998985,None,2022-02-03-09:34:01.769965,394.12279959997977,394.43846159998793,394.12279959997977,None,y,394.12279959997977,None,394.9383055999846,None,0.6746894000098109,,,12011,0001,2022_Feb_03_0927,localizer,2021.1.3,60.48750509722457,
block,objects,objects017.bmp,,,,,0,204,204,204,,,,,,,,,,,,,,,,,,,,,,,,,,,,,,,,,,,,,,,,,,None,,394.9383055999846,None,394.9383055999846,None,2022-02-03-09:34:02.586711,394.93955029998324,395.2550556999922,394.93955029998324,None,None,394.93955029998324,None,395.7400029999757,None,,,,12011,0001,2022_Feb_03_0927,localizer,2021.1.3,60.48750509722457,
block,objects,objects061.bmp,,,,,0,205,205,205,,,,,,,,,,,,,,,,,,,,,,,,,,,,,,,,,,,,,,,,,,None,,395.7400029999757,None,395.7400029999757,None,2022-02-03-09:34:03.391390,395.7544767999789,396.05534500000067,395.7544767999789,395.7544767999789,None,395.7544767999789,395.7544767999789,396.5550921999878,None,,,,12011,0001,2022_Feb_03_0927,localizer,2021.1.3,60.48750509722457,
block,objects,objects022.bmp,,,,,0,206,206,206,,,,,,,,,,,,,,,,,,,,,,,,,,,,,,,,,,,,,,,,,,None,,396.5550921999878,None,396.5550921999878,None,2022-02-03-09:34:04.203292,396.55608189999475,396.87209749998874,396.55608189999475,None,y,396.55608189999475,None,397.3551775999862,None,0.5994334999995772,,,12011,0001,2022_Feb_03_0927,localizer,2021.1.3,60.48750509722457,
block,objects,objects059.bmp,,,,,0,207,207,207,,,,,,,,,,,,,,,,,,,,,,,,,,,,,,,,,,,,,,,,,,None,,397.3551775999862,None,397.3551775999862,None,2022-02-03-09:34:05.005371,397.36696019998635,397.6715973999817,397.36696019998635,397.36696019998635,None,397.36696019998635,397.36696019998635,398.1712236999796,None,,,,12011,0001,2022_Feb_03_0927,localizer,2021.1.3,60.48750509722457,
block,objects,objects015.bmp,,,,,0,208,208,208,,,,,,,,,,,,,,,,,,,,,,,,,,,,,,,,,,,,,,,,,,None,,398.1712236999796,None,398.1712236999796,None,2022-02-03-09:34:05.819885,398.172637199983,398.4886221999768,398.172637199983,None,None,398.172637199983,None,398.97189449998257,None,,,,12011,0001,2022_Feb_03_0927,localizer,2021.1.3,60.48750509722457,
block,objects,objects075.bmp,,,,,0,209,209,209,,,,,,,,,,,,,,,,,,,,,,,,,,,,,,,,,,,,,,,,,,None,,398.97189449998257,None,398.97189449998257,None,2022-02-03-09:34:06.622043,398.98384709999664,399.2887393999845,398.98384709999664,398.98384709999664,None,398.98384709999664,398.98384709999664,399.78824149999707,None,,,,12011,0001,2022_Feb_03_0927,localizer,2021.1.3,60.48750509722457,
block,objects,objects051.bmp,,,,,0,210,210,210,,,,,,,,,,,,,,,,,,,,,,,,,,,,,,,,,,,,,,,,,,None,,399.78824149999707,None,399.78824149999707,None,2022-02-03-09:34:07.436655,399.79874779999955,400.1055023999943,399.79874779999955,None,None,399.79874779999955,None,400.6055114999966,None,,,,12011,0001,2022_Feb_03_0927,localizer,2021.1.3,60.48750509722457,
block,objects,objects071.bmp,,,,,0,211,211,211,,,,,,,,,,,,,,,,,,,,,,,,,,,,,,,,,,,,,,,,,,None,,400.6055114999966,None,400.6055114999966,None,2022-02-03-09:34:08.254914,400.6065250999818,400.9061979999824,400.6065250999818,None,y,400.6065250999818,None,401.40565099999947,None,0.6599724999978207,,,12011,0001,2022_Feb_03_0927,localizer,2021.1.3,60.48750509722457,
block_end,objects,objects034.bmp,,,,,0,212,212,212,,,,,,,,,,,,,,,,,,,,,,,,,,,,,,,,,,,,,,,,,,None,,401.40565099999947,None,401.40565099999947,None,2022-02-03-09:34:09.056919,401.40920709999045,401.7227703999961,401.40920709999045,401.40920709999045,y,401.40920709999045,401.40920709999045,402.2216860999964,None,0.6444948999851476,,,12011,0001,2022_Feb_03_0927,localizer,2021.1.3,60.48750509722457,
block_start,scenes,scenes023.bmp,,,,,0,213,213,213,,,,,,,,,,,,,,,,,,,,,,,,,,,,,,,,,,,,,,,,,,t,1.8134992999839596,402.2220887999865,None,402.2220887999865,None,2022-02-03-09:34:11.701378,404.056476400001,404.37217039999086,404.056476400001,None,None,404.056476400001,None,404.8723874999763,None,,,,12011,0001,2022_Feb_03_0927,localizer,2021.1.3,60.48750509722457,
block,scenes,scenes015.bmp,,,,,0,214,214,214,,,,,,,,,,,,,,,,,,,,,,,,,,,,,,,,,,,,,,,,,,None,,404.8723874999763,None,404.8723874999763,None,2022-02-03-09:34:12.520155,404.8727818999905,405.18838779997895,404.8727818999905,None,None,404.8727818999905,None,405.67180489998134,None,,,,12011,0001,2022_Feb_03_0927,localizer,2021.1.3,60.48750509722457,
block,scenes,scenes090.bmp,,,,,0,215,215,215,,,,,,,,,,,,,,,,,,,,,,,,,,,,,,,,,,,,,,,,,,None,,405.67180489998134,None,405.67180489998134,None,2022-02-03-09:34:13.322157,405.68274059999385,405.989262099989,405.68274059999385,405.68274059999385,None,405.68274059999385,405.68274059999385,406.48878809997984,None,,,,12011,0001,2022_Feb_03_0927,localizer,2021.1.3,60.48750509722457,
block,scenes,scenes014.bmp,,,,,0,216,216,216,,,,,,,,,,,,,,,,,,,,,,,,,,,,,,,,,,,,,,,,,,None,,406.48878809997984,None,406.48878809997984,None,2022-02-03-09:34:14.137977,406.50093650000053,406.8054569999804,406.50093650000053,None,None,406.50093650000053,None,407.305191599988,None,,,,12011,0001,2022_Feb_03_0927,localizer,2021.1.3,60.48750509722457,
block,scenes,scenes078.bmp,,,,,0,217,217,217,,,,,,,,,,,,,,,,,,,,,,,,,,,,,,,,,,,,,,,,,,None,,407.305191599988,None,407.305191599988,None,2022-02-03-09:34:14.953368,407.3062474000035,407.6220985999971,407.3062474000035,None,y,407.3062474000035,None,408.1217739999905,None,0.5821666999836452,,,12011,0001,2022_Feb_03_0927,localizer,2021.1.3,60.48750509722457,
block,scenes,scenes025.bmp,,,,,0,218,218,218,,,,,,,,,,,,,,,,,,,,,,,,,,,,,,,,,,,,,,,,,,None,,408.1217739999905,None,408.1217739999905,None,2022-02-03-09:34:15.769972,408.13704689999577,408.4388385999773,408.13704689999577,None,None,408.13704689999577,None,408.93800859999317,None,,,,12011,0001,2022_Feb_03_0927,localizer,2021.1.3,60.48750509722457,
block,scenes,scenes010.bmp,,,,,0,219,219,219,,,,,,,,,,,,,,,,,,,,,,,,,,,,,,,,,,,,,,,,,,None,,408.93800859999317,None,408.93800859999317,None,2022-02-03-09:34:16.586213,408.9396457999828,409.23972479999065,408.9396457999828,None,None,408.9396457999828,None,409.7393596999958,None,,,,12011,0001,2022_Feb_03_0927,localizer,2021.1.3,60.48750509722457,
block,scenes,scenes054.bmp,,,,,0,220,220,220,,,,,,,,,,,,,,,,,,,,,,,,,,,,,,,,,,,,,,,,,,None,,409.7393596999958,None,409.7393596999958,None,2022-02-03-09:34:17.392533,409.75640589999966,410.07240109998384,409.75640589999966,409.75640589999966,None,409.75640589999966,409.75640589999966,410.5555348999827,None,,,,12011,0001,2022_Feb_03_0927,localizer,2021.1.3,60.48750509722457,
block,scenes,scenes029.bmp,,,,,0,221,221,221,,,,,,,,,,,,,,,,,,,,,,,,,,,,,,,,,,,,,,,,,,None,,410.5555348999827,None,410.5555348999827,None,2022-02-03-09:34:18.204704,410.5677018999995,410.87204029998975,410.5677018999995,None,None,410.5677018999995,None,411.37208099999987,None,,,,12011,0001,2022_Feb_03_0927,localizer,2021.1.3,60.48750509722457,
block,scenes,scenes018.bmp,,,,,0,222,222,222,,,,,,,,,,,,,,,,,,,,,,,,,,,,,,,,,,,,,,,,,,None,,411.37208099999987,None,411.37208099999987,None,2022-02-03-09:34:19.021273,411.3833695999929,411.6884580999904,411.3833695999929,None,None,411.3833695999929,None,412.18784900000026,None,,,,12011,0001,2022_Feb_03_0927,localizer,2021.1.3,60.48750509722457,
block,scenes,scenes086.bmp,,,,,0,223,223,223,,,,,,,,,,,,,,,,,,,,,,,,,,,,,,,,,,,,,,,,,,None,,412.18784900000026,None,412.18784900000026,None,2022-02-03-09:34:19.836057,412.1970175000024,412.5053250999772,412.1970175000024,None,None,412.1970175000024,None,413.00844899997753,None,,,,12011,0001,2022_Feb_03_0927,localizer,2021.1.3,60.48750509722457,
block,scenes,scenes003.bmp,,,,,0,224,224,224,,,,,,,,,,,,,,,,,,,,,,,,,,,,,,,,,,,,,,,,,,None,,413.00844899997753,None,413.00844899997753,None,2022-02-03-09:34:20.659185,413.02035340000293,413.3223830999923,413.02035340000293,None,None,413.02035340000293,None,413.82190810000463,None,,,,12011,0001,2022_Feb_03_0927,localizer,2021.1.3,60.48750509722457,
block,scenes,scenes092.bmp,,,,,0,225,225,225,,,,,,,,,,,,,,,,,,,,,,,,,,,,,,,,,,,,,,,,,,None,,413.82190810000463,None,413.82190810000463,None,2022-02-03-09:34:21.470104,413.8331631999754,414.1388978000032,413.8331631999754,None,None,413.8331631999754,None,414.637914399986,None,,,,12011,0001,2022_Feb_03_0927,localizer,2021.1.3,60.48750509722457,
block,scenes,scenes072.bmp,,,,,0,226,226,226,,,,,,,,,,,,,,,,,,,,,,,,,,,,,,,,,,,,,,,,,,None,,414.637914399986,None,414.637914399986,None,2022-02-03-09:34:22.286120,414.6470669999835,414.9555904000008,414.6470669999835,None,None,414.6470669999835,None,415.4568957999785,None,,,,12011,0001,2022_Feb_03_0927,localizer,2021.1.3,60.48750509722457,
block_end,scenes,scenes033.bmp,,,,,0,227,227,227,,,,,,,,,,,,,,,,,,,,,,,,,,,,,,,,,,,,,,,,,,None,,415.4568957999785,None,415.4568957999785,None,2022-02-03-09:34:23.108119,415.4616374000034,415.7722548999882,415.4616374000034,None,y,415.4616374000034,None,416.2718393999879,None,0.6299489000230096,,,12011,0001,2022_Feb_03_0927,localizer,2021.1.3,60.48750509722457,
null_block,null_block,null_block.bmp,,,,,0,228,228,228,,,,,,,,,,,,,,,,,,,,,,,,,,,,,,,,,,,,,,,,,,t,1.76337760000024,416.2722887999844,None,416.2722887999844,None,2022-02-03-09:34:25.705260,418.0560771999793,None,418.0560771999793,None,None,418.0560771999793,None,418.06324419999146,None,,,,12011,0001,2022_Feb_03_0927,localizer,2021.1.3,60.48750509722457,
block_start,scrambled,scrambled085.bmp,,,,,0,229,229,229,,,,,,,,,,,,,,,,,,,,,,,,,,,,,,,,,,,,,,,,,,t,1.9633075000019744,430.0723812999786,None,430.0723812999786,None,2022-02-03-09:34:39.708477,432.0698591999826,432.37278899998637,432.0698591999826,None,None,432.0698591999826,None,432.87364989998457,None,,,,12011,0001,2022_Feb_03_0927,localizer,2021.1.3,60.48750509722457,
block,scrambled,scrambled064.bmp,,,,,0,230,230,230,,,,,,,,,,,,,,,,,,,,,,,,,,,,,,,,,,,,,,,,,,None,,432.87364989998457,None,432.87364989998457,None,2022-02-03-09:34:40.526047,432.890040600003,433.20563609999954,432.890040600003,None,None,432.890040600003,None,433.688725699982,None,,,,12011,0001,2022_Feb_03_0927,localizer,2021.1.3,60.48750509722457,
block,scrambled,scrambled060.bmp,,,,,0,231,231,231,,,,,,,,,,,,,,,,,,,,,,,,,,,,,,,,,,,,,,,,,,None,,433.688725699982,None,433.688725699982,None,2022-02-03-09:34:41.336923,433.6998044999782,434.00538909999887,433.6998044999782,None,None,433.6998044999782,None,434.5053458999813,None,,,,12011,0001,2022_Feb_03_0927,localizer,2021.1.3,60.48750509722457,
block,scrambled,scrambled054.bmp,,,,,0,232,232,232,,,,,,,,,,,,,,,,,,,,,,,,,,,,,,,,,,,,,,,,,,None,,434.5053458999813,None,434.5053458999813,None,2022-02-03-09:34:42.153759,434.51559870000347,434.82225489997654,434.51559870000347,None,None,434.51559870000347,None,435.3220982999977,None,,,,12011,0001,2022_Feb_03_0927,localizer,2021.1.3,60.48750509722457,
block,scrambled,scrambled076.bmp,,,,,0,233,233,233,,,,,,,,,,,,,,,,,,,,,,,,,,,,,,,,,,,,,,,,,,None,,435.3220982999977,None,435.3220982999977,None,2022-02-03-09:34:42.971289,435.3232003999874,435.63929759999155,435.3232003999874,None,y,435.3232003999874,None,436.1381436999858,None,0.721408400015207,,,12011,0001,2022_Feb_03_0927,localizer,2021.1.3,60.48750509722457,
block,scrambled,scrambled029.bmp,,,,,0,234,234,234,,,,,,,,,,,,,,,,,,,,,,,,,,,,,,,,,,,,,,,,,,None,,436.1381436999858,None,436.1381436999858,None,2022-02-03-09:34:43.786348,436.1397750999895,436.45558660000097,436.1397750999895,None,y,436.1397750999895,None,436.939054799985,None,0.47072459998889826,,,12011,0001,2022_Feb_03_0927,localizer,2021.1.3,60.48750509722457,
block,scrambled,scrambled088.bmp,,,,,0,235,235,235,,,,,,,,,,,,,,,,,,,,,,,,,,,,,,,,,,,,,,,,,,None,,436.939054799985,None,436.939054799985,None,2022-02-03-09:34:44.590239,436.9535415999999,437.2555418999982,436.9535415999999,436.9535415999999,None,436.9535415999999,436.9535415999999,437.75507589999177,None,,,,12011,0001,2022_Feb_03_0927,localizer,2021.1.3,60.48750509722457,
block,scrambled,scrambled056.bmp,,,,,0,236,236,236,,,,,,,,,,,,,,,,,,,,,,,,,,,,,,,,,,,,,,,,,,None,,437.75507589999177,None,437.75507589999177,None,2022-02-03-09:34:45.403048,437.76478249998763,438.07225800000015,437.76478249998763,None,None,437.76478249998763,None,438.5722985999804,None,,,,12011,0001,2022_Feb_03_0927,localizer,2021.1.3,60.48750509722457,
block,scrambled,scrambled019.bmp,,,,,0,237,237,237,,,,,,,,,,,,,,,,,,,,,,,,,,,,,,,,,,,,,,,,,,None,,438.5722985999804,None,438.5722985999804,None,2022-02-03-09:34:46.221658,438.5733809999947,438.88884069997584,438.5733809999947,None,None,438.5733809999947,None,439.3886119000002,None,,,,12011,0001,2022_Feb_03_0927,localizer,2021.1.3,60.48750509722457,
block,scrambled,scrambled049.bmp,,,,,0,238,238,238,,,,,,,,,,,,,,,,,,,,,,,,,,,,,,,,,,,,,,,,,,None,,439.3886119000002,None,439.3886119000002,None,2022-02-03-09:34:47.036812,439.3991848999867,439.7054923999822,439.3991848999867,None,None,439.3991848999867,None,440.2052605999837,None,,,,12011,0001,2022_Feb_03_0927,localizer,2021.1.3,60.48750509722457,
block,scrambled,scrambled050.bmp,,,,,0,239,239,239,,,,,,,,,,,,,,,,,,,,,,,,,,,,,,,,,,,,,,,,,,None,,440.2052605999837,None,440.2052605999837,None,2022-02-03-09:34:47.853682,440.21564099998795,440.5227474999847,440.21564099998795,None,None,440.21564099998795,None,441.02240459998427,None,,,,12011,0001,2022_Feb_03_0927,localizer,2021.1.3,60.48750509722457,
block,scrambled,scrambled007.bmp,,,,,0,240,240,240,,,,,,,,,,,,,,,,,,,,,,,,,,,,,,,,,,,,,,,,,,None,,441.02240459998427,None,441.02240459998427,None,2022-02-03-09:34:48.671781,441.03449969997746,441.3392051999981,441.03449969997746,None,None,441.03449969997746,None,441.8396213999862,None,,,,12011,0001,2022_Feb_03_0927,localizer,2021.1.3,60.48750509722457,
block,scrambled,scrambled002.bmp,,,,,0,241,241,241,,,,,,,,,,,,,,,,,,,,,,,,,,,,,,,,,,,,,,,,,,None,,441.8396213999862,None,441.8396213999862,None,2022-02-03-09:34:49.488941,441.8528318000026,442.15560619998723,441.8528318000026,None,None,441.8528318000026,None,442.65515319999247,None,,,,12011,0001,2022_Feb_03_0927,localizer,2021.1.3,60.48750509722457,
block,scrambled,scrambled031.bmp,,,,,0,242,242,242,,,,,,,,,,,,,,,,,,,,,,,,,,,,,,,,,,,,,,,,,,None,,442.65515319999247,None,442.65515319999247,None,2022-02-03-09:34:50.303353,442.66522819999955,442.97335799998837,442.66522819999955,None,None,442.66522819999955,None,443.47299099997906,None,,,,12011,0001,2022_Feb_03_0927,localizer,2021.1.3,60.48750509722457,
block_end,scrambled,scrambled014.bmp,,,,,0,243,243,243,,,,,,,,,,,,,,,,,,,,,,,,,,,,,,,,,,,,,,,,,,None,,443.47299099997906,None,443.47299099997906,None,2022-02-03-09:34:51.123168,443.4869831999822,443.7887791999965,443.4869831999822,None,None,443.4869831999822,None,444.2889653999795,None,,,,12011,0001,2022_Feb_03_0927,localizer,2021.1.3,60.48750509722457,
,,,,,,,,,,,,,,,,,,,,,,,,,,,,,,,,,,,,,,,,,,,,,,,,,,,,,,,,,,,,,,,,,,,,,444.2951453999849,None,,,,,,,
