block_type,condition,img_name,Button.thisRepN,Button.thisTrialN,Button.thisN,Button.thisIndex,trials.thisRepN,trials.thisTrialN,trials.thisN,trials.thisIndex,Ready_experimenter_text.started,Ready_experimenter_text.stopped,Ready_experimenter_resp.keys,Ready_experimenter_resp.rt,Ready_experimenter_resp.started,Ready_experimenter_resp.stopped,Alignment_background.started,Alignment_background.stopped,Alignment_image.started,Alignment_image.stopped,Alignment_resp.keys,Alignment_resp.rt,Alignment_resp.started,Alignment_resp.stopped,Button_text.started,Button_text.stopped,Index_text.started,Index_text.stopped,Index_resp.keys,Index_resp.rt,Index_resp.started,Index_resp.stopped,Middle_text.started,Middle_text.stopped,Middle_resp.keys,Middle_resp.rt,Middle_resp.started,Middle_resp.stopped,Repeat_text.started,Repeat_text.stopped,Repeat_resp.keys,Repeat_resp.corr,Repeat_resp.rt,Repeat_resp.started,Repeat_resp.stopped,instruction_text.started,instruction_text.stopped,key_resp.keys,key_resp.rt,key_resp.started,key_resp.stopped,scanner_t.keys,scanner_t.rt,scanner_t.started,scanner_t.stopped,fixation_wait_for_t.started,fixation_wait_for_t.stopped,real_timestamp_trial_start,image.started,image.stopped,fixation.started,fixation.stopped,repeat_response.keys,repeat_response.started,repeat_response.stopped,fixation_null.started,fixation_null.stopped,repeat_response.rt,end_text.started,end_text.stopped,participant,run,date,expName,psychopyVersion,frameRate,
,,,,,,,,,,,8.830062400083989,None,return,42.74212069995701,8.830062400083989,None,,,,,,,,,,,,,,,,,,,,,,,,,,,,,,,,,,,,,,,,,,,,,,,,,,,,,,,21006,0001,2022_Jul_18_1228,localizer,2021.1.3,59.56405062526309,
,,,,,,,,,,,,,,,,,51.63236560020596,None,51.63236560020596,None,return,11.481084499973804,51.63236560020596,None,,,,,,,,,,,,,,,,,,,,,,,,,,,,,,,,,,,,,,,,,,,,,,,21006,0001,2022_Jul_18_1228,localizer,2021.1.3,59.56405062526309,
,,,0,0,0,0,,,,,,,,,,,,,,,,,,,63.15233720000833,None,64.15090930042788,None,y,9.153598700184375,64.15090930042788,None,73.33568720007315,None,b,2.469636700116098,73.33568720007315,None,75.83485960029066,None,n,0,2.092785599641502,75.83485960029066,None,,,,,,,,,,,,,,,,,,,,,,,,,,21006,0001,2022_Jul_18_1228,localizer,2021.1.3,59.56405062526309,
,,,,,,,,,,,,,,,,,,,,,,,,,,,,,,,,,,,,,,,,,,,,,,77.95085540041327,None,y,37.86940239975229,77.95085540041327,None,,,,,,,,,,,,,,,,,,,,21006,0001,2022_Jul_18_1228,localizer,2021.1.3,59.56405062526309,
block_start,scenes,scenes037.bmp,,,,,0,0,0,0,,,,,,,,,,,,,,,,,,,,,,,,,,,,,,,,,,,,,,,,,,t,15.909624599851668,115.9206930003129,None,115.9206930003129,None,2022-07-18-12:30:08.136078,131.86581680038944,132.16876969998702,131.86581680038944,None,None,131.86581680038944,None,132.66763903005048,None,,,,21006,0001,2022_Jul_18_1228,localizer,2021.1.3,59.56405062526309,
block,scenes,scenes054.bmp,,,,,0,1,1,1,,,,,,,,,,,,,,,,,,,,,,,,,,,,,,,,,,,,,,,,,,None,,132.66763903005048,None,132.66763903005048,None,2022-07-18-12:30:08.951577,132.68228740012273,132.98488990031183,132.68228740012273,None,None,132.68228740012273,None,133.4843130301684,None,,,,21006,0001,2022_Jul_18_1228,localizer,2021.1.3,59.56405062526309,
block,scenes,scenes032.bmp,,,,,0,2,2,2,,,,,,,,,,,,,,,,,,,,,,,,,,,,,,,,,,,,,,,,,,None,,133.4843130301684,None,133.4843130301684,None,2022-07-18-12:30:09.767662,133.49580979999155,133.80199990002438,133.49580979999155,None,None,133.49580979999155,None,134.3020543301478,None,,,,21006,0001,2022_Jul_18_1228,localizer,2021.1.3,59.56405062526309,
block,scenes,scenes090.bmp,,,,,0,3,3,3,,,,,,,,,,,,,,,,,,,,,,,,,,,,,,,,,,,,,,,,,,None,,134.3020543301478,None,134.3020543301478,None,2022-07-18-12:30:10.586864,134.3180117001757,134.6181312003173,134.3180117001757,None,None,134.3180117001757,None,135.11789533020928,None,,,,21006,0001,2022_Jul_18_1228,localizer,2021.1.3,59.56405062526309,
block,scenes,scenes057.bmp,,,,,0,4,4,4,,,,,,,,,,,,,,,,,,,,,,,,,,,,,,,,,,,,,,,,,,None,,135.11789533020928,None,135.11789533020928,None,2022-07-18-12:30:11.400831,135.1294595003128,135.43423440027982,135.1294595003128,None,None,135.1294595003128,None,135.93546093013137,None,,,,21006,0001,2022_Jul_18_1228,localizer,2021.1.3,59.56405062526309,
block,scenes,scenes064.bmp,,,,,0,5,5,5,,,,,,,,,,,,,,,,,,,,,,,,,,,,,,,,,,,,,,,,,,None,,135.93546093013137,None,135.93546093013137,None,2022-07-18-12:30:12.220465,135.9511179002002,136.25170959997922,135.9511179002002,None,None,135.9511179002002,None,136.75115823037922,None,,,,21006,0001,2022_Jul_18_1228,localizer,2021.1.3,59.56405062526309,
block,scenes,scenes006.bmp,,,,,0,6,6,6,,,,,,,,,,,,,,,,,,,,,,,,,,,,,,,,,,,,,,,,,,None,,136.75115823037922,None,136.75115823037922,None,2022-07-18-12:30:13.034296,136.76317610032856,137.06859240029007,136.76317610032856,None,None,136.76317610032856,None,137.56787023032084,None,,,,21006,0001,2022_Jul_18_1228,localizer,2021.1.3,59.56405062526309,
block,scenes,scenes074.bmp,,,,,0,7,7,7,,,,,,,,,,,,,,,,,,,,,,,,,,,,,,,,,,,,,,,,,,None,,137.56787023032084,None,137.56787023032084,None,2022-07-18-12:30:13.851014,137.57936470024288,137.88860320020467,137.57936470024288,None,None,137.57936470024288,None,138.3846493301913,None,,,,21006,0001,2022_Jul_18_1228,localizer,2021.1.3,59.56405062526309,
block,scenes,scenes044.bmp,,,,,0,8,8,8,,,,,,,,,,,,,,,,,,,,,,,,,,,,,,,,,,,,,,,,,,None,,138.3846493301913,None,138.3846493301913,None,2022-07-18-12:30:14.667728,138.39537610020489,138.70139429997653,138.39537610020489,None,None,138.39537610020489,None,139.2014341302216,None,,,,21006,0001,2022_Jul_18_1228,localizer,2021.1.3,59.56405062526309,
block,scenes,scenes039.bmp,,,,,0,9,9,9,,,,,,,,,,,,,,,,,,,,,,,,,,,,,,,,,,,,,,,,,,None,,139.2014341302216,None,139.2014341302216,None,2022-07-18-12:30:15.485571,139.2153201000765,139.5182051002048,139.2153201000765,None,None,139.2153201000765,None,140.01812523035332,None,,,,21006,0001,2022_Jul_18_1228,localizer,2021.1.3,59.56405062526309,
block,scenes,scenes001.bmp,,,,,0,10,10,10,,,,,,,,,,,,,,,,,,,,,,,,,,,,,,,,,,,,,,,,,,None,,140.01812523035332,None,140.01812523035332,None,2022-07-18-12:30:16.302052,140.03017880022526,140.33463790034875,140.03017880022526,None,None,140.03017880022526,None,140.8350815301761,None,,,,21006,0001,2022_Jul_18_1228,localizer,2021.1.3,59.56405062526309,
block,scenes,scenes015.bmp,,,,,0,11,11,11,,,,,,,,,,,,,,,,,,,,,,,,,,,,,,,,,,,,,,,,,,None,,140.8350815301761,None,140.8350815301761,None,2022-07-18-12:30:17.118152,140.8473407002166,141.15161870000884,140.8473407002166,None,None,140.8473407002166,None,141.65217803036793,None,,,,21006,0001,2022_Jul_18_1228,localizer,2021.1.3,59.56405062526309,
block,scenes,scenes042.bmp,,,,,0,12,12,12,,,,,,,,,,,,,,,,,,,,,,,,,,,,,,,,,,,,,,,,,,None,,141.65217803036793,None,141.65217803036793,None,2022-07-18-12:30:17.937794,141.66768390033394,141.96785220038146,141.66768390033394,None,None,141.66768390033394,None,142.46783203016966,None,,,,21006,0001,2022_Jul_18_1228,localizer,2021.1.3,59.56405062526309,
block,scenes,scenes021.bmp,,,,,0,13,13,13,,,,,,,,,,,,,,,,,,,,,,,,,,,,,,,,,,,,,,,,,,None,,142.46783203016966,None,142.46783203016966,None,2022-07-18-12:30:18.751254,142.47817550040781,142.7843876001425,142.47817550040781,None,None,142.47817550040781,None,143.2845830301754,None,,,,21006,0001,2022_Jul_18_1228,localizer,2021.1.3,59.56405062526309,
block_end,scenes,scenes077.bmp,,,,,0,14,14,14,,,,,,,,,,,,,,,,,,,,,,,,,,,,,,,,,,,,,,,,,,None,,143.2845830301754,None,143.2845830301754,None,2022-07-18-12:30:19.567746,143.29612429998815,143.60103710042313,143.29612429998815,None,None,143.29612429998815,None,144.10131093012168,None,,,,21006,0001,2022_Jul_18_1228,localizer,2021.1.3,59.56405062526309,
block_start,objects,objects032.bmp,,,,,0,15,15,15,,,,,,,,,,,,,,,,,,,,,,,,,,,,,,,,,,,,,,,,,,t,1.7288335002958775,144.10152940033004,None,144.10152940033004,None,2022-07-18-12:30:22.134197,145.86370530026034,146.16789520019665,145.86370530026034,None,None,145.86370530026034,None,146.66775703001767,None,,,,21006,0001,2022_Jul_18_1228,localizer,2021.1.3,59.56405062526309,
block,objects,objects082.bmp,,,,,0,16,16,16,,,,,,,,,,,,,,,,,,,,,,,,,,,,,,,,,,,,,,,,,,None,,146.66775703001767,None,146.66775703001767,None,2022-07-18-12:30:22.951561,146.6779940002598,146.9846842000261,146.6779940002598,None,None,146.6779940002598,None,147.4846416301094,None,,,,21006,0001,2022_Jul_18_1228,localizer,2021.1.3,59.56405062526309,
block,objects,objects052.bmp,,,,,0,17,17,17,,,,,,,,,,,,,,,,,,,,,,,,,,,,,,,,,,,,,,,,,,None,,147.4846416301094,None,147.4846416301094,None,2022-07-18-12:30:23.767787,147.49653770029545,147.80128840031102,147.49653770029545,None,None,147.49653770029545,None,148.30119342999532,None,,,,21006,0001,2022_Jul_18_1228,localizer,2021.1.3,59.56405062526309,
block,objects,objects050.bmp,,,,,0,18,18,18,,,,,,,,,,,,,,,,,,,,,,,,,,,,,,,,,,,,,,,,,,None,,148.30119342999532,None,148.30119342999532,None,2022-07-18-12:30:24.584138,148.3125296002254,148.61861230013892,148.3125296002254,None,None,148.3125296002254,None,149.11778353005647,None,,,,21006,0001,2022_Jul_18_1228,localizer,2021.1.3,59.56405062526309,
block,objects,objects078.bmp,,,,,0,19,19,19,,,,,,,,,,,,,,,,,,,,,,,,,,,,,,,,,,,,,,,,,,None,,149.11778353005647,None,149.11778353005647,None,2022-07-18-12:30:25.400945,149.1291154003702,149.43596320040524,149.1291154003702,None,None,149.1291154003702,None,149.92408433035015,None,,,,21006,0001,2022_Jul_18_1228,localizer,2021.1.3,59.56405062526309,
block,objects,objects037.bmp,,,,,0,20,20,20,,,,,,,,,,,,,,,,,,,,,,,,,,,,,,,,,,,,,,,,,,None,,149.92408433035015,None,149.92408433035015,None,2022-07-18-12:30:26.215728,149.9415117003955,150.2514086002484,149.9415117003955,None,None,149.9415117003955,None,150.7344925300218,None,,,,21006,0001,2022_Jul_18_1228,localizer,2021.1.3,59.56405062526309,
block,objects,objects030.bmp,,,,,0,21,21,21,,,,,,,,,,,,,,,,,,,,,,,,,,,,,,,,,,,,,,,,,,None,,150.7344925300218,None,150.7344925300218,None,2022-07-18-12:30:27.017861,150.74563620006666,151.0511767002754,150.74563620006666,None,None,150.74563620006666,None,151.5515069304034,None,,,,21006,0001,2022_Jul_18_1228,localizer,2021.1.3,59.56405062526309,
block,objects,objects045.bmp,,,,,0,22,22,22,,,,,,,,,,,,,,,,,,,,,,,,,,,,,,,,,,,,,,,,,,None,,151.5515069304034,None,151.5515069304034,None,2022-07-18-12:30:27.834743,151.5563890002668,151.8679035003297,151.5563890002668,None,None,151.5563890002668,None,152.3681785300374,None,,,,21006,0001,2022_Jul_18_1228,localizer,2021.1.3,59.56405062526309,
block,objects,objects084.bmp,,,,,0,23,23,23,,,,,,,,,,,,,,,,,,,,,,,,,,,,,,,,,,,,,,,,,,None,,152.3681785300374,None,152.3681785300374,None,2022-07-18-12:30:28.652212,152.37987050041556,152.68448470020667,152.37987050041556,None,None,152.37987050041556,None,153.18464103005826,None,,,,21006,0001,2022_Jul_18_1228,localizer,2021.1.3,59.56405062526309,
block,objects,objects054.bmp,,,,,0,24,24,24,,,,,,,,,,,,,,,,,,,,,,,,,,,,,,,,,,,,,,,,,,None,,153.18464103005826,None,153.18464103005826,None,2022-07-18-12:30:29.467574,153.1960440003313,153.5019615003839,153.1960440003313,None,None,153.1960440003313,None,153.99092442998662,None,,,,21006,0001,2022_Jul_18_1228,localizer,2021.1.3,59.56405062526309,
block,objects,objects001.bmp,,,,,0,25,25,25,,,,,,,,,,,,,,,,,,,,,,,,,,,,,,,,,,,,,,,,,,None,,153.99092442998662,None,153.99092442998662,None,2022-07-18-12:30:30.279763,154.00249330000952,154.31805750029162,154.00249330000952,None,None,154.00249330000952,None,154.8012135302648,None,,,,21006,0001,2022_Jul_18_1228,localizer,2021.1.3,59.56405062526309,
block,objects,objects046.bmp,,,,,0,26,26,26,,,,,,,,,,,,,,,,,,,,,,,,,,,,,,,,,,,,,,,,,,None,,154.8012135302648,None,154.8012135302648,None,2022-07-18-12:30:31.084146,154.81131470017135,155.11845460021868,154.81131470017135,None,None,154.81131470017135,None,155.6188285303302,None,,,,21006,0001,2022_Jul_18_1228,localizer,2021.1.3,59.56405062526309,
block,objects,objects031.bmp,,,,,0,27,27,27,,,,,,,,,,,,,,,,,,,,,,,,,,,,,,,,,,,,,,,,,,None,,155.6188285303302,None,155.6188285303302,None,2022-07-18-12:30:31.905603,155.634495400358,155.93478790018708,155.634495400358,None,None,155.634495400358,None,156.43435263019055,None,,,,21006,0001,2022_Jul_18_1228,localizer,2021.1.3,59.56405062526309,
block,objects,objects019.bmp,,,,,0,28,28,28,,,,,,,,,,,,,,,,,,,,,,,,,,,,,,,,,,,,,,,,,,None,,156.43435263019055,None,156.43435263019055,None,2022-07-18-12:30:32.717298,156.4439644003287,156.75126900011674,156.4439644003287,None,None,156.4439644003287,None,157.25191663010045,None,,,,21006,0001,2022_Jul_18_1228,localizer,2021.1.3,59.56405062526309,
block_end,objects,objects070.bmp,,,,,0,29,29,29,,,,,,,,,,,,,,,,,,,,,,,,,,,,,,,,,,,,,,,,,,None,,157.25191663010045,None,157.25191663010045,None,2022-07-18-12:30:33.536019,157.26465920032933,157.5678999000229,157.26465920032933,None,None,157.26465920032933,None,158.06775633003562,None,,,,21006,0001,2022_Jul_18_1228,localizer,2021.1.3,59.56405062526309,
block_start,faces,faces015.bmp,,,,,0,30,30,30,,,,,,,,,,,,,,,,,,,,,,,,,,,,,,,,,,,,,,,,,,t,1.7623926000669599,158.06794400000945,None,158.06794400000945,None,2022-07-18-12:30:36.134062,159.8695050003007,160.16854090010747,159.8695050003007,None,None,159.8695050003007,None,160.66832203036174,None,,,,21006,0001,2022_Jul_18_1228,localizer,2021.1.3,59.56405062526309,
block,faces,faces023.bmp,,,,,0,31,31,31,,,,,,,,,,,,,,,,,,,,,,,,,,,,,,,,,,,,,,,,,,None,,160.66832203036174,None,160.66832203036174,None,2022-07-18-12:30:36.952546,160.68140110000968,160.98682260001078,160.68140110000968,None,None,160.68140110000968,None,161.48436283031478,None,,,,21006,0001,2022_Jul_18_1228,localizer,2021.1.3,59.56405062526309,
block,faces,faces034.bmp,,,,,0,32,32,32,,,,,,,,,,,,,,,,,,,,,,,,,,,,,,,,,,,,,,,,,,None,,161.48436283031478,None,161.48436283031478,None,2022-07-18-12:30:37.767300,161.49465800030157,161.8013345003128,161.49465800030157,None,None,161.49465800030157,None,162.3018444300629,None,,,,21006,0001,2022_Jul_18_1228,localizer,2021.1.3,59.56405062526309,
block,faces,faces053.bmp,,,,,0,33,33,33,,,,,,,,,,,,,,,,,,,,,,,,,,,,,,,,,,,,,,,,,,None,,162.3018444300629,None,162.3018444300629,None,2022-07-18-12:30:38.585879,162.3145649000071,162.61803250014782,162.3145649000071,None,None,162.3145649000071,None,163.1178945302032,None,,,,21006,0001,2022_Jul_18_1228,localizer,2021.1.3,59.56405062526309,
block,faces,faces046.bmp,,,,,0,34,34,34,,,,,,,,,,,,,,,,,,,,,,,,,,,,,,,,,,,,,,,,,,None,,163.1178945302032,None,163.1178945302032,None,2022-07-18-12:30:39.401042,163.13058490026742,163.43448760034516,163.13058490026742,None,None,163.13058490026742,None,163.92388263009488,None,,,,21006,0001,2022_Jul_18_1228,localizer,2021.1.3,59.56405062526309,
block,faces,faces006.bmp,,,,,0,35,35,35,,,,,,,,,,,,,,,,,,,,,,,,,,,,,,,,,,,,,,,,,,None,,163.92388263009488,None,163.92388263009488,None,2022-07-18-12:30:40.214766,163.9447561004199,164.25150080025196,163.9447561004199,None,None,163.9447561004199,None,164.73486882997676,None,,,,21006,0001,2022_Jul_18_1228,localizer,2021.1.3,59.56405062526309,
block,faces,faces082.bmp,,,,,0,36,36,36,,,,,,,,,,,,,,,,,,,,,,,,,,,,,,,,,,,,,,,,,,None,,164.73486882997676,None,164.73486882997676,None,2022-07-18-12:30:41.018845,164.74782430008054,165.05182280018926,164.74782430008054,None,None,164.74782430008054,None,165.5517881302163,None,,,,21006,0001,2022_Jul_18_1228,localizer,2021.1.3,59.56405062526309,
block,faces,faces011.bmp,,,,,0,37,37,37,,,,,,,,,,,,,,,,,,,,,,,,,,,,,,,,,,,,,,,,,,None,,165.5517881302163,None,165.5517881302163,None,2022-07-18-12:30:41.835625,165.56449670018628,165.86800280027092,165.56449670018628,None,None,165.56449670018628,None,166.36766063040122,None,,,,21006,0001,2022_Jul_18_1228,localizer,2021.1.3,59.56405062526309,
block,faces,faces062.bmp,,,,,0,38,38,38,,,,,,,,,,,,,,,,,,,,,,,,,,,,,,,,,,,,,,,,,,None,,166.36766063040122,None,166.36766063040122,None,2022-07-18-12:30:42.650603,166.37728290027007,166.68458200013265,166.37728290027007,None,None,166.37728290027007,None,167.1847629304044,None,,,,21006,0001,2022_Jul_18_1228,localizer,2021.1.3,59.56405062526309,
block,faces,faces014.bmp,,,,,0,39,39,39,,,,,,,,,,,,,,,,,,,,,,,,,,,,,,,,,,,,,,,,,,None,,167.1847629304044,None,167.1847629304044,None,2022-07-18-12:30:43.467701,167.19576470041648,167.5015051001683,167.19576470041648,None,None,167.19576470041648,None,168.00145703032612,None,,,,21006,0001,2022_Jul_18_1228,localizer,2021.1.3,59.56405062526309,
block,faces,faces052.bmp,,,,,0,40,40,40,,,,,,,,,,,,,,,,,,,,,,,,,,,,,,,,,,,,,,,,,,None,,168.00145703032612,None,168.00145703032612,None,2022-07-18-12:30:44.285595,168.01353820040822,168.31839850032702,168.01353820040822,None,None,168.01353820040822,None,168.81765812998637,None,,,,21006,0001,2022_Jul_18_1228,localizer,2021.1.3,59.56405062526309,
block,faces,faces078.bmp,,,,,0,41,41,41,,,,,,,,,,,,,,,,,,,,,,,,,,,,,,,,,,,,,,,,,,None,,168.81765812998637,None,168.81765812998637,None,2022-07-18-12:30:45.100878,168.82692770007998,169.13455260032788,168.82692770007998,None,None,168.82692770007998,None,169.63572793025523,None,,,,21006,0001,2022_Jul_18_1228,localizer,2021.1.3,59.56405062526309,
block,faces,faces065.bmp,,,,,0,42,42,42,,,,,,,,,,,,,,,,,,,,,,,,,,,,,,,,,,,,,,,,,,None,,169.63572793025523,None,169.63572793025523,None,2022-07-18-12:30:45.918826,169.651752400212,169.95135540002957,169.651752400212,None,None,169.651752400212,None,170.44118443029,None,,,,21006,0001,2022_Jul_18_1228,localizer,2021.1.3,59.56405062526309,
block,faces,faces028.bmp,,,,,0,43,43,43,,,,,,,,,,,,,,,,,,,,,,,,,,,,,,,,,,,,,,,,,,None,,170.44118443029,None,170.44118443029,None,2022-07-18-12:30:46.730096,170.46062130015343,170.7679820000194,170.46062130015343,None,None,170.46062130015343,None,171.251980930008,None,,,,21006,0001,2022_Jul_18_1228,localizer,2021.1.3,59.56405062526309,
block_end,faces,faces028.bmp,,,,,0,44,44,44,,,,,,,,,,,,,,,,,,,,,,,,,,,,,,,,,,,,,,,,,,None,,171.251980930008,None,171.251980930008,None,2022-07-18-12:30:47.536901,171.2552877003327,171.56891610007733,171.2552877003327,None,y,171.2552877003327,None,172.06867713006213,None,0.704611100256443,,,21006,0001,2022_Jul_18_1228,localizer,2021.1.3,59.56405062526309,
null_block,null_block,null_block.bmp,,,,,0,45,45,45,,,,,,,,,,,,,,,,,,,,,,,,,,,,,,,,,,,,,,,,,,t,1.7613742002286017,172.06892590038478,None,172.06892590038478,None,2022-07-18-12:30:50.133610,173.8678350600414,None,173.8678350600414,None,None,173.8678350600414,None,173.86621410027146,None,,,,21006,0001,2022_Jul_18_1228,localizer,2021.1.3,59.56405062526309,
block_start,scrambled,scrambled005.bmp,,,,,0,46,46,46,,,,,,,,,,,,,,,,,,,,,,,,,,,,,,,,,,,,,,,,,,t,1.9610723997466266,185.86811440018937,None,185.86811440018937,None,2022-07-18-12:31:04.134448,187.8623021002859,188.16819680016488,187.8623021002859,None,None,187.8623021002859,None,188.66768643017858,None,,,,21006,0001,2022_Jul_18_1228,localizer,2021.1.3,59.56405062526309,
block,scrambled,scrambled017.bmp,,,,,0,47,47,47,,,,,,,,,,,,,,,,,,,,,,,,,,,,,,,,,,,,,,,,,,None,,188.66768643017858,None,188.66768643017858,None,2022-07-18-12:31:04.950609,188.6772584002465,188.98483460024,188.6772584002465,None,None,188.6772584002465,None,189.48436303008347,None,,,,21006,0001,2022_Jul_18_1228,localizer,2021.1.3,59.56405062526309,
block,scrambled,scrambled076.bmp,,,,,0,48,48,48,,,,,,,,,,,,,,,,,,,,,,,,,,,,,,,,,,,,,,,,,,None,,189.48436303008347,None,189.48436303008347,None,2022-07-18-12:31:05.767494,189.49003580026329,189.8015265003778,189.49003580026329,None,None,189.49003580026329,None,190.29054043013602,None,,,,21006,0001,2022_Jul_18_1228,localizer,2021.1.3,59.56405062526309,
block,scrambled,scrambled036.bmp,,,,,0,49,49,49,,,,,,,,,,,,,,,,,,,,,,,,,,,,,,,,,,,,,,,,,,None,,190.29054043013602,None,190.29054043013602,None,2022-07-18-12:31:06.577420,190.30395980039611,190.6186383999884,190.30395980039611,None,None,190.30395980039611,None,191.10132383033633,None,,,,21006,0001,2022_Jul_18_1228,localizer,2021.1.3,59.56405062526309,
block,scrambled,scrambled038.bmp,,,,,0,50,50,50,,,,,,,,,,,,,,,,,,,,,,,,,,,,,,,,,,,,,,,,,,None,,191.10132383033633,None,191.10132383033633,None,2022-07-18-12:31:07.384264,191.1129789003171,191.41844690032303,191.1129789003171,None,None,191.1129789003171,None,191.91768443016335,None,,,,21006,0001,2022_Jul_18_1228,localizer,2021.1.3,59.56405062526309,
block,scrambled,scrambled081.bmp,,,,,0,51,51,51,,,,,,,,,,,,,,,,,,,,,,,,,,,,,,,,,,,,,,,,,,None,,191.91768443016335,None,191.91768443016335,None,2022-07-18-12:31:08.200527,191.92857690015808,192.2349145002663,191.92857690015808,None,y,191.92857690015808,None,192.73442313019186,None,0.66376500017941,,,21006,0001,2022_Jul_18_1228,localizer,2021.1.3,59.56405062526309,
block,scrambled,scrambled074.bmp,,,,,0,52,52,52,,,,,,,,,,,,,,,,,,,,,,,,,,,,,,,,,,,,,,,,,,None,,192.73442313019186,None,192.73442313019186,None,2022-07-18-12:31:09.017366,192.74396870005876,193.05155310034752,192.74396870005876,None,None,192.74396870005876,None,193.5514802303165,None,,,,21006,0001,2022_Jul_18_1228,localizer,2021.1.3,59.56405062526309,
block,scrambled,scrambled088.bmp,,,,,0,53,53,53,,,,,,,,,,,,,,,,,,,,,,,,,,,,,,,,,,,,,,,,,,None,,193.5514802303165,None,193.5514802303165,None,2022-07-18-12:31:09.834522,193.56292450008914,193.86838200036436,193.56292450008914,None,None,193.56292450008914,None,194.36788093009963,None,,,,21006,0001,2022_Jul_18_1228,localizer,2021.1.3,59.56405062526309,
block,scrambled,scrambled064.bmp,,,,,0,54,54,54,,,,,,,,,,,,,,,,,,,,,,,,,,,,,,,,,,,,,,,,,,None,,194.36788093009963,None,194.36788093009963,None,2022-07-18-12:31:10.651237,194.37856640014797,194.68541220016778,194.37856640014797,None,None,194.37856640014797,None,195.18465503016486,None,,,,21006,0001,2022_Jul_18_1228,localizer,2021.1.3,59.56405062526309,
block,scrambled,scrambled007.bmp,,,,,0,55,55,55,,,,,,,,,,,,,,,,,,,,,,,,,,,,,,,,,,,,,,,,,,None,,195.18465503016486,None,195.18465503016486,None,2022-07-18-12:31:11.467815,195.19532110029832,195.50181160029024,195.19532110029832,None,None,195.19532110029832,None,196.00164993004873,None,,,,21006,0001,2022_Jul_18_1228,localizer,2021.1.3,59.56405062526309,
block,scrambled,scrambled035.bmp,,,,,0,56,56,56,,,,,,,,,,,,,,,,,,,,,,,,,,,,,,,,,,,,,,,,,,None,,196.00164993004873,None,196.00164993004873,None,2022-07-18-12:31:12.285582,196.0125961001031,196.31841900013387,196.0125961001031,None,None,196.0125961001031,None,196.81905153011903,None,,,,21006,0001,2022_Jul_18_1228,localizer,2021.1.3,59.56405062526309,
block,scrambled,scrambled083.bmp,,,,,0,57,57,57,,,,,,,,,,,,,,,,,,,,,,,,,,,,,,,,,,,,,,,,,,None,,196.81905153011903,None,196.81905153011903,None,2022-07-18-12:31:13.104149,196.83279500016943,197.13475099997595,196.83279500016943,None,None,196.83279500016943,None,197.63470042999833,None,,,,21006,0001,2022_Jul_18_1228,localizer,2021.1.3,59.56405062526309,
block,scrambled,scrambled066.bmp,,,,,0,58,58,58,,,,,,,,,,,,,,,,,,,,,,,,,,,,,,,,,,,,,,,,,,None,,197.63470042999833,None,197.63470042999833,None,2022-07-18-12:31:13.917782,197.6445471001789,197.95588570041582,197.6445471001789,None,None,197.6445471001789,None,198.44176872996613,None,,,,21006,0001,2022_Jul_18_1228,localizer,2021.1.3,59.56405062526309,
block,scrambled,scrambled030.bmp,,,,,0,59,59,59,,,,,,,,,,,,,,,,,,,,,,,,,,,,,,,,,,,,,,,,,,None,,198.44176872996613,None,198.44176872996613,None,2022-07-18-12:31:14.729686,198.45932570006698,198.76830930029973,198.45932570006698,None,None,198.45932570006698,None,199.25148133039474,None,,,,21006,0001,2022_Jul_18_1228,localizer,2021.1.3,59.56405062526309,
block_end,scrambled,scrambled019.bmp,,,,,0,60,60,60,,,,,,,,,,,,,,,,,,,,,,,,,,,,,,,,,,,,,,,,,,None,,199.25148133039474,None,199.25148133039474,None,2022-07-18-12:31:15.534785,199.2626733002253,199.56872700015083,199.2626733002253,None,None,199.2626733002253,None,200.06815733006223,None,,,,21006,0001,2022_Jul_18_1228,localizer,2021.1.3,59.56405062526309,
null_block,null_block,null_block.bmp,,,,,0,61,61,61,,,,,,,,,,,,,,,,,,,,,,,,,,,,,,,,,,,,,,,,,,t,1.761024700012058,200.06828090036288,None,200.06828090036288,None,2022-07-18-12:31:18.136056,201.85213243020698,None,201.85213243020698,None,None,201.85213243020698,None,201.85912939999253,None,,,,21006,0001,2022_Jul_18_1228,localizer,2021.1.3,59.56405062526309,
block_start,scenes,scenes042.bmp,,,,,0,62,62,62,,,,,,,,,,,,,,,,,,,,,,,,,,,,,,,,,,,,,,,,,,t,1.9598988997749984,213.86928690038621,None,213.86928690038621,None,2022-07-18-12:31:32.138284,215.85547200031579,216.16891550039873,215.85547200031579,None,None,215.85547200031579,None,216.66856673024594,None,,,,21006,0001,2022_Jul_18_1228,localizer,2021.1.3,59.56405062526309,
block,scenes,scenes050.bmp,,,,,0,63,63,63,,,,,,,,,,,,,,,,,,,,,,,,,,,,,,,,,,,,,,,,,,None,,216.66856673024594,None,216.66856673024594,None,2022-07-18-12:31:32.952842,216.67747960006818,216.98480450036004,216.67747960006818,None,None,216.67747960006818,None,217.48487453013658,None,,,,21006,0001,2022_Jul_18_1228,localizer,2021.1.3,59.56405062526309,
block,scenes,scenes037.bmp,,,,,0,64,64,64,,,,,,,,,,,,,,,,,,,,,,,,,,,,,,,,,,,,,,,,,,None,,217.48487453013658,None,217.48487453013658,None,2022-07-18-12:31:33.768003,217.48584390012547,217.80178920039907,217.48584390012547,None,None,217.48584390012547,None,218.28517663003876,None,,,,21006,0001,2022_Jul_18_1228,localizer,2021.1.3,59.56405062526309,
block,scenes,scenes078.bmp,,,,,0,65,65,65,,,,,,,,,,,,,,,,,,,,,,,,,,,,,,,,,,,,,,,,,,None,,218.28517663003876,None,218.28517663003876,None,2022-07-18-12:31:34.571635,218.30148180015385,218.60145610012114,218.30148180015385,218.30148180015385,None,218.30148180015385,218.30148180015385,219.10096693029627,None,,,,21006,0001,2022_Jul_18_1228,localizer,2021.1.3,59.56405062526309,
block,scenes,scenes076.bmp,,,,,0,66,66,66,,,,,,,,,,,,,,,,,,,,,,,,,,,,,,,,,,,,,,,,,,None,,219.10096693029627,None,219.10096693029627,None,2022-07-18-12:31:35.384065,219.10976770007983,219.41800600010902,219.10976770007983,None,None,219.10976770007983,None,219.91785523006692,None,,,,21006,0001,2022_Jul_18_1228,localizer,2021.1.3,59.56405062526309,
block,scenes,scenes080.bmp,,,,,0,67,67,67,,,,,,,,,,,,,,,,,,,,,,,,,,,,,,,,,,,,,,,,,,None,,219.91785523006692,None,219.91785523006692,None,2022-07-18-12:31:36.200801,219.92305110022426,220.23485440015793,219.92305110022426,None,None,219.92305110022426,None,220.7348320301622,None,,,,21006,0001,2022_Jul_18_1228,localizer,2021.1.3,59.56405062526309,
block,scenes,scenes087.bmp,,,,,0,68,68,68,,,,,,,,,,,,,,,,,,,,,,,,,,,,,,,,,,,,,,,,,,None,,220.7348320301622,None,220.7348320301622,None,2022-07-18-12:31:37.017770,220.74621870042756,221.05393430031836,220.74621870042756,None,None,220.74621870042756,None,221.5514469304122,None,,,,21006,0001,2022_Jul_18_1228,localizer,2021.1.3,59.56405062526309,
block,scenes,scenes062.bmp,,,,,0,69,69,69,,,,,,,,,,,,,,,,,,,,,,,,,,,,,,,,,,,,,,,,,,None,,221.5514469304122,None,221.5514469304122,None,2022-07-18-12:31:37.834387,221.56320470012724,221.86808790033683,221.56320470012724,None,None,221.56320470012724,None,222.36832253020256,None,,,,21006,0001,2022_Jul_18_1228,localizer,2021.1.3,59.56405062526309,
block,scenes,scenes058.bmp,,,,,0,70,70,70,,,,,,,,,,,,,,,,,,,,,,,,,,,,,,,,,,,,,,,,,,None,,222.36832253020256,None,222.36832253020256,None,2022-07-18-12:31:38.652460,222.3796947002411,222.6854966999963,222.3796947002411,None,None,222.3796947002411,None,223.18491583028808,None,,,,21006,0001,2022_Jul_18_1228,localizer,2021.1.3,59.56405062526309,
block,scenes,scenes068.bmp,,,,,0,71,71,71,,,,,,,,,,,,,,,,,,,,,,,,,,,,,,,,,,,,,,,,,,None,,223.18491583028808,None,223.18491583028808,None,2022-07-18-12:31:39.469024,223.19693280011415,223.50135650020093,223.19693280011415,None,None,223.19693280011415,None,224.00136063005775,None,,,,21006,0001,2022_Jul_18_1228,localizer,2021.1.3,59.56405062526309,
block,scenes,scenes008.bmp,,,,,0,72,72,72,,,,,,,,,,,,,,,,,,,,,,,,,,,,,,,,,,,,,,,,,,None,,224.00136063005775,None,224.00136063005775,None,2022-07-18-12:31:40.284516,224.00936320004985,224.31764060026035,224.00936320004985,None,None,224.00936320004985,None,224.82160203009843,None,,,,21006,0001,2022_Jul_18_1228,localizer,2021.1.3,59.56405062526309,
block,scenes,scenes004.bmp,,,,,0,73,73,73,,,,,,,,,,,,,,,,,,,,,,,,,,,,,,,,,,,,,,,,,,None,,224.82160203009843,None,224.82160203009843,None,2022-07-18-12:31:41.112599,224.84837100002915,225.15150600019842,224.84837100002915,None,None,224.84837100002915,None,225.6359150301665,None,,,,21006,0001,2022_Jul_18_1228,localizer,2021.1.3,59.56405062526309,
block,scenes,scenes057.bmp,,,,,0,74,74,74,,,,,,,,,,,,,,,,,,,,,,,,,,,,,,,,,,,,,,,,,,None,,225.6359150301665,None,225.6359150301665,None,2022-07-18-12:31:41.921012,225.63858250016347,225.9513262002729,225.63858250016347,None,None,225.63858250016347,None,226.45140372999012,None,,,,21006,0001,2022_Jul_18_1228,localizer,2021.1.3,59.56405062526309,
block,scenes,scenes012.bmp,,,,,0,75,75,75,,,,,,,,,,,,,,,,,,,,,,,,,,,,,,,,,,,,,,,,,,None,,226.45140372999012,None,226.45140372999012,None,2022-07-18-12:31:42.734341,226.4628400001675,226.76797570008785,226.4628400001675,None,None,226.4628400001675,None,227.26813073027878,None,,,,21006,0001,2022_Jul_18_1228,localizer,2021.1.3,59.56405062526309,
block_end,scenes,scenes021.bmp,,,,,0,76,76,76,,,,,,,,,,,,,,,,,,,,,,,,,,,,,,,,,,,,,,,,,,None,,227.26813073027878,None,227.26813073027878,None,2022-07-18-12:31:43.551269,227.2691261,227.58481390029192,227.2691261,None,None,227.2691261,None,228.06820003027096,None,,,,21006,0001,2022_Jul_18_1228,localizer,2021.1.3,59.56405062526309,
block_start,scrambled,scrambled040.bmp,,,,,0,77,77,77,,,,,,,,,,,,,,,,,,,,,,,,,,,,,,,,,,,,,,,,,,t,1.7610256001353264,228.06827140040696,None,228.06827140040696,None,2022-07-18-12:31:46.135914,229.8651907001622,230.16808250034228,229.8651907001622,None,None,229.8651907001622,None,230.66923843035474,None,,,,21006,0001,2022_Jul_18_1228,localizer,2021.1.3,59.56405062526309,
block,scrambled,scrambled021.bmp,,,,,0,78,78,78,,,,,,,,,,,,,,,,,,,,,,,,,,,,,,,,,,,,,,,,,,None,,230.66923843035474,None,230.66923843035474,None,2022-07-18-12:31:46.953761,230.68335349997506,230.98431160021573,230.68335349997506,None,y,230.68335349997506,None,231.48598003005608,None,0.46941780019551516,,,21006,0001,2022_Jul_18_1228,localizer,2021.1.3,59.56405062526309,
block,scrambled,scrambled063.bmp,,,,,0,79,79,79,,,,,,,,,,,,,,,,,,,,,,,,,,,,,,,,,,,,,,,,,,None,,231.48598003005608,None,231.48598003005608,None,2022-07-18-12:31:47.771894,231.50132460007444,231.8013896001503,231.50132460007444,None,None,231.50132460007444,None,232.301667830348,None,,,,21006,0001,2022_Jul_18_1228,localizer,2021.1.3,59.56405062526309,
block,scrambled,scrambled014.bmp,,,,,0,80,80,80,,,,,,,,,,,,,,,,,,,,,,,,,,,,,,,,,,,,,,,,,,None,,232.301667830348,None,232.301667830348,None,2022-07-18-12:31:48.585804,232.31342790042982,232.6183226001449,232.31342790042982,None,None,232.31342790042982,None,233.11809823000803,None,,,,21006,0001,2022_Jul_18_1228,localizer,2021.1.3,59.56405062526309,
block,scrambled,scrambled066.bmp,,,,,0,81,81,81,,,,,,,,,,,,,,,,,,,,,,,,,,,,,,,,,,,,,,,,,,None,,233.11809823000803,None,233.11809823000803,None,2022-07-18-12:31:49.401644,233.11920940037817,233.42481640027836,233.11920940037817,None,None,233.11920940037817,None,233.9192337299697,None,,,,21006,0001,2022_Jul_18_1228,localizer,2021.1.3,59.56405062526309,
block,scrambled,scrambled015.bmp,,,,,0,82,82,82,,,,,,,,,,,,,,,,,,,,,,,,,,,,,,,,,,,,,,,,,,None,,233.9192337299697,None,233.9192337299697,None,2022-07-18-12:31:50.208139,233.93592070043087,234.23613350000232,233.93592070043087,233.93592070043087,None,233.93592070043087,233.93592070043087,234.73498943019658,None,,,,21006,0001,2022_Jul_18_1228,localizer,2021.1.3,59.56405062526309,
block,scrambled,scrambled068.bmp,,,,,0,83,83,83,,,,,,,,,,,,,,,,,,,,,,,,,,,,,,,,,,,,,,,,,,None,,234.73498943019658,None,234.73498943019658,None,2022-07-18-12:31:51.017936,234.7456136001274,235.05147310020402,234.7456136001274,None,None,234.7456136001274,None,235.55143393008038,None,,,,21006,0001,2022_Jul_18_1228,localizer,2021.1.3,59.56405062526309,
block,scrambled,scrambled039.bmp,,,,,0,84,84,84,,,,,,,,,,,,,,,,,,,,,,,,,,,,,,,,,,,,,,,,,,None,,235.55143393008038,None,235.55143393008038,None,2022-07-18-12:31:51.834375,235.56169400038198,235.86836120020598,235.56169400038198,None,None,235.56169400038198,None,236.3679293300025,None,,,,21006,0001,2022_Jul_18_1228,localizer,2021.1.3,59.56405062526309,
block,scrambled,scrambled004.bmp,,,,,0,85,85,85,,,,,,,,,,,,,,,,,,,,,,,,,,,,,,,,,,,,,,,,,,None,,236.3679293300025,None,236.3679293300025,None,2022-07-18-12:31:52.651278,236.377333200071,236.6848966004327,236.377333200071,None,None,236.377333200071,None,237.18483393024653,None,,,,21006,0001,2022_Jul_18_1228,localizer,2021.1.3,59.56405062526309,
block,scrambled,scrambled004.bmp,,,,,0,86,86,86,,,,,,,,,,,,,,,,,,,,,,,,,,,,,,,,,,,,,,,,,,None,,237.18483393024653,None,237.18483393024653,None,2022-07-18-12:31:53.467978,237.1860281000845,237.50188260013238,237.1860281000845,None,y,237.1860281000845,None,238.00140853030607,None,0.6107797999866307,,,21006,0001,2022_Jul_18_1228,localizer,2021.1.3,59.56405062526309,
block,scrambled,scrambled064.bmp,,,,,0,87,87,87,,,,,,,,,,,,,,,,,,,,,,,,,,,,,,,,,,,,,,,,,,None,,238.00140853030607,None,238.00140853030607,None,2022-07-18-12:31:54.284352,238.00261490000412,238.31838290020823,238.00261490000412,None,None,238.00261490000412,None,238.80774852996691,None,,,,21006,0001,2022_Jul_18_1228,localizer,2021.1.3,59.56405062526309,
block,scrambled,scrambled011.bmp,,,,,0,88,88,88,,,,,,,,,,,,,,,,,,,,,,,,,,,,,,,,,,,,,,,,,,None,,238.80774852996691,None,238.80774852996691,None,2022-07-18-12:31:55.094739,238.8229733002372,239.13491170015186,238.8229733002372,None,None,238.8229733002372,None,239.61802473003044,None,,,,21006,0001,2022_Jul_18_1228,localizer,2021.1.3,59.56405062526309,
block,scrambled,scrambled070.bmp,,,,,0,89,89,89,,,,,,,,,,,,,,,,,,,,,,,,,,,,,,,,,,,,,,,,,,None,,239.61802473003044,None,239.61802473003044,None,2022-07-18-12:31:55.901218,239.62779540009797,239.9382367003709,239.62779540009797,None,None,239.62779540009797,None,240.42431643037125,None,,,,21006,0001,2022_Jul_18_1228,localizer,2021.1.3,59.56405062526309,
block,scrambled,scrambled012.bmp,,,,,0,90,90,90,,,,,,,,,,,,,,,,,,,,,,,,,,,,,,,,,,,,,,,,,,None,,240.42431643037125,None,240.42431643037125,None,2022-07-18-12:31:56.714229,240.44274009997025,240.75154080009088,240.44274009997025,None,None,240.44274009997025,None,241.23540692999958,None,,,,21006,0001,2022_Jul_18_1228,localizer,2021.1.3,59.56405062526309,
block_end,scrambled,scrambled054.bmp,,,,,0,91,91,91,,,,,,,,,,,,,,,,,,,,,,,,,,,,,,,,,,,,,,,,,,None,,241.23540692999958,None,241.23540692999958,None,2022-07-18-12:31:57.519528,241.24798360001296,241.55151060037315,241.24798360001296,None,None,241.24798360001296,None,242.05200583012774,None,,,,21006,0001,2022_Jul_18_1228,localizer,2021.1.3,59.56405062526309,
block_start,faces,faces036.bmp,,,,,0,92,92,92,,,,,,,,,,,,,,,,,,,,,,,,,,,,,,,,,,,,,,,,,,t,1.776823699939996,242.0522726001218,None,242.0522726001218,None,2022-07-18-12:32:00.133479,243.86041310010478,244.1686185002327,243.86041310010478,None,None,243.86041310010478,None,244.66850063009187,None,,,,21006,0001,2022_Jul_18_1228,localizer,2021.1.3,59.56405062526309,
block,faces,faces010.bmp,,,,,0,93,93,93,,,,,,,,,,,,,,,,,,,,,,,,,,,,,,,,,,,,,,,,,,None,,244.66850063009187,None,244.66850063009187,None,2022-07-18-12:32:00.952417,244.6805201000534,244.98520470038056,244.6805201000534,None,None,244.6805201000534,None,245.48685542996972,None,,,,21006,0001,2022_Jul_18_1228,localizer,2021.1.3,59.56405062526309,
block,faces,faces013.bmp,,,,,0,94,94,94,,,,,,,,,,,,,,,,,,,,,,,,,,,,,,,,,,,,,,,,,,None,,245.48685542996972,None,245.48685542996972,None,2022-07-18-12:32:01.774739,245.5033576004207,245.81837920006365,245.5033576004207,None,None,245.5033576004207,None,246.30174913015216,None,,,,21006,0001,2022_Jul_18_1228,localizer,2021.1.3,59.56405062526309,
block,faces,faces016.bmp,,,,,0,95,95,95,,,,,,,,,,,,,,,,,,,,,,,,,,,,,,,,,,,,,,,,,,None,,246.30174913015216,None,246.30174913015216,None,2022-07-18-12:32:02.584906,246.31389470025897,246.61899570003152,246.31389470025897,None,None,246.31389470025897,None,247.11881063031032,None,,,,21006,0001,2022_Jul_18_1228,localizer,2021.1.3,59.56405062526309,
block,faces,faces006.bmp,,,,,0,96,96,96,,,,,,,,,,,,,,,,,,,,,,,,,,,,,,,,,,,,,,,,,,None,,247.11881063031032,None,247.11881063031032,None,2022-07-18-12:32:03.402931,247.12115280004218,247.43503500008956,247.12115280004218,None,None,247.12115280004218,None,247.92514923019334,None,,,,21006,0001,2022_Jul_18_1228,localizer,2021.1.3,59.56405062526309,
block,faces,faces085.bmp,,,,,0,97,97,97,,,,,,,,,,,,,,,,,,,,,,,,,,,,,,,,,,,,,,,,,,None,,247.92514923019334,None,247.92514923019334,None,2022-07-18-12:32:04.215067,247.94438020000234,248.25182190025225,247.94438020000234,None,None,247.94438020000234,None,248.7350233303383,None,,,,21006,0001,2022_Jul_18_1228,localizer,2021.1.3,59.56405062526309,
block,faces,faces022.bmp,,,,,0,98,98,98,,,,,,,,,,,,,,,,,,,,,,,,,,,,,,,,,,,,,,,,,,None,,248.7350233303383,None,248.7350233303383,None,2022-07-18-12:32:05.017960,248.74628410022706,249.0516840000637,248.74628410022706,None,None,248.74628410022706,None,249.551438030228,None,,,,21006,0001,2022_Jul_18_1228,localizer,2021.1.3,59.56405062526309,
block,faces,faces041.bmp,,,,,0,99,99,99,,,,,,,,,,,,,,,,,,,,,,,,,,,,,,,,,,,,,,,,,,None,,249.551438030228,None,249.551438030228,None,2022-07-18-12:32:05.834382,249.56177810020745,249.8683381001465,249.56177810020745,None,None,249.56177810020745,None,250.36803173031657,None,,,,21006,0001,2022_Jul_18_1228,localizer,2021.1.3,59.56405062526309,
block,faces,faces005.bmp,,,,,0,100,100,100,,,,,,,,,,,,,,,,,,,,,,,,,,,,,,,,,,,,,,,,,,None,,250.36803173031657,None,250.36803173031657,None,2022-07-18-12:32:06.650982,250.37739210017025,250.68533590016887,250.37739210017025,None,None,250.37739210017025,None,251.18460593037307,None,,,,21006,0001,2022_Jul_18_1228,localizer,2021.1.3,59.56405062526309,
block,faces,faces065.bmp,,,,,0,101,101,101,,,,,,,,,,,,,,,,,,,,,,,,,,,,,,,,,,,,,,,,,,None,,251.18460593037307,None,251.18460593037307,None,2022-07-18-12:32:07.467824,251.18612880026922,251.4852816001512,251.18612880026922,None,None,251.18612880026922,None,252.00171183040365,None,,,,21006,0001,2022_Jul_18_1228,localizer,2021.1.3,59.56405062526309,
block,faces,faces060.bmp,,,,,0,102,102,102,,,,,,,,,,,,,,,,,,,,,,,,,,,,,,,,,,,,,,,,,,None,,252.00171183040365,None,252.00171183040365,None,2022-07-18-12:32:08.284854,252.0134523003362,252.31854420015588,252.0134523003362,None,None,252.0134523003362,None,252.8183414301835,None,,,,21006,0001,2022_Jul_18_1228,localizer,2021.1.3,59.56405062526309,
block,faces,faces035.bmp,,,,,0,103,103,103,,,,,,,,,,,,,,,,,,,,,,,,,,,,,,,,,,,,,,,,,,None,,252.8183414301835,None,252.8183414301835,None,2022-07-18-12:32:09.101492,252.8301370004192,253.1354772001505,252.8301370004192,None,None,252.8301370004192,None,253.63464293014258,None,,,,21006,0001,2022_Jul_18_1228,localizer,2021.1.3,59.56405062526309,
block,faces,faces014.bmp,,,,,0,104,104,104,,,,,,,,,,,,,,,,,,,,,,,,,,,,,,,,,,,,,,,,,,None,,253.63464293014258,None,253.63464293014258,None,2022-07-18-12:32:09.916590,253.63633580040187,253.9352571000345,253.63633580040187,None,None,253.63633580040187,None,254.44101253002881,None,,,,21006,0001,2022_Jul_18_1228,localizer,2021.1.3,59.56405062526309,
block,faces,faces001.bmp,,,,,0,105,105,105,,,,,,,,,,,,,,,,,,,,,,,,,,,,,,,,,,,,,,,,,,None,,254.44101253002881,None,254.44101253002881,None,2022-07-18-12:32:10.731926,254.45950160035864,254.7682555001229,254.45950160035864,None,None,254.45950160035864,None,255.25276313014328,None,,,,21006,0001,2022_Jul_18_1228,localizer,2021.1.3,59.56405062526309,
block_end,faces,faces061.bmp,,,,,0,106,106,106,,,,,,,,,,,,,,,,,,,,,,,,,,,,,,,,,,,,,,,,,,None,,255.25276313014328,None,255.25276313014328,None,2022-07-18-12:32:11.536860,255.26719640009105,255.56910550035536,255.26719640009105,None,None,255.26719640009105,None,256.0681220301427,None,,,,21006,0001,2022_Jul_18_1228,localizer,2021.1.3,59.56405062526309,
block_start,objects,objects060.bmp,,,,,0,107,107,107,,,,,,,,,,,,,,,,,,,,,,,,,,,,,,,,,,,,,,,,,,t,1.7608516998589039,256.0682324003428,None,256.0682324003428,None,2022-07-18-12:32:14.133007,257.8610735000111,258.16840960038826,257.8610735000111,None,None,257.8610735000111,None,258.6683447304182,None,,,,21006,0001,2022_Jul_18_1228,localizer,2021.1.3,59.56405062526309,
block,objects,objects003.bmp,,,,,0,108,108,108,,,,,,,,,,,,,,,,,,,,,,,,,,,,,,,,,,,,,,,,,,None,,258.6683447304182,None,258.6683447304182,None,2022-07-18-12:32:14.951620,258.6796064004302,258.98539230041206,258.6796064004302,None,None,258.6796064004302,None,259.4867550301366,None,,,,21006,0001,2022_Jul_18_1228,localizer,2021.1.3,59.56405062526309,
block,objects,objects024.bmp,,,,,0,109,109,109,,,,,,,,,,,,,,,,,,,,,,,,,,,,,,,,,,,,,,,,,,None,,259.4867550301366,None,259.4867550301366,None,2022-07-18-12:32:15.769700,259.4958983999677,259.8081630002707,259.4958983999677,None,None,259.4958983999677,None,260.3015791302547,None,,,,21006,0001,2022_Jul_18_1228,localizer,2021.1.3,59.56405062526309,
block,objects,objects006.bmp,,,,,0,110,110,110,,,,,,,,,,,,,,,,,,,,,,,,,,,,,,,,,,,,,,,,,,None,,260.3015791302547,None,260.3015791302547,None,2022-07-18-12:32:16.584518,260.31203610030934,260.61847120011225,260.31203610030934,None,None,260.31203610030934,None,261.1184026299976,None,,,,21006,0001,2022_Jul_18_1228,localizer,2021.1.3,59.56405062526309,
block,objects,objects033.bmp,,,,,0,111,111,111,,,,,,,,,,,,,,,,,,,,,,,,,,,,,,,,,,,,,,,,,,None,,261.1184026299976,None,261.1184026299976,None,2022-07-18-12:32:17.401340,261.12964390031993,261.4349094000645,261.12964390031993,None,None,261.12964390031993,None,261.9350674300455,None,,,,21006,0001,2022_Jul_18_1228,localizer,2021.1.3,59.56405062526309,
block,objects,objects002.bmp,,,,,0,112,112,112,,,,,,,,,,,,,,,,,,,,,,,,,,,,,,,,,,,,,,,,,,None,,261.9350674300455,None,261.9350674300455,None,2022-07-18-12:32:18.218195,261.9464780003764,262.2519281003624,261.9464780003764,None,None,261.9464780003764,None,262.7527585303411,None,,,,21006,0001,2022_Jul_18_1228,localizer,2021.1.3,59.56405062526309,
block,objects,objects045.bmp,,,,,0,113,113,113,,,,,,,,,,,,,,,,,,,,,,,,,,,,,,,,,,,,,,,,,,None,,262.7527585303411,None,262.7527585303411,None,2022-07-18-12:32:19.037862,262.75626400019974,263.06830270029604,262.75626400019974,None,None,262.75626400019974,None,263.56884253015744,None,,,,21006,0001,2022_Jul_18_1228,localizer,2021.1.3,59.56405062526309,
block,objects,objects070.bmp,,,,,0,114,114,114,,,,,,,,,,,,,,,,,,,,,,,,,,,,,,,,,,,,,,,,,,None,,263.56884253015744,None,263.56884253015744,None,2022-07-18-12:32:19.853331,263.5715298000723,263.8855215003714,263.5715298000723,None,None,263.5715298000723,None,264.3849580300972,None,,,,21006,0001,2022_Jul_18_1228,localizer,2021.1.3,59.56405062526309,
block,objects,objects053.bmp,,,,,0,115,115,115,,,,,,,,,,,,,,,,,,,,,,,,,,,,,,,,,,,,,,,,,,None,,264.3849580300972,None,264.3849580300972,None,2022-07-18-12:32:20.668084,264.39717740006745,264.70222810003906,264.39717740006745,None,None,264.39717740006745,None,265.20175433009865,None,,,,21006,0001,2022_Jul_18_1228,localizer,2021.1.3,59.56405062526309,
block,objects,objects082.bmp,,,,,0,116,116,116,,,,,,,,,,,,,,,,,,,,,,,,,,,,,,,,,,,,,,,,,,None,,265.20175433009865,None,265.20175433009865,None,2022-07-18-12:32:21.484477,265.202666700352,265.51843459997326,265.202666700352,None,None,265.202666700352,None,266.002189030312,None,,,,21006,0001,2022_Jul_18_1228,localizer,2021.1.3,59.56405062526309,
block,objects,objects032.bmp,,,,,0,117,117,117,,,,,,,,,,,,,,,,,,,,,,,,,,,,,,,,,,,,,,,,,,None,,266.002189030312,None,266.002189030312,None,2022-07-18-12:32:22.288108,266.00548320030794,266.3187044002116,266.00548320030794,266.00548320030794,None,266.00548320030794,266.00548320030794,266.8183394301683,None,,,,21006,0001,2022_Jul_18_1228,localizer,2021.1.3,59.56405062526309,
block,objects,objects081.bmp,,,,,0,118,118,118,,,,,,,,,,,,,,,,,,,,,,,,,,,,,,,,,,,,,,,,,,None,,266.8183394301683,None,266.8183394301683,None,2022-07-18-12:32:23.101278,266.82468410022557,267.1362899001688,266.82468410022557,None,None,266.82468410022557,None,267.63493443038317,None,,,,21006,0001,2022_Jul_18_1228,localizer,2021.1.3,59.56405062526309,
block,objects,objects016.bmp,,,,,0,119,119,119,,,,,,,,,,,,,,,,,,,,,,,,,,,,,,,,,,,,,,,,,,None,,267.63493443038317,None,267.63493443038317,None,2022-07-18-12:32:23.917873,267.6454532002099,267.95165720023215,267.6454532002099,None,None,267.6454532002099,None,268.4518042303622,None,,,,21006,0001,2022_Jul_18_1228,localizer,2021.1.3,59.56405062526309,
block,objects,objects047.bmp,,,,,0,120,120,120,,,,,,,,,,,,,,,,,,,,,,,,,,,,,,,,,,,,,,,,,,None,,268.4518042303622,None,268.4518042303622,None,2022-07-18-12:32:24.734973,268.46232210006565,268.7690903004259,268.46232210006565,None,None,268.46232210006565,None,269.26948073031383,None,,,,21006,0001,2022_Jul_18_1228,localizer,2021.1.3,59.56405062526309,
block_end,objects,objects041.bmp,,,,,0,121,121,121,,,,,,,,,,,,,,,,,,,,,,,,,,,,,,,,,,,,,,,,,,None,,269.26948073031383,None,269.26948073031383,None,2022-07-18-12:32:25.555004,269.28346589999273,269.5852061002515,269.28346589999273,None,None,269.28346589999273,None,270.08508713021877,None,,,,21006,0001,2022_Jul_18_1228,localizer,2021.1.3,59.56405062526309,
block_start,scenes,scenes063.bmp,,,,,0,122,122,122,,,,,,,,,,,,,,,,,,,,,,,,,,,,,,,,,,,,,,,,,,t,1.7437257999554276,270.0854211002588,None,270.0854211002588,None,2022-07-18-12:32:28.135042,271.8634105999954,272.1685014003888,271.8634105999954,None,None,271.8634105999954,None,272.6683172303252,None,,,,21006,0001,2022_Jul_18_1228,localizer,2021.1.3,59.56405062526309,
block,scenes,scenes018.bmp,,,,,0,123,123,123,,,,,,,,,,,,,,,,,,,,,,,,,,,,,,,,,,,,,,,,,,None,,272.6683172303252,None,272.6683172303252,None,2022-07-18-12:32:28.951741,272.6795976003632,272.98530200030655,272.6795976003632,None,None,272.6795976003632,None,273.4847897304222,None,,,,21006,0001,2022_Jul_18_1228,localizer,2021.1.3,59.56405062526309,
block,scenes,scenes005.bmp,,,,,0,124,124,124,,,,,,,,,,,,,,,,,,,,,,,,,,,,,,,,,,,,,,,,,,None,,273.4847897304222,None,273.4847897304222,None,2022-07-18-12:32:29.767734,273.4942180002108,273.80179910035804,273.4942180002108,None,None,273.4942180002108,None,274.3017119303346,None,,,,21006,0001,2022_Jul_18_1228,localizer,2021.1.3,59.56405062526309,
block,scenes,scenes013.bmp,,,,,0,125,125,125,,,,,,,,,,,,,,,,,,,,,,,,,,,,,,,,,,,,,,,,,,None,,274.3017119303346,None,274.3017119303346,None,2022-07-18-12:32:30.585006,274.31280050007626,274.61839080043137,274.31280050007626,None,None,274.31280050007626,None,275.1183721301146,None,,,,21006,0001,2022_Jul_18_1228,localizer,2021.1.3,59.56405062526309,
block,scenes,scenes045.bmp,,,,,0,126,126,126,,,,,,,,,,,,,,,,,,,,,,,,,,,,,,,,,,,,,,,,,,None,,275.1183721301146,None,275.1183721301146,None,2022-07-18-12:32:31.401310,275.1299127000384,275.4349032002501,275.1299127000384,None,None,275.1299127000384,None,275.93470253041016,None,,,,21006,0001,2022_Jul_18_1228,localizer,2021.1.3,59.56405062526309,
block,scenes,scenes064.bmp,,,,,0,127,127,127,,,,,,,,,,,,,,,,,,,,,,,,,,,,,,,,,,,,,,,,,,None,,275.93470253041016,None,275.93470253041016,None,2022-07-18-12:32:32.217642,275.93610310042277,276.2518429001793,275.93610310042277,None,None,275.93610310042277,None,276.73521983008834,None,,,,21006,0001,2022_Jul_18_1228,localizer,2021.1.3,59.56405062526309,
block,scenes,scenes027.bmp,,,,,0,128,128,128,,,,,,,,,,,,,,,,,,,,,,,,,,,,,,,,,,,,,,,,,,None,,276.73521983008834,None,276.73521983008834,None,2022-07-18-12:32:33.020151,276.7491968004033,277.05162120005116,276.7491968004033,276.7491968004033,None,276.7491968004033,276.7491968004033,277.55182213000955,None,,,,21006,0001,2022_Jul_18_1228,localizer,2021.1.3,59.56405062526309,
block,scenes,scenes083.bmp,,,,,0,129,129,129,,,,,,,,,,,,,,,,,,,,,,,,,,,,,,,,,,,,,,,,,,None,,277.55182213000955,None,277.55182213000955,None,2022-07-18-12:32:33.834761,277.56306060031056,277.86873490037397,277.56306060031056,None,None,277.56306060031056,None,278.36832493022087,None,,,,21006,0001,2022_Jul_18_1228,localizer,2021.1.3,59.56405062526309,
block,scenes,scenes061.bmp,,,,,0,130,130,130,,,,,,,,,,,,,,,,,,,,,,,,,,,,,,,,,,,,,,,,,,None,,278.36832493022087,None,278.36832493022087,None,2022-07-18-12:32:34.651266,278.3790913000703,278.68578900024295,278.3790913000703,None,None,278.3790913000703,None,279.185531830322,None,,,,21006,0001,2022_Jul_18_1228,localizer,2021.1.3,59.56405062526309,
block,scenes,scenes088.bmp,,,,,0,131,131,131,,,,,,,,,,,,,,,,,,,,,,,,,,,,,,,,,,,,,,,,,,None,,279.185531830322,None,279.185531830322,None,2022-07-18-12:32:35.469455,279.1977922003716,279.5017963000573,279.1977922003716,None,None,279.1977922003716,None,280.0016330302693,None,,,,21006,0001,2022_Jul_18_1228,localizer,2021.1.3,59.56405062526309,
block,scenes,scenes077.bmp,,,,,0,132,132,132,,,,,,,,,,,,,,,,,,,,,,,,,,,,,,,,,,,,,,,,,,None,,280.0016330302693,None,280.0016330302693,None,2022-07-18-12:32:36.284574,280.00277270004153,280.31855700025335,280.00277270004153,None,None,280.00277270004153,None,280.8025631302968,None,,,,21006,0001,2022_Jul_18_1228,localizer,2021.1.3,59.56405062526309,
block,scenes,scenes057.bmp,,,,,0,133,133,133,,,,,,,,,,,,,,,,,,,,,,,,,,,,,,,,,,,,,,,,,,None,,280.8025631302968,None,280.8025631302968,None,2022-07-18-12:32:37.090579,280.8082958003506,281.1193466000259,280.8082958003506,280.8082958003506,None,280.8082958003506,280.8082958003506,281.6180674302392,None,,,,21006,0001,2022_Jul_18_1228,localizer,2021.1.3,59.56405062526309,
block,scenes,scenes003.bmp,,,,,0,134,134,134,,,,,,,,,,,,,,,,,,,,,,,,,,,,,,,,,,,,,,,,,,None,,281.6180674302392,None,281.6180674302392,None,2022-07-18-12:32:37.900011,281.6289208000526,281.9348975000903,281.6289208000526,None,None,281.6289208000526,None,282.43489263011145,None,,,,21006,0001,2022_Jul_18_1228,localizer,2021.1.3,59.56405062526309,
block,scenes,scenes049.bmp,,,,,0,135,135,135,,,,,,,,,,,,,,,,,,,,,,,,,,,,,,,,,,,,,,,,,,None,,282.43489263011145,None,282.43489263011145,None,2022-07-18-12:32:38.717838,282.44390010042116,282.75160120008513,282.44390010042116,None,None,282.44390010042116,None,283.2516776303761,None,,,,21006,0001,2022_Jul_18_1228,localizer,2021.1.3,59.56405062526309,
block_end,scenes,scenes056.bmp,,,,,0,136,136,136,,,,,,,,,,,,,,,,,,,,,,,,,,,,,,,,,,,,,,,,,,None,,283.2516776303761,None,283.2516776303761,None,2022-07-18-12:32:39.534614,283.261718200054,283.568209100049,283.261718200054,None,None,283.261718200054,None,284.0686440303922,None,,,,21006,0001,2022_Jul_18_1228,localizer,2021.1.3,59.56405062526309,
block_start,objects,objects050.bmp,,,,,0,137,137,137,,,,,,,,,,,,,,,,,,,,,,,,,,,,,,,,,,,,,,,,,,t,1.760387200396508,284.0687036002055,None,284.0687036002055,None,2022-07-18-12:32:42.135612,285.85341620026156,286.16853820020333,285.85341620026156,None,None,285.85341620026156,None,286.6685837301426,None,,,,21006,0001,2022_Jul_18_1228,localizer,2021.1.3,59.56405062526309,
block,objects,objects064.bmp,,,,,0,138,138,138,,,,,,,,,,,,,,,,,,,,,,,,,,,,,,,,,,,,,,,,,,None,,286.6685837301426,None,286.6685837301426,None,2022-07-18-12:32:42.951495,286.67539550038055,286.98534700041637,286.67539550038055,None,None,286.67539550038055,None,287.4869989300147,None,,,,21006,0001,2022_Jul_18_1228,localizer,2021.1.3,59.56405062526309,
block,objects,objects064.bmp,,,,,0,139,139,139,,,,,,,,,,,,,,,,,,,,,,,,,,,,,,,,,,,,,,,,,,None,,287.4869989300147,None,287.4869989300147,None,2022-07-18-12:32:43.774093,287.4926843000576,287.80195090034977,287.4926843000576,None,y,287.4926843000576,None,288.30187633018943,None,0.6642839997075498,,,21006,0001,2022_Jul_18_1228,localizer,2021.1.3,59.56405062526309,
block,objects,objects011.bmp,,,,,0,140,140,140,,,,,,,,,,,,,,,,,,,,,,,,,,,,,,,,,,,,,,,,,,None,,288.30187633018943,None,288.30187633018943,None,2022-07-18-12:32:44.584812,288.31219480000436,288.6186518999748,288.31219480000436,None,None,288.31219480000436,None,289.1188926300034,None,,,,21006,0001,2022_Jul_18_1228,localizer,2021.1.3,59.56405062526309,
block,objects,objects039.bmp,,,,,0,141,141,141,,,,,,,,,,,,,,,,,,,,,,,,,,,,,,,,,,,,,,,,,,None,,289.1188926300034,None,289.1188926300034,None,2022-07-18-12:32:45.403007,289.13081950042397,289.44159510033205,289.13081950042397,None,None,289.13081950042397,None,289.9362759300508,None,,,,21006,0001,2022_Jul_18_1228,localizer,2021.1.3,59.56405062526309,
block,objects,objects058.bmp,,,,,0,142,142,142,,,,,,,,,,,,,,,,,,,,,,,,,,,,,,,,,,,,,,,,,,None,,289.9362759300508,None,289.9362759300508,None,2022-07-18-12:32:46.222535,289.95280700037256,290.2686499999836,289.95280700037256,None,None,289.95280700037256,None,290.7516868299805,None,,,,21006,0001,2022_Jul_18_1228,localizer,2021.1.3,59.56405062526309,
block,objects,objects056.bmp,,,,,0,143,143,143,,,,,,,,,,,,,,,,,,,,,,,,,,,,,,,,,,,,,,,,,,None,,290.7516868299805,None,290.7516868299805,None,2022-07-18-12:32:47.034632,290.75680800015107,291.06865840032697,290.75680800015107,None,None,290.75680800015107,None,291.57045793011787,None,,,,21006,0001,2022_Jul_18_1228,localizer,2021.1.3,59.56405062526309,
block,objects,objects020.bmp,,,,,0,144,144,144,,,,,,,,,,,,,,,,,,,,,,,,,,,,,,,,,,,,,,,,,,None,,291.57045793011787,None,291.57045793011787,None,2022-07-18-12:32:47.858379,291.58169440040365,291.8852021000348,291.58169440040365,None,None,291.58169440040365,None,292.3854571300559,None,,,,21006,0001,2022_Jul_18_1228,localizer,2021.1.3,59.56405062526309,
block,objects,objects012.bmp,,,,,0,145,145,145,,,,,,,,,,,,,,,,,,,,,,,,,,,,,,,,,,,,,,,,,,None,,292.3854571300559,None,292.3854571300559,None,2022-07-18-12:32:48.669593,292.39655210031196,292.70199890015647,292.39655210031196,None,None,292.39655210031196,None,293.2018420304172,None,,,,21006,0001,2022_Jul_18_1228,localizer,2021.1.3,59.56405062526309,
block,objects,objects007.bmp,,,,,0,146,146,146,,,,,,,,,,,,,,,,,,,,,,,,,,,,,,,,,,,,,,,,,,None,,293.2018420304172,None,293.2018420304172,None,2022-07-18-12:32:49.484994,293.21309700002894,293.51916120015085,293.21309700002894,None,None,293.21309700002894,None,294.01839963011446,None,,,,21006,0001,2022_Jul_18_1228,localizer,2021.1.3,59.56405062526309,
block,objects,objects054.bmp,,,,,0,147,147,147,,,,,,,,,,,,,,,,,,,,,,,,,,,,,,,,,,,,,,,,,,None,,294.01839963011446,None,294.01839963011446,None,2022-07-18-12:32:50.301339,294.01956360042095,294.33576720021665,294.01956360042095,None,None,294.01956360042095,None,294.81860583033415,None,,,,21006,0001,2022_Jul_18_1228,localizer,2021.1.3,59.56405062526309,
block,objects,objects052.bmp,,,,,0,148,148,148,,,,,,,,,,,,,,,,,,,,,,,,,,,,,,,,,,,,,,,,,,None,,294.81860583033415,None,294.81860583033415,None,2022-07-18-12:32:51.104534,294.8215151000768,295.135374000296,294.8215151000768,294.8215151000768,None,294.8215151000768,294.8215151000768,295.63640703018757,None,,,,21006,0001,2022_Jul_18_1228,localizer,2021.1.3,59.56405062526309,
block,objects,objects001.bmp,,,,,0,149,149,149,,,,,,,,,,,,,,,,,,,,,,,,,,,,,,,,,,,,,,,,,,None,,295.63640703018757,None,295.63640703018757,None,2022-07-18-12:32:51.920504,295.64581290027127,295.95185140008107,295.64581290027127,None,None,295.64581290027127,None,296.4517739302479,None,,,,21006,0001,2022_Jul_18_1228,localizer,2021.1.3,59.56405062526309,
block,objects,objects072.bmp,,,,,0,150,150,150,,,,,,,,,,,,,,,,,,,,,,,,,,,,,,,,,,,,,,,,,,None,,296.4517739302479,None,296.4517739302479,None,2022-07-18-12:32:52.734718,296.460387500003,296.76879190001637,296.460387500003,None,None,296.460387500003,None,297.26876523010435,None,,,,21006,0001,2022_Jul_18_1228,localizer,2021.1.3,59.56405062526309,
block_end,objects,objects069.bmp,,,,,0,151,151,151,,,,,,,,,,,,,,,,,,,,,,,,,,,,,,,,,,,,,,,,,,None,,297.26876523010435,None,297.26876523010435,None,2022-07-18-12:32:53.552696,297.2800287003629,297.58546160021797,297.2800287003629,None,None,297.2800287003629,None,298.08509083036336,None,,,,21006,0001,2022_Jul_18_1228,localizer,2021.1.3,59.56405062526309,
block_start,faces,faces059.bmp,,,,,0,152,152,152,,,,,,,,,,,,,,,,,,,,,,,,,,,,,,,,,,,,,,,,,,t,1.743967399932444,298.0851462003775,None,298.0851462003775,None,2022-07-18-12:32:56.133555,299.86053499998525,300.171029700432,299.86053499998525,None,None,299.86053499998525,None,300.66901823030787,None,,,,21006,0001,2022_Jul_18_1228,localizer,2021.1.3,59.56405062526309,
block,faces,faces034.bmp,,,,,0,153,153,153,,,,,,,,,,,,,,,,,,,,,,,,,,,,,,,,,,,,,,,,,,None,,300.66901823030787,None,300.66901823030787,None,2022-07-18-12:32:56.952944,300.6708486001007,300.99147360026836,300.6708486001007,None,None,300.6708486001007,None,301.4750067302026,None,,,,21006,0001,2022_Jul_18_1228,localizer,2021.1.3,59.56405062526309,
block,faces,faces015.bmp,,,,,0,154,154,154,,,,,,,,,,,,,,,,,,,,,,,,,,,,,,,,,,,,,,,,,,None,,301.4750067302026,None,301.4750067302026,None,2022-07-18-12:32:57.761634,301.47921949997544,301.78550610039383,301.47921949997544,None,None,301.47921949997544,None,302.2853046300821,None,,,,21006,0001,2022_Jul_18_1228,localizer,2021.1.3,59.56405062526309,
block,faces,faces082.bmp,,,,,0,155,155,155,,,,,,,,,,,,,,,,,,,,,,,,,,,,,,,,,,,,,,,,,,None,,302.2853046300821,None,302.2853046300821,None,2022-07-18-12:32:58.568279,302.2862235000357,302.5854509002529,302.2862235000357,None,None,302.2862235000357,None,303.1019009304233,None,,,,21006,0001,2022_Jul_18_1228,localizer,2021.1.3,59.56405062526309,
block,faces,faces088.bmp,,,,,0,156,156,156,,,,,,,,,,,,,,,,,,,,,,,,,,,,,,,,,,,,,,,,,,None,,303.1019009304233,None,303.1019009304233,None,2022-07-18-12:32:59.385063,303.1146019003354,303.4245397001505,303.1146019003354,None,None,303.1146019003354,None,303.91833413010465,None,,,,21006,0001,2022_Jul_18_1228,localizer,2021.1.3,59.56405062526309,
block,faces,faces042.bmp,,,,,0,157,157,157,,,,,,,,,,,,,,,,,,,,,,,,,,,,,,,,,,,,,,,,,,None,,303.91833413010465,None,303.91833413010465,None,2022-07-18-12:33:00.201258,303.9276447002776,304.2353284000419,303.9276447002776,None,None,303.9276447002776,None,304.7353922300041,None,,,,21006,0001,2022_Jul_18_1228,localizer,2021.1.3,59.56405062526309,
block,faces,faces025.bmp,,,,,0,158,158,158,,,,,,,,,,,,,,,,,,,,,,,,,,,,,,,,,,,,,,,,,,None,,304.7353922300041,None,304.7353922300041,None,2022-07-18-12:33:01.018541,304.74825510010123,305.05177400028333,304.74825510010123,None,None,304.74825510010123,None,305.55778223033997,None,,,,21006,0001,2022_Jul_18_1228,localizer,2021.1.3,59.56405062526309,
block,faces,faces039.bmp,,,,,0,159,159,159,,,,,,,,,,,,,,,,,,,,,,,,,,,,,,,,,,,,,,,,,,None,,305.55778223033997,None,305.55778223033997,None,2022-07-18-12:33:01.846543,305.576735700015,305.88531969999894,305.576735700015,None,None,305.576735700015,None,306.36870923023673,None,,,,21006,0001,2022_Jul_18_1228,localizer,2021.1.3,59.56405062526309,
block,faces,faces084.bmp,,,,,0,160,160,160,,,,,,,,,,,,,,,,,,,,,,,,,,,,,,,,,,,,,,,,,,None,,306.36870923023673,None,306.36870923023673,None,2022-07-18-12:33:02.651647,306.38044840004295,306.6850986001082,306.38044840004295,None,None,306.38044840004295,None,307.1850427299738,None,,,,21006,0001,2022_Jul_18_1228,localizer,2021.1.3,59.56405062526309,
block,faces,faces051.bmp,,,,,0,161,161,161,,,,,,,,,,,,,,,,,,,,,,,,,,,,,,,,,,,,,,,,,,None,,307.1850427299738,None,307.1850427299738,None,2022-07-18-12:33:03.468231,307.1965568000451,307.50203900039196,307.1965568000451,None,None,307.1965568000451,None,308.00229273028674,None,,,,21006,0001,2022_Jul_18_1228,localizer,2021.1.3,59.56405062526309,
block,faces,faces002.bmp,,,,,0,162,162,162,,,,,,,,,,,,,,,,,,,,,,,,,,,,,,,,,,,,,,,,,,None,,308.00229273028674,None,308.00229273028674,None,2022-07-18-12:33:04.286218,308.0152342002839,308.31876160018146,308.0152342002839,None,None,308.0152342002839,None,308.81811953000727,None,,,,21006,0001,2022_Jul_18_1228,localizer,2021.1.3,59.56405062526309,
block,faces,faces049.bmp,,,,,0,163,163,163,,,,,,,,,,,,,,,,,,,,,,,,,,,,,,,,,,,,,,,,,,None,,308.81811953000727,None,308.81811953000727,None,2022-07-18-12:33:05.101102,308.8277927003801,309.1359592000954,308.8277927003801,None,None,308.8277927003801,None,309.6353509304114,None,,,,21006,0001,2022_Jul_18_1228,localizer,2021.1.3,59.56405062526309,
block,faces,faces072.bmp,,,,,0,164,164,164,,,,,,,,,,,,,,,,,,,,,,,,,,,,,,,,,,,,,,,,,,None,,309.6353509304114,None,309.6353509304114,None,2022-07-18-12:33:05.918501,309.6462515001185,309.9534585000947,309.6462515001185,None,None,309.6462515001185,None,310.4411764302291,None,,,,21006,0001,2022_Jul_18_1228,localizer,2021.1.3,59.56405062526309,
block,faces,faces010.bmp,,,,,0,165,165,165,,,,,,,,,,,,,,,,,,,,,,,,,,,,,,,,,,,,,,,,,,None,,310.4411764302291,None,310.4411764302291,None,2022-07-18-12:33:06.731909,310.4471754003316,310.752141200006,310.4471754003316,None,None,310.4471754003316,None,311.25210613003003,None,,,,21006,0001,2022_Jul_18_1228,localizer,2021.1.3,59.56405062526309,
block_end,faces,faces057.bmp,,,,,0,166,166,166,,,,,,,,,,,,,,,,,,,,,,,,,,,,,,,,,,,,,,,,,,None,,311.25210613003003,None,311.25210613003003,None,2022-07-18-12:33:07.535252,311.26118340017274,311.568824400194,311.26118340017274,None,None,311.26118340017274,None,312.06904613031077,None,,,,21006,0001,2022_Jul_18_1228,localizer,2021.1.3,59.56405062526309,
null_block,null_block,null_block.bmp,,,,,0,167,167,167,,,,,,,,,,,,,,,,,,,,,,,,,,,,,,,,,,,,,,,,,,t,1.7603658000007272,312.0691749001853,None,312.0691749001853,None,2022-07-18-12:33:10.135014,313.8520650303923,None,313.8520650303923,None,None,313.8520650303923,None,313.85600450029597,None,,,,21006,0001,2022_Jul_18_1228,localizer,2021.1.3,59.56405062526309,
block_start,scrambled,scrambled034.bmp,,,,,0,168,168,168,,,,,,,,,,,,,,,,,,,,,,,,,,,,,,,,,,,,,,,,,,t,1.972902299836278,325.85501110041514,None,325.85501110041514,None,2022-07-18-12:33:24.137473,327.8647641004063,328.16869060043246,327.8647641004063,None,None,327.8647641004063,None,328.66892483029517,None,,,,21006,0001,2022_Jul_18_1228,localizer,2021.1.3,59.56405062526309,
block,scrambled,scrambled018.bmp,,,,,0,169,169,169,,,,,,,,,,,,,,,,,,,,,,,,,,,,,,,,,,,,,,,,,,None,,328.66892483029517,None,328.66892483029517,None,2022-07-18-12:33:24.951861,328.6796110002324,328.98576410021633,328.6796110002324,None,None,328.6796110002324,None,329.4891428303905,None,,,,21006,0001,2022_Jul_18_1228,localizer,2021.1.3,59.56405062526309,
block,scrambled,scrambled068.bmp,,,,,0,170,170,170,,,,,,,,,,,,,,,,,,,,,,,,,,,,,,,,,,,,,,,,,,None,,329.4891428303905,None,329.4891428303905,None,2022-07-18-12:33:25.775919,329.4935554000549,329.80198580026627,329.4935554000549,None,None,329.4935554000549,None,330.3018500301056,None,,,,21006,0001,2022_Jul_18_1228,localizer,2021.1.3,59.56405062526309,
block,scrambled,scrambled012.bmp,,,,,0,171,171,171,,,,,,,,,,,,,,,,,,,,,,,,,,,,,,,,,,,,,,,,,,None,,330.3018500301056,None,330.3018500301056,None,2022-07-18-12:33:26.585086,330.30318630021065,330.61877680011094,330.30318630021065,None,None,330.30318630021065,None,331.118433730118,None,,,,21006,0001,2022_Jul_18_1228,localizer,2021.1.3,59.56405062526309,
block,scrambled,scrambled023.bmp,,,,,0,172,172,172,,,,,,,,,,,,,,,,,,,,,,,,,,,,,,,,,,,,,,,,,,None,,331.118433730118,None,331.118433730118,None,2022-07-18-12:33:27.401272,331.1271248999983,331.4354989002459,331.1271248999983,None,None,331.1271248999983,None,331.9353854301386,None,,,,21006,0001,2022_Jul_18_1228,localizer,2021.1.3,59.56405062526309,
block,scrambled,scrambled086.bmp,,,,,0,173,173,173,,,,,,,,,,,,,,,,,,,,,,,,,,,,,,,,,,,,,,,,,,None,,331.9353854301386,None,331.9353854301386,None,2022-07-18-12:33:28.218554,331.9422294003889,332.25229740003124,331.9422294003889,None,None,331.9422294003889,None,332.75244023036214,None,,,,21006,0001,2022_Jul_18_1228,localizer,2021.1.3,59.56405062526309,
block,scrambled,scrambled008.bmp,,,,,0,174,174,174,,,,,,,,,,,,,,,,,,,,,,,,,,,,,,,,,,,,,,,,,,None,,332.75244023036214,None,332.75244023036214,None,2022-07-18-12:33:29.036364,332.76518630003557,333.0688288002275,332.76518630003557,None,None,332.76518630003557,None,333.5687605299987,None,,,,21006,0001,2022_Jul_18_1228,localizer,2021.1.3,59.56405062526309,
block,scrambled,scrambled031.bmp,,,,,0,175,175,175,,,,,,,,,,,,,,,,,,,,,,,,,,,,,,,,,,,,,,,,,,None,,333.5687605299987,None,333.5687605299987,None,2022-07-18-12:33:29.851924,333.57910390011966,333.88581180013716,333.57910390011966,None,None,333.57910390011966,None,334.38547363029795,None,,,,21006,0001,2022_Jul_18_1228,localizer,2021.1.3,59.56405062526309,
block,scrambled,scrambled063.bmp,,,,,0,176,176,176,,,,,,,,,,,,,,,,,,,,,,,,,,,,,,,,,,,,,,,,,,None,,334.38547363029795,None,334.38547363029795,None,2022-07-18-12:33:30.668410,334.38643850013614,334.701971700415,334.38643850013614,None,None,334.38643850013614,None,335.18563763042914,None,,,,21006,0001,2022_Jul_18_1228,localizer,2021.1.3,59.56405062526309,
block,scrambled,scrambled032.bmp,,,,,0,177,177,177,,,,,,,,,,,,,,,,,,,,,,,,,,,,,,,,,,,,,,,,,,None,,335.18563763042914,None,335.18563763042914,None,2022-07-18-12:33:31.471564,335.1988367000595,335.5022870004177,335.1988367000595,335.1988367000595,None,335.1988367000595,335.1988367000595,336.00214513009416,None,,,,21006,0001,2022_Jul_18_1228,localizer,2021.1.3,59.56405062526309,
block,scrambled,scrambled027.bmp,,,,,0,178,178,178,,,,,,,,,,,,,,,,,,,,,,,,,,,,,,,,,,,,,,,,,,None,,336.00214513009416,None,336.00214513009416,None,2022-07-18-12:33:32.285082,336.0134344003163,336.31906930031255,336.0134344003163,None,None,336.0134344003163,None,336.81908553037795,None,,,,21006,0001,2022_Jul_18_1228,localizer,2021.1.3,59.56405062526309,
block,scrambled,scrambled041.bmp,,,,,0,179,179,179,,,,,,,,,,,,,,,,,,,,,,,,,,,,,,,,,,,,,,,,,,None,,336.81908553037795,None,336.81908553037795,None,2022-07-18-12:33:33.102998,336.8299183002673,337.1354839000851,336.8299183002673,None,None,336.8299183002673,None,337.63537893015894,None,,,,21006,0001,2022_Jul_18_1228,localizer,2021.1.3,59.56405062526309,
block,scrambled,scrambled007.bmp,,,,,0,180,180,180,,,,,,,,,,,,,,,,,,,,,,,,,,,,,,,,,,,,,,,,,,None,,337.63537893015894,None,337.63537893015894,None,2022-07-18-12:33:33.918499,337.6364372000098,337.9360785000026,337.6364372000098,None,None,337.6364372000098,None,338.45184773011135,None,,,,21006,0001,2022_Jul_18_1228,localizer,2021.1.3,59.56405062526309,
block,scrambled,scrambled042.bmp,,,,,0,181,181,181,,,,,,,,,,,,,,,,,,,,,,,,,,,,,,,,,,,,,,,,,,None,,338.45184773011135,None,338.45184773011135,None,2022-07-18-12:33:34.734791,338.4577389000915,338.76869780011475,338.4577389000915,None,None,338.4577389000915,None,339.2689234301448,None,,,,21006,0001,2022_Jul_18_1228,localizer,2021.1.3,59.56405062526309,
block_end,scrambled,scrambled051.bmp,,,,,0,182,182,182,,,,,,,,,,,,,,,,,,,,,,,,,,,,,,,,,,,,,,,,,,None,,339.2689234301448,None,339.2689234301448,None,2022-07-18-12:33:35.551622,339.2801089002751,339.58566120034084,339.2801089002751,None,None,339.2801089002751,None,340.0854888301343,None,,,,21006,0001,2022_Jul_18_1228,localizer,2021.1.3,59.56405062526309,
null_block,null_block,null_block.bmp,,,,,0,183,183,183,,,,,,,,,,,,,,,,,,,,,,,,,,,,,,,,,,,,,,,,,,t,1.742453099694103,340.08571810042486,None,340.08571810042486,None,2022-07-18-12:33:38.133965,341.8520161303692,None,341.8520161303692,None,None,341.8520161303692,None,341.85477770026773,None,,,,21006,0001,2022_Jul_18_1228,localizer,2021.1.3,59.56405062526309,
block_start,objects,objects024.bmp,,,,,0,184,184,184,,,,,,,,,,,,,,,,,,,,,,,,,,,,,,,,,,,,,,,,,,t,1.9739492000080645,353.85392780043185,None,353.85392780043185,None,2022-07-18-12:33:52.138974,355.8562588002533,356.1683489000425,355.8562588002533,None,None,355.8562588002533,None,356.6683945300989,None,,,,21006,0001,2022_Jul_18_1228,localizer,2021.1.3,59.56405062526309,
block,objects,objects015.bmp,,,,,0,185,185,185,,,,,,,,,,,,,,,,,,,,,,,,,,,,,,,,,,,,,,,,,,None,,356.6683945300989,None,356.6683945300989,None,2022-07-18-12:33:52.950330,356.6810870002955,356.9856206001714,356.6810870002955,None,None,356.6810870002955,None,357.48527083024385,None,,,,21006,0001,2022_Jul_18_1228,localizer,2021.1.3,59.56405062526309,
block,objects,objects011.bmp,,,,,0,186,186,186,,,,,,,,,,,,,,,,,,,,,,,,,,,,,,,,,,,,,,,,,,None,,357.48527083024385,None,357.48527083024385,None,2022-07-18-12:33:53.768211,357.48644020035863,357.8022525999695,357.48644020035863,None,None,357.48644020035863,None,358.3019245303236,None,,,,21006,0001,2022_Jul_18_1228,localizer,2021.1.3,59.56405062526309,
block,objects,objects046.bmp,,,,,0,187,187,187,,,,,,,,,,,,,,,,,,,,,,,,,,,,,,,,,,,,,,,,,,None,,358.3019245303236,None,358.3019245303236,None,2022-07-18-12:33:54.584826,358.3029036000371,358.60233030002564,358.3029036000371,None,None,358.3029036000371,None,359.10221743015575,None,,,,21006,0001,2022_Jul_18_1228,localizer,2021.1.3,59.56405062526309,
block,objects,objects056.bmp,,,,,0,188,188,188,,,,,,,,,,,,,,,,,,,,,,,,,,,,,,,,,,,,,,,,,,None,,359.10221743015575,None,359.10221743015575,None,2022-07-18-12:33:55.387174,359.1052108001895,359.41925740009174,359.1052108001895,359.1052108001895,None,359.1052108001895,359.1052108001895,359.9199198301882,None,,,,21006,0001,2022_Jul_18_1228,localizer,2021.1.3,59.56405062526309,
block,objects,objects029.bmp,,,,,0,189,189,189,,,,,,,,,,,,,,,,,,,,,,,,,,,,,,,,,,,,,,,,,,None,,359.9199198301882,None,359.9199198301882,None,2022-07-18-12:33:56.205833,359.93419340020046,360.2356604002416,359.93419340020046,None,None,359.93419340020046,None,360.7353750303388,None,,,,21006,0001,2022_Jul_18_1228,localizer,2021.1.3,59.56405062526309,
block,objects,objects080.bmp,,,,,0,190,190,190,,,,,,,,,,,,,,,,,,,,,,,,,,,,,,,,,,,,,,,,,,None,,360.7353750303388,None,360.7353750303388,None,2022-07-18-12:33:57.017739,360.74392120027915,361.05225590011105,360.74392120027915,None,None,360.74392120027915,None,361.552332330402,None,,,,21006,0001,2022_Jul_18_1228,localizer,2021.1.3,59.56405062526309,
block,objects,objects043.bmp,,,,,0,191,191,191,,,,,,,,,,,,,,,,,,,,,,,,,,,,,,,,,,,,,,,,,,None,,361.552332330402,None,361.552332330402,None,2022-07-18-12:33:57.835269,361.5630364003591,361.8690722002648,361.5630364003591,None,None,361.5630364003591,None,362.36885203039276,None,,,,21006,0001,2022_Jul_18_1228,localizer,2021.1.3,59.56405062526309,
block,objects,objects081.bmp,,,,,0,192,192,192,,,,,,,,,,,,,,,,,,,,,,,,,,,,,,,,,,,,,,,,,,None,,362.36885203039276,None,362.36885203039276,None,2022-07-18-12:33:58.651790,362.369868400041,362.685779100284,362.369868400041,None,None,362.369868400041,None,363.1692805303261,None,,,,21006,0001,2022_Jul_18_1228,localizer,2021.1.3,59.56405062526309,
block,objects,objects049.bmp,,,,,0,193,193,193,,,,,,,,,,,,,,,,,,,,,,,,,,,,,,,,,,,,,,,,,,None,,363.1692805303261,None,363.1692805303261,None,2022-07-18-12:33:59.455407,363.1837884001434,363.4856874002144,363.1837884001434,363.1837884001434,None,363.1837884001434,363.1837884001434,363.9866591299884,None,,,,21006,0001,2022_Jul_18_1228,localizer,2021.1.3,59.56405062526309,
block,objects,objects088.bmp,,,,,0,194,194,194,,,,,,,,,,,,,,,,,,,,,,,,,,,,,,,,,,,,,,,,,,None,,363.9866591299884,None,363.9866591299884,None,2022-07-18-12:34:00.271557,364.0011698002927,364.30244110012427,364.0011698002927,None,None,364.0011698002927,None,364.80248253038155,None,,,,21006,0001,2022_Jul_18_1228,localizer,2021.1.3,59.56405062526309,
block,objects,objects077.bmp,,,,,0,195,195,195,,,,,,,,,,,,,,,,,,,,,,,,,,,,,,,,,,,,,,,,,,None,,364.80248253038155,None,364.80248253038155,None,2022-07-18-12:34:01.086629,364.81427950039506,365.11870700027794,364.81427950039506,None,None,364.81427950039506,None,365.6184469302185,None,,,,21006,0001,2022_Jul_18_1228,localizer,2021.1.3,59.56405062526309,
block,objects,objects033.bmp,,,,,0,196,196,196,,,,,,,,,,,,,,,,,,,,,,,,,,,,,,,,,,,,,,,,,,None,,365.6184469302185,None,365.6184469302185,None,2022-07-18-12:34:01.901390,365.6202770001255,365.9356851000339,365.6202770001255,None,None,365.6202770001255,None,366.4249718300067,None,,,,21006,0001,2022_Jul_18_1228,localizer,2021.1.3,59.56405062526309,
block,objects,objects082.bmp,,,,,0,197,197,197,,,,,,,,,,,,,,,,,,,,,,,,,,,,,,,,,,,,,,,,,,None,,366.4249718300067,None,366.4249718300067,None,2022-07-18-12:34:02.708212,366.42961130011827,366.73586030025035,366.42961130011827,None,None,366.42961130011827,None,367.2358241303824,None,,,,21006,0001,2022_Jul_18_1228,localizer,2021.1.3,59.56405062526309,
block_end,objects,objects018.bmp,,,,,0,198,198,198,,,,,,,,,,,,,,,,,,,,,,,,,,,,,,,,,,,,,,,,,,None,,367.2358241303824,None,367.2358241303824,None,2022-07-18-12:34:03.519752,367.24783360026777,367.55883590038866,367.24783360026777,None,None,367.24783360026777,None,368.0526322302409,None,,,,21006,0001,2022_Jul_18_1228,localizer,2021.1.3,59.56405062526309,
block_start,scenes,scenes032.bmp,,,,,0,199,199,199,,,,,,,,,,,,,,,,,,,,,,,,,,,,,,,,,,,,,,,,,,t,1.7752323998138309,368.0526382001117,None,368.0526382001117,None,2022-07-18-12:34:06.133407,369.85420920001343,370.1687749000266,369.85420920001343,None,None,369.85420920001343,None,370.66879823002967,None,,,,21006,0001,2022_Jul_18_1228,localizer,2021.1.3,59.56405062526309,
block,scenes,scenes050.bmp,,,,,0,200,200,200,,,,,,,,,,,,,,,,,,,,,,,,,,,,,,,,,,,,,,,,,,None,,370.66879823002967,None,370.66879823002967,None,2022-07-18-12:34:06.951735,370.66993580013514,370.9857911001891,370.66993580013514,None,None,370.66993580013514,None,371.48508783001455,None,,,,21006,0001,2022_Jul_18_1228,localizer,2021.1.3,59.56405062526309,
block,scenes,scenes005.bmp,,,,,0,201,201,201,,,,,,,,,,,,,,,,,,,,,,,,,,,,,,,,,,,,,,,,,,None,,371.48508783001455,None,371.48508783001455,None,2022-07-18-12:34:07.768033,371.4868000000715,371.8024890003726,371.4868000000715,None,None,371.4868000000715,None,372.30215573022144,None,,,,21006,0001,2022_Jul_18_1228,localizer,2021.1.3,59.56405062526309,
block,scenes,scenes033.bmp,,,,,0,202,202,202,,,,,,,,,,,,,,,,,,,,,,,,,,,,,,,,,,,,,,,,,,None,,372.30215573022144,None,372.30215573022144,None,2022-07-18-12:34:08.585096,372.3122460003942,372.6189410001971,372.3122460003942,None,None,372.3122460003942,None,373.11823833025994,None,,,,21006,0001,2022_Jul_18_1228,localizer,2021.1.3,59.56405062526309,
block,scenes,scenes042.bmp,,,,,0,203,203,203,,,,,,,,,,,,,,,,,,,,,,,,,,,,,,,,,,,,,,,,,,None,,373.11823833025994,None,373.11823833025994,None,2022-07-18-12:34:09.400905,373.1201218999922,373.4356324002147,373.1201218999922,None,None,373.1201218999922,None,373.93549013035374,None,,,,21006,0001,2022_Jul_18_1228,localizer,2021.1.3,59.56405062526309,
block,scenes,scenes027.bmp,,,,,0,204,204,204,,,,,,,,,,,,,,,,,,,,,,,,,,,,,,,,,,,,,,,,,,None,,373.93549013035374,None,373.93549013035374,None,2022-07-18-12:34:10.218431,373.93653190042824,374.25246480014175,373.93653190042824,None,None,373.93653190042824,None,374.75200943034145,None,,,,21006,0001,2022_Jul_18_1228,localizer,2021.1.3,59.56405062526309,
block,scenes,scenes007.bmp,,,,,0,205,205,205,,,,,,,,,,,,,,,,,,,,,,,,,,,,,,,,,,,,,,,,,,None,,374.75200943034145,None,374.75200943034145,None,2022-07-18-12:34:11.034947,374.7664769003168,375.069058699999,374.7664769003168,None,None,374.7664769003168,None,375.56923813037577,None,,,,21006,0001,2022_Jul_18_1228,localizer,2021.1.3,59.56405062526309,
block,scenes,scenes002.bmp,,,,,0,206,206,206,,,,,,,,,,,,,,,,,,,,,,,,,,,,,,,,,,,,,,,,,,None,,375.56923813037577,None,375.56923813037577,None,2022-07-18-12:34:11.852175,375.5756425000727,375.88612999999896,375.5756425000727,None,None,375.5756425000727,None,376.38580603003504,None,,,,21006,0001,2022_Jul_18_1228,localizer,2021.1.3,59.56405062526309,
block,scenes,scenes044.bmp,,,,,0,207,207,207,,,,,,,,,,,,,,,,,,,,,,,,,,,,,,,,,,,,,,,,,,None,,376.38580603003504,None,376.38580603003504,None,2022-07-18-12:34:12.668742,376.38669180031866,376.7023523002863,376.38669180031866,None,None,376.38669180031866,None,377.191786229983,None,,,,21006,0001,2022_Jul_18_1228,localizer,2021.1.3,59.56405062526309,
block,scenes,scenes091.bmp,,,,,0,208,208,208,,,,,,,,,,,,,,,,,,,,,,,,,,,,,,,,,,,,,,,,,,None,,377.191786229983,None,377.191786229983,None,2022-07-18-12:34:13.474730,377.2008383003995,377.5022852001712,377.2008383003995,None,None,377.2008383003995,None,378.00233583003285,None,,,,21006,0001,2022_Jul_18_1228,localizer,2021.1.3,59.56405062526309,
block,scenes,scenes049.bmp,,,,,0,209,209,209,,,,,,,,,,,,,,,,,,,,,,,,,,,,,,,,,,,,,,,,,,None,,378.00233583003285,None,378.00233583003285,None,2022-07-18-12:34:14.286474,378.0033140000887,378.3188888002187,378.0033140000887,None,None,378.0033140000887,None,378.8188605302945,None,,,,21006,0001,2022_Jul_18_1228,localizer,2021.1.3,59.56405062526309,
block,scenes,scenes049.bmp,,,,,0,210,210,210,,,,,,,,,,,,,,,,,,,,,,,,,,,,,,,,,,,,,,,,,,None,,378.8188605302945,None,378.8188605302945,None,2022-07-18-12:34:15.101801,378.81999420002103,379.1352717000991,378.81999420002103,None,y,378.81999420002103,None,379.63561753034594,None,0.6666834000498056,,,21006,0001,2022_Jul_18_1228,localizer,2021.1.3,59.56405062526309,
block,scenes,scenes064.bmp,,,,,0,211,211,211,,,,,,,,,,,,,,,,,,,,,,,,,,,,,,,,,,,,,,,,,,None,,379.63561753034594,None,379.63561753034594,None,2022-07-18-12:34:15.917908,379.63696340005845,379.9521618001163,379.63696340005845,None,None,379.63696340005845,None,380.45211383039134,None,,,,21006,0001,2022_Jul_18_1228,localizer,2021.1.3,59.56405062526309,
block,scenes,scenes054.bmp,,,,,0,212,212,212,,,,,,,,,,,,,,,,,,,,,,,,,,,,,,,,,,,,,,,,,,None,,380.45211383039134,None,380.45211383039134,None,2022-07-18-12:34:16.735337,380.4532820000313,380.76927160006016,380.4532820000313,None,None,380.4532820000313,None,381.2523996302858,None,,,,21006,0001,2022_Jul_18_1228,localizer,2021.1.3,59.56405062526309,
block_end,scenes,scenes073.bmp,,,,,0,213,213,213,,,,,,,,,,,,,,,,,,,,,,,,,,,,,,,,,,,,,,,,,,None,,381.2523996302858,None,381.2523996302858,None,2022-07-18-12:34:17.537555,381.2664368003607,381.5692029003985,381.2664368003607,381.2664368003607,None,381.2664368003607,381.2664368003607,382.06894913027065,None,,,,21006,0001,2022_Jul_18_1228,localizer,2021.1.3,59.56405062526309,
block_start,scrambled,scrambled066.bmp,,,,,0,214,214,214,,,,,,,,,,,,,,,,,,,,,,,,,,,,,,,,,,,,,,,,,,t,1.758859499823302,382.0691439001821,None,382.0691439001821,None,2022-07-18-12:34:20.134251,383.8539838003926,384.169006400276,383.8539838003926,None,None,383.8539838003926,None,384.66869823019954,None,,,,21006,0001,2022_Jul_18_1228,localizer,2021.1.3,59.56405062526309,
block,scrambled,scrambled053.bmp,,,,,0,215,215,215,,,,,,,,,,,,,,,,,,,,,,,,,,,,,,,,,,,,,,,,,,None,,384.66869823019954,None,384.66869823019954,None,2022-07-18-12:34:20.951642,384.67742040008307,384.985489200335,384.67742040008307,None,None,384.67742040008307,None,385.48672543037685,None,,,,21006,0001,2022_Jul_18_1228,localizer,2021.1.3,59.56405062526309,
block,scrambled,scrambled055.bmp,,,,,0,216,216,216,,,,,,,,,,,,,,,,,,,,,,,,,,,,,,,,,,,,,,,,,,None,,385.48672543037685,None,385.48672543037685,None,2022-07-18-12:34:21.771641,385.49933580029756,385.80240400042385,385.49933580029756,None,None,385.49933580029756,None,386.30227963011714,None,,,,21006,0001,2022_Jul_18_1228,localizer,2021.1.3,59.56405062526309,
block,scrambled,scrambled038.bmp,,,,,0,217,217,217,,,,,,,,,,,,,,,,,,,,,,,,,,,,,,,,,,,,,,,,,,None,,386.30227963011714,None,386.30227963011714,None,2022-07-18-12:34:22.585347,386.3032276001759,386.61896340036765,386.3032276001759,None,None,386.3032276001759,None,387.1025360300206,None,,,,21006,0001,2022_Jul_18_1228,localizer,2021.1.3,59.56405062526309,
block,scrambled,scrambled014.bmp,,,,,0,218,218,218,,,,,,,,,,,,,,,,,,,,,,,,,,,,,,,,,,,,,,,,,,None,,387.1025360300206,None,387.1025360300206,None,2022-07-18-12:34:23.388677,387.10554570006207,387.41909470036626,387.10554570006207,387.10554570006207,None,387.10554570006207,387.10554570006207,387.9225975302048,None,,,,21006,0001,2022_Jul_18_1228,localizer,2021.1.3,59.56405062526309,
block,scrambled,scrambled071.bmp,,,,,0,219,219,219,,,,,,,,,,,,,,,,,,,,,,,,,,,,,,,,,,,,,,,,,,None,,387.9225975302048,None,387.9225975302048,None,2022-07-18-12:34:24.212936,387.938634800259,388.2521381000988,387.938634800259,None,None,387.938634800259,None,388.7353656300344,None,,,,21006,0001,2022_Jul_18_1228,localizer,2021.1.3,59.56405062526309,
block,scrambled,scrambled013.bmp,,,,,0,220,220,220,,,,,,,,,,,,,,,,,,,,,,,,,,,,,,,,,,,,,,,,,,None,,388.7353656300344,None,388.7353656300344,None,2022-07-18-12:34:25.018555,388.74052030034363,389.0529539003037,388.74052030034363,None,None,388.74052030034363,None,389.5521947302856,None,,,,21006,0001,2022_Jul_18_1228,localizer,2021.1.3,59.56405062526309,
block,scrambled,scrambled061.bmp,,,,,0,221,221,221,,,,,,,,,,,,,,,,,,,,,,,,,,,,,,,,,,,,,,,,,,None,,389.5521947302856,None,389.5521947302856,None,2022-07-18-12:34:25.835135,389.56179900001734,389.86907720007,389.56179900001734,None,None,389.56179900001734,None,390.37509963000196,None,,,,21006,0001,2022_Jul_18_1228,localizer,2021.1.3,59.56405062526309,
block,scrambled,scrambled036.bmp,,,,,0,222,222,222,,,,,,,,,,,,,,,,,,,,,,,,,,,,,,,,,,,,,,,,,,None,,390.37509963000196,None,390.37509963000196,None,2022-07-18-12:34:26.660302,390.37965700030327,390.6858532000333,390.37965700030327,None,None,390.37965700030327,None,391.1857121301815,None,,,,21006,0001,2022_Jul_18_1228,localizer,2021.1.3,59.56405062526309,
block,scrambled,scrambled056.bmp,,,,,0,223,223,223,,,,,,,,,,,,,,,,,,,,,,,,,,,,,,,,,,,,,,,,,,None,,391.1857121301815,None,391.1857121301815,None,2022-07-18-12:34:27.468652,391.19417909998447,391.50207470031455,391.19417909998447,None,None,391.19417909998447,None,392.0024550300092,None,,,,21006,0001,2022_Jul_18_1228,localizer,2021.1.3,59.56405062526309,
block,scrambled,scrambled022.bmp,,,,,0,224,224,224,,,,,,,,,,,,,,,,,,,,,,,,,,,,,,,,,,,,,,,,,,None,,392.0024550300092,None,392.0024550300092,None,2022-07-18-12:34:28.285387,392.0131344003603,392.31930160010234,392.0131344003603,None,None,392.0131344003603,None,392.81917093032973,None,,,,21006,0001,2022_Jul_18_1228,localizer,2021.1.3,59.56405062526309,
block,scrambled,scrambled041.bmp,,,,,0,225,225,225,,,,,,,,,,,,,,,,,,,,,,,,,,,,,,,,,,,,,,,,,,None,,392.81917093032973,None,392.81917093032973,None,2022-07-18-12:34:29.102237,392.8200128003955,393.1358055002056,392.8200128003955,None,None,392.8200128003955,None,393.63531813016164,None,,,,21006,0001,2022_Jul_18_1228,localizer,2021.1.3,59.56405062526309,
block,scrambled,scrambled054.bmp,,,,,0,226,226,226,,,,,,,,,,,,,,,,,,,,,,,,,,,,,,,,,,,,,,,,,,None,,393.63531813016164,None,393.63531813016164,None,2022-07-18-12:34:29.918266,393.63709600036964,393.95243940036744,393.63709600036964,None,None,393.63709600036964,None,394.4523112302646,None,,,,21006,0001,2022_Jul_18_1228,localizer,2021.1.3,59.56405062526309,
block,scrambled,scrambled015.bmp,,,,,0,227,227,227,,,,,,,,,,,,,,,,,,,,,,,,,,,,,,,,,,,,,,,,,,None,,394.4523112302646,None,394.4523112302646,None,2022-07-18-12:34:30.735543,394.4533259002492,394.75857700034976,394.4533259002492,None,None,394.4533259002492,None,395.2687996303663,None,,,,21006,0001,2022_Jul_18_1228,localizer,2021.1.3,59.56405062526309,
block_end,scrambled,scrambled043.bmp,,,,,0,228,228,228,,,,,,,,,,,,,,,,,,,,,,,,,,,,,,,,,,,,,,,,,,None,,395.2687996303663,None,395.2687996303663,None,2022-07-18-12:34:31.551515,395.2787749003619,395.5854918002151,395.2787749003619,None,None,395.2787749003619,None,396.0862029301003,None,,,,21006,0001,2022_Jul_18_1228,localizer,2021.1.3,59.56405062526309,
block_start,faces,faces081.bmp,,,,,0,229,229,229,,,,,,,,,,,,,,,,,,,,,,,,,,,,,,,,,,,,,,,,,,t,1.7415471002459526,396.086273400113,None,396.086273400113,None,2022-07-18-12:34:34.134701,397.86314030038193,398.16916810022667,397.86314030038193,None,None,397.86314030038193,None,398.66905313022437,None,,,,21006,0001,2022_Jul_18_1228,localizer,2021.1.3,59.56405062526309,
block,faces,faces027.bmp,,,,,0,230,230,230,,,,,,,,,,,,,,,,,,,,,,,,,,,,,,,,,,,,,,,,,,None,,398.66905313022437,None,398.66905313022437,None,2022-07-18-12:34:34.952225,398.6813494004309,398.98552080010995,398.6813494004309,None,None,398.6813494004309,None,399.4855211301707,None,,,,21006,0001,2022_Jul_18_1228,localizer,2021.1.3,59.56405062526309,
block,faces,faces041.bmp,,,,,0,231,231,231,,,,,,,,,,,,,,,,,,,,,,,,,,,,,,,,,,,,,,,,,,None,,399.4855211301707,None,399.4855211301707,None,2022-07-18-12:34:35.768751,399.48692200006917,399.8023897004314,399.48692200006917,None,None,399.48692200006917,None,400.3022087303922,None,,,,21006,0001,2022_Jul_18_1228,localizer,2021.1.3,59.56405062526309,
block,faces,faces039.bmp,,,,,0,232,232,232,,,,,,,,,,,,,,,,,,,,,,,,,,,,,,,,,,,,,,,,,,None,,400.3022087303922,None,400.3022087303922,None,2022-07-18-12:34:36.585149,400.30344280041754,400.6191484001465,400.30344280041754,None,None,400.30344280041754,None,401.1033676302992,None,,,,21006,0001,2022_Jul_18_1228,localizer,2021.1.3,59.56405062526309,
block,faces,faces082.bmp,,,,,0,233,233,233,,,,,,,,,,,,,,,,,,,,,,,,,,,,,,,,,,,,,,,,,,None,,401.1033676302992,None,401.1033676302992,None,2022-07-18-12:34:37.390279,401.10898600006476,401.42064080014825,401.10898600006476,401.10898600006476,None,401.10898600006476,401.10898600006476,401.91964643020185,None,,,,21006,0001,2022_Jul_18_1228,localizer,2021.1.3,59.56405062526309,
block,faces,faces084.bmp,,,,,0,234,234,234,,,,,,,,,,,,,,,,,,,,,,,,,,,,,,,,,,,,,,,,,,None,,401.91964643020185,None,401.91964643020185,None,2022-07-18-12:34:38.203553,401.92172410013154,402.23606050014496,401.92172410013154,None,None,401.92172410013154,None,402.7357866302133,None,,,,21006,0001,2022_Jul_18_1228,localizer,2021.1.3,59.56405062526309,
block,faces,faces026.bmp,,,,,0,235,235,235,,,,,,,,,,,,,,,,,,,,,,,,,,,,,,,,,,,,,,,,,,None,,402.7357866302133,None,402.7357866302133,None,2022-07-18-12:34:39.018704,402.77535230014473,403.086067000404,402.77535230014473,None,None,402.77535230014473,None,403.55220743026587,None,,,,21006,0001,2022_Jul_18_1228,localizer,2021.1.3,59.56405062526309,
block,faces,faces064.bmp,,,,,0,236,236,236,,,,,,,,,,,,,,,,,,,,,,,,,,,,,,,,,,,,,,,,,,None,,403.55220743026587,None,403.55220743026587,None,2022-07-18-12:34:39.835147,403.5615419000387,403.8689296003431,403.5615419000387,None,None,403.5615419000387,None,404.3690238300711,None,,,,21006,0001,2022_Jul_18_1228,localizer,2021.1.3,59.56405062526309,
block,faces,faces008.bmp,,,,,0,237,237,237,,,,,,,,,,,,,,,,,,,,,,,,,,,,,,,,,,,,,,,,,,None,,404.3690238300711,None,404.3690238300711,None,2022-07-18-12:34:40.651969,404.3796396004036,404.685686300043,404.3796396004036,None,None,404.3796396004036,None,405.185767230019,None,,,,21006,0001,2022_Jul_18_1228,localizer,2021.1.3,59.56405062526309,
block,faces,faces061.bmp,,,,,0,238,238,238,,,,,,,,,,,,,,,,,,,,,,,,,,,,,,,,,,,,,,,,,,None,,405.185767230019,None,405.185767230019,None,2022-07-18-12:34:41.468584,405.1866678004153,405.50251150038093,405.1866678004153,None,None,405.1866678004153,None,405.9858453300782,None,,,,21006,0001,2022_Jul_18_1228,localizer,2021.1.3,59.56405062526309,
block,faces,faces005.bmp,,,,,0,239,239,239,,,,,,,,,,,,,,,,,,,,,,,,,,,,,,,,,,,,,,,,,,None,,405.9858453300782,None,405.9858453300782,None,2022-07-18-12:34:42.271002,405.98897200031206,406.3026670999825,405.98897200031206,405.98897200031206,None,405.98897200031206,405.98897200031206,406.80213213004174,None,,,,21006,0001,2022_Jul_18_1228,localizer,2021.1.3,59.56405062526309,
block,faces,faces016.bmp,,,,,0,240,240,240,,,,,,,,,,,,,,,,,,,,,,,,,,,,,,,,,,,,,,,,,,None,,406.80213213004174,None,406.80213213004174,None,2022-07-18-12:34:43.085335,406.80357710039243,407.1192212002352,406.80357710039243,None,None,406.80357710039243,None,407.61920233014973,None,,,,21006,0001,2022_Jul_18_1228,localizer,2021.1.3,59.56405062526309,
block,faces,faces002.bmp,,,,,0,241,241,241,,,,,,,,,,,,,,,,,,,,,,,,,,,,,,,,,,,,,,,,,,None,,407.61920233014973,None,407.61920233014973,None,2022-07-18-12:34:43.902363,407.62009630026296,407.9422852001153,407.62009630026296,None,None,407.62009630026296,None,408.43492943039166,None,,,,21006,0001,2022_Jul_18_1228,localizer,2021.1.3,59.56405062526309,
block,faces,faces067.bmp,,,,,0,242,242,242,,,,,,,,,,,,,,,,,,,,,,,,,,,,,,,,,,,,,,,,,,None,,408.43492943039166,None,408.43492943039166,None,2022-07-18-12:34:44.717873,408.4455876001157,408.75241510011256,408.4455876001157,None,None,408.4455876001157,None,409.25260853013026,None,,,,21006,0001,2022_Jul_18_1228,localizer,2021.1.3,59.56405062526309,
block_end,faces,faces017.bmp,,,,,0,243,243,243,,,,,,,,,,,,,,,,,,,,,,,,,,,,,,,,,,,,,,,,,,None,,409.25260853013026,None,409.25260853013026,None,2022-07-18-12:34:45.535545,409.2639151001349,409.56888610031456,409.2639151001349,None,None,409.2639151001349,None,410.05713903009894,None,,,,21006,0001,2022_Jul_18_1228,localizer,2021.1.3,59.56405062526309,
,,,,,,,,,,,,,,,,,,,,,,,,,,,,,,,,,,,,,,,,,,,,,,,,,,,,,,,,,,,,,,,,,,,,,410.05474050017074,None,,,,,,,
