block_type,condition,img_name,Button.thisRepN,Button.thisTrialN,Button.thisN,Button.thisIndex,trials.thisRepN,trials.thisTrialN,trials.thisN,trials.thisIndex,Ready_experimenter_text.started,Ready_experimenter_text.stopped,Ready_experimenter_resp.keys,Ready_experimenter_resp.rt,Ready_experimenter_resp.started,Ready_experimenter_resp.stopped,Alignment_background.started,Alignment_background.stopped,Alignment_image.started,Alignment_image.stopped,Alignment_resp.keys,Alignment_resp.rt,Alignment_resp.started,Alignment_resp.stopped,Button_text.started,Button_text.stopped,Index_text.started,Index_text.stopped,Index_resp.keys,Index_resp.rt,Index_resp.started,Index_resp.stopped,Middle_text.started,Middle_text.stopped,Middle_resp.keys,Middle_resp.rt,Middle_resp.started,Middle_resp.stopped,Repeat_text.started,Repeat_text.stopped,Repeat_resp.keys,Repeat_resp.corr,Repeat_resp.rt,Repeat_resp.started,Repeat_resp.stopped,instruction_text.started,instruction_text.stopped,key_resp.keys,key_resp.rt,key_resp.started,key_resp.stopped,scanner_t.keys,scanner_t.rt,scanner_t.started,scanner_t.stopped,fixation_wait_for_t.started,fixation_wait_for_t.stopped,real_timestamp_trial_start,image.started,image.stopped,fixation.started,fixation.stopped,repeat_response.keys,repeat_response.started,repeat_response.stopped,fixation_null.started,fixation_null.stopped,repeat_response.rt,end_text.started,end_text.stopped,participant,run,date,expName,psychopyVersion,frameRate,
,,,,,,,,,,,14.60837520007044,None,return,8.557804299984127,14.60837520007044,None,,,,,,,,,,,,,,,,,,,,,,,,,,,,,,,,,,,,,,,,,,,,,,,,,,,,,,,12005,0002,2021_Oct_15_1245,localizer,2021.1.3,60.11204881644983,
,,,,,,,,,,,,,,,,,23.214529200224206,None,23.214529200224206,None,return,2.128700800007209,23.214529200224206,None,,,,,,,,,,,,,,,,,,,,,,,,,,,,,,,,,,,,,,,,,,,,,,,12005,0002,2021_Oct_15_1245,localizer,2021.1.3,60.11204881644983,
,,,0,0,0,0,,,,,,,,,,,,,,,,,,,25.362395000178367,None,26.36479810019955,None,y,2.359546300023794,26.36479810019955,None,28.744703500065953,None,b,1.0457776999101043,28.744703500065953,None,29.811249800026417,None,n,0,2.44689240003936,29.811249800026417,None,,,,,,,,,,,,,,,,,,,,,,,,,,12005,0002,2021_Oct_15_1245,localizer,2021.1.3,60.11204881644983,
,,,,,,,,,,,,,,,,,,,,,,,,,,,,,,,,,,,,,,,,,,,,,,32.27823630021885,None,y,38.4470634998288,32.27823630021885,None,,,,,,,,,,,,,,,,,,,,12005,0002,2021_Oct_15_1245,localizer,2021.1.3,60.11204881644983,
block_start,scenes,scenes034.bmp,,,,,0,0,0,0,,,,,,,,,,,,,,,,,,,,,,,,,,,,,,,,,,,,,,,,,,t,16.86147730005905,70.76997810020112,None,70.76997810020112,None,2021-10-15-12:46:53.227593,87.67321540019475,87.97920580022037,87.67321540019475,None,None,87.67321540019475,None,88.47821860015392,None,,,,12005,0002,2021_Oct_15_1245,localizer,2021.1.3,60.11204881644983,
block,scenes,scenes023.bmp,,,,,0,1,1,1,,,,,,,,,,,,,,,,,,,,,,,,,,,,,,,,,,,,,,,,,,None,,88.47821860015392,None,88.47821860015392,None,2021-10-15-12:46:54.046795,88.48713060002774,88.79446900007315,88.48713060002774,None,None,88.48713060002774,None,89.29419730021618,None,,,,12005,0002,2021_Oct_15_1245,localizer,2021.1.3,60.11204881644983,
block,scenes,scenes084.bmp,,,,,0,2,2,2,,,,,,,,,,,,,,,,,,,,,,,,,,,,,,,,,,,,,,,,,,None,,89.29419730021618,None,89.29419730021618,None,2021-10-15-12:46:54.860594,89.29526840010658,89.5944595001638,89.29526840010658,None,None,89.29526840010658,None,90.09593060007319,None,,,,12005,0002,2021_Oct_15_1245,localizer,2021.1.3,60.11204881644983,
block,scenes,scenes019.bmp,,,,,0,3,3,3,,,,,,,,,,,,,,,,,,,,,,,,,,,,,,,,,,,,,,,,,,None,,90.09593060007319,None,90.09593060007319,None,2021-10-15-12:46:55.665321,90.10604620003141,90.41101030004211,90.10604620003141,90.10604620003141,None,90.10604620003141,90.10604620003141,90.91109560010955,None,,,,12005,0002,2021_Oct_15_1245,localizer,2021.1.3,60.11204881644983,
block,scenes,scenes082.bmp,,,,,0,4,4,4,,,,,,,,,,,,,,,,,,,,,,,,,,,,,,,,,,,,,,,,,,None,,90.91109560010955,None,90.91109560010955,None,2021-10-15-12:46:56.477488,90.9208877000492,91.22782930009998,90.9208877000492,None,None,90.9208877000492,None,91.72861350001767,None,,,,12005,0002,2021_Oct_15_1245,localizer,2021.1.3,60.11204881644983,
block,scenes,scenes044.bmp,,,,,0,5,5,5,,,,,,,,,,,,,,,,,,,,,,,,,,,,,,,,,,,,,,,,,,None,,91.72861350001767,None,91.72861350001767,None,2021-10-15-12:46:57.296167,91.72907170001417,92.04407020006329,91.72907170001417,None,None,91.72907170001417,None,92.5287086002063,None,,,,12005,0002,2021_Oct_15_1245,localizer,2021.1.3,60.11204881644983,
block,scenes,scenes073.bmp,,,,,0,6,6,6,,,,,,,,,,,,,,,,,,,,,,,,,,,,,,,,,,,,,,,,,,None,,92.5287086002063,None,92.5287086002063,None,2021-10-15-12:46:58.098277,92.54422710021026,92.85179470013827,92.54422710021026,92.54422710021026,None,92.54422710021026,92.54422710021026,93.34408100019209,None,,,,12005,0002,2021_Oct_15_1245,localizer,2021.1.3,60.11204881644983,
block,scenes,scenes047.bmp,,,,,0,7,7,7,,,,,,,,,,,,,,,,,,,,,,,,,,,,,,,,,,,,,,,,,,None,,93.34408100019209,None,93.34408100019209,None,2021-10-15-12:46:58.909357,93.34583690017462,93.66086240019649,93.34583690017462,None,None,93.34583690017462,None,94.16109700012021,None,,,,12005,0002,2021_Oct_15_1245,localizer,2021.1.3,60.11204881644983,
block,scenes,scenes054.bmp,,,,,0,8,8,8,,,,,,,,,,,,,,,,,,,,,,,,,,,,,,,,,,,,,,,,,,None,,94.16109700012021,None,94.16109700012021,None,2021-10-15-12:46:59.728063,94.16184060019441,94.46070180018432,94.16184060019441,None,None,94.16184060019441,None,94.96182360011153,None,,,,12005,0002,2021_Oct_15_1245,localizer,2021.1.3,60.11204881644983,
block,scenes,scenes065.bmp,,,,,0,9,9,9,,,,,,,,,,,,,,,,,,,,,,,,,,,,,,,,,,,,,,,,,,None,,94.96182360011153,None,94.96182360011153,None,2021-10-15-12:47:00.531074,94.97078690002672,95.27754100016318,94.97078690002672,94.97078690002672,None,94.97078690002672,94.97078690002672,95.77783920010552,None,,,,12005,0002,2021_Oct_15_1245,localizer,2021.1.3,60.11204881644983,
block,scenes,scenes083.bmp,,,,,0,10,10,10,,,,,,,,,,,,,,,,,,,,,,,,,,,,,,,,,,,,,,,,,,None,,95.77783920010552,None,95.77783920010552,None,2021-10-15-12:47:01.344690,95.77859040000476,96.07781710010022,95.77859040000476,None,None,95.77859040000476,None,96.57779080001637,None,,,,12005,0002,2021_Oct_15_1245,localizer,2021.1.3,60.11204881644983,
block,scenes,scenes045.bmp,,,,,0,11,11,11,,,,,,,,,,,,,,,,,,,,,,,,,,,,,,,,,,,,,,,,,,None,,96.57779080001637,None,96.57779080001637,None,2021-10-15-12:47:02.145181,96.58749830001034,96.89380870014429,96.58749830001034,96.58749830001034,None,96.58749830001034,96.58749830001034,97.39446500013582,None,,,,12005,0002,2021_Oct_15_1245,localizer,2021.1.3,60.11204881644983,
block,scenes,scenes062.bmp,,,,,0,12,12,12,,,,,,,,,,,,,,,,,,,,,,,,,,,,,,,,,,,,,,,,,,None,,97.39446500013582,None,97.39446500013582,None,2021-10-15-12:47:02.960856,97.40492050000466,97.71098390012048,97.40492050000466,None,None,97.40492050000466,None,98.2112281001173,None,,,,12005,0002,2021_Oct_15_1245,localizer,2021.1.3,60.11204881644983,
block,scenes,scenes080.bmp,,,,,0,13,13,13,,,,,,,,,,,,,,,,,,,,,,,,,,,,,,,,,,,,,,,,,,None,,98.2112281001173,None,98.2112281001173,None,2021-10-15-12:47:03.777619,98.21192620019428,98.51093360013328,98.21192620019428,None,None,98.21192620019428,None,99.01096710003912,None,,,,12005,0002,2021_Oct_15_1245,localizer,2021.1.3,60.11204881644983,
block_end,scenes,scenes005.bmp,,,,,0,14,14,14,,,,,,,,,,,,,,,,,,,,,,,,,,,,,,,,,,,,,,,,,,None,,99.01096710003912,None,99.01096710003912,None,2021-10-15-12:47:04.578358,99.01174720004201,99.31092820013873,99.01174720004201,99.01174720004201,None,99.01174720004201,99.01174720004201,99.8107927001547,None,,,,12005,0002,2021_Oct_15_1245,localizer,2021.1.3,60.11204881644983,
block_start,scrambled,scrambled079.bmp,,,,,0,15,15,15,,,,,,,,,,,,,,,,,,,,,,,,,,,,,,,,,,,,,,,,,,t,1.8205497998278588,99.81069130008109,None,99.81069130008109,None,2021-10-15-12:47:07.226382,101.662045000121,101.96086980006658,101.662045000121,None,None,101.662045000121,None,102.46139300009236,None,,,,12005,0002,2021_Oct_15_1245,localizer,2021.1.3,60.11204881644983,
block,scrambled,scrambled014.bmp,,,,,0,16,16,16,,,,,,,,,,,,,,,,,,,,,,,,,,,,,,,,,,,,,,,,,,None,,102.46139300009236,None,102.46139300009236,None,2021-10-15-12:47:08.028782,102.46190680004656,102.76095940009691,102.46190680004656,102.46190680004656,None,102.46190680004656,102.46190680004656,103.26256380020641,None,,,,12005,0002,2021_Oct_15_1245,localizer,2021.1.3,60.11204881644983,
block,scrambled,scrambled051.bmp,,,,,0,17,17,17,,,,,,,,,,,,,,,,,,,,,,,,,,,,,,,,,,,,,,,,,,None,,103.26256380020641,None,103.26256380020641,None,2021-10-15-12:47:08.833524,103.26787820016034,103.5779080002103,103.26787820016034,103.26787820016034,None,103.26787820016034,103.26787820016034,104.07772330008447,None,,,,12005,0002,2021_Oct_15_1245,localizer,2021.1.3,60.11204881644983,
block,scrambled,scrambled087.bmp,,,,,0,18,18,18,,,,,,,,,,,,,,,,,,,,,,,,,,,,,,,,,,,,,,,,,,None,,104.07772330008447,None,104.07772330008447,None,2021-10-15-12:47:09.644120,104.08561600022949,104.39436050015502,104.08561600022949,None,None,104.08561600022949,None,104.89426260022447,None,,,,12005,0002,2021_Oct_15_1245,localizer,2021.1.3,60.11204881644983,
block,scrambled,scrambled027.bmp,,,,,0,19,19,19,,,,,,,,,,,,,,,,,,,,,,,,,,,,,,,,,,,,,,,,,,None,,104.89426260022447,None,104.89426260022447,None,2021-10-15-12:47:10.459893,104.90325510012917,105.21098330011591,104.90325510012917,None,None,104.90325510012917,None,105.71182490023784,None,,,,12005,0002,2021_Oct_15_1245,localizer,2021.1.3,60.11204881644983,
block,scrambled,scrambled037.bmp,,,,,0,20,20,20,,,,,,,,,,,,,,,,,,,,,,,,,,,,,,,,,,,,,,,,,,None,,105.71182490023784,None,105.71182490023784,None,2021-10-15-12:47:11.279266,105.71245210012421,106.01130390004255,105.71245210012421,None,None,105.71245210012421,None,106.51162700005807,None,,,,12005,0002,2021_Oct_15_1245,localizer,2021.1.3,60.11204881644983,
block,scrambled,scrambled020.bmp,,,,,0,21,21,21,,,,,,,,,,,,,,,,,,,,,,,,,,,,,,,,,,,,,,,,,,None,,106.51162700005807,None,106.51162700005807,None,2021-10-15-12:47:12.080009,106.52363490010612,106.82736610015854,106.52363490010612,106.52363490010612,None,106.52363490010612,106.52363490010612,107.32978940010071,None,,,,12005,0002,2021_Oct_15_1245,localizer,2021.1.3,60.11204881644983,
block,scrambled,scrambled011.bmp,,,,,0,22,22,22,,,,,,,,,,,,,,,,,,,,,,,,,,,,,,,,,,,,,,,,,,None,,107.32978940010071,None,107.32978940010071,None,2021-10-15-12:47:12.896748,107.33062180015258,107.64424940012395,107.33062180015258,None,None,107.33062180015258,None,108.14434940018691,None,,,,12005,0002,2021_Oct_15_1245,localizer,2021.1.3,60.11204881644983,
block,scrambled,scrambled011.bmp,,,,,0,23,23,23,,,,,,,,,,,,,,,,,,,,,,,,,,,,,,,,,,,,,,,,,,None,,108.14434940018691,None,108.14434940018691,None,2021-10-15-12:47:13.710747,108.14522760012187,108.4444435001351,108.14522760012187,None,y,108.14522760012187,None,108.94465550011955,None,0.6227647999767214,,,12005,0002,2021_Oct_15_1245,localizer,2021.1.3,60.11204881644983,
block,scrambled,scrambled046.bmp,,,,,0,24,24,24,,,,,,,,,,,,,,,,,,,,,,,,,,,,,,,,,,,,,,,,,,None,,108.94465550011955,None,108.94465550011955,None,2021-10-15-12:47:14.513043,108.95539760007523,109.26479370007291,108.95539760007523,108.95539760007523,None,108.95539760007523,108.95539760007523,109.76248610019684,None,,,,12005,0002,2021_Oct_15_1245,localizer,2021.1.3,60.11204881644983,
block,scrambled,scrambled057.bmp,,,,,0,25,25,25,,,,,,,,,,,,,,,,,,,,,,,,,,,,,,,,,,,,,,,,,,None,,109.76248610019684,None,109.76248610019684,None,2021-10-15-12:47:15.331028,109.77587620005943,110.09938660007901,109.77587620005943,None,None,109.77587620005943,None,110.57864070008509,None,,,,12005,0002,2021_Oct_15_1245,localizer,2021.1.3,60.11204881644983,
block,scrambled,scrambled023.bmp,,,,,0,26,26,26,,,,,,,,,,,,,,,,,,,,,,,,,,,,,,,,,,,,,,,,,,None,,110.57864070008509,None,110.57864070008509,None,2021-10-15-12:47:16.146102,110.5792404001113,110.89410030003637,110.5792404001113,None,None,110.5792404001113,None,111.37828940013424,None,,,,12005,0002,2021_Oct_15_1245,localizer,2021.1.3,60.11204881644983,
block,scrambled,scrambled038.bmp,,,,,0,27,27,27,,,,,,,,,,,,,,,,,,,,,,,,,,,,,,,,,,,,,,,,,,None,,111.37828940013424,None,111.37828940013424,None,2021-10-15-12:47:16.947668,111.39032720006071,111.69392720004544,111.39032720006071,111.39032720006071,None,111.39032720006071,111.39032720006071,112.19548260001466,None,,,,12005,0002,2021_Oct_15_1245,localizer,2021.1.3,60.11204881644983,
block,scrambled,scrambled048.bmp,,,,,0,28,28,28,,,,,,,,,,,,,,,,,,,,,,,,,,,,,,,,,,,,,,,,,,None,,112.19548260001466,None,112.19548260001466,None,2021-10-15-12:47:17.763924,112.19825770007446,112.5110251000151,112.19825770007446,None,None,112.19825770007446,None,113.01139030023478,None,,,,12005,0002,2021_Oct_15_1245,localizer,2021.1.3,60.11204881644983,
block_end,scrambled,scrambled004.bmp,,,,,0,29,29,29,,,,,,,,,,,,,,,,,,,,,,,,,,,,,,,,,,,,,,,,,,None,,113.01139030023478,None,113.01139030023478,None,2021-10-15-12:47:18.577784,113.01206320011988,113.32764030015096,113.01206320011988,None,None,113.01206320011988,None,113.81134190014564,None,,,,12005,0002,2021_Oct_15_1245,localizer,2021.1.3,60.11204881644983,
block_start,objects,objects050.bmp,,,,,0,30,30,30,,,,,,,,,,,,,,,,,,,,,,,,,,,,,,,,,,,,,,,,,,t,1.820332300150767,113.81102490006015,None,113.81102490006015,None,2021-10-15-12:47:21.226744,115.66183070000261,115.96054050000384,115.66183070000261,None,None,115.66183070000261,None,116.46109710005112,None,,,,12005,0002,2021_Oct_15_1245,localizer,2021.1.3,60.11204881644983,
block,objects,objects047.bmp,,,,,0,31,31,31,,,,,,,,,,,,,,,,,,,,,,,,,,,,,,,,,,,,,,,,,,None,,116.46109710005112,None,116.46109710005112,None,2021-10-15-12:47:22.028490,116.46224520006217,116.76170550007373,116.46224520006217,116.46224520006217,None,116.46224520006217,116.46224520006217,117.26253790012561,None,,,,12005,0002,2021_Oct_15_1245,localizer,2021.1.3,60.11204881644983,
block,objects,objects069.bmp,,,,,0,32,32,32,,,,,,,,,,,,,,,,,,,,,,,,,,,,,,,,,,,,,,,,,,None,,117.26253790012561,None,117.26253790012561,None,2021-10-15-12:47:22.833695,117.277708100155,117.57770600006916,117.277708100155,117.277708100155,None,117.277708100155,117.277708100155,118.07858600001782,None,,,,12005,0002,2021_Oct_15_1245,localizer,2021.1.3,60.11204881644983,
block,objects,objects014.bmp,,,,,0,33,33,33,,,,,,,,,,,,,,,,,,,,,,,,,,,,,,,,,,,,,,,,,,None,,118.07858600001782,None,118.07858600001782,None,2021-10-15-12:47:23.646146,118.07910230010748,118.40106870001182,118.07910230010748,None,None,118.07910230010748,None,118.89470710023306,None,,,,12005,0002,2021_Oct_15_1245,localizer,2021.1.3,60.11204881644983,
block,objects,objects068.bmp,,,,,0,34,34,34,,,,,,,,,,,,,,,,,,,,,,,,,,,,,,,,,,,,,,,,,,None,,118.89470710023306,None,118.89470710023306,None,2021-10-15-12:47:24.461146,118.89527340000495,119.19486500020139,118.89527340000495,None,None,118.89527340000495,None,119.69485290022567,None,,,,12005,0002,2021_Oct_15_1245,localizer,2021.1.3,60.11204881644983,
block,objects,objects016.bmp,,,,,0,35,35,35,,,,,,,,,,,,,,,,,,,,,,,,,,,,,,,,,,,,,,,,,,None,,119.69485290022567,None,119.69485290022567,None,2021-10-15-12:47:25.263109,119.7066052001901,120.01096710003912,119.7066052001901,119.7066052001901,None,119.7066052001901,119.7066052001901,120.51092300005257,None,,,,12005,0002,2021_Oct_15_1245,localizer,2021.1.3,60.11204881644983,
block,objects,objects029.bmp,,,,,0,36,36,36,,,,,,,,,,,,,,,,,,,,,,,,,,,,,,,,,,,,,,,,,,None,,120.51092300005257,None,120.51092300005257,None,2021-10-15-12:47:26.077507,120.5157870000694,120.81327520008199,120.5157870000694,None,None,120.5157870000694,None,121.32804180006497,None,,,,12005,0002,2021_Oct_15_1245,localizer,2021.1.3,60.11204881644983,
block,objects,objects081.bmp,,,,,0,37,37,37,,,,,,,,,,,,,,,,,,,,,,,,,,,,,,,,,,,,,,,,,,None,,121.32804180006497,None,121.32804180006497,None,2021-10-15-12:47:26.894433,121.33753220015205,121.64408010011539,121.33753220015205,None,None,121.33753220015205,None,122.14596260013059,None,,,,12005,0002,2021_Oct_15_1245,localizer,2021.1.3,60.11204881644983,
block,objects,objects071.bmp,,,,,0,38,38,38,,,,,,,,,,,,,,,,,,,,,,,,,,,,,,,,,,,,,,,,,,None,,122.14596260013059,None,122.14596260013059,None,2021-10-15-12:47:27.711290,122.15314160007983,122.4608985001687,122.15314160007983,None,None,122.15314160007983,None,122.96097850007936,None,,,,12005,0002,2021_Oct_15_1245,localizer,2021.1.3,60.11204881644983,
block,objects,objects077.bmp,,,,,0,39,39,39,,,,,,,,,,,,,,,,,,,,,,,,,,,,,,,,,,,,,,,,,,None,,122.96097850007936,None,122.96097850007936,None,2021-10-15-12:47:28.527371,122.96205840003677,123.26144550018944,122.96205840003677,None,None,122.96205840003677,None,123.77826760010794,None,,,,12005,0002,2021_Oct_15_1245,localizer,2021.1.3,60.11204881644983,
block,objects,objects039.bmp,,,,,0,40,40,40,,,,,,,,,,,,,,,,,,,,,,,,,,,,,,,,,,,,,,,,,,None,,123.77826760010794,None,123.77826760010794,None,2021-10-15-12:47:29.344790,123.77879150002263,124.07801780011505,123.77879150002263,None,None,123.77879150002263,None,124.57833080017008,None,,,,12005,0002,2021_Oct_15_1245,localizer,2021.1.3,60.11204881644983,
block,objects,objects019.bmp,,,,,0,41,41,41,,,,,,,,,,,,,,,,,,,,,,,,,,,,,,,,,,,,,,,,,,None,,124.57833080017008,None,124.57833080017008,None,2021-10-15-12:47:30.147709,124.5807630000636,124.89481130009517,124.5807630000636,124.5807630000636,None,124.5807630000636,124.5807630000636,125.3812413001433,None,,,,12005,0002,2021_Oct_15_1245,localizer,2021.1.3,60.11204881644983,
block,objects,objects064.bmp,,,,,0,42,42,42,,,,,,,,,,,,,,,,,,,,,,,,,,,,,,,,,,,,,,,,,,None,,125.3812413001433,None,125.3812413001433,None,2021-10-15-12:47:30.951847,125.39643060020171,125.71100060013123,125.39643060020171,125.39643060020171,None,125.39643060020171,125.39643060020171,126.19476650003344,None,,,,12005,0002,2021_Oct_15_1245,localizer,2021.1.3,60.11204881644983,
block,objects,objects059.bmp,,,,,0,43,43,43,,,,,,,,,,,,,,,,,,,,,,,,,,,,,,,,,,,,,,,,,,None,,126.19476650003344,None,126.19476650003344,None,2021-10-15-12:47:31.761200,126.20428700000048,126.51646610000171,126.20428700000048,None,None,126.20428700000048,None,127.01138750021346,None,,,,12005,0002,2021_Oct_15_1245,localizer,2021.1.3,60.11204881644983,
block_end,objects,objects033.bmp,,,,,0,44,44,44,,,,,,,,,,,,,,,,,,,,,,,,,,,,,,,,,,,,,,,,,,None,,127.01138750021346,None,127.01138750021346,None,2021-10-15-12:47:32.578655,127.01804630015977,127.32764520007186,127.01804630015977,None,None,127.01804630015977,None,127.82831330015324,None,,,,12005,0002,2021_Oct_15_1245,localizer,2021.1.3,60.11204881644983,
block_start,faces,faces065.bmp,,,,,0,45,45,45,,,,,,,,,,,,,,,,,,,,,,,,,,,,,,,,,,,,,,,,,,t,1.80330969998613,127.82806510012597,None,127.82806510012597,None,2021-10-15-12:47:35.229442,129.6767424000427,129.98422540002503,129.6767424000427,None,None,129.6767424000427,None,130.47768080001697,None,,,,12005,0002,2021_Oct_15_1245,localizer,2021.1.3,60.11204881644983,
block,faces,faces062.bmp,,,,,0,46,46,46,,,,,,,,,,,,,,,,,,,,,,,,,,,,,,,,,,,,,,,,,,None,,130.47768080001697,None,130.47768080001697,None,2021-10-15-12:47:36.044075,130.47872040001675,130.77822700003162,130.47872040001675,None,None,130.47872040001675,None,131.2779572000727,None,,,,12005,0002,2021_Oct_15_1245,localizer,2021.1.3,60.11204881644983,
block,faces,faces076.bmp,,,,,0,47,47,47,,,,,,,,,,,,,,,,,,,,,,,,,,,,,,,,,,,,,,,,,,None,,131.2779572000727,None,131.2779572000727,None,2021-10-15-12:47:36.846494,131.2791727001313,131.59437620011158,131.2791727001313,131.2791727001313,None,131.2791727001313,131.2791727001313,132.07818060019054,None,,,,12005,0002,2021_Oct_15_1245,localizer,2021.1.3,60.11204881644983,
block,faces,faces073.bmp,,,,,0,48,48,48,,,,,,,,,,,,,,,,,,,,,,,,,,,,,,,,,,,,,,,,,,None,,132.07818060019054,None,132.07818060019054,None,2021-10-15-12:47:37.646765,132.09108400018886,132.39447220019065,132.09108400018886,132.09108400018886,None,132.09108400018886,132.09108400018886,132.89452720014378,None,,,,12005,0002,2021_Oct_15_1245,localizer,2021.1.3,60.11204881644983,
block,faces,faces033.bmp,,,,,0,49,49,49,,,,,,,,,,,,,,,,,,,,,,,,,,,,,,,,,,,,,,,,,,None,,132.89452720014378,None,132.89452720014378,None,2021-10-15-12:47:38.460104,132.89579940005206,133.19482940016314,132.89579940005206,None,None,132.89579940005206,None,133.71115650003776,None,,,,12005,0002,2021_Oct_15_1245,localizer,2021.1.3,60.11204881644983,
block,faces,faces079.bmp,,,,,0,50,50,50,,,,,,,,,,,,,,,,,,,,,,,,,,,,,,,,,,,,,,,,,,None,,133.71115650003776,None,133.71115650003776,None,2021-10-15-12:47:39.277554,133.71233380003832,134.01117200008593,133.71233380003832,None,None,133.71233380003832,None,134.51903190021403,None,,,,12005,0002,2021_Oct_15_1245,localizer,2021.1.3,60.11204881644983,
block,faces,faces087.bmp,,,,,0,51,51,51,,,,,,,,,,,,,,,,,,,,,,,,,,,,,,,,,,,,,,,,,,None,,134.51903190021403,None,134.51903190021403,None,2021-10-15-12:47:40.093149,134.52458510012366,134.82801880012266,134.52458510012366,None,None,134.52458510012366,None,135.32819220004603,None,,,,12005,0002,2021_Oct_15_1245,localizer,2021.1.3,60.11204881644983,
block,faces,faces034.bmp,,,,,0,52,52,52,,,,,,,,,,,,,,,,,,,,,,,,,,,,,,,,,,,,,,,,,,None,,135.32819220004603,None,135.32819220004603,None,2021-10-15-12:47:40.894790,135.33868410019204,135.6444286000915,135.33868410019204,None,None,135.33868410019204,None,136.14472190011293,None,,,,12005,0002,2021_Oct_15_1245,localizer,2021.1.3,60.11204881644983,
block,faces,faces039.bmp,,,,,0,53,53,53,,,,,,,,,,,,,,,,,,,,,,,,,,,,,,,,,,,,,,,,,,None,,136.14472190011293,None,136.14472190011293,None,2021-10-15-12:47:41.711112,136.1554376001004,136.46196050010622,136.1554376001004,None,None,136.1554376001004,None,136.9614894001279,None,,,,12005,0002,2021_Oct_15_1245,localizer,2021.1.3,60.11204881644983,
block,faces,faces025.bmp,,,,,0,54,54,54,,,,,,,,,,,,,,,,,,,,,,,,,,,,,,,,,,,,,,,,,,None,,136.9614894001279,None,136.9614894001279,None,2021-10-15-12:47:42.527884,136.9711013000924,137.27806680020876,136.9711013000924,None,None,136.9711013000924,None,137.7784335000906,None,,,,12005,0002,2021_Oct_15_1245,localizer,2021.1.3,60.11204881644983,
block,faces,faces067.bmp,,,,,0,55,55,55,,,,,,,,,,,,,,,,,,,,,,,,,,,,,,,,,,,,,,,,,,None,,137.7784335000906,None,137.7784335000906,None,2021-10-15-12:47:43.345078,137.79014750011265,138.09458750020713,137.79014750011265,None,None,137.79014750011265,None,138.59446330019273,None,,,,12005,0002,2021_Oct_15_1245,localizer,2021.1.3,60.11204881644983,
block,faces,faces047.bmp,,,,,0,56,56,56,,,,,,,,,,,,,,,,,,,,,,,,,,,,,,,,,,,,,,,,,,None,,138.59446330019273,None,138.59446330019273,None,2021-10-15-12:47:44.160860,138.60563750006258,138.91766190016642,138.60563750006258,None,None,138.60563750006258,None,139.41166100022383,None,,,,12005,0002,2021_Oct_15_1245,localizer,2021.1.3,60.11204881644983,
block,faces,faces050.bmp,,,,,0,57,57,57,,,,,,,,,,,,,,,,,,,,,,,,,,,,,,,,,,,,,,,,,,None,,139.41166100022383,None,139.41166100022383,None,2021-10-15-12:47:44.977974,139.42222270020284,139.72791400016285,139.42222270020284,None,None,139.42222270020284,None,140.22834210004658,None,,,,12005,0002,2021_Oct_15_1245,localizer,2021.1.3,60.11204881644983,
block,faces,faces044.bmp,,,,,0,58,58,58,,,,,,,,,,,,,,,,,,,,,,,,,,,,,,,,,,,,,,,,,,None,,140.22834210004658,None,140.22834210004658,None,2021-10-15-12:47:45.794729,140.23905270011164,140.54454090003856,140.23905270011164,None,None,140.23905270011164,None,141.0449509001337,None,,,,12005,0002,2021_Oct_15_1245,localizer,2021.1.3,60.11204881644983,
block_end,faces,faces057.bmp,,,,,0,59,59,59,,,,,,,,,,,,,,,,,,,,,,,,,,,,,,,,,,,,,,,,,,None,,141.0449509001337,None,141.0449509001337,None,2021-10-15-12:47:46.611530,141.056763100205,141.36106460005976,141.056763100205,None,None,141.056763100205,None,141.8616040002089,None,,,,12005,0002,2021_Oct_15_1245,localizer,2021.1.3,60.11204881644983,
null_block,null_block,null_block.bmp,,,,,0,60,60,60,,,,,,,,,,,,,,,,,,,,,,,,,,,,,,,,,,,,,,,,,,t,1.77011390007101,141.86137920012698,None,141.86137920012698,None,2021-10-15-12:47:49.226829,143.66143660014495,None,143.66143660014495,None,None,143.66143660014495,None,143.66477110004053,None,,,,12005,0002,2021_Oct_15_1245,localizer,2021.1.3,60.11204881644983,
block_start,objects,objects044.bmp,,,,,0,61,61,61,,,,,,,,,,,,,,,,,,,,,,,,,,,,,,,,,,,,,,,,,,t,1.9640645999461412,155.66728540020995,None,155.66728540020995,None,2021-10-15-12:48:03.229037,157.6619267000351,157.9613316000905,157.6619267000351,None,None,157.6619267000351,None,158.46178510016762,None,,,,12005,0002,2021_Oct_15_1245,localizer,2021.1.3,60.11204881644983,
block,objects,objects029.bmp,,,,,0,62,62,62,,,,,,,,,,,,,,,,,,,,,,,,,,,,,,,,,,,,,,,,,,None,,158.46178510016762,None,158.46178510016762,None,2021-10-15-12:48:04.030387,158.46450700005516,158.77872510021552,158.46450700005516,158.46450700005516,None,158.46450700005516,158.46450700005516,159.27839100011624,None,,,,12005,0002,2021_Oct_15_1245,localizer,2021.1.3,60.11204881644983,
block,objects,objects031.bmp,,,,,0,63,63,63,,,,,,,,,,,,,,,,,,,,,,,,,,,,,,,,,,,,,,,,,,None,,159.27839100011624,None,159.27839100011624,None,2021-10-15-12:48:04.844780,159.2890126002021,159.59433920006268,159.2890126002021,None,None,159.2890126002021,None,160.0858493000269,None,,,,12005,0002,2021_Oct_15_1245,localizer,2021.1.3,60.11204881644983,
block,objects,objects022.bmp,,,,,0,64,64,64,,,,,,,,,,,,,,,,,,,,,,,,,,,,,,,,,,,,,,,,,,None,,160.0858493000269,None,160.0858493000269,None,2021-10-15-12:48:05.658960,160.09289690013975,160.3943828002084,160.09289690013975,None,None,160.09289690013975,None,160.89524990017526,None,,,,12005,0002,2021_Oct_15_1245,localizer,2021.1.3,60.11204881644983,
block,objects,objects041.bmp,,,,,0,65,65,65,,,,,,,,,,,,,,,,,,,,,,,,,,,,,,,,,,,,,,,,,,None,,160.89524990017526,None,160.89524990017526,None,2021-10-15-12:48:06.461840,160.89569100015797,161.1967948002275,160.89569100015797,None,None,160.89569100015797,None,161.6948650002014,None,,,,12005,0002,2021_Oct_15_1245,localizer,2021.1.3,60.11204881644983,
block,objects,objects046.bmp,,,,,0,66,66,66,,,,,,,,,,,,,,,,,,,,,,,,,,,,,,,,,,,,,,,,,,None,,161.6948650002014,None,161.6948650002014,None,2021-10-15-12:48:07.263504,161.69626270001754,162.01119700004347,161.69626270001754,161.69626270001754,None,161.69626270001754,161.69626270001754,162.5113869002089,None,,,,12005,0002,2021_Oct_15_1245,localizer,2021.1.3,60.11204881644983,
block,objects,objects087.bmp,,,,,0,67,67,67,,,,,,,,,,,,,,,,,,,,,,,,,,,,,,,,,,,,,,,,,,None,,162.5113869002089,None,162.5113869002089,None,2021-10-15-12:48:08.077329,162.51204600022174,162.8113562001381,162.51204600022174,None,None,162.51204600022174,None,163.31423340016045,None,,,,12005,0002,2021_Oct_15_1245,localizer,2021.1.3,60.11204881644983,
block,objects,objects077.bmp,,,,,0,68,68,68,,,,,,,,,,,,,,,,,,,,,,,,,,,,,,,,,,,,,,,,,,None,,163.31423340016045,None,163.31423340016045,None,2021-10-15-12:48:08.886629,163.32154470006935,163.62763870018534,163.32154470006935,163.32154470006935,None,163.32154470006935,163.32154470006935,164.12816420011222,None,,,,12005,0002,2021_Oct_15_1245,localizer,2021.1.3,60.11204881644983,
block,objects,objects067.bmp,,,,,0,69,69,69,,,,,,,,,,,,,,,,,,,,,,,,,,,,,,,,,,,,,,,,,,None,,164.12816420011222,None,164.12816420011222,None,2021-10-15-12:48:09.694556,164.12899690004997,164.44447620003484,164.12899690004997,None,None,164.12899690004997,None,164.94450990017503,None,,,,12005,0002,2021_Oct_15_1245,localizer,2021.1.3,60.11204881644983,
block,objects,objects021.bmp,,,,,0,70,70,70,,,,,,,,,,,,,,,,,,,,,,,,,,,,,,,,,,,,,,,,,,None,,164.94450990017503,None,164.94450990017503,None,2021-10-15-12:48:10.510904,164.95385690010153,165.2624694001861,164.95385690010153,None,None,164.95385690010153,None,165.76270760013722,None,,,,12005,0002,2021_Oct_15_1245,localizer,2021.1.3,60.11204881644983,
block,objects,objects006.bmp,,,,,0,71,71,71,,,,,,,,,,,,,,,,,,,,,,,,,,,,,,,,,,,,,,,,,,None,,165.76270760013722,None,165.76270760013722,None,2021-10-15-12:48:11.330066,165.77442830009386,166.07766360021196,165.77442830009386,None,None,165.77442830009386,None,166.5785087000113,None,,,,12005,0002,2021_Oct_15_1245,localizer,2021.1.3,60.11204881644983,
block,objects,objects008.bmp,,,,,0,72,72,72,,,,,,,,,,,,,,,,,,,,,,,,,,,,,,,,,,,,,,,,,,None,,166.5785087000113,None,166.5785087000113,None,2021-10-15-12:48:12.145114,166.57914190017618,166.87800400005654,166.57914190017618,None,None,166.57914190017618,None,167.39486780017614,None,,,,12005,0002,2021_Oct_15_1245,localizer,2021.1.3,60.11204881644983,
block,objects,objects059.bmp,,,,,0,73,73,73,,,,,,,,,,,,,,,,,,,,,,,,,,,,,,,,,,,,,,,,,,None,,167.39486780017614,None,167.39486780017614,None,2021-10-15-12:48:12.961297,167.39537590020336,167.69490570016205,167.39537590020336,None,None,167.39537590020336,None,168.19551240024157,None,,,,12005,0002,2021_Oct_15_1245,localizer,2021.1.3,60.11204881644983,
block,objects,objects049.bmp,,,,,0,74,74,74,,,,,,,,,,,,,,,,,,,,,,,,,,,,,,,,,,,,,,,,,,None,,168.19551240024157,None,168.19551240024157,None,2021-10-15-12:48:13.765083,168.19846420013346,168.49482350004837,168.19846420013346,168.19846420013346,None,168.19846420013346,168.19846420013346,169.0115514001809,None,,,,12005,0002,2021_Oct_15_1245,localizer,2021.1.3,60.11204881644983,
block_end,objects,objects061.bmp,,,,,0,75,75,75,,,,,,,,,,,,,,,,,,,,,,,,,,,,,,,,,,,,,,,,,,None,,169.0115514001809,None,169.0115514001809,None,2021-10-15-12:48:14.577942,169.0207419001963,169.32793430006132,169.0207419001963,None,None,169.0207419001963,None,169.82956300023943,None,,,,12005,0002,2021_Oct_15_1245,localizer,2021.1.3,60.11204881644983,
block_start,scrambled,scrambled076.bmp,,,,,0,76,76,76,,,,,,,,,,,,,,,,,,,,,,,,,,,,,,,,,,,,,,,,,,t,1.8003281999845058,169.82979920017533,None,169.82979920017533,None,2021-10-15-12:48:17.227774,171.66212720004842,171.9619088000618,171.66212720004842,None,None,171.66212720004842,None,172.46284530009143,None,,,,12005,0002,2021_Oct_15_1245,localizer,2021.1.3,60.11204881644983,
block,scrambled,scrambled042.bmp,,,,,0,77,77,77,,,,,,,,,,,,,,,,,,,,,,,,,,,,,,,,,,,,,,,,,,None,,172.46284530009143,None,172.46284530009143,None,2021-10-15-12:48:18.034190,172.46793190017343,172.77803710009903,172.46793190017343,172.46793190017343,None,172.46793190017343,172.46793190017343,173.2789036000613,None,,,,12005,0002,2021_Oct_15_1245,localizer,2021.1.3,60.11204881644983,
block,scrambled,scrambled059.bmp,,,,,0,78,78,78,,,,,,,,,,,,,,,,,,,,,,,,,,,,,,,,,,,,,,,,,,None,,173.2789036000613,None,173.2789036000613,None,2021-10-15-12:48:18.845331,173.2903215000406,173.59502320014872,173.2903215000406,None,None,173.2903215000406,None,174.09508290002123,None,,,,12005,0002,2021_Oct_15_1245,localizer,2021.1.3,60.11204881644983,
block,scrambled,scrambled082.bmp,,,,,0,79,79,79,,,,,,,,,,,,,,,,,,,,,,,,,,,,,,,,,,,,,,,,,,None,,174.09508290002123,None,174.09508290002123,None,2021-10-15-12:48:19.661697,174.10433200001717,174.41134740016423,174.10433200001717,None,None,174.10433200001717,None,174.9127609001007,None,,,,12005,0002,2021_Oct_15_1245,localizer,2021.1.3,60.11204881644983,
block,scrambled,scrambled068.bmp,,,,,0,80,80,80,,,,,,,,,,,,,,,,,,,,,,,,,,,,,,,,,,,,,,,,,,None,,174.9127609001007,None,174.9127609001007,None,2021-10-15-12:48:20.478161,174.92065250012092,175.22975400020368,174.92065250012092,None,None,174.92065250012092,None,175.72794500016607,None,,,,12005,0002,2021_Oct_15_1245,localizer,2021.1.3,60.11204881644983,
block,scrambled,scrambled043.bmp,,,,,0,81,81,81,,,,,,,,,,,,,,,,,,,,,,,,,,,,,,,,,,,,,,,,,,None,,175.72794500016607,None,175.72794500016607,None,2021-10-15-12:48:21.293122,175.7359804001171,176.04458540002815,175.7359804001171,None,None,175.7359804001171,None,176.55132960015908,None,,,,12005,0002,2021_Oct_15_1245,localizer,2021.1.3,60.11204881644983,
block,scrambled,scrambled079.bmp,,,,,0,82,82,82,,,,,,,,,,,,,,,,,,,,,,,,,,,,,,,,,,,,,,,,,,None,,176.55132960015908,None,176.55132960015908,None,2021-10-15-12:48:22.125012,176.55747990007512,176.86108530010097,176.55747990007512,None,None,176.55747990007512,None,177.36276060016826,None,,,,12005,0002,2021_Oct_15_1245,localizer,2021.1.3,60.11204881644983,
block,scrambled,scrambled045.bmp,,,,,0,83,83,83,,,,,,,,,,,,,,,,,,,,,,,,,,,,,,,,,,,,,,,,,,None,,177.36276060016826,None,177.36276060016826,None,2021-10-15-12:48:22.930318,177.37601110013202,177.67828450002708,177.37601110013202,None,None,177.37601110013202,None,178.17846730002202,None,,,,12005,0002,2021_Oct_15_1245,localizer,2021.1.3,60.11204881644983,
block,scrambled,scrambled063.bmp,,,,,0,84,84,84,,,,,,,,,,,,,,,,,,,,,,,,,,,,,,,,,,,,,,,,,,None,,178.17846730002202,None,178.17846730002202,None,2021-10-15-12:48:23.744855,178.189022900071,178.49459350015968,178.189022900071,None,None,178.189022900071,None,178.99556480022147,None,,,,12005,0002,2021_Oct_15_1245,localizer,2021.1.3,60.11204881644983,
block,scrambled,scrambled037.bmp,,,,,0,85,85,85,,,,,,,,,,,,,,,,,,,,,,,,,,,,,,,,,,,,,,,,,,None,,178.99556480022147,None,178.99556480022147,None,2021-10-15-12:48:24.562946,178.996366500156,179.31124310009181,178.996366500156,None,None,178.996366500156,None,179.7956815001089,None,,,,12005,0002,2021_Oct_15_1245,localizer,2021.1.3,60.11204881644983,
block,scrambled,scrambled003.bmp,,,,,0,86,86,86,,,,,,,,,,,,,,,,,,,,,,,,,,,,,,,,,,,,,,,,,,None,,179.7956815001089,None,179.7956815001089,None,2021-10-15-12:48:25.365057,179.80922010005452,180.1111822000239,179.80922010005452,179.80922010005452,None,179.80922010005452,179.80922010005452,180.61221190006472,None,,,,12005,0002,2021_Oct_15_1245,localizer,2021.1.3,60.11204881644983,
block,scrambled,scrambled035.bmp,,,,,0,87,87,87,,,,,,,,,,,,,,,,,,,,,,,,,,,,,,,,,,,,,,,,,,None,,180.61221190006472,None,180.61221190006472,None,2021-10-15-12:48:26.180676,180.62457720004022,180.92932150000706,180.62457720004022,None,None,180.62457720004022,None,181.42849320010282,None,,,,12005,0002,2021_Oct_15_1245,localizer,2021.1.3,60.11204881644983,
block,scrambled,scrambled038.bmp,,,,,0,88,88,88,,,,,,,,,,,,,,,,,,,,,,,,,,,,,,,,,,,,,,,,,,None,,181.42849320010282,None,181.42849320010282,None,2021-10-15-12:48:26.994902,181.429063500138,181.72774860006757,181.429063500138,None,None,181.429063500138,None,182.2282432001084,None,,,,12005,0002,2021_Oct_15_1245,localizer,2021.1.3,60.11204881644983,
block,scrambled,scrambled061.bmp,,,,,0,89,89,89,,,,,,,,,,,,,,,,,,,,,,,,,,,,,,,,,,,,,,,,,,None,,182.2282432001084,None,182.2282432001084,None,2021-10-15-12:48:27.796626,182.22927670017816,182.54462090018205,182.22927670017816,182.22927670017816,None,182.22927670017816,182.22927670017816,183.02835400006734,None,,,,12005,0002,2021_Oct_15_1245,localizer,2021.1.3,60.11204881644983,
block_end,scrambled,scrambled017.bmp,,,,,0,90,90,90,,,,,,,,,,,,,,,,,,,,,,,,,,,,,,,,,,,,,,,,,,None,,183.02835400006734,None,183.02835400006734,None,2021-10-15-12:48:28.596954,183.038892300101,183.34527080017142,183.038892300101,183.038892300101,None,183.038892300101,183.038892300101,183.8452506000176,None,,,,12005,0002,2021_Oct_15_1245,localizer,2021.1.3,60.11204881644983,
block_start,scenes,scenes045.bmp,,,,,0,91,91,91,,,,,,,,,,,,,,,,,,,,,,,,,,,,,,,,,,,,,,,,,,t,1.785365000134334,183.84491130011156,None,183.84491130011156,None,2021-10-15-12:48:31.226928,185.66246140003204,185.96144910017028,185.66246140003204,None,None,185.66246140003204,None,186.461843600031,None,,,,12005,0002,2021_Oct_15_1245,localizer,2021.1.3,60.11204881644983,
block,scenes,scenes028.bmp,,,,,0,92,92,92,,,,,,,,,,,,,,,,,,,,,,,,,,,,,,,,,,,,,,,,,,None,,186.461843600031,None,186.461843600031,None,2021-10-15-12:48:32.030226,186.46457660011947,186.77793900016695,186.46457660011947,186.46457660011947,None,186.46457660011947,186.46457660011947,187.2784377001226,None,,,,12005,0002,2021_Oct_15_1245,localizer,2021.1.3,60.11204881644983,
block,scenes,scenes011.bmp,,,,,0,93,93,93,,,,,,,,,,,,,,,,,,,,,,,,,,,,,,,,,,,,,,,,,,None,,187.2784377001226,None,187.2784377001226,None,2021-10-15-12:48:32.845435,187.2790979000274,187.5783147001639,187.2790979000274,None,None,187.2790979000274,None,188.07868670020252,None,,,,12005,0002,2021_Oct_15_1245,localizer,2021.1.3,60.11204881644983,
block,scenes,scenes092.bmp,,,,,0,94,94,94,,,,,,,,,,,,,,,,,,,,,,,,,,,,,,,,,,,,,,,,,,None,,188.07868670020252,None,188.07868670020252,None,2021-10-15-12:48:33.648102,188.08131180005148,188.3955944001209,188.08131180005148,188.08131180005148,None,188.08131180005148,188.08131180005148,188.89563490008004,None,,,,12005,0002,2021_Oct_15_1245,localizer,2021.1.3,60.11204881644983,
block,scenes,scenes021.bmp,,,,,0,95,95,95,,,,,,,,,,,,,,,,,,,,,,,,,,,,,,,,,,,,,,,,,,None,,188.89563490008004,None,188.89563490008004,None,2021-10-15-12:48:34.463194,188.90801580017433,189.21145640010945,188.90801580017433,None,None,188.90801580017433,None,189.7117701000534,None,,,,12005,0002,2021_Oct_15_1245,localizer,2021.1.3,60.11204881644983,
block,scenes,scenes016.bmp,,,,,0,96,96,96,,,,,,,,,,,,,,,,,,,,,,,,,,,,,,,,,,,,,,,,,,None,,189.7117701000534,None,189.7117701000534,None,2021-10-15-12:48:35.278230,189.7242715000175,190.02781450003386,189.7242715000175,None,None,189.7242715000175,None,190.5279665000271,None,,,,12005,0002,2021_Oct_15_1245,localizer,2021.1.3,60.11204881644983,
block,scenes,scenes027.bmp,,,,,0,97,97,97,,,,,,,,,,,,,,,,,,,,,,,,,,,,,,,,,,,,,,,,,,None,,190.5279665000271,None,190.5279665000271,None,2021-10-15-12:48:36.094364,190.52923000021838,190.84477110020816,190.52923000021838,None,None,190.52923000021838,None,191.3289612000808,None,,,,12005,0002,2021_Oct_15_1245,localizer,2021.1.3,60.11204881644983,
block,scenes,scenes020.bmp,,,,,0,98,98,98,,,,,,,,,,,,,,,,,,,,,,,,,,,,,,,,,,,,,,,,,,None,,191.3289612000808,None,191.3289612000808,None,2021-10-15-12:48:36.899376,191.33891170006245,191.64447870012373,191.33891170006245,191.33891170006245,None,191.33891170006245,191.33891170006245,192.1454477000516,None,,,,12005,0002,2021_Oct_15_1245,localizer,2021.1.3,60.11204881644983,
block,scenes,scenes070.bmp,,,,,0,99,99,99,,,,,,,,,,,,,,,,,,,,,,,,,,,,,,,,,,,,,,,,,,None,,192.1454477000516,None,192.1454477000516,None,2021-10-15-12:48:37.711714,192.15580700011924,192.4618071001023,192.15580700011924,None,None,192.15580700011924,None,192.96173550002277,None,,,,12005,0002,2021_Oct_15_1245,localizer,2021.1.3,60.11204881644983,
block,scenes,scenes041.bmp,,,,,0,100,100,100,,,,,,,,,,,,,,,,,,,,,,,,,,,,,,,,,,,,,,,,,,None,,192.96173550002277,None,192.96173550002277,None,2021-10-15-12:48:38.528365,192.96240030019544,193.26223680004478,192.96240030019544,None,None,192.96240030019544,None,193.77844740008004,None,,,,12005,0002,2021_Oct_15_1245,localizer,2021.1.3,60.11204881644983,
block,scenes,scenes044.bmp,,,,,0,101,101,101,,,,,,,,,,,,,,,,,,,,,,,,,,,,,,,,,,,,,,,,,,None,,193.77844740008004,None,193.77844740008004,None,2021-10-15-12:48:39.344842,193.77909240010194,194.07871500006877,193.77909240010194,None,None,193.77909240010194,None,194.57902810024098,None,,,,12005,0002,2021_Oct_15_1245,localizer,2021.1.3,60.11204881644983,
block,scenes,scenes005.bmp,,,,,0,102,102,102,,,,,,,,,,,,,,,,,,,,,,,,,,,,,,,,,,,,,,,,,,None,,194.57902810024098,None,194.57902810024098,None,2021-10-15-12:48:40.147421,194.57906010001898,194.8784339001868,194.57906010001898,194.57906010001898,None,194.57906010001898,194.57906010001898,195.37871450022794,None,,,,12005,0002,2021_Oct_15_1245,localizer,2021.1.3,60.11204881644983,
block,scenes,scenes086.bmp,,,,,0,103,103,103,,,,,,,,,,,,,,,,,,,,,,,,,,,,,,,,,,,,,,,,,,None,,195.37871450022794,None,195.37871450022794,None,2021-10-15-12:48:40.947097,195.3914071000181,195.71812350000255,195.3914071000181,195.3914071000181,None,195.3914071000181,195.3914071000181,196.19625900010578,None,,,,12005,0002,2021_Oct_15_1245,localizer,2021.1.3,60.11204881644983,
block,scenes,scenes029.bmp,,,,,0,104,104,104,,,,,,,,,,,,,,,,,,,,,,,,,,,,,,,,,,,,,,,,,,None,,196.19625900010578,None,196.19625900010578,None,2021-10-15-12:48:41.763819,196.2081974002067,196.51183670014143,196.2081974002067,None,None,196.2081974002067,None,197.01209980016574,None,,,,12005,0002,2021_Oct_15_1245,localizer,2021.1.3,60.11204881644983,
block_end,scenes,scenes046.bmp,,,,,0,105,105,105,,,,,,,,,,,,,,,,,,,,,,,,,,,,,,,,,,,,,,,,,,None,,197.01209980016574,None,197.01209980016574,None,2021-10-15-12:48:42.578485,197.01268270006403,197.32787220017053,197.01268270006403,None,None,197.01268270006403,None,197.8123254000675,None,,,,12005,0002,2021_Oct_15_1245,localizer,2021.1.3,60.11204881644983,
block_start,faces,faces036.bmp,,,,,0,106,106,106,,,,,,,,,,,,,,,,,,,,,,,,,,,,,,,,,,,,,,,,,,t,1.8163293001707643,197.8139787002001,None,197.8139787002001,None,2021-10-15-12:48:45.213887,199.6594916000031,199.9618113001343,199.6594916000031,None,None,199.6594916000031,None,200.46217160020024,None,,,,12005,0002,2021_Oct_15_1245,localizer,2021.1.3,60.11204881644983,
block,faces,faces048.bmp,,,,,0,107,107,107,,,,,,,,,,,,,,,,,,,,,,,,,,,,,,,,,,,,,,,,,,None,,200.46217160020024,None,200.46217160020024,None,2021-10-15-12:48:46.028746,200.47540560015477,200.77818510006182,200.47540560015477,None,None,200.47540560015477,None,201.27778890007176,None,,,,12005,0002,2021_Oct_15_1245,localizer,2021.1.3,60.11204881644983,
block,faces,faces070.bmp,,,,,0,108,108,108,,,,,,,,,,,,,,,,,,,,,,,,,,,,,,,,,,,,,,,,,,None,,201.27778890007176,None,201.27778890007176,None,2021-10-15-12:48:46.844289,201.27970870002173,201.59463540022261,201.27970870002173,None,None,201.27970870002173,None,202.0948794002179,None,,,,12005,0002,2021_Oct_15_1245,localizer,2021.1.3,60.11204881644983,
block,faces,faces070.bmp,,,,,0,109,109,109,,,,,,,,,,,,,,,,,,,,,,,,,,,,,,,,,,,,,,,,,,None,,202.0948794002179,None,202.0948794002179,None,2021-10-15-12:48:47.661276,202.09567350009456,202.39537780010141,202.09567350009456,None,y,202.09567350009456,None,202.89520620019175,None,0.5171708001289517,,,12005,0002,2021_Oct_15_1245,localizer,2021.1.3,60.11204881644983,
block,faces,faces077.bmp,,,,,0,110,110,110,,,,,,,,,,,,,,,,,,,,,,,,,,,,,,,,,,,,,,,,,,None,,202.89520620019175,None,202.89520620019175,None,2021-10-15-12:48:48.463681,202.8965493000578,203.2115073001478,202.8965493000578,202.8965493000578,None,202.8965493000578,202.8965493000578,203.71188210020773,None,,,,12005,0002,2021_Oct_15_1245,localizer,2021.1.3,60.11204881644983,
block,faces,faces018.bmp,,,,,0,111,111,111,,,,,,,,,,,,,,,,,,,,,,,,,,,,,,,,,,,,,,,,,,None,,203.71188210020773,None,203.71188210020773,None,2021-10-15-12:48:49.278452,203.7223114001099,204.03476300020702,203.7223114001099,None,None,203.7223114001099,None,204.529647000134,None,,,,12005,0002,2021_Oct_15_1245,localizer,2021.1.3,60.11204881644983,
block,faces,faces053.bmp,,,,,0,112,112,112,,,,,,,,,,,,,,,,,,,,,,,,,,,,,,,,,,,,,,,,,,None,,204.529647000134,None,204.529647000134,None,2021-10-15-12:48:50.097916,204.54275640007108,204.84474220010452,204.54275640007108,None,None,204.54275640007108,None,205.34529160009697,None,,,,12005,0002,2021_Oct_15_1245,localizer,2021.1.3,60.11204881644983,
block,faces,faces004.bmp,,,,,0,113,113,113,,,,,,,,,,,,,,,,,,,,,,,,,,,,,,,,,,,,,,,,,,None,,205.34529160009697,None,205.34529160009697,None,2021-10-15-12:48:50.915750,205.3474638001062,205.66146810003556,205.3474638001062,None,None,205.3474638001062,None,206.16311940015294,None,,,,12005,0002,2021_Oct_15_1245,localizer,2021.1.3,60.11204881644983,
block,faces,faces015.bmp,,,,,0,114,114,114,,,,,,,,,,,,,,,,,,,,,,,,,,,,,,,,,,,,,,,,,,None,,206.16311940015294,None,206.16311940015294,None,2021-10-15-12:48:51.731488,206.17414720007218,206.4849595001433,206.17414720007218,None,None,206.17414720007218,None,206.97832560003735,None,,,,12005,0002,2021_Oct_15_1245,localizer,2021.1.3,60.11204881644983,
block,faces,faces061.bmp,,,,,0,115,115,115,,,,,,,,,,,,,,,,,,,,,,,,,,,,,,,,,,,,,,,,,,None,,206.97832560003735,None,206.97832560003735,None,2021-10-15-12:48:52.544942,206.9790758001618,207.27921420009807,206.9790758001618,None,None,206.9790758001618,None,207.77914600004442,None,,,,12005,0002,2021_Oct_15_1245,localizer,2021.1.3,60.11204881644983,
block,faces,faces081.bmp,,,,,0,116,116,116,,,,,,,,,,,,,,,,,,,,,,,,,,,,,,,,,,,,,,,,,,None,,207.77914600004442,None,207.77914600004442,None,2021-10-15-12:48:53.348716,207.79486640007235,208.09474360011518,207.79486640007235,207.79486640007235,None,207.79486640007235,207.79486640007235,208.59570180019364,None,,,,12005,0002,2021_Oct_15_1245,localizer,2021.1.3,60.11204881644983,
block,faces,faces002.bmp,,,,,0,117,117,117,,,,,,,,,,,,,,,,,,,,,,,,,,,,,,,,,,,,,,,,,,None,,208.59570180019364,None,208.59570180019364,None,2021-10-15-12:48:54.162267,208.59671410010196,208.9115428000223,208.59671410010196,None,None,208.59671410010196,None,209.39719120017253,None,,,,12005,0002,2021_Oct_15_1245,localizer,2021.1.3,60.11204881644983,
block,faces,faces049.bmp,,,,,0,118,118,118,,,,,,,,,,,,,,,,,,,,,,,,,,,,,,,,,,,,,,,,,,None,,209.39719120017253,None,209.39719120017253,None,2021-10-15-12:48:54.966800,209.40474620019086,209.7118721001316,209.40474620019086,209.40474620019086,None,209.40474620019086,209.40474620019086,210.21180960023776,None,,,,12005,0002,2021_Oct_15_1245,localizer,2021.1.3,60.11204881644983,
block,faces,faces030.bmp,,,,,0,119,119,119,,,,,,,,,,,,,,,,,,,,,,,,,,,,,,,,,,,,,,,,,,None,,210.21180960023776,None,210.21180960023776,None,2021-10-15-12:48:55.778200,210.22296020016074,210.52798640006222,210.22296020016074,None,None,210.22296020016074,None,211.0285334000364,None,,,,12005,0002,2021_Oct_15_1245,localizer,2021.1.3,60.11204881644983,
block_end,faces,faces006.bmp,,,,,0,120,120,120,,,,,,,,,,,,,,,,,,,,,,,,,,,,,,,,,,,,,,,,,,None,,211.0285334000364,None,211.0285334000364,None,2021-10-15-12:48:56.594778,211.02911080000922,211.32826200011186,211.02911080000922,None,None,211.02911080000922,None,211.82843400002457,None,,,,12005,0002,2021_Oct_15_1245,localizer,2021.1.3,60.11204881644983,
null_block,null_block,null_block.bmp,,,,,0,121,121,121,,,,,,,,,,,,,,,,,,,,,,,,,,,,,,,,,,,,,,,,,,t,1.8017004001885653,211.8285263001453,None,211.8285263001453,None,2021-10-15-12:48:59.212358,213.64579120022245,None,213.64579120022245,None,None,213.64579120022245,None,213.65045750001445,None,,,,12005,0002,2021_Oct_15_1245,localizer,2021.1.3,60.11204881644983,
block_start,scrambled,scrambled004.bmp,,,,,0,122,122,122,,,,,,,,,,,,,,,,,,,,,,,,,,,,,,,,,,,,,,,,,,t,1.9643393999431282,225.6659502000548,None,225.6659502000548,None,2021-10-15-12:49:13.230090,227.6640765001066,227.97807990014553,227.6640765001066,None,None,227.6640765001066,None,228.4782870002091,None,,,,12005,0002,2021_Oct_15_1245,localizer,2021.1.3,60.11204881644983,
block,scrambled,scrambled084.bmp,,,,,0,123,123,123,,,,,,,,,,,,,,,,,,,,,,,,,,,,,,,,,,,,,,,,,,None,,228.4782870002091,None,228.4782870002091,None,2021-10-15-12:49:14.044794,228.48870800016448,228.7956220000051,228.48870800016448,None,None,228.48870800016448,None,229.2952769000549,None,,,,12005,0002,2021_Oct_15_1245,localizer,2021.1.3,60.11204881644983,
block,scrambled,scrambled006.bmp,,,,,0,124,124,124,,,,,,,,,,,,,,,,,,,,,,,,,,,,,,,,,,,,,,,,,,None,,229.2952769000549,None,229.2952769000549,None,2021-10-15-12:49:14.861669,229.30475490004756,229.6167914001271,229.30475490004756,None,None,229.30475490004756,None,230.1020203002263,None,,,,12005,0002,2021_Oct_15_1245,localizer,2021.1.3,60.11204881644983,
block,scrambled,scrambled028.bmp,,,,,0,125,125,125,,,,,,,,,,,,,,,,,,,,,,,,,,,,,,,,,,,,,,,,,,None,,230.1020203002263,None,230.1020203002263,None,2021-10-15-12:49:15.672414,230.10628070007078,230.41142030013725,230.10628070007078,None,None,230.10628070007078,None,230.91248420020565,None,,,,12005,0002,2021_Oct_15_1245,localizer,2021.1.3,60.11204881644983,
block,scrambled,scrambled050.bmp,,,,,0,126,126,126,,,,,,,,,,,,,,,,,,,,,,,,,,,,,,,,,,,,,,,,,,None,,230.91248420020565,None,230.91248420020565,None,2021-10-15-12:49:16.479855,230.92395600001328,231.22839700011536,230.92395600001328,None,None,230.92395600001328,None,231.72864520014264,None,,,,12005,0002,2021_Oct_15_1245,localizer,2021.1.3,60.11204881644983,
block,scrambled,scrambled048.bmp,,,,,0,127,127,127,,,,,,,,,,,,,,,,,,,,,,,,,,,,,,,,,,,,,,,,,,None,,231.72864520014264,None,231.72864520014264,None,2021-10-15-12:49:17.295053,231.7292668002192,232.02825240022503,231.7292668002192,None,None,231.7292668002192,None,232.52924890001304,None,,,,12005,0002,2021_Oct_15_1245,localizer,2021.1.3,60.11204881644983,
block,scrambled,scrambled011.bmp,,,,,0,128,128,128,,,,,,,,,,,,,,,,,,,,,,,,,,,,,,,,,,,,,,,,,,None,,232.52924890001304,None,232.52924890001304,None,2021-10-15-12:49:18.098823,232.5321470000781,232.84562310017645,232.5321470000781,232.5321470000781,None,232.5321470000781,232.5321470000781,233.34525150014088,None,,,,12005,0002,2021_Oct_15_1245,localizer,2021.1.3,60.11204881644983,
block,scrambled,scrambled068.bmp,,,,,0,129,129,129,,,,,,,,,,,,,,,,,,,,,,,,,,,,,,,,,,,,,,,,,,None,,233.34525150014088,None,233.34525150014088,None,2021-10-15-12:49:18.911713,233.34643580019474,233.66160430014133,233.34643580019474,None,None,233.34643580019474,None,234.14582640002482,None,,,,12005,0002,2021_Oct_15_1245,localizer,2021.1.3,60.11204881644983,
block,scrambled,scrambled076.bmp,,,,,0,130,130,130,,,,,,,,,,,,,,,,,,,,,,,,,,,,,,,,,,,,,,,,,,None,,234.14582640002482,None,234.14582640002482,None,2021-10-15-12:49:19.715390,234.14875490008853,234.46145570022054,234.14875490008853,234.14875490008853,None,234.14875490008853,234.14875490008853,234.96165900002234,None,,,,12005,0002,2021_Oct_15_1245,localizer,2021.1.3,60.11204881644983,
block,scrambled,scrambled072.bmp,,,,,0,131,131,131,,,,,,,,,,,,,,,,,,,,,,,,,,,,,,,,,,,,,,,,,,None,,234.96165900002234,None,234.96165900002234,None,2021-10-15-12:49:20.528055,234.96997720003128,235.2780217002146,234.96997720003128,None,None,234.96997720003128,None,235.7788897000719,None,,,,12005,0002,2021_Oct_15_1245,localizer,2021.1.3,60.11204881644983,
block,scrambled,scrambled016.bmp,,,,,0,132,132,132,,,,,,,,,,,,,,,,,,,,,,,,,,,,,,,,,,,,,,,,,,None,,235.7788897000719,None,235.7788897000719,None,2021-10-15-12:49:21.346181,235.78951340005733,236.09524620021693,235.78951340005733,None,None,235.78951340005733,None,236.59493010002188,None,,,,12005,0002,2021_Oct_15_1245,localizer,2021.1.3,60.11204881644983,
block,scrambled,scrambled010.bmp,,,,,0,133,133,133,,,,,,,,,,,,,,,,,,,,,,,,,,,,,,,,,,,,,,,,,,None,,236.59493010002188,None,236.59493010002188,None,2021-10-15-12:49:22.161325,236.5957699001301,236.8949843000155,236.5957699001301,None,None,236.5957699001301,None,237.395249000052,None,,,,12005,0002,2021_Oct_15_1245,localizer,2021.1.3,60.11204881644983,
block,scrambled,scrambled060.bmp,,,,,0,134,134,134,,,,,,,,,,,,,,,,,,,,,,,,,,,,,,,,,,,,,,,,,,None,,237.395249000052,None,237.395249000052,None,2021-10-15-12:49:22.963272,237.39582990016788,237.7015872001648,237.39582990016788,237.39582990016788,None,237.39582990016788,237.39582990016788,238.1951356001664,None,,,,12005,0002,2021_Oct_15_1245,localizer,2021.1.3,60.11204881644983,
block,scrambled,scrambled056.bmp,,,,,0,135,135,135,,,,,,,,,,,,,,,,,,,,,,,,,,,,,,,,,,,,,,,,,,None,,238.1951356001664,None,238.1951356001664,None,2021-10-15-12:49:23.762529,238.19609410013072,238.51172180008143,238.19609410013072,238.19609410013072,None,238.19609410013072,238.19609410013072,238.9954954001587,None,,,,12005,0002,2021_Oct_15_1245,localizer,2021.1.3,60.11204881644983,
block_end,scrambled,scrambled049.bmp,,,,,0,136,136,136,,,,,,,,,,,,,,,,,,,,,,,,,,,,,,,,,,,,,,,,,,None,,238.9954954001587,None,238.9954954001587,None,2021-10-15-12:49:24.564878,238.99810690013692,239.3117039001081,238.99810690013692,238.99810690013692,None,238.99810690013692,238.99810690013692,239.79864300019108,None,,,,12005,0002,2021_Oct_15_1245,localizer,2021.1.3,60.11204881644983,
null_block,null_block,null_block.bmp,,,,,0,137,137,137,,,,,,,,,,,,,,,,,,,,,,,,,,,,,,,,,,,,,,,,,,t,1.8339541000314057,239.79610710009,None,239.79610710009,None,2021-10-15-12:49:27.228354,241.66196490009315,None,241.66196490009315,None,None,241.66196490009315,None,241.66398380021565,None,,,,12005,0002,2021_Oct_15_1245,localizer,2021.1.3,60.11204881644983,
block_start,scenes,scenes081.bmp,,,,,0,138,138,138,,,,,,,,,,,,,,,,,,,,,,,,,,,,,,,,,,,,,,,,,,t,1.951734900008887,253.6784705000464,None,253.6784705000464,None,2021-10-15-12:49:41.214211,255.6479519000277,255.96194850001484,255.6479519000277,None,None,255.6479519000277,None,256.46305280015804,None,,,,12005,0002,2021_Oct_15_1245,localizer,2021.1.3,60.11204881644983,
block,scenes,scenes075.bmp,,,,,0,139,139,139,,,,,,,,,,,,,,,,,,,,,,,,,,,,,,,,,,,,,,,,,,None,,256.46305280015804,None,256.46305280015804,None,2021-10-15-12:49:42.030616,256.46549620013684,256.77803110005334,256.46549620013684,None,None,256.46549620013684,None,257.27989500015974,None,,,,12005,0002,2021_Oct_15_1245,localizer,2021.1.3,60.11204881644983,
block,scenes,scenes032.bmp,,,,,0,140,140,140,,,,,,,,,,,,,,,,,,,,,,,,,,,,,,,,,,,,,,,,,,None,,257.27989500015974,None,257.27989500015974,None,2021-10-15-12:49:42.849262,257.29440770018846,257.5950683001429,257.29440770018846,None,None,257.29440770018846,None,258.09511500014924,None,,,,12005,0002,2021_Oct_15_1245,localizer,2021.1.3,60.11204881644983,
block,scenes,scenes009.bmp,,,,,0,141,141,141,,,,,,,,,,,,,,,,,,,,,,,,,,,,,,,,,,,,,,,,,,None,,258.09511500014924,None,258.09511500014924,None,2021-10-15-12:49:43.661512,258.09635690017603,258.40191310015507,258.09635690017603,None,None,258.09635690017603,None,258.89611510001123,None,,,,12005,0002,2021_Oct_15_1245,localizer,2021.1.3,60.11204881644983,
block,scenes,scenes003.bmp,,,,,0,142,142,142,,,,,,,,,,,,,,,,,,,,,,,,,,,,,,,,,,,,,,,,,,None,,258.89611510001123,None,258.89611510001123,None,2021-10-15-12:49:44.465513,258.89891610015184,259.2114413001109,258.89891610015184,258.89891610015184,None,258.89891610015184,258.89891610015184,259.71270690020174,None,,,,12005,0002,2021_Oct_15_1245,localizer,2021.1.3,60.11204881644983,
block,scenes,scenes068.bmp,,,,,0,143,143,143,,,,,,,,,,,,,,,,,,,,,,,,,,,,,,,,,,,,,,,,,,None,,259.71270690020174,None,259.71270690020174,None,2021-10-15-12:49:45.280287,259.7147977000568,260.0291194000747,259.7147977000568,None,None,259.7147977000568,None,260.5282506002113,None,,,,12005,0002,2021_Oct_15_1245,localizer,2021.1.3,60.11204881644983,
block,scenes,scenes073.bmp,,,,,0,144,144,144,,,,,,,,,,,,,,,,,,,,,,,,,,,,,,,,,,,,,,,,,,None,,260.5282506002113,None,260.5282506002113,None,2021-10-15-12:49:46.095244,260.53036330011673,260.8300251001492,260.53036330011673,None,None,260.53036330011673,None,261.34529350022785,None,,,,12005,0002,2021_Oct_15_1245,localizer,2021.1.3,60.11204881644983,
block,scenes,scenes052.bmp,,,,,0,145,145,145,,,,,,,,,,,,,,,,,,,,,,,,,,,,,,,,,,,,,,,,,,None,,261.34529350022785,None,261.34529350022785,None,2021-10-15-12:49:46.911689,261.35248120012693,261.66170000005513,261.35248120012693,None,None,261.35248120012693,None,262.16219630022533,None,,,,12005,0002,2021_Oct_15_1245,localizer,2021.1.3,60.11204881644983,
block,scenes,scenes092.bmp,,,,,0,146,146,146,,,,,,,,,,,,,,,,,,,,,,,,,,,,,,,,,,,,,,,,,,None,,262.16219630022533,None,262.16219630022533,None,2021-10-15-12:49:47.728842,262.1627899000887,262.46205100021325,262.1627899000887,None,None,262.1627899000887,None,262.97850290010683,None,,,,12005,0002,2021_Oct_15_1245,localizer,2021.1.3,60.11204881644983,
block,scenes,scenes018.bmp,,,,,0,147,147,147,,,,,,,,,,,,,,,,,,,,,,,,,,,,,,,,,,,,,,,,,,None,,262.97850290010683,None,262.97850290010683,None,2021-10-15-12:49:48.544895,262.9884898001328,263.29489230015315,262.9884898001328,None,None,262.9884898001328,None,263.7949507001322,None,,,,12005,0002,2021_Oct_15_1245,localizer,2021.1.3,60.11204881644983,
block,scenes,scenes067.bmp,,,,,0,148,148,148,,,,,,,,,,,,,,,,,,,,,,,,,,,,,,,,,,,,,,,,,,None,,263.7949507001322,None,263.7949507001322,None,2021-10-15-12:49:49.361341,263.8051488001365,264.1125041001942,263.8051488001365,None,None,263.8051488001365,None,264.6127173001878,None,,,,12005,0002,2021_Oct_15_1245,localizer,2021.1.3,60.11204881644983,
block,scenes,scenes028.bmp,,,,,0,149,149,149,,,,,,,,,,,,,,,,,,,,,,,,,,,,,,,,,,,,,,,,,,None,,264.6127173001878,None,264.6127173001878,None,2021-10-15-12:49:50.181196,264.6154236001894,264.92848280002363,264.6154236001894,None,None,264.6154236001894,None,265.4290363001637,None,,,,12005,0002,2021_Oct_15_1245,localizer,2021.1.3,60.11204881644983,
block,scenes,scenes048.bmp,,,,,0,150,150,150,,,,,,,,,,,,,,,,,,,,,,,,,,,,,,,,,,,,,,,,,,None,,265.4290363001637,None,265.4290363001637,None,2021-10-15-12:49:50.996623,265.4425129001029,265.74502220004797,265.4425129001029,None,None,265.4425129001029,None,266.2450348001439,None,,,,12005,0002,2021_Oct_15_1245,localizer,2021.1.3,60.11204881644983,
block,scenes,scenes025.bmp,,,,,0,151,151,151,,,,,,,,,,,,,,,,,,,,,,,,,,,,,,,,,,,,,,,,,,None,,266.2450348001439,None,266.2450348001439,None,2021-10-15-12:49:51.811431,266.2461148002185,266.54528680001386,266.2461148002185,None,None,266.2461148002185,None,267.0459211000707,None,,,,12005,0002,2021_Oct_15_1245,localizer,2021.1.3,60.11204881644983,
block_end,scenes,scenes087.bmp,,,,,0,152,152,152,,,,,,,,,,,,,,,,,,,,,,,,,,,,,,,,,,,,,,,,,,None,,267.0459211000707,None,267.0459211000707,None,2021-10-15-12:49:52.615509,267.0600960000884,267.3617991001811,267.0600960000884,267.0600960000884,None,267.0600960000884,267.0600960000884,267.8626254000701,None,,,,12005,0002,2021_Oct_15_1245,localizer,2021.1.3,60.11204881644983,
block_start,objects,objects058.bmp,,,,,0,153,153,153,,,,,,,,,,,,,,,,,,,,,,,,,,,,,,,,,,,,,,,,,,t,1.767710000043735,267.86238700011745,None,267.86238700011745,None,2021-10-15-12:49:55.212512,269.6569612000603,269.9619197000284,269.6569612000603,None,None,269.6569612000603,None,270.46159100020304,None,,,,12005,0002,2021_Oct_15_1245,localizer,2021.1.3,60.11204881644983,
block,objects,objects005.bmp,,,,,0,154,154,154,,,,,,,,,,,,,,,,,,,,,,,,,,,,,,,,,,,,,,,,,,None,,270.46159100020304,None,270.46159100020304,None,2021-10-15-12:49:56.027987,270.4703518000897,270.7784557000268,270.4703518000897,None,None,270.4703518000897,None,271.27891670004465,None,,,,12005,0002,2021_Oct_15_1245,localizer,2021.1.3,60.11204881644983,
block,objects,objects076.bmp,,,,,0,155,155,155,,,,,,,,,,,,,,,,,,,,,,,,,,,,,,,,,,,,,,,,,,None,,271.27891670004465,None,271.27891670004465,None,2021-10-15-12:49:56.845373,271.2895259000361,271.59597750008106,271.2895259000361,None,None,271.2895259000361,None,272.0954654000234,None,,,,12005,0002,2021_Oct_15_1245,localizer,2021.1.3,60.11204881644983,
block,objects,objects004.bmp,,,,,0,156,156,156,,,,,,,,,,,,,,,,,,,,,,,,,,,,,,,,,,,,,,,,,,None,,272.0954654000234,None,272.0954654000234,None,2021-10-15-12:49:57.661853,272.105808300199,272.43524670018815,272.105808300199,None,None,272.105808300199,None,272.90189730003476,None,,,,12005,0002,2021_Oct_15_1245,localizer,2021.1.3,60.11204881644983,
block,objects,objects020.bmp,,,,,0,157,157,157,,,,,,,,,,,,,,,,,,,,,,,,,,,,,,,,,,,,,,,,,,None,,272.90189730003476,None,272.90189730003476,None,2021-10-15-12:49:58.475104,272.9099167000968,273.21224630018696,272.9099167000968,None,None,272.9099167000968,None,273.71200980013236,None,,,,12005,0002,2021_Oct_15_1245,localizer,2021.1.3,60.11204881644983,
block,objects,objects056.bmp,,,,,0,158,158,158,,,,,,,,,,,,,,,,,,,,,,,,,,,,,,,,,,,,,,,,,,None,,273.71200980013236,None,273.71200980013236,None,2021-10-15-12:49:59.278403,273.71264110016637,274.01191370002925,273.71264110016637,None,None,273.71264110016637,None,274.51187290018424,None,,,,12005,0002,2021_Oct_15_1245,localizer,2021.1.3,60.11204881644983,
block,objects,objects056.bmp,,,,,0,159,159,159,,,,,,,,,,,,,,,,,,,,,,,,,,,,,,,,,,,,,,,,,,None,,274.51187290018424,None,274.51187290018424,None,2021-10-15-12:50:00.080264,274.5126592000015,274.812523300061,274.5126592000015,274.5126592000015,y,274.5126592000015,274.5126592000015,275.31212740018964,None,0.5192450999747962,,,12005,0002,2021_Oct_15_1245,localizer,2021.1.3,60.11204881644983,
block,objects,objects010.bmp,,,,,0,160,160,160,,,,,,,,,,,,,,,,,,,,,,,,,,,,,,,,,,,,,,,,,,None,,275.31212740018964,None,275.31212740018964,None,2021-10-15-12:50:00.879954,275.3231847002171,275.6285154002253,275.3231847002171,275.3231847002171,None,275.3231847002171,275.3231847002171,276.1297705001198,None,,,,12005,0002,2021_Oct_15_1245,localizer,2021.1.3,60.11204881644983,
block,objects,objects051.bmp,,,,,0,161,161,161,,,,,,,,,,,,,,,,,,,,,,,,,,,,,,,,,,,,,,,,,,None,,276.1297705001198,None,276.1297705001198,None,2021-10-15-12:50:01.697320,276.1315975000616,276.4461452001706,276.1315975000616,None,None,276.1315975000616,None,276.9457100001164,None,,,,12005,0002,2021_Oct_15_1245,localizer,2021.1.3,60.11204881644983,
block,objects,objects061.bmp,,,,,0,162,162,162,,,,,,,,,,,,,,,,,,,,,,,,,,,,,,,,,,,,,,,,,,None,,276.9457100001164,None,276.9457100001164,None,2021-10-15-12:50:02.513092,276.946256400086,277.2456948000472,276.946256400086,None,None,276.946256400086,None,277.7455901000649,None,,,,12005,0002,2021_Oct_15_1245,localizer,2021.1.3,60.11204881644983,
block,objects,objects015.bmp,,,,,0,163,163,163,,,,,,,,,,,,,,,,,,,,,,,,,,,,,,,,,,,,,,,,,,None,,277.7455901000649,None,277.7455901000649,None,2021-10-15-12:50:03.313841,277.74646810023114,278.06191899999976,277.74646810023114,277.74646810023114,None,277.74646810023114,277.74646810023114,278.5461196000688,None,,,,12005,0002,2021_Oct_15_1245,localizer,2021.1.3,60.11204881644983,
block,objects,objects024.bmp,,,,,0,164,164,164,,,,,,,,,,,,,,,,,,,,,,,,,,,,,,,,,,,,,,,,,,None,,278.5461196000688,None,278.5461196000688,None,2021-10-15-12:50:04.116537,278.5610651001334,278.8622953000013,278.5610651001334,278.5610651001334,None,278.5610651001334,278.5610651001334,279.36235980014317,None,,,,12005,0002,2021_Oct_15_1245,localizer,2021.1.3,60.11204881644983,
block,objects,objects017.bmp,,,,,0,165,165,165,,,,,,,,,,,,,,,,,,,,,,,,,,,,,,,,,,,,,,,,,,None,,279.36235980014317,None,279.36235980014317,None,2021-10-15-12:50:04.928982,279.3715988001786,279.678475700086,279.3715988001786,None,None,279.3715988001786,None,280.17859220015816,None,,,,12005,0002,2021_Oct_15_1245,localizer,2021.1.3,60.11204881644983,
block,objects,objects029.bmp,,,,,0,166,166,166,,,,,,,,,,,,,,,,,,,,,,,,,,,,,,,,,,,,,,,,,,None,,280.17859220015816,None,280.17859220015816,None,2021-10-15-12:50:05.744990,280.17943310015835,280.47881510015577,280.17943310015835,None,None,280.17943310015835,None,280.9789821000304,None,,,,12005,0002,2021_Oct_15_1245,localizer,2021.1.3,60.11204881644983,
block_end,objects,objects078.bmp,,,,,0,167,167,167,,,,,,,,,,,,,,,,,,,,,,,,,,,,,,,,,,,,,,,,,,None,,280.9789821000304,None,280.9789821000304,None,2021-10-15-12:50:06.547660,280.9911943001207,281.2954005000647,280.9911943001207,280.9911943001207,None,280.9911943001207,280.9911943001207,281.7953035000246,None,,,,12005,0002,2021_Oct_15_1245,localizer,2021.1.3,60.11204881644983,
block_start,faces,faces061.bmp,,,,,0,168,168,168,,,,,,,,,,,,,,,,,,,,,,,,,,,,,,,,,,,,,,,,,,t,1.8349757001269609,281.7951305001043,None,281.7951305001043,None,2021-10-15-12:50:09.227531,283.6627718000673,283.9621046001557,283.6627718000673,None,None,283.6627718000673,None,284.46227170014754,None,,,,12005,0002,2021_Oct_15_1245,localizer,2021.1.3,60.11204881644983,
block,faces,faces034.bmp,,,,,0,169,169,169,,,,,,,,,,,,,,,,,,,,,,,,,,,,,,,,,,,,,,,,,,None,,284.46227170014754,None,284.46227170014754,None,2021-10-15-12:50:10.029960,284.463699700078,284.778871800052,284.463699700078,284.463699700078,None,284.463699700078,284.463699700078,285.27892040018924,None,,,,12005,0002,2021_Oct_15_1245,localizer,2021.1.3,60.11204881644983,
block,faces,faces071.bmp,,,,,0,170,170,170,,,,,,,,,,,,,,,,,,,,,,,,,,,,,,,,,,,,,,,,,,None,,285.27892040018924,None,285.27892040018924,None,2021-10-15-12:50:10.845526,285.28991030016914,285.59532170020975,285.28991030016914,None,None,285.28991030016914,None,286.09575560013764,None,,,,12005,0002,2021_Oct_15_1245,localizer,2021.1.3,60.11204881644983,
block,faces,faces056.bmp,,,,,0,171,171,171,,,,,,,,,,,,,,,,,,,,,,,,,,,,,,,,,,,,,,,,,,None,,286.09575560013764,None,286.09575560013764,None,2021-10-15-12:50:11.662148,286.0963291001972,286.41202170006,286.0963291001972,None,None,286.0963291001972,None,286.8954865001142,None,,,,12005,0002,2021_Oct_15_1245,localizer,2021.1.3,60.11204881644983,
block,faces,faces052.bmp,,,,,0,172,172,172,,,,,,,,,,,,,,,,,,,,,,,,,,,,,,,,,,,,,,,,,,None,,286.8954865001142,None,286.8954865001142,None,2021-10-15-12:50:12.462910,286.89617480011657,287.1949327001348,286.89617480011657,286.89617480011657,None,286.89617480011657,286.89617480011657,287.6953196001705,None,,,,12005,0002,2021_Oct_15_1245,localizer,2021.1.3,60.11204881644983,
block,faces,faces004.bmp,,,,,0,173,173,173,,,,,,,,,,,,,,,,,,,,,,,,,,,,,,,,,,,,,,,,,,None,,287.6953196001705,None,287.6953196001705,None,2021-10-15-12:50:13.263884,287.69652770017274,287.99603750021197,287.69652770017274,287.69652770017274,None,287.69652770017274,287.69652770017274,288.496290900046,None,,,,12005,0002,2021_Oct_15_1245,localizer,2021.1.3,60.11204881644983,
block,faces,faces003.bmp,,,,,0,174,174,174,,,,,,,,,,,,,,,,,,,,,,,,,,,,,,,,,,,,,,,,,,None,,288.496290900046,None,288.496290900046,None,2021-10-15-12:50:14.065661,288.509425500175,288.8123518000357,288.509425500175,288.509425500175,None,288.509425500175,288.509425500175,289.31217440008186,None,,,,12005,0002,2021_Oct_15_1245,localizer,2021.1.3,60.11204881644983,
block,faces,faces043.bmp,,,,,0,175,175,175,,,,,,,,,,,,,,,,,,,,,,,,,,,,,,,,,,,,,,,,,,None,,289.31217440008186,None,289.31217440008186,None,2021-10-15-12:50:14.878676,289.3129601001274,289.62880730000325,289.3129601001274,None,None,289.3129601001274,None,290.11222480004653,None,,,,12005,0002,2021_Oct_15_1245,localizer,2021.1.3,60.11204881644983,
block,faces,faces028.bmp,,,,,0,176,176,176,,,,,,,,,,,,,,,,,,,,,,,,,,,,,,,,,,,,,,,,,,None,,290.11222480004653,None,290.11222480004653,None,2021-10-15-12:50:15.680609,290.12435150006786,290.42862640018575,290.12435150006786,290.12435150006786,None,290.12435150006786,290.12435150006786,290.92899280018173,None,,,,12005,0002,2021_Oct_15_1245,localizer,2021.1.3,60.11204881644983,
block,faces,faces064.bmp,,,,,0,177,177,177,,,,,,,,,,,,,,,,,,,,,,,,,,,,,,,,,,,,,,,,,,None,,290.92899280018173,None,290.92899280018173,None,2021-10-15-12:50:16.496180,290.93980990001,291.24536980013363,290.93980990001,None,None,290.93980990001,None,291.74631120008416,None,,,,12005,0002,2021_Oct_15_1245,localizer,2021.1.3,60.11204881644983,
block,faces,faces029.bmp,,,,,0,178,178,178,,,,,,,,,,,,,,,,,,,,,,,,,,,,,,,,,,,,,,,,,,None,,291.74631120008416,None,291.74631120008416,None,2021-10-15-12:50:17.313881,291.759667100152,292.0623541001696,291.759667100152,None,None,291.759667100152,None,292.562471000012,None,,,,12005,0002,2021_Oct_15_1245,localizer,2021.1.3,60.11204881644983,
block,faces,faces033.bmp,,,,,0,179,179,179,,,,,,,,,,,,,,,,,,,,,,,,,,,,,,,,,,,,,,,,,,None,,292.562471000012,None,292.562471000012,None,2021-10-15-12:50:18.129052,292.56300190021284,292.86200070008636,292.56300190021284,None,None,292.56300190021284,None,293.36290710023604,None,,,,12005,0002,2021_Oct_15_1245,localizer,2021.1.3,60.11204881644983,
block,faces,faces035.bmp,,,,,0,180,180,180,,,,,,,,,,,,,,,,,,,,,,,,,,,,,,,,,,,,,,,,,,None,,293.36290710023604,None,293.36290710023604,None,2021-10-15-12:50:18.932471,293.36580280005,293.678740600124,293.36580280005,293.36580280005,None,293.36580280005,293.36580280005,294.1790420000907,None,,,,12005,0002,2021_Oct_15_1245,localizer,2021.1.3,60.11204881644983,
block,faces,faces045.bmp,,,,,0,181,181,181,,,,,,,,,,,,,,,,,,,,,,,,,,,,,,,,,,,,,,,,,,None,,294.1790420000907,None,294.1790420000907,None,2021-10-15-12:50:19.746213,294.1799175001215,294.4950741000939,294.1799175001215,None,None,294.1799175001215,None,294.9790450001601,None,,,,12005,0002,2021_Oct_15_1245,localizer,2021.1.3,60.11204881644983,
block_end,faces,faces080.bmp,,,,,0,182,182,182,,,,,,,,,,,,,,,,,,,,,,,,,,,,,,,,,,,,,,,,,,None,,294.9790450001601,None,294.9790450001601,None,2021-10-15-12:50:20.547429,294.9948830001522,295.29528460022993,294.9948830001522,294.9948830001522,None,294.9948830001522,294.9948830001522,295.80195260001346,None,,,,12005,0002,2021_Oct_15_1245,localizer,2021.1.3,60.11204881644983,
block_start,scenes,scenes030.bmp,,,,,0,183,183,183,,,,,,,,,,,,,,,,,,,,,,,,,,,,,,,,,,,,,,,,,,t,1.8327544999774545,295.7973720000591,None,295.7973720000591,None,2021-10-15-12:50:23.213117,297.6468216001522,297.94555950001813,297.6468216001522,None,None,297.6468216001522,None,298.4462393000722,None,,,,12005,0002,2021_Oct_15_1245,localizer,2021.1.3,60.11204881644983,
block,scenes,scenes089.bmp,,,,,0,184,184,184,,,,,,,,,,,,,,,,,,,,,,,,,,,,,,,,,,,,,,,,,,None,,298.4462393000722,None,298.4462393000722,None,2021-10-15-12:50:24.015809,298.45991410012357,298.761741100112,298.45991410012357,298.45991410012357,None,298.45991410012357,298.45991410012357,299.2622352000326,None,,,,12005,0002,2021_Oct_15_1245,localizer,2021.1.3,60.11204881644983,
block,scenes,scenes066.bmp,,,,,0,185,185,185,,,,,,,,,,,,,,,,,,,,,,,,,,,,,,,,,,,,,,,,,,None,,299.2622352000326,None,299.2622352000326,None,2021-10-15-12:50:24.828842,299.2681997001637,299.578444900224,299.2681997001637,None,None,299.2681997001637,None,300.07885300018825,None,,,,12005,0002,2021_Oct_15_1245,localizer,2021.1.3,60.11204881644983,
block,scenes,scenes035.bmp,,,,,0,186,186,186,,,,,,,,,,,,,,,,,,,,,,,,,,,,,,,,,,,,,,,,,,None,,300.07885300018825,None,300.07885300018825,None,2021-10-15-12:50:25.645448,300.0882718001958,300.39578050002456,300.0882718001958,None,None,300.0882718001958,None,300.89603340020403,None,,,,12005,0002,2021_Oct_15_1245,localizer,2021.1.3,60.11204881644983,
block,scenes,scenes088.bmp,,,,,0,187,187,187,,,,,,,,,,,,,,,,,,,,,,,,,,,,,,,,,,,,,,,,,,None,,300.89603340020403,None,300.89603340020403,None,2021-10-15-12:50:26.463224,300.8965930000413,301.1955844000913,300.8965930000413,None,None,300.8965930000413,None,301.6958313002251,None,,,,12005,0002,2021_Oct_15_1245,localizer,2021.1.3,60.11204881644983,
block,scenes,scenes007.bmp,,,,,0,188,188,188,,,,,,,,,,,,,,,,,,,,,,,,,,,,,,,,,,,,,,,,,,None,,301.6958313002251,None,301.6958313002251,None,2021-10-15-12:50:27.265209,301.7120461000595,302.0117615000345,301.7120461000595,301.7120461000595,None,301.7120461000595,301.7120461000595,302.5122116000857,None,,,,12005,0002,2021_Oct_15_1245,localizer,2021.1.3,60.11204881644983,
block,scenes,scenes040.bmp,,,,,0,189,189,189,,,,,,,,,,,,,,,,,,,,,,,,,,,,,,,,,,,,,,,,,,None,,302.5122116000857,None,302.5122116000857,None,2021-10-15-12:50:28.078607,302.51297890022397,302.8119526000228,302.51297890022397,None,None,302.51297890022397,None,303.3128873000387,None,,,,12005,0002,2021_Oct_15_1245,localizer,2021.1.3,60.11204881644983,
block,scenes,scenes087.bmp,,,,,0,190,190,190,,,,,,,,,,,,,,,,,,,,,,,,,,,,,,,,,,,,,,,,,,None,,303.3128873000387,None,303.3128873000387,None,2021-10-15-12:50:28.882453,303.3159074001014,303.6294633001089,303.3159074001014,303.3159074001014,None,303.3159074001014,303.3159074001014,304.1295505000744,None,,,,12005,0002,2021_Oct_15_1245,localizer,2021.1.3,60.11204881644983,
block,scenes,scenes005.bmp,,,,,0,191,191,191,,,,,,,,,,,,,,,,,,,,,,,,,,,,,,,,,,,,,,,,,,None,,304.1295505000744,None,304.1295505000744,None,2021-10-15-12:50:29.696929,304.13079300010577,304.4452963001095,304.13079300010577,None,None,304.13079300010577,None,304.9459306001663,None,,,,12005,0002,2021_Oct_15_1245,localizer,2021.1.3,60.11204881644983,
block,scenes,scenes051.bmp,,,,,0,192,192,192,,,,,,,,,,,,,,,,,,,,,,,,,,,,,,,,,,,,,,,,,,None,,304.9459306001663,None,304.9459306001663,None,2021-10-15-12:50:30.512512,304.9464295001235,305.2456891001202,304.9464295001235,None,None,304.9464295001235,None,305.7455064000096,None,,,,12005,0002,2021_Oct_15_1245,localizer,2021.1.3,60.11204881644983,
block,scenes,scenes075.bmp,,,,,0,193,193,193,,,,,,,,,,,,,,,,,,,,,,,,,,,,,,,,,,,,,,,,,,None,,305.7455064000096,None,305.7455064000096,None,2021-10-15-12:50:31.313894,305.74632830009796,306.04520890000276,305.74632830009796,305.74632830009796,None,305.74632830009796,305.74632830009796,306.5456480002031,None,,,,12005,0002,2021_Oct_15_1245,localizer,2021.1.3,60.11204881644983,
block,scenes,scenes090.bmp,,,,,0,194,194,194,,,,,,,,,,,,,,,,,,,,,,,,,,,,,,,,,,,,,,,,,,None,,306.5456480002031,None,306.5456480002031,None,2021-10-15-12:50:32.113584,306.55743930023164,306.86191740003414,306.55743930023164,306.55743930023164,None,306.55743930023164,306.55743930023164,307.362162000034,None,,,,12005,0002,2021_Oct_15_1245,localizer,2021.1.3,60.11204881644983,
block,scenes,scenes013.bmp,,,,,0,195,195,195,,,,,,,,,,,,,,,,,,,,,,,,,,,,,,,,,,,,,,,,,,None,,307.362162000034,None,307.362162000034,None,2021-10-15-12:50:32.928552,307.3629877001513,307.66223660018295,307.3629877001513,None,None,307.3629877001513,None,308.16295840009116,None,,,,12005,0002,2021_Oct_15_1245,localizer,2021.1.3,60.11204881644983,
block,scenes,scenes013.bmp,,,,,0,196,196,196,,,,,,,,,,,,,,,,,,,,,,,,,,,,,,,,,,,,,,,,,,None,,308.16295840009116,None,308.16295840009116,None,2021-10-15-12:50:33.732332,308.165652200114,308.47859240020625,308.165652200114,308.165652200114,y,308.165652200114,308.165652200114,308.9788684002124,None,0.4820630999747664,,,12005,0002,2021_Oct_15_1245,localizer,2021.1.3,60.11204881644983,
block_end,scenes,scenes014.bmp,,,,,0,197,197,197,,,,,,,,,,,,,,,,,,,,,,,,,,,,,,,,,,,,,,,,,,None,,308.9788684002124,None,308.9788684002124,None,2021-10-15-12:50:34.545264,308.97957500000484,309.2789528002031,308.97957500000484,None,None,308.97957500000484,None,309.7787769001443,None,,,,12005,0002,2021_Oct_15_1245,localizer,2021.1.3,60.11204881644983,
block_start,objects,objects057.bmp,,,,,0,198,198,198,,,,,,,,,,,,,,,,,,,,,,,,,,,,,,,,,,,,,,,,,,t,1.8516925000585616,309.7783803001512,None,309.7783803001512,None,2021-10-15-12:50:37.212693,311.6466656001285,311.9619114000816,311.6466656001285,None,None,311.6466656001285,None,312.4622299000621,None,,,,12005,0002,2021_Oct_15_1245,localizer,2021.1.3,60.11204881644983,
block,objects,objects001.bmp,,,,,0,199,199,199,,,,,,,,,,,,,,,,,,,,,,,,,,,,,,,,,,,,,,,,,,None,,312.4622299000621,None,312.4622299000621,None,2021-10-15-12:50:38.028640,312.46310370019637,312.7624735001009,312.46310370019637,None,None,312.46310370019637,None,313.2636709001381,None,,,,12005,0002,2021_Oct_15_1245,localizer,2021.1.3,60.11204881644983,
block,objects,objects003.bmp,,,,,0,200,200,200,,,,,,,,,,,,,,,,,,,,,,,,,,,,,,,,,,,,,,,,,,None,,313.2636709001381,None,313.2636709001381,None,2021-10-15-12:50:38.834937,313.26708770007826,313.5786675000563,313.26708770007826,313.26708770007826,None,313.26708770007826,313.26708770007826,314.07910030009225,None,,,,12005,0002,2021_Oct_15_1245,localizer,2021.1.3,60.11204881644983,
block,objects,objects006.bmp,,,,,0,201,201,201,,,,,,,,,,,,,,,,,,,,,,,,,,,,,,,,,,,,,,,,,,None,,314.07910030009225,None,314.07910030009225,None,2021-10-15-12:50:39.645457,314.07973210001364,314.3784568000119,314.07973210001364,None,None,314.07973210001364,None,314.8788320000749,None,,,,12005,0002,2021_Oct_15_1245,localizer,2021.1.3,60.11204881644983,
block,objects,objects024.bmp,,,,,0,202,202,202,,,,,,,,,,,,,,,,,,,,,,,,,,,,,,,,,,,,,,,,,,None,,314.8788320000749,None,314.8788320000749,None,2021-10-15-12:50:40.446288,314.88014960009605,315.19566100020893,314.88014960009605,314.88014960009605,None,314.88014960009605,314.88014960009605,315.6793563000392,None,,,,12005,0002,2021_Oct_15_1245,localizer,2021.1.3,60.11204881644983,
block,objects,objects054.bmp,,,,,0,203,203,203,,,,,,,,,,,,,,,,,,,,,,,,,,,,,,,,,,,,,,,,,,None,,315.6793563000392,None,315.6793563000392,None,2021-10-15-12:50:41.249038,315.69274320011027,315.9958591000177,315.69274320011027,315.69274320011027,None,315.69274320011027,315.69274320011027,316.49787240009755,None,,,,12005,0002,2021_Oct_15_1245,localizer,2021.1.3,60.11204881644983,
block,objects,objects084.bmp,,,,,0,204,204,204,,,,,,,,,,,,,,,,,,,,,,,,,,,,,,,,,,,,,,,,,,None,,316.49787240009755,None,316.49787240009755,None,2021-10-15-12:50:42.064443,316.4985463002231,316.8119599001948,316.4985463002231,None,None,316.4985463002231,None,317.3139170000795,None,,,,12005,0002,2021_Oct_15_1245,localizer,2021.1.3,60.11204881644983,
block,objects,objects031.bmp,,,,,0,205,205,205,,,,,,,,,,,,,,,,,,,,,,,,,,,,,,,,,,,,,,,,,,None,,317.3139170000795,None,317.3139170000795,None,2021-10-15-12:50:42.881465,317.3219656001311,317.62871960015036,317.3219656001311,None,None,317.3219656001311,None,318.12909370008856,None,,,,12005,0002,2021_Oct_15_1245,localizer,2021.1.3,60.11204881644983,
block,objects,objects043.bmp,,,,,0,206,206,206,,,,,,,,,,,,,,,,,,,,,,,,,,,,,,,,,,,,,,,,,,None,,318.12909370008856,None,318.12909370008856,None,2021-10-15-12:50:43.695505,318.13830490014516,318.45071310014464,318.13830490014516,None,None,318.13830490014516,None,318.9453330000397,None,,,,12005,0002,2021_Oct_15_1245,localizer,2021.1.3,60.11204881644983,
block,objects,objects015.bmp,,,,,0,207,207,207,,,,,,,,,,,,,,,,,,,,,,,,,,,,,,,,,,,,,,,,,,None,,318.9453330000397,None,318.9453330000397,None,2021-10-15-12:50:44.511729,318.9465153000783,319.24582690000534,318.9465153000783,None,None,318.9465153000783,None,319.745697400067,None,,,,12005,0002,2021_Oct_15_1245,localizer,2021.1.3,60.11204881644983,
block,objects,objects038.bmp,,,,,0,208,208,208,,,,,,,,,,,,,,,,,,,,,,,,,,,,,,,,,,,,,,,,,,None,,319.745697400067,None,319.745697400067,None,2021-10-15-12:50:45.314085,319.75720670004375,320.061598100001,319.75720670004375,319.75720670004375,None,319.75720670004375,319.75720670004375,320.56368460017256,None,,,,12005,0002,2021_Oct_15_1245,localizer,2021.1.3,60.11204881644983,
block,objects,objects062.bmp,,,,,0,209,209,209,,,,,,,,,,,,,,,,,,,,,,,,,,,,,,,,,,,,,,,,,,None,,320.56368460017256,None,320.56368460017256,None,2021-10-15-12:50:46.132103,320.5750400000252,320.8779747001827,320.5750400000252,None,None,320.5750400000252,None,321.38033480010927,None,,,,12005,0002,2021_Oct_15_1245,localizer,2021.1.3,60.11204881644983,
block,objects,objects030.bmp,,,,,0,210,210,210,,,,,,,,,,,,,,,,,,,,,,,,,,,,,,,,,,,,,,,,,,None,,321.38033480010927,None,321.38033480010927,None,2021-10-15-12:50:46.947885,321.3824004000053,321.69547800021246,321.3824004000053,None,None,321.3824004000053,None,322.19561820011586,None,,,,12005,0002,2021_Oct_15_1245,localizer,2021.1.3,60.11204881644983,
block,objects,objects075.bmp,,,,,0,211,211,211,,,,,,,,,,,,,,,,,,,,,,,,,,,,,,,,,,,,,,,,,,None,,322.19561820011586,None,322.19561820011586,None,2021-10-15-12:50:47.762007,322.1964605001267,322.49544630013406,322.1964605001267,None,None,322.1964605001267,None,322.99569010012783,None,,,,12005,0002,2021_Oct_15_1245,localizer,2021.1.3,60.11204881644983,
block_end,objects,objects041.bmp,,,,,0,212,212,212,,,,,,,,,,,,,,,,,,,,,,,,,,,,,,,,,,,,,,,,,,None,,322.99569010012783,None,322.99569010012783,None,2021-10-15-12:50:48.563595,322.9975820002146,323.3123148002196,322.9975820002146,322.9975820002146,None,322.9975820002146,322.9975820002146,323.81307920021936,None,,,,12005,0002,2021_Oct_15_1245,localizer,2021.1.3,60.11204881644983,
block_start,scrambled,scrambled020.bmp,,,,,0,213,213,213,,,,,,,,,,,,,,,,,,,,,,,,,,,,,,,,,,,,,,,,,,t,1.817162699997425,323.8128847000189,None,323.8128847000189,None,2021-10-15-12:50:51.212414,325.64642710005865,325.9454924000893,325.64642710005865,None,None,325.64642710005865,None,326.44599600019865,None,,,,12005,0002,2021_Oct_15_1245,localizer,2021.1.3,60.11204881644983,
block,scrambled,scrambled070.bmp,,,,,0,214,214,214,,,,,,,,,,,,,,,,,,,,,,,,,,,,,,,,,,,,,,,,,,None,,326.44599600019865,None,326.44599600019865,None,2021-10-15-12:50:52.014579,326.4586665001698,326.76233700010926,326.4586665001698,326.4586665001698,None,326.4586665001698,326.4586665001698,327.2627443000674,None,,,,12005,0002,2021_Oct_15_1245,localizer,2021.1.3,60.11204881644983,
block,scrambled,scrambled078.bmp,,,,,0,215,215,215,,,,,,,,,,,,,,,,,,,,,,,,,,,,,,,,,,,,,,,,,,None,,327.2627443000674,None,327.2627443000674,None,2021-10-15-12:50:52.830109,327.27356840018183,327.578880000161,327.27356840018183,None,None,327.27356840018183,None,328.07908060005866,None,,,,12005,0002,2021_Oct_15_1245,localizer,2021.1.3,60.11204881644983,
block,scrambled,scrambled086.bmp,,,,,0,216,216,216,,,,,,,,,,,,,,,,,,,,,,,,,,,,,,,,,,,,,,,,,,None,,328.07908060005866,None,328.07908060005866,None,2021-10-15-12:50:53.645695,328.0882068001665,328.3955277001951,328.0882068001665,None,None,328.0882068001665,None,328.89564680005424,None,,,,12005,0002,2021_Oct_15_1245,localizer,2021.1.3,60.11204881644983,
block,scrambled,scrambled074.bmp,,,,,0,217,217,217,,,,,,,,,,,,,,,,,,,,,,,,,,,,,,,,,,,,,,,,,,None,,328.89564680005424,None,328.89564680005424,None,2021-10-15-12:50:54.461994,328.90462820022367,329.21232840023004,328.90462820022367,None,None,328.90462820022367,None,329.7124700001441,None,,,,12005,0002,2021_Oct_15_1245,localizer,2021.1.3,60.11204881644983,
block,scrambled,scrambled005.bmp,,,,,0,218,218,218,,,,,,,,,,,,,,,,,,,,,,,,,,,,,,,,,,,,,,,,,,None,,329.7124700001441,None,329.7124700001441,None,2021-10-15-12:50:55.278843,329.7131003001705,330.0145893001463,329.7131003001705,None,None,329.7131003001705,None,330.5122556001879,None,,,,12005,0002,2021_Oct_15_1245,localizer,2021.1.3,60.11204881644983,
block,scrambled,scrambled032.bmp,,,,,0,219,219,219,,,,,,,,,,,,,,,,,,,,,,,,,,,,,,,,,,,,,,,,,,None,,330.5122556001879,None,330.5122556001879,None,2021-10-15-12:50:56.080643,330.5131811001338,330.81276910007,330.5131811001338,330.5131811001338,None,330.5131811001338,330.5131811001338,331.3125123002101,None,,,,12005,0002,2021_Oct_15_1245,localizer,2021.1.3,60.11204881644983,
block,scrambled,scrambled022.bmp,,,,,0,220,220,220,,,,,,,,,,,,,,,,,,,,,,,,,,,,,,,,,,,,,,,,,,None,,331.3125123002101,None,331.3125123002101,None,2021-10-15-12:50:56.880763,331.3132351001259,331.62882310012355,331.3132351001259,331.3132351001259,None,331.3132351001259,331.3132351001259,332.11301810014993,None,,,,12005,0002,2021_Oct_15_1245,localizer,2021.1.3,60.11204881644983,
block,scrambled,scrambled003.bmp,,,,,0,221,221,221,,,,,,,,,,,,,,,,,,,,,,,,,,,,,,,,,,,,,,,,,,None,,332.11301810014993,None,332.11301810014993,None,2021-10-15-12:50:57.682391,332.11580790020525,332.42903210013174,332.11580790020525,332.11580790020525,None,332.11580790020525,332.11580790020525,332.93554140022025,None,,,,12005,0002,2021_Oct_15_1245,localizer,2021.1.3,60.11204881644983,
block,scrambled,scrambled055.bmp,,,,,0,222,222,222,,,,,,,,,,,,,,,,,,,,,,,,,,,,,,,,,,,,,,,,,,None,,332.93554140022025,None,332.93554140022025,None,2021-10-15-12:50:58.509846,332.95177510008216,333.2624717000872,332.95177510008216,None,None,332.95177510008216,None,333.7454995000735,None,,,,12005,0002,2021_Oct_15_1245,localizer,2021.1.3,60.11204881644983,
block,scrambled,scrambled035.bmp,,,,,0,223,223,223,,,,,,,,,,,,,,,,,,,,,,,,,,,,,,,,,,,,,,,,,,None,,333.7454995000735,None,333.7454995000735,None,2021-10-15-12:50:59.311896,333.7463548001833,334.04644520021975,333.7463548001833,None,None,333.7463548001833,None,334.54585740016773,None,,,,12005,0002,2021_Oct_15_1245,localizer,2021.1.3,60.11204881644983,
block,scrambled,scrambled088.bmp,,,,,0,224,224,224,,,,,,,,,,,,,,,,,,,,,,,,,,,,,,,,,,,,,,,,,,None,,334.54585740016773,None,334.54585740016773,None,2021-10-15-12:51:00.113248,334.5464813001454,334.84553310018964,334.5464813001454,334.5464813001454,None,334.5464813001454,334.5464813001454,335.36227110004984,None,,,,12005,0002,2021_Oct_15_1245,localizer,2021.1.3,60.11204881644983,
block,scrambled,scrambled053.bmp,,,,,0,225,225,225,,,,,,,,,,,,,,,,,,,,,,,,,,,,,,,,,,,,,,,,,,None,,335.36227110004984,None,335.36227110004984,None,2021-10-15-12:51:00.928938,335.3630559002049,335.6619936001953,335.3630559002049,None,None,335.3630559002049,None,336.16255400003865,None,,,,12005,0002,2021_Oct_15_1245,localizer,2021.1.3,60.11204881644983,
block,scrambled,scrambled061.bmp,,,,,0,226,226,226,,,,,,,,,,,,,,,,,,,,,,,,,,,,,,,,,,,,,,,,,,None,,336.16255400003865,None,336.16255400003865,None,2021-10-15-12:51:01.730938,336.16497420007363,336.478698000079,336.16497420007363,336.16497420007363,None,336.16497420007363,336.16497420007363,336.9790276000276,None,,,,12005,0002,2021_Oct_15_1245,localizer,2021.1.3,60.11204881644983,
block_end,scrambled,scrambled081.bmp,,,,,0,227,227,227,,,,,,,,,,,,,,,,,,,,,,,,,,,,,,,,,,,,,,,,,,None,,336.9790276000276,None,336.9790276000276,None,2021-10-15-12:51:02.545419,336.98540340014733,337.2962288002018,336.98540340014733,None,None,336.98540340014733,None,337.79546350007877,None,,,,12005,0002,2021_Oct_15_1245,localizer,2021.1.3,60.11204881644983,
null_block,null_block,null_block.bmp,,,,,0,228,228,228,,,,,,,,,,,,,,,,,,,,,,,,,,,,,,,,,,,,,,,,,,t,1.8338736998848617,337.7953527001664,None,337.7953527001664,None,2021-10-15-12:51:05.211226,339.6456795001868,None,339.6456795001868,None,None,339.6456795001868,None,339.647998200031,None,,,,12005,0002,2021_Oct_15_1245,localizer,2021.1.3,60.11204881644983,
block_start,faces,faces038.bmp,,,,,0,229,229,229,,,,,,,,,,,,,,,,,,,,,,,,,,,,,,,,,,,,,,,,,,t,1.9652720999438316,351.6638015001081,None,351.6638015001081,None,2021-10-15-12:51:19.212211,353.66318690008484,353.9624623002019,353.66318690008484,None,None,353.66318690008484,None,354.46271700016223,None,,,,12005,0002,2021_Oct_15_1245,localizer,2021.1.3,60.11204881644983,
block,faces,faces066.bmp,,,,,0,230,230,230,,,,,,,,,,,,,,,,,,,,,,,,,,,,,,,,,,,,,,,,,,None,,354.46271700016223,None,354.46271700016223,None,2021-10-15-12:51:20.029106,354.47352540004067,354.77901810011826,354.47352540004067,None,None,354.47352540004067,None,355.2803331001196,None,,,,12005,0002,2021_Oct_15_1245,localizer,2021.1.3,60.11204881644983,
block,faces,faces031.bmp,,,,,0,231,231,231,,,,,,,,,,,,,,,,,,,,,,,,,,,,,,,,,,,,,,,,,,None,,355.2803331001196,None,355.2803331001196,None,2021-10-15-12:51:20.848701,355.282915300224,355.595608800184,355.282915300224,None,None,355.282915300224,None,356.09587870002724,None,,,,12005,0002,2021_Oct_15_1245,localizer,2021.1.3,60.11204881644983,
block,faces,faces006.bmp,,,,,0,232,232,232,,,,,,,,,,,,,,,,,,,,,,,,,,,,,,,,,,,,,,,,,,None,,356.09587870002724,None,356.09587870002724,None,2021-10-15-12:51:21.662268,356.09665650012903,356.39587470004335,356.09665650012903,None,None,356.09665650012903,None,356.8961483000312,None,,,,12005,0002,2021_Oct_15_1245,localizer,2021.1.3,60.11204881644983,
block,faces,faces059.bmp,,,,,0,233,233,233,,,,,,,,,,,,,,,,,,,,,,,,,,,,,,,,,,,,,,,,,,None,,356.8961483000312,None,356.8961483000312,None,2021-10-15-12:51:22.464677,356.8987160001416,357.2127031001728,356.8987160001416,356.8987160001416,None,356.8987160001416,356.8987160001416,357.71229650010355,None,,,,12005,0002,2021_Oct_15_1245,localizer,2021.1.3,60.11204881644983,
block,faces,faces041.bmp,,,,,0,234,234,234,,,,,,,,,,,,,,,,,,,,,,,,,,,,,,,,,,,,,,,,,,None,,357.71229650010355,None,357.71229650010355,None,2021-10-15-12:51:23.278925,357.71320800017565,358.01231110002846,357.71320800017565,None,None,357.71320800017565,None,358.51309590018354,None,,,,12005,0002,2021_Oct_15_1245,localizer,2021.1.3,60.11204881644983,
block,faces,faces046.bmp,,,,,0,235,235,235,,,,,,,,,,,,,,,,,,,,,,,,,,,,,,,,,,,,,,,,,,None,,358.51309590018354,None,358.51309590018354,None,2021-10-15-12:51:24.082475,358.52666010009125,358.82881600013934,358.52666010009125,358.52666010009125,None,358.52666010009125,358.52666010009125,359.32923280005343,None,,,,12005,0002,2021_Oct_15_1245,localizer,2021.1.3,60.11204881644983,
block,faces,faces052.bmp,,,,,0,236,236,236,,,,,,,,,,,,,,,,,,,,,,,,,,,,,,,,,,,,,,,,,,None,,359.32923280005343,None,359.32923280005343,None,2021-10-15-12:51:24.895823,359.329998700181,359.62911850004457,359.329998700181,None,None,359.329998700181,None,360.1290993001312,None,,,,12005,0002,2021_Oct_15_1245,localizer,2021.1.3,60.11204881644983,
block,faces,faces071.bmp,,,,,0,237,237,237,,,,,,,,,,,,,,,,,,,,,,,,,,,,,,,,,,,,,,,,,,None,,360.1290993001312,None,360.1290993001312,None,2021-10-15-12:51:25.696489,360.13005830021575,360.44561970001087,360.13005830021575,360.13005830021575,None,360.13005830021575,360.13005830021575,360.93017120007426,None,,,,12005,0002,2021_Oct_15_1245,localizer,2021.1.3,60.11204881644983,
block,faces,faces049.bmp,,,,,0,238,238,238,,,,,,,,,,,,,,,,,,,,,,,,,,,,,,,,,,,,,,,,,,None,,360.93017120007426,None,360.93017120007426,None,2021-10-15-12:51:26.499732,360.93306770012714,361.2522039001342,360.93306770012714,360.93306770012714,None,360.93306770012714,360.93306770012714,361.74590740003623,None,,,,12005,0002,2021_Oct_15_1245,localizer,2021.1.3,60.11204881644983,
block,faces,faces018.bmp,,,,,0,239,239,239,,,,,,,,,,,,,,,,,,,,,,,,,,,,,,,,,,,,,,,,,,None,,361.74590740003623,None,361.74590740003623,None,2021-10-15-12:51:27.312300,361.74661840009503,362.0507986000739,361.74661840009503,None,None,361.74661840009503,None,362.547223900212,None,,,,12005,0002,2021_Oct_15_1245,localizer,2021.1.3,60.11204881644983,
block,faces,faces065.bmp,,,,,0,240,240,240,,,,,,,,,,,,,,,,,,,,,,,,,,,,,,,,,,,,,,,,,,None,,362.547223900212,None,362.547223900212,None,2021-10-15-12:51:28.117770,362.55252050003037,362.8626573001966,362.55252050003037,362.55252050003037,None,362.55252050003037,362.55252050003037,363.3627424000297,None,,,,12005,0002,2021_Oct_15_1245,localizer,2021.1.3,60.11204881644983,
block,faces,faces072.bmp,,,,,0,241,241,241,,,,,,,,,,,,,,,,,,,,,,,,,,,,,,,,,,,,,,,,,,None,,363.3627424000297,None,363.3627424000297,None,2021-10-15-12:51:28.929132,363.37460000021383,363.67899970011786,363.37460000021383,None,None,363.37460000021383,None,364.1795398001559,None,,,,12005,0002,2021_Oct_15_1245,localizer,2021.1.3,60.11204881644983,
block,faces,faces035.bmp,,,,,0,242,242,242,,,,,,,,,,,,,,,,,,,,,,,,,,,,,,,,,,,,,,,,,,None,,364.1795398001559,None,364.1795398001559,None,2021-10-15-12:51:29.746144,364.1799530000426,364.495595500106,364.1799530000426,None,None,364.1799530000426,None,364.99562870012596,None,,,,12005,0002,2021_Oct_15_1245,localizer,2021.1.3,60.11204881644983,
block_end,faces,faces045.bmp,,,,,0,243,243,243,,,,,,,,,,,,,,,,,,,,,,,,,,,,,,,,,,,,,,,,,,None,,364.99562870012596,None,364.99562870012596,None,2021-10-15-12:51:30.562291,364.9965564000886,365.29733900004067,364.9965564000886,None,None,364.9965564000886,None,365.7958867000416,None,,,,12005,0002,2021_Oct_15_1245,localizer,2021.1.3,60.11204881644983,
,,,,,,,,,,,,,,,,,,,,,,,,,,,,,,,,,,,,,,,,,,,,,,,,,,,,,,,,,,,,,,,,,,,,,365.8001831001602,None,,,,,,,
