block_type,condition,img_name,Button.thisRepN,Button.thisTrialN,Button.thisN,Button.thisIndex,trials.thisRepN,trials.thisTrialN,trials.thisN,trials.thisIndex,Ready_experimenter_text.started,Ready_experimenter_text.stopped,Ready_experimenter_resp.keys,Ready_experimenter_resp.rt,Ready_experimenter_resp.started,Ready_experimenter_resp.stopped,Alignment_background.started,Alignment_background.stopped,Alignment_image.started,Alignment_image.stopped,Alignment_resp.keys,Alignment_resp.rt,Alignment_resp.started,Alignment_resp.stopped,Button_text.started,Button_text.stopped,Index_text.started,Index_text.stopped,Index_resp.keys,Index_resp.rt,Index_resp.started,Index_resp.stopped,Middle_text.started,Middle_text.stopped,Middle_resp.keys,Middle_resp.rt,Middle_resp.started,Middle_resp.stopped,Repeat_text.started,Repeat_text.stopped,Repeat_resp.keys,Repeat_resp.corr,Repeat_resp.rt,Repeat_resp.started,Repeat_resp.stopped,instruction_text.started,instruction_text.stopped,key_resp.keys,key_resp.rt,key_resp.started,key_resp.stopped,scanner_t.keys,scanner_t.rt,scanner_t.started,scanner_t.stopped,fixation_wait_for_t.started,fixation_wait_for_t.stopped,real_timestamp_trial_start,image.started,image.stopped,fixation.started,fixation.stopped,repeat_response.keys,repeat_response.started,repeat_response.stopped,fixation_null.started,fixation_null.stopped,repeat_response.rt,end_text.started,end_text.stopped,participant,run,date,expName,psychopyVersion,frameRate,
,,,,,,,,,,,11.745763199869543,None,return,453.63913120003417,11.745763199869543,None,,,,,,,,,,,,,,,,,,,,,,,,,,,,,,,,,,,,,,,,,,,,,,,,,,,,,,,21012,0002,2022_Sep_10_1005,localizer,2021.1.3,60.471264728835514,
,,,,,,,,,,,,,,,,,465.4306415999308,None,465.4306415999308,None,return,0.8169244998134673,465.4306415999308,None,,,,,,,,,,,,,,,,,,,,,,,,,,,,,,,,,,,,,,,,,,,,,,,21012,0002,2022_Sep_10_1005,localizer,2021.1.3,60.471264728835514,
,,,0,0,0,0,,,,,,,,,,,,,,,,,,,466.2685425998643,None,467.2840506997891,None,y,2.7993610999546945,467.2840506997891,None,470.10266419965774,None,b,1.2806607000529766,470.10266419965774,None,471.40194340003654,None,n,0,1.2985506001859903,471.40194340003654,None,,,,,,,,,,,,,,,,,,,,,,,,,,21012,0002,2022_Sep_10_1005,localizer,2021.1.3,60.471264728835514,
,,,,,,,,,,,,,,,,,,,,,,,,,,,,,,,,,,,,,,,,,,,,,,472.71805739961565,None,y,0.2492710999213159,472.71805739961565,None,,,,,,,,,,,,,,,,,,,,21012,0002,2022_Sep_10_1005,localizer,2021.1.3,60.471264728835514,
block_start,faces,faces018.bmp,,,,,0,0,0,0,,,,,,,,,,,,,,,,,,,,,,,,,,,,,,,,,,,,,,,,,,t,49.80289619974792,473.00951079977676,None,473.00951079977676,None,2022-09-10-10:14:06.201333,522.846874000039,523.1511283996515,522.846874000039,None,None,522.846874000039,None,523.6509902500081,None,,,,21012,0002,2022_Sep_10_1005,localizer,2021.1.3,60.471264728835514,
block,faces,faces083.bmp,,,,,0,1,1,1,,,,,,,,,,,,,,,,,,,,,,,,,,,,,,,,,,,,,,,,,,None,,523.6509902500081,None,523.6509902500081,None,2022-09-10-10:14:07.019147,523.6528645996004,523.9677984998561,523.6528645996004,None,None,523.6528645996004,None,524.468495449936,None,,,,21012,0002,2022_Sep_10_1005,localizer,2021.1.3,60.471264728835514,
block,faces,faces081.bmp,,,,,0,2,2,2,,,,,,,,,,,,,,,,,,,,,,,,,,,,,,,,,,,,,,,,,,None,,524.468495449936,None,524.468495449936,None,2022-09-10-10:14:07.836960,524.4795875996351,524.7866889997385,524.4795875996351,None,None,524.4795875996351,None,525.2842378499452,None,,,,21012,0002,2022_Sep_10_1005,localizer,2021.1.3,60.471264728835514,
block,faces,faces067.bmp,,,,,0,3,3,3,,,,,,,,,,,,,,,,,,,,,,,,,,,,,,,,,,,,,,,,,,None,,525.2842378499452,None,525.2842378499452,None,2022-09-10-10:14:08.652473,525.2862513996661,525.6011342997663,525.2862513996661,None,None,525.2862513996661,None,526.100027749734,None,,,,21012,0002,2022_Sep_10_1005,localizer,2021.1.3,60.471264728835514,
block,faces,faces035.bmp,,,,,0,4,4,4,,,,,,,,,,,,,,,,,,,,,,,,,,,,,,,,,,,,,,,,,,None,,526.100027749734,None,526.100027749734,None,2022-09-10-10:14:09.467161,526.1051853997633,526.4175575999543,526.1051853997633,None,None,526.1051853997633,None,526.9171712495852,None,,,,21012,0002,2022_Sep_10_1005,localizer,2021.1.3,60.471264728835514,
block,faces,faces026.bmp,,,,,0,5,5,5,,,,,,,,,,,,,,,,,,,,,,,,,,,,,,,,,,,,,,,,,,None,,526.9171712495852,None,526.9171712495852,None,2022-09-10-10:14:10.284436,526.9190662996843,527.2351048998535,526.9190662996843,None,None,526.9190662996843,None,527.7333562499377,None,,,,21012,0002,2022_Sep_10_1005,localizer,2021.1.3,60.471264728835514,
block,faces,faces029.bmp,,,,,0,6,6,6,,,,,,,,,,,,,,,,,,,,,,,,,,,,,,,,,,,,,,,,,,None,,527.7333562499377,None,527.7333562499377,None,2022-09-10-10:14:11.101208,527.7392485998571,528.0517946998589,527.7392485998571,None,None,527.7392485998571,None,528.5511674498673,None,,,,21012,0002,2022_Sep_10_1005,localizer,2021.1.3,60.471264728835514,
block,faces,faces079.bmp,,,,,0,7,7,7,,,,,,,,,,,,,,,,,,,,,,,,,,,,,,,,,,,,,,,,,,None,,528.5511674498673,None,528.5511674498673,None,2022-09-10-10:14:11.917812,528.5600246000104,528.8683809996583,528.5600246000104,None,None,528.5600246000104,None,529.3677663499955,None,,,,21012,0002,2022_Sep_10_1005,localizer,2021.1.3,60.471264728835514,
block,faces,faces042.bmp,,,,,0,8,8,8,,,,,,,,,,,,,,,,,,,,,,,,,,,,,,,,,,,,,,,,,,None,,529.3677663499955,None,529.3677663499955,None,2022-09-10-10:14:12.735962,529.3693145997822,529.6849336996675,529.3693145997822,None,None,529.3693145997822,None,530.1839047497604,None,,,,21012,0002,2022_Sep_10_1005,localizer,2021.1.3,60.471264728835514,
block,faces,faces044.bmp,,,,,0,9,9,9,,,,,,,,,,,,,,,,,,,,,,,,,,,,,,,,,,,,,,,,,,None,,530.1839047497604,None,530.1839047497604,None,2022-09-10-10:14:13.551044,530.1863009999506,530.5017425999977,530.1863009999506,None,None,530.1863009999506,None,531.0012852497864,None,,,,21012,0002,2022_Sep_10_1005,localizer,2021.1.3,60.471264728835514,
block,faces,faces069.bmp,,,,,0,10,10,10,,,,,,,,,,,,,,,,,,,,,,,,,,,,,,,,,,,,,,,,,,None,,531.0012852497864,None,531.0012852497864,None,2022-09-10-10:14:14.367859,531.0101592997089,531.3185119000264,531.0101592997089,None,None,531.0101592997089,None,531.8175954496953,None,,,,21012,0002,2022_Sep_10_1005,localizer,2021.1.3,60.471264728835514,
block,faces,faces045.bmp,,,,,0,11,11,11,,,,,,,,,,,,,,,,,,,,,,,,,,,,,,,,,,,,,,,,,,None,,531.8175954496953,None,531.8175954496953,None,2022-09-10-10:14:15.185631,531.8197004999965,532.1341523998417,531.8197004999965,None,None,531.8197004999965,None,532.6344443498645,None,,,,21012,0002,2022_Sep_10_1005,localizer,2021.1.3,60.471264728835514,
block,faces,faces016.bmp,,,,,0,12,12,12,,,,,,,,,,,,,,,,,,,,,,,,,,,,,,,,,,,,,,,,,,None,,532.6344443498645,None,532.6344443498645,None,2022-09-10-10:14:16.002405,532.6441047997214,532.9517068997957,532.6441047997214,None,None,532.6441047997214,None,533.4511139499489,None,,,,21012,0002,2022_Sep_10_1005,localizer,2021.1.3,60.471264728835514,
block,faces,faces060.bmp,,,,,0,13,13,13,,,,,,,,,,,,,,,,,,,,,,,,,,,,,,,,,,,,,,,,,,None,,533.4511139499489,None,533.4511139499489,None,2022-09-10-10:14:16.819054,533.4611724996939,533.7684121998027,533.4611724996939,None,None,533.4611724996939,None,534.2682619499508,None,,,,21012,0002,2022_Sep_10_1005,localizer,2021.1.3,60.471264728835514,
block_end,faces,faces014.bmp,,,,,0,14,14,14,,,,,,,,,,,,,,,,,,,,,,,,,,,,,,,,,,,,,,,,,,None,,534.2682619499508,None,534.2682619499508,None,2022-09-10-10:14:17.637387,534.2796175000258,534.5848284997046,534.2796175000258,None,None,534.2796175000258,None,535.0844657499808,None,,,,21012,0002,2022_Sep_10_1005,localizer,2021.1.3,60.471264728835514,
null_block,null_block,null_block.bmp,,,,,0,15,15,15,,,,,,,,,,,,,,,,,,,,,,,,,,,,,,,,,,,,,,,,,,t,1.7273233998566866,535.0847445996478,None,535.0847445996478,None,2022-09-10-10:14:20.202927,536.8347849496174,None,536.8347849496174,None,None,536.8347849496174,None,536.8393341000192,None,,,,21012,0002,2022_Sep_10_1005,localizer,2021.1.3,60.471264728835514,
block_start,scrambled,scrambled028.bmp,,,,,0,16,16,16,,,,,,,,,,,,,,,,,,,,,,,,,,,,,,,,,,,,,,,,,,t,1.9601042000576854,548.8519880999811,None,548.8519880999811,None,2022-09-10-10:14:34.203614,550.8452940997668,551.1517885997891,550.8452940997668,None,None,550.8452940997668,None,551.651415349869,None,,,,21012,0002,2022_Sep_10_1005,localizer,2021.1.3,60.471264728835514,
block,scrambled,scrambled008.bmp,,,,,0,17,17,17,,,,,,,,,,,,,,,,,,,,,,,,,,,,,,,,,,,,,,,,,,None,,551.651415349869,None,551.651415349869,None,2022-09-10-10:14:35.020001,551.6642040000297,551.9681845996529,551.6642040000297,None,None,551.6642040000297,None,552.467821749812,None,,,,21012,0002,2022_Sep_10_1005,localizer,2021.1.3,60.471264728835514,
block,scrambled,scrambled025.bmp,,,,,0,18,18,18,,,,,,,,,,,,,,,,,,,,,,,,,,,,,,,,,,,,,,,,,,None,,552.467821749812,None,552.467821749812,None,2022-09-10-10:14:35.835977,552.469550000038,552.7850426998921,552.469550000038,None,None,552.469550000038,None,553.2845966498833,None,,,,21012,0002,2022_Sep_10_1005,localizer,2021.1.3,60.471264728835514,
block,scrambled,scrambled038.bmp,,,,,0,19,19,19,,,,,,,,,,,,,,,,,,,,,,,,,,,,,,,,,,,,,,,,,,None,,553.2845966498833,None,553.2845966498833,None,2022-09-10-10:14:36.652544,553.2959028999321,553.6017966000363,553.2959028999321,None,None,553.2959028999321,None,554.1009208498988,None,,,,21012,0002,2022_Sep_10_1005,localizer,2021.1.3,60.471264728835514,
block,scrambled,scrambled019.bmp,,,,,0,20,20,20,,,,,,,,,,,,,,,,,,,,,,,,,,,,,,,,,,,,,,,,,,None,,554.1009208498988,None,554.1009208498988,None,2022-09-10-10:14:37.468950,554.1023609000258,554.4181506996974,554.1023609000258,None,None,554.1023609000258,None,554.9175953496713,None,,,,21012,0002,2022_Sep_10_1005,localizer,2021.1.3,60.471264728835514,
block,scrambled,scrambled036.bmp,,,,,0,21,21,21,,,,,,,,,,,,,,,,,,,,,,,,,,,,,,,,,,,,,,,,,,None,,554.9175953496713,None,554.9175953496713,None,2022-09-10-10:14:38.285534,554.9264734997414,555.2348119998351,554.9264734997414,None,None,554.9264734997414,None,555.7345650498289,None,,,,21012,0002,2022_Sep_10_1005,localizer,2021.1.3,60.471264728835514,
block,scrambled,scrambled039.bmp,,,,,0,22,22,22,,,,,,,,,,,,,,,,,,,,,,,,,,,,,,,,,,,,,,,,,,None,,555.7345650498289,None,555.7345650498289,None,2022-09-10-10:14:39.102735,555.7452517999336,556.051717299968,555.7452517999336,None,None,555.7452517999336,None,556.5510266497265,None,,,,21012,0002,2022_Sep_10_1005,localizer,2021.1.3,60.471264728835514,
block,scrambled,scrambled064.bmp,,,,,0,23,23,23,,,,,,,,,,,,,,,,,,,,,,,,,,,,,,,,,,,,,,,,,,None,,556.5510266497265,None,556.5510266497265,None,2022-09-10-10:14:39.918873,556.5611856998876,556.8685086998157,556.5611856998876,None,None,556.5611856998876,None,557.3678663498256,None,,,,21012,0002,2022_Sep_10_1005,localizer,2021.1.3,60.471264728835514,
block,scrambled,scrambled060.bmp,,,,,0,24,24,24,,,,,,,,,,,,,,,,,,,,,,,,,,,,,,,,,,,,,,,,,,None,,557.3678663498256,None,557.3678663498256,None,2022-09-10-10:14:40.735816,557.3695182995871,557.6850477997214,557.3695182995871,None,None,557.3695182995871,None,558.1841658497694,None,,,,21012,0002,2022_Sep_10_1005,localizer,2021.1.3,60.471264728835514,
block,scrambled,scrambled060.bmp,,,,,0,25,25,25,,,,,,,,,,,,,,,,,,,,,,,,,,,,,,,,,,,,,,,,,,None,,558.1841658497694,None,558.1841658497694,None,2022-09-10-10:14:41.552116,558.1860530995764,558.5017686998472,558.1860530995764,None,None,558.1860530995764,None,559.0012585496995,None,,,,21012,0002,2022_Sep_10_1005,localizer,2021.1.3,60.471264728835514,
block,scrambled,scrambled002.bmp,,,,,0,26,26,26,,,,,,,,,,,,,,,,,,,,,,,,,,,,,,,,,,,,,,,,,,None,,559.0012585496995,None,559.0012585496995,None,2022-09-10-10:14:42.369207,559.0028732996434,559.3181381998584,559.0028732996434,None,None,559.0028732996434,None,559.8180072498042,None,,,,21012,0002,2022_Sep_10_1005,localizer,2021.1.3,60.471264728835514,
block,scrambled,scrambled013.bmp,,,,,0,27,27,27,,,,,,,,,,,,,,,,,,,,,,,,,,,,,,,,,,,,,,,,,,None,,559.8180072498042,None,559.8180072498042,None,2022-09-10-10:14:43.185958,559.8277309997939,560.1349539998919,559.8277309997939,None,None,559.8277309997939,None,560.6342133497353,None,,,,21012,0002,2022_Sep_10_1005,localizer,2021.1.3,60.471264728835514,
block,scrambled,scrambled016.bmp,,,,,0,28,28,28,,,,,,,,,,,,,,,,,,,,,,,,,,,,,,,,,,,,,,,,,,None,,560.6342133497353,None,560.6342133497353,None,2022-09-10-10:14:44.001299,560.6423337999731,560.9516941998154,560.6423337999731,None,None,560.6423337999731,None,561.450761249708,None,,,,21012,0002,2022_Sep_10_1005,localizer,2021.1.3,60.471264728835514,
block,scrambled,scrambled082.bmp,,,,,0,29,29,29,,,,,,,,,,,,,,,,,,,,,,,,,,,,,,,,,,,,,,,,,,None,,561.450761249708,None,561.450761249708,None,2022-09-10-10:14:44.819222,561.459347799886,561.7682755999267,561.459347799886,None,None,561.459347799886,None,562.2674883496481,None,,,,21012,0002,2022_Sep_10_1005,localizer,2021.1.3,60.471264728835514,
block_end,scrambled,scrambled032.bmp,,,,,0,30,30,30,,,,,,,,,,,,,,,,,,,,,,,,,,,,,,,,,,,,,,,,,,None,,562.2674883496481,None,562.2674883496481,None,2022-09-10-10:14:45.635312,562.2754131997935,562.5844837999903,562.2754131997935,None,None,562.2754131997935,None,563.0840480499435,None,,,,21012,0002,2022_Sep_10_1005,localizer,2021.1.3,60.471264728835514,
block_start,objects,objects044.bmp,,,,,0,31,31,31,,,,,,,,,,,,,,,,,,,,,,,,,,,,,,,,,,,,,,,,,,t,1.7275038002990186,563.0846422999166,None,563.0846422999166,None,2022-09-10-10:14:48.201805,564.8433726998046,565.1514629996382,564.8433726998046,None,None,564.8433726998046,None,565.6509719499852,None,,,,21012,0002,2022_Sep_10_1005,localizer,2021.1.3,60.471264728835514,
block,objects,objects046.bmp,,,,,0,32,32,32,,,,,,,,,,,,,,,,,,,,,,,,,,,,,,,,,,,,,,,,,,None,,565.6509719499852,None,565.6509719499852,None,2022-09-10-10:14:49.018725,565.653109099716,565.968291899655,565.653109099716,None,None,565.653109099716,None,566.4676410499494,None,,,,21012,0002,2022_Sep_10_1005,localizer,2021.1.3,60.471264728835514,
block,objects,objects021.bmp,,,,,0,33,33,33,,,,,,,,,,,,,,,,,,,,,,,,,,,,,,,,,,,,,,,,,,None,,566.4676410499494,None,566.4676410499494,None,2022-09-10-10:14:49.834975,566.4698097999208,566.7851819996722,566.4698097999208,None,None,566.4698097999208,None,567.2839934499468,None,,,,21012,0002,2022_Sep_10_1005,localizer,2021.1.3,60.471264728835514,
block,objects,objects001.bmp,,,,,0,34,34,34,,,,,,,,,,,,,,,,,,,,,,,,,,,,,,,,,,,,,,,,,,None,,567.2839934499468,None,567.2839934499468,None,2022-09-10-10:14:50.650609,567.2926652999595,567.6019029999152,567.2926652999595,None,None,567.2926652999595,None,568.1011532498057,None,,,,21012,0002,2022_Sep_10_1005,localizer,2021.1.3,60.471264728835514,
block,objects,objects053.bmp,,,,,0,35,35,35,,,,,,,,,,,,,,,,,,,,,,,,,,,,,,,,,,,,,,,,,,None,,568.1011532498057,None,568.1011532498057,None,2022-09-10-10:14:51.468267,568.1095002996735,568.4182974998839,568.1095002996735,None,None,568.1095002996735,None,568.9174576499033,None,,,,21012,0002,2022_Sep_10_1005,localizer,2021.1.3,60.471264728835514,
block,objects,objects018.bmp,,,,,0,36,36,36,,,,,,,,,,,,,,,,,,,,,,,,,,,,,,,,,,,,,,,,,,None,,568.9174576499033,None,568.9174576499033,None,2022-09-10-10:14:52.285696,568.9192768996581,569.2347613000311,568.9192768996581,None,None,568.9192768996581,None,569.7341680498328,None,,,,21012,0002,2022_Sep_10_1005,localizer,2021.1.3,60.471264728835514,
block,objects,objects017.bmp,,,,,0,37,37,37,,,,,,,,,,,,,,,,,,,,,,,,,,,,,,,,,,,,,,,,,,None,,569.7341680498328,None,569.7341680498328,None,2022-09-10-10:14:53.101635,569.7440102999099,570.0517669999972,569.7440102999099,None,None,569.7440102999099,None,570.5509194498416,None,,,,21012,0002,2022_Sep_10_1005,localizer,2021.1.3,60.471264728835514,
block,objects,objects032.bmp,,,,,0,38,38,38,,,,,,,,,,,,,,,,,,,,,,,,,,,,,,,,,,,,,,,,,,None,,570.5509194498416,None,570.5509194498416,None,2022-09-10-10:14:53.917537,570.5599569999613,570.8679464999586,570.5599569999613,None,None,570.5599569999613,None,571.3674034499097,None,,,,21012,0002,2022_Sep_10_1005,localizer,2021.1.3,60.471264728835514,
block,objects,objects024.bmp,,,,,0,39,39,39,,,,,,,,,,,,,,,,,,,,,,,,,,,,,,,,,,,,,,,,,,None,,571.3674034499097,None,571.3674034499097,None,2022-09-10-10:14:54.734885,571.36975719966,571.6847199997865,571.36975719966,None,None,571.36975719966,None,572.1842733500059,None,,,,21012,0002,2022_Sep_10_1005,localizer,2021.1.3,60.471264728835514,
block,objects,objects029.bmp,,,,,0,40,40,40,,,,,,,,,,,,,,,,,,,,,,,,,,,,,,,,,,,,,,,,,,None,,572.1842733500059,None,572.1842733500059,None,2022-09-10-10:14:55.550928,572.1919485996477,572.5021669999696,572.1919485996477,None,None,572.1919485996477,None,573.0011926497798,None,,,,21012,0002,2022_Sep_10_1005,localizer,2021.1.3,60.471264728835514,
block,objects,objects050.bmp,,,,,0,41,41,41,,,,,,,,,,,,,,,,,,,,,,,,,,,,,,,,,,,,,,,,,,None,,573.0011926497798,None,573.0011926497798,None,2022-09-10-10:14:56.368305,573.0031859995797,573.3183054998517,573.0031859995797,None,None,573.0031859995797,None,573.817544549657,None,,,,21012,0002,2022_Sep_10_1005,localizer,2021.1.3,60.471264728835514,
block,objects,objects004.bmp,,,,,0,42,42,42,,,,,,,,,,,,,,,,,,,,,,,,,,,,,,,,,,,,,,,,,,None,,573.817544549657,None,573.817544549657,None,2022-09-10-10:14:57.184070,573.8197792996652,574.1348313996568,573.8197792996652,None,None,573.8197792996652,None,574.6344655500259,None,,,,21012,0002,2022_Sep_10_1005,localizer,2021.1.3,60.471264728835514,
block,objects,objects049.bmp,,,,,0,43,43,43,,,,,,,,,,,,,,,,,,,,,,,,,,,,,,,,,,,,,,,,,,None,,574.6344655500259,None,574.6344655500259,None,2022-09-10-10:14:58.001946,574.6432021996006,574.9516640999354,574.6432021996006,None,None,574.6432021996006,None,575.4508850499521,None,,,,21012,0002,2022_Sep_10_1005,localizer,2021.1.3,60.471264728835514,
block,objects,objects060.bmp,,,,,0,44,44,44,,,,,,,,,,,,,,,,,,,,,,,,,,,,,,,,,,,,,,,,,,None,,575.4508850499521,None,575.4508850499521,None,2022-09-10-10:14:58.817549,575.4598478996195,575.768673399929,575.4598478996195,None,None,575.4598478996195,None,576.267907049926,None,,,,21012,0002,2022_Sep_10_1005,localizer,2021.1.3,60.471264728835514,
block_end,objects,objects033.bmp,,,,,0,45,45,45,,,,,,,,,,,,,,,,,,,,,,,,,,,,,,,,,,,,,,,,,,None,,576.267907049926,None,576.267907049926,None,2022-09-10-10:14:59.635326,576.269911099691,576.585397399962,576.269911099691,None,None,576.269911099691,None,577.0840189498383,None,,,,21012,0002,2022_Sep_10_1005,localizer,2021.1.3,60.471264728835514,
block_start,scenes,scenes061.bmp,,,,,0,46,46,46,,,,,,,,,,,,,,,,,,,,,,,,,,,,,,,,,,,,,,,,,,t,1.7276015998795629,577.0846115997992,None,577.0846115997992,None,2022-09-10-10:15:02.202693,578.8376500997692,579.151989699807,578.8376500997692,None,None,578.8376500997692,None,579.6507735498715,None,,,,21012,0002,2022_Sep_10_1005,localizer,2021.1.3,60.471264728835514,
block,scenes,scenes048.bmp,,,,,0,47,47,47,,,,,,,,,,,,,,,,,,,,,,,,,,,,,,,,,,,,,,,,,,None,,579.6507735498715,None,579.6507735498715,None,2022-09-10-10:15:03.018192,579.6533231996,579.9680522996932,579.6533231996,None,None,579.6533231996,None,580.467900749715,None,,,,21012,0002,2022_Sep_10_1005,localizer,2021.1.3,60.471264728835514,
block,scenes,scenes010.bmp,,,,,0,48,48,48,,,,,,,,,,,,,,,,,,,,,,,,,,,,,,,,,,,,,,,,,,None,,580.467900749715,None,580.467900749715,None,2022-09-10-10:15:03.835060,580.4701668997295,580.78453049995,580.4701668997295,None,None,580.4701668997295,None,581.2845101500395,None,,,,21012,0002,2022_Sep_10_1005,localizer,2021.1.3,60.471264728835514,
block,scenes,scenes086.bmp,,,,,0,49,49,49,,,,,,,,,,,,,,,,,,,,,,,,,,,,,,,,,,,,,,,,,,None,,581.2845101500395,None,581.2845101500395,None,2022-09-10-10:15:04.651747,581.2944421996363,581.6019357996993,581.2944421996363,None,None,581.2944421996363,None,582.1013174498919,None,,,,21012,0002,2022_Sep_10_1005,localizer,2021.1.3,60.471264728835514,
block,scenes,scenes036.bmp,,,,,0,50,50,50,,,,,,,,,,,,,,,,,,,,,,,,,,,,,,,,,,,,,,,,,,None,,582.1013174498919,None,582.1013174498919,None,2022-09-10-10:15:05.469228,582.1056017996743,582.4185711997561,582.1056017996743,None,None,582.1056017996743,None,582.9179760496597,None,,,,21012,0002,2022_Sep_10_1005,localizer,2021.1.3,60.471264728835514,
block,scenes,scenes076.bmp,,,,,0,51,51,51,,,,,,,,,,,,,,,,,,,,,,,,,,,,,,,,,,,,,,,,,,None,,582.9179760496597,None,582.9179760496597,None,2022-09-10-10:15:06.285051,582.9276067996398,583.2352811996825,582.9276067996398,None,None,582.9276067996398,None,583.7346466499846,None,,,,21012,0002,2022_Sep_10_1005,localizer,2021.1.3,60.471264728835514,
block,scenes,scenes008.bmp,,,,,0,52,52,52,,,,,,,,,,,,,,,,,,,,,,,,,,,,,,,,,,,,,,,,,,None,,583.7346466499846,None,583.7346466499846,None,2022-09-10-10:15:07.102212,583.7367113996297,584.0512598999776,583.7367113996297,None,None,583.7367113996297,None,584.5511043499689,None,,,,21012,0002,2022_Sep_10_1005,localizer,2021.1.3,60.471264728835514,
block,scenes,scenes020.bmp,,,,,0,53,53,53,,,,,,,,,,,,,,,,,,,,,,,,,,,,,,,,,,,,,,,,,,None,,584.5511043499689,None,584.5511043499689,None,2022-09-10-10:15:07.918266,584.5557091999799,584.8681687000208,584.5557091999799,None,None,584.5557091999799,None,585.3676909496542,None,,,,21012,0002,2022_Sep_10_1005,localizer,2021.1.3,60.471264728835514,
block,scenes,scenes066.bmp,,,,,0,54,54,54,,,,,,,,,,,,,,,,,,,,,,,,,,,,,,,,,,,,,,,,,,None,,585.3676909496542,None,585.3676909496542,None,2022-09-10-10:15:08.736079,585.3785535995848,585.6853616000153,585.3785535995848,None,None,585.3785535995848,None,586.184642449906,None,,,,21012,0002,2022_Sep_10_1005,localizer,2021.1.3,60.471264728835514,
block,scenes,scenes077.bmp,,,,,0,55,55,55,,,,,,,,,,,,,,,,,,,,,,,,,,,,,,,,,,,,,,,,,,None,,586.184642449906,None,586.184642449906,None,2022-09-10-10:15:09.551748,586.1899277996272,586.5014664996415,586.1899277996272,None,None,586.1899277996272,None,587.0013703498523,None,,,,21012,0002,2022_Sep_10_1005,localizer,2021.1.3,60.471264728835514,
block,scenes,scenes033.bmp,,,,,0,56,56,56,,,,,,,,,,,,,,,,,,,,,,,,,,,,,,,,,,,,,,,,,,None,,587.0013703498523,None,587.0013703498523,None,2022-09-10-10:15:10.368636,587.0114404000342,587.3183644996025,587.0114404000342,None,None,587.0114404000342,None,587.8179929498117,None,,,,21012,0002,2022_Sep_10_1005,localizer,2021.1.3,60.471264728835514,
block,scenes,scenes026.bmp,,,,,0,57,57,57,,,,,,,,,,,,,,,,,,,,,,,,,,,,,,,,,,,,,,,,,,None,,587.8179929498117,None,587.8179929498117,None,2022-09-10-10:15:11.184762,587.8202149998397,588.1352210999466,587.8202149998397,None,None,587.8202149998397,None,588.6345890499185,None,,,,21012,0002,2022_Sep_10_1005,localizer,2021.1.3,60.471264728835514,
block,scenes,scenes054.bmp,,,,,0,58,58,58,,,,,,,,,,,,,,,,,,,,,,,,,,,,,,,,,,,,,,,,,,None,,588.6345890499185,None,588.6345890499185,None,2022-09-10-10:15:12.001708,588.6453719995916,588.951787899714,588.6453719995916,None,None,588.6453719995916,None,589.451442250004,None,,,,21012,0002,2022_Sep_10_1005,localizer,2021.1.3,60.471264728835514,
block,scenes,scenes024.bmp,,,,,0,59,59,59,,,,,,,,,,,,,,,,,,,,,,,,,,,,,,,,,,,,,,,,,,None,,589.451442250004,None,589.451442250004,None,2022-09-10-10:15:12.818476,589.4610460996628,589.7686699996702,589.4610460996628,None,None,589.4610460996628,None,590.2675418499391,None,,,,21012,0002,2022_Sep_10_1005,localizer,2021.1.3,60.471264728835514,
block_end,scenes,scenes017.bmp,,,,,0,60,60,60,,,,,,,,,,,,,,,,,,,,,,,,,,,,,,,,,,,,,,,,,,None,,590.2675418499391,None,590.2675418499391,None,2022-09-10-10:15:13.634615,590.2727322997525,590.5849295998923,590.2727322997525,None,None,590.2727322997525,None,591.0843018497806,None,,,,21012,0002,2022_Sep_10_1005,localizer,2021.1.3,60.471264728835514,
null_block,null_block,null_block.bmp,,,,,0,61,61,61,,,,,,,,,,,,,,,,,,,,,,,,,,,,,,,,,,,,,,,,,,t,1.7273295000195503,591.0848991996609,None,591.0848991996609,None,2022-09-10-10:15:16.202670,592.8346667498815,None,592.8346667498815,None,None,592.8346667498815,None,592.837948799599,None,,,,21012,0002,2022_Sep_10_1005,localizer,2021.1.3,60.471264728835514,
block_start,scrambled,scrambled070.bmp,,,,,0,62,62,62,,,,,,,,,,,,,,,,,,,,,,,,,,,,,,,,,,,,,,,,,,t,1.9600975001230836,604.851932999678,None,604.851932999678,None,2022-09-10-10:15:30.203555,606.8364879996516,607.1515543996356,606.8364879996516,None,None,606.8364879996516,None,607.6511239497456,None,,,,21012,0002,2022_Sep_10_1005,localizer,2021.1.3,60.471264728835514,
block,scrambled,scrambled007.bmp,,,,,0,63,63,63,,,,,,,,,,,,,,,,,,,,,,,,,,,,,,,,,,,,,,,,,,None,,607.6511239497456,None,607.6511239497456,None,2022-09-10-10:15:31.017730,607.6601631999947,607.9686881997623,607.6601631999947,None,None,607.6601631999947,None,608.4676604498643,None,,,,21012,0002,2022_Sep_10_1005,localizer,2021.1.3,60.471264728835514,
block,scrambled,scrambled071.bmp,,,,,0,64,64,64,,,,,,,,,,,,,,,,,,,,,,,,,,,,,,,,,,,,,,,,,,None,,608.4676604498643,None,608.4676604498643,None,2022-09-10-10:15:31.834854,608.4696507998742,608.7853342997842,608.4696507998742,None,None,608.4696507998742,None,609.2846852498594,None,,,,21012,0002,2022_Sep_10_1005,localizer,2021.1.3,60.471264728835514,
block,scrambled,scrambled033.bmp,,,,,0,65,65,65,,,,,,,,,,,,,,,,,,,,,,,,,,,,,,,,,,,,,,,,,,None,,609.2846852498594,None,609.2846852498594,None,2022-09-10-10:15:32.651670,609.2870705998503,609.6015528999269,609.2870705998503,None,None,609.2870705998503,None,610.1016681496519,None,,,,21012,0002,2022_Sep_10_1005,localizer,2021.1.3,60.471264728835514,
block,scrambled,scrambled028.bmp,,,,,0,66,66,66,,,,,,,,,,,,,,,,,,,,,,,,,,,,,,,,,,,,,,,,,,None,,610.1016681496519,None,610.1016681496519,None,2022-09-10-10:15:33.469973,610.103834899608,610.4185750000179,610.103834899608,None,None,610.103834899608,None,610.9177915500011,None,,,,21012,0002,2022_Sep_10_1005,localizer,2021.1.3,60.471264728835514,
block,scrambled,scrambled088.bmp,,,,,0,67,67,67,,,,,,,,,,,,,,,,,,,,,,,,,,,,,,,,,,,,,,,,,,None,,610.9177915500011,None,610.9177915500011,None,2022-09-10-10:15:34.284557,610.9200438996777,611.2353322999552,610.9200438996777,None,None,610.9200438996777,None,611.7347609498072,None,,,,21012,0002,2022_Sep_10_1005,localizer,2021.1.3,60.471264728835514,
block,scrambled,scrambled053.bmp,,,,,0,68,68,68,,,,,,,,,,,,,,,,,,,,,,,,,,,,,,,,,,,,,,,,,,None,,611.7347609498072,None,611.7347609498072,None,2022-09-10-10:15:35.101565,611.736863899976,612.0521151996218,611.736863899976,None,None,611.736863899976,None,612.5514639499131,None,,,,21012,0002,2022_Sep_10_1005,localizer,2021.1.3,60.471264728835514,
block,scrambled,scrambled058.bmp,,,,,0,69,69,69,,,,,,,,,,,,,,,,,,,,,,,,,,,,,,,,,,,,,,,,,,None,,612.5514639499131,None,612.5514639499131,None,2022-09-10-10:15:35.919871,612.5614560996182,612.8688693000004,612.5614560996182,None,None,612.5614560996182,None,613.3679380500223,None,,,,21012,0002,2022_Sep_10_1005,localizer,2021.1.3,60.471264728835514,
block,scrambled,scrambled034.bmp,,,,,0,70,70,70,,,,,,,,,,,,,,,,,,,,,,,,,,,,,,,,,,,,,,,,,,None,,613.3679380500223,None,613.3679380500223,None,2022-09-10-10:15:36.734692,613.3701223996468,613.6854387000203,613.3701223996468,None,None,613.3701223996468,None,614.1851430497597,None,,,,21012,0002,2022_Sep_10_1005,localizer,2021.1.3,60.471264728835514,
block,scrambled,scrambled081.bmp,,,,,0,71,71,71,,,,,,,,,,,,,,,,,,,,,,,,,,,,,,,,,,,,,,,,,,None,,614.1851430497597,None,614.1851430497597,None,2022-09-10-10:15:37.553502,614.1868712999858,614.5021257000044,614.1868712999858,None,None,614.1868712999858,None,615.0013045495841,None,,,,21012,0002,2022_Sep_10_1005,localizer,2021.1.3,60.471264728835514,
block,scrambled,scrambled047.bmp,,,,,0,72,72,72,,,,,,,,,,,,,,,,,,,,,,,,,,,,,,,,,,,,,,,,,,None,,615.0013045495841,None,615.0013045495841,None,2022-09-10-10:15:38.368324,615.0108292996883,615.3188026999123,615.0108292996883,None,None,615.0108292996883,None,615.8181417500134,None,,,,21012,0002,2022_Sep_10_1005,localizer,2021.1.3,60.471264728835514,
block,scrambled,scrambled004.bmp,,,,,0,73,73,73,,,,,,,,,,,,,,,,,,,,,,,,,,,,,,,,,,,,,,,,,,None,,615.8181417500134,None,615.8181417500134,None,2022-09-10-10:15:39.185776,615.8270786996,616.1353579997085,615.8270786996,None,None,615.8270786996,None,616.634500249708,None,,,,21012,0002,2022_Sep_10_1005,localizer,2021.1.3,60.471264728835514,
block,scrambled,scrambled056.bmp,,,,,0,74,74,74,,,,,,,,,,,,,,,,,,,,,,,,,,,,,,,,,,,,,,,,,,None,,616.634500249708,None,616.634500249708,None,2022-09-10-10:15:40.001594,616.6441421997733,616.9525073999539,616.6441421997733,None,None,616.6441421997733,None,617.4514149496797,None,,,,21012,0002,2022_Sep_10_1005,localizer,2021.1.3,60.471264728835514,
block,scrambled,scrambled061.bmp,,,,,0,75,75,75,,,,,,,,,,,,,,,,,,,,,,,,,,,,,,,,,,,,,,,,,,None,,617.4514149496797,None,617.4514149496797,None,2022-09-10-10:15:40.818410,617.4534834995866,617.7683035000227,617.4534834995866,None,None,617.4534834995866,None,618.2680335496086,None,,,,21012,0002,2022_Sep_10_1005,localizer,2021.1.3,60.471264728835514,
block_end,scrambled,scrambled079.bmp,,,,,0,76,76,76,,,,,,,,,,,,,,,,,,,,,,,,,,,,,,,,,,,,,,,,,,None,,618.2680335496086,None,618.2680335496086,None,2022-09-10-10:15:41.636225,618.2702092998661,618.5850402996875,618.2702092998661,None,None,618.2702092998661,None,619.0852387495804,None,,,,21012,0002,2022_Sep_10_1005,localizer,2021.1.3,60.471264728835514,
block_start,scenes,scenes090.bmp,,,,,0,77,77,77,,,,,,,,,,,,,,,,,,,,,,,,,,,,,,,,,,,,,,,,,,t,1.7259349999949336,619.0859118998051,None,619.0859118998051,None,2022-09-10-10:15:44.201996,620.8366812998429,621.1520050000399,620.8366812998429,None,None,620.8366812998429,None,621.651512649795,None,,,,21012,0002,2022_Sep_10_1005,localizer,2021.1.3,60.471264728835514,
block,scenes,scenes027.bmp,,,,,0,78,78,78,,,,,,,,,,,,,,,,,,,,,,,,,,,,,,,,,,,,,,,,,,None,,621.651512649795,None,621.651512649795,None,2022-09-10-10:15:45.019495,621.6585816997103,621.968848399818,621.6585816997103,None,None,621.6585816997103,None,622.4682268499862,None,,,,21012,0002,2022_Sep_10_1005,localizer,2021.1.3,60.471264728835514,
block,scenes,scenes012.bmp,,,,,0,79,79,79,,,,,,,,,,,,,,,,,,,,,,,,,,,,,,,,,,,,,,,,,,None,,622.4682268499862,None,622.4682268499862,None,2022-09-10-10:15:45.836202,622.4698468996212,622.7852723998949,622.4698468996212,None,None,622.4698468996212,None,623.2849055500235,None,,,,21012,0002,2022_Sep_10_1005,localizer,2021.1.3,60.471264728835514,
block,scenes,scenes014.bmp,,,,,0,80,80,80,,,,,,,,,,,,,,,,,,,,,,,,,,,,,,,,,,,,,,,,,,None,,623.2849055500235,None,623.2849055500235,None,2022-09-10-10:15:46.652882,623.2964356997982,623.6024889997207,623.2964356997982,None,None,623.2964356997982,None,624.1019616499077,None,,,,21012,0002,2022_Sep_10_1005,localizer,2021.1.3,60.471264728835514,
block,scenes,scenes017.bmp,,,,,0,81,81,81,,,,,,,,,,,,,,,,,,,,,,,,,,,,,,,,,,,,,,,,,,None,,624.1019616499077,None,624.1019616499077,None,2022-09-10-10:15:47.470063,624.1033541997895,624.4187004999258,624.1033541997895,None,None,624.1033541997895,None,624.9024720498826,None,,,,21012,0002,2022_Sep_10_1005,localizer,2021.1.3,60.471264728835514,
block,scenes,scenes038.bmp,,,,,0,82,82,82,,,,,,,,,,,,,,,,,,,,,,,,,,,,,,,,,,,,,,,,,,None,,624.9024720498826,None,624.9024720498826,None,2022-09-10-10:15:48.273587,624.9063218999654,625.2186334999278,624.9063218999654,624.9063218999654,None,624.9063218999654,624.9063218999654,625.7182184499222,None,,,,21012,0002,2022_Sep_10_1005,localizer,2021.1.3,60.471264728835514,
block,scenes,scenes037.bmp,,,,,0,83,83,83,,,,,,,,,,,,,,,,,,,,,,,,,,,,,,,,,,,,,,,,,,None,,625.7182184499222,None,625.7182184499222,None,2022-09-10-10:15:49.086196,625.7198823997751,626.0354358996265,625.7198823997751,None,None,625.7198823997751,None,626.538888449734,None,,,,21012,0002,2022_Sep_10_1005,localizer,2021.1.3,60.471264728835514,
block,scenes,scenes020.bmp,,,,,0,84,84,84,,,,,,,,,,,,,,,,,,,,,,,,,,,,,,,,,,,,,,,,,,None,,626.538888449734,None,626.538888449734,None,2022-09-10-10:15:49.916295,626.5480898995884,626.8520165998489,626.5480898995884,None,None,626.5480898995884,None,627.352446849877,None,,,,21012,0002,2022_Sep_10_1005,localizer,2021.1.3,60.471264728835514,
block,scenes,scenes026.bmp,,,,,0,85,85,85,,,,,,,,,,,,,,,,,,,,,,,,,,,,,,,,,,,,,,,,,,None,,627.352446849877,None,627.352446849877,None,2022-09-10-10:15:50.721388,627.3551143999211,627.6688739997335,627.3551143999211,None,None,627.3551143999211,None,628.1683268500026,None,,,,21012,0002,2022_Sep_10_1005,localizer,2021.1.3,60.471264728835514,
block,scenes,scenes045.bmp,,,,,0,86,86,86,,,,,,,,,,,,,,,,,,,,,,,,,,,,,,,,,,,,,,,,,,None,,628.1683268500026,None,628.1683268500026,None,2022-09-10-10:15:51.536272,628.169792199973,628.4856396997347,628.169792199973,None,None,628.169792199973,None,628.984931849828,None,,,,21012,0002,2022_Sep_10_1005,localizer,2021.1.3,60.471264728835514,
block,scenes,scenes064.bmp,,,,,0,87,87,87,,,,,,,,,,,,,,,,,,,,,,,,,,,,,,,,,,,,,,,,,,None,,628.984931849828,None,628.984931849828,None,2022-09-10-10:15:52.353168,628.9944901997223,629.302049999591,628.9944901997223,None,None,628.9944901997223,None,629.8016636496875,None,,,,21012,0002,2022_Sep_10_1005,localizer,2021.1.3,60.471264728835514,
block,scenes,scenes062.bmp,,,,,0,88,88,88,,,,,,,,,,,,,,,,,,,,,,,,,,,,,,,,,,,,,,,,,,None,,629.8016636496875,None,629.8016636496875,None,2022-09-10-10:15:53.169974,629.8097370998003,630.119009600021,629.8097370998003,None,None,629.8097370998003,None,630.6182925495784,None,,,,21012,0002,2022_Sep_10_1005,localizer,2021.1.3,60.471264728835514,
block,scenes,scenes035.bmp,,,,,0,89,89,89,,,,,,,,,,,,,,,,,,,,,,,,,,,,,,,,,,,,,,,,,,None,,630.6182925495784,None,630.6182925495784,None,2022-09-10-10:15:53.986270,630.6292049996555,630.9354744995944,630.6292049996555,None,None,630.6292049996555,None,631.4348859497811,None,,,,21012,0002,2022_Sep_10_1005,localizer,2021.1.3,60.471264728835514,
block,scenes,scenes049.bmp,,,,,0,90,90,90,,,,,,,,,,,,,,,,,,,,,,,,,,,,,,,,,,,,,,,,,,None,,631.4348859497811,None,631.4348859497811,None,2022-09-10-10:15:54.803033,631.4365824996494,631.7521228999831,631.4365824996494,None,None,631.4365824996494,None,632.2515042498242,None,,,,21012,0002,2022_Sep_10_1005,localizer,2021.1.3,60.471264728835514,
block_end,scenes,scenes032.bmp,,,,,0,91,91,91,,,,,,,,,,,,,,,,,,,,,,,,,,,,,,,,,,,,,,,,,,None,,632.2515042498242,None,632.2515042498242,None,2022-09-10-10:15:55.619196,632.2534541999921,632.5687138997018,632.2534541999921,None,None,632.2534541999921,None,633.068276249757,None,,,,21012,0002,2022_Sep_10_1005,localizer,2021.1.3,60.471264728835514,
block_start,objects,objects085.bmp,,,,,0,92,92,92,,,,,,,,,,,,,,,,,,,,,,,,,,,,,,,,,,,,,,,,,,t,1.7428252999670804,633.0689559997991,None,633.0689559997991,None,2022-09-10-10:15:58.201898,634.8364331997,635.1522041996941,634.8364331997,None,None,634.8364331997,None,635.6515480498317,None,,,,21012,0002,2022_Sep_10_1005,localizer,2021.1.3,60.471264728835514,
block,objects,objects050.bmp,,,,,0,93,93,93,,,,,,,,,,,,,,,,,,,,,,,,,,,,,,,,,,,,,,,,,,None,,635.6515480498317,None,635.6515480498317,None,2022-09-10-10:15:59.020364,635.6530410996638,635.9688737997785,635.6530410996638,None,None,635.6530410996638,None,636.4683997500222,None,,,,21012,0002,2022_Sep_10_1005,localizer,2021.1.3,60.471264728835514,
block,objects,objects047.bmp,,,,,0,94,94,94,,,,,,,,,,,,,,,,,,,,,,,,,,,,,,,,,,,,,,,,,,None,,636.4683997500222,None,636.4683997500222,None,2022-09-10-10:15:59.836382,636.4697130997665,636.7854757998139,636.4697130997665,None,None,636.4697130997665,None,637.2848408496473,None,,,,21012,0002,2022_Sep_10_1005,localizer,2021.1.3,60.471264728835514,
block,objects,objects069.bmp,,,,,0,95,95,95,,,,,,,,,,,,,,,,,,,,,,,,,,,,,,,,,,,,,,,,,,None,,637.2848408496473,None,637.2848408496473,None,2022-09-10-10:16:00.652321,637.2937885997817,637.6028752997518,637.2937885997817,None,None,637.2937885997817,None,638.1014783498365,None,,,,21012,0002,2022_Sep_10_1005,localizer,2021.1.3,60.471264728835514,
block,objects,objects012.bmp,,,,,0,96,96,96,,,,,,,,,,,,,,,,,,,,,,,,,,,,,,,,,,,,,,,,,,None,,638.1014783498365,None,638.1014783498365,None,2022-09-10-10:16:01.469465,638.1034800997004,638.41880019987,638.1034800997004,None,None,638.1034800997004,None,638.9182938499841,None,,,,21012,0002,2022_Sep_10_1005,localizer,2021.1.3,60.471264728835514,
block,objects,objects052.bmp,,,,,0,97,97,97,,,,,,,,,,,,,,,,,,,,,,,,,,,,,,,,,,,,,,,,,,None,,638.9182938499841,None,638.9182938499841,None,2022-09-10-10:16:02.286277,638.927989799995,639.2354808999225,638.927989799995,None,None,638.927989799995,None,639.7348976498004,None,,,,21012,0002,2022_Sep_10_1005,localizer,2021.1.3,60.471264728835514,
block,objects,objects044.bmp,,,,,0,98,98,98,,,,,,,,,,,,,,,,,,,,,,,,,,,,,,,,,,,,,,,,,,None,,639.7348976498004,None,639.7348976498004,None,2022-09-10-10:16:03.103164,639.7363578998484,640.0588602996431,639.7363578998484,None,None,639.7363578998484,None,640.5515943499747,None,,,,21012,0002,2022_Sep_10_1005,localizer,2021.1.3,60.471264728835514,
block,objects,objects003.bmp,,,,,0,99,99,99,,,,,,,,,,,,,,,,,,,,,,,,,,,,,,,,,,,,,,,,,,None,,640.5515943499747,None,640.5515943499747,None,2022-09-10-10:16:03.919578,640.5530632999726,640.8686387999915,640.5530632999726,None,None,640.5530632999726,None,641.3683502496685,None,,,,21012,0002,2022_Sep_10_1005,localizer,2021.1.3,60.471264728835514,
block,objects,objects046.bmp,,,,,0,100,100,100,,,,,,,,,,,,,,,,,,,,,,,,,,,,,,,,,,,,,,,,,,None,,641.3683502496685,None,641.3683502496685,None,2022-09-10-10:16:04.736560,641.3697521998547,641.6856555999257,641.3697521998547,None,None,641.3697521998547,None,642.1850250497926,None,,,,21012,0002,2022_Sep_10_1005,localizer,2021.1.3,60.471264728835514,
block,objects,objects017.bmp,,,,,0,101,101,101,,,,,,,,,,,,,,,,,,,,,,,,,,,,,,,,,,,,,,,,,,None,,642.1850250497926,None,642.1850250497926,None,2022-09-10-10:16:05.553166,642.1865452998318,642.5022316998802,642.1865452998318,None,None,642.1865452998318,None,643.001660249615,None,,,,21012,0002,2022_Sep_10_1005,localizer,2021.1.3,60.471264728835514,
block,objects,objects040.bmp,,,,,0,102,102,102,,,,,,,,,,,,,,,,,,,,,,,,,,,,,,,,,,,,,,,,,,None,,643.001660249615,None,643.001660249615,None,2022-09-10-10:16:06.369645,643.0123886000365,643.3187772999518,643.0123886000365,None,None,643.0123886000365,None,643.8182937497738,None,,,,21012,0002,2022_Sep_10_1005,localizer,2021.1.3,60.471264728835514,
block,objects,objects025.bmp,,,,,0,103,103,103,,,,,,,,,,,,,,,,,,,,,,,,,,,,,,,,,,,,,,,,,,None,,643.8182937497738,None,643.8182937497738,None,2022-09-10-10:16:07.186280,643.8277659998275,644.1357073998079,643.8277659998275,None,None,643.8277659998275,None,644.6347133498173,None,,,,21012,0002,2022_Sep_10_1005,localizer,2021.1.3,60.471264728835514,
block,objects,objects057.bmp,,,,,0,104,104,104,,,,,,,,,,,,,,,,,,,,,,,,,,,,,,,,,,,,,,,,,,None,,644.6347133498173,None,644.6347133498173,None,2022-09-10-10:16:08.002699,644.6367623000406,644.9522172999568,644.6367623000406,None,None,644.6367623000406,None,645.451861649705,None,,,,21012,0002,2022_Sep_10_1005,localizer,2021.1.3,60.471264728835514,
block,objects,objects005.bmp,,,,,0,105,105,105,,,,,,,,,,,,,,,,,,,,,,,,,,,,,,,,,,,,,,,,,,None,,645.451861649705,None,645.451861649705,None,2022-09-10-10:16:08.819847,645.4532670998015,645.7689192998223,645.4532670998015,None,None,645.4532670998015,None,646.2681114496197,None,,,,21012,0002,2022_Sep_10_1005,localizer,2021.1.3,60.471264728835514,
block_end,objects,objects059.bmp,,,,,0,106,106,106,,,,,,,,,,,,,,,,,,,,,,,,,,,,,,,,,,,,,,,,,,None,,646.2681114496197,None,646.2681114496197,None,2022-09-10-10:16:09.636380,646.2752578998916,646.5854585999623,646.2752578998916,None,None,646.2752578998916,None,647.0849491497036,None,,,,21012,0002,2022_Sep_10_1005,localizer,2021.1.3,60.471264728835514,
block_start,faces,faces063.bmp,,,,,0,107,107,107,,,,,,,,,,,,,,,,,,,,,,,,,,,,,,,,,,,,,,,,,,t,1.725504799745977,647.0854797996581,None,647.0854797996581,None,2022-09-10-10:16:12.203160,648.8465121998452,649.1522341999225,648.8465121998452,None,None,648.8465121998452,None,649.6516892499756,None,,,,21012,0002,2022_Sep_10_1005,localizer,2021.1.3,60.471264728835514,
block,faces,faces032.bmp,,,,,0,108,108,108,,,,,,,,,,,,,,,,,,,,,,,,,,,,,,,,,,,,,,,,,,None,,649.6516892499756,None,649.6516892499756,None,2022-09-10-10:16:13.019679,649.6533398996107,649.9688860997558,649.6533398996107,None,None,649.6533398996107,None,650.4682475500274,None,,,,21012,0002,2022_Sep_10_1005,localizer,2021.1.3,60.471264728835514,
block,faces,faces070.bmp,,,,,0,109,109,109,,,,,,,,,,,,,,,,,,,,,,,,,,,,,,,,,,,,,,,,,,None,,650.4682475500274,None,650.4682475500274,None,2022-09-10-10:16:13.836250,650.4701203997247,650.7855623997748,650.4701203997247,None,None,650.4701203997247,None,651.2847612499725,None,,,,21012,0002,2022_Sep_10_1005,localizer,2021.1.3,60.471264728835514,
block,faces,faces039.bmp,,,,,0,110,110,110,,,,,,,,,,,,,,,,,,,,,,,,,,,,,,,,,,,,,,,,,,None,,651.2847612499725,None,651.2847612499725,None,2022-09-10-10:16:14.652750,651.296214599628,651.6021815999411,651.296214599628,None,None,651.296214599628,None,652.089371749619,None,,,,21012,0002,2022_Sep_10_1005,localizer,2021.1.3,60.471264728835514,
block,faces,faces007.bmp,,,,,0,111,111,111,,,,,,,,,,,,,,,,,,,,,,,,,,,,,,,,,,,,,,,,,,None,,652.089371749619,None,652.089371749619,None,2022-09-10-10:16:15.459059,652.0961448997259,652.4022291000001,652.0961448997259,None,None,652.0961448997259,None,652.9020877498667,None,,,,21012,0002,2022_Sep_10_1005,localizer,2021.1.3,60.471264728835514,
block,faces,faces051.bmp,,,,,0,112,112,112,,,,,,,,,,,,,,,,,,,,,,,,,,,,,,,,,,,,,,,,,,None,,652.9020877498667,None,652.9020877498667,None,2022-09-10-10:16:16.270073,652.903240500018,653.2192092998885,652.903240500018,None,None,652.903240500018,None,653.7186720496509,None,,,,21012,0002,2022_Sep_10_1005,localizer,2021.1.3,60.471264728835514,
block,faces,faces052.bmp,,,,,0,113,113,113,,,,,,,,,,,,,,,,,,,,,,,,,,,,,,,,,,,,,,,,,,None,,653.7186720496509,None,653.7186720496509,None,2022-09-10-10:16:17.086653,653.7297919997945,654.0353583996184,653.7297919997945,None,None,653.7297919997945,None,654.5350823499728,None,,,,21012,0002,2022_Sep_10_1005,localizer,2021.1.3,60.471264728835514,
block,faces,faces047.bmp,,,,,0,114,114,114,,,,,,,,,,,,,,,,,,,,,,,,,,,,,,,,,,,,,,,,,,None,,654.5350823499728,None,654.5350823499728,None,2022-09-10-10:16:17.903070,654.5368064995855,654.8524330998771,654.5368064995855,None,None,654.5368064995855,None,655.3518410496879,None,,,,21012,0002,2022_Sep_10_1005,localizer,2021.1.3,60.471264728835514,
block,faces,faces047.bmp,,,,,0,115,115,115,,,,,,,,,,,,,,,,,,,,,,,,,,,,,,,,,,,,,,,,,,None,,655.3518410496879,None,655.3518410496879,None,2022-09-10-10:16:18.720048,655.3533630999736,655.6690878998488,655.3533630999736,None,y,655.3533630999736,None,656.1683142496738,None,0.661211000289768,,,21012,0002,2022_Sep_10_1005,localizer,2021.1.3,60.471264728835514,
block,faces,faces057.bmp,,,,,0,116,116,116,,,,,,,,,,,,,,,,,,,,,,,,,,,,,,,,,,,,,,,,,,None,,656.1683142496738,None,656.1683142496738,None,2022-09-10-10:16:19.536308,656.1701404997148,656.4852626998909,656.1701404997148,None,None,656.1701404997148,None,656.9852603496518,None,,,,21012,0002,2022_Sep_10_1005,localizer,2021.1.3,60.471264728835514,
block,faces,faces034.bmp,,,,,0,117,117,117,,,,,,,,,,,,,,,,,,,,,,,,,,,,,,,,,,,,,,,,,,None,,656.9852603496518,None,656.9852603496518,None,2022-09-10-10:16:20.353250,656.9867064999416,657.2911970997229,656.9867064999416,None,None,656.9867064999416,None,657.7863854499999,None,,,,21012,0002,2022_Sep_10_1005,localizer,2021.1.3,60.471264728835514,
block,faces,faces045.bmp,,,,,0,118,118,118,,,,,,,,,,,,,,,,,,,,,,,,,,,,,,,,,,,,,,,,,,None,,657.7863854499999,None,657.7863854499999,None,2022-09-10-10:16:21.158485,657.7912399997003,658.1022496996447,657.7912399997003,657.7912399997003,None,657.7912399997003,657.7912399997003,658.6019699498545,None,,,,21012,0002,2022_Sep_10_1005,localizer,2021.1.3,60.471264728835514,
block,faces,faces013.bmp,,,,,0,119,119,119,,,,,,,,,,,,,,,,,,,,,,,,,,,,,,,,,,,,,,,,,,None,,658.6019699498545,None,658.6019699498545,None,2022-09-10-10:16:21.969660,658.6034523998387,658.9189204997383,658.6034523998387,None,None,658.6034523998387,None,659.4031326500233,None,,,,21012,0002,2022_Sep_10_1005,localizer,2021.1.3,60.471264728835514,
block,faces,faces074.bmp,,,,,0,120,120,120,,,,,,,,,,,,,,,,,,,,,,,,,,,,,,,,,,,,,,,,,,None,,659.4031326500233,None,659.4031326500233,None,2022-09-10-10:16:22.775321,659.4210593998432,659.7363046999089,659.4210593998432,659.4210593998432,None,659.4210593998432,659.4210593998432,660.2183685497846,None,,,,21012,0002,2022_Sep_10_1005,localizer,2021.1.3,60.471264728835514,
block_end,faces,faces079.bmp,,,,,0,121,121,121,,,,,,,,,,,,,,,,,,,,,,,,,,,,,,,,,,,,,,,,,,None,,660.2183685497846,None,660.2183685497846,None,2022-09-10-10:16:23.586362,660.220081999898,660.5355786997825,660.220081999898,None,None,660.220081999898,None,661.0191526496317,None,,,,21012,0002,2022_Sep_10_1005,localizer,2021.1.3,60.471264728835514,
block_start,scrambled,scrambled088.bmp,,,,,0,122,122,122,,,,,,,,,,,,,,,,,,,,,,,,,,,,,,,,,,,,,,,,,,t,1.7912721000611782,661.0200530998409,None,661.0200530998409,None,2022-09-10-10:16:26.214452,662.8487272998318,663.1522490996867,662.8487272998318,None,None,662.8487272998318,None,663.6515997498761,None,,,,21012,0002,2022_Sep_10_1005,localizer,2021.1.3,60.471264728835514,
block,scrambled,scrambled015.bmp,,,,,0,123,123,123,,,,,,,,,,,,,,,,,,,,,,,,,,,,,,,,,,,,,,,,,,None,,663.6515997498761,None,663.6515997498761,None,2022-09-10-10:16:27.019594,663.6534854997881,663.9691620999947,663.6534854997881,None,None,663.6534854997881,None,664.4524856497999,None,,,,21012,0002,2022_Sep_10_1005,localizer,2021.1.3,60.471264728835514,
block,scrambled,scrambled059.bmp,,,,,0,124,124,124,,,,,,,,,,,,,,,,,,,,,,,,,,,,,,,,,,,,,,,,,,None,,664.4524856497999,None,664.4524856497999,None,2022-09-10-10:16:27.823457,664.4670789996162,664.7690959000029,664.4670789996162,664.4670789996162,None,664.4670789996162,664.4670789996162,665.2688319496344,None,,,,21012,0002,2022_Sep_10_1005,localizer,2021.1.3,60.471264728835514,
block,scrambled,scrambled003.bmp,,,,,0,125,125,125,,,,,,,,,,,,,,,,,,,,,,,,,,,,,,,,,,,,,,,,,,None,,665.2688319496344,None,665.2688319496344,None,2022-09-10-10:16:28.636825,665.2785064997151,665.5854552998208,665.2785064997151,None,None,665.2785064997151,None,666.0854094498325,None,,,,21012,0002,2022_Sep_10_1005,localizer,2021.1.3,60.471264728835514,
block,scrambled,scrambled049.bmp,,,,,0,126,126,126,,,,,,,,,,,,,,,,,,,,,,,,,,,,,,,,,,,,,,,,,,None,,666.0854094498325,None,666.0854094498325,None,2022-09-10-10:16:29.453768,666.0959975998849,666.402140500024,666.0959975998849,None,None,666.0959975998849,None,666.9018420497421,None,,,,21012,0002,2022_Sep_10_1005,localizer,2021.1.3,60.471264728835514,
block,scrambled,scrambled032.bmp,,,,,0,127,127,127,,,,,,,,,,,,,,,,,,,,,,,,,,,,,,,,,,,,,,,,,,None,,666.9018420497421,None,666.9018420497421,None,2022-09-10-10:16:30.269835,666.9033432998694,667.2188558997586,666.9033432998694,None,None,666.9033432998694,None,667.708740149578,None,,,,21012,0002,2022_Sep_10_1005,localizer,2021.1.3,60.471264728835514,
block,scrambled,scrambled061.bmp,,,,,0,128,128,128,,,,,,,,,,,,,,,,,,,,,,,,,,,,,,,,,,,,,,,,,,None,,667.708740149578,None,667.708740149578,None,2022-09-10-10:16:31.081683,667.7147030998021,668.0194459999911,667.7147030998021,None,None,667.7147030998021,None,668.5184056497644,None,,,,21012,0002,2022_Sep_10_1005,localizer,2021.1.3,60.471264728835514,
block,scrambled,scrambled054.bmp,,,,,0,129,129,129,,,,,,,,,,,,,,,,,,,,,,,,,,,,,,,,,,,,,,,,,,None,,668.5184056497644,None,668.5184056497644,None,2022-09-10-10:16:31.886398,668.5200196998194,668.8271141997539,668.5200196998194,None,None,668.5200196998194,None,669.3352028498891,None,,,,21012,0002,2022_Sep_10_1005,localizer,2021.1.3,60.471264728835514,
block,scrambled,scrambled074.bmp,,,,,0,130,130,130,,,,,,,,,,,,,,,,,,,,,,,,,,,,,,,,,,,,,,,,,,None,,669.3352028498891,None,669.3352028498891,None,2022-09-10-10:16:32.703447,669.3365225996822,669.6364177996293,669.3365225996822,None,None,669.3365225996822,None,670.1516776498872,None,,,,21012,0002,2022_Sep_10_1005,localizer,2021.1.3,60.471264728835514,
block,scrambled,scrambled019.bmp,,,,,0,131,131,131,,,,,,,,,,,,,,,,,,,,,,,,,,,,,,,,,,,,,,,,,,None,,670.1516776498872,None,670.1516776498872,None,2022-09-10-10:16:33.518499,670.157102199737,670.4691093997099,670.157102199737,None,None,670.157102199737,None,670.9685330497566,None,,,,21012,0002,2022_Sep_10_1005,localizer,2021.1.3,60.471264728835514,
block,scrambled,scrambled023.bmp,,,,,0,132,132,132,,,,,,,,,,,,,,,,,,,,,,,,,,,,,,,,,,,,,,,,,,None,,670.9685330497566,None,670.9685330497566,None,2022-09-10-10:16:34.336527,670.9790882999077,671.2857451997697,670.9790882999077,None,None,670.9790882999077,None,671.7747338497545,None,,,,21012,0002,2022_Sep_10_1005,localizer,2021.1.3,60.471264728835514,
block,scrambled,scrambled087.bmp,,,,,0,133,133,133,,,,,,,,,,,,,,,,,,,,,,,,,,,,,,,,,,,,,,,,,,None,,671.7747338497545,None,671.7747338497545,None,2022-09-10-10:16:35.150594,671.7848451999016,672.085610399954,671.7848451999016,None,None,671.7848451999016,None,672.5851306500379,None,,,,21012,0002,2022_Sep_10_1005,localizer,2021.1.3,60.471264728835514,
block,scrambled,scrambled021.bmp,,,,,0,134,134,134,,,,,,,,,,,,,,,,,,,,,,,,,,,,,,,,,,,,,,,,,,None,,672.5851306500379,None,672.5851306500379,None,2022-09-10-10:16:35.953440,672.5865485998802,672.909164799843,672.5865485998802,None,None,672.5865485998802,None,673.4018399496097,None,,,,21012,0002,2022_Sep_10_1005,localizer,2021.1.3,60.471264728835514,
block,scrambled,scrambled069.bmp,,,,,0,135,135,135,,,,,,,,,,,,,,,,,,,,,,,,,,,,,,,,,,,,,,,,,,None,,673.4018399496097,None,673.4018399496097,None,2022-09-10-10:16:36.769832,673.4033483997919,673.7191585996188,673.4033483997919,None,None,673.4033483997919,None,674.202517349692,None,,,,21012,0002,2022_Sep_10_1005,localizer,2021.1.3,60.471264728835514,
block_end,scrambled,scrambled039.bmp,,,,,0,136,136,136,,,,,,,,,,,,,,,,,,,,,,,,,,,,,,,,,,,,,,,,,,None,,674.202517349692,None,674.202517349692,None,2022-09-10-10:16:37.573423,674.2060328000225,674.5190627998672,674.2060328000225,674.2060328000225,None,674.2060328000225,674.2060328000225,675.018602849869,None,,,,21012,0002,2022_Sep_10_1005,localizer,2021.1.3,60.471264728835514,
null_block,null_block,null_block.bmp,,,,,0,137,137,137,,,,,,,,,,,,,,,,,,,,,,,,,,,,,,,,,,,,,,,,,,t,1.7918499996885657,675.0190816000104,None,675.0190816000104,None,2022-09-10-10:16:40.202486,676.8353579500224,None,676.8353579500224,None,None,676.8353579500224,None,676.8377871997654,None,,,,21012,0002,2022_Sep_10_1005,localizer,2021.1.3,60.471264728835514,
block_start,faces,faces012.bmp,,,,,0,138,138,138,,,,,,,,,,,,,,,,,,,,,,,,,,,,,,,,,,,,,,,,,,t,1.9582483996637166,688.8525608000346,None,688.8525608000346,None,2022-09-10-10:16:54.203326,690.8370923995972,691.1524394997396,690.8370923995972,None,None,690.8370923995972,None,691.6519637498538,None,,,,21012,0002,2022_Sep_10_1005,localizer,2021.1.3,60.471264728835514,
block,faces,faces013.bmp,,,,,0,139,139,139,,,,,,,,,,,,,,,,,,,,,,,,,,,,,,,,,,,,,,,,,,None,,691.6519637498538,None,691.6519637498538,None,2022-09-10-10:16:55.019972,691.6537893996574,691.9691833998077,691.6537893996574,None,None,691.6537893996574,None,692.4533889498096,None,,,,21012,0002,2022_Sep_10_1005,localizer,2021.1.3,60.471264728835514,
block,faces,faces065.bmp,,,,,0,140,140,140,,,,,,,,,,,,,,,,,,,,,,,,,,,,,,,,,,,,,,,,,,None,,692.4533889498096,None,692.4533889498096,None,2022-09-10-10:16:55.824976,692.4576910999604,692.76928030001,692.4576910999604,692.4576910999604,None,692.4576910999604,692.4576910999604,693.2584140495862,None,,,,21012,0002,2022_Sep_10_1005,localizer,2021.1.3,60.471264728835514,
block,faces,faces027.bmp,,,,,0,141,141,141,,,,,,,,,,,,,,,,,,,,,,,,,,,,,,,,,,,,,,,,,,None,,693.2584140495862,None,693.2584140495862,None,2022-09-10-10:16:56.635300,693.2660652999766,693.569079999812,693.2660652999766,693.2660652999766,None,693.2660652999766,693.2660652999766,694.0718215498607,None,,,,21012,0002,2022_Sep_10_1005,localizer,2021.1.3,60.471264728835514,
block,faces,faces050.bmp,,,,,0,142,142,142,,,,,,,,,,,,,,,,,,,,,,,,,,,,,,,,,,,,,,,,,,None,,694.0718215498607,None,694.0718215498607,None,2022-09-10-10:16:57.442403,694.0864609000273,694.4024939998053,694.0864609000273,None,None,694.0864609000273,None,694.8851993497926,None,,,,21012,0002,2022_Sep_10_1005,localizer,2021.1.3,60.471264728835514,
block,faces,faces059.bmp,,,,,0,143,143,143,,,,,,,,,,,,,,,,,,,,,,,,,,,,,,,,,,,,,,,,,,None,,694.8851993497926,None,694.8851993497926,None,2022-09-10-10:16:58.253207,694.8942715995945,695.2062822999433,694.8942715995945,None,None,694.8942715995945,None,695.7044089496601,None,,,,21012,0002,2022_Sep_10_1005,localizer,2021.1.3,60.471264728835514,
block,faces,faces031.bmp,,,,,0,144,144,144,,,,,,,,,,,,,,,,,,,,,,,,,,,,,,,,,,,,,,,,,,None,,695.7044089496601,None,695.7044089496601,None,2022-09-10-10:16:59.076401,695.7180093997158,696.0191906997934,695.7180093997158,None,None,695.7180093997158,None,696.5248501495923,None,,,,21012,0002,2022_Sep_10_1005,localizer,2021.1.3,60.471264728835514,
block,faces,faces069.bmp,,,,,0,145,145,145,,,,,,,,,,,,,,,,,,,,,,,,,,,,,,,,,,,,,,,,,,None,,696.5248501495923,None,696.5248501495923,None,2022-09-10-10:16:59.897562,696.529518999625,696.8357533998787,696.529518999625,None,None,696.529518999625,None,697.3366461498197,None,,,,21012,0002,2022_Sep_10_1005,localizer,2021.1.3,60.471264728835514,
block,faces,faces033.bmp,,,,,0,146,146,146,,,,,,,,,,,,,,,,,,,,,,,,,,,,,,,,,,,,,,,,,,None,,697.3366461498197,None,697.3366461498197,None,2022-09-10-10:17:00.704806,697.3371826997027,697.6529593998566,697.3371826997027,None,None,697.3371826997027,None,698.1416249498259,None,,,,21012,0002,2022_Sep_10_1005,localizer,2021.1.3,60.471264728835514,
block,faces,faces056.bmp,,,,,0,147,147,147,,,,,,,,,,,,,,,,,,,,,,,,,,,,,,,,,,,,,,,,,,None,,698.1416249498259,None,698.1416249498259,None,2022-09-10-10:17:01.513556,698.1560236997902,698.4700115998276,698.1560236997902,None,None,698.1560236997902,None,698.9519106498453,None,,,,21012,0002,2022_Sep_10_1005,localizer,2021.1.3,60.471264728835514,
block,faces,faces026.bmp,,,,,0,148,148,148,,,,,,,,,,,,,,,,,,,,,,,,,,,,,,,,,,,,,,,,,,None,,698.9519106498453,None,698.9519106498453,None,2022-09-10-10:17:02.319977,698.9536091997288,699.2525299997069,698.9536091997288,None,None,698.9536091997288,None,699.7534535498824,None,,,,21012,0002,2022_Sep_10_1005,localizer,2021.1.3,60.471264728835514,
block,faces,faces049.bmp,,,,,0,149,149,149,,,,,,,,,,,,,,,,,,,,,,,,,,,,,,,,,,,,,,,,,,None,,699.7534535498824,None,699.7534535498824,None,2022-09-10-10:17:03.125515,699.7582421000116,700.0692187999375,699.7582421000116,699.7582421000116,None,699.7582421000116,699.7582421000116,700.5700390496756,None,,,,21012,0002,2022_Sep_10_1005,localizer,2021.1.3,60.471264728835514,
block,faces,faces052.bmp,,,,,0,150,150,150,,,,,,,,,,,,,,,,,,,,,,,,,,,,,,,,,,,,,,,,,,None,,700.5700390496756,None,700.5700390496756,None,2022-09-10-10:17:03.938963,700.5729244998656,700.8924868996255,700.5729244998656,None,None,700.5729244998656,None,701.3852065498475,None,,,,21012,0002,2022_Sep_10_1005,localizer,2021.1.3,60.471264728835514,
block,faces,faces081.bmp,,,,,0,151,151,151,,,,,,,,,,,,,,,,,,,,,,,,,,,,,,,,,,,,,,,,,,None,,701.3852065498475,None,701.3852065498475,None,2022-09-10-10:17:04.751766,701.3881253995933,701.702624199912,701.3881253995933,None,None,701.3881253995933,None,702.2033875500317,None,,,,21012,0002,2022_Sep_10_1005,localizer,2021.1.3,60.471264728835514,
block_end,faces,faces071.bmp,,,,,0,152,152,152,,,,,,,,,,,,,,,,,,,,,,,,,,,,,,,,,,,,,,,,,,None,,702.2033875500317,None,702.2033875500317,None,2022-09-10-10:17:05.573119,702.2172323996201,702.5231540999375,702.2172323996201,None,None,702.2172323996201,None,703.019579149736,None,,,,21012,0002,2022_Sep_10_1005,localizer,2021.1.3,60.471264728835514,
block_start,objects,objects032.bmp,,,,,0,153,153,153,,,,,,,,,,,,,,,,,,,,,,,,,,,,,,,,,,,,,,,,,,t,1.7907263999804854,703.0201272997074,None,703.0201272997074,None,2022-09-10-10:17:08.206175,704.8395973998122,705.1524589997716,704.8395973998122,None,None,704.8395973998122,None,705.6518323500175,None,,,,21012,0002,2022_Sep_10_1005,localizer,2021.1.3,60.471264728835514,
block,objects,objects057.bmp,,,,,0,154,154,154,,,,,,,,,,,,,,,,,,,,,,,,,,,,,,,,,,,,,,,,,,None,,705.6518323500175,None,705.6518323500175,None,2022-09-10-10:17:09.020153,705.6537484996952,705.9692104998976,705.6537484996952,None,None,705.6537484996952,None,706.4543117498513,None,,,,21012,0002,2022_Sep_10_1005,localizer,2021.1.3,60.471264728835514,
block,objects,objects055.bmp,,,,,0,155,155,155,,,,,,,,,,,,,,,,,,,,,,,,,,,,,,,,,,,,,,,,,,None,,706.4543117498513,None,706.4543117498513,None,2022-09-10-10:17:09.828442,706.4740876997821,706.7861250997521,706.4740876997821,706.4740876997821,None,706.4740876997821,706.4740876997821,707.270965049928,None,,,,21012,0002,2022_Sep_10_1005,localizer,2021.1.3,60.471264728835514,
block,objects,objects058.bmp,,,,,0,156,156,156,,,,,,,,,,,,,,,,,,,,,,,,,,,,,,,,,,,,,,,,,,None,,707.270965049928,None,707.270965049928,None,2022-09-10-10:17:10.642932,707.2860301998444,707.6092125996947,707.2860301998444,None,None,707.2860301998444,None,708.0853227497544,None,,,,21012,0002,2022_Sep_10_1005,localizer,2021.1.3,60.471264728835514,
block,objects,objects013.bmp,,,,,0,157,157,157,,,,,,,,,,,,,,,,,,,,,,,,,,,,,,,,,,,,,,,,,,None,,708.0853227497544,None,708.0853227497544,None,2022-09-10-10:17:11.453829,708.0898544997908,708.4023710996844,708.0898544997908,None,None,708.0898544997908,None,708.9027285496238,None,,,,21012,0002,2022_Sep_10_1005,localizer,2021.1.3,60.471264728835514,
block,objects,objects021.bmp,,,,,0,158,158,158,,,,,,,,,,,,,,,,,,,,,,,,,,,,,,,,,,,,,,,,,,None,,708.9027285496238,None,708.9027285496238,None,2022-09-10-10:17:12.271672,708.9049362000078,709.2045997995883,708.9049362000078,None,None,708.9049362000078,None,709.7194462497253,None,,,,21012,0002,2022_Sep_10_1005,localizer,2021.1.3,60.471264728835514,
block,objects,objects024.bmp,,,,,0,159,159,159,,,,,,,,,,,,,,,,,,,,,,,,,,,,,,,,,,,,,,,,,,None,,709.7194462497253,None,709.7194462497253,None,2022-09-10-10:17:13.088315,709.721394599881,710.0363501999527,709.721394599881,None,None,709.721394599881,None,710.5367305497173,None,,,,21012,0002,2022_Sep_10_1005,localizer,2021.1.3,60.471264728835514,
block,objects,objects049.bmp,,,,,0,160,160,160,,,,,,,,,,,,,,,,,,,,,,,,,,,,,,,,,,,,,,,,,,None,,710.5367305497173,None,710.5367305497173,None,2022-09-10-10:17:13.906251,710.5465894998051,710.8526198999025,710.5465894998051,None,None,710.5465894998051,None,711.3520442498382,None,,,,21012,0002,2022_Sep_10_1005,localizer,2021.1.3,60.471264728835514,
block,objects,objects073.bmp,,,,,0,161,161,161,,,,,,,,,,,,,,,,,,,,,,,,,,,,,,,,,,,,,,,,,,None,,711.3520442498382,None,711.3520442498382,None,2022-09-10-10:17:14.720340,711.3537037996575,711.6691630999558,711.3537037996575,None,None,711.3537037996575,None,712.1541958497371,None,,,,21012,0002,2022_Sep_10_1005,localizer,2021.1.3,60.471264728835514,
block,objects,objects037.bmp,,,,,0,162,162,162,,,,,,,,,,,,,,,,,,,,,,,,,,,,,,,,,,,,,,,,,,None,,712.1541958497371,None,712.1541958497371,None,2022-09-10-10:17:15.528158,712.1622746996582,712.4693383998238,712.1622746996582,712.1622746996582,None,712.1622746996582,712.1622746996582,712.9685273495968,None,,,,21012,0002,2022_Sep_10_1005,localizer,2021.1.3,60.471264728835514,
block,objects,objects074.bmp,,,,,0,163,163,163,,,,,,,,,,,,,,,,,,,,,,,,,,,,,,,,,,,,,,,,,,None,,712.9685273495968,None,712.9685273495968,None,2022-09-10-10:17:16.336075,712.9703187998384,713.2702425997704,712.9703187998384,None,None,712.9703187998384,None,713.7920892498921,None,,,,21012,0002,2022_Sep_10_1005,localizer,2021.1.3,60.471264728835514,
block,objects,objects015.bmp,,,,,0,164,164,164,,,,,,,,,,,,,,,,,,,,,,,,,,,,,,,,,,,,,,,,,,None,,713.7920892498921,None,713.7920892498921,None,2022-09-10-10:17:17.169061,713.7995194997638,714.1033474998549,713.7995194997638,None,None,713.7995194997638,None,714.6035198498982,None,,,,21012,0002,2022_Sep_10_1005,localizer,2021.1.3,60.471264728835514,
block,objects,objects014.bmp,,,,,0,165,165,165,,,,,,,,,,,,,,,,,,,,,,,,,,,,,,,,,,,,,,,,,,None,,714.6035198498982,None,714.6035198498982,None,2022-09-10-10:17:17.973375,714.6072195000015,714.9258734998293,714.6072195000015,None,None,714.6072195000015,None,715.419566649897,None,,,,21012,0002,2022_Sep_10_1005,localizer,2021.1.3,60.471264728835514,
block,objects,objects064.bmp,,,,,0,166,166,166,,,,,,,,,,,,,,,,,,,,,,,,,,,,,,,,,,,,,,,,,,None,,715.419566649897,None,715.419566649897,None,2022-09-10-10:17:18.788384,715.4317109999247,715.7367843999527,715.4317109999247,None,None,715.4317109999247,None,716.2362849497702,None,,,,21012,0002,2022_Sep_10_1005,localizer,2021.1.3,60.471264728835514,
block_end,objects,objects064.bmp,,,,,0,167,167,167,,,,,,,,,,,,,,,,,,,,,,,,,,,,,,,,,,,,,,,,,,None,,716.2362849497702,None,716.2362849497702,None,2022-09-10-10:17:19.605083,716.2383216996677,716.5433997996151,716.2383216996677,None,None,716.2383216996677,None,717.0519135496113,None,,,,21012,0002,2022_Sep_10_1005,localizer,2021.1.3,60.471264728835514,
block_start,scenes,scenes061.bmp,,,,,0,168,168,168,,,,,,,,,,,,,,,,,,,,,,,,,,,,,,,,,,,,,,,,,,t,1.7586234002374113,717.0526727000251,None,717.0526727000251,None,2022-09-10-10:17:22.209128,718.8466661996208,719.1528196996078,718.8466661996208,None,None,718.8466661996208,None,719.653489349829,None,,,,21012,0002,2022_Sep_10_1005,localizer,2021.1.3,60.471264728835514,
block,scenes,scenes063.bmp,,,,,0,169,169,169,,,,,,,,,,,,,,,,,,,,,,,,,,,,,,,,,,,,,,,,,,None,,719.653489349829,None,719.653489349829,None,2022-09-10-10:17:23.023466,719.6694006999023,719.9700050996616,719.6694006999023,None,None,719.6694006999023,None,720.4687324496451,None,,,,21012,0002,2022_Sep_10_1005,localizer,2021.1.3,60.471264728835514,
block,scenes,scenes029.bmp,,,,,0,170,170,170,,,,,,,,,,,,,,,,,,,,,,,,,,,,,,,,,,,,,,,,,,None,,720.4687324496451,None,720.4687324496451,None,2022-09-10-10:17:23.836536,720.4704334996641,720.7866320996545,720.4704334996641,None,None,720.4704334996641,None,721.2731728497427,None,,,,21012,0002,2022_Sep_10_1005,localizer,2021.1.3,60.471264728835514,
block,scenes,scenes073.bmp,,,,,0,171,171,171,,,,,,,,,,,,,,,,,,,,,,,,,,,,,,,,,,,,,,,,,,None,,721.2731728497427,None,721.2731728497427,None,2022-09-10-10:17:24.644145,721.2789572998881,721.5858167000115,721.2789572998881,None,None,721.2789572998881,None,722.0868267500307,None,,,,21012,0002,2022_Sep_10_1005,localizer,2021.1.3,60.471264728835514,
block,scenes,scenes071.bmp,,,,,0,172,172,172,,,,,,,,,,,,,,,,,,,,,,,,,,,,,,,,,,,,,,,,,,None,,722.0868267500307,None,722.0868267500307,None,2022-09-10-10:17:25.455917,722.0899477000348,722.403457599692,722.0899477000348,None,None,722.0899477000348,None,722.9028609497007,None,,,,21012,0002,2022_Sep_10_1005,localizer,2021.1.3,60.471264728835514,
block,scenes,scenes022.bmp,,,,,0,173,173,173,,,,,,,,,,,,,,,,,,,,,,,,,,,,,,,,,,,,,,,,,,None,,722.9028609497007,None,722.9028609497007,None,2022-09-10-10:17:26.271775,722.9151701997034,723.2201413996518,722.9151701997034,None,None,722.9151701997034,None,723.7201521498616,None,,,,21012,0002,2022_Sep_10_1005,localizer,2021.1.3,60.471264728835514,
block,scenes,scenes037.bmp,,,,,0,174,174,174,,,,,,,,,,,,,,,,,,,,,,,,,,,,,,,,,,,,,,,,,,None,,723.7201521498616,None,723.7201521498616,None,2022-09-10-10:17:27.090215,723.7229491998442,724.0364720998332,723.7229491998442,None,None,723.7229491998442,None,724.5361533499788,None,,,,21012,0002,2022_Sep_10_1005,localizer,2021.1.3,60.471264728835514,
block,scenes,scenes001.bmp,,,,,0,175,175,175,,,,,,,,,,,,,,,,,,,,,,,,,,,,,,,,,,,,,,,,,,None,,724.5361533499788,None,724.5361533499788,None,2022-09-10-10:17:27.905327,724.5490473997779,724.8537303996272,724.5490473997779,None,None,724.5490473997779,None,725.353914349759,None,,,,21012,0002,2022_Sep_10_1005,localizer,2021.1.3,60.471264728835514,
block,scenes,scenes044.bmp,,,,,0,176,176,176,,,,,,,,,,,,,,,,,,,,,,,,,,,,,,,,,,,,,,,,,,None,,725.353914349759,None,725.353914349759,None,2022-09-10-10:17:28.724087,725.3633316997439,725.6702496996149,725.3633316997439,None,None,725.3633316997439,None,726.1591314496006,None,,,,21012,0002,2022_Sep_10_1005,localizer,2021.1.3,60.471264728835514,
block,scenes,scenes013.bmp,,,,,0,177,177,177,,,,,,,,,,,,,,,,,,,,,,,,,,,,,,,,,,,,,,,,,,None,,726.1591314496006,None,726.1591314496006,None,2022-09-10-10:17:29.533795,726.1775630000047,726.4867769996636,726.1775630000047,None,None,726.1775630000047,None,726.9696402498055,None,,,,21012,0002,2022_Sep_10_1005,localizer,2021.1.3,60.471264728835514,
block,scenes,scenes091.bmp,,,,,0,178,178,178,,,,,,,,,,,,,,,,,,,,,,,,,,,,,,,,,,,,,,,,,,None,,726.9696402498055,None,726.9696402498055,None,2022-09-10-10:17:30.339425,726.9787194998935,727.2924155998044,726.9787194998935,None,None,726.9787194998935,None,727.7755654500331,None,,,,21012,0002,2022_Sep_10_1005,localizer,2021.1.3,60.471264728835514,
block,scenes,scenes036.bmp,,,,,0,179,179,179,,,,,,,,,,,,,,,,,,,,,,,,,,,,,,,,,,,,,,,,,,None,,727.7755654500331,None,727.7755654500331,None,2022-09-10-10:17:31.147602,727.7805235995911,728.0867401999421,727.7805235995911,None,None,727.7805235995911,None,728.5861022499855,None,,,,21012,0002,2022_Sep_10_1005,localizer,2021.1.3,60.471264728835514,
block,scenes,scenes015.bmp,,,,,0,180,180,180,,,,,,,,,,,,,,,,,,,,,,,,,,,,,,,,,,,,,,,,,,None,,728.5861022499855,None,728.5861022499855,None,2022-09-10-10:17:31.955203,728.5886378996074,728.9035216998309,728.5886378996074,None,None,728.5886378996074,None,729.4020582497585,None,,,,21012,0002,2022_Sep_10_1005,localizer,2021.1.3,60.471264728835514,
block,scenes,scenes079.bmp,,,,,0,181,181,181,,,,,,,,,,,,,,,,,,,,,,,,,,,,,,,,,,,,,,,,,,None,,729.4020582497585,None,729.4020582497585,None,2022-09-10-10:17:32.770462,729.4036039998755,729.71959039988,729.4036039998755,None,None,729.4036039998755,None,730.2047682497184,None,,,,21012,0002,2022_Sep_10_1005,localizer,2021.1.3,60.471264728835514,
block_end,scenes,scenes011.bmp,,,,,0,182,182,182,,,,,,,,,,,,,,,,,,,,,,,,,,,,,,,,,,,,,,,,,,None,,730.2047682497184,None,730.2047682497184,None,2022-09-10-10:17:33.577809,730.2105972999707,730.5198021000251,730.2105972999707,730.2105972999707,None,730.2105972999707,730.2105972999707,731.0192770496476,None,,,,21012,0002,2022_Sep_10_1005,localizer,2021.1.3,60.471264728835514,
block_start,scenes,scenes010.bmp,,,,,0,183,183,183,,,,,,,,,,,,,,,,,,,,,,,,,,,,,,,,,,,,,,,,,,t,1.7910847999155521,731.0197321996093,None,731.0197321996093,None,2022-09-10-10:17:36.205049,732.8392052999698,733.1595162996091,732.8392052999698,None,None,732.8392052999698,None,733.6535140499007,None,,,,21012,0002,2022_Sep_10_1005,localizer,2021.1.3,60.471264728835514,
block,scenes,scenes014.bmp,,,,,0,184,184,184,,,,,,,,,,,,,,,,,,,,,,,,,,,,,,,,,,,,,,,,,,None,,733.6535140499007,None,733.6535140499007,None,2022-09-10-10:17:37.024523,733.657345699612,733.9712318996899,733.657345699612,None,None,733.657345699612,None,734.4695741496514,None,,,,21012,0002,2022_Sep_10_1005,localizer,2021.1.3,60.471264728835514,
block,scenes,scenes092.bmp,,,,,0,185,185,185,,,,,,,,,,,,,,,,,,,,,,,,,,,,,,,,,,,,,,,,,,None,,734.4695741496514,None,734.4695741496514,None,2022-09-10-10:17:37.838520,734.4716774998233,734.7719487999566,734.4716774998233,None,None,734.4716774998233,None,735.2855063499417,None,,,,21012,0002,2022_Sep_10_1005,localizer,2021.1.3,60.471264728835514,
block,scenes,scenes092.bmp,,,,,0,186,186,186,,,,,,,,,,,,,,,,,,,,,,,,,,,,,,,,,,,,,,,,,,None,,735.2855063499417,None,735.2855063499417,None,2022-09-10-10:17:38.653574,735.2871507997625,735.6028098999523,735.2871507997625,None,None,735.2871507997625,None,736.1021798499394,None,,,,21012,0002,2022_Sep_10_1005,localizer,2021.1.3,60.471264728835514,
block,scenes,scenes078.bmp,,,,,0,187,187,187,,,,,,,,,,,,,,,,,,,,,,,,,,,,,,,,,,,,,,,,,,None,,736.1021798499394,None,736.1021798499394,None,2022-09-10-10:17:39.470216,736.1036565997638,736.4035741998814,736.1036565997638,None,None,736.1036565997638,None,736.9189030499663,None,,,,21012,0002,2022_Sep_10_1005,localizer,2021.1.3,60.471264728835514,
block,scenes,scenes001.bmp,,,,,0,188,188,188,,,,,,,,,,,,,,,,,,,,,,,,,,,,,,,,,,,,,,,,,,None,,736.9189030499663,None,736.9189030499663,None,2022-09-10-10:17:40.287318,736.9205173999071,737.2202951996587,736.9205173999071,None,None,736.9205173999071,None,737.7208424498792,None,,,,21012,0002,2022_Sep_10_1005,localizer,2021.1.3,60.471264728835514,
block,scenes,scenes007.bmp,,,,,0,189,189,189,,,,,,,,,,,,,,,,,,,,,,,,,,,,,,,,,,,,,,,,,,None,,737.7208424498792,None,737.7208424498792,None,2022-09-10-10:17:41.091844,737.7246600999497,738.0368064995855,737.7246600999497,737.7246600999497,None,737.7246600999497,737.7246600999497,738.5362124498467,None,,,,21012,0002,2022_Sep_10_1005,localizer,2021.1.3,60.471264728835514,
block,scenes,scenes035.bmp,,,,,0,190,190,190,,,,,,,,,,,,,,,,,,,,,,,,,,,,,,,,,,,,,,,,,,None,,738.5362124498467,None,738.5362124498467,None,2022-09-10-10:17:41.905602,738.5394238997251,738.8528034999035,738.5394238997251,None,None,738.5394238997251,None,739.3403734499122,None,,,,21012,0002,2022_Sep_10_1005,localizer,2021.1.3,60.471264728835514,
block,scenes,scenes057.bmp,,,,,0,191,191,191,,,,,,,,,,,,,,,,,,,,,,,,,,,,,,,,,,,,,,,,,,None,,739.3403734499122,None,739.3403734499122,None,2022-09-10-10:17:42.709396,739.3467774000019,739.6527112997137,739.3467774000019,739.3467774000019,None,739.3467774000019,739.3467774000019,740.15886404966,None,,,,21012,0002,2022_Sep_10_1005,localizer,2021.1.3,60.471264728835514,
block,scenes,scenes058.bmp,,,,,0,192,192,192,,,,,,,,,,,,,,,,,,,,,,,,,,,,,,,,,,,,,,,,,,None,,740.15886404966,None,740.15886404966,None,2022-09-10-10:17:43.534875,740.1655194000341,740.469532799907,740.1655194000341,None,None,740.1655194000341,None,740.9689311496447,None,,,,21012,0002,2022_Sep_10_1005,localizer,2021.1.3,60.471264728835514,
block,scenes,scenes031.bmp,,,,,0,193,193,193,,,,,,,,,,,,,,,,,,,,,,,,,,,,,,,,,,,,,,,,,,None,,740.9689311496447,None,740.9689311496447,None,2022-09-10-10:17:44.337061,740.9793396997266,741.2928461995907,740.9793396997266,None,None,740.9793396997266,None,741.7855699499603,None,,,,21012,0002,2022_Sep_10_1005,localizer,2021.1.3,60.471264728835514,
block,scenes,scenes080.bmp,,,,,0,194,194,194,,,,,,,,,,,,,,,,,,,,,,,,,,,,,,,,,,,,,,,,,,None,,741.7855699499603,None,741.7855699499603,None,2022-09-10-10:17:45.153843,741.7871359996498,742.1066858000122,741.7871359996498,None,None,741.7871359996498,None,742.5885188499931,None,,,,21012,0002,2022_Sep_10_1005,localizer,2021.1.3,60.471264728835514,
block,scenes,scenes045.bmp,,,,,0,195,195,195,,,,,,,,,,,,,,,,,,,,,,,,,,,,,,,,,,,,,,,,,,None,,742.5885188499931,None,742.5885188499931,None,2022-09-10-10:17:45.961569,742.5955833997577,742.9032444995828,742.5955833997577,742.5955833997577,None,742.5955833997577,742.5955833997577,743.408979349723,None,,,,21012,0002,2022_Sep_10_1005,localizer,2021.1.3,60.471264728835514,
block,scenes,scenes059.bmp,,,,,0,196,196,196,,,,,,,,,,,,,,,,,,,,,,,,,,,,,,,,,,,,,,,,,,None,,743.408979349723,None,743.408979349723,None,2022-09-10-10:17:46.784701,743.4288793997839,743.7370134997182,743.4288793997839,None,None,743.4288793997839,None,744.2189431497361,None,,,,21012,0002,2022_Sep_10_1005,localizer,2021.1.3,60.471264728835514,
block_end,scenes,scenes034.bmp,,,,,0,197,197,197,,,,,,,,,,,,,,,,,,,,,,,,,,,,,,,,,,,,,,,,,,None,,744.2189431497361,None,744.2189431497361,None,2022-09-10-10:17:47.586736,744.2288079997525,744.5360767999664,744.2288079997525,None,None,744.2288079997525,None,745.0356222497765,None,,,,21012,0002,2022_Sep_10_1005,localizer,2021.1.3,60.471264728835514,
block_start,objects,objects069.bmp,,,,,0,198,198,198,,,,,,,,,,,,,,,,,,,,,,,,,,,,,,,,,,,,,,,,,,t,1.7744677998125553,745.0363385998644,None,745.0363385998644,None,2022-09-10-10:17:50.204485,746.8377482998185,747.1527780997567,746.8377482998185,None,None,746.8377482998185,None,747.6520844497252,None,,,,21012,0002,2022_Sep_10_1005,localizer,2021.1.3,60.471264728835514,
block,objects,objects070.bmp,,,,,0,199,199,199,,,,,,,,,,,,,,,,,,,,,,,,,,,,,,,,,,,,,,,,,,None,,747.6520844497252,None,747.6520844497252,None,2022-09-10-10:17:51.020708,747.6538156997412,747.96967819985,747.6538156997412,None,None,747.6538156997412,None,748.4689570497255,None,,,,21012,0002,2022_Sep_10_1005,localizer,2021.1.3,60.471264728835514,
block,objects,objects046.bmp,,,,,0,200,200,200,,,,,,,,,,,,,,,,,,,,,,,,,,,,,,,,,,,,,,,,,,None,,748.4689570497255,None,748.4689570497255,None,2022-09-10-10:17:51.836804,748.4702833998017,748.7699111998081,748.4702833998017,None,None,748.4702833998017,None,749.2858424498233,None,,,,21012,0002,2022_Sep_10_1005,localizer,2021.1.3,60.471264728835514,
block,objects,objects038.bmp,,,,,0,201,201,201,,,,,,,,,,,,,,,,,,,,,,,,,,,,,,,,,,,,,,,,,,None,,749.2858424498233,None,749.2858424498233,None,2022-09-10-10:17:52.654617,749.2870568996295,749.586798899807,749.2870568996295,None,None,749.2870568996295,None,750.0922186499927,None,,,,21012,0002,2022_Sep_10_1005,localizer,2021.1.3,60.471264728835514,
block,objects,objects028.bmp,,,,,0,202,202,202,,,,,,,,,,,,,,,,,,,,,,,,,,,,,,,,,,,,,,,,,,None,,750.0922186499927,None,750.0922186499927,None,2022-09-10-10:17:53.465109,750.0956974998116,750.4029488996603,750.0956974998116,None,None,750.0956974998116,None,750.902632449707,None,,,,21012,0002,2022_Sep_10_1005,localizer,2021.1.3,60.471264728835514,
block,objects,objects021.bmp,,,,,0,203,203,203,,,,,,,,,,,,,,,,,,,,,,,,,,,,,,,,,,,,,,,,,,None,,750.902632449707,None,750.902632449707,None,2022-09-10-10:17:54.270655,750.9038586998358,751.2193513996899,750.9038586998358,None,None,750.9038586998358,None,751.7191900498699,None,,,,21012,0002,2022_Sep_10_1005,localizer,2021.1.3,60.471264728835514,
block,objects,objects050.bmp,,,,,0,204,204,204,,,,,,,,,,,,,,,,,,,,,,,,,,,,,,,,,,,,,,,,,,None,,751.7191900498699,None,751.7191900498699,None,2022-09-10-10:17:55.087368,751.720360300038,752.0357999997213,751.720360300038,None,None,751.720360300038,None,752.5356158497277,None,,,,21012,0002,2022_Sep_10_1005,localizer,2021.1.3,60.471264728835514,
block,objects,objects039.bmp,,,,,0,205,205,205,,,,,,,,,,,,,,,,,,,,,,,,,,,,,,,,,,,,,,,,,,None,,752.5356158497277,None,752.5356158497277,None,2022-09-10-10:17:55.903767,752.5373685997911,752.8368485998362,752.5373685997911,None,None,752.5373685997911,None,753.3363686496857,None,,,,21012,0002,2022_Sep_10_1005,localizer,2021.1.3,60.471264728835514,
block,objects,objects031.bmp,,,,,0,206,206,206,,,,,,,,,,,,,,,,,,,,,,,,,,,,,,,,,,,,,,,,,,None,,753.3363686496857,None,753.3363686496857,None,2022-09-10-10:17:56.707375,753.3508767997846,753.653724399861,753.3508767997846,753.3508767997846,None,753.3508767997846,753.3508767997846,754.1531236497219,None,,,,21012,0002,2022_Sep_10_1005,localizer,2021.1.3,60.471264728835514,
block,objects,objects056.bmp,,,,,0,207,207,207,,,,,,,,,,,,,,,,,,,,,,,,,,,,,,,,,,,,,,,,,,None,,754.1531236497219,None,754.1531236497219,None,2022-09-10-10:17:57.521959,754.1642998997122,754.4696321999654,754.1642998997122,None,None,754.1642998997122,None,754.9690991499926,None,,,,21012,0002,2022_Sep_10_1005,localizer,2021.1.3,60.471264728835514,
block,objects,objects006.bmp,,,,,0,208,208,208,,,,,,,,,,,,,,,,,,,,,,,,,,,,,,,,,,,,,,,,,,None,,754.9690991499926,None,754.9690991499926,None,2022-09-10-10:17:58.337121,754.9756138999946,755.2861432000063,754.9756138999946,None,None,754.9756138999946,None,755.7861798498313,None,,,,21012,0002,2022_Sep_10_1005,localizer,2021.1.3,60.471264728835514,
block,objects,objects034.bmp,,,,,0,209,209,209,,,,,,,,,,,,,,,,,,,,,,,,,,,,,,,,,,,,,,,,,,None,,755.7861798498313,None,755.7861798498313,None,2022-09-10-10:17:59.154410,755.787481599953,756.0874856999144,755.787481599953,None,None,755.787481599953,None,756.6031844499055,None,,,,21012,0002,2022_Sep_10_1005,localizer,2021.1.3,60.471264728835514,
block,objects,objects060.bmp,,,,,0,210,210,210,,,,,,,,,,,,,,,,,,,,,,,,,,,,,,,,,,,,,,,,,,None,,756.6031844499055,None,756.6031844499055,None,2022-09-10-10:17:59.972303,756.6041246997193,756.9195693996735,756.6041246997193,None,None,756.6041246997193,None,757.4037419496569,None,,,,21012,0002,2022_Sep_10_1005,localizer,2021.1.3,60.471264728835514,
block,objects,objects085.bmp,,,,,0,211,211,211,,,,,,,,,,,,,,,,,,,,,,,,,,,,,,,,,,,,,,,,,,None,,757.4037419496569,None,757.4037419496569,None,2022-09-10-10:18:00.775932,757.4098061998375,757.7204522998072,757.4098061998375,757.4098061998375,None,757.4098061998375,757.4098061998375,758.2188110500108,None,,,,21012,0002,2022_Sep_10_1005,localizer,2021.1.3,60.471264728835514,
block_end,objects,objects032.bmp,,,,,0,212,212,212,,,,,,,,,,,,,,,,,,,,,,,,,,,,,,,,,,,,,,,,,,None,,758.2188110500108,None,758.2188110500108,None,2022-09-10-10:18:01.585484,758.2219295999967,758.5362665997818,758.2219295999967,None,None,758.2219295999967,None,759.0356963499914,None,,,,21012,0002,2022_Sep_10_1005,localizer,2021.1.3,60.471264728835514,
block_start,scrambled,scrambled030.bmp,,,,,0,213,213,213,,,,,,,,,,,,,,,,,,,,,,,,,,,,,,,,,,,,,,,,,,t,1.7745165000669658,759.0362875997089,None,759.0362875997089,None,2022-09-10-10:18:04.205652,760.849009399768,761.152857999783,760.849009399768,None,None,760.849009399768,None,761.6534025496337,None,,,,21012,0002,2022_Sep_10_1005,localizer,2021.1.3,60.471264728835514,
block,scrambled,scrambled012.bmp,,,,,0,214,214,214,,,,,,,,,,,,,,,,,,,,,,,,,,,,,,,,,,,,,,,,,,None,,761.6534025496337,None,761.6534025496337,None,2022-09-10-10:18:05.022600,761.6562464996241,761.9697023998015,761.6562464996241,None,None,761.6562464996241,None,762.4688312499318,None,,,,21012,0002,2022_Sep_10_1005,localizer,2021.1.3,60.471264728835514,
block,scrambled,scrambled075.bmp,,,,,0,215,215,215,,,,,,,,,,,,,,,,,,,,,,,,,,,,,,,,,,,,,,,,,,None,,762.4688312499318,None,762.4688312499318,None,2022-09-10-10:18:05.836434,762.4774976996705,762.7862847996876,762.4774976996705,None,None,762.4774976996705,None,763.2855416498612,None,,,,21012,0002,2022_Sep_10_1005,localizer,2021.1.3,60.471264728835514,
block,scrambled,scrambled003.bmp,,,,,0,216,216,216,,,,,,,,,,,,,,,,,,,,,,,,,,,,,,,,,,,,,,,,,,None,,763.2855416498612,None,763.2855416498612,None,2022-09-10-10:18:06.653574,763.287371199578,763.6028514998034,763.287371199578,None,None,763.287371199578,None,764.1024336497765,None,,,,21012,0002,2022_Sep_10_1005,localizer,2021.1.3,60.471264728835514,
block,scrambled,scrambled011.bmp,,,,,0,217,217,217,,,,,,,,,,,,,,,,,,,,,,,,,,,,,,,,,,,,,,,,,,None,,764.1024336497765,None,764.1024336497765,None,2022-09-10-10:18:07.470821,764.1038901996799,764.4194303997792,764.1038901996799,None,None,764.1038901996799,None,764.903700849926,None,,,,21012,0002,2022_Sep_10_1005,localizer,2021.1.3,60.471264728835514,
block,scrambled,scrambled016.bmp,,,,,0,218,218,218,,,,,,,,,,,,,,,,,,,,,,,,,,,,,,,,,,,,,,,,,,None,,764.903700849926,None,764.903700849926,None,2022-09-10-10:18:08.275847,764.9085460999049,765.2087452998385,764.9085460999049,764.9085460999049,None,764.9085460999049,764.9085460999049,765.7191248498391,None,,,,21012,0002,2022_Sep_10_1005,localizer,2021.1.3,60.471264728835514,
block,scrambled,scrambled032.bmp,,,,,0,219,219,219,,,,,,,,,,,,,,,,,,,,,,,,,,,,,,,,,,,,,,,,,,None,,765.7191248498391,None,765.7191248498391,None,2022-09-10-10:18:09.087155,765.7207112000324,766.0361748998985,765.7207112000324,None,None,765.7207112000324,None,766.535840349691,None,,,,21012,0002,2022_Sep_10_1005,localizer,2021.1.3,60.471264728835514,
block,scrambled,scrambled084.bmp,,,,,0,220,220,220,,,,,,,,,,,,,,,,,,,,,,,,,,,,,,,,,,,,,,,,,,None,,766.535840349691,None,766.535840349691,None,2022-09-10-10:18:09.903872,766.5373446997255,766.8528807000257,766.5373446997255,None,None,766.5373446997255,None,767.3523288499098,None,,,,21012,0002,2022_Sep_10_1005,localizer,2021.1.3,60.471264728835514,
block,scrambled,scrambled083.bmp,,,,,0,221,221,221,,,,,,,,,,,,,,,,,,,,,,,,,,,,,,,,,,,,,,,,,,None,,767.3523288499098,None,767.3523288499098,None,2022-09-10-10:18:10.720364,767.3540974999778,767.6697926996276,767.3540974999778,None,None,767.3540974999778,None,768.1690738498698,None,,,,21012,0002,2022_Sep_10_1005,localizer,2021.1.3,60.471264728835514,
block,scrambled,scrambled081.bmp,,,,,0,222,222,222,,,,,,,,,,,,,,,,,,,,,,,,,,,,,,,,,,,,,,,,,,None,,768.1690738498698,None,768.1690738498698,None,2022-09-10-10:18:11.537013,768.1707941996865,768.4861238999292,768.1707941996865,None,None,768.1707941996865,None,768.9854598496574,None,,,,21012,0002,2022_Sep_10_1005,localizer,2021.1.3,60.471264728835514,
block,scrambled,scrambled057.bmp,,,,,0,223,223,223,,,,,,,,,,,,,,,,,,,,,,,,,,,,,,,,,,,,,,,,,,None,,768.9854598496574,None,768.9854598496574,None,2022-09-10-10:18:12.353497,768.9949307995848,769.3029265999794,768.9949307995848,None,None,768.9949307995848,None,769.8026572498027,None,,,,21012,0002,2022_Sep_10_1005,localizer,2021.1.3,60.471264728835514,
block,scrambled,scrambled068.bmp,,,,,0,224,224,224,,,,,,,,,,,,,,,,,,,,,,,,,,,,,,,,,,,,,,,,,,None,,769.8026572498027,None,769.8026572498027,None,2022-09-10-10:18:13.170836,769.8041478996165,770.1031967997551,769.8041478996165,None,None,769.8041478996165,None,770.6196868498344,None,,,,21012,0002,2022_Sep_10_1005,localizer,2021.1.3,60.471264728835514,
block,scrambled,scrambled022.bmp,,,,,0,225,225,225,,,,,,,,,,,,,,,,,,,,,,,,,,,,,,,,,,,,,,,,,,None,,770.6196868498344,None,770.6196868498344,None,2022-09-10-10:18:13.987735,770.6209091995843,770.9368951995857,770.6209091995843,None,None,770.6209091995843,None,771.436109949788,None,,,,21012,0002,2022_Sep_10_1005,localizer,2021.1.3,60.471264728835514,
block,scrambled,scrambled064.bmp,,,,,0,226,226,226,,,,,,,,,,,,,,,,,,,,,,,,,,,,,,,,,,,,,,,,,,None,,771.436109949788,None,771.436109949788,None,2022-09-10-10:18:14.804046,771.437412600033,771.7529719998129,771.437412600033,None,None,771.437412600033,None,772.2527550500351,None,,,,21012,0002,2022_Sep_10_1005,localizer,2021.1.3,60.471264728835514,
block_end,scrambled,scrambled056.bmp,,,,,0,227,227,227,,,,,,,,,,,,,,,,,,,,,,,,,,,,,,,,,,,,,,,,,,None,,772.2527550500351,None,772.2527550500351,None,2022-09-10-10:18:15.620790,772.2541136997752,772.5695647997782,772.2541136997752,None,None,772.2541136997752,None,773.0587048497516,None,,,,21012,0002,2022_Sep_10_1005,localizer,2021.1.3,60.471264728835514,
null_block,null_block,null_block.bmp,,,,,0,228,228,228,,,,,,,,,,,,,,,,,,,,,,,,,,,,,,,,,,,,,,,,,,t,1.7509900000877678,773.0597892999649,None,773.0597892999649,None,2022-09-10-10:18:18.205653,774.8366323499474,None,774.8366323499474,None,None,774.8366323499474,None,774.8429747996852,None,,,,21012,0002,2022_Sep_10_1005,localizer,2021.1.3,60.471264728835514,
block_start,faces,faces003.bmp,,,,,0,229,229,229,,,,,,,,,,,,,,,,,,,,,,,,,,,,,,,,,,,,,,,,,,t,1.9533424000255764,786.8565340000205,None,786.8565340000205,None,2022-09-10-10:18:32.203794,788.8376605999656,789.1531992997043,788.8376605999656,None,None,788.8376605999656,None,789.6528247496578,None,,,,21012,0002,2022_Sep_10_1005,localizer,2021.1.3,60.471264728835514,
block,faces,faces026.bmp,,,,,0,230,230,230,,,,,,,,,,,,,,,,,,,,,,,,,,,,,,,,,,,,,,,,,,None,,789.6528247496578,None,789.6528247496578,None,2022-09-10-10:18:33.021331,789.6544534997083,789.9699249998666,789.6544534997083,None,None,789.6544534997083,None,790.4701528497505,None,,,,21012,0002,2022_Sep_10_1005,localizer,2021.1.3,60.471264728835514,
block,faces,faces046.bmp,,,,,0,231,231,231,,,,,,,,,,,,,,,,,,,,,,,,,,,,,,,,,,,,,,,,,,None,,790.4701528497505,None,790.4701528497505,None,2022-09-10-10:18:33.839284,790.473062899895,790.787355300039,790.473062899895,None,None,790.473062899895,None,791.2721094497945,None,,,,21012,0002,2022_Sep_10_1005,localizer,2021.1.3,60.471264728835514,
block,faces,faces059.bmp,,,,,0,232,232,232,,,,,,,,,,,,,,,,,,,,,,,,,,,,,,,,,,,,,,,,,,None,,791.2721094497945,None,791.2721094497945,None,2022-09-10-10:18:34.647107,791.280132799875,791.5872724000365,791.280132799875,791.280132799875,None,791.280132799875,791.280132799875,792.088684049854,None,,,,21012,0002,2022_Sep_10_1005,localizer,2021.1.3,60.471264728835514,
block,faces,faces044.bmp,,,,,0,233,233,233,,,,,,,,,,,,,,,,,,,,,,,,,,,,,,,,,,,,,,,,,,None,,792.088684049854,None,792.088684049854,None,2022-09-10-10:18:35.457841,792.0970701999031,792.4030558997765,792.0970701999031,None,None,792.0970701999031,None,792.9023847500328,None,,,,21012,0002,2022_Sep_10_1005,localizer,2021.1.3,60.471264728835514,
block,faces,faces045.bmp,,,,,0,234,234,234,,,,,,,,,,,,,,,,,,,,,,,,,,,,,,,,,,,,,,,,,,None,,792.9023847500328,None,792.9023847500328,None,2022-09-10-10:18:36.270596,792.9043212998658,793.2199688996188,792.9043212998658,None,None,792.9043212998658,None,793.7191701498348,None,,,,21012,0002,2022_Sep_10_1005,localizer,2021.1.3,60.471264728835514,
block,faces,faces060.bmp,,,,,0,235,235,235,,,,,,,,,,,,,,,,,,,,,,,,,,,,,,,,,,,,,,,,,,None,,793.7191701498348,None,793.7191701498348,None,2022-09-10-10:18:37.087218,793.7208860996179,794.0366740999743,793.7208860996179,None,None,793.7208860996179,None,794.521692049643,None,,,,21012,0002,2022_Sep_10_1005,localizer,2021.1.3,60.471264728835514,
block,faces,faces062.bmp,,,,,0,236,236,236,,,,,,,,,,,,,,,,,,,,,,,,,,,,,,,,,,,,,,,,,,None,,794.521692049643,None,794.521692049643,None,2022-09-10-10:18:37.895700,794.5286512998864,794.8425701996312,794.5286512998864,794.5286512998864,None,794.5286512998864,794.5286512998864,795.3357910499442,None,,,,21012,0002,2022_Sep_10_1005,localizer,2021.1.3,60.471264728835514,
block,faces,faces011.bmp,,,,,0,237,237,237,,,,,,,,,,,,,,,,,,,,,,,,,,,,,,,,,,,,,,,,,,None,,795.3357910499442,None,795.3357910499442,None,2022-09-10-10:18:38.703836,795.3377647995949,795.6535678999498,795.3377647995949,None,None,795.3377647995949,None,796.1528135500382,None,,,,21012,0002,2022_Sep_10_1005,localizer,2021.1.3,60.471264728835514,
block,faces,faces001.bmp,,,,,0,238,238,238,,,,,,,,,,,,,,,,,,,,,,,,,,,,,,,,,,,,,,,,,,None,,796.1528135500382,None,796.1528135500382,None,2022-09-10-10:18:39.520855,796.1634861999191,796.4697222998366,796.1634861999191,None,None,796.1634861999191,None,796.9693928500171,None,,,,21012,0002,2022_Sep_10_1005,localizer,2021.1.3,60.471264728835514,
block,faces,faces039.bmp,,,,,0,239,239,239,,,,,,,,,,,,,,,,,,,,,,,,,,,,,,,,,,,,,,,,,,None,,796.9693928500171,None,796.9693928500171,None,2022-09-10-10:18:40.337438,796.9709556000307,797.2869673999958,796.9709556000307,None,None,796.9709556000307,None,797.7864309497643,None,,,,21012,0002,2022_Sep_10_1005,localizer,2021.1.3,60.471264728835514,
block,faces,faces014.bmp,,,,,0,240,240,240,,,,,,,,,,,,,,,,,,,,,,,,,,,,,,,,,,,,,,,,,,None,,797.7864309497643,None,797.7864309497643,None,2022-09-10-10:18:41.155465,797.7876610998064,798.0873704999685,797.7876610998064,None,None,797.7876610998064,None,798.5867709498386,None,,,,21012,0002,2022_Sep_10_1005,localizer,2021.1.3,60.471264728835514,
block,faces,faces064.bmp,,,,,0,241,241,241,,,,,,,,,,,,,,,,,,,,,,,,,,,,,,,,,,,,,,,,,,None,,798.5867709498386,None,798.5867709498386,None,2022-09-10-10:18:41.957796,798.6007813997567,798.9032962997444,798.6007813997567,798.6007813997567,None,798.6007813997567,798.6007813997567,799.4033745498862,None,,,,21012,0002,2022_Sep_10_1005,localizer,2021.1.3,60.471264728835514,
block,faces,faces058.bmp,,,,,0,242,242,242,,,,,,,,,,,,,,,,,,,,,,,,,,,,,,,,,,,,,,,,,,None,,799.4033745498862,None,799.4033745498862,None,2022-09-10-10:18:42.772386,799.4151049000211,799.7219530995935,799.4151049000211,None,None,799.4151049000211,None,800.2206241497304,None,,,,21012,0002,2022_Sep_10_1005,localizer,2021.1.3,60.471264728835514,
block_end,faces,faces078.bmp,,,,,0,243,243,243,,,,,,,,,,,,,,,,,,,,,,,,,,,,,,,,,,,,,,,,,,None,,800.2206241497304,None,800.2206241497304,None,2022-09-10-10:18:43.590787,800.2235458996147,800.5366022000089,800.2235458996147,None,None,800.2235458996147,None,801.0367682496551,None,,,,21012,0002,2022_Sep_10_1005,localizer,2021.1.3,60.471264728835514,
,,,,,,,,,,,,,,,,,,,,,,,,,,,,,,,,,,,,,,,,,,,,,,,,,,,,,,,,,,,,,,,,,,,,,801.0406507998705,None,,,,,,,
