block_type,condition,img_name,Button.thisRepN,Button.thisTrialN,Button.thisN,Button.thisIndex,trials.thisRepN,trials.thisTrialN,trials.thisN,trials.thisIndex,Ready_experimenter_text.started,Ready_experimenter_text.stopped,Ready_experimenter_resp.keys,Ready_experimenter_resp.rt,Ready_experimenter_resp.started,Ready_experimenter_resp.stopped,Alignment_background.started,Alignment_background.stopped,Alignment_image.started,Alignment_image.stopped,Alignment_resp.keys,Alignment_resp.rt,Alignment_resp.started,Alignment_resp.stopped,Button_text.started,Button_text.stopped,Index_text.started,Index_text.stopped,Index_resp.keys,Index_resp.rt,Index_resp.started,Index_resp.stopped,Middle_text.started,Middle_text.stopped,Middle_resp.keys,Middle_resp.rt,Middle_resp.started,Middle_resp.stopped,Repeat_text.started,Repeat_text.stopped,Repeat_resp.keys,Repeat_resp.corr,Repeat_resp.rt,Repeat_resp.started,Repeat_resp.stopped,instruction_text.started,instruction_text.stopped,key_resp.keys,key_resp.rt,key_resp.started,key_resp.stopped,scanner_t.keys,scanner_t.rt,scanner_t.started,scanner_t.stopped,fixation_wait_for_t.started,fixation_wait_for_t.stopped,real_timestamp_trial_start,image.started,image.stopped,fixation.started,fixation.stopped,repeat_response.keys,repeat_response.started,repeat_response.stopped,fixation_null.started,fixation_null.stopped,repeat_response.rt,end_text.started,end_text.stopped,participant,run,date,expName,psychopyVersion,frameRate,
,,,,,,,,,,,8.650092700030655,None,return,84.11018670001067,8.650092700030655,None,,,,,,,,,,,,,,,,,,,,,,,,,,,,,,,,,,,,,,,,,,,,,,,,,,,,,,,11011,0001,2022_Mar_03_1413,localizer,2021.1.3,59.59116882205877,
,,,,,,,,,,,,,,,,,92.8073268000735,None,92.8073268000735,None,return,6.490675299894065,92.8073268000735,None,,,,,,,,,,,,,,,,,,,,,,,,,,,,,,,,,,,,,,,,,,,,,,,11011,0001,2022_Mar_03_1413,localizer,2021.1.3,59.59116882205877,
,,,0,0,0,0,,,,,,,,,,,,,,,,,,,99.32097470003646,None,100.33179900003597,None,y,2.3946442999877036,100.33179900003597,None,102.75338040001225,None,b,1.3429567000130191,102.75338040001225,None,104.11622500000522,None,n,0,32.58529570000246,104.11622500000522,None,,,,,,,,,,,,,,,,,,,,,,,,,,11011,0001,2022_Mar_03_1413,localizer,2021.1.3,59.59116882205877,
,,,,,,,,,,,,,,,,,,,,,,,,,,,,,,,,,,,,,,,,,,,,,,136.7332859999733,None,y,8.632998900022358,136.7332859999733,None,,,,,,,,,,,,,,,,,,,,11011,0001,2022_Mar_03_1413,localizer,2021.1.3,59.59116882205877,
block_start,objects,objects022.bmp,,,,,0,0,0,0,,,,,,,,,,,,,,,,,,,,,,,,,,,,,,,,,,,,,,,,,,t,15.248167400015518,145.44409480004106,None,145.44409480004106,None,2022-03-03-14:16:31.390907,160.7277296000393,161.03236810001545,160.7277296000393,None,None,160.7277296000393,None,161.53287337002112,None,,,,11011,0001,2022_Mar_03_1413,localizer,2021.1.3,59.59116882205877,
block,objects,objects082.bmp,,,,,0,1,1,1,,,,,,,,,,,,,,,,,,,,,,,,,,,,,,,,,,,,,,,,,,None,,161.53287337002112,None,161.53287337002112,None,2022-03-03-14:16:32.208710,161.54420660005417,161.85562340007164,161.54420660005417,None,None,161.54420660005417,None,162.35008877007058,None,,,,11011,0001,2022_Mar_03_1413,localizer,2021.1.3,59.59116882205877,
block,objects,objects027.bmp,,,,,0,2,2,2,,,,,,,,,,,,,,,,,,,,,,,,,,,,,,,,,,,,,,,,,,None,,162.35008877007058,None,162.35008877007058,None,2022-03-03-14:16:33.026712,162.36139239999466,162.6664758999832,162.36139239999466,None,None,162.36139239999466,None,163.16673706999282,None,,,,11011,0001,2022_Mar_03_1413,localizer,2021.1.3,59.59116882205877,
block,objects,objects088.bmp,,,,,0,3,3,3,,,,,,,,,,,,,,,,,,,,,,,,,,,,,,,,,,,,,,,,,,None,,163.16673706999282,None,163.16673706999282,None,2022-03-03-14:16:33.843356,163.17808720003814,163.48233250004705,163.17808720003814,None,None,163.17808720003814,None,163.9828383700573,None,,,,11011,0001,2022_Mar_03_1413,localizer,2021.1.3,59.59116882205877,
block,objects,objects014.bmp,,,,,0,4,4,4,,,,,,,,,,,,,,,,,,,,,,,,,,,,,,,,,,,,,,,,,,None,,163.9828383700573,None,163.9828383700573,None,2022-03-03-14:16:34.658285,163.99259210005403,164.29913439997472,163.99259210005403,None,None,163.99259210005403,None,164.79924757002155,None,,,,11011,0001,2022_Mar_03_1413,localizer,2021.1.3,59.59116882205877,
block,objects,objects085.bmp,,,,,0,5,5,5,,,,,,,,,,,,,,,,,,,,,,,,,,,,,,,,,,,,,,,,,,None,,164.79924757002155,None,164.79924757002155,None,2022-03-03-14:16:35.474691,164.80855770001654,165.11583320004866,164.80855770001654,None,None,164.80855770001654,None,165.616154570051,None,,,,11011,0001,2022_Mar_03_1413,localizer,2021.1.3,59.59116882205877,
block,objects,objects021.bmp,,,,,0,6,6,6,,,,,,,,,,,,,,,,,,,,,,,,,,,,,,,,,,,,,,,,,,None,,165.616154570051,None,165.616154570051,None,2022-03-03-14:16:36.291601,165.6259987000376,165.93250720005017,165.6259987000376,None,None,165.6259987000376,None,166.43286757000024,None,,,,11011,0001,2022_Mar_03_1413,localizer,2021.1.3,59.59116882205877,
block,objects,objects025.bmp,,,,,0,7,7,7,,,,,,,,,,,,,,,,,,,,,,,,,,,,,,,,,,,,,,,,,,None,,166.43286757000024,None,166.43286757000024,None,2022-03-03-14:16:37.107323,166.43625000002794,166.74914980004542,166.43625000002794,None,None,166.43625000002794,None,167.2496943700011,None,,,,11011,0001,2022_Mar_03_1413,localizer,2021.1.3,59.59116882205877,
block,objects,objects080.bmp,,,,,0,8,8,8,,,,,,,,,,,,,,,,,,,,,,,,,,,,,,,,,,,,,,,,,,None,,167.2496943700011,None,167.2496943700011,None,2022-03-03-14:16:37.925305,167.25930859998334,167.56597660004627,167.25930859998334,None,None,167.25930859998334,None,168.0663357699872,None,,,,11011,0001,2022_Mar_03_1413,localizer,2021.1.3,59.59116882205877,
block,objects,objects026.bmp,,,,,0,9,9,9,,,,,,,,,,,,,,,,,,,,,,,,,,,,,,,,,,,,,,,,,,None,,168.0663357699872,None,168.0663357699872,None,2022-03-03-14:16:38.741781,168.07589930004906,168.38228969997726,168.07589930004906,None,None,168.07589930004906,None,168.8829171699821,None,,,,11011,0001,2022_Mar_03_1413,localizer,2021.1.3,59.59116882205877,
block,objects,objects030.bmp,,,,,0,10,10,10,,,,,,,,,,,,,,,,,,,,,,,,,,,,,,,,,,,,,,,,,,None,,168.8829171699821,None,168.8829171699821,None,2022-03-03-14:16:39.558363,168.88866609998513,169.19971590000205,168.88866609998513,None,None,168.88866609998513,None,169.69928266996286,None,,,,11011,0001,2022_Mar_03_1413,localizer,2021.1.3,59.59116882205877,
block,objects,objects054.bmp,,,,,0,11,11,11,,,,,,,,,,,,,,,,,,,,,,,,,,,,,,,,,,,,,,,,,,None,,169.69928266996286,None,169.69928266996286,None,2022-03-03-14:16:40.374734,169.70706679997966,170.01645900006406,169.70706679997966,None,None,169.70706679997966,None,170.5163203700562,None,,,,11011,0001,2022_Mar_03_1413,localizer,2021.1.3,59.59116882205877,
block,objects,objects078.bmp,,,,,0,12,12,12,,,,,,,,,,,,,,,,,,,,,,,,,,,,,,,,,,,,,,,,,,None,,170.5163203700562,None,170.5163203700562,None,2022-03-03-14:16:41.191978,170.52636670006905,170.83255100005772,170.52636670006905,None,None,170.52636670006905,None,171.3329594700248,None,,,,11011,0001,2022_Mar_03_1413,localizer,2021.1.3,59.59116882205877,
block,objects,objects033.bmp,,,,,0,13,13,13,,,,,,,,,,,,,,,,,,,,,,,,,,,,,,,,,,,,,,,,,,None,,171.3329594700248,None,171.3329594700248,None,2022-03-03-14:16:42.008842,171.343593699974,171.64945550006814,171.343593699974,None,None,171.343593699974,None,172.14959616997513,None,,,,11011,0001,2022_Mar_03_1413,localizer,2021.1.3,59.59116882205877,
block_end,objects,objects073.bmp,,,,,0,14,14,14,,,,,,,,,,,,,,,,,,,,,,,,,,,,,,,,,,,,,,,,,,None,,172.14959616997513,None,172.14959616997513,None,2022-03-03-14:16:42.825164,172.15924780000933,172.4663369000191,172.15924780000933,None,None,172.15924780000933,None,172.9662115699961,None,,,,11011,0001,2022_Mar_03_1413,localizer,2021.1.3,59.59116882205877,
null_block,null_block,null_block.bmp,,,,,0,15,15,15,,,,,,,,,,,,,,,,,,,,,,,,,,,,,,,,,,,,,,,,,,t,1.7264463999308646,172.96585220005363,None,172.96585220005363,None,2022-03-03-14:16:45.393387,174.73395524006338,None,174.73395524006338,None,None,174.73395524006338,None,174.7326395000564,None,,,,11011,0001,2022_Mar_03_1413,localizer,2021.1.3,59.59116882205877,
block_start,scrambled,scrambled005.bmp,,,,,0,16,16,16,,,,,,,,,,,,,,,,,,,,,,,,,,,,,,,,,,,,,,,,,,t,1.9580657000187784,186.7332280999981,None,186.7332280999981,None,2022-03-03-14:16:59.394026,188.7280391000677,189.03247179999016,188.7280391000677,None,None,188.7280391000677,None,189.53282957003685,None,,,,11011,0001,2022_Mar_03_1413,localizer,2021.1.3,59.59116882205877,
block,scrambled,scrambled013.bmp,,,,,0,17,17,17,,,,,,,,,,,,,,,,,,,,,,,,,,,,,,,,,,,,,,,,,,None,,189.53282957003685,None,189.53282957003685,None,2022-03-03-14:17:00.208276,189.54153869999573,189.8498981000157,189.54153869999573,None,None,189.54153869999573,None,190.33950487003895,None,,,,11011,0001,2022_Mar_03_1413,localizer,2021.1.3,59.59116882205877,
block,scrambled,scrambled036.bmp,,,,,0,18,18,18,,,,,,,,,,,,,,,,,,,,,,,,,,,,,,,,,,,,,,,,,,None,,190.33950487003895,None,190.33950487003895,None,2022-03-03-14:17:01.018640,190.3527907000389,190.665885000024,190.3527907000389,None,None,190.3527907000389,None,191.14963287002175,None,,,,11011,0001,2022_Mar_03_1413,localizer,2021.1.3,59.59116882205877,
block,scrambled,scrambled021.bmp,,,,,0,19,19,19,,,,,,,,,,,,,,,,,,,,,,,,,,,,,,,,,,,,,,,,,,None,,191.14963287002175,None,191.14963287002175,None,2022-03-03-14:17:01.825080,191.1594560999656,191.4659815999912,191.1594560999656,None,None,191.1594560999656,None,191.9663344700006,None,,,,11011,0001,2022_Mar_03_1413,localizer,2021.1.3,59.59116882205877,
block,scrambled,scrambled047.bmp,,,,,0,20,20,20,,,,,,,,,,,,,,,,,,,,,,,,,,,,,,,,,,,,,,,,,,None,,191.9663344700006,None,191.9663344700006,None,2022-03-03-14:17:02.641778,191.97586640005466,192.28276550001465,191.97586640005466,None,None,191.97586640005466,None,192.7832146700588,None,,,,11011,0001,2022_Mar_03_1413,localizer,2021.1.3,59.59116882205877,
block,scrambled,scrambled052.bmp,,,,,0,21,21,21,,,,,,,,,,,,,,,,,,,,,,,,,,,,,,,,,,,,,,,,,,None,,192.7832146700588,None,192.7832146700588,None,2022-03-03-14:17:03.459008,192.79374930006452,193.0994875000324,192.79374930006452,None,None,192.79374930006452,None,193.59958017003956,None,,,,11011,0001,2022_Mar_03_1413,localizer,2021.1.3,59.59116882205877,
block,scrambled,scrambled083.bmp,,,,,0,22,22,22,,,,,,,,,,,,,,,,,,,,,,,,,,,,,,,,,,,,,,,,,,None,,193.59958017003956,None,193.59958017003956,None,2022-03-03-14:17:04.275153,193.6093538000714,193.9225918999873,193.6093538000714,None,None,193.6093538000714,None,194.42277596999193,None,,,,11011,0001,2022_Mar_03_1413,localizer,2021.1.3,59.59116882205877,
block,scrambled,scrambled035.bmp,,,,,0,23,23,23,,,,,,,,,,,,,,,,,,,,,,,,,,,,,,,,,,,,,,,,,,None,,194.42277596999193,None,194.42277596999193,None,2022-03-03-14:17:05.105865,194.4430373000214,194.74940059997607,194.4430373000214,None,None,194.4430373000214,None,195.23512356999564,None,,,,11011,0001,2022_Mar_03_1413,localizer,2021.1.3,59.59116882205877,
block,scrambled,scrambled035.bmp,,,,,0,24,24,24,,,,,,,,,,,,,,,,,,,,,,,,,,,,,,,,,,,,,,,,,,None,,195.23512356999564,None,195.23512356999564,None,2022-03-03-14:17:05.915490,195.24003430001903,195.5500343000749,195.24003430001903,None,None,195.24003430001903,None,196.05028266998707,None,,,,11011,0001,2022_Mar_03_1413,localizer,2021.1.3,59.59116882205877,
block,scrambled,scrambled068.bmp,,,,,0,25,25,25,,,,,,,,,,,,,,,,,,,,,,,,,,,,,,,,,,,,,,,,,,None,,196.05028266998707,None,196.05028266998707,None,2022-03-03-14:17:06.726850,196.06155250000302,196.36570820002817,196.06155250000302,None,None,196.06155250000302,None,196.8663843700546,None,,,,11011,0001,2022_Mar_03_1413,localizer,2021.1.3,59.59116882205877,
block,scrambled,scrambled043.bmp,,,,,0,26,26,26,,,,,,,,,,,,,,,,,,,,,,,,,,,,,,,,,,,,,,,,,,None,,196.8663843700546,None,196.8663843700546,None,2022-03-03-14:17:07.541691,196.87651870003901,197.1827087000711,196.87651870003901,None,None,196.87651870003901,None,197.68316397004529,None,,,,11011,0001,2022_Mar_03_1413,localizer,2021.1.3,59.59116882205877,
block,scrambled,scrambled042.bmp,,,,,0,27,27,27,,,,,,,,,,,,,,,,,,,,,,,,,,,,,,,,,,,,,,,,,,None,,197.68316397004529,None,197.68316397004529,None,2022-03-03-14:17:08.358826,197.69378570001572,197.99945660005324,197.69378570001572,None,None,197.69378570001572,None,198.49970486996463,None,,,,11011,0001,2022_Mar_03_1413,localizer,2021.1.3,59.59116882205877,
block,scrambled,scrambled055.bmp,,,,,0,28,28,28,,,,,,,,,,,,,,,,,,,,,,,,,,,,,,,,,,,,,,,,,,None,,198.49970486996463,None,198.49970486996463,None,2022-03-03-14:17:09.175148,198.50962220004294,198.8159076999873,198.50962220004294,None,None,198.50962220004294,None,199.31638587001945,None,,,,11011,0001,2022_Mar_03_1413,localizer,2021.1.3,59.59116882205877,
block,scrambled,scrambled082.bmp,,,,,0,29,29,29,,,,,,,,,,,,,,,,,,,,,,,,,,,,,,,,,,,,,,,,,,None,,199.31638587001945,None,199.31638587001945,None,2022-03-03-14:17:09.991970,199.32613910001237,199.63272930006497,199.32613910001237,None,None,199.32613910001237,None,200.133022469969,None,,,,11011,0001,2022_Mar_03_1413,localizer,2021.1.3,59.59116882205877,
block_end,scrambled,scrambled032.bmp,,,,,0,30,30,30,,,,,,,,,,,,,,,,,,,,,,,,,,,,,,,,,,,,,,,,,,None,,200.133022469969,None,200.133022469969,None,2022-03-03-14:17:10.808660,200.1412677000044,200.44949220004492,200.1412677000044,None,None,200.1412677000044,None,200.94947807005374,None,,,,11011,0001,2022_Mar_03_1413,localizer,2021.1.3,59.59116882205877,
block_start,scenes,scenes063.bmp,,,,,0,31,31,31,,,,,,,,,,,,,,,,,,,,,,,,,,,,,,,,,,,,,,,,,,t,1.742011799942702,200.94925319997128,None,200.94925319997128,None,2022-03-03-14:17:13.390025,202.72691890003625,203.03261260001455,202.72691890003625,None,None,202.72691890003625,None,203.53208117004252,None,,,,11011,0001,2022_Mar_03_1413,localizer,2021.1.3,59.59116882205877,
block,scenes,scenes016.bmp,,,,,0,32,32,32,,,,,,,,,,,,,,,,,,,,,,,,,,,,,,,,,,,,,,,,,,None,,203.53208117004252,None,203.53208117004252,None,2022-03-03-14:17:14.206743,203.54276079998817,203.84928890003357,203.54276079998817,None,None,203.54276079998817,None,204.34972536998103,None,,,,11011,0001,2022_Mar_03_1413,localizer,2021.1.3,59.59116882205877,
block,scenes,scenes011.bmp,,,,,0,33,33,33,,,,,,,,,,,,,,,,,,,,,,,,,,,,,,,,,,,,,,,,,,None,,204.34972536998103,None,204.34972536998103,None,2022-03-03-14:17:15.025172,204.3546930999728,204.66665500006638,204.3546930999728,None,None,204.3546930999728,None,205.16705596997636,None,,,,11011,0001,2022_Mar_03_1413,localizer,2021.1.3,59.59116882205877,
block,scenes,scenes052.bmp,,,,,0,34,34,34,,,,,,,,,,,,,,,,,,,,,,,,,,,,,,,,,,,,,,,,,,None,,205.16705596997636,None,205.16705596997636,None,2022-03-03-14:17:15.843675,205.17522149998695,205.48325429996476,205.17522149998695,None,None,205.17522149998695,None,205.9839058700367,None,,,,11011,0001,2022_Mar_03_1413,localizer,2021.1.3,59.59116882205877,
block,scenes,scenes028.bmp,,,,,0,35,35,35,,,,,,,,,,,,,,,,,,,,,,,,,,,,,,,,,,,,,,,,,,None,,205.9839058700367,None,205.9839058700367,None,2022-03-03-14:17:16.660531,205.99621180002578,206.29923979996238,205.99621180002578,None,None,205.99621180002578,None,206.79971217006678,None,,,,11011,0001,2022_Mar_03_1413,localizer,2021.1.3,59.59116882205877,
block,scenes,scenes015.bmp,,,,,0,36,36,36,,,,,,,,,,,,,,,,,,,,,,,,,,,,,,,,,,,,,,,,,,None,,206.79971217006678,None,206.79971217006678,None,2022-03-03-14:17:17.475363,206.81085700006224,207.11607490002643,206.81085700006224,None,None,206.81085700006224,None,207.6161506700213,None,,,,11011,0001,2022_Mar_03_1413,localizer,2021.1.3,59.59116882205877,
block,scenes,scenes059.bmp,,,,,0,37,37,37,,,,,,,,,,,,,,,,,,,,,,,,,,,,,,,,,,,,,,,,,,None,,207.6161506700213,None,207.6161506700213,None,2022-03-03-14:17:18.291594,207.6256890000077,207.93261829996482,207.6256890000077,None,None,207.6256890000077,None,208.43305107000052,None,,,,11011,0001,2022_Mar_03_1413,localizer,2021.1.3,59.59116882205877,
block,scenes,scenes005.bmp,,,,,0,38,38,38,,,,,,,,,,,,,,,,,,,,,,,,,,,,,,,,,,,,,,,,,,None,,208.43305107000052,None,208.43305107000052,None,2022-03-03-14:17:19.108795,208.44130170007702,208.74942090001423,208.44130170007702,None,None,208.44130170007702,None,209.25006627003896,None,,,,11011,0001,2022_Mar_03_1413,localizer,2021.1.3,59.59116882205877,
block,scenes,scenes023.bmp,,,,,0,39,39,39,,,,,,,,,,,,,,,,,,,,,,,,,,,,,,,,,,,,,,,,,,None,,209.25006627003896,None,209.25006627003896,None,2022-03-03-14:17:19.926503,209.26063130004331,209.5659976999741,209.26063130004331,None,None,209.26063130004331,None,210.06636386996834,None,,,,11011,0001,2022_Mar_03_1413,localizer,2021.1.3,59.59116882205877,
block,scenes,scenes081.bmp,,,,,0,40,40,40,,,,,,,,,,,,,,,,,,,,,,,,,,,,,,,,,,,,,,,,,,None,,210.06636386996834,None,210.06636386996834,None,2022-03-03-14:17:20.741910,210.07628539996222,210.38274759997148,210.07628539996222,None,None,210.07628539996222,None,210.88332517006202,None,,,,11011,0001,2022_Mar_03_1413,localizer,2021.1.3,59.59116882205877,
block,scenes,scenes022.bmp,,,,,0,41,41,41,,,,,,,,,,,,,,,,,,,,,,,,,,,,,,,,,,,,,,,,,,None,,210.88332517006202,None,210.88332517006202,None,2022-03-03-14:17:21.558770,210.89483100001235,211.1991475999821,210.89483100001235,None,None,210.89483100001235,None,211.70097317002947,None,,,,11011,0001,2022_Mar_03_1413,localizer,2021.1.3,59.59116882205877,
block,scenes,scenes027.bmp,,,,,0,42,42,42,,,,,,,,,,,,,,,,,,,,,,,,,,,,,,,,,,,,,,,,,,None,,211.70097317002947,None,211.70097317002947,None,2022-03-03-14:17:22.377424,211.71177160006482,212.01616830006242,211.71177160006482,None,None,211.71177160006482,None,212.51669356998755,None,,,,11011,0001,2022_Mar_03_1413,localizer,2021.1.3,59.59116882205877,
block,scenes,scenes010.bmp,,,,,0,43,43,43,,,,,,,,,,,,,,,,,,,,,,,,,,,,,,,,,,,,,,,,,,None,,212.51669356998755,None,212.51669356998755,None,2022-03-03-14:17:23.192136,212.5279846000485,212.83302680007182,212.5279846000485,None,None,212.5279846000485,None,213.33298057006905,None,,,,11011,0001,2022_Mar_03_1413,localizer,2021.1.3,59.59116882205877,
block,scenes,scenes001.bmp,,,,,0,44,44,44,,,,,,,,,,,,,,,,,,,,,,,,,,,,,,,,,,,,,,,,,,None,,213.33298057006905,None,213.33298057006905,None,2022-03-03-14:17:24.008382,213.33740690001287,213.63910100003704,213.33740690001287,None,None,213.33740690001287,None,214.14943137000083,None,,,,11011,0001,2022_Mar_03_1413,localizer,2021.1.3,59.59116882205877,
block_end,scenes,scenes043.bmp,,,,,0,45,45,45,,,,,,,,,,,,,,,,,,,,,,,,,,,,,,,,,,,,,,,,,,None,,214.14943137000083,None,214.14943137000083,None,2022-03-03-14:17:24.824879,214.15803609997965,214.46595350001007,214.15803609997965,None,None,214.15803609997965,None,214.9679429700249,None,,,,11011,0001,2022_Mar_03_1413,localizer,2021.1.3,59.59116882205877,
block_start,faces,faces011.bmp,,,,,0,46,46,46,,,,,,,,,,,,,,,,,,,,,,,,,,,,,,,,,,,,,,,,,,t,1.7242112000240013,214.9672040999867,None,214.9672040999867,None,2022-03-03-14:17:27.397221,216.73294340004213,217.03261520003434,216.73294340004213,None,None,216.73294340004213,None,217.53354907004396,None,,,,11011,0001,2022_Mar_03_1413,localizer,2021.1.3,59.59116882205877,
block,faces,faces027.bmp,,,,,0,47,47,47,,,,,,,,,,,,,,,,,,,,,,,,,,,,,,,,,,,,,,,,,,None,,217.53354907004396,None,217.53354907004396,None,2022-03-03-14:17:28.210153,217.54615429998375,217.84932879998814,217.54615429998375,None,None,217.54615429998375,None,218.3493831700529,None,,,,11011,0001,2022_Mar_03_1413,localizer,2021.1.3,59.59116882205877,
block,faces,faces067.bmp,,,,,0,48,48,48,,,,,,,,,,,,,,,,,,,,,,,,,,,,,,,,,,,,,,,,,,None,,218.3493831700529,None,218.3493831700529,None,2022-03-03-14:17:29.024835,218.3599411000032,218.66608350002207,218.3599411000032,None,None,218.3599411000032,None,219.166501670063,None,,,,11011,0001,2022_Mar_03_1413,localizer,2021.1.3,59.59116882205877,
block,faces,faces023.bmp,,,,,0,49,49,49,,,,,,,,,,,,,,,,,,,,,,,,,,,,,,,,,,,,,,,,,,None,,219.166501670063,None,219.166501670063,None,2022-03-03-14:17:29.841950,219.1759837999707,219.4828356000362,219.1759837999707,None,None,219.1759837999707,None,219.9844628699706,None,,,,11011,0001,2022_Mar_03_1413,localizer,2021.1.3,59.59116882205877,
block,faces,faces010.bmp,,,,,0,50,50,50,,,,,,,,,,,,,,,,,,,,,,,,,,,,,,,,,,,,,,,,,,None,,219.9844628699706,None,219.9844628699706,None,2022-03-03-14:17:30.661886,219.99887979996856,220.29944970004726,219.99887979996856,None,None,219.99887979996856,None,220.79987237000606,None,,,,11011,0001,2022_Mar_03_1413,localizer,2021.1.3,59.59116882205877,
block,faces,faces083.bmp,,,,,0,51,51,51,,,,,,,,,,,,,,,,,,,,,,,,,,,,,,,,,,,,,,,,,,None,,220.79987237000606,None,220.79987237000606,None,2022-03-03-14:17:31.475561,220.8093992000213,221.11621430004016,220.8093992000213,None,None,220.8093992000213,None,221.6177620700677,None,,,,11011,0001,2022_Mar_03_1413,localizer,2021.1.3,59.59116882205877,
block,faces,faces049.bmp,,,,,0,52,52,52,,,,,,,,,,,,,,,,,,,,,,,,,,,,,,,,,,,,,,,,,,None,,221.6177620700677,None,221.6177620700677,None,2022-03-03-14:17:32.295167,221.63070740003604,221.93275350006297,221.63070740003604,None,None,221.63070740003604,None,222.42289626997663,None,,,,11011,0001,2022_Mar_03_1413,localizer,2021.1.3,59.59116882205877,
block,faces,faces018.bmp,,,,,0,53,53,53,,,,,,,,,,,,,,,,,,,,,,,,,,,,,,,,,,,,,,,,,,None,,222.42289626997663,None,222.42289626997663,None,2022-03-03-14:17:33.101099,222.43368480005302,222.7329919000622,222.43368480005302,None,None,222.43368480005302,None,223.23325646998128,None,,,,11011,0001,2022_Mar_03_1413,localizer,2021.1.3,59.59116882205877,
block,faces,faces037.bmp,,,,,0,54,54,54,,,,,,,,,,,,,,,,,,,,,,,,,,,,,,,,,,,,,,,,,,None,,223.23325646998128,None,223.23325646998128,None,2022-03-03-14:17:33.908915,223.24332210002467,223.5496276000049,223.24332210002467,None,None,223.24332210002467,None,224.0498787700548,None,,,,11011,0001,2022_Mar_03_1413,localizer,2021.1.3,59.59116882205877,
block,faces,faces073.bmp,,,,,0,55,55,55,,,,,,,,,,,,,,,,,,,,,,,,,,,,,,,,,,,,,,,,,,None,,224.0498787700548,None,224.0498787700548,None,2022-03-03-14:17:34.725155,224.05938560003415,224.36628750001546,224.05938560003415,None,None,224.05938560003415,None,224.86673167002155,None,,,,11011,0001,2022_Mar_03_1413,localizer,2021.1.3,59.59116882205877,
block,faces,faces014.bmp,,,,,0,56,56,56,,,,,,,,,,,,,,,,,,,,,,,,,,,,,,,,,,,,,,,,,,None,,224.86673167002155,None,224.86673167002155,None,2022-03-03-14:17:35.542384,224.87737220001873,225.18914629996289,224.87737220001873,None,None,224.87737220001873,None,225.68287407004973,None,,,,11011,0001,2022_Mar_03_1413,localizer,2021.1.3,59.59116882205877,
block,faces,faces065.bmp,,,,,0,57,57,57,,,,,,,,,,,,,,,,,,,,,,,,,,,,,,,,,,,,,,,,,,None,,225.68287407004973,None,225.68287407004973,None,2022-03-03-14:17:36.358321,225.7003771000309,225.99941489996854,225.7003771000309,None,None,225.7003771000309,None,226.50019816999557,None,,,,11011,0001,2022_Mar_03_1413,localizer,2021.1.3,59.59116882205877,
block,faces,faces006.bmp,,,,,0,58,58,58,,,,,,,,,,,,,,,,,,,,,,,,,,,,,,,,,,,,,,,,,,None,,226.50019816999557,None,226.50019816999557,None,2022-03-03-14:17:37.176736,226.5116333999904,226.81614540005103,226.5116333999904,None,None,226.5116333999904,None,227.31661797004054,None,,,,11011,0001,2022_Mar_03_1413,localizer,2021.1.3,59.59116882205877,
block,faces,faces044.bmp,,,,,0,59,59,59,,,,,,,,,,,,,,,,,,,,,,,,,,,,,,,,,,,,,,,,,,None,,227.31661797004054,None,227.31661797004054,None,2022-03-03-14:17:37.992062,227.32703769998625,227.63288100005593,227.32703769998625,None,None,227.32703769998625,None,228.1332708699978,None,,,,11011,0001,2022_Mar_03_1413,localizer,2021.1.3,59.59116882205877,
block_end,faces,faces012.bmp,,,,,0,60,60,60,,,,,,,,,,,,,,,,,,,,,,,,,,,,,,,,,,,,,,,,,,None,,228.1332708699978,None,228.1332708699978,None,2022-03-03-14:17:38.808719,228.1431472999975,228.44904400000814,228.1431472999975,None,None,228.1431472999975,None,228.95042777006748,None,,,,11011,0001,2022_Mar_03_1413,localizer,2021.1.3,59.59116882205877,
block_start,faces,faces025.bmp,,,,,0,61,61,61,,,,,,,,,,,,,,,,,,,,,,,,,,,,,,,,,,,,,,,,,,t,1.7414271000307053,228.94995470007416,None,228.94995470007416,None,2022-03-03-14:17:41.391899,230.72741849999875,231.03282830002718,230.72741849999875,None,None,230.72741849999875,None,231.5332653699792,None,,,,11011,0001,2022_Mar_03_1413,localizer,2021.1.3,59.59116882205877,
block,faces,faces078.bmp,,,,,0,62,62,62,,,,,,,,,,,,,,,,,,,,,,,,,,,,,,,,,,,,,,,,,,None,,231.5332653699792,None,231.5332653699792,None,2022-03-03-14:17:42.208934,231.54320489999373,231.84943800000474,231.54320489999373,None,None,231.54320489999373,None,232.34972566998331,None,,,,11011,0001,2022_Mar_03_1413,localizer,2021.1.3,59.59116882205877,
block,faces,faces048.bmp,,,,,0,63,63,63,,,,,,,,,,,,,,,,,,,,,,,,,,,,,,,,,,,,,,,,,,None,,232.34972566998331,None,232.34972566998331,None,2022-03-03-14:17:43.025071,232.36057879996952,232.66630939999595,232.36057879996952,None,None,232.36057879996952,None,233.16656167005422,None,,,,11011,0001,2022_Mar_03_1413,localizer,2021.1.3,59.59116882205877,
block,faces,faces039.bmp,,,,,0,64,64,64,,,,,,,,,,,,,,,,,,,,,,,,,,,,,,,,,,,,,,,,,,None,,233.16656167005422,None,233.16656167005422,None,2022-03-03-14:17:43.842134,233.17819430003874,233.48244639998302,233.17819430003874,None,None,233.17819430003874,None,233.9836310700397,None,,,,11011,0001,2022_Mar_03_1413,localizer,2021.1.3,59.59116882205877,
block,faces,faces002.bmp,,,,,0,65,65,65,,,,,,,,,,,,,,,,,,,,,,,,,,,,,,,,,,,,,,,,,,None,,233.9836310700397,None,233.9836310700397,None,2022-03-03-14:17:44.660273,233.99683020007797,234.29961280000862,233.99683020007797,None,None,233.99683020007797,None,234.79998837007443,None,,,,11011,0001,2022_Mar_03_1413,localizer,2021.1.3,59.59116882205877,
block,faces,faces019.bmp,,,,,0,66,66,66,,,,,,,,,,,,,,,,,,,,,,,,,,,,,,,,,,,,,,,,,,None,,234.79998837007443,None,234.79998837007443,None,2022-03-03-14:17:45.475433,234.81576290004887,235.1159160999814,234.81576290004887,None,None,234.81576290004887,None,235.61653037000215,None,,,,11011,0001,2022_Mar_03_1413,localizer,2021.1.3,59.59116882205877,
block,faces,faces069.bmp,,,,,0,67,67,67,,,,,,,,,,,,,,,,,,,,,,,,,,,,,,,,,,,,,,,,,,None,,235.61653037000215,None,235.61653037000215,None,2022-03-03-14:17:46.291976,235.62264439999126,235.93275170004927,235.62264439999126,None,None,235.62264439999126,None,236.4332935699844,None,,,,11011,0001,2022_Mar_03_1413,localizer,2021.1.3,59.59116882205877,
block,faces,faces023.bmp,,,,,0,68,68,68,,,,,,,,,,,,,,,,,,,,,,,,,,,,,,,,,,,,,,,,,,None,,236.4332935699844,None,236.4332935699844,None,2022-03-03-14:17:47.108963,236.43367589998525,236.73263680003583,236.43367589998525,None,None,236.43367589998525,None,237.23313707000344,None,,,,11011,0001,2022_Mar_03_1413,localizer,2021.1.3,59.59116882205877,
block,faces,faces011.bmp,,,,,0,69,69,69,,,,,,,,,,,,,,,,,,,,,,,,,,,,,,,,,,,,,,,,,,None,,237.23313707000344,None,237.23313707000344,None,2022-03-03-14:17:47.910437,237.23372730007395,237.53286210005172,237.23372730007395,237.23372730007395,None,237.23372730007395,237.23372730007395,238.03396107003792,None,,,,11011,0001,2022_Mar_03_1413,localizer,2021.1.3,59.59116882205877,
block,faces,faces070.bmp,,,,,0,70,70,70,,,,,,,,,,,,,,,,,,,,,,,,,,,,,,,,,,,,,,,,,,None,,238.03396107003792,None,238.03396107003792,None,2022-03-03-14:17:48.713367,238.0529450000031,238.36692250007764,238.0529450000031,238.0529450000031,None,238.0529450000031,238.0529450000031,238.85058356999653,None,,,,11011,0001,2022_Mar_03_1413,localizer,2021.1.3,59.59116882205877,
block,faces,faces089.bmp,,,,,0,71,71,71,,,,,,,,,,,,,,,,,,,,,,,,,,,,,,,,,,,,,,,,,,None,,238.85058356999653,None,238.85058356999653,None,2022-03-03-14:17:49.527204,238.86193270003423,239.1668500000378,238.86193270003423,None,None,238.86193270003423,None,239.66869296998485,None,,,,11011,0001,2022_Mar_03_1413,localizer,2021.1.3,59.59116882205877,
block,faces,faces088.bmp,,,,,0,72,72,72,,,,,,,,,,,,,,,,,,,,,,,,,,,,,,,,,,,,,,,,,,None,,239.66869296998485,None,239.66869296998485,None,2022-03-03-14:17:50.347155,239.68509040004574,239.98304650001228,239.68509040004574,None,None,239.68509040004574,None,240.48391546999338,None,,,,11011,0001,2022_Mar_03_1413,localizer,2021.1.3,59.59116882205877,
block,faces,faces005.bmp,,,,,0,73,73,73,,,,,,,,,,,,,,,,,,,,,,,,,,,,,,,,,,,,,,,,,,None,,240.48391546999338,None,240.48391546999338,None,2022-03-03-14:17:51.160347,240.49518730002455,240.7995735000586,240.49518730002455,None,None,240.49518730002455,None,241.30026257006685,None,,,,11011,0001,2022_Mar_03_1413,localizer,2021.1.3,59.59116882205877,
block,faces,faces065.bmp,,,,,0,74,74,74,,,,,,,,,,,,,,,,,,,,,,,,,,,,,,,,,,,,,,,,,,None,,241.30026257006685,None,241.30026257006685,None,2022-03-03-14:17:51.976897,241.30079690006096,241.61615300003905,241.30079690006096,None,None,241.30079690006096,None,242.1001233699848,None,,,,11011,0001,2022_Mar_03_1413,localizer,2021.1.3,59.59116882205877,
block_end,faces,faces062.bmp,,,,,0,75,75,75,,,,,,,,,,,,,,,,,,,,,,,,,,,,,,,,,,,,,,,,,,None,,242.1001233699848,None,242.1001233699848,None,2022-03-03-14:17:52.777634,242.1121825000737,242.41657850006595,242.1121825000737,242.1121825000737,None,242.1121825000737,242.1121825000737,242.9165849699988,None,,,,11011,0001,2022_Mar_03_1413,localizer,2021.1.3,59.59116882205877,
block_start,objects,objects029.bmp,,,,,0,76,76,76,,,,,,,,,,,,,,,,,,,,,,,,,,,,,,,,,,,,,,,,,,t,1.7750571999931708,242.9163239999907,None,242.9163239999907,None,2022-03-03-14:17:55.392456,244.72806240001228,245.0329651000211,244.72806240001228,None,None,244.72806240001228,None,245.53340607000283,None,,,,11011,0001,2022_Mar_03_1413,localizer,2021.1.3,59.59116882205877,
block,objects,objects060.bmp,,,,,0,77,77,77,,,,,,,,,,,,,,,,,,,,,,,,,,,,,,,,,,,,,,,,,,None,,245.53340607000283,None,245.53340607000283,None,2022-03-03-14:17:56.208851,245.54328510002233,245.84973380004521,245.54328510002233,None,None,245.54328510002233,None,246.34996077002725,None,,,,11011,0001,2022_Mar_03_1413,localizer,2021.1.3,59.59116882205877,
block,objects,objects053.bmp,,,,,0,78,78,78,,,,,,,,,,,,,,,,,,,,,,,,,,,,,,,,,,,,,,,,,,None,,246.34996077002725,None,246.34996077002725,None,2022-03-03-14:17:57.026002,246.36065300006885,246.6664155999897,246.36065300006885,None,None,246.36065300006885,None,247.1667099700193,None,,,,11011,0001,2022_Mar_03_1413,localizer,2021.1.3,59.59116882205877,
block,objects,objects021.bmp,,,,,0,79,79,79,,,,,,,,,,,,,,,,,,,,,,,,,,,,,,,,,,,,,,,,,,None,,247.1667099700193,None,247.1667099700193,None,2022-03-03-14:17:57.842130,247.16710750001948,247.4664347000653,247.16710750001948,None,None,247.16710750001948,None,247.9667266699602,None,,,,11011,0001,2022_Mar_03_1413,localizer,2021.1.3,59.59116882205877,
block,objects,objects027.bmp,,,,,0,80,80,80,,,,,,,,,,,,,,,,,,,,,,,,,,,,,,,,,,,,,,,,,,None,,247.9667266699602,None,247.9667266699602,None,2022-03-03-14:17:58.644166,247.969085299992,248.27202779997606,247.969085299992,247.969085299992,None,247.969085299992,247.969085299992,248.78369037007215,None,,,,11011,0001,2022_Mar_03_1413,localizer,2021.1.3,59.59116882205877,
block,objects,objects081.bmp,,,,,0,81,81,81,,,,,,,,,,,,,,,,,,,,,,,,,,,,,,,,,,,,,,,,,,None,,248.78369037007215,None,248.78369037007215,None,2022-03-03-14:17:59.460329,248.7939139000373,249.1003144000424,248.7939139000373,None,None,248.7939139000373,None,249.59963346997975,None,,,,11011,0001,2022_Mar_03_1413,localizer,2021.1.3,59.59116882205877,
block,objects,objects015.bmp,,,,,0,82,82,82,,,,,,,,,,,,,,,,,,,,,,,,,,,,,,,,,,,,,,,,,,None,,249.59963346997975,None,249.59963346997975,None,2022-03-03-14:18:00.274900,249.6076677000383,249.92288630001713,249.6076677000383,None,None,249.6076677000383,None,250.42299427002436,None,,,,11011,0001,2022_Mar_03_1413,localizer,2021.1.3,59.59116882205877,
block,objects,objects070.bmp,,,,,0,83,83,83,,,,,,,,,,,,,,,,,,,,,,,,,,,,,,,,,,,,,,,,,,None,,250.42299427002436,None,250.42299427002436,None,2022-03-03-14:18:01.107302,250.44277029996738,250.75280210003257,250.44277029996738,None,None,250.44277029996738,None,251.23308297005715,None,,,,11011,0001,2022_Mar_03_1413,localizer,2021.1.3,59.59116882205877,
block,objects,objects017.bmp,,,,,0,84,84,84,,,,,,,,,,,,,,,,,,,,,,,,,,,,,,,,,,,,,,,,,,None,,251.23308297005715,None,251.23308297005715,None,2022-03-03-14:18:01.908528,251.24332260002848,251.549420400057,251.24332260002848,None,None,251.24332260002848,None,252.05022347000195,None,,,,11011,0001,2022_Mar_03_1413,localizer,2021.1.3,59.59116882205877,
block,objects,objects052.bmp,,,,,0,85,85,85,,,,,,,,,,,,,,,,,,,,,,,,,,,,,,,,,,,,,,,,,,None,,252.05022347000195,None,252.05022347000195,None,2022-03-03-14:18:02.725668,252.06037279998418,252.36643479997292,252.06037279998418,None,None,252.06037279998418,None,252.86665837004549,None,,,,11011,0001,2022_Mar_03_1413,localizer,2021.1.3,59.59116882205877,
block,objects,objects076.bmp,,,,,0,86,86,86,,,,,,,,,,,,,,,,,,,,,,,,,,,,,,,,,,,,,,,,,,None,,252.86665837004549,None,252.86665837004549,None,2022-03-03-14:18:03.542306,252.87589660007507,253.18279330001678,252.87589660007507,None,None,252.87589660007507,None,253.68341766999802,None,,,,11011,0001,2022_Mar_03_1413,localizer,2021.1.3,59.59116882205877,
block,objects,objects054.bmp,,,,,0,87,87,87,,,,,,,,,,,,,,,,,,,,,,,,,,,,,,,,,,,,,,,,,,None,,253.68341766999802,None,253.68341766999802,None,2022-03-03-14:18:04.359105,253.6838652000297,253.98301660001744,253.6838652000297,None,None,253.6838652000297,None,254.4837322699954,None,,,,11011,0001,2022_Mar_03_1413,localizer,2021.1.3,59.59116882205877,
block,objects,objects006.bmp,,,,,0,88,88,88,,,,,,,,,,,,,,,,,,,,,,,,,,,,,,,,,,,,,,,,,,None,,254.4837322699954,None,254.4837322699954,None,2022-03-03-14:18:05.161150,254.49580330005847,254.79955820005853,254.49580330005847,254.49580330005847,None,254.49580330005847,254.49580330005847,255.30035237005214,None,,,,11011,0001,2022_Mar_03_1413,localizer,2021.1.3,59.59116882205877,
block,objects,objects058.bmp,,,,,0,89,89,89,,,,,,,,,,,,,,,,,,,,,,,,,,,,,,,,,,,,,,,,,,None,,255.30035237005214,None,255.30035237005214,None,2022-03-03-14:18:05.977017,255.30680020002183,255.61636520002503,255.30680020002183,None,None,255.30680020002183,None,256.11681956999234,None,,,,11011,0001,2022_Mar_03_1413,localizer,2021.1.3,59.59116882205877,
block_end,objects,objects003.bmp,,,,,0,90,90,90,,,,,,,,,,,,,,,,,,,,,,,,,,,,,,,,,,,,,,,,,,None,,256.11681956999234,None,256.11681956999234,None,2022-03-03-14:18:06.792267,256.12620449997485,256.4330416000448,256.12620449997485,None,None,256.12620449997485,None,256.92293607004683,None,,,,11011,0001,2022_Mar_03_1413,localizer,2021.1.3,59.59116882205877,
null_block,null_block,null_block.bmp,,,,,0,91,91,91,,,,,,,,,,,,,,,,,,,,,,,,,,,,,,,,,,,,,,,,,,t,1.7707269999664277,256.92070260003675,None,256.92070260003675,None,2022-03-03-14:18:09.393270,258.71682967004597,None,258.71682967004597,None,None,258.71682967004597,None,258.72119249997195,None,,,,11011,0001,2022_Mar_03_1413,localizer,2021.1.3,59.59116882205877,
block_start,scenes,scenes038.bmp,,,,,0,92,92,92,,,,,,,,,,,,,,,,,,,,,,,,,,,,,,,,,,,,,,,,,,t,1.9580471999943256,270.733412600006,None,270.733412600006,None,2022-03-03-14:18:23.394864,272.7290033000754,273.03367879998405,272.7290033000754,None,None,272.7290033000754,None,273.53374016998566,None,,,,11011,0001,2022_Mar_03_1413,localizer,2021.1.3,59.59116882205877,
block,scenes,scenes053.bmp,,,,,0,93,93,93,,,,,,,,,,,,,,,,,,,,,,,,,,,,,,,,,,,,,,,,,,None,,273.53374016998566,None,273.53374016998566,None,2022-03-03-14:18:24.210178,273.54405729996506,273.84974610002246,273.54405729996506,None,None,273.54405729996506,None,274.35074157003544,None,,,,11011,0001,2022_Mar_03_1413,localizer,2021.1.3,59.59116882205877,
block,scenes,scenes087.bmp,,,,,0,94,94,94,,,,,,,,,,,,,,,,,,,,,,,,,,,,,,,,,,,,,,,,,,None,,274.35074157003544,None,274.35074157003544,None,2022-03-03-14:18:25.027261,274.36210320005193,274.66637620003894,274.36210320005193,None,None,274.36210320005193,None,275.16648627006214,None,,,,11011,0001,2022_Mar_03_1413,localizer,2021.1.3,59.59116882205877,
block,scenes,scenes024.bmp,,,,,0,95,95,95,,,,,,,,,,,,,,,,,,,,,,,,,,,,,,,,,,,,,,,,,,None,,275.16648627006214,None,275.16648627006214,None,2022-03-03-14:18:25.841911,275.170446800068,275.482923100004,275.170446800068,None,None,275.170446800068,None,275.9836087699863,None,,,,11011,0001,2022_Mar_03_1413,localizer,2021.1.3,59.59116882205877,
block,scenes,scenes019.bmp,,,,,0,96,96,96,,,,,,,,,,,,,,,,,,,,,,,,,,,,,,,,,,,,,,,,,,None,,275.9836087699863,None,275.9836087699863,None,2022-03-03-14:18:26.659055,275.9931961999973,276.2997160999803,275.9931961999973,None,None,275.9931961999973,None,276.8003101699636,None,,,,11011,0001,2022_Mar_03_1413,localizer,2021.1.3,59.59116882205877,
block,scenes,scenes032.bmp,,,,,0,97,97,97,,,,,,,,,,,,,,,,,,,,,,,,,,,,,,,,,,,,,,,,,,None,,276.8003101699636,None,276.8003101699636,None,2022-03-03-14:18:27.476154,276.81012320006266,277.116287700017,276.81012320006266,None,None,276.81012320006266,None,277.6169668700662,None,,,,11011,0001,2022_Mar_03_1413,localizer,2021.1.3,59.59116882205877,
block,scenes,scenes069.bmp,,,,,0,98,98,98,,,,,,,,,,,,,,,,,,,,,,,,,,,,,,,,,,,,,,,,,,None,,277.6169668700662,None,277.6169668700662,None,2022-03-03-14:18:28.292410,277.62661440006923,277.9394886000082,277.62661440006923,None,None,277.62661440006923,None,278.4331397699774,None,,,,11011,0001,2022_Mar_03_1413,localizer,2021.1.3,59.59116882205877,
block,scenes,scenes016.bmp,,,,,0,99,99,99,,,,,,,,,,,,,,,,,,,,,,,,,,,,,,,,,,,,,,,,,,None,,278.4331397699774,None,278.4331397699774,None,2022-03-03-14:18:29.108590,278.4338272999739,278.7329514999874,278.4338272999739,None,None,278.4338272999739,None,279.2332874699845,None,,,,11011,0001,2022_Mar_03_1413,localizer,2021.1.3,59.59116882205877,
block,scenes,scenes055.bmp,,,,,0,100,100,100,,,,,,,,,,,,,,,,,,,,,,,,,,,,,,,,,,,,,,,,,,None,,279.2332874699845,None,279.2332874699845,None,2022-03-03-14:18:29.910733,279.244709599996,279.54968960001133,279.244709599996,279.244709599996,None,279.244709599996,279.244709599996,280.0502418700256,None,,,,11011,0001,2022_Mar_03_1413,localizer,2021.1.3,59.59116882205877,
block,scenes,scenes046.bmp,,,,,0,101,101,101,,,,,,,,,,,,,,,,,,,,,,,,,,,,,,,,,,,,,,,,,,None,,280.0502418700256,None,280.0502418700256,None,2022-03-03-14:18:30.725688,280.05973460001405,280.36642330000177,280.05973460001405,None,None,280.05973460001405,None,280.8679854700225,None,,,,11011,0001,2022_Mar_03_1413,localizer,2021.1.3,59.59116882205877,
block,scenes,scenes089.bmp,,,,,0,102,102,102,,,,,,,,,,,,,,,,,,,,,,,,,,,,,,,,,,,,,,,,,,None,,280.8679854700225,None,280.8679854700225,None,2022-03-03-14:18:31.545601,280.8779700000305,281.1830399000319,280.8779700000305,None,None,280.8779700000305,None,281.6847125699627,None,,,,11011,0001,2022_Mar_03_1413,localizer,2021.1.3,59.59116882205877,
block,scenes,scenes089.bmp,,,,,0,103,103,103,,,,,,,,,,,,,,,,,,,,,,,,,,,,,,,,,,,,,,,,,,None,,281.6847125699627,None,281.6847125699627,None,2022-03-03-14:18:32.362316,281.6866389999632,282.0001164000714,281.6866389999632,None,y,281.6866389999632,None,282.5014399700216,None,0.5998680000193417,,,11011,0001,2022_Mar_03_1413,localizer,2021.1.3,59.59116882205877,
block,scenes,scenes079.bmp,,,,,0,104,104,104,,,,,,,,,,,,,,,,,,,,,,,,,,,,,,,,,,,,,,,,,,None,,282.5014399700216,None,282.5014399700216,None,2022-03-03-14:18:33.179862,282.51546879997477,282.8167168999789,282.51546879997477,None,None,282.51546879997477,None,283.31684767004333,None,,,,11011,0001,2022_Mar_03_1413,localizer,2021.1.3,59.59116882205877,
block,scenes,scenes050.bmp,,,,,0,105,105,105,,,,,,,,,,,,,,,,,,,,,,,,,,,,,,,,,,,,,,,,,,None,,283.31684767004333,None,283.31684767004333,None,2022-03-03-14:18:33.992535,283.3265902000712,283.63354840001557,283.3265902000712,None,None,283.3265902000712,None,284.1338263700367,None,,,,11011,0001,2022_Mar_03_1413,localizer,2021.1.3,59.59116882205877,
block_end,scenes,scenes011.bmp,,,,,0,106,106,106,,,,,,,,,,,,,,,,,,,,,,,,,,,,,,,,,,,,,,,,,,None,,284.1338263700367,None,284.1338263700367,None,2022-03-03-14:18:34.810487,284.1341229999671,284.43354580004234,284.1341229999671,None,None,284.1341229999671,None,284.9335571700125,None,,,,11011,0001,2022_Mar_03_1413,localizer,2021.1.3,59.59116882205877,
block_start,scrambled,scrambled026.bmp,,,,,0,107,107,107,,,,,,,,,,,,,,,,,,,,,,,,,,,,,,,,,,,,,,,,,,t,1.75840120005887,284.9329279999947,None,284.9329279999947,None,2022-03-03-14:18:37.390262,286.72451510000974,287.03974699997343,286.72451510000974,None,None,286.72451510000974,None,287.53419786997836,None,,,,11011,0001,2022_Mar_03_1413,localizer,2021.1.3,59.59116882205877,
block,scrambled,scrambled030.bmp,,,,,0,108,108,108,,,,,,,,,,,,,,,,,,,,,,,,,,,,,,,,,,,,,,,,,,None,,287.53419786997836,None,287.53419786997836,None,2022-03-03-14:18:38.210827,287.5456297000637,287.8499244999839,287.5456297000637,None,None,287.5456297000637,None,288.35022177003555,None,,,,11011,0001,2022_Mar_03_1413,localizer,2021.1.3,59.59116882205877,
block,scrambled,scrambled072.bmp,,,,,0,109,109,109,,,,,,,,,,,,,,,,,,,,,,,,,,,,,,,,,,,,,,,,,,None,,288.35022177003555,None,288.35022177003555,None,2022-03-03-14:18:39.025809,288.359960700036,288.66650449996814,288.359960700036,None,None,288.359960700036,None,289.1665364699787,None,,,,11011,0001,2022_Mar_03_1413,localizer,2021.1.3,59.59116882205877,
block,scrambled,scrambled047.bmp,,,,,0,110,110,110,,,,,,,,,,,,,,,,,,,,,,,,,,,,,,,,,,,,,,,,,,None,,289.1665364699787,None,289.1665364699787,None,2022-03-03-14:18:39.842216,289.16732979996596,289.46782290004194,289.16732979996596,None,None,289.16732979996596,None,289.96644727004457,None,,,,11011,0001,2022_Mar_03_1413,localizer,2021.1.3,59.59116882205877,
block,scrambled,scrambled017.bmp,,,,,0,111,111,111,,,,,,,,,,,,,,,,,,,,,,,,,,,,,,,,,,,,,,,,,,None,,289.96644727004457,None,289.96644727004457,None,2022-03-03-14:18:40.641897,289.97599629999604,290.283159899991,289.97599629999604,289.97599629999604,None,289.97599629999604,289.97599629999604,290.78357907003954,None,,,,11011,0001,2022_Mar_03_1413,localizer,2021.1.3,59.59116882205877,
block,scrambled,scrambled077.bmp,,,,,0,112,112,112,,,,,,,,,,,,,,,,,,,,,,,,,,,,,,,,,,,,,,,,,,None,,290.78357907003954,None,290.78357907003954,None,2022-03-03-14:18:41.459026,290.7931717999745,291.0999020000454,290.7931717999745,None,None,290.7931717999745,None,291.6003538699937,None,,,,11011,0001,2022_Mar_03_1413,localizer,2021.1.3,59.59116882205877,
block,scrambled,scrambled041.bmp,,,,,0,113,113,113,,,,,,,,,,,,,,,,,,,,,,,,,,,,,,,,,,,,,,,,,,None,,291.6003538699937,None,291.6003538699937,None,2022-03-03-14:18:42.275800,291.60940409998875,291.9161687999731,291.60940409998875,None,None,291.60940409998875,None,292.4168482700246,None,,,,11011,0001,2022_Mar_03_1413,localizer,2021.1.3,59.59116882205877,
block,scrambled,scrambled039.bmp,,,,,0,114,114,114,,,,,,,,,,,,,,,,,,,,,,,,,,,,,,,,,,,,,,,,,,None,,292.4168482700246,None,292.4168482700246,None,2022-03-03-14:18:43.092487,292.4263148000464,292.73328719998244,292.4263148000464,None,None,292.4263148000464,None,293.2336486700573,None,,,,11011,0001,2022_Mar_03_1413,localizer,2021.1.3,59.59116882205877,
block,scrambled,scrambled004.bmp,,,,,0,115,115,115,,,,,,,,,,,,,,,,,,,,,,,,,,,,,,,,,,,,,,,,,,None,,293.2336486700573,None,293.2336486700573,None,2022-03-03-14:18:43.909095,293.2394401000347,293.54978300002404,293.2394401000347,None,None,293.2394401000347,None,294.050371769967,None,,,,11011,0001,2022_Mar_03_1413,localizer,2021.1.3,59.59116882205877,
block,scrambled,scrambled027.bmp,,,,,0,116,116,116,,,,,,,,,,,,,,,,,,,,,,,,,,,,,,,,,,,,,,,,,,None,,294.050371769967,None,294.050371769967,None,2022-03-03-14:18:44.726015,294.05987980007194,294.36666900001,294.05987980007194,None,None,294.05987980007194,None,294.8682206700672,None,,,,11011,0001,2022_Mar_03_1413,localizer,2021.1.3,59.59116882205877,
block,scrambled,scrambled045.bmp,,,,,0,117,117,117,,,,,,,,,,,,,,,,,,,,,,,,,,,,,,,,,,,,,,,,,,None,,294.8682206700672,None,294.8682206700672,None,2022-03-03-14:18:45.544828,294.8811098000733,295.1831414999906,294.8811098000733,None,None,294.8811098000733,None,295.68351667005334,None,,,,11011,0001,2022_Mar_03_1413,localizer,2021.1.3,59.59116882205877,
block,scrambled,scrambled076.bmp,,,,,0,118,118,118,,,,,,,,,,,,,,,,,,,,,,,,,,,,,,,,,,,,,,,,,,None,,295.68351667005334,None,295.68351667005334,None,2022-03-03-14:18:46.358968,295.6916816000594,295.9999421000248,295.6916816000594,None,None,295.6916816000594,None,296.5001684700022,None,,,,11011,0001,2022_Mar_03_1413,localizer,2021.1.3,59.59116882205877,
block,scrambled,scrambled019.bmp,,,,,0,119,119,119,,,,,,,,,,,,,,,,,,,,,,,,,,,,,,,,,,,,,,,,,,None,,296.5001684700022,None,296.5001684700022,None,2022-03-03-14:18:47.176241,296.50861190003343,296.81669360003434,296.50861190003343,None,None,296.50861190003343,None,297.3167630699812,None,,,,11011,0001,2022_Mar_03_1413,localizer,2021.1.3,59.59116882205877,
block,scrambled,scrambled080.bmp,,,,,0,120,120,120,,,,,,,,,,,,,,,,,,,,,,,,,,,,,,,,,,,,,,,,,,None,,297.3167630699812,None,297.3167630699812,None,2022-03-03-14:18:47.992216,297.32093390007503,297.6332367999712,297.32093390007503,None,None,297.32093390007503,None,298.133627270034,None,,,,11011,0001,2022_Mar_03_1413,localizer,2021.1.3,59.59116882205877,
block_end,scrambled,scrambled034.bmp,,,,,0,121,121,121,,,,,,,,,,,,,,,,,,,,,,,,,,,,,,,,,,,,,,,,,,None,,298.133627270034,None,298.133627270034,None,2022-03-03-14:18:48.809080,298.14298390003387,298.45006489998195,298.14298390003387,None,y,298.14298390003387,None,298.950267470011,None,0.014944400056265295,,,11011,0001,2022_Mar_03_1413,localizer,2021.1.3,59.59116882205877,
block_start,faces,faces004.bmp,,,,,0,122,122,122,,,,,,,,,,,,,,,,,,,,,,,,,,,,,,,,,,,,,,,,,,t,1.7413141999859363,298.95000509999227,None,298.95000509999227,None,2022-03-03-14:18:51.391372,300.72976130002644,301.03328109998256,300.72976130002644,None,None,300.72976130002644,None,301.53577877002533,None,,,,11011,0001,2022_Mar_03_1413,localizer,2021.1.3,59.59116882205877,
block,faces,faces043.bmp,,,,,0,123,123,123,,,,,,,,,,,,,,,,,,,,,,,,,,,,,,,,,,,,,,,,,,None,,301.53577877002533,None,301.53577877002533,None,2022-03-03-14:18:52.216212,301.55347450007685,301.86654810002074,301.55347450007685,None,None,301.55347450007685,None,302.3501794700627,None,,,,11011,0001,2022_Mar_03_1413,localizer,2021.1.3,59.59116882205877,
block,faces,faces076.bmp,,,,,0,124,124,124,,,,,,,,,,,,,,,,,,,,,,,,,,,,,,,,,,,,,,,,,,None,,302.3501794700627,None,302.3501794700627,None,2022-03-03-14:18:53.025862,302.3597787000472,302.66672750003636,302.3597787000472,None,None,302.3597787000472,None,303.16817386999026,None,,,,11011,0001,2022_Mar_03_1413,localizer,2021.1.3,59.59116882205877,
block,faces,faces032.bmp,,,,,0,125,125,125,,,,,,,,,,,,,,,,,,,,,,,,,,,,,,,,,,,,,,,,,,None,,303.16817386999026,None,303.16817386999026,None,2022-03-03-14:18:53.846594,303.18093470006716,303.48313369997777,303.18093470006716,None,None,303.18093470006716,None,303.98391366997964,None,,,,11011,0001,2022_Mar_03_1413,localizer,2021.1.3,59.59116882205877,
block,faces,faces030.bmp,,,,,0,126,126,126,,,,,,,,,,,,,,,,,,,,,,,,,,,,,,,,,,,,,,,,,,None,,303.98391366997964,None,303.98391366997964,None,2022-03-03-14:18:54.660549,303.9964304000605,304.2995551000349,303.9964304000605,None,None,303.9964304000605,None,304.8000918700476,None,,,,11011,0001,2022_Mar_03_1413,localizer,2021.1.3,59.59116882205877,
block,faces,faces040.bmp,,,,,0,127,127,127,,,,,,,,,,,,,,,,,,,,,,,,,,,,,,,,,,,,,,,,,,None,,304.8000918700476,None,304.8000918700476,None,2022-03-03-14:18:55.475543,304.80841850000434,305.1170466999756,304.80841850000434,None,None,304.80841850000434,None,305.61817836997795,None,,,,11011,0001,2022_Mar_03_1413,localizer,2021.1.3,59.59116882205877,
block,faces,faces069.bmp,,,,,0,128,128,128,,,,,,,,,,,,,,,,,,,,,,,,,,,,,,,,,,,,,,,,,,None,,305.61817836997795,None,305.61817836997795,None,2022-03-03-14:18:56.295731,305.62030920002144,305.9335388999898,305.62030920002144,None,None,305.62030920002144,None,306.43316187002927,None,,,,11011,0001,2022_Mar_03_1413,localizer,2021.1.3,59.59116882205877,
block,faces,faces067.bmp,,,,,0,129,129,129,,,,,,,,,,,,,,,,,,,,,,,,,,,,,,,,,,,,,,,,,,None,,306.43316187002927,None,306.43316187002927,None,2022-03-03-14:18:57.108882,306.4345641999971,306.7499955999665,306.4345641999971,None,None,306.4345641999971,None,307.233841870015,None,,,,11011,0001,2022_Mar_03_1413,localizer,2021.1.3,59.59116882205877,
block,faces,faces063.bmp,,,,,0,130,130,130,,,,,,,,,,,,,,,,,,,,,,,,,,,,,,,,,,,,,,,,,,None,,307.233841870015,None,307.233841870015,None,2022-03-03-14:18:57.911282,307.2474920999957,307.5498978999676,307.2474920999957,307.2474920999957,None,307.2474920999957,307.2474920999957,308.05032636997055,None,,,,11011,0001,2022_Mar_03_1413,localizer,2021.1.3,59.59116882205877,
block,faces,faces047.bmp,,,,,0,131,131,131,,,,,,,,,,,,,,,,,,,,,,,,,,,,,,,,,,,,,,,,,,None,,308.05032636997055,None,308.05032636997055,None,2022-03-03-14:18:58.725038,308.06374830007553,308.3664337999653,308.06374830007553,None,None,308.06374830007553,None,308.86702817006733,None,,,,11011,0001,2022_Mar_03_1413,localizer,2021.1.3,59.59116882205877,
block,faces,faces068.bmp,,,,,0,132,132,132,,,,,,,,,,,,,,,,,,,,,,,,,,,,,,,,,,,,,,,,,,None,,308.86702817006733,None,308.86702817006733,None,2022-03-03-14:18:59.542619,308.8780478000408,309.18312230007723,308.8780478000408,None,None,308.8780478000408,None,309.68360116999827,None,,,,11011,0001,2022_Mar_03_1413,localizer,2021.1.3,59.59116882205877,
block,faces,faces048.bmp,,,,,0,133,133,133,,,,,,,,,,,,,,,,,,,,,,,,,,,,,,,,,,,,,,,,,,None,,309.68360116999827,None,309.68360116999827,None,2022-03-03-14:19:00.358988,309.6843143000733,309.98314979998395,309.6843143000733,None,None,309.6843143000733,None,310.487461469986,None,,,,11011,0001,2022_Mar_03_1413,localizer,2021.1.3,59.59116882205877,
block,faces,faces007.bmp,,,,,0,134,134,134,,,,,,,,,,,,,,,,,,,,,,,,,,,,,,,,,,,,,,,,,,None,,310.487461469986,None,310.487461469986,None,2022-03-03-14:19:01.173753,310.5114740000572,310.8168800000567,310.5114740000572,310.5114740000572,None,310.5114740000572,310.5114740000572,311.3005182700348,None,,,,11011,0001,2022_Mar_03_1413,localizer,2021.1.3,59.59116882205877,
block,faces,faces007.bmp,,,,,0,135,135,135,,,,,,,,,,,,,,,,,,,,,,,,,,,,,,,,,,,,,,,,,,None,,311.3005182700348,None,311.3005182700348,None,2022-03-03-14:19:01.976156,311.30105430004187,311.6166462000692,311.30105430004187,None,y,311.30105430004187,None,312.10035837002795,None,0.5349183999933302,,,11011,0001,2022_Mar_03_1413,localizer,2021.1.3,59.59116882205877,
block_end,faces,faces082.bmp,,,,,0,136,136,136,,,,,,,,,,,,,,,,,,,,,,,,,,,,,,,,,,,,,,,,,,None,,312.10035837002795,None,312.10035837002795,None,2022-03-03-14:19:02.777876,312.11325419996865,312.41637960006483,312.11325419996865,312.11325419996865,None,312.11325419996865,312.11325419996865,312.9171753700706,None,,,,11011,0001,2022_Mar_03_1413,localizer,2021.1.3,59.59116882205877,
block_start,objects,objects031.bmp,,,,,0,137,137,137,,,,,,,,,,,,,,,,,,,,,,,,,,,,,,,,,,,,,,,,,,t,1.774293900001794,312.91680120001547,None,312.91680120001547,None,2022-03-03-14:19:05.390539,314.724309500074,315.0332064999966,314.724309500074,None,None,314.724309500074,None,315.534492770012,None,,,,11011,0001,2022_Mar_03_1413,localizer,2021.1.3,59.59116882205877,
block,objects,objects058.bmp,,,,,0,138,138,138,,,,,,,,,,,,,,,,,,,,,,,,,,,,,,,,,,,,,,,,,,None,,315.534492770012,None,315.534492770012,None,2022-03-03-14:19:06.211117,315.53622100001667,315.85040220001247,315.53622100001667,None,None,315.53622100001667,None,316.350607070059,None,,,,11011,0001,2022_Mar_03_1413,localizer,2021.1.3,59.59116882205877,
block,objects,objects025.bmp,,,,,0,139,139,139,,,,,,,,,,,,,,,,,,,,,,,,,,,,,,,,,,,,,,,,,,None,,316.350607070059,None,316.350607070059,None,2022-03-03-14:19:07.027138,316.35112310003024,316.6504178000614,316.35112310003024,None,None,316.35112310003024,None,317.1513950700522,None,,,,11011,0001,2022_Mar_03_1413,localizer,2021.1.3,59.59116882205877,
block,objects,objects012.bmp,,,,,0,140,140,140,,,,,,,,,,,,,,,,,,,,,,,,,,,,,,,,,,,,,,,,,,None,,317.1513950700522,None,317.1513950700522,None,2022-03-03-14:19:07.830046,317.1641887000296,317.46657449996565,317.1641887000296,317.1641887000296,None,317.1641887000296,317.1641887000296,317.96700897001426,None,,,,11011,0001,2022_Mar_03_1413,localizer,2021.1.3,59.59116882205877,
block,objects,objects077.bmp,,,,,0,141,141,141,,,,,,,,,,,,,,,,,,,,,,,,,,,,,,,,,,,,,,,,,,None,,317.96700897001426,None,317.96700897001426,None,2022-03-03-14:19:08.642456,317.9752599999774,318.2832086000126,317.9752599999774,None,None,317.9752599999774,None,318.7838647700031,None,,,,11011,0001,2022_Mar_03_1413,localizer,2021.1.3,59.59116882205877,
block,objects,objects082.bmp,,,,,0,142,142,142,,,,,,,,,,,,,,,,,,,,,,,,,,,,,,,,,,,,,,,,,,None,,318.7838647700031,None,318.7838647700031,None,2022-03-03-14:19:09.459673,318.78434040001594,319.0833714000182,318.78434040001594,None,None,318.78434040001594,None,319.5836333700339,None,,,,11011,0001,2022_Mar_03_1413,localizer,2021.1.3,59.59116882205877,
block,objects,objects001.bmp,,,,,0,143,143,143,,,,,,,,,,,,,,,,,,,,,,,,,,,,,,,,,,,,,,,,,,None,,319.5836333700339,None,319.5836333700339,None,2022-03-03-14:19:10.261071,319.59551879996434,319.900045700022,319.59551879996434,319.59551879996434,None,319.59551879996434,319.59551879996434,320.40051017006624,None,,,,11011,0001,2022_Mar_03_1413,localizer,2021.1.3,59.59116882205877,
block,objects,objects081.bmp,,,,,0,144,144,144,,,,,,,,,,,,,,,,,,,,,,,,,,,,,,,,,,,,,,,,,,None,,320.40051017006624,None,320.40051017006624,None,2022-03-03-14:19:11.075955,320.40101919998415,320.7000417000381,320.40101919998415,None,None,320.40101919998415,None,321.2003799700527,None,,,,11011,0001,2022_Mar_03_1413,localizer,2021.1.3,59.59116882205877,
block,objects,objects071.bmp,,,,,0,145,145,145,,,,,,,,,,,,,,,,,,,,,,,,,,,,,,,,,,,,,,,,,,None,,321.2003799700527,None,321.2003799700527,None,2022-03-03-14:19:11.876824,321.210021100007,321.51635240006726,321.210021100007,321.210021100007,None,321.210021100007,321.210021100007,322.0170866700704,None,,,,11011,0001,2022_Mar_03_1413,localizer,2021.1.3,59.59116882205877,
block,objects,objects034.bmp,,,,,0,146,146,146,,,,,,,,,,,,,,,,,,,,,,,,,,,,,,,,,,,,,,,,,,None,,322.0170866700704,None,322.0170866700704,None,2022-03-03-14:19:12.692449,322.0261248999741,322.333367299987,322.0261248999741,None,None,322.0261248999741,None,322.83401827005434,None,,,,11011,0001,2022_Mar_03_1413,localizer,2021.1.3,59.59116882205877,
block,objects,objects068.bmp,,,,,0,147,147,147,,,,,,,,,,,,,,,,,,,,,,,,,,,,,,,,,,,,,,,,,,None,,322.83401827005434,None,322.83401827005434,None,2022-03-03-14:19:13.509463,322.84359770000447,323.15015970007516,322.84359770000447,None,None,322.84359770000447,None,323.65043457007266,None,,,,11011,0001,2022_Mar_03_1413,localizer,2021.1.3,59.59116882205877,
block,objects,objects007.bmp,,,,,0,148,148,148,,,,,,,,,,,,,,,,,,,,,,,,,,,,,,,,,,,,,,,,,,None,,323.65043457007266,None,323.65043457007266,None,2022-03-03-14:19:14.326087,323.65982210007496,323.96730799996294,323.65982210007496,None,None,323.65982210007496,None,324.46698267004683,None,,,,11011,0001,2022_Mar_03_1413,localizer,2021.1.3,59.59116882205877,
block,objects,objects072.bmp,,,,,0,149,149,149,,,,,,,,,,,,,,,,,,,,,,,,,,,,,,,,,,,,,,,,,,None,,324.46698267004683,None,324.46698267004683,None,2022-03-03-14:19:15.142693,324.4757126000477,324.78349659999367,324.4757126000477,None,None,324.4757126000477,None,325.2840137699735,None,,,,11011,0001,2022_Mar_03_1413,localizer,2021.1.3,59.59116882205877,
block,objects,objects024.bmp,,,,,0,150,150,150,,,,,,,,,,,,,,,,,,,,,,,,,,,,,,,,,,,,,,,,,,None,,325.2840137699735,None,325.2840137699735,None,2022-03-03-14:19:15.959448,325.294571800041,325.6000531000318,325.294571800041,None,None,325.294571800041,None,326.1004872699617,None,,,,11011,0001,2022_Mar_03_1413,localizer,2021.1.3,59.59116882205877,
block_end,objects,objects045.bmp,,,,,0,151,151,151,,,,,,,,,,,,,,,,,,,,,,,,,,,,,,,,,,,,,,,,,,None,,326.1004872699617,None,326.1004872699617,None,2022-03-03-14:19:16.775973,326.1102874999633,326.4169419000391,326.1102874999633,None,None,326.1102874999633,None,326.9173220700235,None,,,,11011,0001,2022_Mar_03_1413,localizer,2021.1.3,59.59116882205877,
null_block,null_block,null_block.bmp,,,,,0,152,152,152,,,,,,,,,,,,,,,,,,,,,,,,,,,,,,,,,,,,,,,,,,t,1.7743747999193147,326.9168673000531,None,326.9168673000531,None,2022-03-03-14:19:19.391415,328.71703027006004,None,328.71703027006004,None,None,328.71703027006004,None,328.7190282000229,None,,,,11011,0001,2022_Mar_03_1413,localizer,2021.1.3,59.59116882205877,
block_start,scrambled,scrambled032.bmp,,,,,0,153,153,153,,,,,,,,,,,,,,,,,,,,,,,,,,,,,,,,,,,,,,,,,,t,1.956654699984938,340.7334659000626,None,340.7334659000626,None,2022-03-03-14:19:33.396940,342.72051020001527,343.0337297000224,342.72051020001527,None,None,342.72051020001527,None,343.53451377005547,None,,,,11011,0001,2022_Mar_03_1413,localizer,2021.1.3,59.59116882205877,
block,scrambled,scrambled038.bmp,,,,,0,154,154,154,,,,,,,,,,,,,,,,,,,,,,,,,,,,,,,,,,,,,,,,,,None,,343.53451377005547,None,343.53451377005547,None,2022-03-03-14:19:34.211426,343.546898300061,343.84996680007316,343.546898300061,None,None,343.546898300061,None,344.3507493699784,None,,,,11011,0001,2022_Mar_03_1413,localizer,2021.1.3,59.59116882205877,
block,scrambled,scrambled017.bmp,,,,,0,155,155,155,,,,,,,,,,,,,,,,,,,,,,,,,,,,,,,,,,,,,,,,,,None,,344.3507493699784,None,344.3507493699784,None,2022-03-03-14:19:35.026660,344.3511723000556,344.6500473000342,344.3511723000556,None,None,344.3511723000556,None,345.1513216700754,None,,,,11011,0001,2022_Mar_03_1413,localizer,2021.1.3,59.59116882205877,
block,scrambled,scrambled084.bmp,,,,,0,156,156,156,,,,,,,,,,,,,,,,,,,,,,,,,,,,,,,,,,,,,,,,,,None,,345.1513216700754,None,345.1513216700754,None,2022-03-03-14:19:35.830247,345.16724810004234,345.4665418000659,345.16724810004234,345.16724810004234,None,345.16724810004234,345.16724810004234,345.96743957003343,None,,,,11011,0001,2022_Mar_03_1413,localizer,2021.1.3,59.59116882205877,
block,scrambled,scrambled033.bmp,,,,,0,157,157,157,,,,,,,,,,,,,,,,,,,,,,,,,,,,,,,,,,,,,,,,,,None,,345.96743957003343,None,345.96743957003343,None,2022-03-03-14:19:36.643395,345.97800270002335,346.28324670006987,345.97800270002335,None,None,345.97800270002335,None,346.78358267006695,None,,,,11011,0001,2022_Mar_03_1413,localizer,2021.1.3,59.59116882205877,
block,scrambled,scrambled087.bmp,,,,,0,158,158,158,,,,,,,,,,,,,,,,,,,,,,,,,,,,,,,,,,,,,,,,,,None,,346.78358267006695,None,346.78358267006695,None,2022-03-03-14:19:37.459850,346.7918500000378,347.10001779999584,346.7918500000378,None,None,346.7918500000378,None,347.6012417700025,None,,,,11011,0001,2022_Mar_03_1413,localizer,2021.1.3,59.59116882205877,
block,scrambled,scrambled012.bmp,,,,,0,159,159,159,,,,,,,,,,,,,,,,,,,,,,,,,,,,,,,,,,,,,,,,,,None,,347.6012417700025,None,347.6012417700025,None,2022-03-03-14:19:38.278329,347.61249540001154,347.9169618000742,347.61249540001154,None,None,347.61249540001154,None,348.4179144699941,None,,,,11011,0001,2022_Mar_03_1413,localizer,2021.1.3,59.59116882205877,
block,scrambled,scrambled081.bmp,,,,,0,160,160,160,,,,,,,,,,,,,,,,,,,,,,,,,,,,,,,,,,,,,,,,,,None,,348.4179144699941,None,348.4179144699941,None,2022-03-03-14:19:39.095140,348.43092610000167,348.7343421999831,348.43092610000167,None,None,348.43092610000167,None,349.2350138699752,None,,,,11011,0001,2022_Mar_03_1413,localizer,2021.1.3,59.59116882205877,
block,scrambled,scrambled047.bmp,,,,,0,161,161,161,,,,,,,,,,,,,,,,,,,,,,,,,,,,,,,,,,,,,,,,,,None,,349.2350138699752,None,349.2350138699752,None,2022-03-03-14:19:39.912829,349.2376744999783,349.5504926000722,349.2376744999783,None,None,349.2376744999783,None,350.05184567001413,None,,,,11011,0001,2022_Mar_03_1413,localizer,2021.1.3,59.59116882205877,
block,scrambled,scrambled037.bmp,,,,,0,162,162,162,,,,,,,,,,,,,,,,,,,,,,,,,,,,,,,,,,,,,,,,,,None,,350.05184567001413,None,350.05184567001413,None,2022-03-03-14:19:40.729925,350.0663024999667,350.3667703999672,350.0663024999667,None,None,350.0663024999667,None,350.8672370700282,None,,,,11011,0001,2022_Mar_03_1413,localizer,2021.1.3,59.59116882205877,
block,scrambled,scrambled051.bmp,,,,,0,163,163,163,,,,,,,,,,,,,,,,,,,,,,,,,,,,,,,,,,,,,,,,,,None,,350.8672370700282,None,350.8672370700282,None,2022-03-03-14:19:41.543552,350.8772783000022,351.1847643000074,350.8772783000022,None,None,350.8772783000022,None,351.6843439700664,None,,,,11011,0001,2022_Mar_03_1413,localizer,2021.1.3,59.59116882205877,
block,scrambled,scrambled079.bmp,,,,,0,164,164,164,,,,,,,,,,,,,,,,,,,,,,,,,,,,,,,,,,,,,,,,,,None,,351.6843439700664,None,351.6843439700664,None,2022-03-03-14:19:42.361657,351.69591260002926,352.00024590000976,351.69591260002926,None,None,351.69591260002926,None,352.5004096699762,None,,,,11011,0001,2022_Mar_03_1413,localizer,2021.1.3,59.59116882205877,
block,scrambled,scrambled029.bmp,,,,,0,165,165,165,,,,,,,,,,,,,,,,,,,,,,,,,,,,,,,,,,,,,,,,,,None,,352.5004096699762,None,352.5004096699762,None,2022-03-03-14:19:43.176555,352.5094807000132,352.8169343000045,352.5094807000132,None,None,352.5094807000132,None,353.3171509700245,None,,,,11011,0001,2022_Mar_03_1413,localizer,2021.1.3,59.59116882205877,
block,scrambled,scrambled073.bmp,,,,,0,166,166,166,,,,,,,,,,,,,,,,,,,,,,,,,,,,,,,,,,,,,,,,,,None,,353.3171509700245,None,353.3171509700245,None,2022-03-03-14:19:43.993316,353.3261966999853,353.6335336000193,353.3261966999853,None,None,353.3261966999853,None,354.1338767700712,None,,,,11011,0001,2022_Mar_03_1413,localizer,2021.1.3,59.59116882205877,
block_end,scrambled,scrambled071.bmp,,,,,0,167,167,167,,,,,,,,,,,,,,,,,,,,,,,,,,,,,,,,,,,,,,,,,,None,,354.1338767700712,None,354.1338767700712,None,2022-03-03-14:19:44.810065,354.1426139000105,354.4500927000772,354.1426139000105,None,None,354.1426139000105,None,354.95233977007445,None,,,,11011,0001,2022_Mar_03_1413,localizer,2021.1.3,59.59116882205877,
block_start,scenes,scenes047.bmp,,,,,0,168,168,168,,,,,,,,,,,,,,,,,,,,,,,,,,,,,,,,,,,,,,,,,,t,1.7385091000469401,354.95157120004296,None,354.95157120004296,None,2022-03-03-14:19:47.393635,356.72884280001745,357.0338709000498,356.72884280001745,None,None,356.72884280001745,None,357.53365247001636,None,,,,11011,0001,2022_Mar_03_1413,localizer,2021.1.3,59.59116882205877,
block,scenes,scenes073.bmp,,,,,0,169,169,169,,,,,,,,,,,,,,,,,,,,,,,,,,,,,,,,,,,,,,,,,,None,,357.53365247001636,None,357.53365247001636,None,2022-03-03-14:19:48.209929,357.5433809000533,357.8509418000467,357.5433809000533,None,None,357.5433809000533,None,358.3504021700122,None,,,,11011,0001,2022_Mar_03_1413,localizer,2021.1.3,59.59116882205877,
block,scenes,scenes089.bmp,,,,,0,170,170,170,,,,,,,,,,,,,,,,,,,,,,,,,,,,,,,,,,,,,,,,,,None,,358.3504021700122,None,358.3504021700122,None,2022-03-03-14:19:49.027236,358.35149769997224,358.6501223000232,358.35149769997224,None,None,358.35149769997224,None,359.15079677003666,None,,,,11011,0001,2022_Mar_03_1413,localizer,2021.1.3,59.59116882205877,
block,scenes,scenes061.bmp,,,,,0,171,171,171,,,,,,,,,,,,,,,,,,,,,,,,,,,,,,,,,,,,,,,,,,None,,359.15079677003666,None,359.15079677003666,None,2022-03-03-14:19:49.829221,359.16554379998706,359.4667646000162,359.16554379998706,359.16554379998706,None,359.16554379998706,359.16554379998706,359.9668740700348,None,,,,11011,0001,2022_Mar_03_1413,localizer,2021.1.3,59.59116882205877,
block,scenes,scenes033.bmp,,,,,0,172,172,172,,,,,,,,,,,,,,,,,,,,,,,,,,,,,,,,,,,,,,,,,,None,,359.9668740700348,None,359.9668740700348,None,2022-03-03-14:19:50.643211,359.9749897000147,360.2836609999649,359.9749897000147,None,None,359.9749897000147,None,360.7838564700563,None,,,,11011,0001,2022_Mar_03_1413,localizer,2021.1.3,59.59116882205877,
block,scenes,scenes056.bmp,,,,,0,173,173,173,,,,,,,,,,,,,,,,,,,,,,,,,,,,,,,,,,,,,,,,,,None,,360.7838564700563,None,360.7838564700563,None,2022-03-03-14:19:51.460213,360.791957700043,361.1000786999939,360.791957700043,None,None,360.791957700043,None,361.60026547001905,None,,,,11011,0001,2022_Mar_03_1413,localizer,2021.1.3,59.59116882205877,
block,scenes,scenes078.bmp,,,,,0,174,174,174,,,,,,,,,,,,,,,,,,,,,,,,,,,,,,,,,,,,,,,,,,None,,361.60026547001905,None,361.60026547001905,None,2022-03-03-14:19:52.276640,361.6068889000453,361.91711350006517,361.6068889000453,None,None,361.6068889000453,None,362.4173543700366,None,,,,11011,0001,2022_Mar_03_1413,localizer,2021.1.3,59.59116882205877,
block,scenes,scenes079.bmp,,,,,0,175,175,175,,,,,,,,,,,,,,,,,,,,,,,,,,,,,,,,,,,,,,,,,,None,,362.4173543700366,None,362.4173543700366,None,2022-03-03-14:19:53.093749,362.417784600053,362.7170737000415,362.417784600053,None,None,362.417784600053,None,363.2178872700664,None,,,,11011,0001,2022_Mar_03_1413,localizer,2021.1.3,59.59116882205877,
block,scenes,scenes059.bmp,,,,,0,176,176,176,,,,,,,,,,,,,,,,,,,,,,,,,,,,,,,,,,,,,,,,,,None,,363.2178872700664,None,363.2178872700664,None,2022-03-03-14:19:53.898282,363.22156820003875,363.5342363000382,363.22156820003875,363.22156820003875,None,363.22156820003875,363.22156820003875,364.033967969974,None,,,,11011,0001,2022_Mar_03_1413,localizer,2021.1.3,59.59116882205877,
block,scenes,scenes039.bmp,,,,,0,177,177,177,,,,,,,,,,,,,,,,,,,,,,,,,,,,,,,,,,,,,,,,,,None,,364.033967969974,None,364.033967969974,None,2022-03-03-14:19:54.710401,364.0401380000403,364.3504495000234,364.0401380000403,None,None,364.0401380000403,None,364.8507194699836,None,,,,11011,0001,2022_Mar_03_1413,localizer,2021.1.3,59.59116882205877,
block,scenes,scenes045.bmp,,,,,0,178,178,178,,,,,,,,,,,,,,,,,,,,,,,,,,,,,,,,,,,,,,,,,,None,,364.8507194699836,None,364.8507194699836,None,2022-03-03-14:19:55.527389,364.8603934000712,365.166943200049,364.8603934000712,None,None,364.8603934000712,None,365.6681551699643,None,,,,11011,0001,2022_Mar_03_1413,localizer,2021.1.3,59.59116882205877,
block,scenes,scenes064.bmp,,,,,0,179,179,179,,,,,,,,,,,,,,,,,,,,,,,,,,,,,,,,,,,,,,,,,,None,,365.6681551699643,None,365.6681551699643,None,2022-03-03-14:19:56.345788,365.67938440002035,365.9843364000553,365.67938440002035,None,None,365.67938440002035,None,366.4865108699654,None,,,,11011,0001,2022_Mar_03_1413,localizer,2021.1.3,59.59116882205877,
block,scenes,scenes069.bmp,,,,,0,180,180,180,,,,,,,,,,,,,,,,,,,,,,,,,,,,,,,,,,,,,,,,,,None,,366.4865108699654,None,366.4865108699654,None,2022-03-03-14:19:57.165154,366.4941968000494,366.8006760000717,366.4941968000494,None,None,366.4941968000494,None,367.30106997004475,None,,,,11011,0001,2022_Mar_03_1413,localizer,2021.1.3,59.59116882205877,
block,scenes,scenes070.bmp,,,,,0,181,181,181,,,,,,,,,,,,,,,,,,,,,,,,,,,,,,,,,,,,,,,,,,None,,367.30106997004475,None,367.30106997004475,None,2022-03-03-14:19:57.977580,367.31140570004936,367.61711730004754,367.31140570004936,None,None,367.31140570004936,None,368.1186358699691,None,,,,11011,0001,2022_Mar_03_1413,localizer,2021.1.3,59.59116882205877,
block_end,scenes,scenes001.bmp,,,,,0,182,182,182,,,,,,,,,,,,,,,,,,,,,,,,,,,,,,,,,,,,,,,,,,None,,368.1186358699691,None,368.1186358699691,None,2022-03-03-14:19:58.797150,368.1204409999773,368.43406690005213,368.1204409999773,None,None,368.1204409999773,None,368.93459597000617,None,,,,11011,0001,2022_Mar_03_1413,localizer,2021.1.3,59.59116882205877,
block_start,faces,faces048.bmp,,,,,0,183,183,183,,,,,,,,,,,,,,,,,,,,,,,,,,,,,,,,,,,,,,,,,,t,1.755832599941641,368.9343053000048,None,368.9343053000048,None,2022-03-03-14:20:01.394834,370.71830050006974,371.03375870001037,370.71830050006974,None,None,370.71830050006974,None,371.5184444700484,None,,,,11011,0001,2022_Mar_03_1413,localizer,2021.1.3,59.59116882205877,
block,faces,faces088.bmp,,,,,0,184,184,184,,,,,,,,,,,,,,,,,,,,,,,,,,,,,,,,,,,,,,,,,,None,,371.5184444700484,None,371.5184444700484,None,2022-03-03-14:20:02.197813,371.5226150000235,371.833490399993,371.5226150000235,371.5226150000235,None,371.5226150000235,371.5226150000235,372.3346776700695,None,,,,11011,0001,2022_Mar_03_1413,localizer,2021.1.3,59.59116882205877,
block,faces,faces064.bmp,,,,,0,185,185,185,,,,,,,,,,,,,,,,,,,,,,,,,,,,,,,,,,,,,,,,,,None,,372.3346776700695,None,372.3346776700695,None,2022-03-03-14:20:03.012326,372.34601990005467,372.65046350006014,372.34601990005467,None,None,372.34601990005467,None,373.15062557001363,None,,,,11011,0001,2022_Mar_03_1413,localizer,2021.1.3,59.59116882205877,
block,faces,faces054.bmp,,,,,0,186,186,186,,,,,,,,,,,,,,,,,,,,,,,,,,,,,,,,,,,,,,,,,,None,,373.15062557001363,None,373.15062557001363,None,2022-03-03-14:20:03.827292,373.15846509998664,373.46715020004194,373.15846509998664,None,None,373.15846509998664,None,373.9672241700231,None,,,,11011,0001,2022_Mar_03_1413,localizer,2021.1.3,59.59116882205877,
block,faces,faces033.bmp,,,,,0,187,187,187,,,,,,,,,,,,,,,,,,,,,,,,,,,,,,,,,,,,,,,,,,None,,373.9672241700231,None,373.9672241700231,None,2022-03-03-14:20:04.644200,373.98346680006944,374.28356420004275,373.98346680006944,None,None,373.98346680006944,None,374.78399097003273,None,,,,11011,0001,2022_Mar_03_1413,localizer,2021.1.3,59.59116882205877,
block,faces,faces027.bmp,,,,,0,188,188,188,,,,,,,,,,,,,,,,,,,,,,,,,,,,,,,,,,,,,,,,,,None,,374.78399097003273,None,374.78399097003273,None,2022-03-03-14:20:05.460698,374.7847100000363,375.08405589999165,374.7847100000363,None,None,374.7847100000363,None,375.585031269968,None,,,,11011,0001,2022_Mar_03_1413,localizer,2021.1.3,59.59116882205877,
block,faces,faces068.bmp,,,,,0,189,189,189,,,,,,,,,,,,,,,,,,,,,,,,,,,,,,,,,,,,,,,,,,None,,375.585031269968,None,375.585031269968,None,2022-03-03-14:20:06.265902,375.58896159997676,375.90020959998947,375.58896159997676,375.58896159997676,None,375.58896159997676,375.58896159997676,376.4003055700217,None,,,,11011,0001,2022_Mar_03_1413,localizer,2021.1.3,59.59116882205877,
block,faces,faces025.bmp,,,,,0,190,190,190,,,,,,,,,,,,,,,,,,,,,,,,,,,,,,,,,,,,,,,,,,None,,376.4003055700217,None,376.4003055700217,None,2022-03-03-14:20:07.076090,376.40158810000867,376.7005562999984,376.40158810000867,None,None,376.40158810000867,None,377.20079227004896,None,,,,11011,0001,2022_Mar_03_1413,localizer,2021.1.3,59.59116882205877,
block,faces,faces042.bmp,,,,,0,191,191,191,,,,,,,,,,,,,,,,,,,,,,,,,,,,,,,,,,,,,,,,,,None,,377.20079227004896,None,377.20079227004896,None,2022-03-03-14:20:07.878551,377.21139870001934,377.51702310005203,377.21139870001934,377.21139870001934,None,377.21139870001934,377.21139870001934,378.01741977004565,None,,,,11011,0001,2022_Mar_03_1413,localizer,2021.1.3,59.59116882205877,
block,faces,faces071.bmp,,,,,0,192,192,192,,,,,,,,,,,,,,,,,,,,,,,,,,,,,,,,,,,,,,,,,,None,,378.01741977004565,None,378.01741977004565,None,2022-03-03-14:20:08.694204,378.0265458000358,378.33370429999195,378.0265458000358,None,None,378.0265458000358,None,378.83398197001077,None,,,,11011,0001,2022_Mar_03_1413,localizer,2021.1.3,59.59116882205877,
block,faces,faces003.bmp,,,,,0,193,193,193,,,,,,,,,,,,,,,,,,,,,,,,,,,,,,,,,,,,,,,,,,None,,378.83398197001077,None,378.83398197001077,None,2022-03-03-14:20:09.510785,378.8433957999805,379.1502531999722,378.8433957999805,None,None,378.8433957999805,None,379.65092257006324,None,,,,11011,0001,2022_Mar_03_1413,localizer,2021.1.3,59.59116882205877,
block,faces,faces026.bmp,,,,,0,194,194,194,,,,,,,,,,,,,,,,,,,,,,,,,,,,,,,,,,,,,,,,,,None,,379.65092257006324,None,379.65092257006324,None,2022-03-03-14:20:10.327743,379.6888417999726,380.00030590000097,379.6888417999726,None,None,379.6888417999726,None,380.46728036998536,None,,,,11011,0001,2022_Mar_03_1413,localizer,2021.1.3,59.59116882205877,
block,faces,faces082.bmp,,,,,0,195,195,195,,,,,,,,,,,,,,,,,,,,,,,,,,,,,,,,,,,,,,,,,,None,,380.46728036998536,None,380.46728036998536,None,2022-03-03-14:20:11.144346,380.4679741000291,380.7671103000175,380.4679741000291,None,None,380.4679741000291,None,381.2674516700557,None,,,,11011,0001,2022_Mar_03_1413,localizer,2021.1.3,59.59116882205877,
block,faces,faces078.bmp,,,,,0,196,196,196,,,,,,,,,,,,,,,,,,,,,,,,,,,,,,,,,,,,,,,,,,None,,381.2674516700557,None,381.2674516700557,None,2022-03-03-14:20:11.946310,381.2683647000231,381.567049400066,381.2683647000231,381.2683647000231,None,381.2683647000231,381.2683647000231,382.083911070053,None,,,,11011,0001,2022_Mar_03_1413,localizer,2021.1.3,59.59116882205877,
block_end,faces,faces058.bmp,,,,,0,197,197,197,,,,,,,,,,,,,,,,,,,,,,,,,,,,,,,,,,,,,,,,,,None,,382.083911070053,None,382.083911070053,None,2022-03-03-14:20:12.761052,382.0945795000298,382.4002046000678,382.0945795000298,None,None,382.0945795000298,None,382.9007350700325,None,,,,11011,0001,2022_Mar_03_1413,localizer,2021.1.3,59.59116882205877,
block_start,objects,objects086.bmp,,,,,0,198,198,198,,,,,,,,,,,,,,,,,,,,,,,,,,,,,,,,,,,,,,,,,,t,1.7896464000223204,382.9004528999794,None,382.9004528999794,None,2022-03-03-14:20:15.393000,384.72485530003905,385.03440760006197,384.72485530003905,None,None,384.72485530003905,None,385.53416966999646,None,,,,11011,0001,2022_Mar_03_1413,localizer,2021.1.3,59.59116882205877,
block,objects,objects048.bmp,,,,,0,199,199,199,,,,,,,,,,,,,,,,,,,,,,,,,,,,,,,,,,,,,,,,,,None,,385.53416966999646,None,385.53416966999646,None,2022-03-03-14:20:16.211263,385.5440083000576,385.8508660000516,385.5440083000576,None,None,385.5440083000576,None,386.3512393699842,None,,,,11011,0001,2022_Mar_03_1413,localizer,2021.1.3,59.59116882205877,
block,objects,objects012.bmp,,,,,0,200,200,200,,,,,,,,,,,,,,,,,,,,,,,,,,,,,,,,,,,,,,,,,,None,,386.3512393699842,None,386.3512393699842,None,2022-03-03-14:20:17.028225,386.35164310003165,386.6500802000519,386.35164310003165,None,None,386.35164310003165,None,387.15111397000726,None,,,,11011,0001,2022_Mar_03_1413,localizer,2021.1.3,59.59116882205877,
block,objects,objects012.bmp,,,,,0,201,201,201,,,,,,,,,,,,,,,,,,,,,,,,,,,,,,,,,,,,,,,,,,None,,387.15111397000726,None,387.15111397000726,None,2022-03-03-14:20:17.831011,387.153411300038,387.45175410003867,387.153411300038,387.153411300038,y,387.153411300038,387.153411300038,387.96793646997537,None,0.4885950000025332,,,11011,0001,2022_Mar_03_1413,localizer,2021.1.3,59.59116882205877,
block,objects,objects060.bmp,,,,,0,202,202,202,,,,,,,,,,,,,,,,,,,,,,,,,,,,,,,,,,,,,,,,,,None,,387.96793646997537,None,387.96793646997537,None,2022-03-03-14:20:18.644981,387.9680901999818,388.2674597000005,387.9680901999818,None,None,387.9680901999818,None,388.7682653699652,None,,,,11011,0001,2022_Mar_03_1413,localizer,2021.1.3,59.59116882205877,
block,objects,objects082.bmp,,,,,0,203,203,203,,,,,,,,,,,,,,,,,,,,,,,,,,,,,,,,,,,,,,,,,,None,,388.7682653699652,None,388.7682653699652,None,2022-03-03-14:20:19.448361,388.7709562999662,389.0841409000568,388.7709562999662,388.7709562999662,None,388.7709562999662,388.7709562999662,389.58406667007364,None,,,,11011,0001,2022_Mar_03_1413,localizer,2021.1.3,59.59116882205877,
block,objects,objects017.bmp,,,,,0,204,204,204,,,,,,,,,,,,,,,,,,,,,,,,,,,,,,,,,,,,,,,,,,None,,389.58406667007364,None,389.58406667007364,None,2022-03-03-14:20:20.261594,389.5845474000089,389.88398030004464,389.5845474000089,None,None,389.5845474000089,None,390.384172669996,None,,,,11011,0001,2022_Mar_03_1413,localizer,2021.1.3,59.59116882205877,
block,objects,objects061.bmp,,,,,0,205,205,205,,,,,,,,,,,,,,,,,,,,,,,,,,,,,,,,,,,,,,,,,,None,,390.384172669996,None,390.384172669996,None,2022-03-03-14:20:21.063260,390.39376250002533,390.7004666000139,390.39376250002533,390.39376250002533,None,390.39376250002533,390.39376250002533,391.2012218700605,None,,,,11011,0001,2022_Mar_03_1413,localizer,2021.1.3,59.59116882205877,
block,objects,objects022.bmp,,,,,0,206,206,206,,,,,,,,,,,,,,,,,,,,,,,,,,,,,,,,,,,,,,,,,,None,,391.2012218700605,None,391.2012218700605,None,2022-03-03-14:20:21.878298,391.2013856000267,391.5008526999736,391.2013856000267,None,None,391.2013856000267,None,392.00107677004996,None,,,,11011,0001,2022_Mar_03_1413,localizer,2021.1.3,59.59116882205877,
block,objects,objects059.bmp,,,,,0,207,207,207,,,,,,,,,,,,,,,,,,,,,,,,,,,,,,,,,,,,,,,,,,None,,392.00107677004996,None,392.00107677004996,None,2022-03-03-14:20:22.680245,392.0129932999844,392.3173306999961,392.0129932999844,392.0129932999844,None,392.0129932999844,392.0129932999844,392.8171943700057,None,,,,11011,0001,2022_Mar_03_1413,localizer,2021.1.3,59.59116882205877,
block,objects,objects015.bmp,,,,,0,208,208,208,,,,,,,,,,,,,,,,,,,,,,,,,,,,,,,,,,,,,,,,,,None,,392.8171943700057,None,392.8171943700057,None,2022-03-03-14:20:23.494404,392.81804749998264,393.11699999996927,392.81804749998264,None,None,392.81804749998264,None,393.61960967004995,None,,,,11011,0001,2022_Mar_03_1413,localizer,2021.1.3,59.59116882205877,
block,objects,objects075.bmp,,,,,0,209,209,209,,,,,,,,,,,,,,,,,,,,,,,,,,,,,,,,,,,,,,,,,,None,,393.61960967004995,None,393.61960967004995,None,2022-03-03-14:20:24.302804,393.6374018000206,393.95053110003937,393.6374018000206,393.6374018000206,None,393.6374018000206,393.6374018000206,394.4340274699847,None,,,,11011,0001,2022_Mar_03_1413,localizer,2021.1.3,59.59116882205877,
block,objects,objects051.bmp,,,,,0,210,210,210,,,,,,,,,,,,,,,,,,,,,,,,,,,,,,,,,,,,,,,,,,None,,394.4340274699847,None,394.4340274699847,None,2022-03-03-14:20:25.111225,394.4417064000154,394.75114140007645,394.4417064000154,None,None,394.4417064000154,None,395.2507436700747,None,,,,11011,0001,2022_Mar_03_1413,localizer,2021.1.3,59.59116882205877,
block,objects,objects071.bmp,,,,,0,211,211,211,,,,,,,,,,,,,,,,,,,,,,,,,,,,,,,,,,,,,,,,,,None,,395.2507436700747,None,395.2507436700747,None,2022-03-03-14:20:25.927869,395.25138789997436,395.55111490003765,395.25138789997436,None,None,395.25138789997436,None,396.05085087000623,None,,,,11011,0001,2022_Mar_03_1413,localizer,2021.1.3,59.59116882205877,
block_end,objects,objects034.bmp,,,,,0,212,212,212,,,,,,,,,,,,,,,,,,,,,,,,,,,,,,,,,,,,,,,,,,None,,396.05085087000623,None,396.05085087000623,None,2022-03-03-14:20:26.730079,396.0517786999699,396.35072250000667,396.0517786999699,396.0517786999699,None,396.0517786999699,396.0517786999699,396.85084557001244,None,,,,11011,0001,2022_Mar_03_1413,localizer,2021.1.3,59.59116882205877,
block_start,scenes,scenes023.bmp,,,,,0,213,213,213,,,,,,,,,,,,,,,,,,,,,,,,,,,,,,,,,,,,,,,,,,t,1.8399575999937952,396.8502513000276,None,396.8502513000276,None,2022-03-03-14:20:29.399994,398.72386280004866,399.0337514000712,398.72386280004866,None,None,398.72386280004866,None,399.5341749700368,None,,,,11011,0001,2022_Mar_03_1413,localizer,2021.1.3,59.59116882205877,
block,scenes,scenes015.bmp,,,,,0,214,214,214,,,,,,,,,,,,,,,,,,,,,,,,,,,,,,,,,,,,,,,,,,None,,399.5341749700368,None,399.5341749700368,None,2022-03-03-14:20:30.212703,399.53475850005634,399.8339225000236,399.53475850005634,None,None,399.53475850005634,None,400.3348234700155,None,,,,11011,0001,2022_Mar_03_1413,localizer,2021.1.3,59.59116882205877,
block,scenes,scenes090.bmp,,,,,0,215,215,215,,,,,,,,,,,,,,,,,,,,,,,,,,,,,,,,,,,,,,,,,,None,,400.3348234700155,None,400.3348234700155,None,2022-03-03-14:20:31.015147,400.34845739998855,400.6506676999852,400.34845739998855,400.34845739998855,None,400.34845739998855,400.34845739998855,401.15114707002647,None,,,,11011,0001,2022_Mar_03_1413,localizer,2021.1.3,59.59116882205877,
block,scenes,scenes014.bmp,,,,,0,216,216,216,,,,,,,,,,,,,,,,,,,,,,,,,,,,,,,,,,,,,,,,,,None,,401.15114707002647,None,401.15114707002647,None,2022-03-03-14:20:31.828506,401.1638429000741,401.4667623999994,401.1638429000741,None,None,401.1638429000741,None,401.9675682699657,None,,,,11011,0001,2022_Mar_03_1413,localizer,2021.1.3,59.59116882205877,
block,scenes,scenes078.bmp,,,,,0,217,217,217,,,,,,,,,,,,,,,,,,,,,,,,,,,,,,,,,,,,,,,,,,None,,401.9675682699657,None,401.9675682699657,None,2022-03-03-14:20:32.644949,401.9680506000295,402.26755970006343,401.9680506000295,None,None,401.9680506000295,None,402.76789816996313,None,,,,11011,0001,2022_Mar_03_1413,localizer,2021.1.3,59.59116882205877,
block,scenes,scenes025.bmp,,,,,0,218,218,218,,,,,,,,,,,,,,,,,,,,,,,,,,,,,,,,,,,,,,,,,,None,,402.76789816996313,None,402.76789816996313,None,2022-03-03-14:20:33.448009,402.7818424999714,403.0841462999815,402.7818424999714,402.7818424999714,None,402.7818424999714,402.7818424999714,403.5839169699815,None,,,,11011,0001,2022_Mar_03_1413,localizer,2021.1.3,59.59116882205877,
block,scenes,scenes010.bmp,,,,,0,219,219,219,,,,,,,,,,,,,,,,,,,,,,,,,,,,,,,,,,,,,,,,,,None,,403.5839169699815,None,403.5839169699815,None,2022-03-03-14:20:34.261477,403.58477670000866,403.8836907000514,403.58477670000866,None,None,403.58477670000866,None,404.3843920700368,None,,,,11011,0001,2022_Mar_03_1413,localizer,2021.1.3,59.59116882205877,
block,scenes,scenes054.bmp,,,,,0,220,220,220,,,,,,,,,,,,,,,,,,,,,,,,,,,,,,,,,,,,,,,,,,None,,404.3843920700368,None,404.3843920700368,None,2022-03-03-14:20:35.063840,404.39797060005367,404.70058210007846,404.39797060005367,404.39797060005367,None,404.39797060005367,404.39797060005367,405.2009248700109,None,,,,11011,0001,2022_Mar_03_1413,localizer,2021.1.3,59.59116882205877,
block,scenes,scenes029.bmp,,,,,0,221,221,221,,,,,,,,,,,,,,,,,,,,,,,,,,,,,,,,,,,,,,,,,,None,,405.2009248700109,None,405.2009248700109,None,2022-03-03-14:20:35.878357,405.2105267000152,405.5175816999981,405.2105267000152,None,None,405.2105267000152,None,406.01795327003344,None,,,,11011,0001,2022_Mar_03_1413,localizer,2021.1.3,59.59116882205877,
block,scenes,scenes018.bmp,,,,,0,222,222,222,,,,,,,,,,,,,,,,,,,,,,,,,,,,,,,,,,,,,,,,,,None,,406.01795327003344,None,406.01795327003344,None,2022-03-03-14:20:36.695483,406.0295994000044,406.3339119000593,406.0295994000044,None,None,406.0295994000044,None,406.8343971700291,None,,,,11011,0001,2022_Mar_03_1413,localizer,2021.1.3,59.59116882205877,
block,scenes,scenes086.bmp,,,,,0,223,223,223,,,,,,,,,,,,,,,,,,,,,,,,,,,,,,,,,,,,,,,,,,None,,406.8343971700291,None,406.8343971700291,None,2022-03-03-14:20:37.511900,406.8442039999645,407.1502483000513,406.8442039999645,None,None,406.8442039999645,None,407.65057376996845,None,,,,11011,0001,2022_Mar_03_1413,localizer,2021.1.3,59.59116882205877,
block,scenes,scenes003.bmp,,,,,0,224,224,224,,,,,,,,,,,,,,,,,,,,,,,,,,,,,,,,,,,,,,,,,,None,,407.65057376996845,None,407.65057376996845,None,2022-03-03-14:20:38.328101,407.6608724000398,407.967350800056,407.6608724000398,None,None,407.6608724000398,None,408.4678608699818,None,,,,11011,0001,2022_Mar_03_1413,localizer,2021.1.3,59.59116882205877,
block,scenes,scenes092.bmp,,,,,0,225,225,225,,,,,,,,,,,,,,,,,,,,,,,,,,,,,,,,,,,,,,,,,,None,,408.4678608699818,None,408.4678608699818,None,2022-03-03-14:20:39.145402,408.4772869000444,408.78370520006865,408.4772869000444,None,None,408.4772869000444,None,409.2846054700552,None,,,,11011,0001,2022_Mar_03_1413,localizer,2021.1.3,59.59116882205877,
block,scenes,scenes072.bmp,,,,,0,226,226,226,,,,,,,,,,,,,,,,,,,,,,,,,,,,,,,,,,,,,,,,,,None,,409.2846054700552,None,409.2846054700552,None,2022-03-03-14:20:39.963350,409.29511319997255,409.6003531999886,409.29511319997255,None,None,409.29511319997255,None,410.10124187000326,None,,,,11011,0001,2022_Mar_03_1413,localizer,2021.1.3,59.59116882205877,
block_end,scenes,scenes033.bmp,,,,,0,227,227,227,,,,,,,,,,,,,,,,,,,,,,,,,,,,,,,,,,,,,,,,,,None,,410.10124187000326,None,410.10124187000326,None,2022-03-03-14:20:40.778826,410.1014880000148,410.4005026000086,410.1014880000148,None,None,410.1014880000148,None,410.90128367001887,None,,,,11011,0001,2022_Mar_03_1413,localizer,2021.1.3,59.59116882205877,
null_block,null_block,null_block.bmp,,,,,0,228,228,228,,,,,,,,,,,,,,,,,,,,,,,,,,,,,,,,,,,,,,,,,,t,1.789162699948065,410.9008713000221,None,410.9008713000221,None,2022-03-03-14:20:43.394102,412.7174476699787,None,412.7174476699787,None,None,412.7174476699787,None,412.71962180000264,None,,,,11011,0001,2022_Mar_03_1413,localizer,2021.1.3,59.59116882205877,
block_start,scrambled,scrambled085.bmp,,,,,0,229,229,229,,,,,,,,,,,,,,,,,,,,,,,,,,,,,,,,,,,,,,,,,,t,1.9725963999517262,424.71742550004274,None,424.71742550004274,None,2022-03-03-14:20:57.395969,426.72725650004577,427.034470600076,426.72725650004577,None,None,426.72725650004577,None,427.53515777006976,None,,,,11011,0001,2022_Mar_03_1413,localizer,2021.1.3,59.59116882205877,
block,scrambled,scrambled064.bmp,,,,,0,230,230,230,,,,,,,,,,,,,,,,,,,,,,,,,,,,,,,,,,,,,,,,,,None,,427.53515777006976,None,427.53515777006976,None,2022-03-03-14:20:58.214128,427.54631030000746,427.85075980005786,427.54631030000746,None,None,427.54631030000746,None,428.352235069999,None,,,,11011,0001,2022_Mar_03_1413,localizer,2021.1.3,59.59116882205877,
block,scrambled,scrambled060.bmp,,,,,0,231,231,231,,,,,,,,,,,,,,,,,,,,,,,,,,,,,,,,,,,,,,,,,,None,,428.352235069999,None,428.352235069999,None,2022-03-03-14:20:59.031259,428.3641653000377,428.66737460007425,428.3641653000377,None,None,428.3641653000377,None,429.1682805699878,None,,,,11011,0001,2022_Mar_03_1413,localizer,2021.1.3,59.59116882205877,
block,scrambled,scrambled054.bmp,,,,,0,232,232,232,,,,,,,,,,,,,,,,,,,,,,,,,,,,,,,,,,,,,,,,,,None,,429.1682805699878,None,429.1682805699878,None,2022-03-03-14:20:59.847528,429.179629100021,429.48391900002025,429.179629100021,None,None,429.179629100021,None,429.98449426997684,None,,,,11011,0001,2022_Mar_03_1413,localizer,2021.1.3,59.59116882205877,
block,scrambled,scrambled076.bmp,,,,,0,233,233,233,,,,,,,,,,,,,,,,,,,,,,,,,,,,,,,,,,,,,,,,,,None,,429.98449426997684,None,429.98449426997684,None,2022-03-03-14:21:00.661573,429.9911731000757,430.30087629996706,429.9911731000757,None,None,429.9911731000757,None,430.80080657001815,None,,,,11011,0001,2022_Mar_03_1413,localizer,2021.1.3,59.59116882205877,
block,scrambled,scrambled029.bmp,,,,,0,234,234,234,,,,,,,,,,,,,,,,,,,,,,,,,,,,,,,,,,,,,,,,,,None,,430.80080657001815,None,430.80080657001815,None,2022-03-03-14:21:01.478913,430.80158319999464,431.10238020005636,430.80158319999464,None,None,430.80158319999464,None,431.602533170057,None,,,,11011,0001,2022_Mar_03_1413,localizer,2021.1.3,59.59116882205877,
block,scrambled,scrambled088.bmp,,,,,0,235,235,235,,,,,,,,,,,,,,,,,,,,,,,,,,,,,,,,,,,,,,,,,,None,,431.602533170057,None,431.602533170057,None,2022-03-03-14:21:02.285672,431.61821940005757,431.9173754999647,431.61821940005757,431.61821940005757,None,431.61821940005757,431.61821940005757,432.4178480700706,None,,,,11011,0001,2022_Mar_03_1413,localizer,2021.1.3,59.59116882205877,
block,scrambled,scrambled056.bmp,,,,,0,236,236,236,,,,,,,,,,,,,,,,,,,,,,,,,,,,,,,,,,,,,,,,,,None,,432.4178480700706,None,432.4178480700706,None,2022-03-03-14:21:03.096221,432.42372500000056,432.73404939996544,432.42372500000056,None,None,432.42372500000056,None,433.23450407005146,None,,,,11011,0001,2022_Mar_03_1413,localizer,2021.1.3,59.59116882205877,
block,scrambled,scrambled019.bmp,,,,,0,237,237,237,,,,,,,,,,,,,,,,,,,,,,,,,,,,,,,,,,,,,,,,,,None,,433.23450407005146,None,433.23450407005146,None,2022-03-03-14:21:03.912909,433.23510240006726,433.5338567000581,433.23510240006726,None,None,433.23510240006726,None,434.03436766999073,None,,,,11011,0001,2022_Mar_03_1413,localizer,2021.1.3,59.59116882205877,
block,scrambled,scrambled049.bmp,,,,,0,238,238,238,,,,,,,,,,,,,,,,,,,,,,,,,,,,,,,,,,,,,,,,,,None,,434.03436766999073,None,434.03436766999073,None,2022-03-03-14:21:04.714671,434.0463530999841,434.3506823000498,434.0463530999841,434.0463530999841,None,434.0463530999841,434.0463530999841,434.8511670700158,None,,,,11011,0001,2022_Mar_03_1413,localizer,2021.1.3,59.59116882205877,
block,scrambled,scrambled050.bmp,,,,,0,239,239,239,,,,,,,,,,,,,,,,,,,,,,,,,,,,,,,,,,,,,,,,,,None,,434.8511670700158,None,434.8511670700158,None,2022-03-03-14:21:05.529373,434.8600821000291,435.16767110000364,434.8600821000291,None,None,434.8600821000291,None,435.66774696999926,None,,,,11011,0001,2022_Mar_03_1413,localizer,2021.1.3,59.59116882205877,
block,scrambled,scrambled007.bmp,,,,,0,240,240,240,,,,,,,,,,,,,,,,,,,,,,,,,,,,,,,,,,,,,,,,,,None,,435.66774696999926,None,435.66774696999926,None,2022-03-03-14:21:06.346198,435.6771157999756,435.98386649996974,435.6771157999756,None,None,435.6771157999756,None,436.48425156999144,None,,,,11011,0001,2022_Mar_03_1413,localizer,2021.1.3,59.59116882205877,
block,scrambled,scrambled002.bmp,,,,,0,241,241,241,,,,,,,,,,,,,,,,,,,,,,,,,,,,,,,,,,,,,,,,,,None,,436.48425156999144,None,436.48425156999144,None,2022-03-03-14:21:07.162124,436.4933683000272,436.80058270005975,436.4933683000272,None,None,436.4933683000272,None,437.30114417002767,None,,,,11011,0001,2022_Mar_03_1413,localizer,2021.1.3,59.59116882205877,
block,scrambled,scrambled031.bmp,,,,,0,242,242,242,,,,,,,,,,,,,,,,,,,,,,,,,,,,,,,,,,,,,,,,,,None,,437.30114417002767,None,437.30114417002767,None,2022-03-03-14:21:07.979608,437.31093869998585,437.61731880006846,437.31093869998585,None,None,437.31093869998585,None,438.11781777002614,None,,,,11011,0001,2022_Mar_03_1413,localizer,2021.1.3,59.59116882205877,
block_end,scrambled,scrambled014.bmp,,,,,0,243,243,243,,,,,,,,,,,,,,,,,,,,,,,,,,,,,,,,,,,,,,,,,,None,,438.11781777002614,None,438.11781777002614,None,2022-03-03-14:21:08.796103,438.1268619999755,438.43794279999565,438.1268619999755,None,None,438.1268619999755,None,438.9362930700066,None,,,,11011,0001,2022_Mar_03_1413,localizer,2021.1.3,59.59116882205877,
,,,,,,,,,,,,,,,,,,,,,,,,,,,,,,,,,,,,,,,,,,,,,,,,,,,,,,,,,,,,,,,,,,,,,438.938283400028,None,,,,,,,
