block_type,condition,img_name,Button.thisRepN,Button.thisTrialN,Button.thisN,Button.thisIndex,trials.thisRepN,trials.thisTrialN,trials.thisN,trials.thisIndex,Ready_experimenter_text.started,Ready_experimenter_text.stopped,Ready_experimenter_resp.keys,Ready_experimenter_resp.rt,Ready_experimenter_resp.started,Ready_experimenter_resp.stopped,Alignment_background.started,Alignment_background.stopped,Alignment_image.started,Alignment_image.stopped,Alignment_resp.keys,Alignment_resp.rt,Alignment_resp.started,Alignment_resp.stopped,Button_text.started,Button_text.stopped,Index_text.started,Index_text.stopped,Index_resp.keys,Index_resp.rt,Index_resp.started,Index_resp.stopped,Middle_text.started,Middle_text.stopped,Middle_resp.keys,Middle_resp.rt,Middle_resp.started,Middle_resp.stopped,Repeat_text.started,Repeat_text.stopped,Repeat_resp.keys,Repeat_resp.corr,Repeat_resp.rt,Repeat_resp.started,Repeat_resp.stopped,instruction_text.started,instruction_text.stopped,key_resp.keys,key_resp.rt,key_resp.started,key_resp.stopped,scanner_t.keys,scanner_t.rt,scanner_t.started,scanner_t.stopped,fixation_wait_for_t.started,fixation_wait_for_t.stopped,real_timestamp_trial_start,image.started,image.stopped,fixation.started,fixation.stopped,repeat_response.keys,repeat_response.started,repeat_response.stopped,fixation_null.started,fixation_null.stopped,repeat_response.rt,end_text.started,end_text.stopped,participant,run,date,expName,psychopyVersion,frameRate,
,,,,,,,,,,,7.841967699999941,None,return,0.7216489999999567,7.841967699999941,None,,,,,,,,,,,,,,,,,,,,,,,,,,,,,,,,,,,,,,,,,,,,,,,,,,,,,,,21014,0001,2022_Nov_21_1205,localizer,2021.1.3,60.02462209997374,
,,,,,,,,,,,,,,,,,8.608682699999918,None,8.608682699999918,None,return,0.4228468999999677,8.608682699999918,None,,,,,,,,,,,,,,,,,,,,,,,,,,,,,,,,,,,,,,,,,,,,,,,21014,0001,2022_Nov_21_1205,localizer,2021.1.3,60.02462209997374,
,,,0,0,0,0,,,,,,,,,,,,,,,,,,,9.059004099999925,None,10.069662899999912,None,y,4.530721500000027,10.069662899999912,None,14.620374699999957,None,b,1.3068975999999566,14.620374699999957,None,15.953823299999954,None,n,0,7.357590099999925,15.953823299999954,None,,,,,,,,,,,,,,,,,,,,,,,,,,21014,0001,2022_Nov_21_1205,localizer,2021.1.3,60.02462209997374,
,,,,,,,,,,,,,,,,,,,,,,,,,,,,,,,,,,,,,,,,,,,,,,23.337404300000003,None,y,73.2779771999999,23.337404300000003,None,,,,,,,,,,,,,,,,,,,,21014,0001,2022_Nov_21_1205,localizer,2021.1.3,60.02462209997374,
null_block,null_block,null_block.bmp,,,,,0,0,0,0,,,,,,,,,,,,,,,,,,,,,,,,,,,,,,,,,,,,,,,,,,t,15.12894140000003,96.70133959999987,None,96.70133959999987,None,2022-11-21-12:07:35.321459,111.87025779999999,None,111.87025779999999,None,None,111.87025779999999,None,111.8711462,None,,,,21014,0001,2022_Nov_21_1205,localizer,2021.1.3,60.02462209997374,
block_start,faces,faces030.bmp,,,,,0,1,1,1,,,,,,,,,,,,,,,,,,,,,,,,,,,,,,,,,,,,,,,,,,t,1.9433455000000777,123.88714160000006,None,123.88714160000006,None,2022-11-21-12:07:49.322380,125.86754269999994,126.17093209999996,125.86754269999994,None,None,125.86754269999994,None,126.67042670000006,None,,,,21014,0001,2022_Nov_21_1205,localizer,2021.1.3,60.02462209997374,
block,faces,faces037.bmp,,,,,0,2,2,2,,,,,,,,,,,,,,,,,,,,,,,,,,,,,,,,,,,,,,,,,,None,,126.67042670000006,None,126.67042670000006,None,2022-11-21-12:07:50.140357,126.68180530000006,126.98719670000003,126.68180530000006,None,None,126.68180530000006,None,127.48696359999991,None,,,,21014,0001,2022_Nov_21_1205,localizer,2021.1.3,60.02462209997374,
block,faces,faces026.bmp,,,,,0,3,3,3,,,,,,,,,,,,,,,,,,,,,,,,,,,,,,,,,,,,,,,,,,None,,127.48696359999991,None,127.48696359999991,None,2022-11-21-12:07:50.955931,127.52592599999991,127.83726519999993,127.52592599999991,None,None,127.52592599999991,None,128.30376519999987,None,,,,21014,0001,2022_Nov_21_1205,localizer,2021.1.3,60.02462209997374,
block,faces,faces022.bmp,,,,,0,4,4,4,,,,,,,,,,,,,,,,,,,,,,,,,,,,,,,,,,,,,,,,,,None,,128.30376519999987,None,128.30376519999987,None,2022-11-21-12:07:51.773751,128.31677649999995,128.6209270999999,128.31677649999995,None,None,128.31677649999995,None,129.1200239999999,None,,,,21014,0001,2022_Nov_21_1205,localizer,2021.1.3,60.02462209997374,
block,faces,faces028.bmp,,,,,0,5,5,5,,,,,,,,,,,,,,,,,,,,,,,,,,,,,,,,,,,,,,,,,,None,,129.1200239999999,None,129.1200239999999,None,2022-11-21-12:07:52.589058,129.1298779,129.43723590000002,129.1298779,None,None,129.1298779,None,129.9363257999999,None,,,,21014,0001,2022_Nov_21_1205,localizer,2021.1.3,60.02462209997374,
block,faces,faces009.bmp,,,,,0,6,6,6,,,,,,,,,,,,,,,,,,,,,,,,,,,,,,,,,,,,,,,,,,None,,129.9363257999999,None,129.9363257999999,None,2022-11-21-12:07:53.405387,129.94579250000004,130.25404749999996,129.94579250000004,None,None,129.94579250000004,None,130.75344909999995,None,,,,21014,0001,2022_Nov_21_1205,localizer,2021.1.3,60.02462209997374,
block,faces,faces059.bmp,,,,,0,7,7,7,,,,,,,,,,,,,,,,,,,,,,,,,,,,,,,,,,,,,,,,,,None,,130.75344909999995,None,130.75344909999995,None,2022-11-21-12:07:54.222755,130.7649599,131.07094449999988,130.7649599,None,None,130.7649599,None,131.5698622999999,None,,,,21014,0001,2022_Nov_21_1205,localizer,2021.1.3,60.02462209997374,
block,faces,faces067.bmp,,,,,0,8,8,8,,,,,,,,,,,,,,,,,,,,,,,,,,,,,,,,,,,,,,,,,,None,,131.5698622999999,None,131.5698622999999,None,2022-11-21-12:07:55.039200,131.58213390000003,131.8872250999999,131.58213390000003,None,None,131.58213390000003,None,132.38714439999995,None,,,,21014,0001,2022_Nov_21_1205,localizer,2021.1.3,60.02462209997374,
block,faces,faces032.bmp,,,,,0,9,9,9,,,,,,,,,,,,,,,,,,,,,,,,,,,,,,,,,,,,,,,,,,None,,132.38714439999995,None,132.38714439999995,None,2022-11-21-12:07:55.856288,132.39790890000006,132.70989550000002,132.39790890000006,None,None,132.39790890000006,None,133.2034104,None,,,,21014,0001,2022_Nov_21_1205,localizer,2021.1.3,60.02462209997374,
block,faces,faces055.bmp,,,,,0,10,10,10,,,,,,,,,,,,,,,,,,,,,,,,,,,,,,,,,,,,,,,,,,None,,133.2034104,None,133.2034104,None,2022-11-21-12:07:56.672585,133.21378119999997,133.52081779999992,133.21378119999997,None,None,133.21378119999997,None,134.01996749999995,None,,,,21014,0001,2022_Nov_21_1205,localizer,2021.1.3,60.02462209997374,
block,faces,faces027.bmp,,,,,0,11,11,11,,,,,,,,,,,,,,,,,,,,,,,,,,,,,,,,,,,,,,,,,,None,,134.01996749999995,None,134.01996749999995,None,2022-11-21-12:07:57.489177,134.03033369999991,134.33717179999996,134.03033369999991,None,None,134.03033369999991,None,134.83707659999988,None,,,,21014,0001,2022_Nov_21_1205,localizer,2021.1.3,60.02462209997374,
block,faces,faces027.bmp,,,,,0,12,12,12,,,,,,,,,,,,,,,,,,,,,,,,,,,,,,,,,,,,,,,,,,None,,134.83707659999988,None,134.83707659999988,None,2022-11-21-12:07:58.306529,134.83823649999988,135.13983100000007,134.83823649999988,None,y,134.83823649999988,None,135.65347950000006,None,0.6640780000000177,,,21014,0001,2022_Nov_21_1205,localizer,2021.1.3,60.02462209997374,
block,faces,faces081.bmp,,,,,0,13,13,13,,,,,,,,,,,,,,,,,,,,,,,,,,,,,,,,,,,,,,,,,,None,,135.65347950000006,None,135.65347950000006,None,2022-11-21-12:07:59.122742,135.66518519999988,135.97066949999987,135.66518519999988,None,None,135.66518519999988,None,136.4701874999999,None,,,,21014,0001,2022_Nov_21_1205,localizer,2021.1.3,60.02462209997374,
block,faces,faces025.bmp,,,,,0,14,14,14,,,,,,,,,,,,,,,,,,,,,,,,,,,,,,,,,,,,,,,,,,None,,136.4701874999999,None,136.4701874999999,None,2022-11-21-12:07:59.939483,136.48048110000002,136.78740749999986,136.48048110000002,None,None,136.48048110000002,None,137.2865132,None,,,,21014,0001,2022_Nov_21_1205,localizer,2021.1.3,60.02462209997374,
block_end,faces,faces035.bmp,,,,,0,15,15,15,,,,,,,,,,,,,,,,,,,,,,,,,,,,,,,,,,,,,,,,,,None,,137.2865132,None,137.2865132,None,2022-11-21-12:08:00.755841,137.29762049999988,137.60405350000008,137.29762049999988,None,None,137.29762049999988,None,138.10293259999986,None,,,,21014,0001,2022_Nov_21_1205,localizer,2021.1.3,60.02462209997374,
block_start,scenes,scenes080.bmp,,,,,0,16,16,16,,,,,,,,,,,,,,,,,,,,,,,,,,,,,,,,,,,,,,,,,,t,1.72637450000002,138.10372369999993,None,138.10372369999993,None,2022-11-21-12:08:03.321185,139.86384020000003,140.17073399999992,139.86384020000003,None,None,139.86384020000003,None,140.67044629999992,None,,,,21014,0001,2022_Nov_21_1205,localizer,2021.1.3,60.02462209997374,
block,scenes,scenes060.bmp,,,,,0,17,17,17,,,,,,,,,,,,,,,,,,,,,,,,,,,,,,,,,,,,,,,,,,None,,140.67044629999992,None,140.67044629999992,None,2022-11-21-12:08:04.139873,140.68348400000002,140.98969550000004,140.68348400000002,None,None,140.68348400000002,None,141.48687260000003,None,,,,21014,0001,2022_Nov_21_1205,localizer,2021.1.3,60.02462209997374,
block,scenes,scenes079.bmp,,,,,0,18,18,18,,,,,,,,,,,,,,,,,,,,,,,,,,,,,,,,,,,,,,,,,,None,,141.48687260000003,None,141.48687260000003,None,2022-11-21-12:08:04.956345,141.4977126,141.80409870000005,141.4977126,None,None,141.4977126,None,142.3032670999999,None,,,,21014,0001,2022_Nov_21_1205,localizer,2021.1.3,60.02462209997374,
block,scenes,scenes012.bmp,,,,,0,19,19,19,,,,,,,,,,,,,,,,,,,,,,,,,,,,,,,,,,,,,,,,,,None,,142.3032670999999,None,142.3032670999999,None,2022-11-21-12:08:05.772774,142.3117188,142.62130910000008,142.3117188,None,None,142.3117188,None,143.12737789999989,None,,,,21014,0001,2022_Nov_21_1205,localizer,2021.1.3,60.02462209997374,
block,scenes,scenes016.bmp,,,,,0,20,20,20,,,,,,,,,,,,,,,,,,,,,,,,,,,,,,,,,,,,,,,,,,None,,143.12737789999989,None,143.12737789999989,None,2022-11-21-12:08:06.601709,143.1527009,143.4545213,143.1527009,None,None,143.1527009,None,143.94330100000008,None,,,,21014,0001,2022_Nov_21_1205,localizer,2021.1.3,60.02462209997374,
block,scenes,scenes088.bmp,,,,,0,21,21,21,,,,,,,,,,,,,,,,,,,,,,,,,,,,,,,,,,,,,,,,,,None,,143.94330100000008,None,143.94330100000008,None,2022-11-21-12:08:07.416693,143.95970109999996,144.27136719999987,143.95970109999996,None,None,143.95970109999996,None,144.75428689999995,None,,,,21014,0001,2022_Nov_21_1205,localizer,2021.1.3,60.02462209997374,
block,scenes,scenes024.bmp,,,,,0,22,22,22,,,,,,,,,,,,,,,,,,,,,,,,,,,,,,,,,,,,,,,,,,None,,144.75428689999995,None,144.75428689999995,None,2022-11-21-12:08:08.224759,144.7673974999999,145.07013010000003,144.7673974999999,None,None,144.7673974999999,None,145.56986809999995,None,,,,21014,0001,2022_Nov_21_1205,localizer,2021.1.3,60.02462209997374,
block,scenes,scenes043.bmp,,,,,0,23,23,23,,,,,,,,,,,,,,,,,,,,,,,,,,,,,,,,,,,,,,,,,,None,,145.56986809999995,None,145.56986809999995,None,2022-11-21-12:08:09.039497,145.57979050000006,145.88671179999994,145.57979050000006,None,None,145.57979050000006,None,146.3880835999999,None,,,,21014,0001,2022_Nov_21_1205,localizer,2021.1.3,60.02462209997374,
block,scenes,scenes069.bmp,,,,,0,24,24,24,,,,,,,,,,,,,,,,,,,,,,,,,,,,,,,,,,,,,,,,,,None,,146.3880835999999,None,146.3880835999999,None,2022-11-21-12:08:09.859565,146.40062439999986,146.70380799999987,146.40062439999986,None,None,146.40062439999986,None,147.20471989999993,None,,,,21014,0001,2022_Nov_21_1205,localizer,2021.1.3,60.02462209997374,
block,scenes,scenes027.bmp,,,,,0,25,25,25,,,,,,,,,,,,,,,,,,,,,,,,,,,,,,,,,,,,,,,,,,None,,147.20471989999993,None,147.20471989999993,None,2022-11-21-12:08:10.675383,147.2189646999999,147.52067049999994,147.2189646999999,None,None,147.2189646999999,None,148.02079699999996,None,,,,21014,0001,2022_Nov_21_1205,localizer,2021.1.3,60.02462209997374,
block,scenes,scenes034.bmp,,,,,0,26,26,26,,,,,,,,,,,,,,,,,,,,,,,,,,,,,,,,,,,,,,,,,,None,,148.02079699999996,None,148.02079699999996,None,2022-11-21-12:08:11.491497,148.0327031999999,148.33736280000005,148.0327031999999,None,None,148.0327031999999,None,148.83721799999995,None,,,,21014,0001,2022_Nov_21_1205,localizer,2021.1.3,60.02462209997374,
block,scenes,scenes033.bmp,,,,,0,27,27,27,,,,,,,,,,,,,,,,,,,,,,,,,,,,,,,,,,,,,,,,,,None,,148.83721799999995,None,148.83721799999995,None,2022-11-21-12:08:12.306959,148.84815220000007,149.15434119999998,148.84815220000007,None,None,148.84815220000007,None,149.6540885,None,,,,21014,0001,2022_Nov_21_1205,localizer,2021.1.3,60.02462209997374,
block,scenes,scenes084.bmp,,,,,0,28,28,28,,,,,,,,,,,,,,,,,,,,,,,,,,,,,,,,,,,,,,,,,,None,,149.6540885,None,149.6540885,None,2022-11-21-12:08:13.123731,149.66522399999997,149.97061300000007,149.66522399999997,None,None,149.66522399999997,None,150.47007960000002,None,,,,21014,0001,2022_Nov_21_1205,localizer,2021.1.3,60.02462209997374,
block,scenes,scenes083.bmp,,,,,0,29,29,29,,,,,,,,,,,,,,,,,,,,,,,,,,,,,,,,,,,,,,,,,,None,,150.47007960000002,None,150.47007960000002,None,2022-11-21-12:08:13.939885,150.4767756,150.78735319999998,150.4767756,None,None,150.4767756,None,151.28716689999993,None,,,,21014,0001,2022_Nov_21_1205,localizer,2021.1.3,60.02462209997374,
block_end,scenes,scenes031.bmp,,,,,0,30,30,30,,,,,,,,,,,,,,,,,,,,,,,,,,,,,,,,,,,,,,,,,,None,,151.28716689999993,None,151.28716689999993,None,2022-11-21-12:08:14.757210,151.2986620999999,151.60403129999997,151.2986620999999,None,None,151.2986620999999,None,152.10303679999998,None,,,,21014,0001,2022_Nov_21_1205,localizer,2021.1.3,60.02462209997374,
block_start,scrambled,scrambled080.bmp,,,,,0,31,31,31,,,,,,,,,,,,,,,,,,,,,,,,,,,,,,,,,,,,,,,,,,t,1.7263980000000174,152.10379550000005,None,152.10379550000005,None,2022-11-21-12:08:17.323787,153.86435270000004,154.17072810000002,153.86435270000004,None,None,153.86435270000004,None,154.6704966999999,None,,,,21014,0001,2022_Nov_21_1205,localizer,2021.1.3,60.02462209997374,
block,scrambled,scrambled081.bmp,,,,,0,32,32,32,,,,,,,,,,,,,,,,,,,,,,,,,,,,,,,,,,,,,,,,,,None,,154.6704966999999,None,154.6704966999999,None,2022-11-21-12:08:18.140703,154.68624110000007,154.98796779999986,154.68624110000007,None,None,154.68624110000007,None,155.48674620000003,None,,,,21014,0001,2022_Nov_21_1205,localizer,2021.1.3,60.02462209997374,
block,scrambled,scrambled047.bmp,,,,,0,33,33,33,,,,,,,,,,,,,,,,,,,,,,,,,,,,,,,,,,,,,,,,,,None,,155.48674620000003,None,155.48674620000003,None,2022-11-21-12:08:18.956735,155.49668629999985,155.80762679999987,155.49668629999985,None,None,155.49668629999985,None,156.30380139999994,None,,,,21014,0001,2022_Nov_21_1205,localizer,2021.1.3,60.02462209997374,
block,scrambled,scrambled049.bmp,,,,,0,34,34,34,,,,,,,,,,,,,,,,,,,,,,,,,,,,,,,,,,,,,,,,,,None,,156.30380139999994,None,156.30380139999994,None,2022-11-21-12:08:19.773963,156.315248,156.6206054999999,156.315248,None,None,156.315248,None,157.12004099999996,None,,,,21014,0001,2022_Nov_21_1205,localizer,2021.1.3,60.02462209997374,
block,scrambled,scrambled035.bmp,,,,,0,35,35,35,,,,,,,,,,,,,,,,,,,,,,,,,,,,,,,,,,,,,,,,,,None,,157.12004099999996,None,157.12004099999996,None,2022-11-21-12:08:20.590091,157.12882890000003,157.43716519999987,157.12882890000003,None,None,157.12882890000003,None,157.9372689,None,,,,21014,0001,2022_Nov_21_1205,localizer,2021.1.3,60.02462209997374,
block,scrambled,scrambled011.bmp,,,,,0,36,36,36,,,,,,,,,,,,,,,,,,,,,,,,,,,,,,,,,,,,,,,,,,None,,157.9372689,None,157.9372689,None,2022-11-21-12:08:21.407309,157.94879609999987,158.2541207999999,157.94879609999987,None,None,157.94879609999987,None,158.75376599999987,None,,,,21014,0001,2022_Nov_21_1205,localizer,2021.1.3,60.02462209997374,
block,scrambled,scrambled078.bmp,,,,,0,37,37,37,,,,,,,,,,,,,,,,,,,,,,,,,,,,,,,,,,,,,,,,,,None,,158.75376599999987,None,158.75376599999987,None,2022-11-21-12:08:22.224434,158.76515529999995,159.07094629999995,158.76515529999995,None,None,158.76515529999995,None,159.570397,None,,,,21014,0001,2022_Nov_21_1205,localizer,2021.1.3,60.02462209997374,
block,scrambled,scrambled021.bmp,,,,,0,38,38,38,,,,,,,,,,,,,,,,,,,,,,,,,,,,,,,,,,,,,,,,,,None,,159.570397,None,159.570397,None,2022-11-21-12:08:23.040543,159.58168510000007,159.88743669999997,159.58168510000007,None,None,159.58168510000007,None,160.38709320000004,None,,,,21014,0001,2022_Nov_21_1205,localizer,2021.1.3,60.02462209997374,
block,scrambled,scrambled019.bmp,,,,,0,39,39,39,,,,,,,,,,,,,,,,,,,,,,,,,,,,,,,,,,,,,,,,,,None,,160.38709320000004,None,160.38709320000004,None,2022-11-21-12:08:23.857256,160.39775159999988,160.70417929999996,160.39775159999988,None,None,160.39775159999988,None,161.20353059999985,None,,,,21014,0001,2022_Nov_21_1205,localizer,2021.1.3,60.02462209997374,
block,scrambled,scrambled065.bmp,,,,,0,40,40,40,,,,,,,,,,,,,,,,,,,,,,,,,,,,,,,,,,,,,,,,,,None,,161.20353059999985,None,161.20353059999985,None,2022-11-21-12:08:24.673729,161.21238570000003,161.5205256999999,161.21238570000003,None,None,161.21238570000003,None,162.0208991,None,,,,21014,0001,2022_Nov_21_1205,localizer,2021.1.3,60.02462209997374,
block,scrambled,scrambled012.bmp,,,,,0,41,41,41,,,,,,,,,,,,,,,,,,,,,,,,,,,,,,,,,,,,,,,,,,None,,162.0208991,None,162.0208991,None,2022-11-21-12:08:25.492108,162.03316200000006,162.33768999999995,162.03316200000006,None,None,162.03316200000006,None,162.83747139999997,None,,,,21014,0001,2022_Nov_21_1205,localizer,2021.1.3,60.02462209997374,
block,scrambled,scrambled071.bmp,,,,,0,42,42,42,,,,,,,,,,,,,,,,,,,,,,,,,,,,,,,,,,,,,,,,,,None,,162.83747139999997,None,162.83747139999997,None,2022-11-21-12:08:26.307921,162.8486426999999,163.1546631,162.8486426999999,None,None,162.8486426999999,None,163.6534256999999,None,,,,21014,0001,2022_Nov_21_1205,localizer,2021.1.3,60.02462209997374,
block,scrambled,scrambled030.bmp,,,,,0,43,43,43,,,,,,,,,,,,,,,,,,,,,,,,,,,,,,,,,,,,,,,,,,None,,163.6534256999999,None,163.6534256999999,None,2022-11-21-12:08:27.123709,163.66371960000004,163.97093919999986,163.66371960000004,None,None,163.66371960000004,None,164.47073089999986,None,,,,21014,0001,2022_Nov_21_1205,localizer,2021.1.3,60.02462209997374,
block,scrambled,scrambled013.bmp,,,,,0,44,44,44,,,,,,,,,,,,,,,,,,,,,,,,,,,,,,,,,,,,,,,,,,None,,164.47073089999986,None,164.47073089999986,None,2022-11-21-12:08:27.941252,164.48192349999988,164.78736420000007,164.48192349999988,None,None,164.48192349999988,None,165.2870435999999,None,,,,21014,0001,2022_Nov_21_1205,localizer,2021.1.3,60.02462209997374,
block_end,scrambled,scrambled063.bmp,,,,,0,45,45,45,,,,,,,,,,,,,,,,,,,,,,,,,,,,,,,,,,,,,,,,,,None,,165.2870435999999,None,165.2870435999999,None,2022-11-21-12:08:28.757380,165.29765029999987,165.60390799999993,165.29765029999987,None,None,165.29765029999987,None,166.10413709999995,None,,,,21014,0001,2022_Nov_21_1205,localizer,2021.1.3,60.02462209997374,
block_start,objects,objects034.bmp,,,,,0,46,46,46,,,,,,,,,,,,,,,,,,,,,,,,,,,,,,,,,,,,,,,,,,t,1.725446599999941,166.10469550000005,None,166.10469550000005,None,2022-11-21-12:08:31.322525,167.86415729999987,168.1711907,167.86415729999987,None,None,167.86415729999987,None,168.67081489999993,None,,,,21014,0001,2022_Nov_21_1205,localizer,2021.1.3,60.02462209997374,
block,objects,objects002.bmp,,,,,0,47,47,47,,,,,,,,,,,,,,,,,,,,,,,,,,,,,,,,,,,,,,,,,,None,,168.67081489999993,None,168.67081489999993,None,2022-11-21-12:08:32.141269,168.68290439999998,168.9875538,168.68290439999998,None,None,168.68290439999998,None,169.48721689999985,None,,,,21014,0001,2022_Nov_21_1205,localizer,2021.1.3,60.02462209997374,
block,objects,objects065.bmp,,,,,0,48,48,48,,,,,,,,,,,,,,,,,,,,,,,,,,,,,,,,,,,,,,,,,,None,,169.48721689999985,None,169.48721689999985,None,2022-11-21-12:08:32.957925,169.49519900000007,169.8044168,169.49519900000007,None,None,169.49519900000007,None,170.30418719999994,None,,,,21014,0001,2022_Nov_21_1205,localizer,2021.1.3,60.02462209997374,
block,objects,objects044.bmp,,,,,0,49,49,49,,,,,,,,,,,,,,,,,,,,,,,,,,,,,,,,,,,,,,,,,,None,,170.30418719999994,None,170.30418719999994,None,2022-11-21-12:08:33.775698,170.31610220000005,170.62129990000005,170.31610220000005,None,None,170.31610220000005,None,171.12075450000003,None,,,,21014,0001,2022_Nov_21_1205,localizer,2021.1.3,60.02462209997374,
block,objects,objects073.bmp,,,,,0,50,50,50,,,,,,,,,,,,,,,,,,,,,,,,,,,,,,,,,,,,,,,,,,None,,171.12075450000003,None,171.12075450000003,None,2022-11-21-12:08:34.591498,171.13199700000007,171.43733899999995,171.13199700000007,None,None,171.13199700000007,None,171.93736760000007,None,,,,21014,0001,2022_Nov_21_1205,localizer,2021.1.3,60.02462209997374,
block,objects,objects012.bmp,,,,,0,51,51,51,,,,,,,,,,,,,,,,,,,,,,,,,,,,,,,,,,,,,,,,,,None,,171.93736760000007,None,171.93736760000007,None,2022-11-21-12:08:35.407947,171.94999900000005,172.2544549999999,171.94999900000005,None,None,171.94999900000005,None,172.75362019999994,None,,,,21014,0001,2022_Nov_21_1205,localizer,2021.1.3,60.02462209997374,
block,objects,objects033.bmp,,,,,0,52,52,52,,,,,,,,,,,,,,,,,,,,,,,,,,,,,,,,,,,,,,,,,,None,,172.75362019999994,None,172.75362019999994,None,2022-11-21-12:08:36.224231,172.7638765999999,173.07092309999996,172.7638765999999,None,None,172.7638765999999,None,173.57036520000003,None,,,,21014,0001,2022_Nov_21_1205,localizer,2021.1.3,60.02462209997374,
block,objects,objects003.bmp,,,,,0,53,53,53,,,,,,,,,,,,,,,,,,,,,,,,,,,,,,,,,,,,,,,,,,None,,173.57036520000003,None,173.57036520000003,None,2022-11-21-12:08:37.040009,173.5752116,173.88767169999994,173.5752116,None,None,173.5752116,None,174.38714899999997,None,,,,21014,0001,2022_Nov_21_1205,localizer,2021.1.3,60.02462209997374,
block,objects,objects008.bmp,,,,,0,54,54,54,,,,,,,,,,,,,,,,,,,,,,,,,,,,,,,,,,,,,,,,,,None,,174.38714899999997,None,174.38714899999997,None,2022-11-21-12:08:37.857819,174.39851770000007,174.70460089999995,174.39851770000007,None,None,174.39851770000007,None,175.20368480000008,None,,,,21014,0001,2022_Nov_21_1205,localizer,2021.1.3,60.02462209997374,
block,objects,objects019.bmp,,,,,0,55,55,55,,,,,,,,,,,,,,,,,,,,,,,,,,,,,,,,,,,,,,,,,,None,,175.20368480000008,None,175.20368480000008,None,2022-11-21-12:08:38.674370,175.21443809999994,175.52060019999988,175.21443809999994,None,None,175.21443809999994,None,176.02075870000004,None,,,,21014,0001,2022_Nov_21_1205,localizer,2021.1.3,60.02462209997374,
block,objects,objects085.bmp,,,,,0,56,56,56,,,,,,,,,,,,,,,,,,,,,,,,,,,,,,,,,,,,,,,,,,None,,176.02075870000004,None,176.02075870000004,None,2022-11-21-12:08:39.491707,176.03247249999993,176.3374983,176.03247249999993,None,None,176.03247249999993,None,176.8370172999999,None,,,,21014,0001,2022_Nov_21_1205,localizer,2021.1.3,60.02462209997374,
block,objects,objects051.bmp,,,,,0,57,57,57,,,,,,,,,,,,,,,,,,,,,,,,,,,,,,,,,,,,,,,,,,None,,176.8370172999999,None,176.8370172999999,None,2022-11-21-12:08:40.307775,176.8467526999999,177.15408390000005,176.8467526999999,None,None,176.8467526999999,None,177.65495059999995,None,,,,21014,0001,2022_Nov_21_1205,localizer,2021.1.3,60.02462209997374,
block,objects,objects049.bmp,,,,,0,58,58,58,,,,,,,,,,,,,,,,,,,,,,,,,,,,,,,,,,,,,,,,,,None,,177.65495059999995,None,177.65495059999995,None,2022-11-21-12:08:41.127905,177.66513939999993,177.97083170000008,177.66513939999993,None,None,177.66513939999993,None,178.4708334,None,,,,21014,0001,2022_Nov_21_1205,localizer,2021.1.3,60.02462209997374,
block,objects,objects071.bmp,,,,,0,59,59,59,,,,,,,,,,,,,,,,,,,,,,,,,,,,,,,,,,,,,,,,,,None,,178.4708334,None,178.4708334,None,2022-11-21-12:08:41.941840,178.4822845,178.7874868,178.4822845,None,None,178.4822845,None,179.28714109999993,None,,,,21014,0001,2022_Nov_21_1205,localizer,2021.1.3,60.02462209997374,
block_end,objects,objects018.bmp,,,,,0,60,60,60,,,,,,,,,,,,,,,,,,,,,,,,,,,,,,,,,,,,,,,,,,None,,179.28714109999993,None,179.28714109999993,None,2022-11-21-12:08:42.757990,179.29779539999993,179.60669100000007,179.29779539999993,None,None,179.29779539999993,None,180.1039586,None,,,,21014,0001,2022_Nov_21_1205,localizer,2021.1.3,60.02462209997374,
block_start,scrambled,scrambled084.bmp,,,,,0,61,61,61,,,,,,,,,,,,,,,,,,,,,,,,,,,,,,,,,,,,,,,,,,t,1.719373399999995,180.11083180000003,None,180.11083180000003,None,2022-11-21-12:08:45.323803,181.86375809999993,182.17073169999992,181.86375809999993,None,None,181.86375809999993,None,182.6705986,None,,,,21014,0001,2022_Nov_21_1205,localizer,2021.1.3,60.02462209997374,
block,scrambled,scrambled015.bmp,,,,,0,62,62,62,,,,,,,,,,,,,,,,,,,,,,,,,,,,,,,,,,,,,,,,,,None,,182.6705986,None,182.6705986,None,2022-11-21-12:08:46.141718,182.68108870000003,182.98763829999996,182.68108870000003,None,None,182.68108870000003,None,183.4875095999999,None,,,,21014,0001,2022_Nov_21_1205,localizer,2021.1.3,60.02462209997374,
block,scrambled,scrambled038.bmp,,,,,0,63,63,63,,,,,,,,,,,,,,,,,,,,,,,,,,,,,,,,,,,,,,,,,,None,,183.4875095999999,None,183.4875095999999,None,2022-11-21-12:08:46.958695,183.49973620000003,183.80450519999988,183.49973620000003,None,None,183.49973620000003,None,184.30406739999995,None,,,,21014,0001,2022_Nov_21_1205,localizer,2021.1.3,60.02462209997374,
block,scrambled,scrambled083.bmp,,,,,0,64,64,64,,,,,,,,,,,,,,,,,,,,,,,,,,,,,,,,,,,,,,,,,,None,,184.30406739999995,None,184.30406739999995,None,2022-11-21-12:08:47.775301,184.31553810000003,184.62091939999993,184.31553810000003,None,None,184.31553810000003,None,185.12762619999995,None,,,,21014,0001,2022_Nov_21_1205,localizer,2021.1.3,60.02462209997374,
block,scrambled,scrambled047.bmp,,,,,0,65,65,65,,,,,,,,,,,,,,,,,,,,,,,,,,,,,,,,,,,,,,,,,,None,,185.12762619999995,None,185.12762619999995,None,2022-11-21-12:08:48.603526,185.13327820000006,185.43799339999998,185.13327820000006,None,y,185.13327820000006,None,185.93660589999996,None,0.6757632000001195,,,21014,0001,2022_Nov_21_1205,localizer,2021.1.3,60.02462209997374,
block,scrambled,scrambled080.bmp,,,,,0,66,66,66,,,,,,,,,,,,,,,,,,,,,,,,,,,,,,,,,,,,,,,,,,None,,185.93660589999996,None,185.93660589999996,None,2022-11-21-12:08:49.407701,185.93858869999997,186.25464079999995,185.93858869999997,None,None,185.93858869999997,None,186.75433690000006,None,,,,21014,0001,2022_Nov_21_1205,localizer,2021.1.3,60.02462209997374,
block,scrambled,scrambled023.bmp,,,,,0,67,67,67,,,,,,,,,,,,,,,,,,,,,,,,,,,,,,,,,,,,,,,,,,None,,186.75433690000006,None,186.75433690000006,None,2022-11-21-12:08:50.225645,186.76564109999993,187.0706558999999,186.76564109999993,None,None,186.76564109999993,None,187.5712319,None,,,,21014,0001,2022_Nov_21_1205,localizer,2021.1.3,60.02462209997374,
block,scrambled,scrambled039.bmp,,,,,0,68,68,68,,,,,,,,,,,,,,,,,,,,,,,,,,,,,,,,,,,,,,,,,,None,,187.5712319,None,187.5712319,None,2022-11-21-12:08:51.043247,187.58352709999997,187.88801090000004,187.58352709999997,None,None,187.58352709999997,None,188.38747330000007,None,,,,21014,0001,2022_Nov_21_1205,localizer,2021.1.3,60.02462209997374,
block,scrambled,scrambled024.bmp,,,,,0,69,69,69,,,,,,,,,,,,,,,,,,,,,,,,,,,,,,,,,,,,,,,,,,None,,188.38747330000007,None,188.38747330000007,None,2022-11-21-12:08:51.858855,188.39870510000003,188.704607,188.39870510000003,None,None,188.39870510000003,None,189.20350390000004,None,,,,21014,0001,2022_Nov_21_1205,localizer,2021.1.3,60.02462209997374,
block,scrambled,scrambled051.bmp,,,,,0,70,70,70,,,,,,,,,,,,,,,,,,,,,,,,,,,,,,,,,,,,,,,,,,None,,189.20350390000004,None,189.20350390000004,None,2022-11-21-12:08:52.673724,189.21219659999986,189.52095789999987,189.21219659999986,None,None,189.21219659999986,None,190.02022130000006,None,,,,21014,0001,2022_Nov_21_1205,localizer,2021.1.3,60.02462209997374,
block,scrambled,scrambled043.bmp,,,,,0,71,71,71,,,,,,,,,,,,,,,,,,,,,,,,,,,,,,,,,,,,,,,,,,None,,190.02022130000006,None,190.02022130000006,None,2022-11-21-12:08:53.490470,190.02927779999993,190.33737800000006,190.02927779999993,None,None,190.02927779999993,None,190.8373153999999,None,,,,21014,0001,2022_Nov_21_1205,localizer,2021.1.3,60.02462209997374,
block,scrambled,scrambled027.bmp,,,,,0,72,72,72,,,,,,,,,,,,,,,,,,,,,,,,,,,,,,,,,,,,,,,,,,None,,190.8373153999999,None,190.8373153999999,None,2022-11-21-12:08:54.308581,190.84858829999996,191.1541931999999,190.84858829999996,None,None,190.84858829999996,None,191.65419479999997,None,,,,21014,0001,2022_Nov_21_1205,localizer,2021.1.3,60.02462209997374,
block,scrambled,scrambled088.bmp,,,,,0,73,73,73,,,,,,,,,,,,,,,,,,,,,,,,,,,,,,,,,,,,,,,,,,None,,191.65419479999997,None,191.65419479999997,None,2022-11-21-12:08:55.125695,191.66541859999995,191.97078449999992,191.66541859999995,None,None,191.66541859999995,None,192.47099740000004,None,,,,21014,0001,2022_Nov_21_1205,localizer,2021.1.3,60.02462209997374,
block,scrambled,scrambled066.bmp,,,,,0,74,74,74,,,,,,,,,,,,,,,,,,,,,,,,,,,,,,,,,,,,,,,,,,None,,192.47099740000004,None,192.47099740000004,None,2022-11-21-12:08:55.943312,192.48218869999994,192.7876169,192.48218869999994,None,None,192.48218869999994,None,193.2873593,None,,,,21014,0001,2022_Nov_21_1205,localizer,2021.1.3,60.02462209997374,
block_end,scrambled,scrambled066.bmp,,,,,0,75,75,75,,,,,,,,,,,,,,,,,,,,,,,,,,,,,,,,,,,,,,,,,,None,,193.2873593,None,193.2873593,None,2022-11-21-12:08:56.758502,193.28856480000002,193.5936481,193.28856480000002,None,y,193.28856480000002,None,194.10381869999998,None,0.3905056000000968,,,21014,0001,2022_Nov_21_1205,localizer,2021.1.3,60.02462209997374,
null_block,null_block,null_block.bmp,,,,,0,76,76,76,,,,,,,,,,,,,,,,,,,,,,,,,,,,,,,,,,,,,,,,,,t,1.72615380000002,194.1040718999999,None,194.1040718999999,None,2022-11-21-12:08:59.324413,195.8539621999999,None,195.8539621999999,None,None,195.8539621999999,None,195.85695049999993,None,,,,21014,0001,2022_Nov_21_1205,localizer,2021.1.3,60.02462209997374,
block_start,faces,faces036.bmp,,,,,0,77,77,77,,,,,,,,,,,,,,,,,,,,,,,,,,,,,,,,,,,,,,,,,,t,1.959370300000046,207.87081669999986,None,207.87081669999986,None,2022-11-21-12:09:13.328715,209.86327470000003,210.17093220000004,209.86327470000003,None,None,209.86327470000003,None,210.6710908999999,None,,,,21014,0001,2022_Nov_21_1205,localizer,2021.1.3,60.02462209997374,
block,faces,faces030.bmp,,,,,0,78,78,78,,,,,,,,,,,,,,,,,,,,,,,,,,,,,,,,,,,,,,,,,,None,,210.6710908999999,None,210.6710908999999,None,2022-11-21-12:09:14.143259,210.67229499999996,210.98778000000004,210.67229499999996,None,None,210.67229499999996,None,211.47131889999997,None,,,,21014,0001,2022_Nov_21_1205,localizer,2021.1.3,60.02462209997374,
block,faces,faces044.bmp,,,,,0,79,79,79,,,,,,,,,,,,,,,,,,,,,,,,,,,,,,,,,,,,,,,,,,None,,211.47131889999997,None,211.47131889999997,None,2022-11-21-12:09:14.946500,211.48660660000007,211.78782420000005,211.48660660000007,211.48660660000007,None,211.48660660000007,211.48660660000007,212.2877254999999,None,,,,21014,0001,2022_Nov_21_1205,localizer,2021.1.3,60.02462209997374,
block,faces,faces006.bmp,,,,,0,80,80,80,,,,,,,,,,,,,,,,,,,,,,,,,,,,,,,,,,,,,,,,,,None,,212.2877254999999,None,212.2877254999999,None,2022-11-21-12:09:15.760372,212.29892259999986,212.6046023,212.29892259999986,None,None,212.29892259999986,None,213.1034553,None,,,,21014,0001,2022_Nov_21_1205,localizer,2021.1.3,60.02462209997374,
block,faces,faces016.bmp,,,,,0,81,81,81,,,,,,,,,,,,,,,,,,,,,,,,,,,,,,,,,,,,,,,,,,None,,213.1034553,None,213.1034553,None,2022-11-21-12:09:16.574539,213.1091318,213.42112009999994,213.1091318,None,None,213.1091318,None,213.92118080000006,None,,,,21014,0001,2022_Nov_21_1205,localizer,2021.1.3,60.02462209997374,
block,faces,faces045.bmp,,,,,0,82,82,82,,,,,,,,,,,,,,,,,,,,,,,,,,,,,,,,,,,,,,,,,,None,,213.92118080000006,None,213.92118080000006,None,2022-11-21-12:09:17.394276,213.93479839999998,214.23833209999987,213.93479839999998,None,None,213.93479839999998,None,214.73802069999994,None,,,,21014,0001,2022_Nov_21_1205,localizer,2021.1.3,60.02462209997374,
block,faces,faces061.bmp,,,,,0,83,83,83,,,,,,,,,,,,,,,,,,,,,,,,,,,,,,,,,,,,,,,,,,None,,214.73802069999994,None,214.73802069999994,None,2022-11-21-12:09:18.211287,214.75042459999997,215.05455670000003,214.75042459999997,None,None,214.75042459999997,None,215.55463590000005,None,,,,21014,0001,2022_Nov_21_1205,localizer,2021.1.3,60.02462209997374,
block,faces,faces063.bmp,,,,,0,84,84,84,,,,,,,,,,,,,,,,,,,,,,,,,,,,,,,,,,,,,,,,,,None,,215.55463590000005,None,215.55463590000005,None,2022-11-21-12:09:19.028145,215.56800669999996,215.8707086999999,215.56800669999996,None,None,215.56800669999996,None,216.3718379,None,,,,21014,0001,2022_Nov_21_1205,localizer,2021.1.3,60.02462209997374,
block,faces,faces050.bmp,,,,,0,85,85,85,,,,,,,,,,,,,,,,,,,,,,,,,,,,,,,,,,,,,,,,,,None,,216.3718379,None,216.3718379,None,2022-11-21-12:09:19.845956,216.38657460000002,216.68815080000002,216.38657460000002,None,None,216.38657460000002,None,217.19067610000008,None,,,,21014,0001,2022_Nov_21_1205,localizer,2021.1.3,60.02462209997374,
block,faces,faces038.bmp,,,,,0,86,86,86,,,,,,,,,,,,,,,,,,,,,,,,,,,,,,,,,,,,,,,,,,None,,217.19067610000008,None,217.19067610000008,None,2022-11-21-12:09:20.666861,217.21299710000005,217.52143749999993,217.21299710000005,None,None,217.21299710000005,None,218.00449480000003,None,,,,21014,0001,2022_Nov_21_1205,localizer,2021.1.3,60.02462209997374,
block,faces,faces077.bmp,,,,,0,87,87,87,,,,,,,,,,,,,,,,,,,,,,,,,,,,,,,,,,,,,,,,,,None,,218.00449480000003,None,218.00449480000003,None,2022-11-21-12:09:21.477943,218.01779399999998,218.3212789999999,218.01779399999998,None,None,218.01779399999998,None,218.8210471999999,None,,,,21014,0001,2022_Nov_21_1205,localizer,2021.1.3,60.02462209997374,
block,faces,faces086.bmp,,,,,0,88,88,88,,,,,,,,,,,,,,,,,,,,,,,,,,,,,,,,,,,,,,,,,,None,,218.8210471999999,None,218.8210471999999,None,2022-11-21-12:09:22.293521,218.83332669999993,219.13999030000002,218.83332669999993,None,None,218.83332669999993,None,219.63800270000007,None,,,,21014,0001,2022_Nov_21_1205,localizer,2021.1.3,60.02462209997374,
block,faces,faces020.bmp,,,,,0,89,89,89,,,,,,,,,,,,,,,,,,,,,,,,,,,,,,,,,,,,,,,,,,None,,219.63800270000007,None,219.63800270000007,None,2022-11-21-12:09:23.111303,219.65017419999992,219.9543961999999,219.65017419999992,None,None,219.65017419999992,None,220.45451379999992,None,,,,21014,0001,2022_Nov_21_1205,localizer,2021.1.3,60.02462209997374,
block,faces,faces008.bmp,,,,,0,90,90,90,,,,,,,,,,,,,,,,,,,,,,,,,,,,,,,,,,,,,,,,,,None,,220.45451379999992,None,220.45451379999992,None,2022-11-21-12:09:23.928037,220.46784960000002,220.771529,220.46784960000002,None,None,220.46784960000002,None,221.27040619999985,None,,,,21014,0001,2022_Nov_21_1205,localizer,2021.1.3,60.02462209997374,
block_end,faces,faces066.bmp,,,,,0,91,91,91,,,,,,,,,,,,,,,,,,,,,,,,,,,,,,,,,,,,,,,,,,None,,221.27040619999985,None,221.27040619999985,None,2022-11-21-12:09:24.743014,221.28087479999988,221.58835659999988,221.28087479999988,None,None,221.28087479999988,None,222.08789039999994,None,,,,21014,0001,2022_Nov_21_1205,localizer,2021.1.3,60.02462209997374,
block_start,objects,objects034.bmp,,,,,0,92,92,92,,,,,,,,,,,,,,,,,,,,,,,,,,,,,,,,,,,,,,,,,,t,1.740946200000053,222.0883588999999,None,222.0883588999999,None,2022-11-21-12:09:27.328125,223.85625029999994,224.17092949999994,223.85625029999994,None,None,223.85625029999994,None,224.67090910000007,None,,,,21014,0001,2022_Nov_21_1205,localizer,2021.1.3,60.02462209997374,
block,objects,objects065.bmp,,,,,0,93,93,93,,,,,,,,,,,,,,,,,,,,,,,,,,,,,,,,,,,,,,,,,,None,,224.67090910000007,None,224.67090910000007,None,2022-11-21-12:09:28.143401,224.67215169999997,224.9881835,224.67215169999997,None,None,224.67215169999997,None,225.48775669999992,None,,,,21014,0001,2022_Nov_21_1205,localizer,2021.1.3,60.02462209997374,
block,objects,objects085.bmp,,,,,0,94,94,94,,,,,,,,,,,,,,,,,,,,,,,,,,,,,,,,,,,,,,,,,,None,,225.48775669999992,None,225.48775669999992,None,2022-11-21-12:09:28.960473,225.48895519999985,225.80435150000005,225.48895519999985,None,None,225.48895519999985,None,226.2884998,None,,,,21014,0001,2022_Nov_21_1205,localizer,2021.1.3,60.02462209997374,
block,objects,objects045.bmp,,,,,0,95,95,95,,,,,,,,,,,,,,,,,,,,,,,,,,,,,,,,,,,,,,,,,,None,,226.2884998,None,226.2884998,None,2022-11-21-12:09:29.765185,226.30148840000004,226.60465239999996,226.30148840000004,226.30148840000004,None,226.30148840000004,226.30148840000004,227.10415040000004,None,,,,21014,0001,2022_Nov_21_1205,localizer,2021.1.3,60.02462209997374,
block,objects,objects020.bmp,,,,,0,96,96,96,,,,,,,,,,,,,,,,,,,,,,,,,,,,,,,,,,,,,,,,,,None,,227.10415040000004,None,227.10415040000004,None,2022-11-21-12:09:30.575794,227.11064539999995,227.4215241999999,227.11064539999995,None,None,227.11064539999995,None,227.9210678,None,,,,21014,0001,2022_Nov_21_1205,localizer,2021.1.3,60.02462209997374,
block,objects,objects028.bmp,,,,,0,97,97,97,,,,,,,,,,,,,,,,,,,,,,,,,,,,,,,,,,,,,,,,,,None,,227.9210678,None,227.9210678,None,2022-11-21-12:09:31.393849,227.93231000000003,228.23792960000003,227.93231000000003,None,None,227.93231000000003,None,228.7374579999999,None,,,,21014,0001,2022_Nov_21_1205,localizer,2021.1.3,60.02462209997374,
block,objects,objects013.bmp,,,,,0,98,98,98,,,,,,,,,,,,,,,,,,,,,,,,,,,,,,,,,,,,,,,,,,None,,228.7374579999999,None,228.7374579999999,None,2022-11-21-12:09:32.210102,228.7438664,229.05512549999992,228.7438664,None,None,228.7438664,None,229.55523759999988,None,,,,21014,0001,2022_Nov_21_1205,localizer,2021.1.3,60.02462209997374,
block,objects,objects088.bmp,,,,,0,99,99,99,,,,,,,,,,,,,,,,,,,,,,,,,,,,,,,,,,,,,,,,,,None,,229.55523759999988,None,229.55523759999988,None,2022-11-21-12:09:33.029889,229.57014590000006,229.8714652,229.57014590000006,None,None,229.57014590000006,None,230.37183770000007,None,,,,21014,0001,2022_Nov_21_1205,localizer,2021.1.3,60.02462209997374,
block,objects,objects036.bmp,,,,,0,100,100,100,,,,,,,,,,,,,,,,,,,,,,,,,,,,,,,,,,,,,,,,,,None,,230.37183770000007,None,230.37183770000007,None,2022-11-21-12:09:33.845657,230.38488689999997,230.68805429999986,230.38488689999997,None,None,230.38488689999997,None,231.17710229999994,None,,,,21014,0001,2022_Nov_21_1205,localizer,2021.1.3,60.02462209997374,
block,objects,objects025.bmp,,,,,0,101,101,101,,,,,,,,,,,,,,,,,,,,,,,,,,,,,,,,,,,,,,,,,,None,,231.17710229999994,None,231.17710229999994,None,2022-11-21-12:09:34.653830,231.19236880000005,231.50512919999994,231.19236880000005,None,None,231.19236880000005,None,231.98787580000004,None,,,,21014,0001,2022_Nov_21_1205,localizer,2021.1.3,60.02462209997374,
block,objects,objects010.bmp,,,,,0,102,102,102,,,,,,,,,,,,,,,,,,,,,,,,,,,,,,,,,,,,,,,,,,None,,231.98787580000004,None,231.98787580000004,None,2022-11-21-12:09:35.460819,231.99903519999987,232.3044271,231.99903519999987,None,None,231.99903519999987,None,232.80443659999997,None,,,,21014,0001,2022_Nov_21_1205,localizer,2021.1.3,60.02462209997374,
block,objects,objects022.bmp,,,,,0,103,103,103,,,,,,,,,,,,,,,,,,,,,,,,,,,,,,,,,,,,,,,,,,None,,232.80443659999997,None,232.80443659999997,None,2022-11-21-12:09:36.277225,232.81559349999986,233.1210064999999,232.81559349999986,None,None,232.81559349999986,None,233.62072760000007,None,,,,21014,0001,2022_Nov_21_1205,localizer,2021.1.3,60.02462209997374,
block,objects,objects030.bmp,,,,,0,104,104,104,,,,,,,,,,,,,,,,,,,,,,,,,,,,,,,,,,,,,,,,,,None,,233.62072760000007,None,233.62072760000007,None,2022-11-21-12:09:37.093550,233.62747739999998,233.93786450000005,233.62747739999998,None,None,233.62747739999998,None,234.43852550000003,None,,,,21014,0001,2022_Nov_21_1205,localizer,2021.1.3,60.02462209997374,
block,objects,objects043.bmp,,,,,0,105,105,105,,,,,,,,,,,,,,,,,,,,,,,,,,,,,,,,,,,,,,,,,,None,,234.43852550000003,None,234.43852550000003,None,2022-11-21-12:09:37.912514,234.45336540000005,234.75411010000005,234.45336540000005,None,None,234.45336540000005,None,235.2541299,None,,,,21014,0001,2022_Nov_21_1205,localizer,2021.1.3,60.02462209997374,
block_end,objects,objects047.bmp,,,,,0,106,106,106,,,,,,,,,,,,,,,,,,,,,,,,,,,,,,,,,,,,,,,,,,None,,235.2541299,None,235.2541299,None,2022-11-21-12:09:38.727158,235.26409260000003,235.57151710000005,235.26409260000003,None,None,235.26409260000003,None,236.07149729999998,None,,,,21014,0001,2022_Nov_21_1205,localizer,2021.1.3,60.02462209997374,
block_start,scenes,scenes091.bmp,,,,,0,107,107,107,,,,,,,,,,,,,,,,,,,,,,,,,,,,,,,,,,,,,,,,,,t,1.7573684000001322,236.07176309999988,None,236.07176309999988,None,2022-11-21-12:09:41.329206,237.86949289999995,238.17188610000005,237.86949289999995,None,None,237.86949289999995,None,238.67151659999996,None,,,,21014,0001,2022_Nov_21_1205,localizer,2021.1.3,60.02462209997374,
block,scenes,scenes006.bmp,,,,,0,108,108,108,,,,,,,,,,,,,,,,,,,,,,,,,,,,,,,,,,,,,,,,,,None,,238.67151659999996,None,238.67151659999996,None,2022-11-21-12:09:42.146122,238.68465750000007,238.9897643999999,238.68465750000007,None,None,238.68465750000007,None,239.48827089999992,None,,,,21014,0001,2022_Nov_21_1205,localizer,2021.1.3,60.02462209997374,
block,scenes,scenes057.bmp,,,,,0,109,109,109,,,,,,,,,,,,,,,,,,,,,,,,,,,,,,,,,,,,,,,,,,None,,239.48827089999992,None,239.48827089999992,None,2022-11-21-12:09:42.963408,239.5014640999999,239.80498640000008,239.5014640999999,None,None,239.5014640999999,None,240.30463319999996,None,,,,21014,0001,2022_Nov_21_1205,localizer,2021.1.3,60.02462209997374,
block,scenes,scenes048.bmp,,,,,0,110,110,110,,,,,,,,,,,,,,,,,,,,,,,,,,,,,,,,,,,,,,,,,,None,,240.30463319999996,None,240.30463319999996,None,2022-11-21-12:09:43.777755,240.32091200000002,240.621403,240.32091200000002,None,None,240.32091200000002,None,241.12445110000004,None,,,,21014,0001,2022_Nov_21_1205,localizer,2021.1.3,60.02462209997374,
block,scenes,scenes017.bmp,,,,,0,111,111,111,,,,,,,,,,,,,,,,,,,,,,,,,,,,,,,,,,,,,,,,,,None,,241.12445110000004,None,241.12445110000004,None,2022-11-21-12:09:44.606023,241.1461521,241.45562459999985,241.1461521,None,None,241.1461521,None,241.93778920000005,None,,,,21014,0001,2022_Nov_21_1205,localizer,2021.1.3,60.02462209997374,
block,scenes,scenes052.bmp,,,,,0,112,112,112,,,,,,,,,,,,,,,,,,,,,,,,,,,,,,,,,,,,,,,,,,None,,241.93778920000005,None,241.93778920000005,None,2022-11-21-12:09:45.410903,241.9492695,242.25507119999986,241.9492695,None,None,241.9492695,None,242.75456289999994,None,,,,21014,0001,2022_Nov_21_1205,localizer,2021.1.3,60.02462209997374,
block,scenes,scenes080.bmp,,,,,0,113,113,113,,,,,,,,,,,,,,,,,,,,,,,,,,,,,,,,,,,,,,,,,,None,,242.75456289999994,None,242.75456289999994,None,2022-11-21-12:09:46.227908,242.75576799999988,243.0717125,242.75576799999988,None,None,242.75576799999988,None,243.57089129999991,None,,,,21014,0001,2022_Nov_21_1205,localizer,2021.1.3,60.02462209997374,
block,scenes,scenes071.bmp,,,,,0,114,114,114,,,,,,,,,,,,,,,,,,,,,,,,,,,,,,,,,,,,,,,,,,None,,243.57089129999991,None,243.57089129999991,None,2022-11-21-12:09:47.044072,243.58068049999986,243.88797319999992,243.58068049999986,None,None,243.58068049999986,None,244.3877005,None,,,,21014,0001,2022_Nov_21_1205,localizer,2021.1.3,60.02462209997374,
block,scenes,scenes054.bmp,,,,,0,115,115,115,,,,,,,,,,,,,,,,,,,,,,,,,,,,,,,,,,,,,,,,,,None,,244.3877005,None,244.3877005,None,2022-11-21-12:09:47.860911,244.39918529999989,244.70457139999996,244.39918529999989,None,None,244.39918529999989,None,245.20402389999987,None,,,,21014,0001,2022_Nov_21_1205,localizer,2021.1.3,60.02462209997374,
block,scenes,scenes033.bmp,,,,,0,116,116,116,,,,,,,,,,,,,,,,,,,,,,,,,,,,,,,,,,,,,,,,,,None,,245.20402389999987,None,245.20402389999987,None,2022-11-21-12:09:48.677268,245.20556950000002,245.50517320000006,245.20556950000002,None,None,245.20556950000002,None,246.02008949999987,None,,,,21014,0001,2022_Nov_21_1205,localizer,2021.1.3,60.02462209997374,
block,scenes,scenes051.bmp,,,,,0,117,117,117,,,,,,,,,,,,,,,,,,,,,,,,,,,,,,,,,,,,,,,,,,None,,246.02008949999987,None,246.02008949999987,None,2022-11-21-12:09:49.492592,246.03033330000005,246.33754629999987,246.03033330000005,None,None,246.03033330000005,None,246.83810709999995,None,,,,21014,0001,2022_Nov_21_1205,localizer,2021.1.3,60.02462209997374,
block,scenes,scenes062.bmp,,,,,0,118,118,118,,,,,,,,,,,,,,,,,,,,,,,,,,,,,,,,,,,,,,,,,,None,,246.83810709999995,None,246.83810709999995,None,2022-11-21-12:09:50.312393,246.84911490000002,247.15438469999992,246.84911490000002,None,None,246.84911490000002,None,247.65439640000005,None,,,,21014,0001,2022_Nov_21_1205,localizer,2021.1.3,60.02462209997374,
block,scenes,scenes008.bmp,,,,,0,119,119,119,,,,,,,,,,,,,,,,,,,,,,,,,,,,,,,,,,,,,,,,,,None,,247.65439640000005,None,247.65439640000005,None,2022-11-21-12:09:51.127724,247.6653748,247.97146599999985,247.6653748,None,None,247.6653748,None,248.47055370000004,None,,,,21014,0001,2022_Nov_21_1205,localizer,2021.1.3,60.02462209997374,
block,scenes,scenes004.bmp,,,,,0,120,120,120,,,,,,,,,,,,,,,,,,,,,,,,,,,,,,,,,,,,,,,,,,None,,248.47055370000004,None,248.47055370000004,None,2022-11-21-12:09:51.943915,248.48745640000004,248.78808779999997,248.48745640000004,None,None,248.48745640000004,None,249.2877056999999,None,,,,21014,0001,2022_Nov_21_1205,localizer,2021.1.3,60.02462209997374,
block_end,scenes,scenes023.bmp,,,,,0,121,121,121,,,,,,,,,,,,,,,,,,,,,,,,,,,,,,,,,,,,,,,,,,None,,249.2877056999999,None,249.2877056999999,None,2022-11-21-12:09:52.761304,249.29930869999987,249.60453210000003,249.29930869999987,None,None,249.29930869999987,None,250.1043605999999,None,,,,21014,0001,2022_Nov_21_1205,localizer,2021.1.3,60.02462209997374,
block_start,faces,faces040.bmp,,,,,0,122,122,122,,,,,,,,,,,,,,,,,,,,,,,,,,,,,,,,,,,,,,,,,,t,1.7209692999999788,250.10827259999985,None,250.10827259999985,None,2022-11-21-12:09:55.328083,251.86872660000006,252.17116629999998,251.86872660000006,None,None,251.86872660000006,None,252.67117880000006,None,,,,21014,0001,2022_Nov_21_1205,localizer,2021.1.3,60.02462209997374,
block,faces,faces038.bmp,,,,,0,123,123,123,,,,,,,,,,,,,,,,,,,,,,,,,,,,,,,,,,,,,,,,,,None,,252.67117880000006,None,252.67117880000006,None,2022-11-21-12:09:56.144688,252.6722309999999,252.9713241999999,252.6722309999999,None,None,252.6722309999999,None,253.4874716,None,,,,21014,0001,2022_Nov_21_1205,localizer,2021.1.3,60.02462209997374,
block,faces,faces074.bmp,,,,,0,124,124,124,,,,,,,,,,,,,,,,,,,,,,,,,,,,,,,,,,,,,,,,,,None,,253.4874716,None,253.4874716,None,2022-11-21-12:09:56.961012,253.4986616,253.80554330000007,253.4986616,None,None,253.4986616,None,254.3061868999999,None,,,,21014,0001,2022_Nov_21_1205,localizer,2021.1.3,60.02462209997374,
block,faces,faces031.bmp,,,,,0,125,125,125,,,,,,,,,,,,,,,,,,,,,,,,,,,,,,,,,,,,,,,,,,None,,254.3061868999999,None,254.3061868999999,None,2022-11-21-12:09:57.783806,254.32253149999985,254.63805379999997,254.32253149999985,None,None,254.32253149999985,None,255.1225594999999,None,,,,21014,0001,2022_Nov_21_1205,localizer,2021.1.3,60.02462209997374,
block,faces,faces056.bmp,,,,,0,126,126,126,,,,,,,,,,,,,,,,,,,,,,,,,,,,,,,,,,,,,,,,,,None,,255.1225594999999,None,255.1225594999999,None,2022-11-21-12:09:58.597147,255.13388859999998,255.43794339999988,255.13388859999998,None,None,255.13388859999998,None,255.937612,None,,,,21014,0001,2022_Nov_21_1205,localizer,2021.1.3,60.02462209997374,
block,faces,faces082.bmp,,,,,0,127,127,127,,,,,,,,,,,,,,,,,,,,,,,,,,,,,,,,,,,,,,,,,,None,,255.937612,None,255.937612,None,2022-11-21-12:09:59.411245,255.94951789999993,256.25462430000005,255.94951789999993,None,None,255.94951789999993,None,256.75484119999993,None,,,,21014,0001,2022_Nov_21_1205,localizer,2021.1.3,60.02462209997374,
block,faces,faces022.bmp,,,,,0,128,128,128,,,,,,,,,,,,,,,,,,,,,,,,,,,,,,,,,,,,,,,,,,None,,256.75484119999993,None,256.75484119999993,None,2022-11-21-12:10:00.229650,256.75759729999993,257.0717203999999,256.75759729999993,None,None,256.75759729999993,None,257.57037070000007,None,,,,21014,0001,2022_Nov_21_1205,localizer,2021.1.3,60.02462209997374,
block,faces,faces039.bmp,,,,,0,129,129,129,,,,,,,,,,,,,,,,,,,,,,,,,,,,,,,,,,,,,,,,,,None,,257.57037070000007,None,257.57037070000007,None,2022-11-21-12:10:01.043965,257.58062959999995,257.8880711999999,257.58062959999995,None,None,257.58062959999995,None,258.38779030000006,None,,,,21014,0001,2022_Nov_21_1205,localizer,2021.1.3,60.02462209997374,
block,faces,faces016.bmp,,,,,0,130,130,130,,,,,,,,,,,,,,,,,,,,,,,,,,,,,,,,,,,,,,,,,,None,,258.38779030000006,None,258.38779030000006,None,2022-11-21-12:10:01.862504,258.38924239999994,258.70466569999996,258.38924239999994,None,None,258.38924239999994,None,259.20416489999985,None,,,,21014,0001,2022_Nov_21_1205,localizer,2021.1.3,60.02462209997374,
block,faces,faces081.bmp,,,,,0,131,131,131,,,,,,,,,,,,,,,,,,,,,,,,,,,,,,,,,,,,,,,,,,None,,259.20416489999985,None,259.20416489999985,None,2022-11-21-12:10:02.677914,259.205681,259.5216316,259.205681,None,None,259.205681,None,260.0052503,None,,,,21014,0001,2022_Nov_21_1205,localizer,2021.1.3,60.02462209997374,
block,faces,faces004.bmp,,,,,0,132,132,132,,,,,,,,,,,,,,,,,,,,,,,,,,,,,,,,,,,,,,,,,,None,,260.0052503,None,260.0052503,None,2022-11-21-12:10:03.483194,260.02205530000003,260.3379541999999,260.02205530000003,260.02205530000003,None,260.02205530000003,260.02205530000003,260.8217502999999,None,,,,21014,0001,2022_Nov_21_1205,localizer,2021.1.3,60.02462209997374,
block,faces,faces028.bmp,,,,,0,133,133,133,,,,,,,,,,,,,,,,,,,,,,,,,,,,,,,,,,,,,,,,,,None,,260.8217502999999,None,260.8217502999999,None,2022-11-21-12:10:04.296544,260.82419249999987,261.138689,260.82419249999987,None,None,260.82419249999987,None,261.6381425,None,,,,21014,0001,2022_Nov_21_1205,localizer,2021.1.3,60.02462209997374,
block,faces,faces010.bmp,,,,,0,134,134,134,,,,,,,,,,,,,,,,,,,,,,,,,,,,,,,,,,,,,,,,,,None,,261.6381425,None,261.6381425,None,2022-11-21-12:10:05.112970,261.65047289999995,261.9545864999999,261.65047289999995,None,None,261.65047289999995,None,262.4544156,None,,,,21014,0001,2022_Nov_21_1205,localizer,2021.1.3,60.02462209997374,
block,faces,faces025.bmp,,,,,0,135,135,135,,,,,,,,,,,,,,,,,,,,,,,,,,,,,,,,,,,,,,,,,,None,,262.4544156,None,262.4544156,None,2022-11-21-12:10:05.928483,262.4557323,262.77168059999997,262.4557323,None,None,262.4557323,None,263.2709306,None,,,,21014,0001,2022_Nov_21_1205,localizer,2021.1.3,60.02462209997374,
block_end,faces,faces015.bmp,,,,,0,136,136,136,,,,,,,,,,,,,,,,,,,,,,,,,,,,,,,,,,,,,,,,,,None,,263.2709306,None,263.2709306,None,2022-11-21-12:10:06.744829,263.28669409999986,263.588615,263.28669409999986,None,None,263.28669409999986,None,264.08804879999985,None,,,,21014,0001,2022_Nov_21_1205,localizer,2021.1.3,60.02462209997374,
null_block,null_block,null_block.bmp,,,,,0,137,137,137,,,,,,,,,,,,,,,,,,,,,,,,,,,,,,,,,,,,,,,,,,t,1.7405704000000242,264.08850199999995,None,264.08850199999995,None,2022-11-21-12:10:09.327257,265.85408109999986,None,265.85408109999986,None,None,265.85408109999986,None,265.8575419,None,,,,21014,0001,2022_Nov_21_1205,localizer,2021.1.3,60.02462209997374,
block_start,scenes,scenes059.bmp,,,,,0,138,138,138,,,,,,,,,,,,,,,,,,,,,,,,,,,,,,,,,,,,,,,,,,t,1.9568571999998312,277.8723782999999,None,277.8723782999999,None,2022-11-21-12:10:23.329803,279.86620830000004,280.1714822,279.86620830000004,None,None,279.86620830000004,None,280.6714855999999,None,,,,21014,0001,2022_Nov_21_1205,localizer,2021.1.3,60.02462209997374,
block,scenes,scenes068.bmp,,,,,0,139,139,139,,,,,,,,,,,,,,,,,,,,,,,,,,,,,,,,,,,,,,,,,,None,,280.6714855999999,None,280.6714855999999,None,2022-11-21-12:10:24.147206,280.6839954999999,280.9880589999999,280.6839954999999,None,None,280.6839954999999,None,281.4882157,None,,,,21014,0001,2022_Nov_21_1205,localizer,2021.1.3,60.02462209997374,
block,scenes,scenes039.bmp,,,,,0,140,140,140,,,,,,,,,,,,,,,,,,,,,,,,,,,,,,,,,,,,,,,,,,None,,281.4882157,None,281.4882157,None,2022-11-21-12:10:24.964420,281.50035059999993,281.80487729999993,281.50035059999993,None,None,281.50035059999993,None,282.30470500000007,None,,,,21014,0001,2022_Nov_21_1205,localizer,2021.1.3,60.02462209997374,
block,scenes,scenes007.bmp,,,,,0,141,141,141,,,,,,,,,,,,,,,,,,,,,,,,,,,,,,,,,,,,,,,,,,None,,282.30470500000007,None,282.30470500000007,None,2022-11-21-12:10:25.779519,282.32018159999996,282.6213073,282.32018159999996,None,None,282.32018159999996,None,283.1202446999999,None,,,,21014,0001,2022_Nov_21_1205,localizer,2021.1.3,60.02462209997374,
block,scenes,scenes002.bmp,,,,,0,142,142,142,,,,,,,,,,,,,,,,,,,,,,,,,,,,,,,,,,,,,,,,,,None,,283.1202446999999,None,283.1202446999999,None,2022-11-21-12:10:26.593949,283.12954920000004,283.4385294,283.12954920000004,None,None,283.12954920000004,None,283.9375553999999,None,,,,21014,0001,2022_Nov_21_1205,localizer,2021.1.3,60.02462209997374,
block,scenes,scenes033.bmp,,,,,0,143,143,143,,,,,,,,,,,,,,,,,,,,,,,,,,,,,,,,,,,,,,,,,,None,,283.9375553999999,None,283.9375553999999,None,2022-11-21-12:10:27.412207,283.93912650000004,284.2547822999999,283.93912650000004,None,None,283.93912650000004,None,284.75479920000004,None,,,,21014,0001,2022_Nov_21_1205,localizer,2021.1.3,60.02462209997374,
block,scenes,scenes033.bmp,,,,,0,144,144,144,,,,,,,,,,,,,,,,,,,,,,,,,,,,,,,,,,,,,,,,,,None,,284.75479920000004,None,284.75479920000004,None,2022-11-21-12:10:28.230470,284.7559596,285.07160669999996,284.7559596,None,y,284.7559596,None,285.5554903999999,None,0.7210593999998309,,,21014,0001,2022_Nov_21_1205,localizer,2021.1.3,60.02462209997374,
block,scenes,scenes061.bmp,,,,,0,145,145,145,,,,,,,,,,,,,,,,,,,,,,,,,,,,,,,,,,,,,,,,,,None,,285.5554903999999,None,285.5554903999999,None,2022-11-21-12:10:29.035383,285.57389039999987,285.8880728999999,285.57389039999987,285.57389039999987,None,285.57389039999987,285.57389039999987,286.37127049999987,None,,,,21014,0001,2022_Nov_21_1205,localizer,2021.1.3,60.02462209997374,
block,scenes,scenes036.bmp,,,,,0,146,146,146,,,,,,,,,,,,,,,,,,,,,,,,,,,,,,,,,,,,,,,,,,None,,286.37127049999987,None,286.37127049999987,None,2022-11-21-12:10:29.846005,286.38173270000004,286.6881758999999,286.38173270000004,None,None,286.38173270000004,None,287.1875234,None,,,,21014,0001,2022_Nov_21_1205,localizer,2021.1.3,60.02462209997374,
block,scenes,scenes018.bmp,,,,,0,147,147,147,,,,,,,,,,,,,,,,,,,,,,,,,,,,,,,,,,,,,,,,,,None,,287.1875234,None,287.1875234,None,2022-11-21-12:10:30.662297,287.1930633999999,287.5049187999999,287.1930633999999,None,None,287.1930633999999,None,288.0047485999999,None,,,,21014,0001,2022_Nov_21_1205,localizer,2021.1.3,60.02462209997374,
block,scenes,scenes062.bmp,,,,,0,148,148,148,,,,,,,,,,,,,,,,,,,,,,,,,,,,,,,,,,,,,,,,,,None,,288.0047485999999,None,288.0047485999999,None,2022-11-21-12:10:31.480737,288.00616389999993,288.32186309999986,288.00616389999993,None,None,288.00616389999993,None,288.8213153,None,,,,21014,0001,2022_Nov_21_1205,localizer,2021.1.3,60.02462209997374,
block,scenes,scenes010.bmp,,,,,0,149,149,149,,,,,,,,,,,,,,,,,,,,,,,,,,,,,,,,,,,,,,,,,,None,,288.8213153,None,288.8213153,None,2022-11-21-12:10:32.297367,288.83388849999994,289.1380697000001,288.83388849999994,None,None,288.83388849999994,None,289.63826,None,,,,21014,0001,2022_Nov_21_1205,localizer,2021.1.3,60.02462209997374,
block,scenes,scenes090.bmp,,,,,0,150,150,150,,,,,,,,,,,,,,,,,,,,,,,,,,,,,,,,,,,,,,,,,,None,,289.63826,None,289.63826,None,2022-11-21-12:10:33.114125,289.6505106000001,289.95489429999986,289.6505106000001,None,None,289.6505106000001,None,290.45451629999985,None,,,,21014,0001,2022_Nov_21_1205,localizer,2021.1.3,60.02462209997374,
block,scenes,scenes032.bmp,,,,,0,151,151,151,,,,,,,,,,,,,,,,,,,,,,,,,,,,,,,,,,,,,,,,,,None,,290.45451629999985,None,290.45451629999985,None,2022-11-21-12:10:33.928200,290.46353469999997,290.77157320000003,290.46353469999997,None,None,290.46353469999997,None,291.2707917000001,None,,,,21014,0001,2022_Nov_21_1205,localizer,2021.1.3,60.02462209997374,
block_end,scenes,scenes011.bmp,,,,,0,152,152,152,,,,,,,,,,,,,,,,,,,,,,,,,,,,,,,,,,,,,,,,,,None,,291.2707917000001,None,291.2707917000001,None,2022-11-21-12:10:34.745678,291.28020690000005,291.58826469999997,291.28020690000005,None,None,291.28020690000005,None,292.0880937,None,,,,21014,0001,2022_Nov_21_1205,localizer,2021.1.3,60.02462209997374,
block_start,scrambled,scrambled068.bmp,,,,,0,153,153,153,,,,,,,,,,,,,,,,,,,,,,,,,,,,,,,,,,,,,,,,,,t,1.7408866000000671,292.0883728,None,292.0883728,None,2022-11-21-12:10:37.327857,293.8643656999999,294.1715478,293.8643656999999,None,None,293.8643656999999,None,294.6712773,None,,,,21014,0001,2022_Nov_21_1205,localizer,2021.1.3,60.02462209997374,
block,scrambled,scrambled073.bmp,,,,,0,154,154,154,,,,,,,,,,,,,,,,,,,,,,,,,,,,,,,,,,,,,,,,,,None,,294.6712773,None,294.6712773,None,2022-11-21-12:10:38.146516,294.6828334999999,294.9882623,294.6828334999999,None,None,294.6828334999999,None,295.48741439999986,None,,,,21014,0001,2022_Nov_21_1205,localizer,2021.1.3,60.02462209997374,
block,scrambled,scrambled029.bmp,,,,,0,155,155,155,,,,,,,,,,,,,,,,,,,,,,,,,,,,,,,,,,,,,,,,,,None,,295.48741439999986,None,295.48741439999986,None,2022-11-21-12:10:38.962523,295.4922605999999,295.8039874,295.4922605999999,None,None,295.4922605999999,None,296.30381919999996,None,,,,21014,0001,2022_Nov_21_1205,localizer,2021.1.3,60.02462209997374,
block,scrambled,scrambled002.bmp,,,,,0,156,156,156,,,,,,,,,,,,,,,,,,,,,,,,,,,,,,,,,,,,,,,,,,None,,296.30381919999996,None,296.30381919999996,None,2022-11-21-12:10:39.777974,296.30965000000003,296.6067998,296.30965000000003,None,None,296.30965000000003,None,297.1210950999999,None,,,,21014,0001,2022_Nov_21_1205,localizer,2021.1.3,60.02462209997374,
block,scrambled,scrambled041.bmp,,,,,0,157,157,157,,,,,,,,,,,,,,,,,,,,,,,,,,,,,,,,,,,,,,,,,,None,,297.1210950999999,None,297.1210950999999,None,2022-11-21-12:10:40.596467,297.1275870999999,297.43834490000006,297.1275870999999,None,None,297.1275870999999,None,297.93989089999997,None,,,,21014,0001,2022_Nov_21_1205,localizer,2021.1.3,60.02462209997374,
block,scrambled,scrambled027.bmp,,,,,0,158,158,158,,,,,,,,,,,,,,,,,,,,,,,,,,,,,,,,,,,,,,,,,,None,,297.93989089999997,None,297.93989089999997,None,2022-11-21-12:10:41.418997,297.94465520000006,298.2549447,297.94465520000006,None,None,297.94465520000006,None,298.7546957,None,,,,21014,0001,2022_Nov_21_1205,localizer,2021.1.3,60.02462209997374,
block,scrambled,scrambled072.bmp,,,,,0,159,159,159,,,,,,,,,,,,,,,,,,,,,,,,,,,,,,,,,,,,,,,,,,None,,298.7546957,None,298.7546957,None,2022-11-21-12:10:42.230083,298.7662706,299.0714735,298.7662706,None,None,298.7662706,None,299.57151789999995,None,,,,21014,0001,2022_Nov_21_1205,localizer,2021.1.3,60.02462209997374,
block,scrambled,scrambled086.bmp,,,,,0,160,160,160,,,,,,,,,,,,,,,,,,,,,,,,,,,,,,,,,,,,,,,,,,None,,299.57151789999995,None,299.57151789999995,None,2022-11-21-12:10:43.048493,299.58059319999995,299.88831249999987,299.58059319999995,None,None,299.58059319999995,None,300.37788559999996,None,,,,21014,0001,2022_Nov_21_1205,localizer,2021.1.3,60.02462209997374,
block,scrambled,scrambled018.bmp,,,,,0,161,161,161,,,,,,,,,,,,,,,,,,,,,,,,,,,,,,,,,,,,,,,,,,None,,300.37788559999996,None,300.37788559999996,None,2022-11-21-12:10:43.859126,300.39191160000007,300.7047549,300.39191160000007,None,None,300.39191160000007,None,301.18751779999985,None,,,,21014,0001,2022_Nov_21_1205,localizer,2021.1.3,60.02462209997374,
block,scrambled,scrambled023.bmp,,,,,0,162,162,162,,,,,,,,,,,,,,,,,,,,,,,,,,,,,,,,,,,,,,,,,,None,,301.18751779999985,None,301.18751779999985,None,2022-11-21-12:10:44.662796,301.18955470000003,301.50492759999986,301.18955470000003,None,None,301.18955470000003,None,302.00443509999997,None,,,,21014,0001,2022_Nov_21_1205,localizer,2021.1.3,60.02462209997374,
block,scrambled,scrambled084.bmp,,,,,0,163,163,163,,,,,,,,,,,,,,,,,,,,,,,,,,,,,,,,,,,,,,,,,,None,,302.00443509999997,None,302.00443509999997,None,2022-11-21-12:10:45.479739,302.0059058999999,302.3216524999999,302.0059058999999,None,None,302.0059058999999,None,302.8212924,None,,,,21014,0001,2022_Nov_21_1205,localizer,2021.1.3,60.02462209997374,
block,scrambled,scrambled019.bmp,,,,,0,164,164,164,,,,,,,,,,,,,,,,,,,,,,,,,,,,,,,,,,,,,,,,,,None,,302.8212924,None,302.8212924,None,2022-11-21-12:10:46.296634,302.8226042,303.1223475999999,302.8226042,None,None,302.8226042,None,303.6223536999999,None,,,,21014,0001,2022_Nov_21_1205,localizer,2021.1.3,60.02462209997374,
block,scrambled,scrambled076.bmp,,,,,0,165,165,165,,,,,,,,,,,,,,,,,,,,,,,,,,,,,,,,,,,,,,,,,,None,,303.6223536999999,None,303.6223536999999,None,2022-11-21-12:10:47.101707,303.63775180000005,303.93857309999987,303.63775180000005,303.63775180000005,None,303.63775180000005,303.63775180000005,304.44175619999993,None,,,,21014,0001,2022_Nov_21_1205,localizer,2021.1.3,60.02462209997374,
block,scrambled,scrambled009.bmp,,,,,0,166,166,166,,,,,,,,,,,,,,,,,,,,,,,,,,,,,,,,,,,,,,,,,,None,,304.44175619999993,None,304.44175619999993,None,2022-11-21-12:10:47.927191,304.46170440000003,304.77162110000006,304.46170440000003,None,None,304.46170440000003,None,305.2544369999999,None,,,,21014,0001,2022_Nov_21_1205,localizer,2021.1.3,60.02462209997374,
block_end,scrambled,scrambled020.bmp,,,,,0,167,167,167,,,,,,,,,,,,,,,,,,,,,,,,,,,,,,,,,,,,,,,,,,None,,305.2544369999999,None,305.2544369999999,None,2022-11-21-12:10:48.729862,305.2641212,305.5716953,305.2641212,None,None,305.2641212,None,306.0722893,None,,,,21014,0001,2022_Nov_21_1205,localizer,2021.1.3,60.02462209997374,
block_start,objects,objects052.bmp,,,,,0,168,168,168,,,,,,,,,,,,,,,,,,,,,,,,,,,,,,,,,,,,,,,,,,t,1.756257499999947,306.07273640000005,None,306.07273640000005,None,2022-11-21-12:10:51.330390,307.86647030000006,308.1715544,307.86647030000006,None,None,307.86647030000006,None,308.67147069999993,None,,,,21014,0001,2022_Nov_21_1205,localizer,2021.1.3,60.02462209997374,
block,objects,objects024.bmp,,,,,0,169,169,169,,,,,,,,,,,,,,,,,,,,,,,,,,,,,,,,,,,,,,,,,,None,,308.67147069999993,None,308.67147069999993,None,2022-11-21-12:10:52.147013,308.6818557,308.9883002,308.6818557,None,None,308.6818557,None,309.48786720000004,None,,,,21014,0001,2022_Nov_21_1205,localizer,2021.1.3,60.02462209997374,
block,objects,objects008.bmp,,,,,0,170,170,170,,,,,,,,,,,,,,,,,,,,,,,,,,,,,,,,,,,,,,,,,,None,,309.48786720000004,None,309.48786720000004,None,2022-11-21-12:10:52.963150,309.48929770000007,309.8049419,309.48929770000007,None,None,309.48929770000007,None,310.3045187000001,None,,,,21014,0001,2022_Nov_21_1205,localizer,2021.1.3,60.02462209997374,
block,objects,objects037.bmp,,,,,0,171,171,171,,,,,,,,,,,,,,,,,,,,,,,,,,,,,,,,,,,,,,,,,,None,,310.3045187000001,None,310.3045187000001,None,2022-11-21-12:10:53.780125,310.3154057999999,310.62153,310.3154057999999,None,None,310.3154057999999,None,311.12098599999996,None,,,,21014,0001,2022_Nov_21_1205,localizer,2021.1.3,60.02462209997374,
block,objects,objects075.bmp,,,,,0,172,172,172,,,,,,,,,,,,,,,,,,,,,,,,,,,,,,,,,,,,,,,,,,None,,311.12098599999996,None,311.12098599999996,None,2022-11-21-12:10:54.596628,311.1300522999999,311.4382474,311.1300522999999,None,None,311.1300522999999,None,311.93798959999987,None,,,,21014,0001,2022_Nov_21_1205,localizer,2021.1.3,60.02462209997374,
block,objects,objects079.bmp,,,,,0,173,173,173,,,,,,,,,,,,,,,,,,,,,,,,,,,,,,,,,,,,,,,,,,None,,311.93798959999987,None,311.93798959999987,None,2022-11-21-12:10:55.413652,311.94954300000006,312.25522339999986,311.94954300000006,None,None,311.94954300000006,None,312.75577189999996,None,,,,21014,0001,2022_Nov_21_1205,localizer,2021.1.3,60.02462209997374,
block,objects,objects045.bmp,,,,,0,174,174,174,,,,,,,,,,,,,,,,,,,,,,,,,,,,,,,,,,,,,,,,,,None,,312.75577189999996,None,312.75577189999996,None,2022-11-21-12:10:56.233443,312.75840260000007,313.07197869999993,312.75840260000007,None,None,312.75840260000007,None,313.5711623,None,,,,21014,0001,2022_Nov_21_1205,localizer,2021.1.3,60.02462209997374,
block,objects,objects084.bmp,,,,,0,175,175,175,,,,,,,,,,,,,,,,,,,,,,,,,,,,,,,,,,,,,,,,,,None,,313.5711623,None,313.5711623,None,2022-11-21-12:10:57.046973,313.5818943999999,313.88933859999986,313.5818943999999,None,None,313.5818943999999,None,314.38904329999997,None,,,,21014,0001,2022_Nov_21_1205,localizer,2021.1.3,60.02462209997374,
block,objects,objects074.bmp,,,,,0,176,176,176,,,,,,,,,,,,,,,,,,,,,,,,,,,,,,,,,,,,,,,,,,None,,314.38904329999997,None,314.38904329999997,None,2022-11-21-12:10:57.866774,314.4028007999999,314.70476840000003,314.4028007999999,None,None,314.4028007999999,None,315.2057579999999,None,,,,21014,0001,2022_Nov_21_1205,localizer,2021.1.3,60.02462209997374,
block,objects,objects059.bmp,,,,,0,177,177,177,,,,,,,,,,,,,,,,,,,,,,,,,,,,,,,,,,,,,,,,,,None,,315.2057579999999,None,315.2057579999999,None,2022-11-21-12:10:58.683125,315.2201755,315.5215267,315.2201755,None,None,315.2201755,None,316.0212089,None,,,,21014,0001,2022_Nov_21_1205,localizer,2021.1.3,60.02462209997374,
block,objects,objects046.bmp,,,,,0,178,178,178,,,,,,,,,,,,,,,,,,,,,,,,,,,,,,,,,,,,,,,,,,None,,316.0212089,None,316.0212089,None,2022-11-21-12:10:59.497022,316.0322932,316.3383250999999,316.0322932,None,None,316.0322932,None,316.83811640000005,None,,,,21014,0001,2022_Nov_21_1205,localizer,2021.1.3,60.02462209997374,
block,objects,objects069.bmp,,,,,0,179,179,179,,,,,,,,,,,,,,,,,,,,,,,,,,,,,,,,,,,,,,,,,,None,,316.83811640000005,None,316.83811640000005,None,2022-11-21-12:11:00.313991,316.8496647999999,317.1547826,316.8496647999999,None,None,316.8496647999999,None,317.65441689999994,None,,,,21014,0001,2022_Nov_21_1205,localizer,2021.1.3,60.02462209997374,
block,objects,objects047.bmp,,,,,0,180,180,180,,,,,,,,,,,,,,,,,,,,,,,,,,,,,,,,,,,,,,,,,,None,,317.65441689999994,None,317.65441689999994,None,2022-11-21-12:11:01.129298,317.6560120999999,317.97172439999997,317.6560120999999,None,None,317.6560120999999,None,318.4713949,None,,,,21014,0001,2022_Nov_21_1205,localizer,2021.1.3,60.02462209997374,
block,objects,objects010.bmp,,,,,0,181,181,181,,,,,,,,,,,,,,,,,,,,,,,,,,,,,,,,,,,,,,,,,,None,,318.4713949,None,318.4713949,None,2022-11-21-12:11:01.947576,318.4727096999999,318.7883874999999,318.4727096999999,None,None,318.4727096999999,None,319.2878059,None,,,,21014,0001,2022_Nov_21_1205,localizer,2021.1.3,60.02462209997374,
block_end,objects,objects019.bmp,,,,,0,182,182,182,,,,,,,,,,,,,,,,,,,,,,,,,,,,,,,,,,,,,,,,,,None,,319.2878059,None,319.2878059,None,2022-11-21-12:11:02.763738,319.2892926999999,319.60495260000005,319.2892926999999,None,None,319.2892926999999,None,320.1046141,None,,,,21014,0001,2022_Nov_21_1205,localizer,2021.1.3,60.02462209997374,
block_start,scrambled,scrambled030.bmp,,,,,0,183,183,183,,,,,,,,,,,,,,,,,,,,,,,,,,,,,,,,,,,,,,,,,,t,1.724614800000154,320.1045648999999,None,320.1045648999999,None,2022-11-21-12:11:05.332190,321.8582061999999,322.17250709999996,321.8582061999999,None,None,321.8582061999999,None,322.6720137999999,None,,,,21014,0001,2022_Nov_21_1205,localizer,2021.1.3,60.02462209997374,
block,scrambled,scrambled060.bmp,,,,,0,184,184,184,,,,,,,,,,,,,,,,,,,,,,,,,,,,,,,,,,,,,,,,,,None,,322.6720137999999,None,322.6720137999999,None,2022-11-21-12:11:06.148942,322.68443309999986,322.98837330000003,322.68443309999986,None,None,322.68443309999986,None,323.48821090000007,None,,,,21014,0001,2022_Nov_21_1205,localizer,2021.1.3,60.02462209997374,
block,scrambled,scrambled033.bmp,,,,,0,185,185,185,,,,,,,,,,,,,,,,,,,,,,,,,,,,,,,,,,,,,,,,,,None,,323.48821090000007,None,323.48821090000007,None,2022-11-21-12:11:06.964522,323.49923980000005,323.80485039999996,323.49923980000005,None,None,323.49923980000005,None,324.3047737,None,,,,21014,0001,2022_Nov_21_1205,localizer,2021.1.3,60.02462209997374,
block,scrambled,scrambled042.bmp,,,,,0,186,186,186,,,,,,,,,,,,,,,,,,,,,,,,,,,,,,,,,,,,,,,,,,None,,324.3047737,None,324.3047737,None,2022-11-21-12:11:07.780884,324.31533849999994,324.6217691999999,324.31533849999994,None,None,324.31533849999994,None,325.1207193000001,None,,,,21014,0001,2022_Nov_21_1205,localizer,2021.1.3,60.02462209997374,
block,scrambled,scrambled037.bmp,,,,,0,187,187,187,,,,,,,,,,,,,,,,,,,,,,,,,,,,,,,,,,,,,,,,,,None,,325.1207193000001,None,325.1207193000001,None,2022-11-21-12:11:08.596584,325.1300293999999,325.43838900000003,325.1300293999999,None,None,325.1300293999999,None,325.93818019999986,None,,,,21014,0001,2022_Nov_21_1205,localizer,2021.1.3,60.02462209997374,
block,scrambled,scrambled083.bmp,,,,,0,188,188,188,,,,,,,,,,,,,,,,,,,,,,,,,,,,,,,,,,,,,,,,,,None,,325.93818019999986,None,325.93818019999986,None,2022-11-21-12:11:09.414350,325.93944840000006,326.2552689999999,325.93944840000006,None,None,325.93944840000006,None,326.7548987999999,None,,,,21014,0001,2022_Nov_21_1205,localizer,2021.1.3,60.02462209997374,
block,scrambled,scrambled084.bmp,,,,,0,189,189,189,,,,,,,,,,,,,,,,,,,,,,,,,,,,,,,,,,,,,,,,,,None,,326.7548987999999,None,326.7548987999999,None,2022-11-21-12:11:10.231098,326.7562015,327.0718885,326.7562015,None,None,326.7562015,None,327.57161460000003,None,,,,21014,0001,2022_Nov_21_1205,localizer,2021.1.3,60.02462209997374,
block,scrambled,scrambled079.bmp,,,,,0,190,190,190,,,,,,,,,,,,,,,,,,,,,,,,,,,,,,,,,,,,,,,,,,None,,327.57161460000003,None,327.57161460000003,None,2022-11-21-12:11:11.047852,327.5829482999999,327.88824639999996,327.5829482999999,None,None,327.5829482999999,None,328.38898209999985,None,,,,21014,0001,2022_Nov_21_1205,localizer,2021.1.3,60.02462209997374,
block,scrambled,scrambled066.bmp,,,,,0,191,191,191,,,,,,,,,,,,,,,,,,,,,,,,,,,,,,,,,,,,,,,,,,None,,328.38898209999985,None,328.38898209999985,None,2022-11-21-12:11:11.866370,328.3916937,328.7054502,328.3916937,None,None,328.3916937,None,329.2046509,None,,,,21014,0001,2022_Nov_21_1205,localizer,2021.1.3,60.02462209997374,
block,scrambled,scrambled085.bmp,,,,,0,192,192,192,,,,,,,,,,,,,,,,,,,,,,,,,,,,,,,,,,,,,,,,,,None,,329.2046509,None,329.2046509,None,2022-11-21-12:11:12.681194,329.21514579999996,329.52171880000003,329.21514579999996,None,None,329.21514579999996,None,330.0210588999999,None,,,,21014,0001,2022_Nov_21_1205,localizer,2021.1.3,60.02462209997374,
block,scrambled,scrambled041.bmp,,,,,0,193,193,193,,,,,,,,,,,,,,,,,,,,,,,,,,,,,,,,,,,,,,,,,,None,,330.0210588999999,None,330.0210588999999,None,2022-11-21-12:11:13.498070,330.02249399999994,330.33838389999994,330.02249399999994,None,None,330.02249399999994,None,330.82166050000006,None,,,,21014,0001,2022_Nov_21_1205,localizer,2021.1.3,60.02462209997374,
block,scrambled,scrambled039.bmp,,,,,0,194,194,194,,,,,,,,,,,,,,,,,,,,,,,,,,,,,,,,,,,,,,,,,,None,,330.82166050000006,None,330.82166050000006,None,2022-11-21-12:11:14.300191,330.8251770999999,331.1383119000001,330.8251770999999,330.8251770999999,None,330.8251770999999,330.8251770999999,331.6382703,None,,,,21014,0001,2022_Nov_21_1205,localizer,2021.1.3,60.02462209997374,
block,scrambled,scrambled063.bmp,,,,,0,195,195,195,,,,,,,,,,,,,,,,,,,,,,,,,,,,,,,,,,,,,,,,,,None,,331.6382703,None,331.6382703,None,2022-11-21-12:11:15.115178,331.63950169999987,331.95529120000003,331.63950169999987,None,None,331.63950169999987,None,332.45528129999985,None,,,,21014,0001,2022_Nov_21_1205,localizer,2021.1.3,60.02462209997374,
block,scrambled,scrambled050.bmp,,,,,0,196,196,196,,,,,,,,,,,,,,,,,,,,,,,,,,,,,,,,,,,,,,,,,,None,,332.45528129999985,None,332.45528129999985,None,2022-11-21-12:11:15.932715,332.46736780000003,332.77194139999995,332.46736780000003,None,None,332.46736780000003,None,333.27342329999993,None,,,,21014,0001,2022_Nov_21_1205,localizer,2021.1.3,60.02462209997374,
block_end,scrambled,scrambled002.bmp,,,,,0,197,197,197,,,,,,,,,,,,,,,,,,,,,,,,,,,,,,,,,,,,,,,,,,None,,333.27342329999993,None,333.27342329999993,None,2022-11-21-12:11:16.755001,333.2794866999999,333.58911899999987,333.2794866999999,None,None,333.2794866999999,None,334.08865099999986,None,,,,21014,0001,2022_Nov_21_1205,localizer,2021.1.3,60.02462209997374,
block_start,scenes,scenes003.bmp,,,,,0,198,198,198,,,,,,,,,,,,,,,,,,,,,,,,,,,,,,,,,,,,,,,,,,t,1.7400219000001016,334.08912739999994,None,334.08912739999994,None,2022-11-21-12:11:19.332656,335.8648462,336.17174209999996,335.8648462,None,None,335.8648462,None,336.67252779999995,None,,,,21014,0001,2022_Nov_21_1205,localizer,2021.1.3,60.02462209997374,
block,scenes,scenes005.bmp,,,,,0,199,199,199,,,,,,,,,,,,,,,,,,,,,,,,,,,,,,,,,,,,,,,,,,None,,336.67252779999995,None,336.67252779999995,None,2022-11-21-12:11:20.150267,336.68593509999994,336.98856639999997,336.68593509999994,None,None,336.68593509999994,None,337.48805840000006,None,,,,21014,0001,2022_Nov_21_1205,localizer,2021.1.3,60.02462209997374,
block,scenes,scenes047.bmp,,,,,0,200,200,200,,,,,,,,,,,,,,,,,,,,,,,,,,,,,,,,,,,,,,,,,,None,,337.48805840000006,None,337.48805840000006,None,2022-11-21-12:11:20.964650,337.4990434,337.8051147,337.4990434,None,None,337.4990434,None,338.3051022,None,,,,21014,0001,2022_Nov_21_1205,localizer,2021.1.3,60.02462209997374,
block,scenes,scenes060.bmp,,,,,0,201,201,201,,,,,,,,,,,,,,,,,,,,,,,,,,,,,,,,,,,,,,,,,,None,,338.3051022,None,338.3051022,None,2022-11-21-12:11:21.781743,338.30618749999996,338.6222231999999,338.30618749999996,None,None,338.30618749999996,None,339.1051934,None,,,,21014,0001,2022_Nov_21_1205,localizer,2021.1.3,60.02462209997374,
block,scenes,scenes020.bmp,,,,,0,202,202,202,,,,,,,,,,,,,,,,,,,,,,,,,,,,,,,,,,,,,,,,,,None,,339.1051934,None,339.1051934,None,2022-11-21-12:11:22.582669,339.1160934999999,339.42187260000003,339.1160934999999,339.1160934999999,None,339.1160934999999,339.1160934999999,339.9213272,None,,,,21014,0001,2022_Nov_21_1205,localizer,2021.1.3,60.02462209997374,
block,scenes,scenes055.bmp,,,,,0,203,203,203,,,,,,,,,,,,,,,,,,,,,,,,,,,,,,,,,,,,,,,,,,None,,339.9213272,None,339.9213272,None,2022-11-21-12:11:23.398009,339.9321931999999,340.2387107999999,339.9321931999999,None,None,339.9321931999999,None,340.7382212999999,None,,,,21014,0001,2022_Nov_21_1205,localizer,2021.1.3,60.02462209997374,
block,scenes,scenes088.bmp,,,,,0,204,204,204,,,,,,,,,,,,,,,,,,,,,,,,,,,,,,,,,,,,,,,,,,None,,340.7382212999999,None,340.7382212999999,None,2022-11-21-12:11:24.216138,340.73957919999987,341.03994939999995,340.73957919999987,None,None,340.73957919999987,None,341.5547778999999,None,,,,21014,0001,2022_Nov_21_1205,localizer,2021.1.3,60.02462209997374,
block,scenes,scenes076.bmp,,,,,0,205,205,205,,,,,,,,,,,,,,,,,,,,,,,,,,,,,,,,,,,,,,,,,,None,,341.5547778999999,None,341.5547778999999,None,2022-11-21-12:11:25.031722,341.5660345,341.8719278,341.5660345,None,None,341.5660345,None,342.37155450000006,None,,,,21014,0001,2022_Nov_21_1205,localizer,2021.1.3,60.02462209997374,
block,scenes,scenes083.bmp,,,,,0,206,206,206,,,,,,,,,,,,,,,,,,,,,,,,,,,,,,,,,,,,,,,,,,None,,342.37155450000006,None,342.37155450000006,None,2022-11-21-12:11:25.848320,342.3729723,342.68881739999995,342.3729723,None,None,342.3729723,None,343.1879119000001,None,,,,21014,0001,2022_Nov_21_1205,localizer,2021.1.3,60.02462209997374,
block,scenes,scenes079.bmp,,,,,0,207,207,207,,,,,,,,,,,,,,,,,,,,,,,,,,,,,,,,,,,,,,,,,,None,,343.1879119000001,None,343.1879119000001,None,2022-11-21-12:11:26.665211,343.18946459999995,343.50559859999987,343.18946459999995,None,None,343.18946459999995,None,344.00441989999996,None,,,,21014,0001,2022_Nov_21_1205,localizer,2021.1.3,60.02462209997374,
block,scenes,scenes080.bmp,,,,,0,208,208,208,,,,,,,,,,,,,,,,,,,,,,,,,,,,,,,,,,,,,,,,,,None,,344.00441989999996,None,344.00441989999996,None,2022-11-21-12:11:27.481754,344.0058551999999,344.3215177999999,344.0058551999999,None,None,344.0058551999999,None,344.80504890000003,None,,,,21014,0001,2022_Nov_21_1205,localizer,2021.1.3,60.02462209997374,
block,scenes,scenes034.bmp,,,,,0,209,209,209,,,,,,,,,,,,,,,,,,,,,,,,,,,,,,,,,,,,,,,,,,None,,344.80504890000003,None,344.80504890000003,None,2022-11-21-12:11:28.283902,344.80828080000003,345.1216241000001,344.80828080000003,344.80828080000003,None,344.80828080000003,344.80828080000003,345.6216141999999,None,,,,21014,0001,2022_Nov_21_1205,localizer,2021.1.3,60.02462209997374,
block,scenes,scenes036.bmp,,,,,0,210,210,210,,,,,,,,,,,,,,,,,,,,,,,,,,,,,,,,,,,,,,,,,,None,,345.6216141999999,None,345.6216141999999,None,2022-11-21-12:11:29.098400,345.6229092,345.9384644999999,345.6229092,None,None,345.6229092,None,346.43790429999996,None,,,,21014,0001,2022_Nov_21_1205,localizer,2021.1.3,60.02462209997374,
block,scenes,scenes056.bmp,,,,,0,211,211,211,,,,,,,,,,,,,,,,,,,,,,,,,,,,,,,,,,,,,,,,,,None,,346.43790429999996,None,346.43790429999996,None,2022-11-21-12:11:29.914824,346.4476338999999,346.7549868,346.4476338999999,None,None,346.4476338999999,None,347.2546808,None,,,,21014,0001,2022_Nov_21_1205,localizer,2021.1.3,60.02462209997374,
block_end,scenes,scenes050.bmp,,,,,0,212,212,212,,,,,,,,,,,,,,,,,,,,,,,,,,,,,,,,,,,,,,,,,,None,,347.2546808,None,347.2546808,None,2022-11-21-12:11:30.731625,347.2655017000001,347.5718237,347.2655017000001,None,None,347.2655017000001,None,348.0720629999999,None,,,,21014,0001,2022_Nov_21_1205,localizer,2021.1.3,60.02462209997374,
block_start,objects,objects017.bmp,,,,,0,213,213,213,,,,,,,,,,,,,,,,,,,,,,,,,,,,,,,,,,,,,,,,,,t,1.7567642999999862,348.07242499999995,None,348.07242499999995,None,2022-11-21-12:11:33.334946,349.8706226999999,350.17213030000005,349.8706226999999,None,None,349.8706226999999,None,350.67166379999986,None,,,,21014,0001,2022_Nov_21_1205,localizer,2021.1.3,60.02462209997374,
block,objects,objects028.bmp,,,,,0,214,214,214,,,,,,,,,,,,,,,,,,,,,,,,,,,,,,,,,,,,,,,,,,None,,350.67166379999986,None,350.67166379999986,None,2022-11-21-12:11:34.150721,350.67366849999996,350.9888087999999,350.67366849999996,None,None,350.67366849999996,None,351.4883301999999,None,,,,21014,0001,2022_Nov_21_1205,localizer,2021.1.3,60.02462209997374,
block,objects,objects060.bmp,,,,,0,215,215,215,,,,,,,,,,,,,,,,,,,,,,,,,,,,,,,,,,,,,,,,,,None,,351.4883301999999,None,351.4883301999999,None,2022-11-21-12:11:34.965483,351.4997433,351.80589139999995,351.4997433,None,None,351.4997433,None,352.30536779999994,None,,,,21014,0001,2022_Nov_21_1205,localizer,2021.1.3,60.02462209997374,
block,objects,objects011.bmp,,,,,0,216,216,216,,,,,,,,,,,,,,,,,,,,,,,,,,,,,,,,,,,,,,,,,,None,,352.30536779999994,None,352.30536779999994,None,2022-11-21-12:11:35.783682,352.3177093999999,352.6220001999999,352.3177093999999,None,None,352.3177093999999,None,353.1207577999999,None,,,,21014,0001,2022_Nov_21_1205,localizer,2021.1.3,60.02462209997374,
block,objects,objects058.bmp,,,,,0,217,217,217,,,,,,,,,,,,,,,,,,,,,,,,,,,,,,,,,,,,,,,,,,None,,353.1207577999999,None,353.1207577999999,None,2022-11-21-12:11:36.597923,353.13016260000006,353.43868310000005,353.13016260000006,None,None,353.13016260000006,None,353.93820149999993,None,,,,21014,0001,2022_Nov_21_1205,localizer,2021.1.3,60.02462209997374,
block,objects,objects025.bmp,,,,,0,218,218,218,,,,,,,,,,,,,,,,,,,,,,,,,,,,,,,,,,,,,,,,,,None,,353.93820149999993,None,353.93820149999993,None,2022-11-21-12:11:37.415482,353.9394612,354.2556595,353.9394612,None,None,353.9394612,None,354.73849849999993,None,,,,21014,0001,2022_Nov_21_1205,localizer,2021.1.3,60.02462209997374,
block,objects,objects037.bmp,,,,,0,219,219,219,,,,,,,,,,,,,,,,,,,,,,,,,,,,,,,,,,,,,,,,,,None,,354.73849849999993,None,354.73849849999993,None,2022-11-21-12:11:38.217708,354.74176939999995,355.05563169999994,354.74176939999995,354.74176939999995,None,354.74176939999995,354.74176939999995,355.55455569999987,None,,,,21014,0001,2022_Nov_21_1205,localizer,2021.1.3,60.02462209997374,
block,objects,objects064.bmp,,,,,0,220,220,220,,,,,,,,,,,,,,,,,,,,,,,,,,,,,,,,,,,,,,,,,,None,,355.55455569999987,None,355.55455569999987,None,2022-11-21-12:11:39.030570,355.56386310000005,355.8719797,355.56386310000005,None,None,355.56386310000005,None,356.3715931,None,,,,21014,0001,2022_Nov_21_1205,localizer,2021.1.3,60.02462209997374,
block,objects,objects042.bmp,,,,,0,221,221,221,,,,,,,,,,,,,,,,,,,,,,,,,,,,,,,,,,,,,,,,,,None,,356.3715931,None,356.3715931,None,2022-11-21-12:11:39.848871,356.38229190000004,356.6878854,356.38229190000004,None,None,356.38229190000004,None,357.1879476,None,,,,21014,0001,2022_Nov_21_1205,localizer,2021.1.3,60.02462209997374,
block,objects,objects010.bmp,,,,,0,222,222,222,,,,,,,,,,,,,,,,,,,,,,,,,,,,,,,,,,,,,,,,,,None,,357.1879476,None,357.1879476,None,2022-11-21-12:11:40.665265,357.18958469999995,357.505264,357.18958469999995,None,None,357.18958469999995,None,358.0048436,None,,,,21014,0001,2022_Nov_21_1205,localizer,2021.1.3,60.02462209997374,
block,objects,objects068.bmp,,,,,0,223,223,223,,,,,,,,,,,,,,,,,,,,,,,,,,,,,,,,,,,,,,,,,,None,,358.0048436,None,358.0048436,None,2022-11-21-12:11:41.482072,358.0159044999999,358.32202819999986,358.0159044999999,None,None,358.0159044999999,None,358.82153410000006,None,,,,21014,0001,2022_Nov_21_1205,localizer,2021.1.3,60.02462209997374,
block,objects,objects034.bmp,,,,,0,224,224,224,,,,,,,,,,,,,,,,,,,,,,,,,,,,,,,,,,,,,,,,,,None,,358.82153410000006,None,358.82153410000006,None,2022-11-21-12:11:42.298898,358.82302330000005,359.13820240000007,358.82302330000005,None,None,358.82302330000005,None,359.6381792,None,,,,21014,0001,2022_Nov_21_1205,localizer,2021.1.3,60.02462209997374,
block,objects,objects074.bmp,,,,,0,225,225,225,,,,,,,,,,,,,,,,,,,,,,,,,,,,,,,,,,,,,,,,,,None,,359.6381792,None,359.6381792,None,2022-11-21-12:11:43.115455,359.63958079999986,359.93927440000004,359.63958079999986,None,None,359.63958079999986,None,360.45487499999996,None,,,,21014,0001,2022_Nov_21_1205,localizer,2021.1.3,60.02462209997374,
block,objects,objects057.bmp,,,,,0,226,226,226,,,,,,,,,,,,,,,,,,,,,,,,,,,,,,,,,,,,,,,,,,None,,360.45487499999996,None,360.45487499999996,None,2022-11-21-12:11:43.932301,360.46565939999994,360.7726667999999,360.46565939999994,None,None,360.46565939999994,None,361.2718244999999,None,,,,21014,0001,2022_Nov_21_1205,localizer,2021.1.3,60.02462209997374,
block_end,objects,objects057.bmp,,,,,0,227,227,227,,,,,,,,,,,,,,,,,,,,,,,,,,,,,,,,,,,,,,,,,,None,,361.2718244999999,None,361.2718244999999,None,2022-11-21-12:11:44.749276,361.2730516999999,361.58897349999995,361.2730516999999,None,None,361.2730516999999,None,362.08825329999996,None,,,,21014,0001,2022_Nov_21_1205,localizer,2021.1.3,60.02462209997374,
null_block,null_block,null_block.bmp,,,,,0,228,228,228,,,,,,,,,,,,,,,,,,,,,,,,,,,,,,,,,,,,,,,,,,t,1.7394921000000068,362.08864979999987,None,362.08864979999987,None,2022-11-21-12:11:47.333953,363.85547690000004,None,363.85547690000004,None,None,363.85547690000004,None,363.86156300000005,None,,,,21014,0001,2022_Nov_21_1205,localizer,2021.1.3,60.02462209997374,
block_start,faces,faces065.bmp,,,,,0,229,229,229,,,,,,,,,,,,,,,,,,,,,,,,,,,,,,,,,,,,,,,,,,t,1.9548767000001135,375.8731833999999,None,375.8731833999999,None,2022-11-21-12:12:01.333784,377.87416559999986,378.18845010000007,377.87416559999986,None,None,377.87416559999986,None,378.6727477,None,,,,21014,0001,2022_Nov_21_1205,localizer,2021.1.3,60.02462209997374,
block,faces,faces036.bmp,,,,,0,230,230,230,,,,,,,,,,,,,,,,,,,,,,,,,,,,,,,,,,,,,,,,,,None,,378.6727477,None,378.6727477,None,2022-11-21-12:12:02.153739,378.67639759999986,378.98937319999993,378.67639759999986,None,None,378.67639759999986,None,379.4881492,None,,,,21014,0001,2022_Nov_21_1205,localizer,2021.1.3,60.02462209997374,
block,faces,faces028.bmp,,,,,0,231,231,231,,,,,,,,,,,,,,,,,,,,,,,,,,,,,,,,,,,,,,,,,,None,,379.4881492,None,379.4881492,None,2022-11-21-12:12:02.966212,379.4897242999999,379.80542679999996,379.4897242999999,None,None,379.4897242999999,None,380.3048764999999,None,,,,21014,0001,2022_Nov_21_1205,localizer,2021.1.3,60.02462209997374,
block,faces,faces083.bmp,,,,,0,232,232,232,,,,,,,,,,,,,,,,,,,,,,,,,,,,,,,,,,,,,,,,,,None,,380.3048764999999,None,380.3048764999999,None,2022-11-21-12:12:03.782942,380.3157608999999,380.62249540000005,380.3157608999999,None,None,380.3157608999999,None,381.12104230000006,None,,,,21014,0001,2022_Nov_21_1205,localizer,2021.1.3,60.02462209997374,
block,faces,faces001.bmp,,,,,0,233,233,233,,,,,,,,,,,,,,,,,,,,,,,,,,,,,,,,,,,,,,,,,,None,,381.12104230000006,None,381.12104230000006,None,2022-11-21-12:12:04.599112,381.1315501999999,381.43838930000004,381.1315501999999,None,None,381.1315501999999,None,381.93802379999994,None,,,,21014,0001,2022_Nov_21_1205,localizer,2021.1.3,60.02462209997374,
block,faces,faces074.bmp,,,,,0,234,234,234,,,,,,,,,,,,,,,,,,,,,,,,,,,,,,,,,,,,,,,,,,None,,381.93802379999994,None,381.93802379999994,None,2022-11-21-12:12:05.416255,381.93968370000005,382.25583629999994,381.93968370000005,None,None,381.93968370000005,None,382.7554206999999,None,,,,21014,0001,2022_Nov_21_1205,localizer,2021.1.3,60.02462209997374,
block,faces,faces078.bmp,,,,,0,235,235,235,,,,,,,,,,,,,,,,,,,,,,,,,,,,,,,,,,,,,,,,,,None,,382.7554206999999,None,382.7554206999999,None,2022-11-21-12:12:06.234476,382.76765639999996,383.07182720000003,382.76765639999996,None,None,382.76765639999996,None,383.5718765,None,,,,21014,0001,2022_Nov_21_1205,localizer,2021.1.3,60.02462209997374,
block,faces,faces013.bmp,,,,,0,236,236,236,,,,,,,,,,,,,,,,,,,,,,,,,,,,,,,,,,,,,,,,,,None,,383.5718765,None,383.5718765,None,2022-11-21-12:12:07.051134,383.57988569999986,383.8885658999999,383.57988569999986,None,None,383.57988569999986,None,384.38856549999997,None,,,,21014,0001,2022_Nov_21_1205,localizer,2021.1.3,60.02462209997374,
block,faces,faces010.bmp,,,,,0,237,237,237,,,,,,,,,,,,,,,,,,,,,,,,,,,,,,,,,,,,,,,,,,None,,384.38856549999997,None,384.38856549999997,None,2022-11-21-12:12:07.866628,384.3899762,384.7057601,384.3899762,None,None,384.3899762,None,385.1894780999999,None,,,,21014,0001,2022_Nov_21_1205,localizer,2021.1.3,60.02462209997374,
block,faces,faces079.bmp,,,,,0,238,238,238,,,,,,,,,,,,,,,,,,,,,,,,,,,,,,,,,,,,,,,,,,None,,385.1894780999999,None,385.1894780999999,None,2022-11-21-12:12:08.671659,385.2049544999999,385.5055839999999,385.2049544999999,385.2049544999999,None,385.2049544999999,385.2049544999999,386.0053959,None,,,,21014,0001,2022_Nov_21_1205,localizer,2021.1.3,60.02462209997374,
block,faces,faces059.bmp,,,,,0,239,239,239,,,,,,,,,,,,,,,,,,,,,,,,,,,,,,,,,,,,,,,,,,None,,386.0053959,None,386.0053959,None,2022-11-21-12:12:09.484433,386.00660460000006,386.3224919999999,386.00660460000006,None,None,386.00660460000006,None,386.8219703999999,None,,,,21014,0001,2022_Nov_21_1205,localizer,2021.1.3,60.02462209997374,
block,faces,faces061.bmp,,,,,0,240,240,240,,,,,,,,,,,,,,,,,,,,,,,,,,,,,,,,,,,,,,,,,,None,,386.8219703999999,None,386.8219703999999,None,2022-11-21-12:12:10.301665,386.82374100000004,387.1384423999999,386.82374100000004,None,None,386.82374100000004,None,387.63818410000005,None,,,,21014,0001,2022_Nov_21_1205,localizer,2021.1.3,60.02462209997374,
block,faces,faces003.bmp,,,,,0,241,241,241,,,,,,,,,,,,,,,,,,,,,,,,,,,,,,,,,,,,,,,,,,None,,387.63818410000005,None,387.63818410000005,None,2022-11-21-12:12:11.116250,387.64469789999987,387.95530270000006,387.64469789999987,None,None,387.64469789999987,None,388.45502249999987,None,,,,21014,0001,2022_Nov_21_1205,localizer,2021.1.3,60.02462209997374,
block,faces,faces044.bmp,,,,,0,242,242,242,,,,,,,,,,,,,,,,,,,,,,,,,,,,,,,,,,,,,,,,,,None,,388.45502249999987,None,388.45502249999987,None,2022-11-21-12:12:11.933089,388.4565248,388.7721361,388.4565248,None,None,388.4565248,None,389.2717722999999,None,,,,21014,0001,2022_Nov_21_1205,localizer,2021.1.3,60.02462209997374,
block_end,faces,faces076.bmp,,,,,0,243,243,243,,,,,,,,,,,,,,,,,,,,,,,,,,,,,,,,,,,,,,,,,,None,,389.2717722999999,None,389.2717722999999,None,2022-11-21-12:12:12.749835,389.2832797,389.58871910000005,389.2832797,None,None,389.2832797,None,390.0883098,None,,,,21014,0001,2022_Nov_21_1205,localizer,2021.1.3,60.02462209997374,
,,,,,,,,,,,,,,,,,,,,,,,,,,,,,,,,,,,,,,,,,,,,,,,,,,,,,,,,,,,,,,,,,,,,,390.0886325,None,,,,,,,
