block_type,condition,img_name,Button.thisRepN,Button.thisTrialN,Button.thisN,Button.thisIndex,trials.thisRepN,trials.thisTrialN,trials.thisN,trials.thisIndex,Ready_experimenter_text.started,Ready_experimenter_text.stopped,Ready_experimenter_resp.keys,Ready_experimenter_resp.rt,Ready_experimenter_resp.started,Ready_experimenter_resp.stopped,Alignment_background.started,Alignment_background.stopped,Alignment_image.started,Alignment_image.stopped,Alignment_resp.keys,Alignment_resp.rt,Alignment_resp.started,Alignment_resp.stopped,Button_text.started,Button_text.stopped,Index_text.started,Index_text.stopped,Index_resp.keys,Index_resp.rt,Index_resp.started,Index_resp.stopped,Middle_text.started,Middle_text.stopped,Middle_resp.keys,Middle_resp.rt,Middle_resp.started,Middle_resp.stopped,Repeat_text.started,Repeat_text.stopped,Repeat_resp.keys,Repeat_resp.corr,Repeat_resp.rt,Repeat_resp.started,Repeat_resp.stopped,instruction_text.started,instruction_text.stopped,key_resp.keys,key_resp.rt,key_resp.started,key_resp.stopped,scanner_t.keys,scanner_t.rt,scanner_t.started,scanner_t.stopped,fixation_wait_for_t.started,fixation_wait_for_t.stopped,real_timestamp_trial_start,image.started,image.stopped,fixation.started,fixation.stopped,repeat_response.keys,repeat_response.started,repeat_response.stopped,fixation_null.started,fixation_null.stopped,repeat_response.rt,end_text.started,end_text.stopped,participant,run,date,expName,psychopyVersion,frameRate,
,,,,,,,,,,,12.088279900024645,None,return,80.96902820002288,12.088279900024645,None,,,,,,,,,,,,,,,,,,,,,,,,,,,,,,,,,,,,,,,,,,,,,,,,,,,,,,,12010,0002,2022_Feb_01_1441,localizer,2021.1.3,59.560751361354626,
,,,,,,,,,,,,,,,,,93.10470160003752,None,93.10470160003752,None,return,1.6507236000034027,93.10470160003752,None,,,,,,,,,,,,,,,,,,,,,,,,,,,,,,,,,,,,,,,,,,,,,,,12010,0002,2022_Feb_01_1441,localizer,2021.1.3,59.560751361354626,
,,,0,0,0,0,,,,,,,,,,,,,,,,,,,94.76809960004175,None,95.76784929999849,None,y,2.7857183999731205,95.76784929999849,None,98.5851184000494,None,b,1.0634999999892898,98.5851184000494,None,99.66963330004364,None,n,0,14.872208999993745,99.66963330004364,None,,,,,,,,,,,,,,,,,,,,,,,,,,12010,0002,2022_Feb_01_1441,localizer,2021.1.3,59.560751361354626,
,,,,,,,,,,,,,,,,,,,,,,,,,,,,,,,,,,,,,,,,,,,,,,114.56753880000906,None,y,5.023104900028557,114.56753880000906,None,,,,,,,,,,,,,,,,,,,,12010,0002,2022_Feb_01_1441,localizer,2021.1.3,59.560751361354626,
block_start,scenes,scenes040.bmp,,,,,0,0,0,0,,,,,,,,,,,,,,,,,,,,,,,,,,,,,,,,,,,,,,,,,,t,15.425041700014845,119.64257000002544,None,119.64257000002544,None,2022-02-01-14:43:55.851791,135.0853745000204,135.38455120002618,135.0853745000204,None,None,135.0853745000204,None,135.88491583004944,None,,,,12010,0002,2022_Feb_01_1441,localizer,2021.1.3,59.560751361354626,
block,scenes,scenes061.bmp,,,,,0,1,1,1,,,,,,,,,,,,,,,,,,,,,,,,,,,,,,,,,,,,,,,,,,None,,135.88491583004944,None,135.88491583004944,None,2022-02-01-14:43:56.657682,135.88965080003254,136.20113220001804,135.88965080003254,135.88965080003254,None,135.88965080003254,135.88965080003254,136.7023169299995,None,,,,12010,0002,2022_Feb_01_1441,localizer,2021.1.3,59.560751361354626,
block,scenes,scenes019.bmp,,,,,0,2,2,2,,,,,,,,,,,,,,,,,,,,,,,,,,,,,,,,,,,,,,,,,,None,,136.7023169299995,None,136.7023169299995,None,2022-02-01-14:43:57.472079,136.70434420002857,137.01898400002392,136.70434420002857,None,None,136.70434420002857,None,137.51843673003023,None,,,,12010,0002,2022_Feb_01_1441,localizer,2021.1.3,59.560751361354626,
block,scenes,scenes076.bmp,,,,,0,3,3,3,,,,,,,,,,,,,,,,,,,,,,,,,,,,,,,,,,,,,,,,,,None,,137.51843673003023,None,137.51843673003023,None,2022-02-01-14:43:58.288085,137.5298260000418,137.83463029999984,137.5298260000418,None,None,137.5298260000418,None,138.33498392999755,None,,,,12010,0002,2022_Feb_01_1441,localizer,2021.1.3,59.560751361354626,
block,scenes,scenes027.bmp,,,,,0,4,4,4,,,,,,,,,,,,,,,,,,,,,,,,,,,,,,,,,,,,,,,,,,None,,138.33498392999755,None,138.33498392999755,None,2022-02-01-14:43:59.103610,138.3356741000316,138.63575180002954,138.3356741000316,None,None,138.3356741000316,None,139.15126673004707,None,,,,12010,0002,2022_Feb_01_1441,localizer,2021.1.3,59.560751361354626,
block,scenes,scenes041.bmp,,,,,0,5,5,5,,,,,,,,,,,,,,,,,,,,,,,,,,,,,,,,,,,,,,,,,,None,,139.15126673004707,None,139.15126673004707,None,2022-02-01-14:43:59.919943,139.15245520003373,139.4679471999989,139.15245520003373,None,None,139.15245520003373,None,139.95730423002388,None,,,,12010,0002,2022_Feb_01_1441,localizer,2021.1.3,59.560751361354626,
block,scenes,scenes003.bmp,,,,,0,6,6,6,,,,,,,,,,,,,,,,,,,,,,,,,,,,,,,,,,,,,,,,,,None,,139.95730423002388,None,139.95730423002388,None,2022-02-01-14:44:00.729920,139.96124730003066,140.26798190001864,139.96124730003066,None,None,139.96124730003066,None,140.7684792300046,None,,,,12010,0002,2022_Feb_01_1441,localizer,2021.1.3,59.560751361354626,
block,scenes,scenes025.bmp,,,,,0,7,7,7,,,,,,,,,,,,,,,,,,,,,,,,,,,,,,,,,,,,,,,,,,None,,140.7684792300046,None,140.7684792300046,None,2022-02-01-14:44:01.537433,140.78380299999844,141.08478040003683,140.78380299999844,None,None,140.78380299999844,None,141.5859936300025,None,,,,12010,0002,2022_Feb_01_1441,localizer,2021.1.3,59.560751361354626,
block,scenes,scenes067.bmp,,,,,0,8,8,8,,,,,,,,,,,,,,,,,,,,,,,,,,,,,,,,,,,,,,,,,,None,,141.5859936300025,None,141.5859936300025,None,2022-02-01-14:44:02.356629,141.58886610000627,141.90206290001515,141.58886610000627,None,None,141.58886610000627,None,142.40265063004918,None,,,,12010,0002,2022_Feb_01_1441,localizer,2021.1.3,59.560751361354626,
block,scenes,scenes052.bmp,,,,,0,9,9,9,,,,,,,,,,,,,,,,,,,,,,,,,,,,,,,,,,,,,,,,,,None,,142.40265063004918,None,142.40265063004918,None,2022-02-01-14:44:03.170386,142.40987850003876,142.71802650002064,142.40987850003876,None,None,142.40987850003876,None,143.21826733003255,None,,,,12010,0002,2022_Feb_01_1441,localizer,2021.1.3,59.560751361354626,
block,scenes,scenes068.bmp,,,,,0,10,10,10,,,,,,,,,,,,,,,,,,,,,,,,,,,,,,,,,,,,,,,,,,None,,143.21826733003255,None,143.21826733003255,None,2022-02-01-14:44:03.986939,143.21935020003002,143.5345775000169,143.21935020003002,None,None,143.21935020003002,None,144.0191615300195,None,,,,12010,0002,2022_Feb_01_1441,localizer,2021.1.3,59.560751361354626,
block,scenes,scenes066.bmp,,,,,0,11,11,11,,,,,,,,,,,,,,,,,,,,,,,,,,,,,,,,,,,,,,,,,,None,,144.0191615300195,None,144.0191615300195,None,2022-02-01-14:44:04.790815,144.03311250003753,144.33451549999882,144.03311250003753,144.03311250003753,None,144.03311250003753,144.03311250003753,144.8361920299998,None,,,,12010,0002,2022_Feb_01_1441,localizer,2021.1.3,59.560751361354626,
block,scenes,scenes055.bmp,,,,,0,12,12,12,,,,,,,,,,,,,,,,,,,,,,,,,,,,,,,,,,,,,,,,,,None,,144.8361920299998,None,144.8361920299998,None,2022-02-01-14:44:05.606845,144.83923440001672,145.14033120003296,144.83923440001672,None,None,144.83923440001672,None,145.65162763000117,None,,,,12010,0002,2022_Feb_01_1441,localizer,2021.1.3,59.560751361354626,
block,scenes,scenes035.bmp,,,,,0,13,13,13,,,,,,,,,,,,,,,,,,,,,,,,,,,,,,,,,,,,,,,,,,None,,145.65162763000117,None,145.65162763000117,None,2022-02-01-14:44:06.420418,145.66223499999614,145.9677410000004,145.66223499999614,None,None,145.66223499999614,None,146.46791283001076,None,,,,12010,0002,2022_Feb_01_1441,localizer,2021.1.3,59.560751361354626,
block_end,scenes,scenes089.bmp,,,,,0,14,14,14,,,,,,,,,,,,,,,,,,,,,,,,,,,,,,,,,,,,,,,,,,None,,146.46791283001076,None,146.46791283001076,None,2022-02-01-14:44:07.236593,146.4766595000401,146.7846246000263,146.4766595000401,None,None,146.4766595000401,None,147.2853976300161,None,,,,12010,0002,2022_Feb_01_1441,localizer,2021.1.3,59.560751361354626,
block_start,scrambled,scrambled041.bmp,,,,,0,15,15,15,,,,,,,,,,,,,,,,,,,,,,,,,,,,,,,,,,,,,,,,,,t,1.7823218999546953,147.28540170000633,None,147.28540170000633,None,2022-02-01-14:44:09.852718,149.0937813000055,149.4070443000528,149.0937813000055,None,None,149.0937813000055,None,149.9020868300053,None,,,,12010,0002,2022_Feb_01_1441,localizer,2021.1.3,59.560751361354626,
block,scrambled,scrambled073.bmp,,,,,0,16,16,16,,,,,,,,,,,,,,,,,,,,,,,,,,,,,,,,,,,,,,,,,,None,,149.9020868300053,None,149.9020868300053,None,2022-02-01-14:44:10.671751,149.9123373000184,150.21799390000524,149.9123373000184,None,None,149.9123373000184,None,150.71871213004343,None,,,,12010,0002,2022_Feb_01_1441,localizer,2021.1.3,59.560751361354626,
block,scrambled,scrambled055.bmp,,,,,0,17,17,17,,,,,,,,,,,,,,,,,,,,,,,,,,,,,,,,,,,,,,,,,,None,,150.71871213004343,None,150.71871213004343,None,2022-02-01-14:44:11.489265,150.7316255000187,151.03530879999744,150.7316255000187,None,None,150.7316255000187,None,151.53513983003214,None,,,,12010,0002,2022_Feb_01_1441,localizer,2021.1.3,59.560751361354626,
block,scrambled,scrambled011.bmp,,,,,0,18,18,18,,,,,,,,,,,,,,,,,,,,,,,,,,,,,,,,,,,,,,,,,,None,,151.53513983003214,None,151.53513983003214,None,2022-02-01-14:44:12.303940,151.5358669999987,151.83490560000064,151.5358669999987,None,None,151.5358669999987,None,152.33500393003342,None,,,,12010,0002,2022_Feb_01_1441,localizer,2021.1.3,59.560751361354626,
block,scrambled,scrambled059.bmp,,,,,0,19,19,19,,,,,,,,,,,,,,,,,,,,,,,,,,,,,,,,,,,,,,,,,,None,,152.33500393003342,None,152.33500393003342,None,2022-02-01-14:44:13.105670,152.33762280002702,152.65146760002244,152.33762280002702,152.33762280002702,None,152.33762280002702,152.33762280002702,153.151793130039,None,,,,12010,0002,2022_Feb_01_1441,localizer,2021.1.3,59.560751361354626,
block,scrambled,scrambled007.bmp,,,,,0,20,20,20,,,,,,,,,,,,,,,,,,,,,,,,,,,,,,,,,,,,,,,,,,None,,153.151793130039,None,153.151793130039,None,2022-02-01-14:44:13.920467,153.16220040002372,153.46937480004271,153.16220040002372,None,None,153.16220040002372,None,153.95800683001872,None,,,,12010,0002,2022_Feb_01_1441,localizer,2021.1.3,59.560751361354626,
block,scrambled,scrambled008.bmp,,,,,0,21,21,21,,,,,,,,,,,,,,,,,,,,,,,,,,,,,,,,,,,,,,,,,,None,,153.95800683001872,None,153.95800683001872,None,2022-02-01-14:44:14.732602,153.97523460001685,154.2851009000442,153.97523460001685,None,None,153.97523460001685,None,154.76848473004648,None,,,,12010,0002,2022_Feb_01_1441,localizer,2021.1.3,59.560751361354626,
block,scrambled,scrambled024.bmp,,,,,0,22,22,22,,,,,,,,,,,,,,,,,,,,,,,,,,,,,,,,,,,,,,,,,,None,,154.76848473004648,None,154.76848473004648,None,2022-02-01-14:44:15.537304,154.7692552000517,155.0847135000513,154.7692552000517,None,None,154.7692552000517,None,155.56830973004108,None,,,,12010,0002,2022_Feb_01_1441,localizer,2021.1.3,59.560751361354626,
block,scrambled,scrambled004.bmp,,,,,0,23,23,23,,,,,,,,,,,,,,,,,,,,,,,,,,,,,,,,,,,,,,,,,,None,,155.56830973004108,None,155.56830973004108,None,2022-02-01-14:44:16.338978,155.56945760000963,155.8847919999971,155.56945760000963,155.56945760000963,None,155.56945760000963,155.56945760000963,156.36885773001123,None,,,,12010,0002,2022_Feb_01_1441,localizer,2021.1.3,59.560751361354626,
block,scrambled,scrambled087.bmp,,,,,0,24,24,24,,,,,,,,,,,,,,,,,,,,,,,,,,,,,,,,,,,,,,,,,,None,,156.36885773001123,None,156.36885773001123,None,2022-02-01-14:44:17.140532,156.3717747000046,156.68463730002986,156.3717747000046,156.3717747000046,None,156.3717747000046,156.3717747000046,157.18505973002758,None,,,,12010,0002,2022_Feb_01_1441,localizer,2021.1.3,59.560751361354626,
block,scrambled,scrambled012.bmp,,,,,0,25,25,25,,,,,,,,,,,,,,,,,,,,,,,,,,,,,,,,,,,,,,,,,,None,,157.18505973002758,None,157.18505973002758,None,2022-02-01-14:44:17.953857,157.19442440004786,157.5015132999979,157.19442440004786,None,None,157.19442440004786,None,158.00147893000977,None,,,,12010,0002,2022_Feb_01_1441,localizer,2021.1.3,59.560751361354626,
block,scrambled,scrambled057.bmp,,,,,0,26,26,26,,,,,,,,,,,,,,,,,,,,,,,,,,,,,,,,,,,,,,,,,,None,,158.00147893000977,None,158.00147893000977,None,2022-02-01-14:44:18.770158,158.01023070001975,158.31797710002866,158.01023070001975,None,None,158.01023070001975,None,158.81915073004203,None,,,,12010,0002,2022_Feb_01_1441,localizer,2021.1.3,59.560751361354626,
block,scrambled,scrambled023.bmp,,,,,0,27,27,27,,,,,,,,,,,,,,,,,,,,,,,,,,,,,,,,,,,,,,,,,,None,,158.81915073004203,None,158.81915073004203,None,2022-02-01-14:44:19.589574,158.82162020000396,159.11963490000926,158.82162020000396,None,None,158.82162020000396,None,159.63549973001355,None,,,,12010,0002,2022_Feb_01_1441,localizer,2021.1.3,59.560751361354626,
block,scrambled,scrambled081.bmp,,,,,0,28,28,28,,,,,,,,,,,,,,,,,,,,,,,,,,,,,,,,,,,,,,,,,,None,,159.63549973001355,None,159.63549973001355,None,2022-02-01-14:44:20.406182,159.63727649999782,159.95150300004752,159.63727649999782,None,None,159.63727649999782,None,160.4407713300374,None,,,,12010,0002,2022_Feb_01_1441,localizer,2021.1.3,59.560751361354626,
block_end,scrambled,scrambled013.bmp,,,,,0,29,29,29,,,,,,,,,,,,,,,,,,,,,,,,,,,,,,,,,,,,,,,,,,None,,160.4407713300374,None,160.4407713300374,None,2022-02-01-14:44:21.217348,160.45931490004295,160.76827680005226,160.45931490004295,160.45931490004295,None,160.45931490004295,160.45931490004295,161.2514566300146,None,,,,12010,0002,2022_Feb_01_1441,localizer,2021.1.3,59.560751361354626,
null_block,null_block,null_block.bmp,,,,,0,30,30,30,,,,,,,,,,,,,,,,,,,,,,,,,,,,,,,,,,,,,,,,,,t,1.8163041999796405,161.25134030001936,None,161.25134030001936,None,2022-02-01-14:44:23.853978,163.0852580300474,None,163.0852580300474,None,None,163.0852580300474,None,163.09109320002608,None,,,,12010,0002,2022_Feb_01_1441,localizer,2021.1.3,59.560751361354626,
block_start,faces,faces051.bmp,,,,,0,31,31,31,,,,,,,,,,,,,,,,,,,,,,,,,,,,,,,,,,,,,,,,,,t,1.9627433000132442,175.10494440002367,None,175.10494440002367,None,2022-02-01-14:44:37.855726,177.0867000000435,177.40176870004507,177.0867000000435,None,None,177.0867000000435,None,177.90213553002687,None,,,,12010,0002,2022_Feb_01_1441,localizer,2021.1.3,59.560751361354626,
block,faces,faces057.bmp,,,,,0,32,32,32,,,,,,,,,,,,,,,,,,,,,,,,,,,,,,,,,,,,,,,,,,None,,177.90213553002687,None,177.90213553002687,None,2022-02-01-14:44:38.670819,177.9027921000379,178.2020816000295,177.9027921000379,None,None,177.9027921000379,None,178.70180353004835,None,,,,12010,0002,2022_Feb_01_1441,localizer,2021.1.3,59.560751361354626,
block,faces,faces058.bmp,,,,,0,33,33,33,,,,,,,,,,,,,,,,,,,,,,,,,,,,,,,,,,,,,,,,,,None,,178.70180353004835,None,178.70180353004835,None,2022-02-01-14:44:39.472498,178.7134285000502,179.0185186000308,178.7134285000502,178.7134285000502,None,178.7134285000502,178.7134285000502,179.51875493000844,None,,,,12010,0002,2022_Feb_01_1441,localizer,2021.1.3,59.560751361354626,
block,faces,faces077.bmp,,,,,0,34,34,34,,,,,,,,,,,,,,,,,,,,,,,,,,,,,,,,,,,,,,,,,,None,,179.51875493000844,None,179.51875493000844,None,2022-02-01-14:44:40.287646,179.51962550001917,179.84145420003915,179.51962550001917,None,None,179.51962550001917,None,180.33535013005022,None,,,,12010,0002,2022_Feb_01_1441,localizer,2021.1.3,59.560751361354626,
block,faces,faces016.bmp,,,,,0,35,35,35,,,,,,,,,,,,,,,,,,,,,,,,,,,,,,,,,,,,,,,,,,None,,180.33535013005022,None,180.33535013005022,None,2022-02-01-14:44:41.104058,180.34681370004546,180.65180780005176,180.34681370004546,None,None,180.34681370004546,None,181.15315523004975,None,,,,12010,0002,2022_Feb_01_1441,localizer,2021.1.3,59.560751361354626,
block,faces,faces011.bmp,,,,,0,36,36,36,,,,,,,,,,,,,,,,,,,,,,,,,,,,,,,,,,,,,,,,,,None,,181.15315523004975,None,181.15315523004975,None,2022-02-01-14:44:41.923307,181.15594409999903,181.46802830003435,181.15594409999903,None,None,181.15594409999903,None,181.9685026300198,None,,,,12010,0002,2022_Feb_01_1441,localizer,2021.1.3,59.560751361354626,
block,faces,faces046.bmp,,,,,0,37,37,37,,,,,,,,,,,,,,,,,,,,,,,,,,,,,,,,,,,,,,,,,,None,,181.9685026300198,None,181.9685026300198,None,2022-02-01-14:44:42.737452,181.9693456000532,182.26860170002328,181.9693456000532,None,None,181.9693456000532,None,182.76851632999606,None,,,,12010,0002,2022_Feb_01_1441,localizer,2021.1.3,59.560751361354626,
block,faces,faces025.bmp,,,,,0,38,38,38,,,,,,,,,,,,,,,,,,,,,,,,,,,,,,,,,,,,,,,,,,None,,182.76851632999606,None,182.76851632999606,None,2022-02-01-14:44:43.539198,182.77966050000396,183.0852299000253,182.77966050000396,182.77966050000396,None,182.77966050000396,182.77966050000396,183.58609783003922,None,,,,12010,0002,2022_Feb_01_1441,localizer,2021.1.3,59.560751361354626,
block,faces,faces001.bmp,,,,,0,39,39,39,,,,,,,,,,,,,,,,,,,,,,,,,,,,,,,,,,,,,,,,,,None,,183.58609783003922,None,183.58609783003922,None,2022-02-01-14:44:44.356501,183.59922910004389,183.90794040000765,183.59922910004389,None,None,183.59922910004389,None,184.4018945299962,None,,,,12010,0002,2022_Feb_01_1441,localizer,2021.1.3,59.560751361354626,
block,faces,faces022.bmp,,,,,0,40,40,40,,,,,,,,,,,,,,,,,,,,,,,,,,,,,,,,,,,,,,,,,,None,,184.4018945299962,None,184.4018945299962,None,2022-02-01-14:44:45.170580,184.40278270002455,184.70213400002103,184.40278270002455,None,None,184.40278270002455,None,185.21834863001132,None,,,,12010,0002,2022_Feb_01_1441,localizer,2021.1.3,59.560751361354626,
block,faces,faces032.bmp,,,,,0,41,41,41,,,,,,,,,,,,,,,,,,,,,,,,,,,,,,,,,,,,,,,,,,None,,185.21834863001132,None,185.21834863001132,None,2022-02-01-14:44:45.987041,185.22639660001732,185.53490160004003,185.22639660001732,None,None,185.22639660001732,None,186.03572523000767,None,,,,12010,0002,2022_Feb_01_1441,localizer,2021.1.3,59.560751361354626,
block,faces,faces037.bmp,,,,,0,42,42,42,,,,,,,,,,,,,,,,,,,,,,,,,,,,,,,,,,,,,,,,,,None,,186.03572523000767,None,186.03572523000767,None,2022-02-01-14:44:46.805405,186.03632510005264,186.33559980004793,186.03632510005264,None,None,186.03632510005264,None,186.83648343000678,None,,,,12010,0002,2022_Feb_01_1441,localizer,2021.1.3,59.560751361354626,
block,faces,faces012.bmp,,,,,0,43,43,43,,,,,,,,,,,,,,,,,,,,,,,,,,,,,,,,,,,,,,,,,,None,,186.83648343000678,None,186.83648343000678,None,2022-02-01-14:44:47.608661,186.85071740002604,187.15241150005022,186.85071740002604,186.85071740002604,None,186.85071740002604,186.85071740002604,187.6530839300307,None,,,,12010,0002,2022_Feb_01_1441,localizer,2021.1.3,59.560751361354626,
block,faces,faces055.bmp,,,,,0,44,44,44,,,,,,,,,,,,,,,,,,,,,,,,,,,,,,,,,,,,,,,,,,None,,187.6530839300307,None,187.6530839300307,None,2022-02-01-14:44:48.422930,187.66641530004563,187.96846480004024,187.66641530004563,None,None,187.66641530004563,None,188.45824733004557,None,,,,12010,0002,2022_Feb_01_1441,localizer,2021.1.3,59.560751361354626,
block_end,faces,faces040.bmp,,,,,0,45,45,45,,,,,,,,,,,,,,,,,,,,,,,,,,,,,,,,,,,,,,,,,,None,,188.45824733004557,None,188.45824733004557,None,2022-02-01-14:44:49.234823,188.48318750003818,188.7850036000018,188.48318750003818,None,None,188.48318750003818,None,189.2697796300112,None,,,,12010,0002,2022_Feb_01_1441,localizer,2021.1.3,59.560751361354626,
block_start,objects,objects076.bmp,,,,,0,46,46,46,,,,,,,,,,,,,,,,,,,,,,,,,,,,,,,,,,,,,,,,,,t,1.797920899989549,189.26977820001775,None,189.26977820001775,None,2022-02-01-14:44:51.853079,191.0942201000289,191.40172030002577,191.0942201000289,None,None,191.0942201000289,None,191.90203693003278,None,,,,12010,0002,2022_Feb_01_1441,localizer,2021.1.3,59.560751361354626,
block,objects,objects009.bmp,,,,,0,47,47,47,,,,,,,,,,,,,,,,,,,,,,,,,,,,,,,,,,,,,,,,,,None,,191.90203693003278,None,191.90203693003278,None,2022-02-01-14:44:52.670943,191.90277110005263,192.2020257000113,191.90277110005263,None,None,191.90277110005263,None,192.7019757300208,None,,,,12010,0002,2022_Feb_01_1441,localizer,2021.1.3,59.560751361354626,
block,objects,objects006.bmp,,,,,0,48,48,48,,,,,,,,,,,,,,,,,,,,,,,,,,,,,,,,,,,,,,,,,,None,,192.7019757300208,None,192.7019757300208,None,2022-02-01-14:44:53.471664,192.702866800013,193.00200650002807,192.702866800013,192.702866800013,None,192.702866800013,192.702866800013,193.5018783300242,None,,,,12010,0002,2022_Feb_01_1441,localizer,2021.1.3,59.560751361354626,
block,objects,objects043.bmp,,,,,0,49,49,49,,,,,,,,,,,,,,,,,,,,,,,,,,,,,,,,,,,,,,,,,,None,,193.5018783300242,None,193.5018783300242,None,2022-02-01-14:44:54.271566,193.50252950005233,193.80173150001792,193.50252950005233,193.50252950005233,None,193.50252950005233,193.50252950005233,194.30409373000148,None,,,,12010,0002,2022_Feb_01_1441,localizer,2021.1.3,59.560751361354626,
block,objects,objects047.bmp,,,,,0,50,50,50,,,,,,,,,,,,,,,,,,,,,,,,,,,,,,,,,,,,,,,,,,None,,194.30409373000148,None,194.30409373000148,None,2022-02-01-14:44:55.078915,194.347717800003,194.65241860004608,194.347717800003,194.347717800003,None,194.347717800003,194.347717800003,195.1234186300484,None,,,,12010,0002,2022_Feb_01_1441,localizer,2021.1.3,59.560751361354626,
block,objects,objects085.bmp,,,,,0,51,51,51,,,,,,,,,,,,,,,,,,,,,,,,,,,,,,,,,,,,,,,,,,None,,195.1234186300484,None,195.1234186300484,None,2022-02-01-14:44:55.895270,195.1267555000377,195.43513830000302,195.1267555000377,None,None,195.1267555000377,None,195.93530113000307,None,,,,12010,0002,2022_Feb_01_1441,localizer,2021.1.3,59.560751361354626,
block,objects,objects046.bmp,,,,,0,52,52,52,,,,,,,,,,,,,,,,,,,,,,,,,,,,,,,,,,,,,,,,,,None,,195.93530113000307,None,195.93530113000307,None,2022-02-01-14:44:56.704892,195.93625850003446,196.2355380000081,195.93625850003446,None,None,195.93625850003446,None,196.73591683002306,None,,,,12010,0002,2022_Feb_01_1441,localizer,2021.1.3,59.560751361354626,
block,objects,objects013.bmp,,,,,0,53,53,53,,,,,,,,,,,,,,,,,,,,,,,,,,,,,,,,,,,,,,,,,,None,,196.73591683002306,None,196.73591683002306,None,2022-02-01-14:44:57.507588,196.74838720000116,197.0517559000291,196.74838720000116,196.74838720000116,None,196.74838720000116,196.74838720000116,197.5520003300102,None,,,,12010,0002,2022_Feb_01_1441,localizer,2021.1.3,59.560751361354626,
block,objects,objects034.bmp,,,,,0,54,54,54,,,,,,,,,,,,,,,,,,,,,,,,,,,,,,,,,,,,,,,,,,None,,197.5520003300102,None,197.5520003300102,None,2022-02-01-14:44:58.320691,197.56102429999737,197.86893690004945,197.56102429999737,None,None,197.56102429999737,None,198.3688606300333,None,,,,12010,0002,2022_Feb_01_1441,localizer,2021.1.3,59.560751361354626,
block,objects,objects079.bmp,,,,,0,55,55,55,,,,,,,,,,,,,,,,,,,,,,,,,,,,,,,,,,,,,,,,,,None,,198.3688606300333,None,198.3688606300333,None,2022-02-01-14:44:59.137776,198.3696814000141,198.6854222000111,198.3696814000141,None,None,198.3696814000141,None,199.16877073003562,None,,,,12010,0002,2022_Feb_01_1441,localizer,2021.1.3,59.560751361354626,
block,objects,objects079.bmp,,,,,0,56,56,56,,,,,,,,,,,,,,,,,,,,,,,,,,,,,,,,,,,,,,,,,,None,,199.16877073003562,None,199.16877073003562,None,2022-02-01-14:44:59.938740,199.16945250000572,199.4851411000127,199.16945250000572,199.16945250000572,y,199.16945250000572,199.16945250000572,199.96890243003728,None,0.5989166999934241,,,12010,0002,2022_Feb_01_1441,localizer,2021.1.3,59.560751361354626,
block,objects,objects010.bmp,,,,,0,57,57,57,,,,,,,,,,,,,,,,,,,,,,,,,,,,,,,,,,,,,,,,,,None,,199.96890243003728,None,199.96890243003728,None,2022-02-01-14:45:00.740810,199.97180749999825,200.28529270004947,199.97180749999825,199.97180749999825,None,199.97180749999825,199.97180749999825,200.7857942300092,None,,,,12010,0002,2022_Feb_01_1441,localizer,2021.1.3,59.560751361354626,
block,objects,objects084.bmp,,,,,0,58,58,58,,,,,,,,,,,,,,,,,,,,,,,,,,,,,,,,,,,,,,,,,,None,,200.7857942300092,None,200.7857942300092,None,2022-02-01-14:45:01.554509,200.79657679999946,201.10172670002794,200.79657679999946,None,None,200.79657679999946,None,201.60207523004502,None,,,,12010,0002,2022_Feb_01_1441,localizer,2021.1.3,59.560751361354626,
block,objects,objects083.bmp,,,,,0,59,59,59,,,,,,,,,,,,,,,,,,,,,,,,,,,,,,,,,,,,,,,,,,None,,201.60207523004502,None,201.60207523004502,None,2022-02-01-14:45:02.370767,201.6029035000247,201.9022742000525,201.6029035000247,None,None,201.6029035000247,None,202.40263743000688,None,,,,12010,0002,2022_Feb_01_1441,localizer,2021.1.3,59.560751361354626,
block_end,objects,objects064.bmp,,,,,0,60,60,60,,,,,,,,,,,,,,,,,,,,,,,,,,,,,,,,,,,,,,,,,,None,,202.40263743000688,None,202.40263743000688,None,2022-02-01-14:45:03.174311,202.40560800000094,202.71929110004567,202.40560800000094,202.40560800000094,None,202.40560800000094,202.40560800000094,203.21853903000593,None,,,,12010,0002,2022_Feb_01_1441,localizer,2021.1.3,59.560751361354626,
null_block,null_block,null_block.bmp,,,,,0,61,61,61,,,,,,,,,,,,,,,,,,,,,,,,,,,,,,,,,,,,,,,,,,t,1.8491567999590188,203.21849470003508,None,203.21849470003508,None,2022-02-01-14:45:05.853389,205.08542293002247,None,205.08542293002247,None,None,205.08542293002247,None,205.08692110003904,None,,,,12010,0002,2022_Feb_01_1441,localizer,2021.1.3,59.560751361354626,
block_start,objects,objects036.bmp,,,,,0,62,62,62,,,,,,,,,,,,,,,,,,,,,,,,,,,,,,,,,,,,,,,,,,t,1.9808928000275046,217.08662090002326,None,217.08662090002326,None,2022-02-01-14:45:19.855291,219.09506449999753,219.401995000022,219.09506449999753,None,None,219.09506449999753,None,219.90229903004948,None,,,,12010,0002,2022_Feb_01_1441,localizer,2021.1.3,59.560751361354626,
block,objects,objects060.bmp,,,,,0,63,63,63,,,,,,,,,,,,,,,,,,,,,,,,,,,,,,,,,,,,,,,,,,None,,219.90229903004948,None,219.90229903004948,None,2022-02-01-14:45:20.670991,219.90302970004268,220.20223870000336,219.90302970004268,None,None,219.90302970004268,None,220.70269413001952,None,,,,12010,0002,2022_Feb_01_1441,localizer,2021.1.3,59.560751361354626,
block,objects,objects065.bmp,,,,,0,64,64,64,,,,,,,,,,,,,,,,,,,,,,,,,,,,,,,,,,,,,,,,,,None,,220.70269413001952,None,220.70269413001952,None,2022-02-01-14:45:21.473986,220.71359290002147,221.0193755000364,220.71359290002147,220.71359290002147,None,220.71359290002147,220.71359290002147,221.5191196300497,None,,,,12010,0002,2022_Feb_01_1441,localizer,2021.1.3,59.560751361354626,
block,objects,objects021.bmp,,,,,0,65,65,65,,,,,,,,,,,,,,,,,,,,,,,,,,,,,,,,,,,,,,,,,,None,,221.5191196300497,None,221.5191196300497,None,2022-02-01-14:45:22.287811,221.52891720004845,221.83571230003145,221.52891720004845,None,None,221.52891720004845,None,222.32548992999946,None,,,,12010,0002,2022_Feb_01_1441,localizer,2021.1.3,59.560751361354626,
block,objects,objects070.bmp,,,,,0,66,66,66,,,,,,,,,,,,,,,,,,,,,,,,,,,,,,,,,,,,,,,,,,None,,222.32548992999946,None,222.32548992999946,None,2022-02-01-14:45:23.098147,222.33908770000562,222.65211389999604,222.33908770000562,None,None,222.33908770000562,None,223.13555053005112,None,,,,12010,0002,2022_Feb_01_1441,localizer,2021.1.3,59.560751361354626,
block,objects,objects033.bmp,,,,,0,67,67,67,,,,,,,,,,,,,,,,,,,,,,,,,,,,,,,,,,,,,,,,,,None,,223.13555053005112,None,223.13555053005112,None,2022-02-01-14:45:23.904328,223.1364512,223.43751519999932,223.1364512,None,None,223.1364512,None,223.9421555300418,None,,,,12010,0002,2022_Feb_01_1441,localizer,2021.1.3,59.560751361354626,
block,objects,objects014.bmp,,,,,0,68,68,68,,,,,,,,,,,,,,,,,,,,,,,,,,,,,,,,,,,,,,,,,,None,,223.9421555300418,None,223.9421555300418,None,2022-02-01-14:45:24.717830,223.94999680004548,224.2542351000011,223.94999680004548,None,None,223.94999680004548,None,224.7528759299952,None,,,,12010,0002,2022_Feb_01_1441,localizer,2021.1.3,59.560751361354626,
block,objects,objects084.bmp,,,,,0,69,69,69,,,,,,,,,,,,,,,,,,,,,,,,,,,,,,,,,,,,,,,,,,None,,224.7528759299952,None,224.7528759299952,None,2022-02-01-14:45:25.522641,224.7548311999999,225.06890870002098,224.7548311999999,None,None,224.7548311999999,None,225.56885903003277,None,,,,12010,0002,2022_Feb_01_1441,localizer,2021.1.3,59.560751361354626,
block,objects,objects078.bmp,,,,,0,70,70,70,,,,,,,,,,,,,,,,,,,,,,,,,,,,,,,,,,,,,,,,,,None,,225.56885903003277,None,225.56885903003277,None,2022-02-01-14:45:26.337701,225.5812000000151,225.88551110000117,225.5812000000151,None,None,225.5812000000151,None,226.38619103003876,None,,,,12010,0002,2022_Feb_01_1441,localizer,2021.1.3,59.560751361354626,
block,objects,objects063.bmp,,,,,0,71,71,71,,,,,,,,,,,,,,,,,,,,,,,,,,,,,,,,,,,,,,,,,,None,,226.38619103003876,None,226.38619103003876,None,2022-02-01-14:45:27.156069,226.38700510002673,226.70250360004138,226.38700510002673,None,None,226.38700510002673,None,227.20268573001377,None,,,,12010,0002,2022_Feb_01_1441,localizer,2021.1.3,59.560751361354626,
block,objects,objects080.bmp,,,,,0,72,72,72,,,,,,,,,,,,,,,,,,,,,,,,,,,,,,,,,,,,,,,,,,None,,227.20268573001377,None,227.20268573001377,None,2022-02-01-14:45:27.971480,227.21371999999974,227.5194477000041,227.21371999999974,None,None,227.21371999999974,None,228.02001723001595,None,,,,12010,0002,2022_Feb_01_1441,localizer,2021.1.3,59.560751361354626,
block,objects,objects085.bmp,,,,,0,73,73,73,,,,,,,,,,,,,,,,,,,,,,,,,,,,,,,,,,,,,,,,,,None,,228.02001723001595,None,228.02001723001595,None,2022-02-01-14:45:28.789669,228.0221778000123,228.33590470004128,228.0221778000123,None,None,228.0221778000123,None,228.83625403000624,None,,,,12010,0002,2022_Feb_01_1441,localizer,2021.1.3,59.560751361354626,
block,objects,objects053.bmp,,,,,0,74,74,74,,,,,,,,,,,,,,,,,,,,,,,,,,,,,,,,,,,,,,,,,,None,,228.83625403000624,None,228.83625403000624,None,2022-02-01-14:45:29.610970,228.8474925000337,229.15209240000695,228.8474925000337,None,None,228.8474925000337,None,229.6533561300079,None,,,,12010,0002,2022_Feb_01_1441,localizer,2021.1.3,59.560751361354626,
block,objects,objects052.bmp,,,,,0,75,75,75,,,,,,,,,,,,,,,,,,,,,,,,,,,,,,,,,,,,,,,,,,None,,229.6533561300079,None,229.6533561300079,None,2022-02-01-14:45:30.423222,229.65562770003453,229.9692227000487,229.65562770003453,None,None,229.65562770003453,None,230.45516022999655,None,,,,12010,0002,2022_Feb_01_1441,localizer,2021.1.3,59.560751361354626,
block_end,objects,objects012.bmp,,,,,0,76,76,76,,,,,,,,,,,,,,,,,,,,,,,,,,,,,,,,,,,,,,,,,,None,,230.45516022999655,None,230.45516022999655,None,2022-02-01-14:45:31.228924,230.46044270001585,230.76897259999532,230.46044270001585,230.46044270001585,None,230.46044270001585,230.46044270001585,231.26869333000505,None,,,,12010,0002,2022_Feb_01_1441,localizer,2021.1.3,59.560751361354626,
block_start,scrambled,scrambled019.bmp,,,,,0,77,77,77,,,,,,,,,,,,,,,,,,,,,,,,,,,,,,,,,,,,,,,,,,t,1.7995062000118196,231.26878290000604,None,231.26878290000604,None,2022-02-01-14:45:33.852849,233.0931485000183,233.4020074,233.0931485000183,None,None,233.0931485000183,None,233.90236463002512,None,,,,12010,0002,2022_Feb_01_1441,localizer,2021.1.3,59.560751361354626,
block,scrambled,scrambled066.bmp,,,,,0,78,78,78,,,,,,,,,,,,,,,,,,,,,,,,,,,,,,,,,,,,,,,,,,None,,233.90236463002512,None,233.90236463002512,None,2022-02-01-14:45:34.671310,233.90323620004347,234.21875550004188,233.90323620004347,None,None,233.90323620004347,None,234.70300432999503,None,,,,12010,0002,2022_Feb_01_1441,localizer,2021.1.3,59.560751361354626,
block,scrambled,scrambled066.bmp,,,,,0,79,79,79,,,,,,,,,,,,,,,,,,,,,,,,,,,,,,,,,,,,,,,,,,None,,234.70300432999503,None,234.70300432999503,None,2022-02-01-14:45:35.474714,234.70591170003172,235.01913960004458,234.70591170003172,234.70591170003172,y,234.70591170003172,234.70591170003172,235.51865603001207,None,0.5866004999843426,,,12010,0002,2022_Feb_01_1441,localizer,2021.1.3,59.560751361354626,
block,scrambled,scrambled027.bmp,,,,,0,80,80,80,,,,,,,,,,,,,,,,,,,,,,,,,,,,,,,,,,,,,,,,,,None,,235.51865603001207,None,235.51865603001207,None,2022-02-01-14:45:36.287502,235.52778960001888,235.83535910001956,235.52778960001888,None,None,235.52778960001888,None,236.3358495300112,None,,,,12010,0002,2022_Feb_01_1441,localizer,2021.1.3,59.560751361354626,
block,scrambled,scrambled026.bmp,,,,,0,81,81,81,,,,,,,,,,,,,,,,,,,,,,,,,,,,,,,,,,,,,,,,,,None,,236.3358495300112,None,236.3358495300112,None,2022-02-01-14:45:37.104736,236.34549490001518,236.6519986000494,236.34549490001518,None,None,236.34549490001518,None,237.15549083002261,None,,,,12010,0002,2022_Feb_01_1441,localizer,2021.1.3,59.560751361354626,
block,scrambled,scrambled014.bmp,,,,,0,82,82,82,,,,,,,,,,,,,,,,,,,,,,,,,,,,,,,,,,,,,,,,,,None,,237.15549083002261,None,237.15549083002261,None,2022-02-01-14:45:37.926348,237.16258070000913,237.46939470001962,237.16258070000913,None,None,237.16258070000913,None,237.96930733003538,None,,,,12010,0002,2022_Feb_01_1441,localizer,2021.1.3,59.560751361354626,
block,scrambled,scrambled056.bmp,,,,,0,83,83,83,,,,,,,,,,,,,,,,,,,,,,,,,,,,,,,,,,,,,,,,,,None,,237.96930733003538,None,237.96930733003538,None,2022-02-01-14:45:38.739211,237.9791984000476,238.28531659999862,237.9791984000476,None,None,237.9791984000476,None,238.7855383300397,None,,,,12010,0002,2022_Feb_01_1441,localizer,2021.1.3,59.560751361354626,
block,scrambled,scrambled075.bmp,,,,,0,84,84,84,,,,,,,,,,,,,,,,,,,,,,,,,,,,,,,,,,,,,,,,,,None,,238.7855383300397,None,238.7855383300397,None,2022-02-01-14:45:39.554234,238.79466900002444,239.10204830003204,238.79466900002444,None,None,238.79466900002444,None,239.6020134300401,None,,,,12010,0002,2022_Feb_01_1441,localizer,2021.1.3,59.560751361354626,
block,scrambled,scrambled084.bmp,,,,,0,85,85,85,,,,,,,,,,,,,,,,,,,,,,,,,,,,,,,,,,,,,,,,,,None,,239.6020134300401,None,239.6020134300401,None,2022-02-01-14:45:40.370804,239.61166610004148,239.91874400002416,239.61166610004148,None,None,239.61166610004148,None,240.41830753000104,None,,,,12010,0002,2022_Feb_01_1441,localizer,2021.1.3,59.560751361354626,
block,scrambled,scrambled035.bmp,,,,,0,86,86,86,,,,,,,,,,,,,,,,,,,,,,,,,,,,,,,,,,,,,,,,,,None,,240.41830753000104,None,240.41830753000104,None,2022-02-01-14:45:41.185793,240.42064020002726,240.7358019000385,240.42064020002726,None,None,240.42064020002726,None,241.2201295300096,None,,,,12010,0002,2022_Feb_01_1441,localizer,2021.1.3,59.560751361354626,
block,scrambled,scrambled011.bmp,,,,,0,87,87,87,,,,,,,,,,,,,,,,,,,,,,,,,,,,,,,,,,,,,,,,,,None,,241.2201295300096,None,241.2201295300096,None,2022-02-01-14:45:41.992880,241.22544860001653,241.5357731000404,241.22544860001653,241.22544860001653,None,241.22544860001653,241.22544860001653,242.03528243001202,None,,,,12010,0002,2022_Feb_01_1441,localizer,2021.1.3,59.560751361354626,
block,scrambled,scrambled063.bmp,,,,,0,88,88,88,,,,,,,,,,,,,,,,,,,,,,,,,,,,,,,,,,,,,,,,,,None,,242.03528243001202,None,242.03528243001202,None,2022-02-01-14:45:42.803983,242.04402760002995,242.35212759999558,242.04402760002995,None,None,242.04402760002995,None,242.85222202999867,None,,,,12010,0002,2022_Feb_01_1441,localizer,2021.1.3,59.560751361354626,
block,scrambled,scrambled057.bmp,,,,,0,89,89,89,,,,,,,,,,,,,,,,,,,,,,,,,,,,,,,,,,,,,,,,,,None,,242.85222202999867,None,242.85222202999867,None,2022-02-01-14:45:43.620921,242.8531459000078,243.16852070001187,242.8531459000078,None,None,242.8531459000078,None,243.6523121300328,None,,,,12010,0002,2022_Feb_01_1441,localizer,2021.1.3,59.560751361354626,
block,scrambled,scrambled018.bmp,,,,,0,90,90,90,,,,,,,,,,,,,,,,,,,,,,,,,,,,,,,,,,,,,,,,,,None,,243.6523121300328,None,243.6523121300328,None,2022-02-01-14:45:44.422008,243.65327190002427,243.95220690005226,243.65327190002427,243.65327190002427,None,243.65327190002427,243.65327190002427,244.46857253002818,None,,,,12010,0002,2022_Feb_01_1441,localizer,2021.1.3,59.560751361354626,
block_end,scrambled,scrambled043.bmp,,,,,0,91,91,91,,,,,,,,,,,,,,,,,,,,,,,,,,,,,,,,,,,,,,,,,,None,,244.46857253002818,None,244.46857253002818,None,2022-02-01-14:45:45.237276,244.4702149000368,244.78545800002757,244.4702149000368,None,None,244.4702149000368,None,245.2710693299945,None,,,,12010,0002,2022_Feb_01_1441,localizer,2021.1.3,59.560751361354626,
block_start,faces,faces006.bmp,,,,,0,92,92,92,,,,,,,,,,,,,,,,,,,,,,,,,,,,,,,,,,,,,,,,,,t,1.796412399969995,245.2713788000401,None,245.2713788000401,None,2022-02-01-14:45:47.855333,247.08664880000288,247.40218680002727,247.08664880000288,None,None,247.08664880000288,None,247.8858646299981,None,,,,12010,0002,2022_Feb_01_1441,localizer,2021.1.3,59.560751361354626,
block,faces,faces086.bmp,,,,,0,93,93,93,,,,,,,,,,,,,,,,,,,,,,,,,,,,,,,,,,,,,,,,,,None,,247.8858646299981,None,247.8858646299981,None,2022-02-01-14:45:48.656767,247.8887517999974,248.20250579999993,247.8887517999974,247.8887517999974,None,247.8887517999974,247.8887517999974,248.69206333003822,None,,,,12010,0002,2022_Feb_01_1441,localizer,2021.1.3,59.560751361354626,
block,faces,faces083.bmp,,,,,0,94,94,94,,,,,,,,,,,,,,,,,,,,,,,,,,,,,,,,,,,,,,,,,,None,,248.69206333003822,None,248.69206333003822,None,2022-02-01-14:45:49.471659,248.70632320002187,249.0054053000058,248.70632320002187,248.70632320002187,None,248.70632320002187,248.70632320002187,249.50442303001765,None,,,,12010,0002,2022_Feb_01_1441,localizer,2021.1.3,59.560751361354626,
block,faces,faces030.bmp,,,,,0,95,95,95,,,,,,,,,,,,,,,,,,,,,,,,,,,,,,,,,,,,,,,,,,None,,249.50442303001765,None,249.50442303001765,None,2022-02-01-14:45:50.276106,249.5087871000287,249.8196745000314,249.5087871000287,None,None,249.5087871000287,None,250.3197068300273,None,,,,12010,0002,2022_Feb_01_1441,localizer,2021.1.3,59.560751361354626,
block,faces,faces053.bmp,,,,,0,96,96,96,,,,,,,,,,,,,,,,,,,,,,,,,,,,,,,,,,,,,,,,,,None,,250.3197068300273,None,250.3197068300273,None,2022-02-01-14:45:51.089389,250.3305560000008,250.6354735000059,250.3305560000008,None,None,250.3305560000008,None,251.1359715299972,None,,,,12010,0002,2022_Feb_01_1441,localizer,2021.1.3,59.560751361354626,
block,faces,faces036.bmp,,,,,0,97,97,97,,,,,,,,,,,,,,,,,,,,,,,,,,,,,,,,,,,,,,,,,,None,,251.1359715299972,None,251.1359715299972,None,2022-02-01-14:45:51.904882,251.13681019999785,251.45218880003085,251.13681019999785,None,None,251.13681019999785,None,251.93634263001732,None,,,,12010,0002,2022_Feb_01_1441,localizer,2021.1.3,59.560751361354626,
block,faces,faces063.bmp,,,,,0,98,98,98,,,,,,,,,,,,,,,,,,,,,,,,,,,,,,,,,,,,,,,,,,None,,251.93634263001732,None,251.93634263001732,None,2022-02-01-14:45:52.708218,251.9504092000425,252.25233770004706,251.9504092000425,251.9504092000425,None,251.9504092000425,251.9504092000425,252.7523598300235,None,,,,12010,0002,2022_Feb_01_1441,localizer,2021.1.3,59.560751361354626,
block,faces,faces071.bmp,,,,,0,99,99,99,,,,,,,,,,,,,,,,,,,,,,,,,,,,,,,,,,,,,,,,,,None,,252.7523598300235,None,252.7523598300235,None,2022-02-01-14:45:53.521062,252.75340889999643,253.06848790001823,252.75340889999643,None,None,252.75340889999643,None,253.55241773004528,None,,,,12010,0002,2022_Feb_01_1441,localizer,2021.1.3,59.560751361354626,
block,faces,faces068.bmp,,,,,0,100,100,100,,,,,,,,,,,,,,,,,,,,,,,,,,,,,,,,,,,,,,,,,,None,,253.55241773004528,None,253.55241773004528,None,2022-02-01-14:45:54.323111,253.55373320000945,253.8691466000164,253.55373320000945,253.55373320000945,None,253.55373320000945,253.55373320000945,254.36899153004052,None,,,,12010,0002,2022_Feb_01_1441,localizer,2021.1.3,59.560751361354626,
block,faces,faces033.bmp,,,,,0,101,101,101,,,,,,,,,,,,,,,,,,,,,,,,,,,,,,,,,,,,,,,,,,None,,254.36899153004052,None,254.36899153004052,None,2022-02-01-14:45:55.137695,254.37005450000288,254.66916920000222,254.37005450000288,None,None,254.37005450000288,None,255.1691379300377,None,,,,12010,0002,2022_Feb_01_1441,localizer,2021.1.3,59.560751361354626,
block,faces,faces014.bmp,,,,,0,102,102,102,,,,,,,,,,,,,,,,,,,,,,,,,,,,,,,,,,,,,,,,,,None,,255.1691379300377,None,255.1691379300377,None,2022-02-01-14:45:55.939829,255.18103500001598,255.48535329999868,255.18103500001598,255.18103500001598,None,255.18103500001598,255.18103500001598,255.9856023300148,None,,,,12010,0002,2022_Feb_01_1441,localizer,2021.1.3,59.560751361354626,
block,faces,faces039.bmp,,,,,0,103,103,103,,,,,,,,,,,,,,,,,,,,,,,,,,,,,,,,,,,,,,,,,,None,,255.9856023300148,None,255.9856023300148,None,2022-02-01-14:45:56.754309,255.99456690001534,256.3023346000118,255.99456690001534,None,None,255.99456690001534,None,256.8024044300022,None,,,,12010,0002,2022_Feb_01_1441,localizer,2021.1.3,59.560751361354626,
block,faces,faces052.bmp,,,,,0,104,104,104,,,,,,,,,,,,,,,,,,,,,,,,,,,,,,,,,,,,,,,,,,None,,256.8024044300022,None,256.8024044300022,None,2022-02-01-14:45:57.571106,256.803242199996,257.10247900005197,256.803242199996,None,None,256.803242199996,None,257.6023756300041,None,,,,12010,0002,2022_Feb_01_1441,localizer,2021.1.3,59.560751361354626,
block,faces,faces067.bmp,,,,,0,105,105,105,,,,,,,,,,,,,,,,,,,,,,,,,,,,,,,,,,,,,,,,,,None,,257.6023756300041,None,257.6023756300041,None,2022-02-01-14:45:58.372479,257.6032827000017,257.9024641000433,257.6032827000017,257.6032827000017,None,257.6032827000017,257.6032827000017,258.40238213004193,None,,,,12010,0002,2022_Feb_01_1441,localizer,2021.1.3,59.560751361354626,
block_end,faces,faces018.bmp,,,,,0,106,106,106,,,,,,,,,,,,,,,,,,,,,,,,,,,,,,,,,,,,,,,,,,None,,258.40238213004193,None,258.40238213004193,None,2022-02-01-14:45:59.173080,258.40369440003997,258.7190643000067,258.40369440003997,258.40369440003997,None,258.40369440003997,258.40369440003997,259.2187998300127,None,,,,12010,0002,2022_Feb_01_1441,localizer,2021.1.3,59.560751361354626,
block_start,scenes,scenes023.bmp,,,,,0,107,107,107,,,,,,,,,,,,,,,,,,,,,,,,,,,,,,,,,,,,,,,,,,t,1.8492271000286564,259.21881819999544,None,259.21881819999544,None,2022-02-01-14:46:01.853150,261.0869835000485,261.4087423000019,261.0869835000485,None,None,261.0869835000485,None,261.88695473003315,None,,,,12010,0002,2022_Feb_01_1441,localizer,2021.1.3,59.560751361354626,
block,scenes,scenes063.bmp,,,,,0,108,108,108,,,,,,,,,,,,,,,,,,,,,,,,,,,,,,,,,,,,,,,,,,None,,261.88695473003315,None,261.88695473003315,None,2022-02-01-14:46:02.659786,261.90260030003265,262.2023753999965,261.90260030003265,261.90260030003265,None,261.90260030003265,261.90260030003265,262.70556173002694,None,,,,12010,0002,2022_Feb_01_1441,localizer,2021.1.3,59.560751361354626,
block,scenes,scenes017.bmp,,,,,0,109,109,109,,,,,,,,,,,,,,,,,,,,,,,,,,,,,,,,,,,,,,,,,,None,,262.70556173002694,None,262.70556173002694,None,2022-02-01-14:46:03.476450,262.71884330001194,263.01902580005117,262.71884330001194,None,None,262.71884330001194,None,263.519953329995,None,,,,12010,0002,2022_Feb_01_1441,localizer,2021.1.3,59.560751361354626,
block,scenes,scenes009.bmp,,,,,0,110,110,110,,,,,,,,,,,,,,,,,,,,,,,,,,,,,,,,,,,,,,,,,,None,,263.519953329995,None,263.519953329995,None,2022-02-01-14:46:04.290441,263.53144960000645,263.83552000002237,263.53144960000645,None,None,263.53144960000645,None,264.3357249299937,None,,,,12010,0002,2022_Feb_01_1441,localizer,2021.1.3,59.560751361354626,
block,scenes,scenes004.bmp,,,,,0,111,111,111,,,,,,,,,,,,,,,,,,,,,,,,,,,,,,,,,,,,,,,,,,None,,264.3357249299937,None,264.3357249299937,None,2022-02-01-14:46:05.104663,264.3506104000262,264.6525957999984,264.3506104000262,None,None,264.3506104000262,None,265.1537069300015,None,,,,12010,0002,2022_Feb_01_1441,localizer,2021.1.3,59.560751361354626,
block,scenes,scenes008.bmp,,,,,0,112,112,112,,,,,,,,,,,,,,,,,,,,,,,,,,,,,,,,,,,,,,,,,,None,,265.1537069300015,None,265.1537069300015,None,2022-02-01-14:46:05.923386,265.1556143000489,265.4691969000269,265.1556143000489,None,None,265.1556143000489,None,265.9691025300475,None,,,,12010,0002,2022_Feb_01_1441,localizer,2021.1.3,59.560751361354626,
block,scenes,scenes002.bmp,,,,,0,113,113,113,,,,,,,,,,,,,,,,,,,,,,,,,,,,,,,,,,,,,,,,,,None,,265.9691025300475,None,265.9691025300475,None,2022-02-01-14:46:06.737809,265.97828239999944,266.2858696000185,265.97828239999944,None,None,265.97828239999944,None,266.78577153001095,None,,,,12010,0002,2022_Feb_01_1441,localizer,2021.1.3,59.560751361354626,
block,scenes,scenes019.bmp,,,,,0,114,114,114,,,,,,,,,,,,,,,,,,,,,,,,,,,,,,,,,,,,,,,,,,None,,266.78577153001095,None,266.78577153001095,None,2022-02-01-14:46:07.554477,266.78660089999903,267.1087756000343,266.78660089999903,None,None,266.78660089999903,None,267.5858921300445,None,,,,12010,0002,2022_Feb_01_1441,localizer,2021.1.3,59.560751361354626,
block,scenes,scenes020.bmp,,,,,0,115,115,115,,,,,,,,,,,,,,,,,,,,,,,,,,,,,,,,,,,,,,,,,,None,,267.5858921300445,None,267.5858921300445,None,2022-02-01-14:46:08.355594,267.59595990000525,267.90258910000557,267.59595990000525,267.59595990000525,None,267.59595990000525,267.59595990000525,268.4025754300004,None,,,,12010,0002,2022_Feb_01_1441,localizer,2021.1.3,59.560751361354626,
block,scenes,scenes032.bmp,,,,,0,116,116,116,,,,,,,,,,,,,,,,,,,,,,,,,,,,,,,,,,,,,,,,,,None,,268.4025754300004,None,268.4025754300004,None,2022-02-01-14:46:09.171800,268.41365200001746,268.71914699999616,268.41365200001746,None,None,268.41365200001746,None,269.21939943003815,None,,,,12010,0002,2022_Feb_01_1441,localizer,2021.1.3,59.560751361354626,
block,scenes,scenes087.bmp,,,,,0,117,117,117,,,,,,,,,,,,,,,,,,,,,,,,,,,,,,,,,,,,,,,,,,None,,269.21939943003815,None,269.21939943003815,None,2022-02-01-14:46:09.988651,269.2200923000346,269.5195898000384,269.2200923000346,None,None,269.2200923000346,None,270.03581893002263,None,,,,12010,0002,2022_Feb_01_1441,localizer,2021.1.3,59.560751361354626,
block,scenes,scenes052.bmp,,,,,0,118,118,118,,,,,,,,,,,,,,,,,,,,,,,,,,,,,,,,,,,,,,,,,,None,,270.03581893002263,None,270.03581893002263,None,2022-02-01-14:46:10.804525,270.03667230001884,270.3356696999981,270.03667230001884,None,None,270.03667230001884,None,270.83717163000836,None,,,,12010,0002,2022_Feb_01_1441,localizer,2021.1.3,59.560751361354626,
block,scenes,scenes029.bmp,,,,,0,119,119,119,,,,,,,,,,,,,,,,,,,,,,,,,,,,,,,,,,,,,,,,,,None,,270.83717163000836,None,270.83717163000836,None,2022-02-01-14:46:11.609281,270.85104620002676,271.1523608000134,270.85104620002676,270.85104620002676,None,270.85104620002676,270.85104620002676,271.65243153001063,None,,,,12010,0002,2022_Feb_01_1441,localizer,2021.1.3,59.560751361354626,
block,scenes,scenes062.bmp,,,,,0,120,120,120,,,,,,,,,,,,,,,,,,,,,,,,,,,,,,,,,,,,,,,,,,None,,271.65243153001063,None,271.65243153001063,None,2022-02-01-14:46:12.421139,271.65337030001683,271.95222239999566,271.65337030001683,None,None,271.65337030001683,None,272.4523772300512,None,,,,12010,0002,2022_Feb_01_1441,localizer,2021.1.3,59.560751361354626,
block_end,scenes,scenes064.bmp,,,,,0,121,121,121,,,,,,,,,,,,,,,,,,,,,,,,,,,,,,,,,,,,,,,,,,None,,272.4523772300512,None,272.4523772300512,None,2022-02-01-14:46:13.222330,272.46134800004074,272.76948220003396,272.46134800004074,272.46134800004074,None,272.46134800004074,272.46134800004074,273.2704481300374,None,,,,12010,0002,2022_Feb_01_1441,localizer,2021.1.3,59.560751361354626,
null_block,null_block,null_block.bmp,,,,,0,122,122,122,,,,,,,,,,,,,,,,,,,,,,,,,,,,,,,,,,,,,,,,,,t,1.7974490000051446,273.2692510000197,None,273.2692510000197,None,2022-02-01-14:46:15.858434,275.0878833300143,None,275.0878833300143,None,None,275.0878833300143,None,275.09646830003476,None,,,,12010,0002,2022_Feb_01_1441,localizer,2021.1.3,59.560751361354626,
block_start,scenes,scenes004.bmp,,,,,0,123,123,123,,,,,,,,,,,,,,,,,,,,,,,,,,,,,,,,,,,,,,,,,,t,1.9641460999846458,287.10247979999986,None,287.10247979999986,None,2022-02-01-14:46:29.855754,289.08662380004534,289.3859827000415,289.08662380004534,None,None,289.08662380004534,None,289.88603673002797,None,,,,12010,0002,2022_Feb_01_1441,localizer,2021.1.3,59.560751361354626,
block,scenes,scenes083.bmp,,,,,0,124,124,124,,,,,,,,,,,,,,,,,,,,,,,,,,,,,,,,,,,,,,,,,,None,,289.88603673002797,None,289.88603673002797,None,2022-02-01-14:46:30.655983,289.8961538000149,290.20265530003235,289.8961538000149,289.8961538000149,None,289.8961538000149,289.8961538000149,290.7028201300476,None,,,,12010,0002,2022_Feb_01_1441,localizer,2021.1.3,59.560751361354626,
block,scenes,scenes048.bmp,,,,,0,125,125,125,,,,,,,,,,,,,,,,,,,,,,,,,,,,,,,,,,,,,,,,,,None,,290.7028201300476,None,290.7028201300476,None,2022-02-01-14:46:31.471753,290.7036468000151,291.0192065000301,290.7036468000151,None,None,290.7036468000151,None,291.5032300300139,None,,,,12010,0002,2022_Feb_01_1441,localizer,2021.1.3,59.560751361354626,
block,scenes,scenes063.bmp,,,,,0,126,126,126,,,,,,,,,,,,,,,,,,,,,,,,,,,,,,,,,,,,,,,,,,None,,291.5032300300139,None,291.5032300300139,None,2022-02-01-14:46:32.274920,291.5062307000044,291.8197213000385,291.5062307000044,291.5062307000044,None,291.5062307000044,291.5062307000044,292.3191497300344,None,,,,12010,0002,2022_Feb_01_1441,localizer,2021.1.3,59.560751361354626,
block,scenes,scenes039.bmp,,,,,0,127,127,127,,,,,,,,,,,,,,,,,,,,,,,,,,,,,,,,,,,,,,,,,,None,,292.3191497300344,None,292.3191497300344,None,2022-02-01-14:46:33.088150,292.3205735000083,292.6196861000499,292.3205735000083,None,None,292.3205735000083,None,293.13576153002793,None,,,,12010,0002,2022_Feb_01_1441,localizer,2021.1.3,59.560751361354626,
block,scenes,scenes013.bmp,,,,,0,128,128,128,,,,,,,,,,,,,,,,,,,,,,,,,,,,,,,,,,,,,,,,,,None,,293.13576153002793,None,293.13576153002793,None,2022-02-01-14:46:33.903480,293.14421130000846,293.45282760000555,293.14421130000846,None,None,293.14421130000846,None,293.9526340300275,None,,,,12010,0002,2022_Feb_01_1441,localizer,2021.1.3,59.560751361354626,
block,scenes,scenes030.bmp,,,,,0,129,129,129,,,,,,,,,,,,,,,,,,,,,,,,,,,,,,,,,,,,,,,,,,None,,293.9526340300275,None,293.9526340300275,None,2022-02-01-14:46:34.721344,293.9617782999994,294.26931120001245,293.9617782999994,None,None,293.9617782999994,None,294.7693286300113,None,,,,12010,0002,2022_Feb_01_1441,localizer,2021.1.3,59.560751361354626,
block,scenes,scenes059.bmp,,,,,0,130,130,130,,,,,,,,,,,,,,,,,,,,,,,,,,,,,,,,,,,,,,,,,,None,,294.7693286300113,None,294.7693286300113,None,2022-02-01-14:46:35.538039,294.77860700001474,295.0858359000413,294.77860700001474,None,None,294.77860700001474,None,295.5857687300362,None,,,,12010,0002,2022_Feb_01_1441,localizer,2021.1.3,59.560751361354626,
block,scenes,scenes058.bmp,,,,,0,131,131,131,,,,,,,,,,,,,,,,,,,,,,,,,,,,,,,,,,,,,,,,,,None,,295.5857687300362,None,295.5857687300362,None,2022-02-01-14:46:36.353963,295.5942985000438,295.902582300012,295.5942985000438,None,None,295.5942985000438,None,296.40258673002825,None,,,,12010,0002,2022_Feb_01_1441,localizer,2021.1.3,59.560751361354626,
block,scenes,scenes058.bmp,,,,,0,132,132,132,,,,,,,,,,,,,,,,,,,,,,,,,,,,,,,,,,,,,,,,,,None,,296.40258673002825,None,296.40258673002825,None,2022-02-01-14:46:37.171297,296.40355190000264,296.70261440001195,296.40355190000264,None,y,296.40355190000264,None,297.20285473002,None,0.6088627999997698,,,12010,0002,2022_Feb_01_1441,localizer,2021.1.3,59.560751361354626,
block,scenes,scenes026.bmp,,,,,0,133,133,133,,,,,,,,,,,,,,,,,,,,,,,,,,,,,,,,,,,,,,,,,,None,,297.20285473002,None,297.20285473002,None,2022-02-01-14:46:37.972621,297.21492570004193,297.5192992000375,297.21492570004193,297.21492570004193,None,297.21492570004193,297.21492570004193,298.0199696300027,None,,,,12010,0002,2022_Feb_01_1441,localizer,2021.1.3,59.560751361354626,
block,scenes,scenes038.bmp,,,,,0,134,134,134,,,,,,,,,,,,,,,,,,,,,,,,,,,,,,,,,,,,,,,,,,None,,298.0199696300027,None,298.0199696300027,None,2022-02-01-14:46:38.789613,298.02140040002996,298.33667420002166,298.02140040002996,None,None,298.02140040002996,None,298.8367011300346,None,,,,12010,0002,2022_Feb_01_1441,localizer,2021.1.3,59.560751361354626,
block,scenes,scenes054.bmp,,,,,0,135,135,135,,,,,,,,,,,,,,,,,,,,,,,,,,,,,,,,,,,,,,,,,,None,,298.8367011300346,None,298.8367011300346,None,2022-02-01-14:46:39.606382,298.84843930002535,299.15311539999675,298.84843930002535,None,None,298.84843930002535,None,299.652555330022,None,,,,12010,0002,2022_Feb_01_1441,localizer,2021.1.3,59.560751361354626,
block,scenes,scenes057.bmp,,,,,0,136,136,136,,,,,,,,,,,,,,,,,,,,,,,,,,,,,,,,,,,,,,,,,,None,,299.652555330022,None,299.652555330022,None,2022-02-01-14:46:40.421561,299.6618690000032,299.9691482000053,299.6618690000032,None,None,299.6618690000032,None,300.46936733002656,None,,,,12010,0002,2022_Feb_01_1441,localizer,2021.1.3,59.560751361354626,
block_end,scenes,scenes067.bmp,,,,,0,137,137,137,,,,,,,,,,,,,,,,,,,,,,,,,,,,,,,,,,,,,,,,,,None,,300.46936733002656,None,300.46936733002656,None,2022-02-01-14:46:41.244447,300.4809027000447,300.7864421000122,300.4809027000447,None,None,300.4809027000447,None,301.2862156300165,None,,,,12010,0002,2022_Feb_01_1441,localizer,2021.1.3,59.560751361354626,
block_start,objects,objects046.bmp,,,,,0,138,138,138,,,,,,,,,,,,,,,,,,,,,,,,,,,,,,,,,,,,,,,,,,t,1.7806599999894388,301.28604279999854,None,301.28604279999854,None,2022-02-01-14:46:43.858032,303.08971120003844,303.40354130003834,303.08971120003844,None,None,303.08971120003844,None,303.90263093001556,None,,,,12010,0002,2022_Feb_01_1441,localizer,2021.1.3,59.560751361354626,
block,objects,objects043.bmp,,,,,0,139,139,139,,,,,,,,,,,,,,,,,,,,,,,,,,,,,,,,,,,,,,,,,,None,,303.90263093001556,None,303.90263093001556,None,2022-02-01-14:46:44.671598,303.9035654000472,304.20281160000013,303.9035654000472,None,None,303.9035654000472,None,304.70277003001536,None,,,,12010,0002,2022_Feb_01_1441,localizer,2021.1.3,59.560751361354626,
block,objects,objects012.bmp,,,,,0,140,140,140,,,,,,,,,,,,,,,,,,,,,,,,,,,,,,,,,,,,,,,,,,None,,304.70277003001536,None,304.70277003001536,None,2022-02-01-14:46:45.473478,304.70407570002135,305.0194343000185,304.70407570002135,304.70407570002135,None,304.70407570002135,304.70407570002135,305.50325353001824,None,,,,12010,0002,2022_Feb_01_1441,localizer,2021.1.3,59.560751361354626,
block,objects,objects007.bmp,,,,,0,141,141,141,,,,,,,,,,,,,,,,,,,,,,,,,,,,,,,,,,,,,,,,,,None,,305.50325353001824,None,305.50325353001824,None,2022-02-01-14:46:46.274021,305.5150090000243,305.81906300003175,305.5150090000243,305.5150090000243,None,305.5150090000243,305.5150090000243,306.31946103001826,None,,,,12010,0002,2022_Feb_01_1441,localizer,2021.1.3,59.560751361354626,
block,objects,objects016.bmp,,,,,0,142,142,142,,,,,,,,,,,,,,,,,,,,,,,,,,,,,,,,,,,,,,,,,,None,,306.31946103001826,None,306.31946103001826,None,2022-02-01-14:46:47.088172,306.3202838000143,306.61983340000734,306.3202838000143,None,None,306.3202838000143,None,307.1261843300366,None,,,,12010,0002,2022_Feb_01_1441,localizer,2021.1.3,59.560751361354626,
block,objects,objects013.bmp,,,,,0,143,143,143,,,,,,,,,,,,,,,,,,,,,,,,,,,,,,,,,,,,,,,,,,None,,307.1261843300366,None,307.1261843300366,None,2022-02-01-14:46:47.898902,307.13052190002054,307.43647090002196,307.13052190002054,None,None,307.13052190002054,None,307.9358316300262,None,,,,12010,0002,2022_Feb_01_1441,localizer,2021.1.3,59.560751361354626,
block,objects,objects080.bmp,,,,,0,144,144,144,,,,,,,,,,,,,,,,,,,,,,,,,,,,,,,,,,,,,,,,,,None,,307.9358316300262,None,307.9358316300262,None,2022-02-01-14:46:48.704813,307.9371029000031,308.25266110000666,307.9371029000031,None,None,307.9371029000031,None,308.75250063004785,None,,,,12010,0002,2022_Feb_01_1441,localizer,2021.1.3,59.560751361354626,
block,objects,objects024.bmp,,,,,0,145,145,145,,,,,,,,,,,,,,,,,,,,,,,,,,,,,,,,,,,,,,,,,,None,,308.75250063004785,None,308.75250063004785,None,2022-02-01-14:46:49.521218,308.7605589000159,309.06951510004,308.7605589000159,None,None,308.7605589000159,None,309.57062873000393,None,,,,12010,0002,2022_Feb_01_1441,localizer,2021.1.3,59.560751361354626,
block,objects,objects076.bmp,,,,,0,146,146,146,,,,,,,,,,,,,,,,,,,,,,,,,,,,,,,,,,,,,,,,,,None,,309.57062873000393,None,309.57062873000393,None,2022-02-01-14:46:50.341490,309.5731008000439,309.88711940002395,309.5731008000439,None,None,309.5731008000439,None,310.38639823004485,None,,,,12010,0002,2022_Feb_01_1441,localizer,2021.1.3,59.560751361354626,
block,objects,objects050.bmp,,,,,0,147,147,147,,,,,,,,,,,,,,,,,,,,,,,,,,,,,,,,,,,,,,,,,,None,,310.38639823004485,None,310.38639823004485,None,2022-02-01-14:46:51.155323,310.3869927000487,310.68593100004364,310.3869927000487,None,None,310.3869927000487,None,311.18617172999654,None,,,,12010,0002,2022_Feb_01_1441,localizer,2021.1.3,59.560751361354626,
block,objects,objects056.bmp,,,,,0,148,148,148,,,,,,,,,,,,,,,,,,,,,,,,,,,,,,,,,,,,,,,,,,None,,311.18617172999654,None,311.18617172999654,None,2022-02-01-14:46:51.957062,311.1969971000217,311.5026745000505,311.1969971000217,311.1969971000217,None,311.1969971000217,311.1969971000217,312.00308203005113,None,,,,12010,0002,2022_Feb_01_1441,localizer,2021.1.3,59.560751361354626,
block,objects,objects025.bmp,,,,,0,149,149,149,,,,,,,,,,,,,,,,,,,,,,,,,,,,,,,,,,,,,,,,,,None,,312.00308203005113,None,312.00308203005113,None,2022-02-01-14:46:52.772002,312.0129203000106,312.31962490000296,312.0129203000106,None,None,312.0129203000106,None,312.8196130300115,None,,,,12010,0002,2022_Feb_01_1441,localizer,2021.1.3,59.560751361354626,
block,objects,objects059.bmp,,,,,0,150,150,150,,,,,,,,,,,,,,,,,,,,,,,,,,,,,,,,,,,,,,,,,,None,,312.8196130300115,None,312.8196130300115,None,2022-02-01-14:46:53.588323,312.8203687000205,313.1195422000019,312.8203687000205,None,None,312.8203687000205,None,313.63612442999727,None,,,,12010,0002,2022_Feb_01_1441,localizer,2021.1.3,59.560751361354626,
block,objects,objects001.bmp,,,,,0,151,151,151,,,,,,,,,,,,,,,,,,,,,,,,,,,,,,,,,,,,,,,,,,None,,313.63612442999727,None,313.63612442999727,None,2022-02-01-14:46:54.404607,313.6450242000283,313.9527030000463,313.6450242000283,None,None,313.6450242000283,None,314.45268463000536,None,,,,12010,0002,2022_Feb_01_1441,localizer,2021.1.3,59.560751361354626,
block_end,objects,objects083.bmp,,,,,0,152,152,152,,,,,,,,,,,,,,,,,,,,,,,,,,,,,,,,,,,,,,,,,,None,,314.45268463000536,None,314.45268463000536,None,2022-02-01-14:46:55.221402,314.4537741000531,314.76920880004764,314.4537741000531,None,None,314.4537741000531,None,315.2549992300395,None,,,,12010,0002,2022_Feb_01_1441,localizer,2021.1.3,59.560751361354626,
block_start,scrambled,scrambled080.bmp,,,,,0,153,153,153,,,,,,,,,,,,,,,,,,,,,,,,,,,,,,,,,,,,,,,,,,t,1.8112879999680445,315.2554253000417,None,315.2554253000417,None,2022-02-01-14:46:57.853204,317.0872774000163,317.38693050004076,317.0872774000163,None,None,317.0872774000163,None,317.90299133002407,None,,,,12010,0002,2022_Feb_01_1441,localizer,2021.1.3,59.560751361354626,
block,scrambled,scrambled043.bmp,,,,,0,154,154,154,,,,,,,,,,,,,,,,,,,,,,,,,,,,,,,,,,,,,,,,,,None,,317.90299133002407,None,317.90299133002407,None,2022-02-01-14:46:58.671705,317.9037196999998,318.2029848000384,317.9037196999998,None,None,317.9037196999998,None,318.7029616300191,None,,,,12010,0002,2022_Feb_01_1441,localizer,2021.1.3,59.560751361354626,
block,scrambled,scrambled028.bmp,,,,,0,155,155,155,,,,,,,,,,,,,,,,,,,,,,,,,,,,,,,,,,,,,,,,,,None,,318.7029616300191,None,318.7029616300191,None,2022-02-01-14:46:59.472673,318.7130128000281,319.0195398000069,318.7130128000281,318.7130128000281,None,318.7130128000281,318.7130128000281,319.5216094300325,None,,,,12010,0002,2022_Feb_01_1441,localizer,2021.1.3,59.560751361354626,
block,scrambled,scrambled058.bmp,,,,,0,156,156,156,,,,,,,,,,,,,,,,,,,,,,,,,,,,,,,,,,,,,,,,,,None,,319.5216094300325,None,319.5216094300325,None,2022-02-01-14:47:00.293458,319.52598700003,319.836402200046,319.52598700003,None,None,319.52598700003,None,320.3373472300067,None,,,,12010,0002,2022_Feb_01_1441,localizer,2021.1.3,59.560751361354626,
block,scrambled,scrambled001.bmp,,,,,0,157,157,157,,,,,,,,,,,,,,,,,,,,,,,,,,,,,,,,,,,,,,,,,,None,,320.3373472300067,None,320.3373472300067,None,2022-02-01-14:47:01.107211,320.33960710000247,320.6526565999957,320.33960710000247,None,None,320.33960710000247,None,321.15408963000516,None,,,,12010,0002,2022_Feb_01_1441,localizer,2021.1.3,59.560751361354626,
block,scrambled,scrambled009.bmp,,,,,0,158,158,158,,,,,,,,,,,,,,,,,,,,,,,,,,,,,,,,,,,,,,,,,,None,,321.15408963000516,None,321.15408963000516,None,2022-02-01-14:47:01.924968,321.16479660000186,321.4696180000319,321.16479660000186,None,None,321.16479660000186,None,321.96947493003097,None,,,,12010,0002,2022_Feb_01_1441,localizer,2021.1.3,59.560751361354626,
block,scrambled,scrambled031.bmp,,,,,0,159,159,159,,,,,,,,,,,,,,,,,,,,,,,,,,,,,,,,,,,,,,,,,,None,,321.96947493003097,None,321.96947493003097,None,2022-02-01-14:47:02.738191,321.9703706,322.26957070000935,321.9703706,None,None,321.9703706,None,322.77017783001645,None,,,,12010,0002,2022_Feb_01_1441,localizer,2021.1.3,59.560751361354626,
block,scrambled,scrambled024.bmp,,,,,0,160,160,160,,,,,,,,,,,,,,,,,,,,,,,,,,,,,,,,,,,,,,,,,,None,,322.77017783001645,None,322.77017783001645,None,2022-02-01-14:47:03.541873,322.7731534000486,323.09240970003884,322.7731534000486,322.7731534000486,None,322.7731534000486,322.7731534000486,323.58766783000317,None,,,,12010,0002,2022_Feb_01_1441,localizer,2021.1.3,59.560751361354626,
block,scrambled,scrambled034.bmp,,,,,0,161,161,161,,,,,,,,,,,,,,,,,,,,,,,,,,,,,,,,,,,,,,,,,,None,,323.58766783000317,None,323.58766783000317,None,2022-02-01-14:47:04.357555,323.59985090000555,323.9028667000239,323.59985090000555,None,None,323.59985090000555,None,324.40283893002777,None,,,,12010,0002,2022_Feb_01_1441,localizer,2021.1.3,59.560751361354626,
block,scrambled,scrambled084.bmp,,,,,0,162,162,162,,,,,,,,,,,,,,,,,,,,,,,,,,,,,,,,,,,,,,,,,,None,,324.40283893002777,None,324.40283893002777,None,2022-02-01-14:47:05.171558,324.40392000001157,324.71948620001785,324.40392000001157,None,None,324.40392000001157,None,325.2032345300016,None,,,,12010,0002,2022_Feb_01_1441,localizer,2021.1.3,59.560751361354626,
block,scrambled,scrambled048.bmp,,,,,0,163,163,163,,,,,,,,,,,,,,,,,,,,,,,,,,,,,,,,,,,,,,,,,,None,,325.2032345300016,None,325.2032345300016,None,2022-02-01-14:47:05.973947,325.206078600022,325.51992849999806,325.206078600022,325.206078600022,None,325.206078600022,325.206078600022,326.0200302299985,None,,,,12010,0002,2022_Feb_01_1441,localizer,2021.1.3,59.560751361354626,
block,scrambled,scrambled074.bmp,,,,,0,164,164,164,,,,,,,,,,,,,,,,,,,,,,,,,,,,,,,,,,,,,,,,,,None,,326.0200302299985,None,326.0200302299985,None,2022-02-01-14:47:06.788964,326.03090480004903,326.33572940004524,326.03090480004903,None,None,326.03090480004903,None,326.8369754300278,None,,,,12010,0002,2022_Feb_01_1441,localizer,2021.1.3,59.560751361354626,
block,scrambled,scrambled082.bmp,,,,,0,165,165,165,,,,,,,,,,,,,,,,,,,,,,,,,,,,,,,,,,,,,,,,,,None,,326.8369754300278,None,326.8369754300278,None,2022-02-01-14:47:07.604768,326.8369981000433,327.13627210003324,326.8369981000433,None,None,326.8369981000433,None,327.6374410300108,None,,,,12010,0002,2022_Feb_01_1441,localizer,2021.1.3,59.560751361354626,
block,scrambled,scrambled085.bmp,,,,,0,166,166,166,,,,,,,,,,,,,,,,,,,,,,,,,,,,,,,,,,,,,,,,,,None,,327.6374410300108,None,327.6374410300108,None,2022-02-01-14:47:08.410325,327.6516798000084,327.95285140001215,327.6516798000084,327.6516798000084,None,327.6516798000084,327.6516798000084,328.4534455300367,None,,,,12010,0002,2022_Feb_01_1441,localizer,2021.1.3,59.560751361354626,
block_end,scrambled,scrambled068.bmp,,,,,0,167,167,167,,,,,,,,,,,,,,,,,,,,,,,,,,,,,,,,,,,,,,,,,,None,,328.4534455300367,None,328.4534455300367,None,2022-02-01-14:47:09.223356,328.4647605000064,328.7696696000057,328.4647605000064,None,None,328.4647605000064,None,329.2698590300337,None,,,,12010,0002,2022_Feb_01_1441,localizer,2021.1.3,59.560751361354626,
block_start,faces,faces003.bmp,,,,,0,168,168,168,,,,,,,,,,,,,,,,,,,,,,,,,,,,,,,,,,,,,,,,,,t,1.7970093000330962,329.26964630000293,None,329.26964630000293,None,2022-02-01-14:47:11.855016,331.08707450004295,331.4067502000253,331.08707450004295,None,None,331.08707450004295,None,331.88750812999785,None,,,,12010,0002,2022_Feb_01_1441,localizer,2021.1.3,59.560751361354626,
block,faces,faces008.bmp,,,,,0,169,169,169,,,,,,,,,,,,,,,,,,,,,,,,,,,,,,,,,,,,,,,,,,None,,331.88750812999785,None,331.88750812999785,None,2022-02-01-14:47:12.660387,331.89966110000387,332.20324960001744,331.89966110000387,331.89966110000387,None,331.89966110000387,331.89966110000387,332.7042724300467,None,,,,12010,0002,2022_Feb_01_1441,localizer,2021.1.3,59.560751361354626,
block,faces,faces019.bmp,,,,,0,170,170,170,,,,,,,,,,,,,,,,,,,,,,,,,,,,,,,,,,,,,,,,,,None,,332.7042724300467,None,332.7042724300467,None,2022-02-01-14:47:13.476787,332.7250699000433,333.0367818000377,332.7250699000433,None,None,332.7250699000433,None,333.51960212999836,None,,,,12010,0002,2022_Feb_01_1441,localizer,2021.1.3,59.560751361354626,
block,faces,faces042.bmp,,,,,0,171,171,171,,,,,,,,,,,,,,,,,,,,,,,,,,,,,,,,,,,,,,,,,,None,,333.51960212999836,None,333.51960212999836,None,2022-02-01-14:47:14.288561,333.52051330002723,333.83631100005005,333.52051330002723,None,None,333.52051330002723,None,334.31968333002294,None,,,,12010,0002,2022_Feb_01_1441,localizer,2021.1.3,59.560751361354626,
block,faces,faces045.bmp,,,,,0,172,172,172,,,,,,,,,,,,,,,,,,,,,,,,,,,,,,,,,,,,,,,,,,None,,334.31968333002294,None,334.31968333002294,None,2022-02-01-14:47:15.090396,334.3209505000268,334.6362825999968,334.3209505000268,334.3209505000268,None,334.3209505000268,334.3209505000268,335.1202753300371,None,,,,12010,0002,2022_Feb_01_1441,localizer,2021.1.3,59.560751361354626,
block,faces,faces081.bmp,,,,,0,173,173,173,,,,,,,,,,,,,,,,,,,,,,,,,,,,,,,,,,,,,,,,,,None,,335.1202753300371,None,335.1202753300371,None,2022-02-01-14:47:15.891672,335.1336748000467,335.43617500003893,335.1336748000467,335.1336748000467,None,335.1336748000467,335.1336748000467,335.9370072300138,None,,,,12010,0002,2022_Feb_01_1441,localizer,2021.1.3,59.560751361354626,
block,faces,faces012.bmp,,,,,0,174,174,174,,,,,,,,,,,,,,,,,,,,,,,,,,,,,,,,,,,,,,,,,,None,,335.9370072300138,None,335.9370072300138,None,2022-02-01-14:47:16.706902,335.9392004000256,336.25367530004587,335.9392004000256,None,None,335.9392004000256,None,336.7536715299997,None,,,,12010,0002,2022_Feb_01_1441,localizer,2021.1.3,59.560751361354626,
block,faces,faces048.bmp,,,,,0,175,175,175,,,,,,,,,,,,,,,,,,,,,,,,,,,,,,,,,,,,,,,,,,None,,336.7536715299997,None,336.7536715299997,None,2022-02-01-14:47:17.523586,336.7559494000161,337.07028990000254,336.7559494000161,None,None,336.7559494000161,None,337.56953863002707,None,,,,12010,0002,2022_Feb_01_1441,localizer,2021.1.3,59.560751361354626,
block,faces,faces056.bmp,,,,,0,176,176,176,,,,,,,,,,,,,,,,,,,,,,,,,,,,,,,,,,,,,,,,,,None,,337.56953863002707,None,337.56953863002707,None,2022-02-01-14:47:18.338419,337.5747689999989,337.8862699000165,337.5747689999989,None,None,337.5747689999989,None,338.3867774300219,None,,,,12010,0002,2022_Feb_01_1441,localizer,2021.1.3,59.560751361354626,
block,faces,faces021.bmp,,,,,0,177,177,177,,,,,,,,,,,,,,,,,,,,,,,,,,,,,,,,,,,,,,,,,,None,,338.3867774300219,None,338.3867774300219,None,2022-02-01-14:47:19.156487,338.3985825999989,338.7030176999979,338.3985825999989,None,None,338.3985825999989,None,339.2031269299972,None,,,,12010,0002,2022_Feb_01_1441,localizer,2021.1.3,59.560751361354626,
block,faces,faces062.bmp,,,,,0,178,178,178,,,,,,,,,,,,,,,,,,,,,,,,,,,,,,,,,,,,,,,,,,None,,339.2031269299972,None,339.2031269299972,None,2022-02-01-14:47:19.972008,339.21299860003637,339.5196350000333,339.21299860003637,None,None,339.21299860003637,None,340.0196639300033,None,,,,12010,0002,2022_Feb_01_1441,localizer,2021.1.3,59.560751361354626,
block,faces,faces038.bmp,,,,,0,179,179,179,,,,,,,,,,,,,,,,,,,,,,,,,,,,,,,,,,,,,,,,,,None,,340.0196639300033,None,340.0196639300033,None,2022-02-01-14:47:20.788382,340.03503010002896,340.33642870001495,340.03503010002896,None,None,340.03503010002896,None,340.8364779300231,None,,,,12010,0002,2022_Feb_01_1441,localizer,2021.1.3,59.560751361354626,
block,faces,faces047.bmp,,,,,0,180,180,180,,,,,,,,,,,,,,,,,,,,,,,,,,,,,,,,,,,,,,,,,,None,,340.8364779300231,None,340.8364779300231,None,2022-02-01-14:47:21.605295,340.8514395999955,341.15294930001255,340.8514395999955,None,None,340.8514395999955,None,341.6533500300196,None,,,,12010,0002,2022_Feb_01_1441,localizer,2021.1.3,59.560751361354626,
block,faces,faces068.bmp,,,,,0,181,181,181,,,,,,,,,,,,,,,,,,,,,,,,,,,,,,,,,,,,,,,,,,None,,341.6533500300196,None,341.6533500300196,None,2022-02-01-14:47:22.423281,341.65415880002547,341.96963500004495,341.65415880002547,None,None,341.65415880002547,None,342.4697237300046,None,,,,12010,0002,2022_Feb_01_1441,localizer,2021.1.3,59.560751361354626,
block_end,faces,faces089.bmp,,,,,0,182,182,182,,,,,,,,,,,,,,,,,,,,,,,,,,,,,,,,,,,,,,,,,,None,,342.4697237300046,None,342.4697237300046,None,2022-02-01-14:47:23.238692,342.470539300004,342.7698127000476,342.470539300004,None,None,342.470539300004,None,343.27037443000006,None,,,,12010,0002,2022_Feb_01_1441,localizer,2021.1.3,59.560751361354626,
block_start,objects,objects064.bmp,,,,,0,183,183,183,,,,,,,,,,,,,,,,,,,,,,,,,,,,,,,,,,,,,,,,,,t,1.7962415000074543,343.27052850002656,None,343.27052850002656,None,2022-02-01-14:47:25.855246,345.0874079000205,345.4029861000017,345.0874079000205,None,None,345.0874079000205,None,345.90329073003375,None,,,,12010,0002,2022_Feb_01_1441,localizer,2021.1.3,59.560751361354626,
block,objects,objects082.bmp,,,,,0,184,184,184,,,,,,,,,,,,,,,,,,,,,,,,,,,,,,,,,,,,,,,,,,None,,345.90329073003375,None,345.90329073003375,None,2022-02-01-14:47:26.672007,345.9039218000253,346.20297870005015,345.9039218000253,None,None,345.9039218000253,None,346.70303113002444,None,,,,12010,0002,2022_Feb_01_1441,localizer,2021.1.3,59.560751361354626,
block,objects,objects066.bmp,,,,,0,185,185,185,,,,,,,,,,,,,,,,,,,,,,,,,,,,,,,,,,,,,,,,,,None,,346.70303113002444,None,346.70303113002444,None,2022-02-01-14:47:27.473742,346.7042093000491,347.01962920004735,346.7042093000491,346.7042093000491,None,346.7042093000491,346.7042093000491,347.503210130037,None,,,,12010,0002,2022_Feb_01_1441,localizer,2021.1.3,59.560751361354626,
block,objects,objects033.bmp,,,,,0,186,186,186,,,,,,,,,,,,,,,,,,,,,,,,,,,,,,,,,,,,,,,,,,None,,347.503210130037,None,347.503210130037,None,2022-02-01-14:47:28.274052,347.50483910000185,347.81945190002443,347.50483910000185,347.50483910000185,None,347.50483910000185,347.50483910000185,348.31980703003353,None,,,,12010,0002,2022_Feb_01_1441,localizer,2021.1.3,59.560751361354626,
block,objects,objects047.bmp,,,,,0,187,187,187,,,,,,,,,,,,,,,,,,,,,,,,,,,,,,,,,,,,,,,,,,None,,348.31980703003353,None,348.31980703003353,None,2022-02-01-14:47:29.088526,348.3205929000396,348.6199571000179,348.3205929000396,None,None,348.3205929000396,None,349.1200060300238,None,,,,12010,0002,2022_Feb_01_1441,localizer,2021.1.3,59.560751361354626,
block,objects,objects034.bmp,,,,,0,188,188,188,,,,,,,,,,,,,,,,,,,,,,,,,,,,,,,,,,,,,,,,,,None,,349.1200060300238,None,349.1200060300238,None,2022-02-01-14:47:29.890928,349.1227566000307,349.4259463000344,349.1227566000307,349.1227566000307,None,349.1227566000307,349.1227566000307,349.9362957300094,None,,,,12010,0002,2022_Feb_01_1441,localizer,2021.1.3,59.560751361354626,
block,objects,objects056.bmp,,,,,0,189,189,189,,,,,,,,,,,,,,,,,,,,,,,,,,,,,,,,,,,,,,,,,,None,,349.9362957300094,None,349.9362957300094,None,2022-02-01-14:47:30.705054,349.9371890000184,350.2365395000088,349.9371890000184,None,None,349.9371890000184,None,350.73661682999807,None,,,,12010,0002,2022_Feb_01_1441,localizer,2021.1.3,59.560751361354626,
block,objects,objects053.bmp,,,,,0,190,190,190,,,,,,,,,,,,,,,,,,,,,,,,,,,,,,,,,,,,,,,,,,None,,350.73661682999807,None,350.73661682999807,None,2022-02-01-14:47:31.507549,350.7393715000362,351.052936000051,350.7393715000362,350.7393715000362,None,350.7393715000362,350.7393715000362,351.55313933001014,None,,,,12010,0002,2022_Feb_01_1441,localizer,2021.1.3,59.560751361354626,
block,objects,objects040.bmp,,,,,0,191,191,191,,,,,,,,,,,,,,,,,,,,,,,,,,,,,,,,,,,,,,,,,,None,,351.55313933001014,None,351.55313933001014,None,2022-02-01-14:47:32.322074,351.5623298000428,351.8699284000322,351.5623298000428,None,None,351.5623298000428,None,352.3697845300252,None,,,,12010,0002,2022_Feb_01_1441,localizer,2021.1.3,59.560751361354626,
block,objects,objects073.bmp,,,,,0,192,192,192,,,,,,,,,,,,,,,,,,,,,,,,,,,,,,,,,,,,,,,,,,None,,352.3697845300252,None,352.3697845300252,None,2022-02-01-14:47:33.138508,352.37063850002596,352.6863037000294,352.37063850002596,None,None,352.37063850002596,None,353.17025823001165,None,,,,12010,0002,2022_Feb_01_1441,localizer,2021.1.3,59.560751361354626,
block,objects,objects013.bmp,,,,,0,193,193,193,,,,,,,,,,,,,,,,,,,,,,,,,,,,,,,,,,,,,,,,,,None,,353.17025823001165,None,353.17025823001165,None,2022-02-01-14:47:33.941965,353.1728178000194,353.4868766000145,353.1728178000194,353.1728178000194,None,353.1728178000194,353.1728178000194,353.99023523001813,None,,,,12010,0002,2022_Feb_01_1441,localizer,2021.1.3,59.560751361354626,
block,objects,objects035.bmp,,,,,0,194,194,194,,,,,,,,,,,,,,,,,,,,,,,,,,,,,,,,,,,,,,,,,,None,,353.99023523001813,None,353.99023523001813,None,2022-02-01-14:47:34.767995,354.0148248000187,354.323130600038,354.0148248000187,None,None,354.0148248000187,None,354.8034162300231,None,,,,12010,0002,2022_Feb_01_1441,localizer,2021.1.3,59.560751361354626,
block,objects,objects063.bmp,,,,,0,195,195,195,,,,,,,,,,,,,,,,,,,,,,,,,,,,,,,,,,,,,,,,,,None,,354.8034162300231,None,354.8034162300231,None,2022-02-01-14:47:35.572341,354.8041383000091,355.1030577000347,354.8041383000091,None,None,354.8041383000091,None,355.60319763003497,None,,,,12010,0002,2022_Feb_01_1441,localizer,2021.1.3,59.560751361354626,
block,objects,objects084.bmp,,,,,0,196,196,196,,,,,,,,,,,,,,,,,,,,,,,,,,,,,,,,,,,,,,,,,,None,,355.60319763003497,None,355.60319763003497,None,2022-02-01-14:47:36.373312,355.6038364000269,355.90275890001794,355.6038364000269,355.6038364000269,None,355.6038364000269,355.6038364000269,356.4037658300425,None,,,,12010,0002,2022_Feb_01_1441,localizer,2021.1.3,59.560751361354626,
block_end,objects,objects030.bmp,,,,,0,197,197,197,,,,,,,,,,,,,,,,,,,,,,,,,,,,,,,,,,,,,,,,,,None,,356.4037658300425,None,356.4037658300425,None,2022-02-01-14:47:37.174642,356.40682140004355,356.7198304000194,356.40682140004355,356.40682140004355,None,356.40682140004355,356.40682140004355,357.2201834300125,None,,,,12010,0002,2022_Feb_01_1441,localizer,2021.1.3,59.560751361354626,
block_start,scrambled,scrambled052.bmp,,,,,0,198,198,198,,,,,,,,,,,,,,,,,,,,,,,,,,,,,,,,,,,,,,,,,,t,1.8468574999715202,357.2200434000115,None,357.2200434000115,None,2022-02-01-14:47:39.857677,359.0970055000507,359.4031585000339,359.0970055000507,None,None,359.0970055000507,None,359.90332402999627,None,,,,12010,0002,2022_Feb_01_1441,localizer,2021.1.3,59.560751361354626,
block,scrambled,scrambled058.bmp,,,,,0,199,199,199,,,,,,,,,,,,,,,,,,,,,,,,,,,,,,,,,,,,,,,,,,None,,359.90332402999627,None,359.90332402999627,None,2022-02-01-14:47:40.672044,359.9041558000026,360.21977520000655,359.9041558000026,None,None,359.9041558000026,None,360.7033474300464,None,,,,12010,0002,2022_Feb_01_1441,localizer,2021.1.3,59.560751361354626,
block,scrambled,scrambled007.bmp,,,,,0,200,200,200,,,,,,,,,,,,,,,,,,,,,,,,,,,,,,,,,,,,,,,,,,None,,360.7033474300464,None,360.7033474300464,None,2022-02-01-14:47:41.473063,360.70410880004056,361.0197568000294,360.70410880004056,360.70410880004056,None,360.70410880004056,360.70410880004056,361.50323723001054,None,,,,12010,0002,2022_Feb_01_1441,localizer,2021.1.3,59.560751361354626,
block,scrambled,scrambled047.bmp,,,,,0,201,201,201,,,,,,,,,,,,,,,,,,,,,,,,,,,,,,,,,,,,,,,,,,None,,361.50323723001054,None,361.50323723001054,None,2022-02-01-14:47:42.273958,361.50458320003236,361.82598930003587,361.50458320003236,361.50458320003236,None,361.50458320003236,361.50458320003236,362.30386503000625,None,,,,12010,0002,2022_Feb_01_1441,localizer,2021.1.3,59.560751361354626,
block,scrambled,scrambled064.bmp,,,,,0,202,202,202,,,,,,,,,,,,,,,,,,,,,,,,,,,,,,,,,,,,,,,,,,None,,362.30386503000625,None,362.30386503000625,None,2022-02-01-14:47:43.075632,362.3131929000374,362.6197487000027,362.3131929000374,362.3131929000374,None,362.3131929000374,362.3131929000374,363.12594172999377,None,,,,12010,0002,2022_Feb_01_1441,localizer,2021.1.3,59.560751361354626,
block,scrambled,scrambled024.bmp,,,,,0,203,203,203,,,,,,,,,,,,,,,,,,,,,,,,,,,,,,,,,,,,,,,,,,None,,363.12594172999377,None,363.12594172999377,None,2022-02-01-14:47:43.902613,363.13291250000475,363.436571200029,363.13291250000475,None,None,363.13291250000475,None,363.93641803000935,None,,,,12010,0002,2022_Feb_01_1441,localizer,2021.1.3,59.560751361354626,
block,scrambled,scrambled071.bmp,,,,,0,204,204,204,,,,,,,,,,,,,,,,,,,,,,,,,,,,,,,,,,,,,,,,,,None,,363.93641803000935,None,363.93641803000935,None,2022-02-01-14:47:44.705146,363.9443498000037,364.2547901000362,363.9443498000037,None,None,363.9443498000037,None,364.75439503003724,None,,,,12010,0002,2022_Feb_01_1441,localizer,2021.1.3,59.560751361354626,
block,scrambled,scrambled030.bmp,,,,,0,205,205,205,,,,,,,,,,,,,,,,,,,,,,,,,,,,,,,,,,,,,,,,,,None,,364.75439503003724,None,364.75439503003724,None,2022-02-01-14:47:45.524273,364.76682280004025,365.07005570002366,364.76682280004025,None,None,364.76682280004025,None,365.5697351300099,None,,,,12010,0002,2022_Feb_01_1441,localizer,2021.1.3,59.560751361354626,
block,scrambled,scrambled014.bmp,,,,,0,206,206,206,,,,,,,,,,,,,,,,,,,,,,,,,,,,,,,,,,,,,,,,,,None,,365.5697351300099,None,365.5697351300099,None,2022-02-01-14:47:46.338015,365.57082160003483,365.8865327000385,365.57082160003483,None,None,365.57082160003483,None,366.36987953005007,None,,,,12010,0002,2022_Feb_01_1441,localizer,2021.1.3,59.560751361354626,
block,scrambled,scrambled025.bmp,,,,,0,207,207,207,,,,,,,,,,,,,,,,,,,,,,,,,,,,,,,,,,,,,,,,,,None,,366.36987953005007,None,366.36987953005007,None,2022-02-01-14:47:47.139601,366.37076120002894,366.6698927000398,366.37076120002894,366.37076120002894,None,366.37076120002894,366.37076120002894,367.1864233300497,None,,,,12010,0002,2022_Feb_01_1441,localizer,2021.1.3,59.560751361354626,
block,scrambled,scrambled002.bmp,,,,,0,208,208,208,,,,,,,,,,,,,,,,,,,,,,,,,,,,,,,,,,,,,,,,,,None,,367.1864233300497,None,367.1864233300497,None,2022-02-01-14:47:47.955153,367.1879733999958,367.5032310000388,367.1879733999958,None,None,367.1879733999958,None,367.9871860300249,None,,,,12010,0002,2022_Feb_01_1441,localizer,2021.1.3,59.560751361354626,
block,scrambled,scrambled051.bmp,,,,,0,209,209,209,,,,,,,,,,,,,,,,,,,,,,,,,,,,,,,,,,,,,,,,,,None,,367.9871860300249,None,367.9871860300249,None,2022-02-01-14:47:48.758768,368.0006450000219,368.303556800005,368.0006450000219,368.0006450000219,None,368.0006450000219,368.0006450000219,368.8021849300188,None,,,,12010,0002,2022_Feb_01_1441,localizer,2021.1.3,59.560751361354626,
block,scrambled,scrambled079.bmp,,,,,0,210,210,210,,,,,,,,,,,,,,,,,,,,,,,,,,,,,,,,,,,,,,,,,,None,,368.8021849300188,None,368.8021849300188,None,2022-02-01-14:47:49.569715,368.8041302000056,369.119697200018,368.8041302000056,None,None,368.8041302000056,None,369.6033460300008,None,,,,12010,0002,2022_Feb_01_1441,localizer,2021.1.3,59.560751361354626,
block,scrambled,scrambled057.bmp,,,,,0,211,211,211,,,,,,,,,,,,,,,,,,,,,,,,,,,,,,,,,,,,,,,,,,None,,369.6033460300008,None,369.6033460300008,None,2022-02-01-14:47:50.373068,369.60413000005065,369.90328100003535,369.60413000005065,369.60413000005065,None,369.60413000005065,369.60413000005065,370.40328453004474,None,,,,12010,0002,2022_Feb_01_1441,localizer,2021.1.3,59.560751361354626,
block_end,scrambled,scrambled041.bmp,,,,,0,212,212,212,,,,,,,,,,,,,,,,,,,,,,,,,,,,,,,,,,,,,,,,,,None,,370.40328453004474,None,370.40328453004474,None,2022-02-01-14:47:51.174004,370.4044580000336,370.71990190004,370.4044580000336,370.4044580000336,None,370.4044580000336,370.4044580000336,371.20374653000033,None,,,,12010,0002,2022_Feb_01_1441,localizer,2021.1.3,59.560751361354626,
block_start,scenes,scenes041.bmp,,,,,0,213,213,213,,,,,,,,,,,,,,,,,,,,,,,,,,,,,,,,,,,,,,,,,,t,1.862962300016079,371.2038469000254,None,371.2038469000254,None,2022-02-01-14:47:53.857463,373.09021200001007,373.4030252000084,373.09021200001007,None,None,373.09021200001007,None,373.9033798300137,None,,,,12010,0002,2022_Feb_01_1441,localizer,2021.1.3,59.560751361354626,
block,scenes,scenes023.bmp,,,,,0,214,214,214,,,,,,,,,,,,,,,,,,,,,,,,,,,,,,,,,,,,,,,,,,None,,373.9033798300137,None,373.9033798300137,None,2022-02-01-14:47:54.670982,373.9043456000509,374.2199401000398,373.9043456000509,None,None,373.9043456000509,None,374.70401453000375,None,,,,12010,0002,2022_Feb_01_1441,localizer,2021.1.3,59.560751361354626,
block,scenes,scenes079.bmp,,,,,0,215,215,215,,,,,,,,,,,,,,,,,,,,,,,,,,,,,,,,,,,,,,,,,,None,,374.70401453000375,None,374.70401453000375,None,2022-02-01-14:47:55.475704,374.7070437000366,375.0201333000441,374.7070437000366,374.7070437000366,None,374.7070437000366,374.7070437000366,375.5199221300485,None,,,,12010,0002,2022_Feb_01_1441,localizer,2021.1.3,59.560751361354626,
block,scenes,scenes088.bmp,,,,,0,216,216,216,,,,,,,,,,,,,,,,,,,,,,,,,,,,,,,,,,,,,,,,,,None,,375.5199221300485,None,375.5199221300485,None,2022-02-01-14:47:56.288646,375.5208077999996,375.8201345000416,375.5208077999996,None,None,375.5208077999996,None,376.32001913001875,None,,,,12010,0002,2022_Feb_01_1441,localizer,2021.1.3,59.560751361354626,
block,scenes,scenes086.bmp,,,,,0,217,217,217,,,,,,,,,,,,,,,,,,,,,,,,,,,,,,,,,,,,,,,,,,None,,376.32001913001875,None,376.32001913001875,None,2022-02-01-14:47:57.090739,376.3213301000069,376.636695000052,376.3213301000069,376.3213301000069,None,376.3213301000069,376.3213301000069,377.13669393002635,None,,,,12010,0002,2022_Feb_01_1441,localizer,2021.1.3,59.560751361354626,
block,scenes,scenes044.bmp,,,,,0,218,218,218,,,,,,,,,,,,,,,,,,,,,,,,,,,,,,,,,,,,,,,,,,None,,377.13669393002635,None,377.13669393002635,None,2022-02-01-14:47:57.905421,377.14574480004376,377.4536391000147,377.14574480004376,None,None,377.14574480004376,None,377.94374953001386,None,,,,12010,0002,2022_Feb_01_1441,localizer,2021.1.3,59.560751361354626,
block,scenes,scenes003.bmp,,,,,0,219,219,219,,,,,,,,,,,,,,,,,,,,,,,,,,,,,,,,,,,,,,,,,,None,,377.94374953001386,None,377.94374953001386,None,2022-02-01-14:47:58.712462,377.94717729999684,378.25350250001065,377.94717729999684,None,None,377.94717729999684,None,378.75387933001036,None,,,,12010,0002,2022_Feb_01_1441,localizer,2021.1.3,59.560751361354626,
block,scenes,scenes008.bmp,,,,,0,220,220,220,,,,,,,,,,,,,,,,,,,,,,,,,,,,,,,,,,,,,,,,,,None,,378.75387933001036,None,378.75387933001036,None,2022-02-01-14:47:59.523791,378.75456480000867,379.070022800006,378.75456480000867,None,None,378.75456480000867,None,379.5697497300047,None,,,,12010,0002,2022_Feb_01_1441,localizer,2021.1.3,59.560751361354626,
block,scenes,scenes047.bmp,,,,,0,221,221,221,,,,,,,,,,,,,,,,,,,,,,,,,,,,,,,,,,,,,,,,,,None,,379.5697497300047,None,379.5697497300047,None,2022-02-01-14:48:00.338479,379.5712287000497,379.88654730003327,379.5712287000497,None,None,379.5712287000497,None,380.3707979300001,None,,,,12010,0002,2022_Feb_01_1441,localizer,2021.1.3,59.560751361354626,
block,scenes,scenes015.bmp,,,,,0,222,222,222,,,,,,,,,,,,,,,,,,,,,,,,,,,,,,,,,,,,,,,,,,None,,380.3707979300001,None,380.3707979300001,None,2022-02-01-14:48:01.142695,380.380809000053,380.68686030001845,380.380809000053,380.380809000053,None,380.380809000053,380.380809000053,381.18669103005084,None,,,,12010,0002,2022_Feb_01_1441,localizer,2021.1.3,59.560751361354626,
block,scenes,scenes048.bmp,,,,,0,223,223,223,,,,,,,,,,,,,,,,,,,,,,,,,,,,,,,,,,,,,,,,,,None,,381.18669103005084,None,381.18669103005084,None,2022-02-01-14:48:01.955418,381.18756280001253,381.5030400000396,381.18756280001253,None,None,381.18756280001253,None,381.9867166300013,None,,,,12010,0002,2022_Feb_01_1441,localizer,2021.1.3,59.560751361354626,
block,scenes,scenes030.bmp,,,,,0,224,224,224,,,,,,,,,,,,,,,,,,,,,,,,,,,,,,,,,,,,,,,,,,None,,381.9867166300013,None,381.9867166300013,None,2022-02-01-14:48:02.756774,381.98757610004395,382.2866872000159,381.98757610004395,381.98757610004395,None,381.98757610004395,381.98757610004395,382.7877889300056,None,,,,12010,0002,2022_Feb_01_1441,localizer,2021.1.3,59.560751361354626,
block,scenes,scenes076.bmp,,,,,0,225,225,225,,,,,,,,,,,,,,,,,,,,,,,,,,,,,,,,,,,,,,,,,,None,,382.7877889300056,None,382.7877889300056,None,2022-02-01-14:48:03.561485,382.79325270000845,383.103258200048,382.79325270000845,382.79325270000845,None,382.79325270000845,382.79325270000845,383.60342873004845,None,,,,12010,0002,2022_Feb_01_1441,localizer,2021.1.3,59.560751361354626,
block,scenes,scenes055.bmp,,,,,0,226,226,226,,,,,,,,,,,,,,,,,,,,,,,,,,,,,,,,,,,,,,,,,,None,,383.60342873004845,None,383.60342873004845,None,2022-02-01-14:48:04.372155,383.60420140001224,383.90329420001945,383.60420140001224,None,None,383.60420140001224,None,384.4035082300019,None,,,,12010,0002,2022_Feb_01_1441,localizer,2021.1.3,59.560751361354626,
block_end,scenes,scenes081.bmp,,,,,0,227,227,227,,,,,,,,,,,,,,,,,,,,,,,,,,,,,,,,,,,,,,,,,,None,,384.4035082300019,None,384.4035082300019,None,2022-02-01-14:48:05.174230,384.4051657000091,384.71993459999794,384.4051657000091,384.4051657000091,None,384.4051657000091,384.4051657000091,385.22005483002283,None,,,,12010,0002,2022_Feb_01_1441,localizer,2021.1.3,59.560751361354626,
null_block,null_block,null_block.bmp,,,,,0,228,228,228,,,,,,,,,,,,,,,,,,,,,,,,,,,,,,,,,,,,,,,,,,t,1.8467629999504425,385.2199699000339,None,385.2199699000339,None,2022-02-01-14:48:07.854786,387.08706503001156,None,387.08706503001156,None,None,387.08706503001156,None,387.09050440002466,None,,,,12010,0002,2022_Feb_01_1441,localizer,2021.1.3,59.560751361354626,
block_start,faces,faces059.bmp,,,,,0,229,229,229,,,,,,,,,,,,,,,,,,,,,,,,,,,,,,,,,,,,,,,,,,t,1.9620495999697596,399.1046711000381,None,399.1046711000381,None,2022-02-01-14:48:21.856401,401.0886247000308,401.4034115000395,401.0886247000308,None,None,401.0886247000308,None,401.89115003002223,None,,,,12010,0002,2022_Feb_01_1441,localizer,2021.1.3,59.560751361354626,
block,faces,faces080.bmp,,,,,0,230,230,230,,,,,,,,,,,,,,,,,,,,,,,,,,,,,,,,,,,,,,,,,,None,,401.89115003002223,None,401.89115003002223,None,2022-02-01-14:48:22.662029,401.8954226000351,402.2034679000499,401.8954226000351,None,None,401.8954226000351,None,402.7046690300398,None,,,,12010,0002,2022_Feb_01_1441,localizer,2021.1.3,59.560751361354626,
block,faces,faces039.bmp,,,,,0,231,231,231,,,,,,,,,,,,,,,,,,,,,,,,,,,,,,,,,,,,,,,,,,None,,402.7046690300398,None,402.7046690300398,None,2022-02-01-14:48:23.476331,402.7091287000221,403.01995360001456,402.7091287000221,None,None,402.7091287000221,None,403.5201252300234,None,,,,12010,0002,2022_Feb_01_1441,localizer,2021.1.3,59.560751361354626,
block,faces,faces025.bmp,,,,,0,232,232,232,,,,,,,,,,,,,,,,,,,,,,,,,,,,,,,,,,,,,,,,,,None,,403.5201252300234,None,403.5201252300234,None,2022-02-01-14:48:24.288768,403.5210994000081,403.83672550000483,403.5210994000081,None,None,403.5210994000081,None,404.3205499300442,None,,,,12010,0002,2022_Feb_01_1441,localizer,2021.1.3,59.560751361354626,
block,faces,faces087.bmp,,,,,0,233,233,233,,,,,,,,,,,,,,,,,,,,,,,,,,,,,,,,,,,,,,,,,,None,,404.3205499300442,None,404.3205499300442,None,2022-02-01-14:48:25.092443,404.3360935000237,404.6367984000244,404.3360935000237,404.3360935000237,None,404.3360935000237,404.3360935000237,405.1368250300351,None,,,,12010,0002,2022_Feb_01_1441,localizer,2021.1.3,59.560751361354626,
block,faces,faces013.bmp,,,,,0,234,234,234,,,,,,,,,,,,,,,,,,,,,,,,,,,,,,,,,,,,,,,,,,None,,405.1368250300351,None,405.1368250300351,None,2022-02-01-14:48:25.905555,405.1376106000389,405.43667500000447,405.1376106000389,None,None,405.1376106000389,None,405.93728293001766,None,,,,12010,0002,2022_Feb_01_1441,localizer,2021.1.3,59.560751361354626,
block,faces,faces013.bmp,,,,,0,235,235,235,,,,,,,,,,,,,,,,,,,,,,,,,,,,,,,,,,,,,,,,,,None,,405.93728293001766,None,405.93728293001766,None,2022-02-01-14:48:26.708146,405.93946080002934,406.2535528000444,405.93946080002934,405.93946080002934,y,405.93946080002934,405.93946080002934,406.75354823005034,None,0.6451812000013888,,,12010,0002,2022_Feb_01_1441,localizer,2021.1.3,59.560751361354626,
block,faces,faces077.bmp,,,,,0,236,236,236,,,,,,,,,,,,,,,,,,,,,,,,,,,,,,,,,,,,,,,,,,None,,406.75354823005034,None,406.75354823005034,None,2022-02-01-14:48:27.522278,406.75435060000746,407.05312680004863,406.75435060000746,None,None,406.75435060000746,None,407.5536310300289,None,,,,12010,0002,2022_Feb_01_1441,localizer,2021.1.3,59.560751361354626,
block,faces,faces044.bmp,,,,,0,237,237,237,,,,,,,,,,,,,,,,,,,,,,,,,,,,,,,,,,,,,,,,,,None,,407.5536310300289,None,407.5536310300289,None,2022-02-01-14:48:28.324351,407.565816300048,407.8753690000158,407.565816300048,407.565816300048,None,407.565816300048,407.565816300048,408.37045683002214,None,,,,12010,0002,2022_Feb_01_1441,localizer,2021.1.3,59.560751361354626,
block,faces,faces003.bmp,,,,,0,238,238,238,,,,,,,,,,,,,,,,,,,,,,,,,,,,,,,,,,,,,,,,,,None,,408.37045683002214,None,408.37045683002214,None,2022-02-01-14:48:29.139387,408.3712506000302,408.6705796000315,408.3712506000302,None,None,408.3712506000302,None,409.18654533004735,None,,,,12010,0002,2022_Feb_01_1441,localizer,2021.1.3,59.560751361354626,
block,faces,faces022.bmp,,,,,0,239,239,239,,,,,,,,,,,,,,,,,,,,,,,,,,,,,,,,,,,,,,,,,,None,,409.18654533004735,None,409.18654533004735,None,2022-02-01-14:48:29.955577,409.18764499999816,409.4867587000481,409.18764499999816,None,None,409.18764499999816,None,409.98711903003857,None,,,,12010,0002,2022_Feb_01_1441,localizer,2021.1.3,59.560751361354626,
block,faces,faces085.bmp,,,,,0,240,240,240,,,,,,,,,,,,,,,,,,,,,,,,,,,,,,,,,,,,,,,,,,None,,409.98711903003857,None,409.98711903003857,None,2022-02-01-14:48:30.757845,409.9990921000135,410.30362690001493,409.9990921000135,409.9990921000135,None,409.9990921000135,409.9990921000135,410.80735373002824,None,,,,12010,0002,2022_Feb_01_1441,localizer,2021.1.3,59.560751361354626,
block,faces,faces081.bmp,,,,,0,241,241,241,,,,,,,,,,,,,,,,,,,,,,,,,,,,,,,,,,,,,,,,,,None,,410.80735373002824,None,410.80735373002824,None,2022-02-01-14:48:31.580028,410.81270920002135,411.12066440004855,410.81270920002135,None,None,410.81270920002135,None,411.62027153000815,None,,,,12010,0002,2022_Feb_01_1441,localizer,2021.1.3,59.560751361354626,
block,faces,faces060.bmp,,,,,0,242,242,242,,,,,,,,,,,,,,,,,,,,,,,,,,,,,,,,,,,,,,,,,,None,,411.62027153000815,None,411.62027153000815,None,2022-02-01-14:48:32.389095,411.62109410000267,411.92612160003046,411.62109410000267,None,None,411.62109410000267,None,412.42378752999355,None,,,,12010,0002,2022_Feb_01_1441,localizer,2021.1.3,59.560751361354626,
block_end,faces,faces052.bmp,,,,,0,243,243,243,,,,,,,,,,,,,,,,,,,,,,,,,,,,,,,,,,,,,,,,,,None,,412.42378752999355,None,412.42378752999355,None,2022-02-01-14:48:33.203569,412.43301510001766,412.7367418000358,412.43301510001766,412.43301510001766,None,412.43301510001766,412.43301510001766,413.2364260300004,None,,,,12010,0002,2022_Feb_01_1441,localizer,2021.1.3,59.560751361354626,
,,,,,,,,,,,,,,,,,,,,,,,,,,,,,,,,,,,,,,,,,,,,,,,,,,,,,,,,,,,,,,,,,,,,,413.2363083999953,None,,,,,,,
