block_type,condition,img_name,Button.thisRepN,Button.thisTrialN,Button.thisN,Button.thisIndex,trials.thisRepN,trials.thisTrialN,trials.thisN,trials.thisIndex,Ready_experimenter_text.started,Ready_experimenter_text.stopped,Ready_experimenter_resp.keys,Ready_experimenter_resp.rt,Ready_experimenter_resp.started,Ready_experimenter_resp.stopped,Alignment_background.started,Alignment_background.stopped,Alignment_image.started,Alignment_image.stopped,Alignment_resp.keys,Alignment_resp.rt,Alignment_resp.started,Alignment_resp.stopped,Button_text.started,Button_text.stopped,Index_text.started,Index_text.stopped,Index_resp.keys,Index_resp.rt,Index_resp.started,Index_resp.stopped,Middle_text.started,Middle_text.stopped,Middle_resp.keys,Middle_resp.rt,Middle_resp.started,Middle_resp.stopped,Repeat_text.started,Repeat_text.stopped,Repeat_resp.keys,Repeat_resp.corr,Repeat_resp.rt,Repeat_resp.started,Repeat_resp.stopped,instruction_text.started,instruction_text.stopped,key_resp.keys,key_resp.rt,key_resp.started,key_resp.stopped,scanner_t.keys,scanner_t.rt,scanner_t.started,scanner_t.stopped,fixation_wait_for_t.started,fixation_wait_for_t.stopped,real_timestamp_trial_start,image.started,image.stopped,fixation.started,fixation.stopped,repeat_response.keys,repeat_response.started,repeat_response.stopped,fixation_null.started,fixation_null.stopped,repeat_response.rt,end_text.started,end_text.stopped,participant,run,date,expName,psychopyVersion,frameRate,
,,,,,,,,,,,10.659665799990762,None,return,481.51404949999414,10.659665799990762,None,,,,,,,,,,,,,,,,,,,,,,,,,,,,,,,,,,,,,,,,,,,,,,,,,,,,,,,12018,0002,2022_May_25_1211,localizer,2021.1.3,59.38058919601576,
,,,,,,,,,,,,,,,,,492.2234029999818,None,492.2234029999818,None,return,0.5161443999968469,492.2234029999818,None,,,,,,,,,,,,,,,,,,,,,,,,,,,,,,,,,,,,,,,,,,,,,,,12018,0002,2022_May_25_1211,localizer,2021.1.3,59.38058919601576,
,,,0,0,0,0,,,,,,,,,,,,,,,,,,,492.75339639998856,None,493.760054399987,None,y,2.576959900005022,493.760054399987,None,496.35852599999635,None,b,1.185367199999746,496.35852599999635,None,497.5708532999852,None,n,0,1.4852060999837704,497.5708532999852,None,,,,,,,,,,,,,,,,,,,,,,,,,,12018,0002,2022_May_25_1211,localizer,2021.1.3,59.38058919601576,
,,,,,,,,,,,,,,,,,,,,,,,,,,,,,,,,,,,,,,,,,,,,,,499.08733939999365,None,y,25.334350000019185,499.08733939999365,None,,,,,,,,,,,,,,,,,,,,12018,0002,2022_May_25_1211,localizer,2021.1.3,59.38058919601576,
block_start,objects,objects030.bmp,,,,,0,0,0,0,,,,,,,,,,,,,,,,,,,,,,,,,,,,,,,,,,,,,,,,,,t,14.824251099984394,524.4755103999923,None,524.4755103999923,None,2022-05-25-12:20:47.822901,539.3258276999986,539.6370509999979,539.3258276999986,None,None,539.3258276999986,None,540.1370156799996,None,,,,12018,0002,2022_May_25_1211,localizer,2021.1.3,59.38058919601576,
block,objects,objects070.bmp,,,,,0,1,1,1,,,,,,,,,,,,,,,,,,,,,,,,,,,,,,,,,,,,,,,,,,None,,540.1370156799996,None,540.1370156799996,None,2022-05-25-12:20:48.637070,540.1482166999776,540.453883899987,540.1482166999776,None,None,540.1482166999776,None,540.9537415799889,None,,,,12018,0002,2022_May_25_1211,localizer,2021.1.3,59.38058919601576,
block,objects,objects016.bmp,,,,,0,2,2,2,,,,,,,,,,,,,,,,,,,,,,,,,,,,,,,,,,,,,,,,,,None,,540.9537415799889,None,540.9537415799889,None,2022-05-25-12:20:49.454297,540.9548080999812,541.2705049999931,540.9548080999812,None,None,540.9548080999812,None,541.7701142799954,None,,,,12018,0002,2022_May_25_1211,localizer,2021.1.3,59.38058919601576,
block,objects,objects078.bmp,,,,,0,3,3,3,,,,,,,,,,,,,,,,,,,,,,,,,,,,,,,,,,,,,,,,,,None,,541.7701142799954,None,541.7701142799954,None,2022-05-25-12:20:50.270672,541.7793861999817,542.0871209999896,541.7793861999817,None,None,541.7793861999817,None,542.5871133799985,None,,,,12018,0002,2022_May_25_1211,localizer,2021.1.3,59.38058919601576,
block,objects,objects045.bmp,,,,,0,4,4,4,,,,,,,,,,,,,,,,,,,,,,,,,,,,,,,,,,,,,,,,,,None,,542.5871133799985,None,542.5871133799985,None,2022-05-25-12:20:51.087668,542.5880631000036,542.9038357999816,542.5880631000036,None,None,542.5880631000036,None,543.4036714799906,None,,,,12018,0002,2022_May_25_1211,localizer,2021.1.3,59.38058919601576,
block,objects,objects058.bmp,,,,,0,5,5,5,,,,,,,,,,,,,,,,,,,,,,,,,,,,,,,,,,,,,,,,,,None,,543.4036714799906,None,543.4036714799906,None,2022-05-25-12:20:51.904228,543.4047259999788,543.7203865999763,543.4047259999788,None,None,543.4047259999788,None,544.2192986799957,None,,,,12018,0002,2022_May_25_1211,localizer,2021.1.3,59.38058919601576,
block,objects,objects066.bmp,,,,,0,6,6,6,,,,,,,,,,,,,,,,,,,,,,,,,,,,,,,,,,,,,,,,,,None,,544.2192986799957,None,544.2192986799957,None,2022-05-25-12:20:52.719285,544.2212527999945,544.5217916999827,544.2212527999945,None,None,544.2212527999945,None,545.0216909799813,None,,,,12018,0002,2022_May_25_1211,localizer,2021.1.3,59.38058919601576,
block,objects,objects067.bmp,,,,,0,7,7,7,,,,,,,,,,,,,,,,,,,,,,,,,,,,,,,,,,,,,,,,,,None,,545.0216909799813,None,545.0216909799813,None,2022-05-25-12:20:53.525310,545.0375931999879,545.3370760999969,545.0375931999879,545.0375931999879,None,545.0375931999879,545.0375931999879,545.8389848799882,None,,,,12018,0002,2022_May_25_1211,localizer,2021.1.3,59.38058919601576,
block,objects,objects034.bmp,,,,,0,8,8,8,,,,,,,,,,,,,,,,,,,,,,,,,,,,,,,,,,,,,,,,,,None,,545.8389848799882,None,545.8389848799882,None,2022-05-25-12:20:54.340699,545.8411311999953,546.1540252999985,545.8411311999953,None,None,545.8411311999953,None,546.6538015799918,None,,,,12018,0002,2022_May_25_1211,localizer,2021.1.3,59.38058919601576,
block,objects,objects013.bmp,,,,,0,9,9,9,,,,,,,,,,,,,,,,,,,,,,,,,,,,,,,,,,,,,,,,,,None,,546.6538015799918,None,546.6538015799918,None,2022-05-25-12:20:55.154351,546.6650682000036,546.9705171999813,546.6650682000036,None,None,546.6650682000036,None,547.4703466800013,None,,,,12018,0002,2022_May_25_1211,localizer,2021.1.3,59.38058919601576,
block,objects,objects033.bmp,,,,,0,10,10,10,,,,,,,,,,,,,,,,,,,,,,,,,,,,,,,,,,,,,,,,,,None,,547.4703466800013,None,547.4703466800013,None,2022-05-25-12:20:55.970902,547.4805515999906,547.7871391999943,547.4805515999906,None,None,547.4805515999906,None,548.2870149799885,None,,,,12018,0002,2022_May_25_1211,localizer,2021.1.3,59.38058919601576,
block,objects,objects088.bmp,,,,,0,11,11,11,,,,,,,,,,,,,,,,,,,,,,,,,,,,,,,,,,,,,,,,,,None,,548.2870149799885,None,548.2870149799885,None,2022-05-25-12:20:56.787570,548.2880727000011,548.5872468999878,548.2880727000011,None,None,548.2880727000011,None,549.087199779987,None,,,,12018,0002,2022_May_25_1211,localizer,2021.1.3,59.38058919601576,
block,objects,objects009.bmp,,,,,0,12,12,12,,,,,,,,,,,,,,,,,,,,,,,,,,,,,,,,,,,,,,,,,,None,,549.087199779987,None,549.087199779987,None,2022-05-25-12:20:57.589717,549.0885382999841,549.3875760999799,549.0885382999841,549.0885382999841,None,549.0885382999841,549.0885382999841,549.9040200799966,None,,,,12018,0002,2022_May_25_1211,localizer,2021.1.3,59.38058919601576,
block,objects,objects008.bmp,,,,,0,13,13,13,,,,,,,,,,,,,,,,,,,,,,,,,,,,,,,,,,,,,,,,,,None,,549.9040200799966,None,549.9040200799966,None,2022-05-25-12:20:58.404793,549.9160986999923,550.2207013999869,549.9160986999923,None,None,549.9160986999923,None,550.7216177799885,None,,,,12018,0002,2022_May_25_1211,localizer,2021.1.3,59.38058919601576,
block_end,objects,objects011.bmp,,,,,0,14,14,14,,,,,,,,,,,,,,,,,,,,,,,,,,,,,,,,,,,,,,,,,,None,,550.7216177799885,None,550.7216177799885,None,2022-05-25-12:20:59.224150,550.736734999984,551.0369292999967,550.736734999984,None,None,550.736734999984,None,551.5367394799862,None,,,,12018,0002,2022_May_25_1211,localizer,2021.1.3,59.38058919601576,
null_block,null_block,null_block.bmp,,,,,0,15,15,15,,,,,,,,,,,,,,,,,,,,,,,,,,,,,,,,,,,,,,,,,,t,1.7621006999979727,551.5368215999915,None,551.5368215999915,None,2022-05-25-12:21:01.819605,553.3200411799801,None,553.3200411799801,None,None,553.3200411799801,None,553.3224360999884,None,,,,12018,0002,2022_May_25_1211,localizer,2021.1.3,59.38058919601576,
block_start,faces,faces034.bmp,,,,,0,16,16,16,,,,,,,,,,,,,,,,,,,,,,,,,,,,,,,,,,,,,,,,,,t,1.9767885999754071,565.3219785999972,None,565.3219785999972,None,2022-05-25-12:21:15.821979,567.3222432999755,567.637694199977,567.3222432999755,None,None,567.3222432999755,None,568.136827779995,None,,,,12018,0002,2022_May_25_1211,localizer,2021.1.3,59.38058919601576,
block,faces,faces024.bmp,,,,,0,17,17,17,,,,,,,,,,,,,,,,,,,,,,,,,,,,,,,,,,,,,,,,,,None,,568.136827779995,None,568.136827779995,None,2022-05-25-12:21:16.637441,568.138552999997,568.4537838999822,568.138552999997,None,None,568.138552999997,None,568.9375727799809,None,,,,12018,0002,2022_May_25_1211,localizer,2021.1.3,59.38058919601576,
block,faces,faces086.bmp,,,,,0,18,18,18,,,,,,,,,,,,,,,,,,,,,,,,,,,,,,,,,,,,,,,,,,None,,568.9375727799809,None,568.9375727799809,None,2022-05-25-12:21:17.439201,568.9512543999881,569.2539843999839,568.9512543999881,568.9512543999881,None,568.9512543999881,568.9512543999881,569.7537294800015,None,,,,12018,0002,2022_May_25_1211,localizer,2021.1.3,59.38058919601576,
block,faces,faces008.bmp,,,,,0,19,19,19,,,,,,,,,,,,,,,,,,,,,,,,,,,,,,,,,,,,,,,,,,None,,569.7537294800015,None,569.7537294800015,None,2022-05-25-12:21:18.254289,569.7550334999978,570.0707430999901,569.7550334999978,None,None,569.7550334999978,None,570.5701886799973,None,,,,12018,0002,2022_May_25_1211,localizer,2021.1.3,59.38058919601576,
block,faces,faces033.bmp,,,,,0,20,20,20,,,,,,,,,,,,,,,,,,,,,,,,,,,,,,,,,,,,,,,,,,None,,570.5701886799973,None,570.5701886799973,None,2022-05-25-12:21:19.070490,570.5724628999887,570.8873388999782,570.5724628999887,None,None,570.5724628999887,None,571.3871711799904,None,,,,12018,0002,2022_May_25_1211,localizer,2021.1.3,59.38058919601576,
block,faces,faces046.bmp,,,,,0,21,21,21,,,,,,,,,,,,,,,,,,,,,,,,,,,,,,,,,,,,,,,,,,None,,571.3871711799904,None,571.3871711799904,None,2022-05-25-12:21:19.887725,571.3982050999766,571.7040219999908,571.3982050999766,None,None,571.3982050999766,None,572.1920450799837,None,,,,12018,0002,2022_May_25_1211,localizer,2021.1.3,59.38058919601576,
block,faces,faces079.bmp,,,,,0,22,22,22,,,,,,,,,,,,,,,,,,,,,,,,,,,,,,,,,,,,,,,,,,None,,572.1920450799837,None,572.1920450799837,None,2022-05-25-12:21:20.694734,572.2013220999797,572.5043138999899,572.2013220999797,None,None,572.2013220999797,None,573.0042266799749,None,,,,12018,0002,2022_May_25_1211,localizer,2021.1.3,59.38058919601576,
block,faces,faces085.bmp,,,,,0,23,23,23,,,,,,,,,,,,,,,,,,,,,,,,,,,,,,,,,,,,,,,,,,None,,573.0042266799749,None,573.0042266799749,None,2022-05-25-12:21:21.504965,573.0053555999766,573.3202817999991,573.0053555999766,None,None,573.0053555999766,None,573.8206157799898,None,,,,12018,0002,2022_May_25_1211,localizer,2021.1.3,59.38058919601576,
block,faces,faces055.bmp,,,,,0,24,24,24,,,,,,,,,,,,,,,,,,,,,,,,,,,,,,,,,,,,,,,,,,None,,573.8206157799898,None,573.8206157799898,None,2022-05-25-12:21:22.321118,573.8308798999933,574.137061299989,573.8308798999933,None,None,573.8308798999933,None,574.6380806799891,None,,,,12018,0002,2022_May_25_1211,localizer,2021.1.3,59.38058919601576,
block,faces,faces083.bmp,,,,,0,25,25,25,,,,,,,,,,,,,,,,,,,,,,,,,,,,,,,,,,,,,,,,,,None,,574.6380806799891,None,574.6380806799891,None,2022-05-25-12:21:23.140332,574.6518541999976,574.9541385999764,574.6518541999976,None,None,574.6518541999976,None,575.4541055799957,None,,,,12018,0002,2022_May_25_1211,localizer,2021.1.3,59.38058919601576,
block,faces,faces054.bmp,,,,,0,26,26,26,,,,,,,,,,,,,,,,,,,,,,,,,,,,,,,,,,,,,,,,,,None,,575.4541055799957,None,575.4541055799957,None,2022-05-25-12:21:23.954838,575.4550769999914,575.7544493000023,575.4550769999914,None,None,575.4550769999914,None,576.2542447799963,None,,,,12018,0002,2022_May_25_1211,localizer,2021.1.3,59.38058919601576,
block,faces,faces080.bmp,,,,,0,27,27,27,,,,,,,,,,,,,,,,,,,,,,,,,,,,,,,,,,,,,,,,,,None,,576.2542447799963,None,576.2542447799963,None,2022-05-25-12:21:24.758919,576.26855779998,576.5705502999772,576.26855779998,576.26855779998,None,576.26855779998,576.26855779998,577.070209479981,None,,,,12018,0002,2022_May_25_1211,localizer,2021.1.3,59.38058919601576,
block,faces,faces002.bmp,,,,,0,28,28,28,,,,,,,,,,,,,,,,,,,,,,,,,,,,,,,,,,,,,,,,,,None,,577.070209479981,None,577.070209479981,None,2022-05-25-12:21:25.570766,577.0820951999922,577.3876396999985,577.0820951999922,None,None,577.0820951999922,None,577.8873555799976,None,,,,12018,0002,2022_May_25_1211,localizer,2021.1.3,59.38058919601576,
block,faces,faces003.bmp,,,,,0,29,29,29,,,,,,,,,,,,,,,,,,,,,,,,,,,,,,,,,,,,,,,,,,None,,577.8873555799976,None,577.8873555799976,None,2022-05-25-12:21:26.387906,577.8884025999869,578.2042926999857,577.8884025999869,None,None,577.8884025999869,None,578.7039918800031,None,,,,12018,0002,2022_May_25_1211,localizer,2021.1.3,59.38058919601576,
block_end,faces,faces003.bmp,,,,,0,30,30,30,,,,,,,,,,,,,,,,,,,,,,,,,,,,,,,,,,,,,,,,,,None,,578.7039918800031,None,578.7039918800031,None,2022-05-25-12:21:27.204758,578.7049340999802,579.004732899979,578.7049340999802,None,y,578.7049340999802,None,579.5200781799824,None,0.4784998999966774,,,12018,0002,2022_May_25_1211,localizer,2021.1.3,59.38058919601576,
block_start,scenes,scenes067.bmp,,,,,0,31,31,31,,,,,,,,,,,,,,,,,,,,,,,,,,,,,,,,,,,,,,,,,,t,1.7781310999998823,579.5204508999886,None,579.5204508999886,None,2022-05-25-12:21:29.819911,581.3223174999875,581.6374726999784,581.3223174999875,None,None,581.3223174999875,None,582.1372820799909,None,,,,12018,0002,2022_May_25_1211,localizer,2021.1.3,59.38058919601576,
block,scenes,scenes014.bmp,,,,,0,32,32,32,,,,,,,,,,,,,,,,,,,,,,,,,,,,,,,,,,,,,,,,,,None,,582.1372820799909,None,582.1372820799909,None,2022-05-25-12:21:30.638254,582.1382996999891,582.4539778999751,582.1382996999891,None,None,582.1382996999891,None,582.9538254799875,None,,,,12018,0002,2022_May_25_1211,localizer,2021.1.3,59.38058919601576,
block,scenes,scenes015.bmp,,,,,0,33,33,33,,,,,,,,,,,,,,,,,,,,,,,,,,,,,,,,,,,,,,,,,,None,,582.9538254799875,None,582.9538254799875,None,2022-05-25-12:21:31.454577,582.9550058000023,583.2707136999816,582.9550058000023,None,None,582.9550058000023,None,583.7706012799783,None,,,,12018,0002,2022_May_25_1211,localizer,2021.1.3,59.38058919601576,
block,scenes,scenes055.bmp,,,,,0,34,34,34,,,,,,,,,,,,,,,,,,,,,,,,,,,,,,,,,,,,,,,,,,None,,583.7706012799783,None,583.7706012799783,None,2022-05-25-12:21:32.271157,583.7718454999849,584.0711706999864,583.7718454999849,None,None,583.7718454999849,None,584.5873203800031,None,,,,12018,0002,2022_May_25_1211,localizer,2021.1.3,59.38058919601576,
block,scenes,scenes077.bmp,,,,,0,35,35,35,,,,,,,,,,,,,,,,,,,,,,,,,,,,,,,,,,,,,,,,,,None,,584.5873203800031,None,584.5873203800031,None,2022-05-25-12:21:33.088110,584.5883674999932,584.9039870999986,584.5883674999932,None,None,584.5883674999932,None,585.3878699799855,None,,,,12018,0002,2022_May_25_1211,localizer,2021.1.3,59.38058919601576,
block,scenes,scenes061.bmp,,,,,0,36,36,36,,,,,,,,,,,,,,,,,,,,,,,,,,,,,,,,,,,,,,,,,,None,,585.3878699799855,None,585.3878699799855,None,2022-05-25-12:21:33.890608,585.4027841999778,585.7039022999816,585.4027841999778,585.4027841999778,None,585.4027841999778,585.4027841999778,586.2039157799766,None,,,,12018,0002,2022_May_25_1211,localizer,2021.1.3,59.38058919601576,
block,scenes,scenes051.bmp,,,,,0,37,37,37,,,,,,,,,,,,,,,,,,,,,,,,,,,,,,,,,,,,,,,,,,None,,586.2039157799766,None,586.2039157799766,None,2022-05-25-12:21:34.703475,586.2058195999998,586.5216008999851,586.2058195999998,None,None,586.2058195999998,None,587.0214326799935,None,,,,12018,0002,2022_May_25_1211,localizer,2021.1.3,59.38058919601576,
block,scenes,scenes003.bmp,,,,,0,38,38,38,,,,,,,,,,,,,,,,,,,,,,,,,,,,,,,,,,,,,,,,,,None,,587.0214326799935,None,587.0214326799935,None,2022-05-25-12:21:35.523149,587.0350354999828,587.3373614999873,587.0350354999828,None,None,587.0350354999828,None,587.8373230799946,None,,,,12018,0002,2022_May_25_1211,localizer,2021.1.3,59.38058919601576,
block,scenes,scenes074.bmp,,,,,0,39,39,39,,,,,,,,,,,,,,,,,,,,,,,,,,,,,,,,,,,,,,,,,,None,,587.8373230799946,None,587.8373230799946,None,2022-05-25-12:21:36.337529,587.8477347999869,588.1540613999823,587.8477347999869,None,None,587.8477347999869,None,588.6534173799766,None,,,,12018,0002,2022_May_25_1211,localizer,2021.1.3,59.38058919601576,
block,scenes,scenes013.bmp,,,,,0,40,40,40,,,,,,,,,,,,,,,,,,,,,,,,,,,,,,,,,,,,,,,,,,None,,588.6534173799766,None,588.6534173799766,None,2022-05-25-12:21:37.153285,588.6632860999962,588.9707613999781,588.6632860999962,None,None,588.6632860999962,None,589.4711880799762,None,,,,12018,0002,2022_May_25_1211,localizer,2021.1.3,59.38058919601576,
block,scenes,scenes006.bmp,,,,,0,41,41,41,,,,,,,,,,,,,,,,,,,,,,,,,,,,,,,,,,,,,,,,,,None,,589.4711880799762,None,589.4711880799762,None,2022-05-25-12:21:37.972762,589.4723277000012,589.7873554999824,589.4723277000012,None,None,589.4723277000012,None,590.2874661799899,None,,,,12018,0002,2022_May_25_1211,localizer,2021.1.3,59.38058919601576,
block,scenes,scenes024.bmp,,,,,0,42,42,42,,,,,,,,,,,,,,,,,,,,,,,,,,,,,,,,,,,,,,,,,,None,,590.2874661799899,None,590.2874661799899,None,2022-05-25-12:21:38.788018,590.2982391999976,590.6039778999984,590.2982391999976,None,None,590.2982391999976,None,591.1038952799893,None,,,,12018,0002,2022_May_25_1211,localizer,2021.1.3,59.38058919601576,
block,scenes,scenes030.bmp,,,,,0,43,43,43,,,,,,,,,,,,,,,,,,,,,,,,,,,,,,,,,,,,,,,,,,None,,591.1038952799893,None,591.1038952799893,None,2022-05-25-12:21:39.604452,591.1137155999895,591.4206793999765,591.1137155999895,None,None,591.1137155999895,None,591.9201444799867,None,,,,12018,0002,2022_May_25_1211,localizer,2021.1.3,59.38058919601576,
block,scenes,scenes063.bmp,,,,,0,44,44,44,,,,,,,,,,,,,,,,,,,,,,,,,,,,,,,,,,,,,,,,,,None,,591.9201444799867,None,591.9201444799867,None,2022-05-25-12:21:40.420704,591.9296207999869,592.2373499999812,591.9296207999869,None,None,591.9296207999869,None,592.7380783799774,None,,,,12018,0002,2022_May_25_1211,localizer,2021.1.3,59.38058919601576,
block_end,scenes,scenes018.bmp,,,,,0,45,45,45,,,,,,,,,,,,,,,,,,,,,,,,,,,,,,,,,,,,,,,,,,None,,592.7380783799774,None,592.7380783799774,None,2022-05-25-12:21:41.239799,592.7387898000015,593.0546707999893,592.7387898000015,None,None,592.7387898000015,None,593.5543278799771,None,,,,12018,0002,2022_May_25_1211,localizer,2021.1.3,59.38058919601576,
block_start,scrambled,scrambled018.bmp,,,,,0,46,46,46,,,,,,,,,,,,,,,,,,,,,,,,,,,,,,,,,,,,,,,,,,t,1.7442396999977063,593.554439599975,None,593.554439599975,None,2022-05-25-12:21:43.820166,595.3217454999976,595.6374634999956,595.3217454999976,None,None,595.3217454999976,None,596.1218610800017,None,,,,12018,0002,2022_May_25_1211,localizer,2021.1.3,59.38058919601576,
block,scrambled,scrambled031.bmp,,,,,0,47,47,47,,,,,,,,,,,,,,,,,,,,,,,,,,,,,,,,,,,,,,,,,,None,,596.1218610800017,None,596.1218610800017,None,2022-05-25-12:21:44.625375,596.1252957999823,596.4378534999851,596.1252957999823,596.1252957999823,None,596.1252957999823,596.1252957999823,596.9382590799971,None,,,,12018,0002,2022_May_25_1211,localizer,2021.1.3,59.38058919601576,
block,scrambled,scrambled029.bmp,,,,,0,48,48,48,,,,,,,,,,,,,,,,,,,,,,,,,,,,,,,,,,,,,,,,,,None,,596.9382590799971,None,596.9382590799971,None,2022-05-25-12:21:45.439842,596.9404272999964,597.2545179000008,596.9404272999964,None,None,596.9404272999964,None,597.753846979994,None,,,,12018,0002,2022_May_25_1211,localizer,2021.1.3,59.38058919601576,
block,scrambled,scrambled065.bmp,,,,,0,49,49,49,,,,,,,,,,,,,,,,,,,,,,,,,,,,,,,,,,,,,,,,,,None,,597.753846979994,None,597.753846979994,None,2022-05-25-12:21:46.254404,597.7634839999955,598.0707516999973,597.7634839999955,None,None,597.7634839999955,None,598.5708397799783,None,,,,12018,0002,2022_May_25_1211,localizer,2021.1.3,59.38058919601576,
block,scrambled,scrambled052.bmp,,,,,0,50,50,50,,,,,,,,,,,,,,,,,,,,,,,,,,,,,,,,,,,,,,,,,,None,,598.5708397799783,None,598.5708397799783,None,2022-05-25-12:21:47.071416,598.581846999994,598.887316599983,598.581846999994,None,None,598.581846999994,None,599.3872654799809,None,,,,12018,0002,2022_May_25_1211,localizer,2021.1.3,59.38058919601576,
block,scrambled,scrambled050.bmp,,,,,0,51,51,51,,,,,,,,,,,,,,,,,,,,,,,,,,,,,,,,,,,,,,,,,,None,,599.3872654799809,None,599.3872654799809,None,2022-05-25-12:21:47.887610,599.3886829999974,599.70407539999,599.3886829999974,None,None,599.3886829999974,None,600.1903915799951,None,,,,12018,0002,2022_May_25_1211,localizer,2021.1.3,59.38058919601576,
block,scrambled,scrambled082.bmp,,,,,0,52,52,52,,,,,,,,,,,,,,,,,,,,,,,,,,,,,,,,,,,,,,,,,,None,,600.1903915799951,None,600.1903915799951,None,2022-05-25-12:21:48.695096,600.1948305999977,600.5041820999759,600.1948305999977,600.1948305999977,None,600.1948305999977,600.1948305999977,601.0039357800008,None,,,,12018,0002,2022_May_25_1211,localizer,2021.1.3,59.38058919601576,
block,scrambled,scrambled072.bmp,,,,,0,53,53,53,,,,,,,,,,,,,,,,,,,,,,,,,,,,,,,,,,,,,,,,,,None,,601.0039357800008,None,601.0039357800008,None,2022-05-25-12:21:49.504490,601.0147392999788,601.3215188999893,601.0147392999788,None,None,601.0147392999788,None,601.8214122800011,None,,,,12018,0002,2022_May_25_1211,localizer,2021.1.3,59.38058919601576,
block,scrambled,scrambled087.bmp,,,,,0,54,54,54,,,,,,,,,,,,,,,,,,,,,,,,,,,,,,,,,,,,,,,,,,None,,601.8214122800011,None,601.8214122800011,None,2022-05-25-12:21:50.322762,601.8332105999871,602.1372846000013,601.8332105999871,None,None,601.8332105999871,None,602.6373755799752,None,,,,12018,0002,2022_May_25_1211,localizer,2021.1.3,59.38058919601576,
block,scrambled,scrambled022.bmp,,,,,0,55,55,55,,,,,,,,,,,,,,,,,,,,,,,,,,,,,,,,,,,,,,,,,,None,,602.6373755799752,None,602.6373755799752,None,2022-05-25-12:21:51.137917,602.6384045000013,602.9540634999867,602.6384045000013,None,None,602.6384045000013,None,603.4386290799914,None,,,,12018,0002,2022_May_25_1211,localizer,2021.1.3,59.38058919601576,
block,scrambled,scrambled051.bmp,,,,,0,56,56,56,,,,,,,,,,,,,,,,,,,,,,,,,,,,,,,,,,,,,,,,,,None,,603.4386290799914,None,603.4386290799914,None,2022-05-25-12:21:51.942021,603.4557356000005,603.770655100001,603.4557356000005,603.4557356000005,None,603.4557356000005,603.4557356000005,604.2551370799804,None,,,,12018,0002,2022_May_25_1211,localizer,2021.1.3,59.38058919601576,
block,scrambled,scrambled033.bmp,,,,,0,57,57,57,,,,,,,,,,,,,,,,,,,,,,,,,,,,,,,,,,,,,,,,,,None,,604.2551370799804,None,604.2551370799804,None,2022-05-25-12:21:52.755525,604.2569912999752,604.5716810000013,604.2569912999752,None,None,604.2569912999752,None,605.0707171799761,None,,,,12018,0002,2022_May_25_1211,localizer,2021.1.3,59.38058919601576,
block,scrambled,scrambled015.bmp,,,,,0,58,58,58,,,,,,,,,,,,,,,,,,,,,,,,,,,,,,,,,,,,,,,,,,None,,605.0707171799761,None,605.0707171799761,None,2022-05-25-12:21:53.571364,605.0770708999771,605.3876671999751,605.0770708999771,None,None,605.0770708999771,None,605.8874534799863,None,,,,12018,0002,2022_May_25_1211,localizer,2021.1.3,59.38058919601576,
block,scrambled,scrambled054.bmp,,,,,0,59,59,59,,,,,,,,,,,,,,,,,,,,,,,,,,,,,,,,,,,,,,,,,,None,,605.8874534799863,None,605.8874534799863,None,2022-05-25-12:21:54.388212,605.8970402999839,606.2046122000029,605.8970402999839,None,None,605.8970402999839,None,606.704180479984,None,,,,12018,0002,2022_May_25_1211,localizer,2021.1.3,59.38058919601576,
block_end,scrambled,scrambled036.bmp,,,,,0,60,60,60,,,,,,,,,,,,,,,,,,,,,,,,,,,,,,,,,,,,,,,,,,None,,606.704180479984,None,606.704180479984,None,2022-05-25-12:21:55.204732,606.7052543000027,607.0043827999907,606.7052543000027,None,None,606.7052543000027,None,607.5208588799899,None,,,,12018,0002,2022_May_25_1211,localizer,2021.1.3,59.38058919601576,
block_start,scenes,scenes056.bmp,,,,,0,61,61,61,,,,,,,,,,,,,,,,,,,,,,,,,,,,,,,,,,,,,,,,,,t,1.777717400022084,607.5209380000015,None,607.5209380000015,None,2022-05-25-12:21:57.820351,609.3218703999883,609.6373185999983,609.3218703999883,None,None,609.3218703999883,None,610.13755848,None,,,,12018,0002,2022_May_25_1211,localizer,2021.1.3,59.38058919601576,
block,scenes,scenes014.bmp,,,,,0,62,62,62,,,,,,,,,,,,,,,,,,,,,,,,,,,,,,,,,,,,,,,,,,None,,610.13755848,None,610.13755848,None,2022-05-25-12:21:58.638685,610.1385451999959,610.454311199981,610.1385451999959,None,None,610.1385451999959,None,610.93757397999,None,,,,12018,0002,2022_May_25_1211,localizer,2021.1.3,59.38058919601576,
block,scenes,scenes025.bmp,,,,,0,63,63,63,,,,,,,,,,,,,,,,,,,,,,,,,,,,,,,,,,,,,,,,,,None,,610.93757397999,None,610.93757397999,None,2022-05-25-12:21:59.440164,610.9391266999883,611.2540548999968,610.9391266999883,610.9391266999883,None,610.9391266999883,610.9391266999883,611.7382145799959,None,,,,12018,0002,2022_May_25_1211,localizer,2021.1.3,59.38058919601576,
block,scenes,scenes012.bmp,,,,,0,64,64,64,,,,,,,,,,,,,,,,,,,,,,,,,,,,,,,,,,,,,,,,,,None,,611.7382145799959,None,611.7382145799959,None,2022-05-25-12:22:00.241733,611.7409602999978,612.0549124999961,611.7409602999978,611.7409602999978,None,611.7409602999978,611.7409602999978,612.5547919799894,None,,,,12018,0002,2022_May_25_1211,localizer,2021.1.3,59.38058919601576,
block,scenes,scenes092.bmp,,,,,0,65,65,65,,,,,,,,,,,,,,,,,,,,,,,,,,,,,,,,,,,,,,,,,,None,,612.5547919799894,None,612.5547919799894,None,2022-05-25-12:22:01.056332,612.555875399994,612.8706295999873,612.555875399994,None,None,612.555875399994,None,613.3603862799966,None,,,,12018,0002,2022_May_25_1211,localizer,2021.1.3,59.38058919601576,
block,scenes,scenes015.bmp,,,,,0,66,66,66,,,,,,,,,,,,,,,,,,,,,,,,,,,,,,,,,,,,,,,,,,None,,613.3603862799966,None,613.3603862799966,None,2022-05-25-12:22:01.867885,613.3692866999772,613.6705836000037,613.3692866999772,None,None,613.3692866999772,None,614.1773481799785,None,,,,12018,0002,2022_May_25_1211,localizer,2021.1.3,59.38058919601576,
block,scenes,scenes085.bmp,,,,,0,67,67,67,,,,,,,,,,,,,,,,,,,,,,,,,,,,,,,,,,,,,,,,,,None,,614.1773481799785,None,614.1773481799785,None,2022-05-25-12:22:02.683888,614.183971099992,614.4874067999772,614.183971099992,None,None,614.183971099992,None,614.9880500799948,None,,,,12018,0002,2022_May_25_1211,localizer,2021.1.3,59.38058919601576,
block,scenes,scenes048.bmp,,,,,0,68,68,68,,,,,,,,,,,,,,,,,,,,,,,,,,,,,,,,,,,,,,,,,,None,,614.9880500799948,None,614.9880500799948,None,2022-05-25-12:22:03.489784,615.0060718999885,615.3210277999751,615.0060718999885,None,None,615.0060718999885,None,615.8050733799785,None,,,,12018,0002,2022_May_25_1211,localizer,2021.1.3,59.38058919601576,
block,scenes,scenes041.bmp,,,,,0,69,69,69,,,,,,,,,,,,,,,,,,,,,,,,,,,,,,,,,,,,,,,,,,None,,615.8050733799785,None,615.8050733799785,None,2022-05-25-12:22:04.306801,615.8182865999988,616.121095599985,615.8182865999988,None,None,615.8182865999988,None,616.621475879979,None,,,,12018,0002,2022_May_25_1211,localizer,2021.1.3,59.38058919601576,
block,scenes,scenes074.bmp,,,,,0,70,70,70,,,,,,,,,,,,,,,,,,,,,,,,,,,,,,,,,,,,,,,,,,None,,616.621475879979,None,616.621475879979,None,2022-05-25-12:22:05.123018,616.6227224000031,616.9387468999776,616.6227224000031,None,None,616.6227224000031,None,617.4220222799952,None,,,,12018,0002,2022_May_25_1211,localizer,2021.1.3,59.38058919601576,
block,scenes,scenes020.bmp,,,,,0,71,71,71,,,,,,,,,,,,,,,,,,,,,,,,,,,,,,,,,,,,,,,,,,None,,617.4220222799952,None,617.4220222799952,None,2022-05-25-12:22:05.927548,617.4397713999788,617.7543533999997,617.4397713999788,617.4397713999788,None,617.4397713999788,617.4397713999788,618.2382211799879,None,,,,12018,0002,2022_May_25_1211,localizer,2021.1.3,59.38058919601576,
block,scenes,scenes083.bmp,,,,,0,72,72,72,,,,,,,,,,,,,,,,,,,,,,,,,,,,,,,,,,,,,,,,,,None,,618.2382211799879,None,618.2382211799879,None,2022-05-25-12:22:06.739702,618.2502588999923,618.5539594999864,618.2502588999923,None,None,618.2502588999923,None,619.0538913800003,None,,,,12018,0002,2022_May_25_1211,localizer,2021.1.3,59.38058919601576,
block,scenes,scenes036.bmp,,,,,0,73,73,73,,,,,,,,,,,,,,,,,,,,,,,,,,,,,,,,,,,,,,,,,,None,,619.0538913800003,None,619.0538913800003,None,2022-05-25-12:22:07.554898,619.0553544999857,619.3549342999759,619.0553544999857,None,None,619.0553544999857,None,619.8547613799776,None,,,,12018,0002,2022_May_25_1211,localizer,2021.1.3,59.38058919601576,
block,scenes,scenes035.bmp,,,,,0,74,74,74,,,,,,,,,,,,,,,,,,,,,,,,,,,,,,,,,,,,,,,,,,None,,619.8547613799776,None,619.8547613799776,None,2022-05-25-12:22:08.358335,619.857841399993,620.1613519999955,619.857841399993,619.857841399993,None,619.857841399993,619.857841399993,620.6729160799907,None,,,,12018,0002,2022_May_25_1211,localizer,2021.1.3,59.38058919601576,
block_end,scenes,scenes011.bmp,,,,,0,75,75,75,,,,,,,,,,,,,,,,,,,,,,,,,,,,,,,,,,,,,,,,,,None,,620.6729160799907,None,620.6729160799907,None,2022-05-25-12:22:09.177459,620.6783632999868,620.9884236999787,620.6783632999868,None,None,620.6783632999868,None,621.4873261799833,None,,,,12018,0002,2022_May_25_1211,localizer,2021.1.3,59.38058919601576,
block_start,faces,faces025.bmp,,,,,0,76,76,76,,,,,,,,,,,,,,,,,,,,,,,,,,,,,,,,,,,,,,,,,,t,1.811089599999832,621.4875699999975,None,621.4875699999975,None,2022-05-25-12:22:11.820323,623.3309447999927,623.63788569998,623.3309447999927,None,None,623.3309447999927,None,624.137922379977,None,,,,12018,0002,2022_May_25_1211,localizer,2021.1.3,59.38058919601576,
block,faces,faces080.bmp,,,,,0,77,77,77,,,,,,,,,,,,,,,,,,,,,,,,,,,,,,,,,,,,,,,,,,None,,624.137922379977,None,624.137922379977,None,2022-05-25-12:22:12.637445,624.139310300001,624.4541700999835,624.139310300001,None,None,624.139310300001,None,624.9547724799806,None,,,,12018,0002,2022_May_25_1211,localizer,2021.1.3,59.38058919601576,
block,faces,faces027.bmp,,,,,0,78,78,78,,,,,,,,,,,,,,,,,,,,,,,,,,,,,,,,,,,,,,,,,,None,,624.9547724799806,None,624.9547724799806,None,2022-05-25-12:22:13.456315,624.9688876,625.271162399993,624.9688876,None,None,624.9688876,None,625.7707856799855,None,,,,12018,0002,2022_May_25_1211,localizer,2021.1.3,59.38058919601576,
block,faces,faces022.bmp,,,,,0,79,79,79,,,,,,,,,,,,,,,,,,,,,,,,,,,,,,,,,,,,,,,,,,None,,625.7707856799855,None,625.7707856799855,None,2022-05-25-12:22:14.271354,625.7718395999982,626.0713619999879,625.7718395999982,None,None,625.7718395999982,None,626.5709416799975,None,,,,12018,0002,2022_May_25_1211,localizer,2021.1.3,59.38058919601576,
block,faces,faces081.bmp,,,,,0,80,80,80,,,,,,,,,,,,,,,,,,,,,,,,,,,,,,,,,,,,,,,,,,None,,626.5709416799975,None,626.5709416799975,None,2022-05-25-12:22:15.073049,626.5841714999988,626.8877988999884,626.5841714999988,626.5841714999988,None,626.5841714999988,626.5841714999988,627.3874764799868,None,,,,12018,0002,2022_May_25_1211,localizer,2021.1.3,59.38058919601576,
block,faces,faces015.bmp,,,,,0,81,81,81,,,,,,,,,,,,,,,,,,,,,,,,,,,,,,,,,,,,,,,,,,None,,627.3874764799868,None,627.3874764799868,None,2022-05-25-12:22:15.887054,627.3897103999916,627.7042305999785,627.3897103999916,None,None,627.3897103999916,None,628.2040445799969,None,,,,12018,0002,2022_May_25_1211,localizer,2021.1.3,59.38058919601576,
block,faces,faces087.bmp,,,,,0,82,82,82,,,,,,,,,,,,,,,,,,,,,,,,,,,,,,,,,,,,,,,,,,None,,628.2040445799969,None,628.2040445799969,None,2022-05-25-12:22:16.704508,628.2052758999926,628.5050423999783,628.2052758999926,None,None,628.2052758999926,None,629.0049007799855,None,,,,12018,0002,2022_May_25_1211,localizer,2021.1.3,59.38058919601576,
block,faces,faces001.bmp,,,,,0,83,83,83,,,,,,,,,,,,,,,,,,,,,,,,,,,,,,,,,,,,,,,,,,None,,629.0049007799855,None,629.0049007799855,None,2022-05-25-12:22:17.508548,629.0081019999925,629.3213455999794,629.0081019999925,629.0081019999925,None,629.0081019999925,629.0081019999925,629.8206373799796,None,,,,12018,0002,2022_May_25_1211,localizer,2021.1.3,59.38058919601576,
block,faces,faces030.bmp,,,,,0,84,84,84,,,,,,,,,,,,,,,,,,,,,,,,,,,,,,,,,,,,,,,,,,None,,629.8206373799796,None,629.8206373799796,None,2022-05-25-12:22:18.321222,629.8220573999861,630.1375059999991,629.8220573999861,None,None,629.8220573999861,None,630.6373699799908,None,,,,12018,0002,2022_May_25_1211,localizer,2021.1.3,59.38058919601576,
block,faces,faces023.bmp,,,,,0,85,85,85,,,,,,,,,,,,,,,,,,,,,,,,,,,,,,,,,,,,,,,,,,None,,630.6373699799908,None,630.6373699799908,None,2022-05-25-12:22:19.138599,630.6480340999842,630.9545757999877,630.6480340999842,None,None,630.6480340999842,None,631.4541916799819,None,,,,12018,0002,2022_May_25_1211,localizer,2021.1.3,59.38058919601576,
block,faces,faces020.bmp,,,,,0,86,86,86,,,,,,,,,,,,,,,,,,,,,,,,,,,,,,,,,,,,,,,,,,None,,631.4541916799819,None,631.4541916799819,None,2022-05-25-12:22:19.954745,631.4650869999896,631.7710712999979,631.4650869999896,None,None,631.4650869999896,None,632.2706051799789,None,,,,12018,0002,2022_May_25_1211,localizer,2021.1.3,59.38058919601576,
block,faces,faces037.bmp,,,,,0,87,87,87,,,,,,,,,,,,,,,,,,,,,,,,,,,,,,,,,,,,,,,,,,None,,632.2706051799789,None,632.2706051799789,None,2022-05-25-12:22:20.771164,632.2721681999974,632.5716945999884,632.2721681999974,None,None,632.2721681999974,None,633.0877533799824,None,,,,12018,0002,2022_May_25_1211,localizer,2021.1.3,59.38058919601576,
block,faces,faces009.bmp,,,,,0,88,88,88,,,,,,,,,,,,,,,,,,,,,,,,,,,,,,,,,,,,,,,,,,None,,633.0877533799824,None,633.0877533799824,None,2022-05-25-12:22:21.588492,633.0956958000024,633.4040340999782,633.0956958000024,None,None,633.0956958000024,None,633.9042522799894,None,,,,12018,0002,2022_May_25_1211,localizer,2021.1.3,59.38058919601576,
block,faces,faces019.bmp,,,,,0,89,89,89,,,,,,,,,,,,,,,,,,,,,,,,,,,,,,,,,,,,,,,,,,None,,633.9042522799894,None,633.9042522799894,None,2022-05-25-12:22:22.405034,633.9215340999945,634.2210158999951,633.9215340999945,None,None,633.9215340999945,None,634.7214982799808,None,,,,12018,0002,2022_May_25_1211,localizer,2021.1.3,59.38058919601576,
block_end,faces,faces018.bmp,,,,,0,90,90,90,,,,,,,,,,,,,,,,,,,,,,,,,,,,,,,,,,,,,,,,,,None,,634.7214982799808,None,634.7214982799808,None,2022-05-25-12:22:23.223011,634.7225491999998,635.0377838999848,634.7225491999998,None,None,634.7225491999998,None,635.5375758799812,None,,,,12018,0002,2022_May_25_1211,localizer,2021.1.3,59.38058919601576,
null_block,null_block,null_block.bmp,,,,,0,91,91,91,,,,,,,,,,,,,,,,,,,,,,,,,,,,,,,,,,,,,,,,,,t,1.7609496999939438,635.5376779999933,None,635.5376779999933,None,2022-05-25-12:22:25.821156,637.3205959799845,None,637.3205959799845,None,None,637.3205959799845,None,637.3233191999898,None,,,,12018,0002,2022_May_25_1211,localizer,2021.1.3,59.38058919601576,
block_start,objects,objects008.bmp,,,,,0,92,92,92,,,,,,,,,,,,,,,,,,,,,,,,,,,,,,,,,,,,,,,,,,t,1.960518800013233,649.3383730999776,None,649.3383730999776,None,2022-05-25-12:22:39.825617,651.3250947999768,651.6374912000028,651.3250947999768,None,None,651.3250947999768,None,652.1381425799948,None,,,,12018,0002,2022_May_25_1211,localizer,2021.1.3,59.38058919601576,
block,objects,objects074.bmp,,,,,0,93,93,93,,,,,,,,,,,,,,,,,,,,,,,,,,,,,,,,,,,,,,,,,,None,,652.1381425799948,None,652.1381425799948,None,2022-05-25-12:22:40.637832,652.1387729999842,652.454407799989,652.1387729999842,None,None,652.1387729999842,None,652.954057779981,None,,,,12018,0002,2022_May_25_1211,localizer,2021.1.3,59.38058919601576,
block,objects,objects048.bmp,,,,,0,94,94,94,,,,,,,,,,,,,,,,,,,,,,,,,,,,,,,,,,,,,,,,,,None,,652.954057779981,None,652.954057779981,None,2022-05-25-12:22:41.454613,652.9555779999937,653.2712058000034,652.9555779999937,None,None,652.9555779999937,None,653.770733679997,None,,,,12018,0002,2022_May_25_1211,localizer,2021.1.3,59.38058919601576,
block,objects,objects072.bmp,,,,,0,95,95,95,,,,,,,,,,,,,,,,,,,,,,,,,,,,,,,,,,,,,,,,,,None,,653.770733679997,None,653.770733679997,None,2022-05-25-12:22:42.270296,653.772174999991,654.0877111000009,653.772174999991,None,None,653.772174999991,None,654.5722284799879,None,,,,12018,0002,2022_May_25_1211,localizer,2021.1.3,59.38058919601576,
block,objects,objects046.bmp,,,,,0,96,96,96,,,,,,,,,,,,,,,,,,,,,,,,,,,,,,,,,,,,,,,,,,None,,654.5722284799879,None,654.5722284799879,None,2022-05-25-12:22:43.075756,654.576336899976,654.8878878999967,654.576336899976,654.576336899976,None,654.576336899976,654.576336899976,655.3877200799791,None,,,,12018,0002,2022_May_25_1211,localizer,2021.1.3,59.38058919601576,
block,objects,objects018.bmp,,,,,0,97,97,97,,,,,,,,,,,,,,,,,,,,,,,,,,,,,,,,,,,,,,,,,,None,,655.3877200799791,None,655.3877200799791,None,2022-05-25-12:22:43.888272,655.3887399999949,655.6881748999876,655.3887399999949,None,None,655.3887399999949,None,656.1922240799788,None,,,,12018,0002,2022_May_25_1211,localizer,2021.1.3,59.38058919601576,
block,objects,objects070.bmp,,,,,0,98,98,98,,,,,,,,,,,,,,,,,,,,,,,,,,,,,,,,,,,,,,,,,,None,,656.1922240799788,None,656.1922240799788,None,2022-05-25-12:22:44.696860,656.1956945999991,656.5043978999893,656.1956945999991,656.1956945999991,None,656.1956945999991,656.1956945999991,657.0043098799972,None,,,,12018,0002,2022_May_25_1211,localizer,2021.1.3,59.38058919601576,
block,objects,objects009.bmp,,,,,0,99,99,99,,,,,,,,,,,,,,,,,,,,,,,,,,,,,,,,,,,,,,,,,,None,,657.0043098799972,None,657.0043098799972,None,2022-05-25-12:22:45.504864,657.0054360999784,657.3049356999982,657.0054360999784,None,None,657.0054360999784,None,657.8046287799982,None,,,,12018,0002,2022_May_25_1211,localizer,2021.1.3,59.38058919601576,
block,objects,objects031.bmp,,,,,0,100,100,100,,,,,,,,,,,,,,,,,,,,,,,,,,,,,,,,,,,,,,,,,,None,,657.8046287799982,None,657.8046287799982,None,2022-05-25-12:22:46.307174,657.8076701999817,658.1113023999787,657.8076701999817,657.8076701999817,None,657.8076701999817,657.8076701999817,658.6208348799876,None,,,,12018,0002,2022_May_25_1211,localizer,2021.1.3,59.38058919601576,
block,objects,objects044.bmp,,,,,0,101,101,101,,,,,,,,,,,,,,,,,,,,,,,,,,,,,,,,,,,,,,,,,,None,,658.6208348799876,None,658.6208348799876,None,2022-05-25-12:22:47.121395,658.6223448999808,658.9377642000036,658.6223448999808,None,None,658.6223448999808,None,659.4222143800027,None,,,,12018,0002,2022_May_25_1211,localizer,2021.1.3,59.38058919601576,
block,objects,objects069.bmp,,,,,0,102,102,102,,,,,,,,,,,,,,,,,,,,,,,,,,,,,,,,,,,,,,,,,,None,,659.4222143800027,None,659.4222143800027,None,2022-05-25-12:22:47.925913,659.4386103999859,659.7543045999773,659.4386103999859,659.4386103999859,None,659.4386103999859,659.4386103999859,660.2374700800021,None,,,,12018,0002,2022_May_25_1211,localizer,2021.1.3,59.38058919601576,
block,objects,objects045.bmp,,,,,0,103,103,103,,,,,,,,,,,,,,,,,,,,,,,,,,,,,,,,,,,,,,,,,,None,,660.2374700800021,None,660.2374700800021,None,2022-05-25-12:22:48.738095,660.2387800999859,660.5541998999834,660.2387800999859,None,None,660.2387800999859,None,661.0544265800011,None,,,,12018,0002,2022_May_25_1211,localizer,2021.1.3,59.38058919601576,
block,objects,objects045.bmp,,,,,0,104,104,104,,,,,,,,,,,,,,,,,,,,,,,,,,,,,,,,,,,,,,,,,,None,,661.0544265800011,None,661.0544265800011,None,2022-05-25-12:22:49.555186,661.0554304999823,661.3711404999776,661.0554304999823,None,y,661.0554304999823,None,661.8710246799776,None,0.550126200017985,,,12018,0002,2022_May_25_1211,localizer,2021.1.3,59.38058919601576,
block,objects,objects020.bmp,,,,,0,105,105,105,,,,,,,,,,,,,,,,,,,,,,,,,,,,,,,,,,,,,,,,,,None,,661.8710246799776,None,661.8710246799776,None,2022-05-25-12:22:50.371579,661.8815784000035,662.1886079999967,661.8815784000035,None,None,661.8815784000035,None,662.6778225799819,None,,,,12018,0002,2022_May_25_1211,localizer,2021.1.3,59.38058919601576,
block_end,objects,objects021.bmp,,,,,0,106,106,106,,,,,,,,,,,,,,,,,,,,,,,,,,,,,,,,,,,,,,,,,,None,,662.6778225799819,None,662.6778225799819,None,2022-05-25-12:22:51.183756,662.6837585999747,662.9876295999857,662.6837585999747,None,None,662.6837585999747,None,663.4875925799745,None,,,,12018,0002,2022_May_25_1211,localizer,2021.1.3,59.38058919601576,
block_start,scrambled,scrambled017.bmp,,,,,0,107,107,107,,,,,,,,,,,,,,,,,,,,,,,,,,,,,,,,,,,,,,,,,,t,1.8107829999935348,663.4878753999947,None,663.4878753999947,None,2022-05-25-12:22:53.822288,665.3225040999823,665.6219117,665.3225040999823,None,None,665.3225040999823,None,666.1218230800034,None,,,,12018,0002,2022_May_25_1211,localizer,2021.1.3,59.38058919601576,
block,scrambled,scrambled073.bmp,,,,,0,108,108,108,,,,,,,,,,,,,,,,,,,,,,,,,,,,,,,,,,,,,,,,,,None,,666.1218230800034,None,666.1218230800034,None,2022-05-25-12:22:54.625389,666.1247789999761,666.4376239999838,666.1247789999761,666.1247789999761,None,666.1247789999761,666.1247789999761,666.9377124799969,None,,,,12018,0002,2022_May_25_1211,localizer,2021.1.3,59.38058919601576,
block,scrambled,scrambled083.bmp,,,,,0,109,109,109,,,,,,,,,,,,,,,,,,,,,,,,,,,,,,,,,,,,,,,,,,None,,666.9377124799969,None,666.9377124799969,None,2022-05-25-12:22:55.437848,666.9483002999914,667.2544211999921,666.9483002999914,None,None,666.9483002999914,None,667.7544310799888,None,,,,12018,0002,2022_May_25_1211,localizer,2021.1.3,59.38058919601576,
block,scrambled,scrambled029.bmp,,,,,0,110,110,110,,,,,,,,,,,,,,,,,,,,,,,,,,,,,,,,,,,,,,,,,,None,,667.7544310799888,None,667.7544310799888,None,2022-05-25-12:22:56.255225,667.7555440999859,668.0711986999959,667.7555440999859,None,None,667.7555440999859,None,668.5706337799813,None,,,,12018,0002,2022_May_25_1211,localizer,2021.1.3,59.38058919601576,
block,scrambled,scrambled024.bmp,,,,,0,111,111,111,,,,,,,,,,,,,,,,,,,,,,,,,,,,,,,,,,,,,,,,,,None,,668.5706337799813,None,668.5706337799813,None,2022-05-25-12:22:57.070989,668.5730713999947,668.8876661999966,668.5730713999947,None,None,668.5730713999947,None,669.3879209799954,None,,,,12018,0002,2022_May_25_1211,localizer,2021.1.3,59.38058919601576,
block,scrambled,scrambled023.bmp,,,,,0,112,112,112,,,,,,,,,,,,,,,,,,,,,,,,,,,,,,,,,,,,,,,,,,None,,669.3879209799954,None,669.3879209799954,None,2022-05-25-12:22:57.888685,669.3888792999787,669.6883795000031,669.3888792999787,None,None,669.3888792999787,None,670.2041177800013,None,,,,12018,0002,2022_May_25_1211,localizer,2021.1.3,59.38058919601576,
block,scrambled,scrambled031.bmp,,,,,0,113,113,113,,,,,,,,,,,,,,,,,,,,,,,,,,,,,,,,,,,,,,,,,,None,,670.2041177800013,None,670.2041177800013,None,2022-05-25-12:22:58.704941,670.205407100002,670.5209596999921,670.205407100002,None,None,670.205407100002,None,671.0047036799981,None,,,,12018,0002,2022_May_25_1211,localizer,2021.1.3,59.38058919601576,
block,scrambled,scrambled067.bmp,,,,,0,114,114,114,,,,,,,,,,,,,,,,,,,,,,,,,,,,,,,,,,,,,,,,,,None,,671.0047036799981,None,671.0047036799981,None,2022-05-25-12:22:59.507450,671.0197513999883,671.3209644999879,671.0197513999883,671.0197513999883,None,671.0197513999883,671.0197513999883,671.8232011800021,None,,,,12018,0002,2022_May_25_1211,localizer,2021.1.3,59.38058919601576,
block,scrambled,scrambled057.bmp,,,,,0,115,115,115,,,,,,,,,,,,,,,,,,,,,,,,,,,,,,,,,,,,,,,,,,None,,671.8232011800021,None,671.8232011800021,None,2022-05-25-12:23:00.327734,671.8401183999958,672.154263799981,671.8401183999958,None,None,671.8401183999958,None,672.6376027799881,None,,,,12018,0002,2022_May_25_1211,localizer,2021.1.3,59.38058919601576,
block,scrambled,scrambled087.bmp,,,,,0,116,116,116,,,,,,,,,,,,,,,,,,,,,,,,,,,,,,,,,,,,,,,,,,None,,672.6376027799881,None,672.6376027799881,None,2022-05-25-12:23:01.136931,672.6390469000034,672.9547698999813,672.6390469000034,None,None,672.6390469000034,None,673.4545198799781,None,,,,12018,0002,2022_May_25_1211,localizer,2021.1.3,59.38058919601576,
block,scrambled,scrambled075.bmp,,,,,0,117,117,117,,,,,,,,,,,,,,,,,,,,,,,,,,,,,,,,,,,,,,,,,,None,,673.4545198799781,None,673.4545198799781,None,2022-05-25-12:23:01.955074,673.4655424999946,673.7719015999755,673.4655424999946,None,None,673.4655424999946,None,674.2723634799797,None,,,,12018,0002,2022_May_25_1211,localizer,2021.1.3,59.38058919601576,
block,scrambled,scrambled008.bmp,,,,,0,118,118,118,,,,,,,,,,,,,,,,,,,,,,,,,,,,,,,,,,,,,,,,,,None,,674.2723634799797,None,674.2723634799797,None,2022-05-25-12:23:02.773899,674.2848964000004,674.5879452999798,674.2848964000004,None,None,674.2848964000004,None,675.0879288799799,None,,,,12018,0002,2022_May_25_1211,localizer,2021.1.3,59.38058919601576,
block,scrambled,scrambled066.bmp,,,,,0,119,119,119,,,,,,,,,,,,,,,,,,,,,,,,,,,,,,,,,,,,,,,,,,None,,675.0879288799799,None,675.0879288799799,None,2022-05-25-12:23:03.588715,675.0990439000016,675.4043692999985,675.0990439000016,None,None,675.0990439000016,None,675.9045611799841,None,,,,12018,0002,2022_May_25_1211,localizer,2021.1.3,59.38058919601576,
block,scrambled,scrambled088.bmp,,,,,0,120,120,120,,,,,,,,,,,,,,,,,,,,,,,,,,,,,,,,,,,,,,,,,,None,,675.9045611799841,None,675.9045611799841,None,2022-05-25-12:23:04.405112,675.9055413999886,676.2048225000035,675.9055413999886,None,None,675.9055413999886,None,676.7055492799875,None,,,,12018,0002,2022_May_25_1211,localizer,2021.1.3,59.38058919601576,
block_end,scrambled,scrambled040.bmp,,,,,0,121,121,121,,,,,,,,,,,,,,,,,,,,,,,,,,,,,,,,,,,,,,,,,,None,,676.7055492799875,None,676.7055492799875,None,2022-05-25-12:23:05.209274,676.7206551999843,677.0212017000013,676.7206551999843,676.7206551999843,None,676.7206551999843,676.7206551999843,677.5212277799758,None,,,,12018,0002,2022_May_25_1211,localizer,2021.1.3,59.38058919601576,
null_block,null_block,null_block.bmp,,,,,0,122,122,122,,,,,,,,,,,,,,,,,,,,,,,,,,,,,,,,,,,,,,,,,,t,1.7759246999921743,677.5215199999802,None,677.5215199999802,None,2022-05-25-12:23:07.820570,679.3210122799821,None,679.3210122799821,None,None,679.3210122799821,None,679.3315787999891,None,,,,12018,0002,2022_May_25_1211,localizer,2021.1.3,59.38058919601576,
block_start,scrambled,scrambled085.bmp,,,,,0,123,123,123,,,,,,,,,,,,,,,,,,,,,,,,,,,,,,,,,,,,,,,,,,t,1.9582456999924034,691.3392211000028,None,691.3392211000028,None,2022-05-25-12:23:21.822950,693.3232610999839,693.644845599978,693.3232610999839,None,None,693.3232610999839,None,694.1379445800005,None,,,,12018,0002,2022_May_25_1211,localizer,2021.1.3,59.38058919601576,
block,scrambled,scrambled070.bmp,,,,,0,124,124,124,,,,,,,,,,,,,,,,,,,,,,,,,,,,,,,,,,,,,,,,,,None,,694.1379445800005,None,694.1379445800005,None,2022-05-25-12:23:22.638364,694.1388529999822,694.4382944999961,694.1388529999822,None,None,694.1388529999822,None,694.9409865799855,None,,,,12018,0002,2022_May_25_1211,localizer,2021.1.3,59.38058919601576,
block,scrambled,scrambled017.bmp,,,,,0,125,125,125,,,,,,,,,,,,,,,,,,,,,,,,,,,,,,,,,,,,,,,,,,None,,694.9409865799855,None,694.9409865799855,None,2022-05-25-12:23:23.446628,694.9454137999855,695.2552922999894,694.9454137999855,694.9454137999855,None,694.9454137999855,694.9454137999855,695.754318280003,None,,,,12018,0002,2022_May_25_1211,localizer,2021.1.3,59.38058919601576,
block,scrambled,scrambled018.bmp,,,,,0,126,126,126,,,,,,,,,,,,,,,,,,,,,,,,,,,,,,,,,,,,,,,,,,None,,695.754318280003,None,695.754318280003,None,2022-05-25-12:23:24.253880,695.7556232999777,696.0554211999988,695.7556232999777,None,None,695.7556232999777,None,696.555353379986,None,,,,12018,0002,2022_May_25_1211,localizer,2021.1.3,59.38058919601576,
block,scrambled,scrambled031.bmp,,,,,0,127,127,127,,,,,,,,,,,,,,,,,,,,,,,,,,,,,,,,,,,,,,,,,,None,,696.555353379986,None,696.555353379986,None,2022-05-25-12:23:25.058917,696.5587403999816,696.8720650999749,696.5587403999816,696.5587403999816,None,696.5587403999816,696.5587403999816,697.371158379977,None,,,,12018,0002,2022_May_25_1211,localizer,2021.1.3,59.38058919601576,
block,scrambled,scrambled061.bmp,,,,,0,128,128,128,,,,,,,,,,,,,,,,,,,,,,,,,,,,,,,,,,,,,,,,,,None,,697.371158379977,None,697.371158379977,None,2022-05-25-12:23:25.871818,697.3722375999787,697.6879000999907,697.3722375999787,None,None,697.3722375999787,None,698.1876914799825,None,,,,12018,0002,2022_May_25_1211,localizer,2021.1.3,59.38058919601576,
block,scrambled,scrambled078.bmp,,,,,0,129,129,129,,,,,,,,,,,,,,,,,,,,,,,,,,,,,,,,,,,,,,,,,,None,,698.1876914799825,None,698.1876914799825,None,2022-05-25-12:23:26.688250,698.1967924999772,698.504821199982,698.1967924999772,None,None,698.1967924999772,None,699.0046306799952,None,,,,12018,0002,2022_May_25_1211,localizer,2021.1.3,59.38058919601576,
block,scrambled,scrambled028.bmp,,,,,0,130,130,130,,,,,,,,,,,,,,,,,,,,,,,,,,,,,,,,,,,,,,,,,,None,,699.0046306799952,None,699.0046306799952,None,2022-05-25-12:23:27.505266,699.0055940999882,699.3047855999903,699.0055940999882,None,None,699.0055940999882,None,699.820993679986,None,,,,12018,0002,2022_May_25_1211,localizer,2021.1.3,59.38058919601576,
block,scrambled,scrambled077.bmp,,,,,0,131,131,131,,,,,,,,,,,,,,,,,,,,,,,,,,,,,,,,,,,,,,,,,,None,,699.820993679986,None,699.820993679986,None,2022-05-25-12:23:28.321553,699.822459899995,700.1417391999858,699.822459899995,None,None,699.822459899995,None,700.6276351799927,None,,,,12018,0002,2022_May_25_1211,localizer,2021.1.3,59.38058919601576,
block,scrambled,scrambled060.bmp,,,,,0,132,132,132,,,,,,,,,,,,,,,,,,,,,,,,,,,,,,,,,,,,,,,,,,None,,700.6276351799927,None,700.6276351799927,None,2022-05-25-12:23:29.132175,700.6310883999977,700.938098899991,700.6310883999977,None,None,700.6310883999977,None,701.4379418799974,None,,,,12018,0002,2022_May_25_1211,localizer,2021.1.3,59.38058919601576,
block,scrambled,scrambled063.bmp,,,,,0,133,133,133,,,,,,,,,,,,,,,,,,,,,,,,,,,,,,,,,,,,,,,,,,None,,701.4379418799974,None,701.4379418799974,None,2022-05-25-12:23:29.938292,701.4391093000013,701.7417166999949,701.4391093000013,None,None,701.4391093000013,None,702.2390682799771,None,,,,12018,0002,2022_May_25_1211,localizer,2021.1.3,59.38058919601576,
block,scrambled,scrambled062.bmp,,,,,0,134,134,134,,,,,,,,,,,,,,,,,,,,,,,,,,,,,,,,,,,,,,,,,,None,,702.2390682799771,None,702.2390682799771,None,2022-05-25-12:23:30.743597,702.2565399000014,702.5714726999868,702.2565399000014,702.2565399000014,None,702.2565399000014,702.2565399000014,703.0550992800011,None,,,,12018,0002,2022_May_25_1211,localizer,2021.1.3,59.38058919601576,
block,scrambled,scrambled041.bmp,,,,,0,135,135,135,,,,,,,,,,,,,,,,,,,,,,,,,,,,,,,,,,,,,,,,,,None,,703.0550992800011,None,703.0550992800011,None,2022-05-25-12:23:31.556840,703.0557707999833,703.3551759999827,703.0557707999833,None,None,703.0557707999833,None,703.8553202799842,None,,,,12018,0002,2022_May_25_1211,localizer,2021.1.3,59.38058919601576,
block,scrambled,scrambled052.bmp,,,,,0,136,136,136,,,,,,,,,,,,,,,,,,,,,,,,,,,,,,,,,,,,,,,,,,None,,703.8553202799842,None,703.8553202799842,None,2022-05-25-12:23:32.358804,703.8583836999896,704.1769015000027,703.8583836999896,703.8583836999896,None,703.8583836999896,703.8583836999896,704.6720413799951,None,,,,12018,0002,2022_May_25_1211,localizer,2021.1.3,59.38058919601576,
block_end,scrambled,scrambled045.bmp,,,,,0,137,137,137,,,,,,,,,,,,,,,,,,,,,,,,,,,,,,,,,,,,,,,,,,None,,704.6720413799951,None,704.6720413799951,None,2022-05-25-12:23:33.173563,704.6727690999978,704.9885329999961,704.6727690999978,None,None,704.6727690999978,None,705.487924379998,None,,,,12018,0002,2022_May_25_1211,localizer,2021.1.3,59.38058919601576,
block_start,faces,faces040.bmp,,,,,0,138,138,138,,,,,,,,,,,,,,,,,,,,,,,,,,,,,,,,,,,,,,,,,,t,1.8094297999923583,705.4881056000013,None,705.4881056000013,None,2022-05-25-12:23:35.821082,707.3334850999818,707.6447035000019,707.3334850999818,None,None,707.3334850999818,None,708.1390167799866,None,,,,12018,0002,2022_May_25_1211,localizer,2021.1.3,59.38058919601576,
block,faces,faces080.bmp,,,,,0,139,139,139,,,,,,,,,,,,,,,,,,,,,,,,,,,,,,,,,,,,,,,,,,None,,708.1390167799866,None,708.1390167799866,None,2022-05-25-12:23:36.641532,708.14435279998,708.4609234999807,708.14435279998,None,None,708.14435279998,None,708.9556217799866,None,,,,12018,0002,2022_May_25_1211,localizer,2021.1.3,59.38058919601576,
block,faces,faces064.bmp,,,,,0,140,140,140,,,,,,,,,,,,,,,,,,,,,,,,,,,,,,,,,,,,,,,,,,None,,708.9556217799866,None,708.9556217799866,None,2022-05-25-12:23:37.457352,708.9568289000017,709.271396199998,708.9568289000017,None,None,708.9568289000017,None,709.7711558799813,None,,,,12018,0002,2022_May_25_1211,localizer,2021.1.3,59.38058919601576,
block,faces,faces001.bmp,,,,,0,141,141,141,,,,,,,,,,,,,,,,,,,,,,,,,,,,,,,,,,,,,,,,,,None,,709.7711558799813,None,709.7711558799813,None,2022-05-25-12:23:38.271625,709.7723732999875,710.0880351999949,709.7723732999875,None,None,709.7723732999875,None,710.5723953799782,None,,,,12018,0002,2022_May_25_1211,localizer,2021.1.3,59.38058919601576,
block,faces,faces052.bmp,,,,,0,142,142,142,,,,,,,,,,,,,,,,,,,,,,,,,,,,,,,,,,,,,,,,,,None,,710.5723953799782,None,710.5723953799782,None,2022-05-25-12:23:39.077149,710.5932248999889,710.9046855999914,710.5932248999889,710.5932248999889,None,710.5932248999889,710.5932248999889,711.3878225800029,None,,,,12018,0002,2022_May_25_1211,localizer,2021.1.3,59.38058919601576,
block,faces,faces071.bmp,,,,,0,143,143,143,,,,,,,,,,,,,,,,,,,,,,,,,,,,,,,,,,,,,,,,,,None,,711.3878225800029,None,711.3878225800029,None,2022-05-25-12:23:39.888393,711.397642099997,711.7046801999968,711.397642099997,None,None,711.397642099997,None,712.1926228799887,None,,,,12018,0002,2022_May_25_1211,localizer,2021.1.3,59.38058919601576,
block,faces,faces079.bmp,,,,,0,144,144,144,,,,,,,,,,,,,,,,,,,,,,,,,,,,,,,,,,,,,,,,,,None,,712.1926228799887,None,712.1926228799887,None,2022-05-25-12:23:40.695270,712.1984932999767,712.5045271999843,712.1984932999767,None,None,712.1984932999767,None,713.0046113799938,None,,,,12018,0002,2022_May_25_1211,localizer,2021.1.3,59.38058919601576,
block,faces,faces087.bmp,,,,,0,145,145,145,,,,,,,,,,,,,,,,,,,,,,,,,,,,,,,,,,,,,,,,,,None,,713.0046113799938,None,713.0046113799938,None,2022-05-25-12:23:41.505160,713.0057505999866,713.3082645999966,713.0057505999866,None,None,713.0057505999866,None,713.8210781799892,None,,,,12018,0002,2022_May_25_1211,localizer,2021.1.3,59.38058919601576,
block,faces,faces089.bmp,,,,,0,146,146,146,,,,,,,,,,,,,,,,,,,,,,,,,,,,,,,,,,,,,,,,,,None,,713.8210781799892,None,713.8210781799892,None,2022-05-25-12:23:42.321713,713.8225283999927,714.1219118000008,713.8225283999927,None,None,713.8225283999927,None,714.6383093799843,None,,,,12018,0002,2022_May_25_1211,localizer,2021.1.3,59.38058919601576,
block,faces,faces054.bmp,,,,,0,147,147,147,,,,,,,,,,,,,,,,,,,,,,,,,,,,,,,,,,,,,,,,,,None,,714.6383093799843,None,714.6383093799843,None,2022-05-25-12:23:43.139061,714.6394244999974,714.9551754999848,714.6394244999974,None,None,714.6394244999974,None,715.4385336799926,None,,,,12018,0002,2022_May_25_1211,localizer,2021.1.3,59.38058919601576,
block,faces,faces011.bmp,,,,,0,148,148,148,,,,,,,,,,,,,,,,,,,,,,,,,,,,,,,,,,,,,,,,,,None,,715.4385336799926,None,715.4385336799926,None,2022-05-25-12:23:43.942258,715.4417717999895,715.754996099975,715.4417717999895,715.4417717999895,None,715.4417717999895,715.4417717999895,716.2545954799891,None,,,,12018,0002,2022_May_25_1211,localizer,2021.1.3,59.38058919601576,
block,faces,faces043.bmp,,,,,0,149,149,149,,,,,,,,,,,,,,,,,,,,,,,,,,,,,,,,,,,,,,,,,,None,,716.2545954799891,None,716.2545954799891,None,2022-05-25-12:23:44.755380,716.2557815999899,716.5714833999809,716.2557815999899,None,None,716.2557815999899,None,717.0712273799902,None,,,,12018,0002,2022_May_25_1211,localizer,2021.1.3,59.38058919601576,
block,faces,faces082.bmp,,,,,0,150,150,150,,,,,,,,,,,,,,,,,,,,,,,,,,,,,,,,,,,,,,,,,,None,,717.0712273799902,None,717.0712273799902,None,2022-05-25-12:23:45.571781,717.0724037999753,717.3715142000001,717.0724037999753,None,None,717.0724037999753,None,717.8879463799851,None,,,,12018,0002,2022_May_25_1211,localizer,2021.1.3,59.38058919601576,
block,faces,faces035.bmp,,,,,0,151,151,151,,,,,,,,,,,,,,,,,,,,,,,,,,,,,,,,,,,,,,,,,,None,,717.8879463799851,None,717.8879463799851,None,2022-05-25-12:23:46.388499,717.8993360000022,718.2045284999767,717.8993360000022,None,None,717.8993360000022,None,718.7042835799832,None,,,,12018,0002,2022_May_25_1211,localizer,2021.1.3,59.38058919601576,
block_end,faces,faces008.bmp,,,,,0,152,152,152,,,,,,,,,,,,,,,,,,,,,,,,,,,,,,,,,,,,,,,,,,None,,718.7042835799832,None,718.7042835799832,None,2022-05-25-12:23:47.204382,718.7069230999914,719.0212446999794,718.7069230999914,None,None,718.7069230999914,None,719.5275797800016,None,,,,12018,0002,2022_May_25_1211,localizer,2021.1.3,59.38058919601576,
block_start,objects,objects064.bmp,,,,,0,153,153,153,,,,,,,,,,,,,,,,,,,,,,,,,,,,,,,,,,,,,,,,,,t,1.769663400016725,719.5277879999776,None,719.5277879999776,None,2022-05-25-12:23:49.822061,721.3226854999957,721.6384239000035,721.3226854999957,None,None,721.3226854999957,None,722.1376470799762,None,,,,12018,0002,2022_May_25_1211,localizer,2021.1.3,59.38058919601576,
block,objects,objects031.bmp,,,,,0,154,154,154,,,,,,,,,,,,,,,,,,,,,,,,,,,,,,,,,,,,,,,,,,None,,722.1376470799762,None,722.1376470799762,None,2022-05-25-12:23:50.637093,722.1397339999967,722.4548050999874,722.1397339999967,None,None,722.1397339999967,None,722.954340879983,None,,,,12018,0002,2022_May_25_1211,localizer,2021.1.3,59.38058919601576,
block,objects,objects065.bmp,,,,,0,155,155,155,,,,,,,,,,,,,,,,,,,,,,,,,,,,,,,,,,,,,,,,,,None,,722.954340879983,None,722.954340879983,None,2022-05-25-12:23:51.454897,722.9560569000023,723.2713294999849,722.9560569000023,None,None,722.9560569000023,None,723.7559369799885,None,,,,12018,0002,2022_May_25_1211,localizer,2021.1.3,59.38058919601576,
block,objects,objects084.bmp,,,,,0,156,156,156,,,,,,,,,,,,,,,,,,,,,,,,,,,,,,,,,,,,,,,,,,None,,723.7559369799885,None,723.7559369799885,None,2022-05-25-12:23:52.260645,723.760171699978,724.0721768999938,723.760171699978,723.760171699978,None,723.760171699978,723.760171699978,724.571431779975,None,,,,12018,0002,2022_May_25_1211,localizer,2021.1.3,59.38058919601576,
block,objects,objects026.bmp,,,,,0,157,157,157,,,,,,,,,,,,,,,,,,,,,,,,,,,,,,,,,,,,,,,,,,None,,724.571431779975,None,724.571431779975,None,2022-05-25-12:23:53.072396,724.5848898999975,724.8878602999903,724.5848898999975,None,None,724.5848898999975,None,725.3879307799828,None,,,,12018,0002,2022_May_25_1211,localizer,2021.1.3,59.38058919601576,
block,objects,objects067.bmp,,,,,0,158,158,158,,,,,,,,,,,,,,,,,,,,,,,,,,,,,,,,,,,,,,,,,,None,,725.3879307799828,None,725.3879307799828,None,2022-05-25-12:23:53.888487,725.3889575999929,725.688207899977,725.3889575999929,None,None,725.3889575999929,None,726.2043894799747,None,,,,12018,0002,2022_May_25_1211,localizer,2021.1.3,59.38058919601576,
block,objects,objects006.bmp,,,,,0,159,159,159,,,,,,,,,,,,,,,,,,,,,,,,,,,,,,,,,,,,,,,,,,None,,726.2043894799747,None,726.2043894799747,None,2022-05-25-12:23:54.703953,726.2062197999912,726.5214504999749,726.2062197999912,None,None,726.2062197999912,None,727.0213415799983,None,,,,12018,0002,2022_May_25_1211,localizer,2021.1.3,59.38058919601576,
block,objects,objects045.bmp,,,,,0,160,160,160,,,,,,,,,,,,,,,,,,,,,,,,,,,,,,,,,,,,,,,,,,None,,727.0213415799983,None,727.0213415799983,None,2022-05-25-12:23:55.521896,727.0226320999791,727.337812599988,727.0226320999791,None,None,727.0226320999791,None,727.8379024799826,None,,,,12018,0002,2022_May_25_1211,localizer,2021.1.3,59.38058919601576,
block,objects,objects030.bmp,,,,,0,161,161,161,,,,,,,,,,,,,,,,,,,,,,,,,,,,,,,,,,,,,,,,,,None,,727.8379024799826,None,727.8379024799826,None,2022-05-25-12:23:56.338459,727.8392431999964,728.1614717999764,727.8392431999964,None,None,727.8392431999964,None,728.661021679992,None,,,,12018,0002,2022_May_25_1211,localizer,2021.1.3,59.38058919601576,
block,objects,objects047.bmp,,,,,0,162,162,162,,,,,,,,,,,,,,,,,,,,,,,,,,,,,,,,,,,,,,,,,,None,,728.661021679992,None,728.661021679992,None,2022-05-25-12:23:57.169530,728.677370999998,728.988027799991,728.677370999998,None,None,728.677370999998,None,729.4720030799829,None,,,,12018,0002,2022_May_25_1211,localizer,2021.1.3,59.38058919601576,
block,objects,objects035.bmp,,,,,0,163,163,163,,,,,,,,,,,,,,,,,,,,,,,,,,,,,,,,,,,,,,,,,,None,,729.4720030799829,None,729.4720030799829,None,2022-05-25-12:23:57.973740,729.4838615999906,729.7889261999808,729.4838615999906,None,None,729.4838615999906,None,730.289262079986,None,,,,12018,0002,2022_May_25_1211,localizer,2021.1.3,59.38058919601576,
block,objects,objects050.bmp,,,,,0,164,164,164,,,,,,,,,,,,,,,,,,,,,,,,,,,,,,,,,,,,,,,,,,None,,730.289262079986,None,730.289262079986,None,2022-05-25-12:23:58.790797,730.2913031999778,730.6052031999861,730.2913031999778,None,None,730.2913031999778,None,731.1047227799747,None,,,,12018,0002,2022_May_25_1211,localizer,2021.1.3,59.38058919601576,
block,objects,objects052.bmp,,,,,0,165,165,165,,,,,,,,,,,,,,,,,,,,,,,,,,,,,,,,,,,,,,,,,,None,,731.1047227799747,None,731.1047227799747,None,2022-05-25-12:23:59.605278,731.1164187999966,731.4219373999804,731.1164187999966,None,None,731.1164187999966,None,731.9221030799993,None,,,,12018,0002,2022_May_25_1211,localizer,2021.1.3,59.38058919601576,
block,objects,objects001.bmp,,,,,0,166,166,166,,,,,,,,,,,,,,,,,,,,,,,,,,,,,,,,,,,,,,,,,,None,,731.9221030799993,None,731.9221030799993,None,2022-05-25-12:24:00.423834,731.9228441999876,732.23793079998,731.9228441999876,None,None,731.9228441999876,None,732.7378781799955,None,,,,12018,0002,2022_May_25_1211,localizer,2021.1.3,59.38058919601576,
block_end,objects,objects062.bmp,,,,,0,167,167,167,,,,,,,,,,,,,,,,,,,,,,,,,,,,,,,,,,,,,,,,,,None,,732.7378781799955,None,732.7378781799955,None,2022-05-25-12:24:01.238438,732.7391877999762,733.0547095999937,732.7391877999762,None,None,732.7391877999762,None,733.5546558800008,None,,,,12018,0002,2022_May_25_1211,localizer,2021.1.3,59.38058919601576,
block_start,scenes,scenes027.bmp,,,,,0,168,168,168,,,,,,,,,,,,,,,,,,,,,,,,,,,,,,,,,,,,,,,,,,t,1.7425734999997076,733.5548500999867,None,733.5548500999867,None,2022-05-25-12:24:03.820832,735.3311080999847,735.6381972999952,735.3311080999847,None,None,735.3311080999847,None,736.1377670799877,None,,,,12018,0002,2022_May_25_1211,localizer,2021.1.3,59.38058919601576,
block,scenes,scenes005.bmp,,,,,0,169,169,169,,,,,,,,,,,,,,,,,,,,,,,,,,,,,,,,,,,,,,,,,,None,,736.1377670799877,None,736.1377670799877,None,2022-05-25-12:24:04.637326,736.1392763999756,736.4547501999768,736.1392763999756,None,None,736.1392763999756,None,736.9393822799932,None,,,,12018,0002,2022_May_25_1211,localizer,2021.1.3,59.38058919601576,
block,scenes,scenes005.bmp,,,,,0,170,170,170,,,,,,,,,,,,,,,,,,,,,,,,,,,,,,,,,,,,,,,,,,None,,736.9393822799932,None,736.9393822799932,None,2022-05-25-12:24:05.444990,736.9449545999814,737.2555579000036,736.9449545999814,736.9449545999814,y,736.9449545999814,736.9449545999814,737.7553000799992,None,0.4484742000058759,,,12018,0002,2022_May_25_1211,localizer,2021.1.3,59.38058919601576,
block,scenes,scenes017.bmp,,,,,0,171,171,171,,,,,,,,,,,,,,,,,,,,,,,,,,,,,,,,,,,,,,,,,,None,,737.7553000799992,None,737.7553000799992,None,2022-05-25-12:24:06.257044,737.7565758999845,738.072001499997,737.7565758999845,None,None,737.7565758999845,None,738.5713883799938,None,,,,12018,0002,2022_May_25_1211,localizer,2021.1.3,59.38058919601576,
block,scenes,scenes018.bmp,,,,,0,172,172,172,,,,,,,,,,,,,,,,,,,,,,,,,,,,,,,,,,,,,,,,,,None,,738.5713883799938,None,738.5713883799938,None,2022-05-25-12:24:07.072381,738.5725438999943,738.8721161999856,738.5725438999943,None,None,738.5725438999943,None,739.3878905799968,None,,,,12018,0002,2022_May_25_1211,localizer,2021.1.3,59.38058919601576,
block,scenes,scenes011.bmp,,,,,0,173,173,173,,,,,,,,,,,,,,,,,,,,,,,,,,,,,,,,,,,,,,,,,,None,,739.3878905799968,None,739.3878905799968,None,2022-05-25-12:24:07.888445,739.3892942999955,739.7047446999932,739.3892942999955,None,None,739.3892942999955,None,740.2046380799759,None,,,,12018,0002,2022_May_25_1211,localizer,2021.1.3,59.38058919601576,
block,scenes,scenes003.bmp,,,,,0,174,174,174,,,,,,,,,,,,,,,,,,,,,,,,,,,,,,,,,,,,,,,,,,None,,740.2046380799759,None,740.2046380799759,None,2022-05-25-12:24:08.705144,740.2059802000003,740.5215392999817,740.2059802000003,None,None,740.2059802000003,None,741.0215546799911,None,,,,12018,0002,2022_May_25_1211,localizer,2021.1.3,59.38058919601576,
block,scenes,scenes032.bmp,,,,,0,175,175,175,,,,,,,,,,,,,,,,,,,,,,,,,,,,,,,,,,,,,,,,,,None,,741.0215546799911,None,741.0215546799911,None,2022-05-25-12:24:09.522107,741.022587399988,741.3381846999982,741.022587399988,None,None,741.022587399988,None,741.8377500799863,None,,,,12018,0002,2022_May_25_1211,localizer,2021.1.3,59.38058919601576,
block,scenes,scenes033.bmp,,,,,0,176,176,176,,,,,,,,,,,,,,,,,,,,,,,,,,,,,,,,,,,,,,,,,,None,,741.8377500799863,None,741.8377500799863,None,2022-05-25-12:24:10.338557,741.8391838999814,742.1548189999885,741.8391838999814,None,None,741.8391838999814,None,742.6546695799946,None,,,,12018,0002,2022_May_25_1211,localizer,2021.1.3,59.38058919601576,
block,scenes,scenes012.bmp,,,,,0,177,177,177,,,,,,,,,,,,,,,,,,,,,,,,,,,,,,,,,,,,,,,,,,None,,742.6546695799946,None,742.6546695799946,None,2022-05-25-12:24:11.155227,742.6559322999965,742.9714160999865,742.6559322999965,None,None,742.6559322999965,None,743.4713811799913,None,,,,12018,0002,2022_May_25_1211,localizer,2021.1.3,59.38058919601576,
block,scenes,scenes045.bmp,,,,,0,178,178,178,,,,,,,,,,,,,,,,,,,,,,,,,,,,,,,,,,,,,,,,,,None,,743.4713811799913,None,743.4713811799913,None,2022-05-25-12:24:11.972150,743.4820597999787,743.7880051999819,743.4820597999787,None,None,743.4820597999787,None,744.2880457799795,None,,,,12018,0002,2022_May_25_1211,localizer,2021.1.3,59.38058919601576,
block,scenes,scenes025.bmp,,,,,0,179,179,179,,,,,,,,,,,,,,,,,,,,,,,,,,,,,,,,,,,,,,,,,,None,,744.2880457799795,None,744.2880457799795,None,2022-05-25-12:24:12.788603,744.2892885000037,744.6049678999989,744.2892885000037,None,None,744.2892885000037,None,745.0888262800029,None,,,,12018,0002,2022_May_25_1211,localizer,2021.1.3,59.38058919601576,
block,scenes,scenes006.bmp,,,,,0,180,180,180,,,,,,,,,,,,,,,,,,,,,,,,,,,,,,,,,,,,,,,,,,None,,745.0888262800029,None,745.0888262800029,None,2022-05-25-12:24:13.592408,745.0918960999988,745.404971299984,745.0918960999988,745.0918960999988,None,745.0918960999988,745.0918960999988,745.904835179975,None,,,,12018,0002,2022_May_25_1211,localizer,2021.1.3,59.38058919601576,
block,scenes,scenes060.bmp,,,,,0,181,181,181,,,,,,,,,,,,,,,,,,,,,,,,,,,,,,,,,,,,,,,,,,None,,745.904835179975,None,745.904835179975,None,2022-05-25-12:24:14.405390,745.9171282000025,746.2219690999773,745.9171282000025,None,None,745.9171282000025,None,746.7212751799991,None,,,,12018,0002,2022_May_25_1211,localizer,2021.1.3,59.38058919601576,
block_end,scenes,scenes021.bmp,,,,,0,182,182,182,,,,,,,,,,,,,,,,,,,,,,,,,,,,,,,,,,,,,,,,,,None,,746.7212751799991,None,746.7212751799991,None,2022-05-25-12:24:15.222110,746.7225413999986,747.0382648999803,746.7225413999986,None,None,746.7225413999986,None,747.5380588799919,None,,,,12018,0002,2022_May_25_1211,localizer,2021.1.3,59.38058919601576,
block_start,scenes,scenes028.bmp,,,,,0,183,183,183,,,,,,,,,,,,,,,,,,,,,,,,,,,,,,,,,,,,,,,,,,t,1.7592459000006784,747.5382308999833,None,747.5382308999833,None,2022-05-25-12:24:17.820999,749.3225705999939,749.638380999997,749.3225705999939,None,None,749.3225705999939,None,750.1215891799977,None,,,,12018,0002,2022_May_25_1211,localizer,2021.1.3,59.38058919601576,
block,scenes,scenes083.bmp,,,,,0,184,184,184,,,,,,,,,,,,,,,,,,,,,,,,,,,,,,,,,,,,,,,,,,None,,750.1215891799977,None,750.1215891799977,None,2022-05-25-12:24:18.623554,750.122518499993,750.4383510999905,750.122518499993,750.122518499993,None,750.122518499993,750.122518499993,750.9379977799865,None,,,,12018,0002,2022_May_25_1211,localizer,2021.1.3,59.38058919601576,
block,scenes,scenes001.bmp,,,,,0,185,185,185,,,,,,,,,,,,,,,,,,,,,,,,,,,,,,,,,,,,,,,,,,None,,750.9379977799865,None,750.9379977799865,None,2022-05-25-12:24:19.438551,750.9392715999857,751.2548229999957,750.9392715999857,None,None,750.9392715999857,None,751.7448024799844,None,,,,12018,0002,2022_May_25_1211,localizer,2021.1.3,59.38058919601576,
block,scenes,scenes085.bmp,,,,,0,186,186,186,,,,,,,,,,,,,,,,,,,,,,,,,,,,,,,,,,,,,,,,,,None,,751.7448024799844,None,751.7448024799844,None,2022-05-25-12:24:20.251223,751.751423699985,752.0553476999921,751.751423699985,None,None,751.751423699985,None,752.5546096799983,None,,,,12018,0002,2022_May_25_1211,localizer,2021.1.3,59.38058919601576,
block,scenes,scenes002.bmp,,,,,0,187,187,187,,,,,,,,,,,,,,,,,,,,,,,,,,,,,,,,,,,,,,,,,,None,,752.5546096799983,None,752.5546096799983,None,2022-05-25-12:24:21.055132,752.5640294999757,752.8716392999922,752.5640294999757,None,None,752.5640294999757,None,753.3714483800024,None,,,,12018,0002,2022_May_25_1211,localizer,2021.1.3,59.38058919601576,
block,scenes,scenes032.bmp,,,,,0,188,188,188,,,,,,,,,,,,,,,,,,,,,,,,,,,,,,,,,,,,,,,,,,None,,753.3714483800024,None,753.3714483800024,None,2022-05-25-12:24:21.872006,753.3725544999761,753.674329499976,753.3725544999761,None,None,753.3725544999761,None,754.1781270800013,None,,,,12018,0002,2022_May_25_1211,localizer,2021.1.3,59.38058919601576,
block,scenes,scenes006.bmp,,,,,0,189,189,189,,,,,,,,,,,,,,,,,,,,,,,,,,,,,,,,,,,,,,,,,,None,,754.1781270800013,None,754.1781270800013,None,2022-05-25-12:24:22.683679,754.1836379999877,754.4887211000023,754.1836379999877,None,None,754.1836379999877,None,754.9880426799966,None,,,,12018,0002,2022_May_25_1211,localizer,2021.1.3,59.38058919601576,
block,scenes,scenes047.bmp,,,,,0,190,190,190,,,,,,,,,,,,,,,,,,,,,,,,,,,,,,,,,,,,,,,,,,None,,754.9880426799966,None,754.9880426799966,None,2022-05-25-12:24:23.488600,754.9893639999791,755.2891006999998,754.9893639999791,None,None,754.9893639999791,None,755.7902386800008,None,,,,12018,0002,2022_May_25_1211,localizer,2021.1.3,59.38058919601576,
block,scenes,scenes056.bmp,,,,,0,191,191,191,,,,,,,,,,,,,,,,,,,,,,,,,,,,,,,,,,,,,,,,,,None,,755.7902386800008,None,755.7902386800008,None,2022-05-25-12:24:24.296949,755.797196999978,756.1046640999848,755.797196999978,755.797196999978,None,755.797196999978,755.797196999978,756.6044825799793,None,,,,12018,0002,2022_May_25_1211,localizer,2021.1.3,59.38058919601576,
block,scenes,scenes003.bmp,,,,,0,192,192,192,,,,,,,,,,,,,,,,,,,,,,,,,,,,,,,,,,,,,,,,,,None,,756.6044825799793,None,756.6044825799793,None,2022-05-25-12:24:25.104045,756.6064116999914,756.9215460999985,756.6064116999914,None,None,756.6064116999914,None,757.4061137799902,None,,,,12018,0002,2022_May_25_1211,localizer,2021.1.3,59.38058919601576,
block,scenes,scenes034.bmp,,,,,0,193,193,193,,,,,,,,,,,,,,,,,,,,,,,,,,,,,,,,,,,,,,,,,,None,,757.4061137799902,None,757.4061137799902,None,2022-05-25-12:24:25.910628,757.4251436999766,757.738769699994,757.4251436999766,757.4251436999766,None,757.4251436999766,757.4251436999766,758.2219323799975,None,,,,12018,0002,2022_May_25_1211,localizer,2021.1.3,59.38058919601576,
block,scenes,scenes064.bmp,,,,,0,194,194,194,,,,,,,,,,,,,,,,,,,,,,,,,,,,,,,,,,,,,,,,,,None,,758.2219323799975,None,758.2219323799975,None,2022-05-25-12:24:26.722483,758.2226593999949,758.5219244000036,758.2226593999949,None,None,758.2226593999949,None,759.022718180003,None,,,,12018,0002,2022_May_25_1211,localizer,2021.1.3,59.38058919601576,
block,scenes,scenes065.bmp,,,,,0,195,195,195,,,,,,,,,,,,,,,,,,,,,,,,,,,,,,,,,,,,,,,,,,None,,759.022718180003,None,759.022718180003,None,2022-05-25-12:24:27.527463,759.0377899000014,759.3389923999785,759.0377899000014,759.0377899000014,None,759.0377899000014,759.0377899000014,759.83804618,None,,,,12018,0002,2022_May_25_1211,localizer,2021.1.3,59.38058919601576,
block,scenes,scenes066.bmp,,,,,0,196,196,196,,,,,,,,,,,,,,,,,,,,,,,,,,,,,,,,,,,,,,,,,,None,,759.83804618,None,759.83804618,None,2022-05-25-12:24:28.338604,759.8486901999859,760.1614227999817,759.8486901999859,None,None,759.8486901999859,None,760.6543495800026,None,,,,12018,0002,2022_May_25_1211,localizer,2021.1.3,59.38058919601576,
block_end,scenes,scenes012.bmp,,,,,0,197,197,197,,,,,,,,,,,,,,,,,,,,,,,,,,,,,,,,,,,,,,,,,,None,,760.6543495800026,None,760.6543495800026,None,2022-05-25-12:24:29.153913,760.6567421999935,760.9716228999896,760.6567421999935,None,None,760.6567421999935,None,761.4714867799805,None,,,,12018,0002,2022_May_25_1211,localizer,2021.1.3,59.38058919601576,
block_start,scrambled,scrambled032.bmp,,,,,0,198,198,198,,,,,,,,,,,,,,,,,,,,,,,,,,,,,,,,,,,,,,,,,,t,1.8258972000039648,761.4715591999993,None,761.4715591999993,None,2022-05-25-12:24:31.820359,763.3229544999776,763.6385195999756,763.3229544999776,None,None,763.3229544999776,None,764.1227264799847,None,,,,12018,0002,2022_May_25_1211,localizer,2021.1.3,59.38058919601576,
block,scrambled,scrambled041.bmp,,,,,0,199,199,199,,,,,,,,,,,,,,,,,,,,,,,,,,,,,,,,,,,,,,,,,,None,,764.1227264799847,None,764.1227264799847,None,2022-05-25-12:24:32.626966,764.1278556000034,764.4388187000004,764.1278556000034,764.1278556000034,None,764.1278556000034,764.1278556000034,764.9394543799892,None,,,,12018,0002,2022_May_25_1211,localizer,2021.1.3,59.38058919601576,
block,scrambled,scrambled042.bmp,,,,,0,200,200,200,,,,,,,,,,,,,,,,,,,,,,,,,,,,,,,,,,,,,,,,,,None,,764.9394543799892,None,764.9394543799892,None,2022-05-25-12:24:33.441969,764.9426073999784,765.2559608999873,764.9426073999784,None,None,764.9426073999784,None,765.755458879986,None,,,,12018,0002,2022_May_25_1211,localizer,2021.1.3,59.38058919601576,
block,scrambled,scrambled037.bmp,,,,,0,201,201,201,,,,,,,,,,,,,,,,,,,,,,,,,,,,,,,,,,,,,,,,,,None,,765.755458879986,None,765.755458879986,None,2022-05-25-12:24:34.257000,765.7675448999798,766.0719855999923,765.7675448999798,None,None,765.7675448999798,None,766.5713464799949,None,,,,12018,0002,2022_May_25_1211,localizer,2021.1.3,59.38058919601576,
block,scrambled,scrambled011.bmp,,,,,0,202,202,202,,,,,,,,,,,,,,,,,,,,,,,,,,,,,,,,,,,,,,,,,,None,,766.5713464799949,None,766.5713464799949,None,2022-05-25-12:24:35.071901,766.5726852999942,766.8720974999887,766.5726852999942,None,None,766.5726852999942,None,767.3728239799996,None,,,,12018,0002,2022_May_25_1211,localizer,2021.1.3,59.38058919601576,
block,scrambled,scrambled017.bmp,,,,,0,203,203,203,,,,,,,,,,,,,,,,,,,,,,,,,,,,,,,,,,,,,,,,,,None,,767.3728239799996,None,767.3728239799996,None,2022-05-25-12:24:35.879346,767.379463499994,767.6881253999891,767.379463499994,767.379463499994,None,767.379463499994,767.379463499994,768.1881069800031,None,,,,12018,0002,2022_May_25_1211,localizer,2021.1.3,59.38058919601576,
block,scrambled,scrambled066.bmp,,,,,0,204,204,204,,,,,,,,,,,,,,,,,,,,,,,,,,,,,,,,,,,,,,,,,,None,,768.1881069800031,None,768.1881069800031,None,2022-05-25-12:24:36.688667,768.1892506000004,768.5048912999919,768.1892506000004,None,None,768.1892506000004,None,769.0049294800003,None,,,,12018,0002,2022_May_25_1211,localizer,2021.1.3,59.38058919601576,
block,scrambled,scrambled010.bmp,,,,,0,205,205,205,,,,,,,,,,,,,,,,,,,,,,,,,,,,,,,,,,,,,,,,,,None,,769.0049294800003,None,769.0049294800003,None,2022-05-25-12:24:37.506001,769.0058305999846,769.3059600999986,769.0058305999846,None,None,769.0058305999846,None,769.8049258799904,None,,,,12018,0002,2022_May_25_1211,localizer,2021.1.3,59.38058919601576,
block,scrambled,scrambled003.bmp,,,,,0,206,206,206,,,,,,,,,,,,,,,,,,,,,,,,,,,,,,,,,,,,,,,,,,None,,769.8049258799904,None,769.8049258799904,None,2022-05-25-12:24:38.306704,769.8059588999895,770.1217181999818,769.8059588999895,769.8059588999895,None,769.8059588999895,769.8059588999895,770.6217330799875,None,,,,12018,0002,2022_May_25_1211,localizer,2021.1.3,59.38058919601576,
block,scrambled,scrambled059.bmp,,,,,0,207,207,207,,,,,,,,,,,,,,,,,,,,,,,,,,,,,,,,,,,,,,,,,,None,,770.6217330799875,None,770.6217330799875,None,2022-05-25-12:24:39.122491,770.6225342999969,770.9384893999959,770.6225342999969,None,None,770.6225342999969,None,771.4216992799804,None,,,,12018,0002,2022_May_25_1211,localizer,2021.1.3,59.38058919601576,
block,scrambled,scrambled080.bmp,,,,,0,208,208,208,,,,,,,,,,,,,,,,,,,,,,,,,,,,,,,,,,,,,,,,,,None,,771.4216992799804,None,771.4216992799804,None,2022-05-25-12:24:39.923254,771.461858900002,771.771557,771.461858900002,771.461858900002,None,771.461858900002,771.461858900002,772.2379578799912,None,,,,12018,0002,2022_May_25_1211,localizer,2021.1.3,59.38058919601576,
block,scrambled,scrambled027.bmp,,,,,0,209,209,209,,,,,,,,,,,,,,,,,,,,,,,,,,,,,,,,,,,,,,,,,,None,,772.2379578799912,None,772.2379578799912,None,2022-05-25-12:24:40.738743,772.2481313000026,772.5545968999795,772.2481313000026,None,None,772.2481313000026,None,773.0550580799784,None,,,,12018,0002,2022_May_25_1211,localizer,2021.1.3,59.38058919601576,
block,scrambled,scrambled023.bmp,,,,,0,210,210,210,,,,,,,,,,,,,,,,,,,,,,,,,,,,,,,,,,,,,,,,,,None,,773.0550580799784,None,773.0550580799784,None,2022-05-25-12:24:41.555612,773.0561862999748,773.3718665999768,773.0561862999748,None,None,773.0561862999748,None,773.8715260799829,None,,,,12018,0002,2022_May_25_1211,localizer,2021.1.3,59.38058919601576,
block,scrambled,scrambled023.bmp,,,,,0,211,211,211,,,,,,,,,,,,,,,,,,,,,,,,,,,,,,,,,,,,,,,,,,None,,773.8715260799829,None,773.8715260799829,None,2022-05-25-12:24:42.372368,773.8727953999769,774.1881671999872,773.8727953999769,None,None,773.8727953999769,None,774.6881709799957,None,,,,12018,0002,2022_May_25_1211,localizer,2021.1.3,59.38058919601576,
block_end,scrambled,scrambled018.bmp,,,,,0,212,212,212,,,,,,,,,,,,,,,,,,,,,,,,,,,,,,,,,,,,,,,,,,None,,774.6881709799957,None,774.6881709799957,None,2022-05-25-12:24:43.188726,774.6892924999993,775.0051848999865,774.6892924999993,None,y,774.6892924999993,None,775.489627479986,None,0.01984019999508746,,,12018,0002,2022_May_25_1211,localizer,2021.1.3,59.38058919601576,
block_start,faces,faces015.bmp,,,,,0,213,213,213,,,,,,,,,,,,,,,,,,,,,,,,,,,,,,,,,,,,,,,,,,t,1.8062827000103425,775.4911513999978,None,775.4911513999978,None,2022-05-25-12:24:45.821155,777.3227876999881,777.6382454999839,777.3227876999881,None,None,777.3227876999881,None,778.1382147799916,None,,,,12018,0002,2022_May_25_1211,localizer,2021.1.3,59.38058919601576,
block,faces,faces084.bmp,,,,,0,214,214,214,,,,,,,,,,,,,,,,,,,,,,,,,,,,,,,,,,,,,,,,,,None,,778.1382147799916,None,778.1382147799916,None,2022-05-25-12:24:46.638357,778.1475518999796,778.4549497999833,778.1475518999796,None,None,778.1475518999796,None,778.9549432800006,None,,,,12018,0002,2022_May_25_1211,localizer,2021.1.3,59.38058919601576,
block,faces,faces047.bmp,,,,,0,215,215,215,,,,,,,,,,,,,,,,,,,,,,,,,,,,,,,,,,,,,,,,,,None,,778.9549432800006,None,778.9549432800006,None,2022-05-25-12:24:47.455499,778.9720774999878,779.2716897999926,778.9720774999878,None,None,778.9720774999878,None,779.7717678799847,None,,,,12018,0002,2022_May_25_1211,localizer,2021.1.3,59.38058919601576,
block,faces,faces070.bmp,,,,,0,216,216,216,,,,,,,,,,,,,,,,,,,,,,,,,,,,,,,,,,,,,,,,,,None,,779.7717678799847,None,779.7717678799847,None,2022-05-25-12:24:48.272529,779.7727251999895,780.0885107999784,779.7727251999895,None,None,779.7727251999895,None,780.5723102799996,None,,,,12018,0002,2022_May_25_1211,localizer,2021.1.3,59.38058919601576,
block,faces,faces076.bmp,,,,,0,217,217,217,,,,,,,,,,,,,,,,,,,,,,,,,,,,,,,,,,,,,,,,,,None,,780.5723102799996,None,780.5723102799996,None,2022-05-25-12:24:49.076867,780.5870409999916,780.888819499989,780.5870409999916,780.5870409999916,None,780.5870409999916,780.5870409999916,781.3890414800001,None,,,,12018,0002,2022_May_25_1211,localizer,2021.1.3,59.38058919601576,
block,faces,faces051.bmp,,,,,0,218,218,218,,,,,,,,,,,,,,,,,,,,,,,,,,,,,,,,,,,,,,,,,,None,,781.3890414800001,None,781.3890414800001,None,2022-05-25-12:24:49.890780,781.3899346999824,781.7049677999748,781.3899346999824,None,None,781.3899346999824,None,782.2050356799766,None,,,,12018,0002,2022_May_25_1211,localizer,2021.1.3,59.38058919601576,
block,faces,faces006.bmp,,,,,0,219,219,219,,,,,,,,,,,,,,,,,,,,,,,,,,,,,,,,,,,,,,,,,,None,,782.2050356799766,None,782.2050356799766,None,2022-05-25-12:24:50.705590,782.2061144999752,782.5219120999973,782.2061144999752,None,None,782.2061144999752,None,783.0218232799991,None,,,,12018,0002,2022_May_25_1211,localizer,2021.1.3,59.38058919601576,
block,faces,faces071.bmp,,,,,0,220,220,220,,,,,,,,,,,,,,,,,,,,,,,,,,,,,,,,,,,,,,,,,,None,,783.0218232799991,None,783.0218232799991,None,2022-05-25-12:24:51.522780,783.0228669999924,783.3385319999943,783.0228669999924,None,None,783.0228669999924,None,783.8384802799876,None,,,,12018,0002,2022_May_25_1211,localizer,2021.1.3,59.38058919601576,
block,faces,faces028.bmp,,,,,0,221,221,221,,,,,,,,,,,,,,,,,,,,,,,,,,,,,,,,,,,,,,,,,,None,,783.8384802799876,None,783.8384802799876,None,2022-05-25-12:24:52.339257,783.8489836999797,784.1547328000015,783.8489836999797,None,None,783.8489836999797,None,784.6549127799838,None,,,,12018,0002,2022_May_25_1211,localizer,2021.1.3,59.38058919601576,
block,faces,faces081.bmp,,,,,0,222,222,222,,,,,,,,,,,,,,,,,,,,,,,,,,,,,,,,,,,,,,,,,,None,,784.6549127799838,None,784.6549127799838,None,2022-05-25-12:24:53.155773,784.655909299996,784.9717143999878,784.655909299996,None,None,784.655909299996,None,785.454938579994,None,,,,12018,0002,2022_May_25_1211,localizer,2021.1.3,59.38058919601576,
block,faces,faces034.bmp,,,,,0,223,223,223,,,,,,,,,,,,,,,,,,,,,,,,,,,,,,,,,,,,,,,,,,None,,785.454938579994,None,785.454938579994,None,2022-05-25-12:24:53.956707,785.4561198999872,785.7717967999924,785.4561198999872,785.4561198999872,None,785.4561198999872,785.4561198999872,786.271520779995,None,,,,12018,0002,2022_May_25_1211,localizer,2021.1.3,59.38058919601576,
block,faces,faces020.bmp,,,,,0,224,224,224,,,,,,,,,,,,,,,,,,,,,,,,,,,,,,,,,,,,,,,,,,None,,786.271520779995,None,786.271520779995,None,2022-05-25-12:24:54.772083,786.2727088999818,786.5884039999801,786.2727088999818,None,None,786.2727088999818,None,787.0717468799878,None,,,,12018,0002,2022_May_25_1211,localizer,2021.1.3,59.38058919601576,
block,faces,faces008.bmp,,,,,0,225,225,225,,,,,,,,,,,,,,,,,,,,,,,,,,,,,,,,,,,,,,,,,,None,,787.0717468799878,None,787.0717468799878,None,2022-05-25-12:24:55.574498,787.0733314999961,787.388627999986,787.0733314999961,787.0733314999961,None,787.0733314999961,787.0733314999961,787.8883986799949,None,,,,12018,0002,2022_May_25_1211,localizer,2021.1.3,59.38058919601576,
block,faces,faces036.bmp,,,,,0,226,226,226,,,,,,,,,,,,,,,,,,,,,,,,,,,,,,,,,,,,,,,,,,None,,787.8883986799949,None,787.8883986799949,None,2022-05-25-12:24:56.389528,787.8895170999749,788.1910989999888,787.8895170999749,None,None,787.8895170999749,None,788.7050503800012,None,,,,12018,0002,2022_May_25_1211,localizer,2021.1.3,59.38058919601576,
block_end,faces,faces046.bmp,,,,,0,227,227,227,,,,,,,,,,,,,,,,,,,,,,,,,,,,,,,,,,,,,,,,,,None,,788.7050503800012,None,788.7050503800012,None,2022-05-25-12:24:57.205606,788.705964599998,789.0053436000017,788.705964599998,None,None,788.705964599998,None,789.5216637799779,None,,,,12018,0002,2022_May_25_1211,localizer,2021.1.3,59.38058919601576,
null_block,null_block,null_block.bmp,,,,,0,228,228,228,,,,,,,,,,,,,,,,,,,,,,,,,,,,,,,,,,,,,,,,,,t,1.7754986000072677,789.5219116999942,None,789.5219116999942,None,2022-05-25-12:24:59.821299,791.3217421799811,None,791.3217421799811,None,None,791.3217421799811,None,791.3243284999917,None,,,,12018,0002,2022_May_25_1211,localizer,2021.1.3,59.38058919601576,
block_start,objects,objects077.bmp,,,,,0,229,229,229,,,,,,,,,,,,,,,,,,,,,,,,,,,,,,,,,,,,,,,,,,t,1.9712374999944586,803.3264114999911,None,803.3264114999911,None,2022-05-25-12:25:13.827726,805.3323315999878,805.6423297000001,805.3323315999878,None,None,805.3323315999878,None,806.1382849800023,None,,,,12018,0002,2022_May_25_1211,localizer,2021.1.3,59.38058919601576,
block,objects,objects026.bmp,,,,,0,230,230,230,,,,,,,,,,,,,,,,,,,,,,,,,,,,,,,,,,,,,,,,,,None,,806.1382849800023,None,806.1382849800023,None,2022-05-25-12:25:14.638444,806.1396249999816,806.4552831999899,806.1396249999816,None,None,806.1396249999816,None,806.9550672799844,None,,,,12018,0002,2022_May_25_1211,localizer,2021.1.3,59.38058919601576,
block,objects,objects064.bmp,,,,,0,231,231,231,,,,,,,,,,,,,,,,,,,,,,,,,,,,,,,,,,,,,,,,,,None,,806.9550672799844,None,806.9550672799844,None,2022-05-25-12:25:15.455622,806.9563160999969,807.2719406999822,806.9563160999969,None,None,806.9563160999969,None,807.7715341799806,None,,,,12018,0002,2022_May_25_1211,localizer,2021.1.3,59.38058919601576,
block,objects,objects066.bmp,,,,,0,232,232,232,,,,,,,,,,,,,,,,,,,,,,,,,,,,,,,,,,,,,,,,,,None,,807.7715341799806,None,807.7715341799806,None,2022-05-25-12:25:16.272093,807.7731247999764,808.0884485999995,807.7731247999764,None,None,807.7731247999764,None,808.5730313799897,None,,,,12018,0002,2022_May_25_1211,localizer,2021.1.3,59.38058919601576,
block,objects,objects012.bmp,,,,,0,233,233,233,,,,,,,,,,,,,,,,,,,,,,,,,,,,,,,,,,,,,,,,,,None,,808.5730313799897,None,808.5730313799897,None,2022-05-25-12:25:17.076755,808.5775825000019,808.8885222999961,808.5775825000019,808.5775825000019,None,808.5775825000019,808.5775825000019,809.3882003799984,None,,,,12018,0002,2022_May_25_1211,localizer,2021.1.3,59.38058919601576,
block,objects,objects043.bmp,,,,,0,234,234,234,,,,,,,,,,,,,,,,,,,,,,,,,,,,,,,,,,,,,,,,,,None,,809.3882003799984,None,809.3882003799984,None,2022-05-25-12:25:17.889007,809.3989996000018,809.7052876999951,809.3989996000018,None,None,809.3989996000018,None,810.2050977799838,None,,,,12018,0002,2022_May_25_1211,localizer,2021.1.3,59.38058919601576,
block,objects,objects087.bmp,,,,,0,235,235,235,,,,,,,,,,,,,,,,,,,,,,,,,,,,,,,,,,,,,,,,,,None,,810.2050977799838,None,810.2050977799838,None,2022-05-25-12:25:18.705182,810.2063721999875,810.5218985999818,810.2063721999875,None,None,810.2063721999875,None,811.0063527799823,None,,,,12018,0002,2022_May_25_1211,localizer,2021.1.3,59.38058919601576,
block,objects,objects041.bmp,,,,,0,236,236,236,,,,,,,,,,,,,,,,,,,,,,,,,,,,,,,,,,,,,,,,,,None,,811.0063527799823,None,811.0063527799823,None,2022-05-25-12:25:19.511085,811.0105823999911,811.321870499989,811.0105823999911,811.0105823999911,None,811.0105823999911,811.0105823999911,811.8217495799793,None,,,,12018,0002,2022_May_25_1211,localizer,2021.1.3,59.38058919601576,
block,objects,objects021.bmp,,,,,0,237,237,237,,,,,,,,,,,,,,,,,,,,,,,,,,,,,,,,,,,,,,,,,,None,,811.8217495799793,None,811.8217495799793,None,2022-05-25-12:25:20.322306,811.8229562999913,812.1384918999975,811.8229562999913,None,None,811.8229562999913,None,812.6384243799869,None,,,,12018,0002,2022_May_25_1211,localizer,2021.1.3,59.38058919601576,
block,objects,objects025.bmp,,,,,0,238,238,238,,,,,,,,,,,,,,,,,,,,,,,,,,,,,,,,,,,,,,,,,,None,,812.6384243799869,None,812.6384243799869,None,2022-05-25-12:25:21.138979,812.639420099993,812.9552595999849,812.639420099993,None,None,812.639420099993,None,813.4391994799983,None,,,,12018,0002,2022_May_25_1211,localizer,2021.1.3,59.38058919601576,
block,objects,objects079.bmp,,,,,0,239,239,239,,,,,,,,,,,,,,,,,,,,,,,,,,,,,,,,,,,,,,,,,,None,,813.4391994799983,None,813.4391994799983,None,2022-05-25-12:25:21.942930,813.4425794999988,813.7556771999807,813.4425794999988,813.4425794999988,None,813.4425794999988,813.4425794999988,814.2564070799883,None,,,,12018,0002,2022_May_25_1211,localizer,2021.1.3,59.38058919601576,
block,objects,objects084.bmp,,,,,0,240,240,240,,,,,,,,,,,,,,,,,,,,,,,,,,,,,,,,,,,,,,,,,,None,,814.2564070799883,None,814.2564070799883,None,2022-05-25-12:25:22.758128,814.2589449999796,814.5726381999848,814.2589449999796,None,None,814.2589449999796,None,815.0718653799879,None,,,,12018,0002,2022_May_25_1211,localizer,2021.1.3,59.38058919601576,
block,objects,objects076.bmp,,,,,0,241,241,241,,,,,,,,,,,,,,,,,,,,,,,,,,,,,,,,,,,,,,,,,,None,,815.0718653799879,None,815.0718653799879,None,2022-05-25-12:25:23.572422,815.072891799995,815.3886602999992,815.072891799995,None,None,815.072891799995,None,815.8881545799989,None,,,,12018,0002,2022_May_25_1211,localizer,2021.1.3,59.38058919601576,
block,objects,objects028.bmp,,,,,0,242,242,242,,,,,,,,,,,,,,,,,,,,,,,,,,,,,,,,,,,,,,,,,,None,,815.8881545799989,None,815.8881545799989,None,2022-05-25-12:25:24.388985,815.8979137999995,816.2066107999999,815.8979137999995,None,None,815.8979137999995,None,816.7064808799798,None,,,,12018,0002,2022_May_25_1211,localizer,2021.1.3,59.38058919601576,
block_end,objects,objects006.bmp,,,,,0,243,243,243,,,,,,,,,,,,,,,,,,,,,,,,,,,,,,,,,,,,,,,,,,None,,816.7064808799798,None,816.7064808799798,None,2022-05-25-12:25:25.208236,816.7072581999819,817.0227183999959,816.7072581999819,None,None,816.7072581999819,None,817.5218035799946,None,,,,12018,0002,2022_May_25_1211,localizer,2021.1.3,59.38058919601576,
,,,,,,,,,,,,,,,,,,,,,,,,,,,,,,,,,,,,,,,,,,,,,,,,,,,,,,,,,,,,,,,,,,,,,817.5282515999861,None,,,,,,,
