block_type,condition,img_name,Button.thisRepN,Button.thisTrialN,Button.thisN,Button.thisIndex,trials.thisRepN,trials.thisTrialN,trials.thisN,trials.thisIndex,Ready_experimenter_text.started,Ready_experimenter_text.stopped,Ready_experimenter_resp.keys,Ready_experimenter_resp.rt,Ready_experimenter_resp.started,Ready_experimenter_resp.stopped,Alignment_background.started,Alignment_background.stopped,Alignment_image.started,Alignment_image.stopped,Alignment_resp.keys,Alignment_resp.rt,Alignment_resp.started,Alignment_resp.stopped,Button_text.started,Button_text.stopped,Index_text.started,Index_text.stopped,Index_resp.keys,Index_resp.rt,Index_resp.started,Index_resp.stopped,Middle_text.started,Middle_text.stopped,Middle_resp.keys,Middle_resp.rt,Middle_resp.started,Middle_resp.stopped,Repeat_text.started,Repeat_text.stopped,Repeat_resp.keys,Repeat_resp.corr,Repeat_resp.rt,Repeat_resp.started,Repeat_resp.stopped,instruction_text.started,instruction_text.stopped,key_resp.keys,key_resp.rt,key_resp.started,key_resp.stopped,scanner_t.keys,scanner_t.rt,scanner_t.started,scanner_t.stopped,fixation_wait_for_t.started,fixation_wait_for_t.stopped,real_timestamp_trial_start,image.started,image.stopped,fixation.started,fixation.stopped,repeat_response.keys,repeat_response.started,repeat_response.stopped,fixation_null.started,fixation_null.stopped,repeat_response.rt,end_text.started,end_text.stopped,participant,run,date,expName,psychopyVersion,frameRate,
,,,,,,,,,,,8.369982799515128,None,return,61.32134919986129,8.369982799515128,None,,,,,,,,,,,,,,,,,,,,,,,,,,,,,,,,,,,,,,,,,,,,,,,,,,,,,,,12006,0001,2021_Nov_16_1127,localizer,2021.1.3,60.00747680691265,
,,,,,,,,,,,,,,,,,69.73973659984767,None,69.73973659984767,None,return,11.920022300444543,69.73973659984767,None,,,,,,,,,,,,,,,,,,,,,,,,,,,,,,,,,,,,,,,,,,,,,,,12006,0001,2021_Nov_16_1127,localizer,2021.1.3,60.00747680691265,
,,,0,0,0,0,,,,,,,,,,,,,,,,,,,81.68488250020891,None,82.70017290022224,None,y,3.1141137005761266,82.70017290022224,None,85.85009489953518,None,b,1.7475185999646783,85.85009489953518,None,87.61373410001397,None,n,0,2.1817695004865527,87.61373410001397,None,,,,,,,,,,,,,,,,,,,,,,,,,,12006,0001,2021_Nov_16_1127,localizer,2021.1.3,60.00747680691265,
,,,,,,,,,,,,,,,,,,,,,,,,,,,,,,,,,,,,,,,,,,,,,,89.81282040011138,None,y,32.17063229996711,89.81282040011138,None,,,,,,,,,,,,,,,,,,,,12006,0001,2021_Nov_16_1127,localizer,2021.1.3,60.00747680691265,
block_start,scenes,scenes037.bmp,,,,,0,0,0,0,,,,,,,,,,,,,,,,,,,,,,,,,,,,,,,,,,,,,,,,,,t,15.737056700512767,122.0793781997636,None,122.0793781997636,None,2021-11-16-11:29:15.476343,137.86081170011312,138.16302589979023,137.86081170011312,None,None,137.86081170011312,None,138.6633807499893,None,,,,12006,0001,2021_Nov_16_1127,localizer,2021.1.3,60.00747680691265,
block,scenes,scenes054.bmp,,,,,0,1,1,1,,,,,,,,,,,,,,,,,,,,,,,,,,,,,,,,,,,,,,,,,,None,,138.6633807499893,None,138.6633807499893,None,2021-11-16-11:29:16.293972,138.67725559975952,138.9797136997804,138.67725559975952,None,None,138.67725559975952,None,139.48010014975443,None,,,,12006,0001,2021_Nov_16_1127,localizer,2021.1.3,60.00747680691265,
block,scenes,scenes032.bmp,,,,,0,2,2,2,,,,,,,,,,,,,,,,,,,,,,,,,,,,,,,,,,,,,,,,,,None,,139.48010014975443,None,139.48010014975443,None,2021-11-16-11:29:17.109229,139.4911962999031,139.79640519991517,139.4911962999031,None,None,139.4911962999031,None,140.2974924496375,None,,,,12006,0001,2021_Nov_16_1127,localizer,2021.1.3,60.00747680691265,
block,scenes,scenes090.bmp,,,,,0,3,3,3,,,,,,,,,,,,,,,,,,,,,,,,,,,,,,,,,,,,,,,,,,None,,140.2974924496375,None,140.2974924496375,None,2021-11-16-11:29:17.927765,140.310222200118,140.61310259997845,140.310222200118,None,None,140.310222200118,None,141.1141594494693,None,,,,12006,0001,2021_Nov_16_1127,localizer,2021.1.3,60.00747680691265,
block,scenes,scenes057.bmp,,,,,0,4,4,4,,,,,,,,,,,,,,,,,,,,,,,,,,,,,,,,,,,,,,,,,,None,,141.1141594494693,None,141.1141594494693,None,2021-11-16-11:29:18.745199,141.12123520020396,141.43034199997783,141.12123520020396,None,None,141.12123520020396,None,141.9300796496682,None,,,,12006,0001,2021_Nov_16_1127,localizer,2021.1.3,60.00747680691265,
block,scenes,scenes064.bmp,,,,,0,5,5,5,,,,,,,,,,,,,,,,,,,,,,,,,,,,,,,,,,,,,,,,,,None,,141.9300796496682,None,141.9300796496682,None,2021-11-16-11:29:19.559212,141.93938899971545,142.2466102000326,141.93938899971545,None,None,141.93938899971545,None,142.74692774983123,None,,,,12006,0001,2021_Nov_16_1127,localizer,2021.1.3,60.00747680691265,
block,scenes,scenes006.bmp,,,,,0,6,6,6,,,,,,,,,,,,,,,,,,,,,,,,,,,,,,,,,,,,,,,,,,None,,142.74692774983123,None,142.74692774983123,None,2021-11-16-11:29:20.376174,142.75753349997103,143.06341159995645,142.75753349997103,None,None,142.75753349997103,None,143.5634651496075,None,,,,12006,0001,2021_Nov_16_1127,localizer,2021.1.3,60.00747680691265,
block,scenes,scenes074.bmp,,,,,0,7,7,7,,,,,,,,,,,,,,,,,,,,,,,,,,,,,,,,,,,,,,,,,,None,,143.5634651496075,None,143.5634651496075,None,2021-11-16-11:29:21.192594,143.57443039957434,143.87998049985617,143.57443039957434,None,None,143.57443039957434,None,144.38014775002375,None,,,,12006,0001,2021_Nov_16_1127,localizer,2021.1.3,60.00747680691265,
block,scenes,scenes044.bmp,,,,,0,8,8,8,,,,,,,,,,,,,,,,,,,,,,,,,,,,,,,,,,,,,,,,,,None,,144.38014775002375,None,144.38014775002375,None,2021-11-16-11:29:22.010273,144.39116899948567,144.69651329983026,144.39116899948567,None,None,144.39116899948567,None,145.19674865016714,None,,,,12006,0001,2021_Nov_16_1127,localizer,2021.1.3,60.00747680691265,
block,scenes,scenes039.bmp,,,,,0,9,9,9,,,,,,,,,,,,,,,,,,,,,,,,,,,,,,,,,,,,,,,,,,None,,145.19674865016714,None,145.19674865016714,None,2021-11-16-11:29:22.826922,145.20815730001777,145.51290279999375,145.20815730001777,None,None,145.20815730001777,None,146.01346235023811,None,,,,12006,0001,2021_Nov_16_1127,localizer,2021.1.3,60.00747680691265,
block,scenes,scenes001.bmp,,,,,0,10,10,10,,,,,,,,,,,,,,,,,,,,,,,,,,,,,,,,,,,,,,,,,,None,,146.01346235023811,None,146.01346235023811,None,2021-11-16-11:29:23.642846,146.0243429997936,146.32988029997796,146.0243429997936,None,None,146.0243429997936,None,146.83027145033702,None,,,,12006,0001,2021_Nov_16_1127,localizer,2021.1.3,60.00747680691265,
block,scenes,scenes015.bmp,,,,,0,11,11,11,,,,,,,,,,,,,,,,,,,,,,,,,,,,,,,,,,,,,,,,,,None,,146.83027145033702,None,146.83027145033702,None,2021-11-16-11:29:24.459619,146.841073599644,147.14657939970493,146.841073599644,None,None,146.841073599644,None,147.64687144989148,None,,,,12006,0001,2021_Nov_16_1127,localizer,2021.1.3,60.00747680691265,
block,scenes,scenes042.bmp,,,,,0,12,12,12,,,,,,,,,,,,,,,,,,,,,,,,,,,,,,,,,,,,,,,,,,None,,147.64687144989148,None,147.64687144989148,None,2021-11-16-11:29:25.276002,147.65683889947832,147.96349599957466,147.65683889947832,None,None,147.65683889947832,None,148.46337944967672,None,,,,12006,0001,2021_Nov_16_1127,localizer,2021.1.3,60.00747680691265,
block,scenes,scenes021.bmp,,,,,0,13,13,13,,,,,,,,,,,,,,,,,,,,,,,,,,,,,,,,,,,,,,,,,,None,,148.46337944967672,None,148.46337944967672,None,2021-11-16-11:29:26.093506,148.4740188997239,148.78018500003964,148.4740188997239,None,None,148.4740188997239,None,149.2809589500539,None,,,,12006,0001,2021_Nov_16_1127,localizer,2021.1.3,60.00747680691265,
block_end,scenes,scenes077.bmp,,,,,0,14,14,14,,,,,,,,,,,,,,,,,,,,,,,,,,,,,,,,,,,,,,,,,,None,,149.2809589500539,None,149.2809589500539,None,2021-11-16-11:29:26.911263,149.29320309963077,149.59670840017498,149.29320309963077,None,None,149.29320309963077,None,150.09688734961674,None,,,,12006,0001,2021_Nov_16_1127,localizer,2021.1.3,60.00747680691265,
block_start,objects,objects032.bmp,,,,,0,15,15,15,,,,,,,,,,,,,,,,,,,,,,,,,,,,,,,,,,,,,,,,,,t,1.7198372995480895,150.0966876000166,None,150.0966876000166,None,2021-11-16-11:29:29.474227,151.8553973995149,152.1634114002809,151.8553973995149,None,None,151.8553973995149,None,152.66357895033434,None,,,,12006,0001,2021_Nov_16_1127,localizer,2021.1.3,60.00747680691265,
block,objects,objects082.bmp,,,,,0,16,16,16,,,,,,,,,,,,,,,,,,,,,,,,,,,,,,,,,,,,,,,,,,None,,152.66357895033434,None,152.66357895033434,None,2021-11-16-11:29:30.292708,152.67330530006438,152.9800161998719,152.67330530006438,None,None,152.67330530006438,None,153.4803302497603,None,,,,12006,0001,2021_Nov_16_1127,localizer,2021.1.3,60.00747680691265,
block,objects,objects052.bmp,,,,,0,17,17,17,,,,,,,,,,,,,,,,,,,,,,,,,,,,,,,,,,,,,,,,,,None,,153.4803302497603,None,153.4803302497603,None,2021-11-16-11:29:31.109652,153.4901975998655,153.79675399977714,153.4901975998655,None,None,153.4901975998655,None,154.29705004999414,None,,,,12006,0001,2021_Nov_16_1127,localizer,2021.1.3,60.00747680691265,
block,objects,objects050.bmp,,,,,0,18,18,18,,,,,,,,,,,,,,,,,,,,,,,,,,,,,,,,,,,,,,,,,,None,,154.29705004999414,None,154.29705004999414,None,2021-11-16-11:29:31.926408,154.3078445000574,154.6134425001219,154.3078445000574,None,None,154.3078445000574,None,155.11366165010259,None,,,,12006,0001,2021_Nov_16_1127,localizer,2021.1.3,60.00747680691265,
block,objects,objects078.bmp,,,,,0,19,19,19,,,,,,,,,,,,,,,,,,,,,,,,,,,,,,,,,,,,,,,,,,None,,155.11366165010259,None,155.11366165010259,None,2021-11-16-11:29:32.742997,155.12365959957242,155.43154050037265,155.12365959957242,None,None,155.12365959957242,None,155.93009534990415,None,,,,12006,0001,2021_Nov_16_1127,localizer,2021.1.3,60.00747680691265,
block,objects,objects037.bmp,,,,,0,20,20,20,,,,,,,,,,,,,,,,,,,,,,,,,,,,,,,,,,,,,,,,,,None,,155.93009534990415,None,155.93009534990415,None,2021-11-16-11:29:33.559228,155.93928339984268,156.24681670032442,155.93928339984268,None,None,155.93928339984268,None,156.7472710502334,None,,,,12006,0001,2021_Nov_16_1127,localizer,2021.1.3,60.00747680691265,
block,objects,objects030.bmp,,,,,0,21,21,21,,,,,,,,,,,,,,,,,,,,,,,,,,,,,,,,,,,,,,,,,,None,,156.7472710502334,None,156.7472710502334,None,2021-11-16-11:29:34.377373,156.75798279978335,157.06326819956303,156.75798279978335,None,None,156.75798279978335,None,157.56464065006003,None,,,,12006,0001,2021_Nov_16_1127,localizer,2021.1.3,60.00747680691265,
block,objects,objects045.bmp,,,,,0,22,22,22,,,,,,,,,,,,,,,,,,,,,,,,,,,,,,,,,,,,,,,,,,None,,157.56464065006003,None,157.56464065006003,None,2021-11-16-11:29:35.194940,157.57675290014595,157.87996019981802,157.57675290014595,None,None,157.57675290014595,None,158.38025465002283,None,,,,12006,0001,2021_Nov_16_1127,localizer,2021.1.3,60.00747680691265,
block,objects,objects084.bmp,,,,,0,23,23,23,,,,,,,,,,,,,,,,,,,,,,,,,,,,,,,,,,,,,,,,,,None,,158.38025465002283,None,158.38025465002283,None,2021-11-16-11:29:36.009382,158.3904373999685,158.69684140011668,158.3904373999685,None,None,158.3904373999685,None,159.19663324998692,None,,,,12006,0001,2021_Nov_16_1127,localizer,2021.1.3,60.00747680691265,
block,objects,objects054.bmp,,,,,0,24,24,24,,,,,,,,,,,,,,,,,,,,,,,,,,,,,,,,,,,,,,,,,,None,,159.19663324998692,None,159.19663324998692,None,2021-11-16-11:29:36.825762,159.20694130007178,159.5194071996957,159.20694130007178,None,None,159.20694130007178,None,160.01385794999078,None,,,,12006,0001,2021_Nov_16_1127,localizer,2021.1.3,60.00747680691265,
block,objects,objects001.bmp,,,,,0,25,25,25,,,,,,,,,,,,,,,,,,,,,,,,,,,,,,,,,,,,,,,,,,None,,160.01385794999078,None,160.01385794999078,None,2021-11-16-11:29:37.643184,160.0236422996968,160.32996170036495,160.0236422996968,None,None,160.0236422996968,None,160.83029614994302,None,,,,12006,0001,2021_Nov_16_1127,localizer,2021.1.3,60.00747680691265,
block,objects,objects046.bmp,,,,,0,26,26,26,,,,,,,,,,,,,,,,,,,,,,,,,,,,,,,,,,,,,,,,,,None,,160.83029614994302,None,160.83029614994302,None,2021-11-16-11:29:38.459425,160.84002249967307,161.146683299914,160.84002249967307,None,None,160.84002249967307,None,161.64714505011216,None,,,,12006,0001,2021_Nov_16_1127,localizer,2021.1.3,60.00747680691265,
block,objects,objects031.bmp,,,,,0,27,27,27,,,,,,,,,,,,,,,,,,,,,,,,,,,,,,,,,,,,,,,,,,None,,161.64714505011216,None,161.64714505011216,None,2021-11-16-11:29:39.276487,161.65789529960603,161.96352609992027,161.65789529960603,None,None,161.65789529960603,None,162.46383545035496,None,,,,12006,0001,2021_Nov_16_1127,localizer,2021.1.3,60.00747680691265,
block,objects,objects019.bmp,,,,,0,28,28,28,,,,,,,,,,,,,,,,,,,,,,,,,,,,,,,,,,,,,,,,,,None,,162.46383545035496,None,162.46383545035496,None,2021-11-16-11:29:40.093956,162.47475800011307,162.78032950032502,162.47475800011307,None,None,162.47475800011307,None,163.28040184965357,None,,,,12006,0001,2021_Nov_16_1127,localizer,2021.1.3,60.00747680691265,
block_end,objects,objects070.bmp,,,,,0,29,29,29,,,,,,,,,,,,,,,,,,,,,,,,,,,,,,,,,,,,,,,,,,None,,163.28040184965357,None,163.28040184965357,None,2021-11-16-11:29:40.909748,163.29124800022691,163.5970315001905,163.29124800022691,None,None,163.29124800022691,None,164.09706884948537,None,,,,12006,0001,2021_Nov_16_1127,localizer,2021.1.3,60.00747680691265,
block_start,faces,faces015.bmp,,,,,0,30,30,30,,,,,,,,,,,,,,,,,,,,,,,,,,,,,,,,,,,,,,,,,,t,1.7193760005757213,164.09710180014372,None,164.09710180014372,None,2021-11-16-11:29:43.476791,165.86064149998128,166.16321359947324,165.86064149998128,None,None,165.86064149998128,None,166.66367124998942,None,,,,12006,0001,2021_Nov_16_1127,localizer,2021.1.3,60.00747680691265,
block,faces,faces023.bmp,,,,,0,31,31,31,,,,,,,,,,,,,,,,,,,,,,,,,,,,,,,,,,,,,,,,,,None,,166.66367124998942,None,166.66367124998942,None,2021-11-16-11:29:44.293014,166.67410129960626,166.98008279968053,166.67410129960626,None,None,166.67410129960626,None,167.48047614982352,None,,,,12006,0001,2021_Nov_16_1127,localizer,2021.1.3,60.00747680691265,
block,faces,faces034.bmp,,,,,0,32,32,32,,,,,,,,,,,,,,,,,,,,,,,,,,,,,,,,,,,,,,,,,,None,,167.48047614982352,None,167.48047614982352,None,2021-11-16-11:29:45.110083,167.49229229986668,167.79695910029113,167.49229229986668,None,None,167.49229229986668,None,168.29705555038527,None,,,,12006,0001,2021_Nov_16_1127,localizer,2021.1.3,60.00747680691265,
block,faces,faces053.bmp,,,,,0,33,33,33,,,,,,,,,,,,,,,,,,,,,,,,,,,,,,,,,,,,,,,,,,None,,168.29705555038527,None,168.29705555038527,None,2021-11-16-11:29:45.926389,168.30808489955962,168.61369779985398,168.30808489955962,None,None,168.30808489955962,None,169.113615849521,None,,,,12006,0001,2021_Nov_16_1127,localizer,2021.1.3,60.00747680691265,
block,faces,faces046.bmp,,,,,0,34,34,34,,,,,,,,,,,,,,,,,,,,,,,,,,,,,,,,,,,,,,,,,,None,,169.113615849521,None,169.113615849521,None,2021-11-16-11:29:46.742745,169.1247923001647,169.4301584996283,169.1247923001647,None,None,169.1247923001647,None,169.93012415012345,None,,,,12006,0001,2021_Nov_16_1127,localizer,2021.1.3,60.00747680691265,
block,faces,faces006.bmp,,,,,0,35,35,35,,,,,,,,,,,,,,,,,,,,,,,,,,,,,,,,,,,,,,,,,,None,,169.93012415012345,None,169.93012415012345,None,2021-11-16-11:29:47.559258,169.93979640025645,170.24658690020442,169.93979640025645,None,None,169.93979640025645,None,170.74692664993927,None,,,,12006,0001,2021_Nov_16_1127,localizer,2021.1.3,60.00747680691265,
block,faces,faces082.bmp,,,,,0,36,36,36,,,,,,,,,,,,,,,,,,,,,,,,,,,,,,,,,,,,,,,,,,None,,170.74692664993927,None,170.74692664993927,None,2021-11-16-11:29:48.376054,170.75784990005195,171.06346009951085,170.75784990005195,None,None,170.75784990005195,None,171.56384345004335,None,,,,12006,0001,2021_Nov_16_1127,localizer,2021.1.3,60.00747680691265,
block,faces,faces011.bmp,,,,,0,37,37,37,,,,,,,,,,,,,,,,,,,,,,,,,,,,,,,,,,,,,,,,,,None,,171.56384345004335,None,171.56384345004335,None,2021-11-16-11:29:49.192970,171.5743348998949,171.8800315996632,171.5743348998949,None,None,171.5743348998949,None,172.38077575014904,None,,,,12006,0001,2021_Nov_16_1127,localizer,2021.1.3,60.00747680691265,
block,faces,faces062.bmp,,,,,0,38,38,38,,,,,,,,,,,,,,,,,,,,,,,,,,,,,,,,,,,,,,,,,,None,,172.38077575014904,None,172.38077575014904,None,2021-11-16-11:29:50.009902,172.39141829963773,172.696915499866,172.39141829963773,None,None,172.39141829963773,None,173.19728105003014,None,,,,12006,0001,2021_Nov_16_1127,localizer,2021.1.3,60.00747680691265,
block,faces,faces014.bmp,,,,,0,39,39,39,,,,,,,,,,,,,,,,,,,,,,,,,,,,,,,,,,,,,,,,,,None,,173.19728105003014,None,173.19728105003014,None,2021-11-16-11:29:50.826405,173.20793940033764,173.51328300032765,173.20793940033764,None,None,173.20793940033764,None,174.01399694988504,None,,,,12006,0001,2021_Nov_16_1127,localizer,2021.1.3,60.00747680691265,
block,faces,faces052.bmp,,,,,0,40,40,40,,,,,,,,,,,,,,,,,,,,,,,,,,,,,,,,,,,,,,,,,,None,,174.01399694988504,None,174.01399694988504,None,2021-11-16-11:29:51.644117,174.02554360032082,174.33033359982073,174.02554360032082,None,None,174.02554360032082,None,174.83045314950868,None,,,,12006,0001,2021_Nov_16_1127,localizer,2021.1.3,60.00747680691265,
block,faces,faces078.bmp,,,,,0,41,41,41,,,,,,,,,,,,,,,,,,,,,,,,,,,,,,,,,,,,,,,,,,None,,174.83045314950868,None,174.83045314950868,None,2021-11-16-11:29:52.459790,174.84125970024616,175.1468048999086,174.84125970024616,None,None,174.84125970024616,None,175.64703984977677,None,,,,12006,0001,2021_Nov_16_1127,localizer,2021.1.3,60.00747680691265,
block,faces,faces065.bmp,,,,,0,42,42,42,,,,,,,,,,,,,,,,,,,,,,,,,,,,,,,,,,,,,,,,,,None,,175.64703984977677,None,175.64703984977677,None,2021-11-16-11:29:53.276169,175.65911209955812,175.9635474998504,175.65911209955812,None,None,175.65911209955812,None,176.46375654963776,None,,,,12006,0001,2021_Nov_16_1127,localizer,2021.1.3,60.00747680691265,
block,faces,faces028.bmp,,,,,0,43,43,43,,,,,,,,,,,,,,,,,,,,,,,,,,,,,,,,,,,,,,,,,,None,,176.46375654963776,None,176.46375654963776,None,2021-11-16-11:29:54.092886,176.47477249987423,176.7804284999147,176.47477249987423,None,None,176.47477249987423,None,177.28160885022953,None,,,,12006,0001,2021_Nov_16_1127,localizer,2021.1.3,60.00747680691265,
block_end,faces,faces028.bmp,,,,,0,44,44,44,,,,,,,,,,,,,,,,,,,,,,,,,,,,,,,,,,,,,,,,,,None,,177.28160885022953,None,177.28160885022953,None,2021-11-16-11:29:54.912854,177.28458399977535,177.59678979963064,177.28458399977535,None,None,177.28458399977535,None,178.09690544987097,None,,,,12006,0001,2021_Nov_16_1127,localizer,2021.1.3,60.00747680691265,
null_block,null_block,null_block.bmp,,,,,0,45,45,45,,,,,,,,,,,,,,,,,,,,,,,,,,,,,,,,,,,,,,,,,,t,1.7196086999028921,178.09689289983362,None,178.09689289983362,None,2021-11-16-11:29:57.463514,179.84924559947103,None,179.84924559947103,None,None,179.84924559947103,None,179.84997159987688,None,,,,12006,0001,2021_Nov_16_1127,localizer,2021.1.3,60.00747680691265,
block_start,scrambled,scrambled005.bmp,,,,,0,46,46,46,,,,,,,,,,,,,,,,,,,,,,,,,,,,,,,,,,,,,,,,,,t,1.9520023996010423,191.86443800013512,None,191.86443800013512,None,2021-11-16-11:30:11.478613,193.86016669962555,194.16347809974104,193.86016669962555,None,None,193.86016669962555,None,194.66385725000873,None,,,,12006,0001,2021_Nov_16_1127,localizer,2021.1.3,60.00747680691265,
block,scrambled,scrambled017.bmp,,,,,0,47,47,47,,,,,,,,,,,,,,,,,,,,,,,,,,,,,,,,,,,,,,,,,,None,,194.66385725000873,None,194.66385725000873,None,2021-11-16-11:30:12.292986,194.67385719995946,194.98032450024039,194.67385719995946,None,None,194.67385719995946,None,195.48049125028774,None,,,,12006,0001,2021_Nov_16_1127,localizer,2021.1.3,60.00747680691265,
block,scrambled,scrambled076.bmp,,,,,0,48,48,48,,,,,,,,,,,,,,,,,,,,,,,,,,,,,,,,,,,,,,,,,,None,,195.48049125028774,None,195.48049125028774,None,2021-11-16-11:30:13.109590,195.49046530015767,195.79684749990702,195.49046530015767,None,None,195.49046530015767,None,196.29728154977784,None,,,,12006,0001,2021_Nov_16_1127,localizer,2021.1.3,60.00747680691265,
block,scrambled,scrambled036.bmp,,,,,0,49,49,49,,,,,,,,,,,,,,,,,,,,,,,,,,,,,,,,,,,,,,,,,,None,,196.29728154977784,None,196.29728154977784,None,2021-11-16-11:30:13.926409,196.30803150031716,196.61368730012327,196.30803150031716,None,None,196.30803150031716,None,197.11405605031177,None,,,,12006,0001,2021_Nov_16_1127,localizer,2021.1.3,60.00747680691265,
block,scrambled,scrambled038.bmp,,,,,0,50,50,50,,,,,,,,,,,,,,,,,,,,,,,,,,,,,,,,,,,,,,,,,,None,,197.11405605031177,None,197.11405605031177,None,2021-11-16-11:30:14.743182,197.12584969960153,197.43045690003783,197.12584969960153,None,None,197.12584969960153,None,197.93054994987324,None,,,,12006,0001,2021_Nov_16_1127,localizer,2021.1.3,60.00747680691265,
block,scrambled,scrambled081.bmp,,,,,0,51,51,51,,,,,,,,,,,,,,,,,,,,,,,,,,,,,,,,,,,,,,,,,,None,,197.93054994987324,None,197.93054994987324,None,2021-11-16-11:30:15.559801,197.942327699624,198.24683829955757,197.942327699624,None,None,197.942327699624,None,198.74734394950792,None,,,,12006,0001,2021_Nov_16_1127,localizer,2021.1.3,60.00747680691265,
block,scrambled,scrambled074.bmp,,,,,0,52,52,52,,,,,,,,,,,,,,,,,,,,,,,,,,,,,,,,,,,,,,,,,,None,,198.74734394950792,None,198.74734394950792,None,2021-11-16-11:30:16.376610,198.758018899709,199.0637076003477,198.758018899709,None,None,198.758018899709,None,199.56406445009634,None,,,,12006,0001,2021_Nov_16_1127,localizer,2021.1.3,60.00747680691265,
block,scrambled,scrambled088.bmp,,,,,0,53,53,53,,,,,,,,,,,,,,,,,,,,,,,,,,,,,,,,,,,,,,,,,,None,,199.56406445009634,None,199.56406445009634,None,2021-11-16-11:30:17.193191,199.57468689978123,199.88050640001893,199.57468689978123,None,None,199.57468689978123,None,200.38192545017228,None,,,,12006,0001,2021_Nov_16_1127,localizer,2021.1.3,60.00747680691265,
block,scrambled,scrambled064.bmp,,,,,0,54,54,54,,,,,,,,,,,,,,,,,,,,,,,,,,,,,,,,,,,,,,,,,,None,,200.38192545017228,None,200.38192545017228,None,2021-11-16-11:30:18.014149,200.39693120028824,200.69698159955442,200.39693120028824,None,None,200.39693120028824,None,201.1971404501237,None,,,,12006,0001,2021_Nov_16_1127,localizer,2021.1.3,60.00747680691265,
block,scrambled,scrambled007.bmp,,,,,0,55,55,55,,,,,,,,,,,,,,,,,,,,,,,,,,,,,,,,,,,,,,,,,,None,,201.1971404501237,None,201.1971404501237,None,2021-11-16-11:30:18.826264,201.20783909969032,201.513677299954,201.20783909969032,None,None,201.20783909969032,None,202.01392564969137,None,,,,12006,0001,2021_Nov_16_1127,localizer,2021.1.3,60.00747680691265,
block,scrambled,scrambled035.bmp,,,,,0,56,56,56,,,,,,,,,,,,,,,,,,,,,,,,,,,,,,,,,,,,,,,,,,None,,202.01392564969137,None,202.01392564969137,None,2021-11-16-11:30:19.643200,202.02387369982898,202.3302565002814,202.02387369982898,None,None,202.02387369982898,None,202.83033725013956,None,,,,12006,0001,2021_Nov_16_1127,localizer,2021.1.3,60.00747680691265,
block,scrambled,scrambled083.bmp,,,,,0,57,57,57,,,,,,,,,,,,,,,,,,,,,,,,,,,,,,,,,,,,,,,,,,None,,202.83033725013956,None,202.83033725013956,None,2021-11-16-11:30:20.459472,202.83882389962673,203.147033800371,202.83882389962673,None,None,202.83882389962673,None,203.6470415503718,None,,,,12006,0001,2021_Nov_16_1127,localizer,2021.1.3,60.00747680691265,
block,scrambled,scrambled066.bmp,,,,,0,58,58,58,,,,,,,,,,,,,,,,,,,,,,,,,,,,,,,,,,,,,,,,,,None,,203.6470415503718,None,203.6470415503718,None,2021-11-16-11:30:21.276171,203.6566390004009,203.96376799978316,203.6566390004009,None,None,203.6566390004009,None,204.46389485010877,None,,,,12006,0001,2021_Nov_16_1127,localizer,2021.1.3,60.00747680691265,
block,scrambled,scrambled030.bmp,,,,,0,59,59,59,,,,,,,,,,,,,,,,,,,,,,,,,,,,,,,,,,,,,,,,,,None,,204.46389485010877,None,204.46389485010877,None,2021-11-16-11:30:22.093021,204.47489780001342,204.78045449964702,204.47489780001342,None,None,204.47489780001342,None,205.28072434989735,None,,,,12006,0001,2021_Nov_16_1127,localizer,2021.1.3,60.00747680691265,
block_end,scrambled,scrambled019.bmp,,,,,0,60,60,60,,,,,,,,,,,,,,,,,,,,,,,,,,,,,,,,,,,,,,,,,,None,,205.28072434989735,None,205.28072434989735,None,2021-11-16-11:30:22.910065,205.29132340010256,205.5968346996233,205.29132340010256,None,None,205.29132340010256,None,206.09730614954606,None,,,,12006,0001,2021_Nov_16_1127,localizer,2021.1.3,60.00747680691265,
null_block,null_block,null_block.bmp,,,,,0,61,61,61,,,,,,,,,,,,,,,,,,,,,,,,,,,,,,,,,,,,,,,,,,t,1.7193152997642756,206.09708559978753,None,206.09708559978753,None,2021-11-16-11:30:25.477741,207.84742885036394,None,207.84742885036394,None,None,207.84742885036394,None,207.85201849974692,None,,,,12006,0001,2021_Nov_16_1127,localizer,2021.1.3,60.00747680691265,
block_start,scenes,scenes042.bmp,,,,,0,62,62,62,,,,,,,,,,,,,,,,,,,,,,,,,,,,,,,,,,,,,,,,,,t,1.9524801997467875,219.8640184001997,None,219.8640184001997,None,2021-11-16-11:30:39.476740,221.84782580006868,222.1537507995963,221.84782580006868,None,None,221.84782580006868,None,222.64855395024642,None,,,,12006,0001,2021_Nov_16_1127,localizer,2021.1.3,60.00747680691265,
block,scenes,scenes050.bmp,,,,,0,63,63,63,,,,,,,,,,,,,,,,,,,,,,,,,,,,,,,,,,,,,,,,,,None,,222.64855395024642,None,222.64855395024642,None,2021-11-16-11:30:40.282835,222.6645769001916,222.96377979964018,222.6645769001916,222.6645769001916,None,222.6645769001916,222.6645769001916,223.46421274961904,None,,,,12006,0001,2021_Nov_16_1127,localizer,2021.1.3,60.00747680691265,
block,scenes,scenes037.bmp,,,,,0,64,64,64,,,,,,,,,,,,,,,,,,,,,,,,,,,,,,,,,,,,,,,,,,None,,223.46421274961904,None,223.46421274961904,None,2021-11-16-11:30:41.093545,223.46474810037762,223.7639451995492,223.46474810037762,None,None,223.46474810037762,None,224.264435950201,None,,,,12006,0001,2021_Nov_16_1127,localizer,2021.1.3,60.00747680691265,
block,scenes,scenes078.bmp,,,,,0,65,65,65,,,,,,,,,,,,,,,,,,,,,,,,,,,,,,,,,,,,,,,,,,None,,224.264435950201,None,224.264435950201,None,2021-11-16-11:30:41.896726,224.2794059002772,224.5804634001106,224.2794059002772,224.2794059002772,None,224.2794059002772,224.2794059002772,225.0801272499375,None,,,,12006,0001,2021_Nov_16_1127,localizer,2021.1.3,60.00747680691265,
block,scenes,scenes076.bmp,,,,,0,66,66,66,,,,,,,,,,,,,,,,,,,,,,,,,,,,,,,,,,,,,,,,,,None,,225.0801272499375,None,225.0801272499375,None,2021-11-16-11:30:42.709262,225.08926529996097,225.3969269003719,225.08926529996097,None,None,225.08926529996097,None,225.9000577502884,None,,,,12006,0001,2021_Nov_16_1127,localizer,2021.1.3,60.00747680691265,
block,scenes,scenes080.bmp,,,,,0,67,67,67,,,,,,,,,,,,,,,,,,,,,,,,,,,,,,,,,,,,,,,,,,None,,225.9000577502884,None,225.9000577502884,None,2021-11-16-11:30:43.534233,225.91350859962404,226.21368789952248,225.91350859962404,None,None,225.91350859962404,None,226.71399475028738,None,,,,12006,0001,2021_Nov_16_1127,localizer,2021.1.3,60.00747680691265,
block,scenes,scenes087.bmp,,,,,0,68,68,68,,,,,,,,,,,,,,,,,,,,,,,,,,,,,,,,,,,,,,,,,,None,,226.71399475028738,None,226.71399475028738,None,2021-11-16-11:30:44.343640,226.72484780009836,227.03049049992114,226.72484780009836,None,None,226.72484780009836,None,227.53054584981874,None,,,,12006,0001,2021_Nov_16_1127,localizer,2021.1.3,60.00747680691265,
block,scenes,scenes062.bmp,,,,,0,69,69,69,,,,,,,,,,,,,,,,,,,,,,,,,,,,,,,,,,,,,,,,,,None,,227.53054584981874,None,227.53054584981874,None,2021-11-16-11:30:45.159887,227.5417523998767,227.8470181003213,227.5417523998767,None,None,227.5417523998767,None,228.34685284970328,None,,,,12006,0001,2021_Nov_16_1127,localizer,2021.1.3,60.00747680691265,
block,scenes,scenes058.bmp,,,,,0,70,70,70,,,,,,,,,,,,,,,,,,,,,,,,,,,,,,,,,,,,,,,,,,None,,228.34685284970328,None,228.34685284970328,None,2021-11-16-11:30:45.975985,228.3562597995624,228.66365739982575,228.3562597995624,None,None,228.3562597995624,None,229.16391004947945,None,,,,12006,0001,2021_Nov_16_1127,localizer,2021.1.3,60.00747680691265,
block,scenes,scenes068.bmp,,,,,0,71,71,71,,,,,,,,,,,,,,,,,,,,,,,,,,,,,,,,,,,,,,,,,,None,,229.16391004947945,None,229.16391004947945,None,2021-11-16-11:30:46.793040,229.17374600004405,229.48041869979352,229.17374600004405,None,None,229.17374600004405,None,229.98065234953538,None,,,,12006,0001,2021_Nov_16_1127,localizer,2021.1.3,60.00747680691265,
block,scenes,scenes008.bmp,,,,,0,72,72,72,,,,,,,,,,,,,,,,,,,,,,,,,,,,,,,,,,,,,,,,,,None,,229.98065234953538,None,229.98065234953538,None,2021-11-16-11:30:47.609777,229.9914277996868,230.29730680026114,229.9914277996868,None,None,229.9914277996868,None,230.79716245038435,None,,,,12006,0001,2021_Nov_16_1127,localizer,2021.1.3,60.00747680691265,
block,scenes,scenes004.bmp,,,,,0,73,73,73,,,,,,,,,,,,,,,,,,,,,,,,,,,,,,,,,,,,,,,,,,None,,230.79716245038435,None,230.79716245038435,None,2021-11-16-11:30:48.426294,230.80822999961674,231.11370300035924,230.80822999961674,None,None,230.80822999961674,None,231.61415754957125,None,,,,12006,0001,2021_Nov_16_1127,localizer,2021.1.3,60.00747680691265,
block,scenes,scenes057.bmp,,,,,0,74,74,74,,,,,,,,,,,,,,,,,,,,,,,,,,,,,,,,,,,,,,,,,,None,,231.61415754957125,None,231.61415754957125,None,2021-11-16-11:30:49.243284,231.61472559999675,231.91376439947635,231.61472559999675,None,None,231.61472559999675,None,232.4141872501932,None,,,,12006,0001,2021_Nov_16_1127,localizer,2021.1.3,60.00747680691265,
block,scenes,scenes012.bmp,,,,,0,75,75,75,,,,,,,,,,,,,,,,,,,,,,,,,,,,,,,,,,,,,,,,,,None,,232.4141872501932,None,232.4141872501932,None,2021-11-16-11:30:50.045308,232.42681320011616,232.73043819982558,232.42681320011616,232.42681320011616,None,232.42681320011616,232.42681320011616,233.23034334974363,None,,,,12006,0001,2021_Nov_16_1127,localizer,2021.1.3,60.00747680691265,
block_end,scenes,scenes021.bmp,,,,,0,76,76,76,,,,,,,,,,,,,,,,,,,,,,,,,,,,,,,,,,,,,,,,,,None,,233.23034334974363,None,233.23034334974363,None,2021-11-16-11:30:50.859724,233.23139080032706,233.5302817998454,233.23139080032706,None,None,233.23139080032706,None,234.03131254995242,None,,,,12006,0001,2021_Nov_16_1127,localizer,2021.1.3,60.00747680691265,
block_start,scrambled,scrambled040.bmp,,,,,0,77,77,77,,,,,,,,,,,,,,,,,,,,,,,,,,,,,,,,,,,,,,,,,,t,1.7850901996716857,234.0314180003479,None,234.0314180003479,None,2021-11-16-11:30:53.477332,235.85854910034686,236.16371779982,235.85854910034686,None,None,235.85854910034686,None,236.66419665003195,None,,,,12006,0001,2021_Nov_16_1127,localizer,2021.1.3,60.00747680691265,
block,scrambled,scrambled021.bmp,,,,,0,78,78,78,,,,,,,,,,,,,,,,,,,,,,,,,,,,,,,,,,,,,,,,,,None,,236.66419665003195,None,236.66419665003195,None,2021-11-16-11:30:54.293504,236.6748222000897,236.98038049973547,236.6748222000897,None,None,236.6748222000897,None,237.48073864961043,None,,,,12006,0001,2021_Nov_16_1127,localizer,2021.1.3,60.00747680691265,
block,scrambled,scrambled063.bmp,,,,,0,79,79,79,,,,,,,,,,,,,,,,,,,,,,,,,,,,,,,,,,,,,,,,,,None,,237.48073864961043,None,237.48073864961043,None,2021-11-16-11:30:55.109868,237.49051329959184,237.7972000995651,237.49051329959184,None,y,237.49051329959184,None,238.29756624950096,None,0.19465710036456585,,,12006,0001,2021_Nov_16_1127,localizer,2021.1.3,60.00747680691265,
block,scrambled,scrambled014.bmp,,,,,0,80,80,80,,,,,,,,,,,,,,,,,,,,,,,,,,,,,,,,,,,,,,,,,,None,,238.29756624950096,None,238.29756624950096,None,2021-11-16-11:30:55.926694,238.30810679960996,238.61424829997122,238.30810679960996,None,None,238.30810679960996,None,239.11449604993686,None,,,,12006,0001,2021_Nov_16_1127,localizer,2021.1.3,60.00747680691265,
block,scrambled,scrambled066.bmp,,,,,0,81,81,81,,,,,,,,,,,,,,,,,,,,,,,,,,,,,,,,,,,,,,,,,,None,,239.11449604993686,None,239.11449604993686,None,2021-11-16-11:30:56.743818,239.11509339977056,239.41415979992598,239.11509339977056,None,None,239.11509339977056,None,239.9144714497961,None,,,,12006,0001,2021_Nov_16_1127,localizer,2021.1.3,60.00747680691265,
block,scrambled,scrambled015.bmp,,,,,0,82,82,82,,,,,,,,,,,,,,,,,,,,,,,,,,,,,,,,,,,,,,,,,,None,,239.9144714497961,None,239.9144714497961,None,2021-11-16-11:30:57.546681,239.92806600034237,240.23086430039257,239.92806600034237,239.92806600034237,None,239.92806600034237,239.92806600034237,240.73116525029764,None,,,,12006,0001,2021_Nov_16_1127,localizer,2021.1.3,60.00747680691265,
block,scrambled,scrambled068.bmp,,,,,0,83,83,83,,,,,,,,,,,,,,,,,,,,,,,,,,,,,,,,,,,,,,,,,,None,,240.73116525029764,None,240.73116525029764,None,2021-11-16-11:30:58.360496,240.74158279970288,241.0471674995497,240.74158279970288,None,None,240.74158279970288,None,241.54743835004047,None,,,,12006,0001,2021_Nov_16_1127,localizer,2021.1.3,60.00747680691265,
block,scrambled,scrambled039.bmp,,,,,0,84,84,84,,,,,,,,,,,,,,,,,,,,,,,,,,,,,,,,,,,,,,,,,,None,,241.54743835004047,None,241.54743835004047,None,2021-11-16-11:30:59.176512,241.55843439977616,241.8639832995832,241.55843439977616,None,None,241.55843439977616,None,242.36446495028213,None,,,,12006,0001,2021_Nov_16_1127,localizer,2021.1.3,60.00747680691265,
block,scrambled,scrambled004.bmp,,,,,0,85,85,85,,,,,,,,,,,,,,,,,,,,,,,,,,,,,,,,,,,,,,,,,,None,,242.36446495028213,None,242.36446495028213,None,2021-11-16-11:30:59.994918,242.37656600028276,242.6805996997282,242.37656600028276,None,None,242.37656600028276,None,243.18091614963487,None,,,,12006,0001,2021_Nov_16_1127,localizer,2021.1.3,60.00747680691265,
block,scrambled,scrambled004.bmp,,,,,0,86,86,86,,,,,,,,,,,,,,,,,,,,,,,,,,,,,,,,,,,,,,,,,,None,,243.18091614963487,None,243.18091614963487,None,2021-11-16-11:31:00.810242,243.18168899975717,243.4807478999719,243.18168899975717,None,None,243.18168899975717,None,243.99742104997858,None,,,,12006,0001,2021_Nov_16_1127,localizer,2021.1.3,60.00747680691265,
block,scrambled,scrambled064.bmp,,,,,0,87,87,87,,,,,,,,,,,,,,,,,,,,,,,,,,,,,,,,,,,,,,,,,,None,,243.99742104997858,None,243.99742104997858,None,2021-11-16-11:31:01.626554,243.99814520031214,244.2975105997175,243.99814520031214,None,y,243.99814520031214,None,244.8139096503146,None,0.03593969997018576,,,12006,0001,2021_Nov_16_1127,localizer,2021.1.3,60.00747680691265,
block,scrambled,scrambled011.bmp,,,,,0,88,88,88,,,,,,,,,,,,,,,,,,,,,,,,,,,,,,,,,,,,,,,,,,None,,244.8139096503146,None,244.8139096503146,None,2021-11-16-11:31:02.443041,244.82365870010108,245.13050950039178,244.82365870010108,None,None,244.82365870010108,None,245.63064215006307,None,,,,12006,0001,2021_Nov_16_1127,localizer,2021.1.3,60.00747680691265,
block,scrambled,scrambled070.bmp,,,,,0,89,89,89,,,,,,,,,,,,,,,,,,,,,,,,,,,,,,,,,,,,,,,,,,None,,245.63064215006307,None,245.63064215006307,None,2021-11-16-11:31:03.259770,245.64102180022746,245.94692199956626,245.64102180022746,None,None,245.64102180022746,None,246.4474818496965,None,,,,12006,0001,2021_Nov_16_1127,localizer,2021.1.3,60.00747680691265,
block,scrambled,scrambled012.bmp,,,,,0,90,90,90,,,,,,,,,,,,,,,,,,,,,,,,,,,,,,,,,,,,,,,,,,None,,246.4474818496965,None,246.4474818496965,None,2021-11-16-11:31:04.076610,246.4573785001412,246.7638322999701,246.4573785001412,None,None,246.4573785001412,None,247.26416625035927,None,,,,12006,0001,2021_Nov_16_1127,localizer,2021.1.3,60.00747680691265,
block_end,scrambled,scrambled054.bmp,,,,,0,91,91,91,,,,,,,,,,,,,,,,,,,,,,,,,,,,,,,,,,,,,,,,,,None,,247.26416625035927,None,247.26416625035927,None,2021-11-16-11:31:04.893294,247.27387829963118,247.58055260032415,247.27387829963118,None,None,247.27387829963118,None,248.08092644950375,None,,,,12006,0001,2021_Nov_16_1127,localizer,2021.1.3,60.00747680691265,
block_start,faces,faces036.bmp,,,,,0,92,92,92,,,,,,,,,,,,,,,,,,,,,,,,,,,,,,,,,,,,,,,,,,t,1.7357609998434782,248.080593300052,None,248.080593300052,None,2021-11-16-11:31:07.474976,249.85719399992377,250.1638786001131,249.85719399992377,None,None,249.85719399992377,None,250.66405545035377,None,,,,12006,0001,2021_Nov_16_1127,localizer,2021.1.3,60.00747680691265,
block,faces,faces010.bmp,,,,,0,93,93,93,,,,,,,,,,,,,,,,,,,,,,,,,,,,,,,,,,,,,,,,,,None,,250.66405545035377,None,250.66405545035377,None,2021-11-16-11:31:08.293186,250.6749697001651,250.98052950017154,250.6749697001651,None,None,250.6749697001651,None,251.48051805002615,None,,,,12006,0001,2021_Nov_16_1127,localizer,2021.1.3,60.00747680691265,
block,faces,faces013.bmp,,,,,0,94,94,94,,,,,,,,,,,,,,,,,,,,,,,,,,,,,,,,,,,,,,,,,,None,,251.48051805002615,None,251.48051805002615,None,2021-11-16-11:31:09.109647,251.49120180029422,251.79724549967796,251.49120180029422,None,None,251.49120180029422,None,252.29722304968163,None,,,,12006,0001,2021_Nov_16_1127,localizer,2021.1.3,60.00747680691265,
block,faces,faces016.bmp,,,,,0,95,95,95,,,,,,,,,,,,,,,,,,,,,,,,,,,,,,,,,,,,,,,,,,None,,252.29722304968163,None,252.29722304968163,None,2021-11-16-11:31:09.926617,252.3066753996536,252.61394890025258,252.3066753996536,None,None,252.3066753996536,None,253.11517784977332,None,,,,12006,0001,2021_Nov_16_1127,localizer,2021.1.3,60.00747680691265,
block,faces,faces006.bmp,,,,,0,96,96,96,,,,,,,,,,,,,,,,,,,,,,,,,,,,,,,,,,,,,,,,,,None,,253.11517784977332,None,253.11517784977332,None,2021-11-16-11:31:10.745466,253.11721959989518,253.4303264003247,253.11721959989518,None,None,253.11721959989518,None,253.93090574955568,None,,,,12006,0001,2021_Nov_16_1127,localizer,2021.1.3,60.00747680691265,
block,faces,faces085.bmp,,,,,0,97,97,97,,,,,,,,,,,,,,,,,,,,,,,,,,,,,,,,,,,,,,,,,,None,,253.93090574955568,None,253.93090574955568,None,2021-11-16-11:31:11.560232,253.94066189974546,254.24710759986192,253.94066189974546,None,None,253.94066189974546,None,254.74816434970126,None,,,,12006,0001,2021_Nov_16_1127,localizer,2021.1.3,60.00747680691265,
block,faces,faces022.bmp,,,,,0,98,98,98,,,,,,,,,,,,,,,,,,,,,,,,,,,,,,,,,,,,,,,,,,None,,254.74816434970126,None,254.74816434970126,None,2021-11-16-11:31:12.378280,254.760710099712,255.06388590019196,254.760710099712,None,None,254.760710099712,None,255.56420875014737,None,,,,12006,0001,2021_Nov_16_1127,localizer,2021.1.3,60.00747680691265,
block,faces,faces041.bmp,,,,,0,99,99,99,,,,,,,,,,,,,,,,,,,,,,,,,,,,,,,,,,,,,,,,,,None,,255.56420875014737,None,255.56420875014737,None,2021-11-16-11:31:13.194002,255.57503269985318,255.88043829984963,255.57503269985318,None,None,255.57503269985318,None,256.381015450228,None,,,,12006,0001,2021_Nov_16_1127,localizer,2021.1.3,60.00747680691265,
block,faces,faces005.bmp,,,,,0,100,100,100,,,,,,,,,,,,,,,,,,,,,,,,,,,,,,,,,,,,,,,,,,None,,256.381015450228,None,256.381015450228,None,2021-11-16-11:31:14.010143,256.39042420033365,256.69720739964396,256.39042420033365,None,None,256.39042420033365,None,257.1977074495517,None,,,,12006,0001,2021_Nov_16_1127,localizer,2021.1.3,60.00747680691265,
block,faces,faces065.bmp,,,,,0,101,101,101,,,,,,,,,,,,,,,,,,,,,,,,,,,,,,,,,,,,,,,,,,None,,257.1977074495517,None,257.1977074495517,None,2021-11-16-11:31:14.827042,257.19827490020543,257.4974087998271,257.19827490020543,None,None,257.19827490020543,None,257.9973554494791,None,,,,12006,0001,2021_Nov_16_1127,localizer,2021.1.3,60.00747680691265,
block,faces,faces060.bmp,,,,,0,102,102,102,,,,,,,,,,,,,,,,,,,,,,,,,,,,,,,,,,,,,,,,,,None,,257.9973554494791,None,257.9973554494791,None,2021-11-16-11:31:15.628434,258.0093673001975,258.3138421000913,258.0093673001975,258.0093673001975,None,258.0093673001975,258.0093673001975,258.8143412503414,None,,,,12006,0001,2021_Nov_16_1127,localizer,2021.1.3,60.00747680691265,
block,faces,faces035.bmp,,,,,0,103,103,103,,,,,,,,,,,,,,,,,,,,,,,,,,,,,,,,,,,,,,,,,,None,,258.8143412503414,None,258.8143412503414,None,2021-11-16-11:31:16.443659,258.8260607998818,259.1304574999958,258.8260607998818,None,None,258.8260607998818,None,259.63094554981217,None,,,,12006,0001,2021_Nov_16_1127,localizer,2021.1.3,60.00747680691265,
block,faces,faces014.bmp,,,,,0,104,104,104,,,,,,,,,,,,,,,,,,,,,,,,,,,,,,,,,,,,,,,,,,None,,259.63094554981217,None,259.63094554981217,None,2021-11-16-11:31:17.260072,259.6315802996978,259.9309938000515,259.6315802996978,None,None,259.6315802996978,None,260.4308573496528,None,,,,12006,0001,2021_Nov_16_1127,localizer,2021.1.3,60.00747680691265,
block,faces,faces001.bmp,,,,,0,105,105,105,,,,,,,,,,,,,,,,,,,,,,,,,,,,,,,,,,,,,,,,,,None,,260.4308573496528,None,260.4308573496528,None,2021-11-16-11:31:18.060958,260.43815660011023,260.74735509976745,260.43815660011023,260.43815660011023,None,260.43815660011023,260.43815660011023,261.2481227503158,None,,,,12006,0001,2021_Nov_16_1127,localizer,2021.1.3,60.00747680691265,
block_end,faces,faces061.bmp,,,,,0,106,106,106,,,,,,,,,,,,,,,,,,,,,,,,,,,,,,,,,,,,,,,,,,None,,261.2481227503158,None,261.2481227503158,None,2021-11-16-11:31:18.878447,261.26070979982615,261.5639119995758,261.26070979982615,None,None,261.26070979982615,None,262.06450364971533,None,,,,12006,0001,2021_Nov_16_1127,localizer,2021.1.3,60.00747680691265,
block_start,objects,objects060.bmp,,,,,0,107,107,107,,,,,,,,,,,,,,,,,,,,,,,,,,,,,,,,,,,,,,,,,,t,1.7519332999363542,262.0643073003739,None,262.0643073003739,None,2021-11-16-11:31:21.475548,263.8561134999618,264.1639764998108,263.8561134999618,None,None,263.8561134999618,None,264.6642431500368,None,,,,12006,0001,2021_Nov_16_1127,localizer,2021.1.3,60.00747680691265,
block,objects,objects003.bmp,,,,,0,108,108,108,,,,,,,,,,,,,,,,,,,,,,,,,,,,,,,,,,,,,,,,,,None,,264.6642431500368,None,264.6642431500368,None,2021-11-16-11:31:22.293594,264.675102699548,264.9808718999848,264.675102699548,None,None,264.675102699548,None,265.4809099496342,None,,,,12006,0001,2021_Nov_16_1127,localizer,2021.1.3,60.00747680691265,
block,objects,objects024.bmp,,,,,0,109,109,109,,,,,,,,,,,,,,,,,,,,,,,,,,,,,,,,,,,,,,,,,,None,,265.4809099496342,None,265.4809099496342,None,2021-11-16-11:31:23.110447,265.4917051997036,265.79743590019643,265.4917051997036,None,None,265.4917051997036,None,266.2996452501975,None,,,,12006,0001,2021_Nov_16_1127,localizer,2021.1.3,60.00747680691265,
block,objects,objects006.bmp,,,,,0,110,110,110,,,,,,,,,,,,,,,,,,,,,,,,,,,,,,,,,,,,,,,,,,None,,266.2996452501975,None,266.2996452501975,None,2021-11-16-11:31:23.932857,266.3196706995368,266.6155445994809,266.3196706995368,None,None,266.3196706995368,None,267.1142387497239,None,,,,12006,0001,2021_Nov_16_1127,localizer,2021.1.3,60.00747680691265,
block,objects,objects033.bmp,,,,,0,111,111,111,,,,,,,,,,,,,,,,,,,,,,,,,,,,,,,,,,,,,,,,,,None,,267.1142387497239,None,267.1142387497239,None,2021-11-16-11:31:24.743371,267.1232148995623,267.431659700349,267.1232148995623,None,None,267.1232148995623,None,267.93190375017,None,,,,12006,0001,2021_Nov_16_1127,localizer,2021.1.3,60.00747680691265,
block,objects,objects002.bmp,,,,,0,112,112,112,,,,,,,,,,,,,,,,,,,,,,,,,,,,,,,,,,,,,,,,,,None,,267.93190375017,None,267.93190375017,None,2021-11-16-11:31:25.562167,267.9438132997602,268.24725359957665,267.9438132997602,None,None,267.9438132997602,None,268.74750275025144,None,,,,12006,0001,2021_Nov_16_1127,localizer,2021.1.3,60.00747680691265,
block,objects,objects045.bmp,,,,,0,113,113,113,,,,,,,,,,,,,,,,,,,,,,,,,,,,,,,,,,,,,,,,,,None,,268.74750275025144,None,268.74750275025144,None,2021-11-16-11:31:26.376634,268.7481220001355,269.04734530020505,268.7481220001355,None,None,268.7481220001355,None,269.5479764495976,None,,,,12006,0001,2021_Nov_16_1127,localizer,2021.1.3,60.00747680691265,
block,objects,objects070.bmp,,,,,0,114,114,114,,,,,,,,,,,,,,,,,,,,,,,,,,,,,,,,,,,,,,,,,,None,,269.5479764495976,None,269.5479764495976,None,2021-11-16-11:31:27.180293,269.5507188998163,269.8642280995846,269.5507188998163,269.5507188998163,None,269.5507188998163,269.5507188998163,270.3641460496001,None,,,,12006,0001,2021_Nov_16_1127,localizer,2021.1.3,60.00747680691265,
block,objects,objects053.bmp,,,,,0,115,115,115,,,,,,,,,,,,,,,,,,,,,,,,,,,,,,,,,,,,,,,,,,None,,270.3641460496001,None,270.3641460496001,None,2021-11-16-11:31:27.993275,270.373302699998,270.6806792002171,270.373302699998,None,None,270.373302699998,None,271.1820880495943,None,,,,12006,0001,2021_Nov_16_1127,localizer,2021.1.3,60.00747680691265,
block,objects,objects082.bmp,,,,,0,116,116,116,,,,,,,,,,,,,,,,,,,,,,,,,,,,,,,,,,,,,,,,,,None,,271.1820880495943,None,271.1820880495943,None,2021-11-16-11:31:28.812778,271.1911926995963,271.4979892997071,271.1911926995963,None,None,271.1911926995963,None,271.99808154953644,None,,,,12006,0001,2021_Nov_16_1127,localizer,2021.1.3,60.00747680691265,
block,objects,objects032.bmp,,,,,0,117,117,117,,,,,,,,,,,,,,,,,,,,,,,,,,,,,,,,,,,,,,,,,,None,,271.99808154953644,None,271.99808154953644,None,2021-11-16-11:31:29.628386,271.99996170029044,272.31466019991785,271.99996170029044,None,None,271.99996170029044,None,272.8035799502395,None,,,,12006,0001,2021_Nov_16_1127,localizer,2021.1.3,60.00747680691265,
block,objects,objects081.bmp,,,,,0,118,118,118,,,,,,,,,,,,,,,,,,,,,,,,,,,,,,,,,,,,,,,,,,None,,272.8035799502395,None,272.8035799502395,None,2021-11-16-11:31:30.436609,272.819915600121,273.131064299494,272.819915600121,None,None,272.819915600121,None,273.6143729495816,None,,,,12006,0001,2021_Nov_16_1127,localizer,2021.1.3,60.00747680691265,
block,objects,objects016.bmp,,,,,0,119,119,119,,,,,,,,,,,,,,,,,,,,,,,,,,,,,,,,,,,,,,,,,,None,,273.6143729495816,None,273.6143729495816,None,2021-11-16-11:31:31.243434,273.6253263000399,273.9308057995513,273.6253263000399,None,None,273.6253263000399,None,274.4308615499176,None,,,,12006,0001,2021_Nov_16_1127,localizer,2021.1.3,60.00747680691265,
block,objects,objects047.bmp,,,,,0,120,120,120,,,,,,,,,,,,,,,,,,,,,,,,,,,,,,,,,,,,,,,,,,None,,274.4308615499176,None,274.4308615499176,None,2021-11-16-11:31:32.060206,274.44078969955444,274.7472083000466,274.44078969955444,None,None,274.44078969955444,None,275.24780494952574,None,,,,12006,0001,2021_Nov_16_1127,localizer,2021.1.3,60.00747680691265,
block_end,objects,objects041.bmp,,,,,0,121,121,121,,,,,,,,,,,,,,,,,,,,,,,,,,,,,,,,,,,,,,,,,,None,,275.24780494952574,None,275.24780494952574,None,2021-11-16-11:31:32.876932,275.2574488995597,275.5641126995906,275.2574488995597,None,None,275.2574488995597,None,276.0643852497451,None,,,,12006,0001,2021_Nov_16_1127,localizer,2021.1.3,60.00747680691265,
block_start,scenes,scenes063.bmp,,,,,0,122,122,122,,,,,,,,,,,,,,,,,,,,,,,,,,,,,,,,,,,,,,,,,,t,1.750942699611187,276.06430209986866,None,276.06430209986866,None,2021-11-16-11:31:35.461937,277.8449831996113,278.1476974999532,277.8449831996113,None,None,277.8449831996113,None,278.64790585031733,None,,,,12006,0001,2021_Nov_16_1127,localizer,2021.1.3,60.00747680691265,
block,scenes,scenes018.bmp,,,,,0,123,123,123,,,,,,,,,,,,,,,,,,,,,,,,,,,,,,,,,,,,,,,,,,None,,278.64790585031733,None,278.64790585031733,None,2021-11-16-11:31:36.277224,278.65860150009394,278.9638831000775,278.65860150009394,None,None,278.65860150009394,None,279.4641972496174,None,,,,12006,0001,2021_Nov_16_1127,localizer,2021.1.3,60.00747680691265,
block,scenes,scenes005.bmp,,,,,0,124,124,124,,,,,,,,,,,,,,,,,,,,,,,,,,,,,,,,,,,,,,,,,,None,,279.4641972496174,None,279.4641972496174,None,2021-11-16-11:31:37.093848,279.47281739953905,279.78082649968565,279.47281739953905,None,None,279.47281739953905,None,280.2812237502076,None,,,,12006,0001,2021_Nov_16_1127,localizer,2021.1.3,60.00747680691265,
block,scenes,scenes013.bmp,,,,,0,125,125,125,,,,,,,,,,,,,,,,,,,,,,,,,,,,,,,,,,,,,,,,,,None,,280.2812237502076,None,280.2812237502076,None,2021-11-16-11:31:37.911343,280.2919613001868,280.59759469982237,280.2919613001868,None,None,280.2919613001868,None,281.0981545499526,None,,,,12006,0001,2021_Nov_16_1127,localizer,2021.1.3,60.00747680691265,
block,scenes,scenes045.bmp,,,,,0,126,126,126,,,,,,,,,,,,,,,,,,,,,,,,,,,,,,,,,,,,,,,,,,None,,281.0981545499526,None,281.0981545499526,None,2021-11-16-11:31:38.728283,281.1097740996629,281.41413789987564,281.1097740996629,None,None,281.1097740996629,None,281.91453514946625,None,,,,12006,0001,2021_Nov_16_1127,localizer,2021.1.3,60.00747680691265,
block,scenes,scenes064.bmp,,,,,0,127,127,127,,,,,,,,,,,,,,,,,,,,,,,,,,,,,,,,,,,,,,,,,,None,,281.91453514946625,None,281.91453514946625,None,2021-11-16-11:31:39.543867,281.9150197003037,282.21425519976765,281.9150197003037,None,None,281.9150197003037,None,282.7154093501158,None,,,,12006,0001,2021_Nov_16_1127,localizer,2021.1.3,60.00747680691265,
block,scenes,scenes027.bmp,,,,,0,128,128,128,,,,,,,,,,,,,,,,,,,,,,,,,,,,,,,,,,,,,,,,,,None,,282.7154093501158,None,282.7154093501158,None,2021-11-16-11:31:40.349507,282.7339944001287,283.04731439985335,282.7339944001287,282.7339944001287,None,282.7339944001287,282.7339944001287,283.5313518499024,None,,,,12006,0001,2021_Nov_16_1127,localizer,2021.1.3,60.00747680691265,
block,scenes,scenes083.bmp,,,,,0,129,129,129,,,,,,,,,,,,,,,,,,,,,,,,,,,,,,,,,,,,,,,,,,None,,283.5313518499024,None,283.5313518499024,None,2021-11-16-11:31:41.161623,283.5430113002658,283.84793560020626,283.5430113002658,None,None,283.5430113002658,None,284.3478917502798,None,,,,12006,0001,2021_Nov_16_1127,localizer,2021.1.3,60.00747680691265,
block,scenes,scenes061.bmp,,,,,0,130,130,130,,,,,,,,,,,,,,,,,,,,,,,,,,,,,,,,,,,,,,,,,,None,,284.3478917502798,None,284.3478917502798,None,2021-11-16-11:31:41.978174,284.3603962995112,284.6640095002949,284.3603962995112,None,None,284.3603962995112,None,285.16439435025677,None,,,,12006,0001,2021_Nov_16_1127,localizer,2021.1.3,60.00747680691265,
block,scenes,scenes088.bmp,,,,,0,131,131,131,,,,,,,,,,,,,,,,,,,,,,,,,,,,,,,,,,,,,,,,,,None,,285.16439435025677,None,285.16439435025677,None,2021-11-16-11:31:42.793521,285.1742738997564,285.4806025996804,285.1742738997564,None,None,285.1742738997564,None,285.9812537501566,None,,,,12006,0001,2021_Nov_16_1127,localizer,2021.1.3,60.00747680691265,
block,scenes,scenes077.bmp,,,,,0,132,132,132,,,,,,,,,,,,,,,,,,,,,,,,,,,,,,,,,,,,,,,,,,None,,285.9812537501566,None,285.9812537501566,None,2021-11-16-11:31:43.611462,285.981985299848,286.2810469996184,285.981985299848,None,None,285.981985299848,None,286.78204265004024,None,,,,12006,0001,2021_Nov_16_1127,localizer,2021.1.3,60.00747680691265,
block,scenes,scenes057.bmp,,,,,0,133,133,133,,,,,,,,,,,,,,,,,,,,,,,,,,,,,,,,,,,,,,,,,,None,,286.78204265004024,None,286.78204265004024,None,2021-11-16-11:31:44.414998,286.7856761002913,287.09763479977846,286.7856761002913,286.7856761002913,None,286.7856761002913,286.7856761002913,287.5975160500966,None,,,,12006,0001,2021_Nov_16_1127,localizer,2021.1.3,60.00747680691265,
block,scenes,scenes003.bmp,,,,,0,134,134,134,,,,,,,,,,,,,,,,,,,,,,,,,,,,,,,,,,,,,,,,,,None,,287.5975160500966,None,287.5975160500966,None,2021-11-16-11:31:45.226879,287.60482999961823,287.9142843000591,287.60482999961823,None,None,287.60482999961823,None,288.4150588498451,None,,,,12006,0001,2021_Nov_16_1127,localizer,2021.1.3,60.00747680691265,
block,scenes,scenes049.bmp,,,,,0,135,135,135,,,,,,,,,,,,,,,,,,,,,,,,,,,,,,,,,,,,,,,,,,None,,288.4150588498451,None,288.4150588498451,None,2021-11-16-11:31:46.045322,288.4269348997623,288.7309274999425,288.4269348997623,None,None,288.4269348997623,None,289.2313586496748,None,,,,12006,0001,2021_Nov_16_1127,localizer,2021.1.3,60.00747680691265,
block_end,scenes,scenes056.bmp,,,,,0,136,136,136,,,,,,,,,,,,,,,,,,,,,,,,,,,,,,,,,,,,,,,,,,None,,289.2313586496748,None,289.2313586496748,None,2021-11-16-11:31:46.861690,289.24294860009104,289.5480412999168,289.24294860009104,None,None,289.24294860009104,None,290.047643749509,None,,,,12006,0001,2021_Nov_16_1127,localizer,2021.1.3,60.00747680691265,
block_start,objects,objects050.bmp,,,,,0,137,137,137,,,,,,,,,,,,,,,,,,,,,,,,,,,,,,,,,,,,,,,,,,t,1.7678027004003525,290.04745140019804,None,290.04745140019804,None,2021-11-16-11:31:49.461608,291.8319276999682,292.13129340019077,291.8319276999682,None,None,291.8319276999682,None,292.6317393495701,None,,,,12006,0001,2021_Nov_16_1127,localizer,2021.1.3,60.00747680691265,
block,objects,objects064.bmp,,,,,0,138,138,138,,,,,,,,,,,,,,,,,,,,,,,,,,,,,,,,,,,,,,,,,,None,,292.6317393495701,None,292.6317393495701,None,2021-11-16-11:31:50.264043,292.6461153998971,292.947334099561,292.6461153998971,292.6461153998971,None,292.6461153998971,292.6461153998971,293.44760115025565,None,,,,12006,0001,2021_Nov_16_1127,localizer,2021.1.3,60.00747680691265,
block,objects,objects064.bmp,,,,,0,139,139,139,,,,,,,,,,,,,,,,,,,,,,,,,,,,,,,,,,,,,,,,,,None,,293.44760115025565,None,293.44760115025565,None,2021-11-16-11:31:51.076731,293.4484037999064,293.74742319993675,293.4484037999064,None,y,293.4484037999064,None,294.24801425030455,None,0.746781699359417,,,12006,0001,2021_Nov_16_1127,localizer,2021.1.3,60.00747680691265,
block,objects,objects011.bmp,,,,,0,140,140,140,,,,,,,,,,,,,,,,,,,,,,,,,,,,,,,,,,,,,,,,,,None,,294.24801425030455,None,294.24801425030455,None,2021-11-16-11:31:51.879342,294.26190659962595,294.56428909953684,294.26190659962595,294.26190659962595,None,294.26190659962595,294.26190659962595,295.06558174965903,None,,,,12006,0001,2021_Nov_16_1127,localizer,2021.1.3,60.00747680691265,
block,objects,objects039.bmp,,,,,0,141,141,141,,,,,,,,,,,,,,,,,,,,,,,,,,,,,,,,,,,,,,,,,,None,,295.06558174965903,None,295.06558174965903,None,2021-11-16-11:31:52.696840,295.0792148001492,295.38073039986193,295.0792148001492,None,None,295.0792148001492,None,295.88119235029444,None,,,,12006,0001,2021_Nov_16_1127,localizer,2021.1.3,60.00747680691265,
block,objects,objects058.bmp,,,,,0,142,142,142,,,,,,,,,,,,,,,,,,,,,,,,,,,,,,,,,,,,,,,,,,None,,295.88119235029444,None,295.88119235029444,None,2021-11-16-11:31:53.510530,295.89087210036814,296.197287700139,295.89087210036814,None,None,295.89087210036814,None,296.7009544498287,None,,,,12006,0001,2021_Nov_16_1127,localizer,2021.1.3,60.00747680691265,
block,objects,objects056.bmp,,,,,0,143,143,143,,,,,,,,,,,,,,,,,,,,,,,,,,,,,,,,,,,,,,,,,,None,,296.7009544498287,None,296.7009544498287,None,2021-11-16-11:31:54.333851,296.71425720024854,297.0141637995839,296.71425720024854,None,None,296.71425720024854,None,297.5143059496768,None,,,,12006,0001,2021_Nov_16_1127,localizer,2021.1.3,60.00747680691265,
block,objects,objects020.bmp,,,,,0,144,144,144,,,,,,,,,,,,,,,,,,,,,,,,,,,,,,,,,,,,,,,,,,None,,297.5143059496768,None,297.5143059496768,None,2021-11-16-11:31:55.143435,297.52427130006254,297.83079420030117,297.52427130006254,None,None,297.52427130006254,None,298.33114584954455,None,,,,12006,0001,2021_Nov_16_1127,localizer,2021.1.3,60.00747680691265,
block,objects,objects012.bmp,,,,,0,145,145,145,,,,,,,,,,,,,,,,,,,,,,,,,,,,,,,,,,,,,,,,,,None,,298.33114584954455,None,298.33114584954455,None,2021-11-16-11:31:55.960470,298.3371443999931,298.64755429979414,298.3371443999931,None,None,298.3371443999931,None,299.15431274985895,None,,,,12006,0001,2021_Nov_16_1127,localizer,2021.1.3,60.00747680691265,
block,objects,objects007.bmp,,,,,0,146,146,146,,,,,,,,,,,,,,,,,,,,,,,,,,,,,,,,,,,,,,,,,,None,,299.15431274985895,None,299.15431274985895,None,2021-11-16-11:31:56.791227,299.17457470018417,299.48091430030763,299.17457470018417,None,None,299.17457470018417,None,299.9645150494762,None,,,,12006,0001,2021_Nov_16_1127,localizer,2021.1.3,60.00747680691265,
block,objects,objects054.bmp,,,,,0,147,147,147,,,,,,,,,,,,,,,,,,,,,,,,,,,,,,,,,,,,,,,,,,None,,299.9645150494762,None,299.9645150494762,None,2021-11-16-11:31:57.593640,299.9651528997347,300.26422659959644,299.9651528997347,None,None,299.9651528997347,None,300.76439274987206,None,,,,12006,0001,2021_Nov_16_1127,localizer,2021.1.3,60.00747680691265,
block,objects,objects052.bmp,,,,,0,148,148,148,,,,,,,,,,,,,,,,,,,,,,,,,,,,,,,,,,,,,,,,,,None,,300.76439274987206,None,300.76439274987206,None,2021-11-16-11:31:58.395515,300.765555200167,301.0808519003913,300.765555200167,300.765555200167,None,300.765555200167,300.765555200167,301.58116785017774,None,,,,12006,0001,2021_Nov_16_1127,localizer,2021.1.3,60.00747680691265,
block,objects,objects001.bmp,,,,,0,149,149,149,,,,,,,,,,,,,,,,,,,,,,,,,,,,,,,,,,,,,,,,,,None,,301.58116785017774,None,301.58116785017774,None,2021-11-16-11:31:59.210505,301.5817593000829,301.88105269987136,301.5817593000829,None,None,301.5817593000829,None,302.3823977499269,None,,,,12006,0001,2021_Nov_16_1127,localizer,2021.1.3,60.00747680691265,
block,objects,objects072.bmp,,,,,0,150,150,150,,,,,,,,,,,,,,,,,,,,,,,,,,,,,,,,,,,,,,,,,,None,,302.3823977499269,None,302.3823977499269,None,2021-11-16-11:32:00.015485,302.3967864997685,302.69774559978396,302.3967864997685,302.3967864997685,None,302.3967864997685,302.3967864997685,303.19825974991545,None,,,,12006,0001,2021_Nov_16_1127,localizer,2021.1.3,60.00747680691265,
block_end,objects,objects069.bmp,,,,,0,151,151,151,,,,,,,,,,,,,,,,,,,,,,,,,,,,,,,,,,,,,,,,,,None,,303.19825974991545,None,303.19825974991545,None,2021-11-16-11:32:00.828576,303.20970920007676,303.51402730029076,303.20970920007676,None,None,303.20970920007676,None,304.01452305028215,None,,,,12006,0001,2021_Nov_16_1127,localizer,2021.1.3,60.00747680691265,
block_start,faces,faces059.bmp,,,,,0,152,152,152,,,,,,,,,,,,,,,,,,,,,,,,,,,,,,,,,,,,,,,,,,t,1.8011015998199582,304.0141594996676,None,304.0141594996676,None,2021-11-16-11:32:03.459096,305.8401308003813,306.1481106998399,305.8401308003813,None,None,305.8401308003813,None,306.64833085006103,None,,,,12006,0001,2021_Nov_16_1127,localizer,2021.1.3,60.00747680691265,
block,faces,faces034.bmp,,,,,0,153,153,153,,,,,,,,,,,,,,,,,,,,,,,,,,,,,,,,,,,,,,,,,,None,,306.64833085006103,None,306.64833085006103,None,2021-11-16-11:32:04.278445,306.64997259993106,306.9645231002942,306.64997259993106,None,None,306.64997259993106,None,307.4647286501713,None,,,,12006,0001,2021_Nov_16_1127,localizer,2021.1.3,60.00747680691265,
block,faces,faces015.bmp,,,,,0,154,154,154,,,,,,,,,,,,,,,,,,,,,,,,,,,,,,,,,,,,,,,,,,None,,307.4647286501713,None,307.4647286501713,None,2021-11-16-11:32:05.094993,307.4655373999849,307.7645539995283,307.4655373999849,None,None,307.4655373999849,None,308.2648032498546,None,,,,12006,0001,2021_Nov_16_1127,localizer,2021.1.3,60.00747680691265,
block,faces,faces082.bmp,,,,,0,155,155,155,,,,,,,,,,,,,,,,,,,,,,,,,,,,,,,,,,,,,,,,,,None,,308.2648032498546,None,308.2648032498546,None,2021-11-16-11:32:05.897127,308.26745919976383,308.5811922997236,308.26745919976383,308.26745919976383,None,308.26745919976383,308.26745919976383,309.08138394961134,None,,,,12006,0001,2021_Nov_16_1127,localizer,2021.1.3,60.00747680691265,
block,faces,faces088.bmp,,,,,0,156,156,156,,,,,,,,,,,,,,,,,,,,,,,,,,,,,,,,,,,,,,,,,,None,,309.08138394961134,None,309.08138394961134,None,2021-11-16-11:32:06.710737,309.0941118001938,309.39731409959495,309.0941118001938,None,None,309.0941118001938,None,309.8977291495539,None,,,,12006,0001,2021_Nov_16_1127,localizer,2021.1.3,60.00747680691265,
block,faces,faces042.bmp,,,,,0,157,157,157,,,,,,,,,,,,,,,,,,,,,,,,,,,,,,,,,,,,,,,,,,None,,309.8977291495539,None,309.8977291495539,None,2021-11-16-11:32:07.526859,309.9072177996859,310.214297699742,309.9072177996859,None,None,309.9072177996859,None,310.7144982502796,None,,,,12006,0001,2021_Nov_16_1127,localizer,2021.1.3,60.00747680691265,
block,faces,faces025.bmp,,,,,0,158,158,158,,,,,,,,,,,,,,,,,,,,,,,,,,,,,,,,,,,,,,,,,,None,,310.7144982502796,None,310.7144982502796,None,2021-11-16-11:32:08.343836,310.7255041003227,311.0310581000522,310.7255041003227,None,None,310.7255041003227,None,311.53143894998357,None,,,,12006,0001,2021_Nov_16_1127,localizer,2021.1.3,60.00747680691265,
block,faces,faces039.bmp,,,,,0,159,159,159,,,,,,,,,,,,,,,,,,,,,,,,,,,,,,,,,,,,,,,,,,None,,311.53143894998357,None,311.53143894998357,None,2021-11-16-11:32:09.161561,311.54314520023763,311.8530008001253,311.54314520023763,None,None,311.54314520023763,None,312.34901715023443,None,,,,12006,0001,2021_Nov_16_1127,localizer,2021.1.3,60.00747680691265,
block,faces,faces084.bmp,,,,,0,160,160,160,,,,,,,,,,,,,,,,,,,,,,,,,,,,,,,,,,,,,,,,,,None,,312.34901715023443,None,312.34901715023443,None,2021-11-16-11:32:09.980109,312.3651646003127,312.6645606998354,312.3651646003127,None,None,312.3651646003127,None,313.16472774976864,None,,,,12006,0001,2021_Nov_16_1127,localizer,2021.1.3,60.00747680691265,
block,faces,faces051.bmp,,,,,0,161,161,161,,,,,,,,,,,,,,,,,,,,,,,,,,,,,,,,,,,,,,,,,,None,,313.16472774976864,None,313.16472774976864,None,2021-11-16-11:32:10.795048,313.17649469990283,313.4809571998194,313.17649469990283,None,None,313.17649469990283,None,313.98197654960677,None,,,,12006,0001,2021_Nov_16_1127,localizer,2021.1.3,60.00747680691265,
block,faces,faces002.bmp,,,,,0,162,162,162,,,,,,,,,,,,,,,,,,,,,,,,,,,,,,,,,,,,,,,,,,None,,313.98197654960677,None,313.98197654960677,None,2021-11-16-11:32:11.612947,313.99841730017215,314.29778360016644,313.99841730017215,None,None,313.99841730017215,None,314.7984719495289,None,,,,12006,0001,2021_Nov_16_1127,localizer,2021.1.3,60.00747680691265,
block,faces,faces049.bmp,,,,,0,163,163,163,,,,,,,,,,,,,,,,,,,,,,,,,,,,,,,,,,,,,,,,,,None,,314.7984719495289,None,314.7984719495289,None,2021-11-16-11:32:12.428725,314.8107855003327,315.1142015000805,314.8107855003327,None,None,314.8107855003327,None,315.6143775503151,None,,,,12006,0001,2021_Nov_16_1127,localizer,2021.1.3,60.00747680691265,
block,faces,faces072.bmp,,,,,0,164,164,164,,,,,,,,,,,,,,,,,,,,,,,,,,,,,,,,,,,,,,,,,,None,,315.6143775503151,None,315.6143775503151,None,2021-11-16-11:32:13.243748,315.62463380023837,315.9306907001883,315.62463380023837,None,None,315.62463380023837,None,316.43211744958535,None,,,,12006,0001,2021_Nov_16_1127,localizer,2021.1.3,60.00747680691265,
block,faces,faces010.bmp,,,,,0,165,165,165,,,,,,,,,,,,,,,,,,,,,,,,,,,,,,,,,,,,,,,,,,None,,316.43211744958535,None,316.43211744958535,None,2021-11-16-11:32:14.063379,316.4351920997724,316.73296829964966,316.4351920997724,None,None,316.4351920997724,None,317.24794784979895,None,,,,12006,0001,2021_Nov_16_1127,localizer,2021.1.3,60.00747680691265,
block_end,faces,faces057.bmp,,,,,0,166,166,166,,,,,,,,,,,,,,,,,,,,,,,,,,,,,,,,,,,,,,,,,,None,,317.24794784979895,None,317.24794784979895,None,2021-11-16-11:32:14.877316,317.2588301002979,317.56463889963925,317.2588301002979,None,None,317.2588301002979,None,318.06462904950604,None,,,,12006,0001,2021_Nov_16_1127,localizer,2021.1.3,60.00747680691265,
null_block,null_block,null_block.bmp,,,,,0,167,167,167,,,,,,,,,,,,,,,,,,,,,,,,,,,,,,,,,,,,,,,,,,t,1.7509697005152702,318.06426780018955,None,318.06426780018955,None,2021-11-16-11:32:17.460215,319.8310865503736,None,319.8310865503736,None,None,319.8310865503736,None,319.8345120996237,None,,,,12006,0001,2021_Nov_16_1127,localizer,2021.1.3,60.00747680691265,
block_start,scrambled,scrambled034.bmp,,,,,0,168,168,168,,,,,,,,,,,,,,,,,,,,,,,,,,,,,,,,,,,,,,,,,,t,1.9776137992739677,331.8377209994942,None,331.8377209994942,None,2021-11-16-11:32:31.461202,333.8419260997325,334.14736040029675,333.8419260997325,None,None,333.8419260997325,None,334.64823945006356,None,,,,12006,0001,2021_Nov_16_1127,localizer,2021.1.3,60.00747680691265,
block,scrambled,scrambled018.bmp,,,,,0,169,169,169,,,,,,,,,,,,,,,,,,,,,,,,,,,,,,,,,,,,,,,,,,None,,334.64823945006356,None,334.64823945006356,None,2021-11-16-11:32:32.277539,334.6590122003108,334.96424939949065,334.6590122003108,None,None,334.6590122003108,None,335.46453294949606,None,,,,12006,0001,2021_Nov_16_1127,localizer,2021.1.3,60.00747680691265,
block,scrambled,scrambled068.bmp,,,,,0,170,170,170,,,,,,,,,,,,,,,,,,,,,,,,,,,,,,,,,,,,,,,,,,None,,335.46453294949606,None,335.46453294949606,None,2021-11-16-11:32:33.094396,335.46507889963686,335.7644202001393,335.46507889963686,None,None,335.46507889963686,None,336.26475334959105,None,,,,12006,0001,2021_Nov_16_1127,localizer,2021.1.3,60.00747680691265,
block,scrambled,scrambled012.bmp,,,,,0,171,171,171,,,,,,,,,,,,,,,,,,,,,,,,,,,,,,,,,,,,,,,,,,None,,336.26475334959105,None,336.26475334959105,None,2021-11-16-11:32:33.897061,336.26742460019886,336.5810233997181,336.26742460019886,336.26742460019886,None,336.26742460019886,336.26742460019886,337.0813782499172,None,,,,12006,0001,2021_Nov_16_1127,localizer,2021.1.3,60.00747680691265,
block,scrambled,scrambled023.bmp,,,,,0,172,172,172,,,,,,,,,,,,,,,,,,,,,,,,,,,,,,,,,,,,,,,,,,None,,337.0813782499172,None,337.0813782499172,None,2021-11-16-11:32:34.710503,337.0918389996514,337.39773659966886,337.0918389996514,None,None,337.0918389996514,None,337.8988058497198,None,,,,12006,0001,2021_Nov_16_1127,localizer,2021.1.3,60.00747680691265,
block,scrambled,scrambled086.bmp,,,,,0,173,173,173,,,,,,,,,,,,,,,,,,,,,,,,,,,,,,,,,,,,,,,,,,None,,337.8988058497198,None,337.8988058497198,None,2021-11-16-11:32:35.528981,337.9100224999711,338.214282900095,337.9100224999711,None,None,337.9100224999711,None,338.71499995002523,None,,,,12006,0001,2021_Nov_16_1127,localizer,2021.1.3,60.00747680691265,
block,scrambled,scrambled008.bmp,,,,,0,174,174,174,,,,,,,,,,,,,,,,,,,,,,,,,,,,,,,,,,,,,,,,,,None,,338.71499995002523,None,338.71499995002523,None,2021-11-16-11:32:36.344122,338.7254894999787,339.0307961003855,338.7254894999787,None,None,338.7254894999787,None,339.5308561497368,None,,,,12006,0001,2021_Nov_16_1127,localizer,2021.1.3,60.00747680691265,
block,scrambled,scrambled031.bmp,,,,,0,175,175,175,,,,,,,,,,,,,,,,,,,,,,,,,,,,,,,,,,,,,,,,,,None,,339.5308561497368,None,339.5308561497368,None,2021-11-16-11:32:37.159275,339.5358293997124,339.8475467003882,339.5358293997124,None,None,339.5358293997124,None,340.3479789500125,None,,,,12006,0001,2021_Nov_16_1127,localizer,2021.1.3,60.00747680691265,
block,scrambled,scrambled063.bmp,,,,,0,176,176,176,,,,,,,,,,,,,,,,,,,,,,,,,,,,,,,,,,,,,,,,,,None,,340.3479789500125,None,340.3479789500125,None,2021-11-16-11:32:37.977113,340.3485714001581,340.648376500234,340.3485714001581,None,None,340.3485714001581,None,341.14780814992264,None,,,,12006,0001,2021_Nov_16_1127,localizer,2021.1.3,60.00747680691265,
block,scrambled,scrambled032.bmp,,,,,0,177,177,177,,,,,,,,,,,,,,,,,,,,,,,,,,,,,,,,,,,,,,,,,,None,,341.14780814992264,None,341.14780814992264,None,2021-11-16-11:32:38.778664,341.1587944002822,341.4657731000334,341.1587944002822,341.1587944002822,None,341.1587944002822,341.1587944002822,341.96518974984065,None,,,,12006,0001,2021_Nov_16_1127,localizer,2021.1.3,60.00747680691265,
block,scrambled,scrambled027.bmp,,,,,0,178,178,178,,,,,,,,,,,,,,,,,,,,,,,,,,,,,,,,,,,,,,,,,,None,,341.96518974984065,None,341.96518974984065,None,2021-11-16-11:32:39.595306,341.9767877003178,342.28125869948417,341.9767877003178,None,None,341.9767877003178,None,342.78147445013747,None,,,,12006,0001,2021_Nov_16_1127,localizer,2021.1.3,60.00747680691265,
block,scrambled,scrambled041.bmp,,,,,0,179,179,179,,,,,,,,,,,,,,,,,,,,,,,,,,,,,,,,,,,,,,,,,,None,,342.78147445013747,None,342.78147445013747,None,2021-11-16-11:32:40.410798,342.7911887001246,343.0978710995987,342.7911887001246,None,None,342.7911887001246,None,343.59822365036234,None,,,,12006,0001,2021_Nov_16_1127,localizer,2021.1.3,60.00747680691265,
block,scrambled,scrambled007.bmp,,,,,0,180,180,180,,,,,,,,,,,,,,,,,,,,,,,,,,,,,,,,,,,,,,,,,,None,,343.59822365036234,None,343.59822365036234,None,2021-11-16-11:32:41.227578,343.59860789962113,343.8978257998824,343.59860789962113,None,None,343.59860789962113,None,344.3979071495123,None,,,,12006,0001,2021_Nov_16_1127,localizer,2021.1.3,60.00747680691265,
block,scrambled,scrambled042.bmp,,,,,0,181,181,181,,,,,,,,,,,,,,,,,,,,,,,,,,,,,,,,,,,,,,,,,,None,,344.3979071495123,None,344.3979071495123,None,2021-11-16-11:32:42.029029,344.40980620030314,344.7146030003205,344.40980620030314,344.40980620030314,None,344.40980620030314,344.40980620030314,345.2148819495924,None,,,,12006,0001,2021_Nov_16_1127,localizer,2021.1.3,60.00747680691265,
block_end,scrambled,scrambled051.bmp,,,,,0,182,182,182,,,,,,,,,,,,,,,,,,,,,,,,,,,,,,,,,,,,,,,,,,None,,345.2148819495924,None,345.2148819495924,None,2021-11-16-11:32:42.844006,345.22567090019584,345.5310439998284,345.22567090019584,None,None,345.22567090019584,None,346.0309515497647,None,,,,12006,0001,2021_Nov_16_1127,localizer,2021.1.3,60.00747680691265,
null_block,null_block,null_block.bmp,,,,,0,183,183,183,,,,,,,,,,,,,,,,,,,,,,,,,,,,,,,,,,,,,,,,,,t,1.7844995995983481,346.0306778997183,None,346.0306778997183,None,2021-11-16-11:32:45.460488,347.83136055013165,None,347.83136055013165,None,None,347.83136055013165,None,347.8350023003295,None,,,,12006,0001,2021_Nov_16_1127,localizer,2021.1.3,60.00747680691265,
block_start,objects,objects024.bmp,,,,,0,184,184,184,,,,,,,,,,,,,,,,,,,,,,,,,,,,,,,,,,,,,,,,,,t,1.9666526997461915,359.84874709974974,None,359.84874709974974,None,2021-11-16-11:32:59.463018,361.833409300074,362.14778629969805,361.833409300074,None,None,361.833409300074,None,362.6486839498393,None,,,,12006,0001,2021_Nov_16_1127,localizer,2021.1.3,60.00747680691265,
block,objects,objects015.bmp,,,,,0,185,185,185,,,,,,,,,,,,,,,,,,,,,,,,,,,,,,,,,,,,,,,,,,None,,362.6486839498393,None,362.6486839498393,None,2021-11-16-11:33:00.278800,362.65755360014737,362.9647559002042,362.65755360014737,None,None,362.65755360014737,None,363.46527964947745,None,,,,12006,0001,2021_Nov_16_1127,localizer,2021.1.3,60.00747680691265,
block,objects,objects011.bmp,,,,,0,186,186,186,,,,,,,,,,,,,,,,,,,,,,,,,,,,,,,,,,,,,,,,,,None,,363.46527964947745,None,363.46527964947745,None,2021-11-16-11:33:01.095578,363.4657103996724,363.76481799967587,363.4657103996724,None,None,363.4657103996724,None,364.2653510500677,None,,,,12006,0001,2021_Nov_16_1127,localizer,2021.1.3,60.00747680691265,
block,objects,objects046.bmp,,,,,0,187,187,187,,,,,,,,,,,,,,,,,,,,,,,,,,,,,,,,,,,,,,,,,,None,,364.2653510500677,None,364.2653510500677,None,2021-11-16-11:33:01.897462,364.26815299969167,364.58160110004246,364.26815299969167,364.26815299969167,None,364.26815299969167,364.26815299969167,365.0817702501081,None,,,,12006,0001,2021_Nov_16_1127,localizer,2021.1.3,60.00747680691265,
block,objects,objects056.bmp,,,,,0,188,188,188,,,,,,,,,,,,,,,,,,,,,,,,,,,,,,,,,,,,,,,,,,None,,365.0817702501081,None,365.0817702501081,None,2021-11-16-11:33:02.710874,365.0821436000988,365.3815329996869,365.0821436000988,None,None,365.0821436000988,None,365.8812397499569,None,,,,12006,0001,2021_Nov_16_1127,localizer,2021.1.3,60.00747680691265,
block,objects,objects029.bmp,,,,,0,189,189,189,,,,,,,,,,,,,,,,,,,,,,,,,,,,,,,,,,,,,,,,,,None,,365.8812397499569,None,365.8812397499569,None,2021-11-16-11:33:03.512384,365.893153199926,366.19828370027244,365.893153199926,365.893153199926,None,365.893153199926,365.893153199926,366.6982444501482,None,,,,12006,0001,2021_Nov_16_1127,localizer,2021.1.3,60.00747680691265,
block,objects,objects080.bmp,,,,,0,190,190,190,,,,,,,,,,,,,,,,,,,,,,,,,,,,,,,,,,,,,,,,,,None,,366.6982444501482,None,366.6982444501482,None,2021-11-16-11:33:04.328552,366.7090523997322,367.0141378995031,366.7090523997322,None,None,366.7090523997322,None,367.5151374503039,None,,,,12006,0001,2021_Nov_16_1127,localizer,2021.1.3,60.00747680691265,
block,objects,objects043.bmp,,,,,0,191,191,191,,,,,,,,,,,,,,,,,,,,,,,,,,,,,,,,,,,,,,,,,,None,,367.5151374503039,None,367.5151374503039,None,2021-11-16-11:33:05.145443,367.5256505003199,367.83139589987695,367.5256505003199,None,None,367.5256505003199,None,368.33084534993395,None,,,,12006,0001,2021_Nov_16_1127,localizer,2021.1.3,60.00747680691265,
block,objects,objects081.bmp,,,,,0,192,192,192,,,,,,,,,,,,,,,,,,,,,,,,,,,,,,,,,,,,,,,,,,None,,368.33084534993395,None,368.33084534993395,None,2021-11-16-11:33:05.958983,368.3321920996532,368.6311576999724,368.3321920996532,None,None,368.3321920996532,None,369.1316999499686,None,,,,12006,0001,2021_Nov_16_1127,localizer,2021.1.3,60.00747680691265,
block,objects,objects049.bmp,,,,,0,193,193,193,,,,,,,,,,,,,,,,,,,,,,,,,,,,,,,,,,,,,,,,,,None,,369.1316999499686,None,369.1316999499686,None,2021-11-16-11:33:06.763833,369.1452190000564,369.4482044996694,369.1452190000564,369.1452190000564,None,369.1452190000564,369.1452190000564,369.948044649791,None,,,,12006,0001,2021_Nov_16_1127,localizer,2021.1.3,60.00747680691265,
block,objects,objects088.bmp,,,,,0,194,194,194,,,,,,,,,,,,,,,,,,,,,,,,,,,,,,,,,,,,,,,,,,None,,369.948044649791,None,369.948044649791,None,2021-11-16-11:33:07.577176,369.9572419002652,370.2705207001418,369.9572419002652,None,None,369.9572419002652,None,370.7659236495383,None,,,,12006,0001,2021_Nov_16_1127,localizer,2021.1.3,60.00747680691265,
block,objects,objects077.bmp,,,,,0,195,195,195,,,,,,,,,,,,,,,,,,,,,,,,,,,,,,,,,,,,,,,,,,None,,370.7659236495383,None,370.7659236495383,None,2021-11-16-11:33:08.397028,370.7778284000233,371.081208399497,370.7778284000233,None,None,370.7778284000233,None,371.5813366496004,None,,,,12006,0001,2021_Nov_16_1127,localizer,2021.1.3,60.00747680691265,
block,objects,objects033.bmp,,,,,0,196,196,196,,,,,,,,,,,,,,,,,,,,,,,,,,,,,,,,,,,,,,,,,,None,,371.5813366496004,None,371.5813366496004,None,2021-11-16-11:33:09.210539,371.58204280026257,371.88248229958117,371.58204280026257,None,None,371.58204280026257,None,372.38122134981677,None,,,,12006,0001,2021_Nov_16_1127,localizer,2021.1.3,60.00747680691265,
block,objects,objects082.bmp,,,,,0,197,197,197,,,,,,,,,,,,,,,,,,,,,,,,,,,,,,,,,,,,,,,,,,None,,372.38122134981677,None,372.38122134981677,None,2021-11-16-11:33:10.011353,372.3820466995239,372.68194669950753,372.3820466995239,372.3820466995239,None,372.3820466995239,372.3820466995239,373.1810839497484,None,,,,12006,0001,2021_Nov_16_1127,localizer,2021.1.3,60.00747680691265,
block_end,objects,objects018.bmp,,,,,0,198,198,198,,,,,,,,,,,,,,,,,,,,,,,,,,,,,,,,,,,,,,,,,,None,,373.1810839497484,None,373.1810839497484,None,2021-11-16-11:33:10.811467,373.18676690012217,373.4983711997047,373.18676690012217,373.18676690012217,None,373.18676690012217,373.18676690012217,373.9986910498701,None,,,,12006,0001,2021_Nov_16_1127,localizer,2021.1.3,60.00747680691265,
block_start,scenes,scenes032.bmp,,,,,0,199,199,199,,,,,,,,,,,,,,,,,,,,,,,,,,,,,,,,,,,,,,,,,,t,1.8168727001175284,373.9984437003732,None,373.9984437003732,None,2021-11-16-11:33:13.460881,375.8324034996331,376.1316649001092,375.8324034996331,None,None,375.8324034996331,None,376.6320380498655,None,,,,12006,0001,2021_Nov_16_1127,localizer,2021.1.3,60.00747680691265,
block,scenes,scenes050.bmp,,,,,0,200,200,200,,,,,,,,,,,,,,,,,,,,,,,,,,,,,,,,,,,,,,,,,,None,,376.6320380498655,None,376.6320380498655,None,2021-11-16-11:33:14.264343,376.63514109980315,376.94769289996475,376.63514109980315,376.63514109980315,None,376.63514109980315,376.63514109980315,377.44856145000085,None,,,,12006,0001,2021_Nov_16_1127,localizer,2021.1.3,60.00747680691265,
block,scenes,scenes005.bmp,,,,,0,201,201,201,,,,,,,,,,,,,,,,,,,,,,,,,,,,,,,,,,,,,,,,,,None,,377.44856145000085,None,377.44856145000085,None,2021-11-16-11:33:15.078889,377.45043750014156,377.76497370004654,377.45043750014156,None,None,377.45043750014156,None,378.2649686499499,None,,,,12006,0001,2021_Nov_16_1127,localizer,2021.1.3,60.00747680691265,
block,scenes,scenes033.bmp,,,,,0,202,202,202,,,,,,,,,,,,,,,,,,,,,,,,,,,,,,,,,,,,,,,,,,None,,378.2649686499499,None,378.2649686499499,None,2021-11-16-11:33:15.894314,378.27472969982773,378.58128140028566,378.27472969982773,None,None,378.27472969982773,None,379.0814456497319,None,,,,12006,0001,2021_Nov_16_1127,localizer,2021.1.3,60.00747680691265,
block,scenes,scenes042.bmp,,,,,0,203,203,203,,,,,,,,,,,,,,,,,,,,,,,,,,,,,,,,,,,,,,,,,,None,,379.0814456497319,None,379.0814456497319,None,2021-11-16-11:33:16.710576,379.082063799724,379.38121640030295,379.082063799724,None,None,379.082063799724,None,379.8815310499631,None,,,,12006,0001,2021_Nov_16_1127,localizer,2021.1.3,60.00747680691265,
block,scenes,scenes027.bmp,,,,,0,204,204,204,,,,,,,,,,,,,,,,,,,,,,,,,,,,,,,,,,,,,,,,,,None,,379.8815310499631,None,379.8815310499631,None,2021-11-16-11:33:17.512677,379.88431200012565,380.1980258002877,379.88431200012565,379.88431200012565,None,379.88431200012565,379.88431200012565,380.6979770497419,None,,,,12006,0001,2021_Nov_16_1127,localizer,2021.1.3,60.00747680691265,
block,scenes,scenes007.bmp,,,,,0,205,205,205,,,,,,,,,,,,,,,,,,,,,,,,,,,,,,,,,,,,,,,,,,None,,380.6979770497419,None,380.6979770497419,None,2021-11-16-11:33:18.326912,380.70938239991665,381.0147759001702,380.70938239991665,None,None,380.70938239991665,None,381.5153669496067,None,,,,12006,0001,2021_Nov_16_1127,localizer,2021.1.3,60.00747680691265,
block,scenes,scenes002.bmp,,,,,0,206,206,206,,,,,,,,,,,,,,,,,,,,,,,,,,,,,,,,,,,,,,,,,,None,,381.5153669496067,None,381.5153669496067,None,2021-11-16-11:33:19.146083,381.5276560001075,381.8312723003328,381.5276560001075,None,None,381.5276560001075,None,382.3321468499489,None,,,,12006,0001,2021_Nov_16_1127,localizer,2021.1.3,60.00747680691265,
block,scenes,scenes044.bmp,,,,,0,207,207,207,,,,,,,,,,,,,,,,,,,,,,,,,,,,,,,,,,,,,,,,,,None,,382.3321468499489,None,382.3321468499489,None,2021-11-16-11:33:19.962253,382.33243300020695,382.631593500264,382.33243300020695,None,None,382.33243300020695,None,383.13171604974195,None,,,,12006,0001,2021_Nov_16_1127,localizer,2021.1.3,60.00747680691265,
block,scenes,scenes091.bmp,,,,,0,208,208,208,,,,,,,,,,,,,,,,,,,,,,,,,,,,,,,,,,,,,,,,,,None,,383.13171604974195,None,383.13171604974195,None,2021-11-16-11:33:20.764035,383.144498700276,383.4487081002444,383.144498700276,383.144498700276,None,383.144498700276,383.144498700276,383.9487384497188,None,,,,12006,0001,2021_Nov_16_1127,localizer,2021.1.3,60.00747680691265,
block,scenes,scenes049.bmp,,,,,0,209,209,209,,,,,,,,,,,,,,,,,,,,,,,,,,,,,,,,,,,,,,,,,,None,,383.9487384497188,None,383.9487384497188,None,2021-11-16-11:33:21.579045,383.9512660000473,384.26459020003676,383.9512660000473,None,None,383.9512660000473,None,384.76462495001033,None,,,,12006,0001,2021_Nov_16_1127,localizer,2021.1.3,60.00747680691265,
block,scenes,scenes049.bmp,,,,,0,210,210,210,,,,,,,,,,,,,,,,,,,,,,,,,,,,,,,,,,,,,,,,,,None,,384.76462495001033,None,384.76462495001033,None,2021-11-16-11:33:22.393984,384.7655247999355,385.0651291999966,384.7655247999355,None,y,384.7655247999355,None,385.56601304979995,None,0.6963432002812624,,,12006,0001,2021_Nov_16_1127,localizer,2021.1.3,60.00747680691265,
block,scenes,scenes064.bmp,,,,,0,211,211,211,,,,,,,,,,,,,,,,,,,,,,,,,,,,,,,,,,,,,,,,,,None,,385.56601304979995,None,385.56601304979995,None,2021-11-16-11:33:23.199682,385.5705840000883,385.88133169990033,385.5705840000883,385.5705840000883,None,385.5705840000883,385.5705840000883,386.38138805003837,None,,,,12006,0001,2021_Nov_16_1127,localizer,2021.1.3,60.00747680691265,
block,scenes,scenes054.bmp,,,,,0,212,212,212,,,,,,,,,,,,,,,,,,,,,,,,,,,,,,,,,,,,,,,,,,None,,386.38138805003837,None,386.38138805003837,None,2021-11-16-11:33:24.010518,386.3823951995,386.6812771996483,386.3823951995,None,None,386.3823951995,None,387.18146634986624,None,,,,12006,0001,2021_Nov_16_1127,localizer,2021.1.3,60.00747680691265,
block_end,scenes,scenes073.bmp,,,,,0,213,213,213,,,,,,,,,,,,,,,,,,,,,,,,,,,,,,,,,,,,,,,,,,None,,387.18146634986624,None,387.18146634986624,None,2021-11-16-11:33:24.811594,387.1943049998954,387.49831659998745,387.1943049998954,387.1943049998954,None,387.1943049998954,387.1943049998954,387.9985183500685,None,,,,12006,0001,2021_Nov_16_1127,localizer,2021.1.3,60.00747680691265,
block_start,scrambled,scrambled066.bmp,,,,,0,214,214,214,,,,,,,,,,,,,,,,,,,,,,,,,,,,,,,,,,,,,,,,,,t,1.8170886998996139,387.99820510018617,None,387.99820510018617,None,2021-11-16-11:33:27.459972,389.8327607996762,390.1482186000794,389.8327607996762,None,None,389.8327607996762,None,390.64819804998115,None,,,,12006,0001,2021_Nov_16_1127,localizer,2021.1.3,60.00747680691265,
block,scrambled,scrambled053.bmp,,,,,0,215,215,215,,,,,,,,,,,,,,,,,,,,,,,,,,,,,,,,,,,,,,,,,,None,,390.64819804998115,None,390.64819804998115,None,2021-11-16-11:33:28.277328,390.6574400998652,390.96457600034773,390.6574400998652,None,None,390.6574400998652,None,391.4648318500258,None,,,,12006,0001,2021_Nov_16_1127,localizer,2021.1.3,60.00747680691265,
block,scrambled,scrambled055.bmp,,,,,0,216,216,216,,,,,,,,,,,,,,,,,,,,,,,,,,,,,,,,,,,,,,,,,,None,,391.4648318500258,None,391.4648318500258,None,2021-11-16-11:33:29.094168,391.4758195998147,391.7880947003141,391.4758195998147,None,None,391.4758195998147,None,392.2826259494759,None,,,,12006,0001,2021_Nov_16_1127,localizer,2021.1.3,60.00747680691265,
block,scrambled,scrambled038.bmp,,,,,0,217,217,217,,,,,,,,,,,,,,,,,,,,,,,,,,,,,,,,,,,,,,,,,,None,,392.2826259494759,None,392.2826259494759,None,2021-11-16-11:33:29.913835,392.2848068997264,392.59847010020167,392.2848068997264,None,None,392.2848068997264,None,393.0985766495578,None,,,,12006,0001,2021_Nov_16_1127,localizer,2021.1.3,60.00747680691265,
block,scrambled,scrambled014.bmp,,,,,0,218,218,218,,,,,,,,,,,,,,,,,,,,,,,,,,,,,,,,,,,,,,,,,,None,,393.0985766495578,None,393.0985766495578,None,2021-11-16-11:33:30.728898,393.09903830010444,393.3983710994944,393.09903830010444,None,None,393.09903830010444,None,393.8980941497721,None,,,,12006,0001,2021_Nov_16_1127,localizer,2021.1.3,60.00747680691265,
block,scrambled,scrambled071.bmp,,,,,0,219,219,219,,,,,,,,,,,,,,,,,,,,,,,,,,,,,,,,,,,,,,,,,,None,,393.8980941497721,None,393.8980941497721,None,2021-11-16-11:33:31.528221,393.9080732995644,394.2149289995432,393.9080732995644,393.9080732995644,None,393.9080732995644,393.9080732995644,394.7148794499226,None,,,,12006,0001,2021_Nov_16_1127,localizer,2021.1.3,60.00747680691265,
block,scrambled,scrambled013.bmp,,,,,0,220,220,220,,,,,,,,,,,,,,,,,,,,,,,,,,,,,,,,,,,,,,,,,,None,,394.7148794499226,None,394.7148794499226,None,2021-11-16-11:33:32.344009,394.72455369960517,395.0313558001071,394.72455369960517,None,None,394.72455369960517,None,395.53275265032426,None,,,,12006,0001,2021_Nov_16_1127,localizer,2021.1.3,60.00747680691265,
block,scrambled,scrambled061.bmp,,,,,0,221,221,221,,,,,,,,,,,,,,,,,,,,,,,,,,,,,,,,,,,,,,,,,,None,,395.53275265032426,None,395.53275265032426,None,2021-11-16-11:33:33.165749,395.54781789984554,395.8478560000658,395.54781789984554,None,None,395.54781789984554,None,396.34938705014065,None,,,,12006,0001,2021_Nov_16_1127,localizer,2021.1.3,60.00747680691265,
block,scrambled,scrambled036.bmp,,,,,0,222,222,222,,,,,,,,,,,,,,,,,,,,,,,,,,,,,,,,,,,,,,,,,,None,,396.34938705014065,None,396.34938705014065,None,2021-11-16-11:33:33.981498,396.3524062000215,396.6652993001044,396.3524062000215,None,None,396.3524062000215,None,397.16560564981773,None,,,,12006,0001,2021_Nov_16_1127,localizer,2021.1.3,60.00747680691265,
block,scrambled,scrambled056.bmp,,,,,0,223,223,223,,,,,,,,,,,,,,,,,,,,,,,,,,,,,,,,,,,,,,,,,,None,,397.16560564981773,None,397.16560564981773,None,2021-11-16-11:33:34.795720,397.17703809961677,397.48155920021236,397.17703809961677,None,None,397.17703809961677,None,397.9818177497946,None,,,,12006,0001,2021_Nov_16_1127,localizer,2021.1.3,60.00747680691265,
block,scrambled,scrambled022.bmp,,,,,0,224,224,224,,,,,,,,,,,,,,,,,,,,,,,,,,,,,,,,,,,,,,,,,,None,,397.9818177497946,None,397.9818177497946,None,2021-11-16-11:33:35.611920,397.99260639958084,398.29809749964625,397.99260639958084,None,None,397.99260639958084,None,398.7983485502191,None,,,,12006,0001,2021_Nov_16_1127,localizer,2021.1.3,60.00747680691265,
block,scrambled,scrambled041.bmp,,,,,0,225,225,225,,,,,,,,,,,,,,,,,,,,,,,,,,,,,,,,,,,,,,,,,,None,,398.7983485502191,None,398.7983485502191,None,2021-11-16-11:33:36.427497,398.79886220023036,399.0980765996501,398.79886220023036,None,None,398.79886220023036,None,399.59816614957526,None,,,,12006,0001,2021_Nov_16_1127,localizer,2021.1.3,60.00747680691265,
block,scrambled,scrambled054.bmp,,,,,0,226,226,226,,,,,,,,,,,,,,,,,,,,,,,,,,,,,,,,,,,,,,,,,,None,,399.59816614957526,None,399.59816614957526,None,2021-11-16-11:33:37.229290,399.59925850015134,399.9184761000797,399.59925850015134,399.59925850015134,None,399.59925850015134,399.59925850015134,400.39947264967486,None,,,,12006,0001,2021_Nov_16_1127,localizer,2021.1.3,60.00747680691265,
block,scrambled,scrambled015.bmp,,,,,0,227,227,227,,,,,,,,,,,,,,,,,,,,,,,,,,,,,,,,,,,,,,,,,,None,,400.39947264967486,None,400.39947264967486,None,2021-11-16-11:33:38.034182,400.40348649956286,400.71481260005385,400.40348649956286,400.40348649956286,None,400.40348649956286,400.40348649956286,401.2148410496302,None,,,,12006,0001,2021_Nov_16_1127,localizer,2021.1.3,60.00747680691265,
block_end,scrambled,scrambled043.bmp,,,,,0,228,228,228,,,,,,,,,,,,,,,,,,,,,,,,,,,,,,,,,,,,,,,,,,None,,401.2148410496302,None,401.2148410496302,None,2021-11-16-11:33:38.843970,401.2247214000672,401.5312403002754,401.2247214000672,None,None,401.2247214000672,None,402.0327880498953,None,,,,12006,0001,2021_Nov_16_1127,localizer,2021.1.3,60.00747680691265,
block_start,faces,faces081.bmp,,,,,0,229,229,229,,,,,,,,,,,,,,,,,,,,,,,,,,,,,,,,,,,,,,,,,,t,1.7839809004217386,402.0310653997585,None,402.0310653997585,None,2021-11-16-11:33:41.459605,403.841962300241,404.148455100134,403.841962300241,None,None,403.841962300241,None,404.64909024955705,None,,,,12006,0001,2021_Nov_16_1127,localizer,2021.1.3,60.00747680691265,
block,faces,faces027.bmp,,,,,0,230,230,230,,,,,,,,,,,,,,,,,,,,,,,,,,,,,,,,,,,,,,,,,,None,,404.64909024955705,None,404.64909024955705,None,2021-11-16-11:33:42.279393,404.6622949000448,404.9651124002412,404.6622949000448,None,None,404.6622949000448,None,405.46515474980697,None,,,,12006,0001,2021_Nov_16_1127,localizer,2021.1.3,60.00747680691265,
block,faces,faces041.bmp,,,,,0,231,231,231,,,,,,,,,,,,,,,,,,,,,,,,,,,,,,,,,,,,,,,,,,None,,405.46515474980697,None,405.46515474980697,None,2021-11-16-11:33:43.094483,405.4657698003575,405.76472099963576,405.4657698003575,None,None,405.4657698003575,None,406.26504004979506,None,,,,12006,0001,2021_Nov_16_1127,localizer,2021.1.3,60.00747680691265,
block,faces,faces039.bmp,,,,,0,232,232,232,,,,,,,,,,,,,,,,,,,,,,,,,,,,,,,,,,,,,,,,,,None,,406.26504004979506,None,406.26504004979506,None,2021-11-16-11:33:43.896162,406.2677629003301,406.58159609977156,406.2677629003301,406.2677629003301,None,406.2677629003301,406.2677629003301,407.08125975029543,None,,,,12006,0001,2021_Nov_16_1127,localizer,2021.1.3,60.00747680691265,
block,faces,faces082.bmp,,,,,0,233,233,233,,,,,,,,,,,,,,,,,,,,,,,,,,,,,,,,,,,,,,,,,,None,,407.08125975029543,None,407.08125975029543,None,2021-11-16-11:33:44.710390,407.08233310002834,407.3813357995823,407.08233310002834,None,None,407.08233310002834,None,407.88349704956636,None,,,,12006,0001,2021_Nov_16_1127,localizer,2021.1.3,60.00747680691265,
block,faces,faces084.bmp,,,,,0,234,234,234,,,,,,,,,,,,,,,,,,,,,,,,,,,,,,,,,,,,,,,,,,None,,407.88349704956636,None,407.88349704956636,None,2021-11-16-11:33:45.516637,407.89202309958637,408.1981197996065,407.89202309958637,407.89202309958637,None,407.89202309958637,407.89202309958637,408.6980237499811,None,,,,12006,0001,2021_Nov_16_1127,localizer,2021.1.3,60.00747680691265,
block,faces,faces026.bmp,,,,,0,235,235,235,,,,,,,,,,,,,,,,,,,,,,,,,,,,,,,,,,,,,,,,,,None,,408.6980237499811,None,408.6980237499811,None,2021-11-16-11:33:46.327155,408.733445700258,409.04799669981,408.733445700258,None,None,408.733445700258,None,409.51627945015207,None,,,,12006,0001,2021_Nov_16_1127,localizer,2021.1.3,60.00747680691265,
block,faces,faces064.bmp,,,,,0,236,236,236,,,,,,,,,,,,,,,,,,,,,,,,,,,,,,,,,,,,,,,,,,None,,409.51627945015207,None,409.51627945015207,None,2021-11-16-11:33:47.147386,409.53081519994885,409.83140629995614,409.53081519994885,None,None,409.53081519994885,None,410.331613549497,None,,,,12006,0001,2021_Nov_16_1127,localizer,2021.1.3,60.00747680691265,
block,faces,faces008.bmp,,,,,0,237,237,237,,,,,,,,,,,,,,,,,,,,,,,,,,,,,,,,,,,,,,,,,,None,,410.331613549497,None,410.331613549497,None,2021-11-16-11:33:47.960741,410.34269590023905,410.6477838996798,410.34269590023905,None,None,410.34269590023905,None,411.1482725501992,None,,,,12006,0001,2021_Nov_16_1127,localizer,2021.1.3,60.00747680691265,
block,faces,faces061.bmp,,,,,0,238,238,238,,,,,,,,,,,,,,,,,,,,,,,,,,,,,,,,,,,,,,,,,,None,,411.1482725501992,None,411.1482725501992,None,2021-11-16-11:33:48.777348,411.1488410998136,411.4481213996187,411.1488410998136,None,None,411.1488410998136,None,411.9490054496564,None,,,,12006,0001,2021_Nov_16_1127,localizer,2021.1.3,60.00747680691265,
block,faces,faces005.bmp,,,,,0,239,239,239,,,,,,,,,,,,,,,,,,,,,,,,,,,,,,,,,,,,,,,,,,None,,411.9490054496564,None,411.9490054496564,None,2021-11-16-11:33:49.581301,411.9520097002387,412.265476600267,411.9520097002387,411.9520097002387,None,411.9520097002387,411.9520097002387,412.7655859501101,None,,,,12006,0001,2021_Nov_16_1127,localizer,2021.1.3,60.00747680691265,
block,faces,faces016.bmp,,,,,0,240,240,240,,,,,,,,,,,,,,,,,,,,,,,,,,,,,,,,,,,,,,,,,,None,,412.7655859501101,None,412.7655859501101,None,2021-11-16-11:33:50.395879,412.7660048995167,413.0813709003851,412.7660048995167,None,None,412.7660048995167,None,413.56518864957616,None,,,,12006,0001,2021_Nov_16_1127,localizer,2021.1.3,60.00747680691265,
block,faces,faces002.bmp,,,,,0,241,241,241,,,,,,,,,,,,,,,,,,,,,,,,,,,,,,,,,,,,,,,,,,None,,413.56518864957616,None,413.56518864957616,None,2021-11-16-11:33:51.196350,413.56802199967206,413.88132330030203,413.56802199967206,413.56802199967206,None,413.56802199967206,413.56802199967206,414.3816664502956,None,,,,12006,0001,2021_Nov_16_1127,localizer,2021.1.3,60.00747680691265,
block,faces,faces067.bmp,,,,,0,242,242,242,,,,,,,,,,,,,,,,,,,,,,,,,,,,,,,,,,,,,,,,,,None,,414.3816664502956,None,414.3816664502956,None,2021-11-16-11:33:52.010767,414.3927148003131,414.69838409963995,414.3927148003131,None,None,414.3927148003131,None,415.1992009500973,None,,,,12006,0001,2021_Nov_16_1127,localizer,2021.1.3,60.00747680691265,
block_end,faces,faces017.bmp,,,,,0,243,243,243,,,,,,,,,,,,,,,,,,,,,,,,,,,,,,,,,,,,,,,,,,None,,415.1992009500973,None,415.1992009500973,None,2021-11-16-11:33:52.834327,415.2184833995998,415.53137429989874,415.2184833995998,None,None,415.2184833995998,None,416.01497934991494,None,,,,12006,0001,2021_Nov_16_1127,localizer,2021.1.3,60.00747680691265,
,,,,,,,,,,,,,,,,,,,,,,,,,,,,,,,,,,,,,,,,,,,,,,,,,,,,,,,,,,,,,,,,,,,,,416.02090159989893,None,,,,,,,
