block_type,condition,img_name,Button.thisRepN,Button.thisTrialN,Button.thisN,Button.thisIndex,trials.thisRepN,trials.thisTrialN,trials.thisN,trials.thisIndex,Ready_experimenter_text.started,Ready_experimenter_text.stopped,Ready_experimenter_resp.keys,Ready_experimenter_resp.rt,Ready_experimenter_resp.started,Ready_experimenter_resp.stopped,Alignment_background.started,Alignment_background.stopped,Alignment_image.started,Alignment_image.stopped,Alignment_resp.keys,Alignment_resp.rt,Alignment_resp.started,Alignment_resp.stopped,Button_text.started,Button_text.stopped,Index_text.started,Index_text.stopped,Index_resp.keys,Index_resp.rt,Index_resp.started,Index_resp.stopped,Middle_text.started,Middle_text.stopped,Middle_resp.keys,Middle_resp.rt,Middle_resp.started,Middle_resp.stopped,Repeat_text.started,Repeat_text.stopped,Repeat_resp.keys,Repeat_resp.corr,Repeat_resp.rt,Repeat_resp.started,Repeat_resp.stopped,instruction_text.started,instruction_text.stopped,key_resp.keys,key_resp.rt,key_resp.started,key_resp.stopped,scanner_t.keys,scanner_t.rt,scanner_t.started,scanner_t.stopped,fixation_wait_for_t.started,fixation_wait_for_t.stopped,real_timestamp_trial_start,image.started,image.stopped,fixation.started,fixation.stopped,repeat_response.keys,repeat_response.started,repeat_response.stopped,fixation_null.started,fixation_null.stopped,repeat_response.rt,end_text.started,end_text.stopped,participant,run,date,expName,psychopyVersion,frameRate,
,,,,,,,,,,,11.881423400714993,None,return,2.2146966997534037,11.881423400714993,None,,,,,,,,,,,,,,,,,,,,,,,,,,,,,,,,,,,,,,,,,,,,,,,,,,,,,,,22030,0002,2023_Mar_14_1104,localizer,2021.1.3,59.245110190012525,
,,,,,,,,,,,,,,,,,14.143246600404382,None,14.143246600404382,None,return,4.342841200530529,14.143246600404382,None,,,,,,,,,,,,,,,,,,,,,,,,,,,,,,,,,,,,,,,,,,,,,,,22030,0002,2023_Mar_14_1104,localizer,2021.1.3,59.245110190012525,
,,,0,0,0,0,,,,,,,,,,,,,,,,,,,18.502948200330138,None,19.501514500007033,None,y,1.6435666996985674,19.501514500007033,None,21.168121300637722,None,b,1.0581529010087252,21.168121300637722,None,22.251841900870204,None,n,0,0.6584507003426552,22.251841900870204,None,,,,,,,,,,,,,,,,,,,,,,,,,,22030,0002,2023_Mar_14_1104,localizer,2021.1.3,59.245110190012525,
,,,,,,,,,,,,,,,,,,,,,,,,,,,,,,,,,,,,,,,,,,,,,,22.935566900298,None,y,120.50359159894288,22.935566900298,None,,,,,,,,,,,,,,,,,,,,22030,0002,2023_Mar_14_1104,localizer,2021.1.3,59.245110190012525,
block_start,scrambled,scrambled022.bmp,,,,,0,0,0,0,,,,,,,,,,,,,,,,,,,,,,,,,,,,,,,,,,,,,,,,,,t,14.928338900208473,143.5140078999102,None,143.5140078999102,None,2023-03-14-11:07:08.660898,158.47720360010862,158.785408699885,158.47720360010862,None,None,158.47720360010862,None,159.28532348070294,None,,,,22030,0002,2023_Mar_14_1104,localizer,2021.1.3,59.245110190012525,
block,scrambled,scrambled080.bmp,,,,,0,1,1,1,,,,,,,,,,,,,,,,,,,,,,,,,,,,,,,,,,,,,,,,,,None,,159.28532348070294,None,159.28532348070294,None,2023-03-14-11:07:09.471982,159.29725250042975,159.60216600075364,159.29725250042975,None,None,159.29725250042975,None,160.102263279818,None,,,,22030,0002,2023_Mar_14_1104,localizer,2021.1.3,59.245110190012525,
block,scrambled,scrambled001.bmp,,,,,0,2,2,2,,,,,,,,,,,,,,,,,,,,,,,,,,,,,,,,,,,,,,,,,,None,,160.102263279818,None,160.102263279818,None,2023-03-14-11:07:10.289196,160.1137918010354,160.4186390005052,160.1137918010354,None,None,160.1137918010354,None,160.91909167971463,None,,,,22030,0002,2023_Mar_14_1104,localizer,2021.1.3,59.245110190012525,
block,scrambled,scrambled007.bmp,,,,,0,3,3,3,,,,,,,,,,,,,,,,,,,,,,,,,,,,,,,,,,,,,,,,,,None,,160.91909167971463,None,160.91909167971463,None,2023-03-14-11:07:11.105746,160.91988619975746,161.21894150041044,160.91988619975746,None,None,160.91988619975746,None,161.7190340800211,None,,,,22030,0002,2023_Mar_14_1104,localizer,2021.1.3,59.245110190012525,
block,scrambled,scrambled024.bmp,,,,,0,4,4,4,,,,,,,,,,,,,,,,,,,,,,,,,,,,,,,,,,,,,,,,,,None,,161.7190340800211,None,161.7190340800211,None,2023-03-14-11:07:11.908880,161.73339520022273,162.03543679974973,161.73339520022273,161.73339520022273,None,161.73339520022273,161.73339520022273,162.53622698094696,None,,,,22030,0002,2023_Mar_14_1104,localizer,2021.1.3,59.245110190012525,
block,scrambled,scrambled021.bmp,,,,,0,5,5,5,,,,,,,,,,,,,,,,,,,,,,,,,,,,,,,,,,,,,,,,,,None,,162.53622698094696,None,162.53622698094696,None,2023-03-14-11:07:12.724061,162.54944190010428,162.85215760022402,162.54944190010428,None,None,162.54944190010428,None,163.35237528067083,None,,,,22030,0002,2023_Mar_14_1104,localizer,2021.1.3,59.245110190012525,
block,scrambled,scrambled018.bmp,,,,,0,6,6,6,,,,,,,,,,,,,,,,,,,,,,,,,,,,,,,,,,,,,,,,,,None,,163.35237528067083,None,163.35237528067083,None,2023-03-14-11:07:13.539265,163.35955739952624,163.66869590058923,163.35955739952624,None,None,163.35955739952624,None,164.16886317972094,None,,,,22030,0002,2023_Mar_14_1104,localizer,2021.1.3,59.245110190012525,
block,scrambled,scrambled042.bmp,,,,,0,7,7,7,,,,,,,,,,,,,,,,,,,,,,,,,,,,,,,,,,,,,,,,,,None,,164.16886317972094,None,164.16886317972094,None,2023-03-14-11:07:14.355525,164.18003790080547,164.48635590076447,164.18003790080547,None,None,164.18003790080547,None,164.9857684807852,None,,,,22030,0002,2023_Mar_14_1104,localizer,2021.1.3,59.245110190012525,
block,scrambled,scrambled043.bmp,,,,,0,8,8,8,,,,,,,,,,,,,,,,,,,,,,,,,,,,,,,,,,,,,,,,,,None,,164.9857684807852,None,164.9857684807852,None,2023-03-14-11:07:15.172429,164.99752720072865,165.30216090008616,164.99752720072865,None,None,164.99752720072865,None,165.8044422795996,None,,,,22030,0002,2023_Mar_14_1104,localizer,2021.1.3,59.245110190012525,
block,scrambled,scrambled004.bmp,,,,,0,9,9,9,,,,,,,,,,,,,,,,,,,,,,,,,,,,,,,,,,,,,,,,,,None,,165.8044422795996,None,165.8044422795996,None,2023-03-14-11:07:15.994989,165.8085719011724,166.1190093997866,165.8085719011724,None,None,165.8085719011724,None,166.61896388102323,None,,,,22030,0002,2023_Mar_14_1104,localizer,2021.1.3,59.245110190012525,
block,scrambled,scrambled008.bmp,,,,,0,10,10,10,,,,,,,,,,,,,,,,,,,,,,,,,,,,,,,,,,,,,,,,,,None,,166.61896388102323,None,166.61896388102323,None,2023-03-14-11:07:16.805629,166.63153729960322,166.93550890125334,166.63153729960322,None,None,166.63153729960322,None,167.43576047997922,None,,,,22030,0002,2023_Mar_14_1104,localizer,2021.1.3,59.245110190012525,
block,scrambled,scrambled016.bmp,,,,,0,11,11,11,,,,,,,,,,,,,,,,,,,,,,,,,,,,,,,,,,,,,,,,,,None,,167.43576047997922,None,167.43576047997922,None,2023-03-14-11:07:17.622725,167.43648049980402,167.73559280112386,167.43648049980402,None,None,167.43648049980402,None,168.23588448073716,None,,,,22030,0002,2023_Mar_14_1104,localizer,2021.1.3,59.245110190012525,
block,scrambled,scrambled066.bmp,,,,,0,12,12,12,,,,,,,,,,,,,,,,,,,,,,,,,,,,,,,,,,,,,,,,,,None,,168.23588448073716,None,168.23588448073716,None,2023-03-14-11:07:18.424760,168.23877360112965,168.55220689997077,168.23877360112965,168.23877360112965,y,168.23877360112965,168.23877360112965,169.052439779602,None,0.6714047007262707,,,22030,0002,2023_Mar_14_1104,localizer,2021.1.3,59.245110190012525,
block,scrambled,scrambled005.bmp,,,,,0,13,13,13,,,,,,,,,,,,,,,,,,,,,,,,,,,,,,,,,,,,,,,,,,None,,169.052439779602,None,169.052439779602,None,2023-03-14-11:07:19.239117,169.05315740033984,169.35233150050044,169.05315740033984,None,None,169.05315740033984,None,169.85238238107414,None,,,,22030,0002,2023_Mar_14_1104,localizer,2021.1.3,59.245110190012525,
block_end,scrambled,scrambled071.bmp,,,,,0,14,14,14,,,,,,,,,,,,,,,,,,,,,,,,,,,,,,,,,,,,,,,,,,None,,169.85238238107414,None,169.85238238107414,None,2023-03-14-11:07:20.041080,169.8650384005159,170.16874749958515,169.8650384005159,169.8650384005159,None,169.8650384005159,169.8650384005159,170.66906698103995,None,,,,22030,0002,2023_Mar_14_1104,localizer,2021.1.3,59.245110190012525,
block_start,objects,objects021.bmp,,,,,0,15,15,15,,,,,,,,,,,,,,,,,,,,,,,,,,,,,,,,,,,,,,,,,,t,1.7734038010239601,170.6689202003181,None,170.6689202003181,None,2023-03-14-11:07:22.654315,172.47948140092194,172.78553250059485,172.47948140092194,None,None,172.47948140092194,None,173.2856476796791,None,,,,22030,0002,2023_Mar_14_1104,localizer,2021.1.3,59.245110190012525,
block,objects,objects011.bmp,,,,,0,16,16,16,,,,,,,,,,,,,,,,,,,,,,,,,,,,,,,,,,,,,,,,,,None,,173.2856476796791,None,173.2856476796791,None,2023-03-14-11:07:23.472328,173.2929432000965,173.60249780118465,173.2929432000965,None,None,173.2929432000965,None,174.10270438026637,None,,,,22030,0002,2023_Mar_14_1104,localizer,2021.1.3,59.245110190012525,
block,objects,objects009.bmp,,,,,0,17,17,17,,,,,,,,,,,,,,,,,,,,,,,,,,,,,,,,,,,,,,,,,,None,,174.10270438026637,None,174.10270438026637,None,2023-03-14-11:07:24.289491,174.1143220011145,174.41850670054555,174.1143220011145,None,None,174.1143220011145,None,174.91907768007368,None,,,,22030,0002,2023_Mar_14_1104,localizer,2021.1.3,59.245110190012525,
block,objects,objects025.bmp,,,,,0,18,18,18,,,,,,,,,,,,,,,,,,,,,,,,,,,,,,,,,,,,,,,,,,None,,174.91907768007368,None,174.91907768007368,None,2023-03-14-11:07:25.105972,174.9261301998049,175.23612680099905,174.9261301998049,None,None,174.9261301998049,None,175.73576008025557,None,,,,22030,0002,2023_Mar_14_1104,localizer,2021.1.3,59.245110190012525,
block,objects,objects012.bmp,,,,,0,19,19,19,,,,,,,,,,,,,,,,,,,,,,,,,,,,,,,,,,,,,,,,,,None,,175.73576008025557,None,175.73576008025557,None,2023-03-14-11:07:25.922723,175.73654239997268,176.0361508000642,175.73654239997268,None,None,175.73654239997268,None,176.53685908075423,None,,,,22030,0002,2023_Mar_14_1104,localizer,2021.1.3,59.245110190012525,
block,objects,objects018.bmp,,,,,0,20,20,20,,,,,,,,,,,,,,,,,,,,,,,,,,,,,,,,,,,,,,,,,,None,,176.53685908075423,None,176.53685908075423,None,2023-03-14-11:07:26.727671,176.55397500097752,176.8689437005669,176.55397500097752,176.55397500097752,None,176.55397500097752,176.55397500097752,177.35245768036694,None,,,,22030,0002,2023_Mar_14_1104,localizer,2021.1.3,59.245110190012525,
block,objects,objects075.bmp,,,,,0,21,21,21,,,,,,,,,,,,,,,,,,,,,,,,,,,,,,,,,,,,,,,,,,None,,177.35245768036694,None,177.35245768036694,None,2023-03-14-11:07:27.539441,177.35983989946544,177.66879840008914,177.35983989946544,None,None,177.35983989946544,None,178.1691077804193,None,,,,22030,0002,2023_Mar_14_1104,localizer,2021.1.3,59.245110190012525,
block,objects,objects047.bmp,,,,,0,22,22,22,,,,,,,,,,,,,,,,,,,,,,,,,,,,,,,,,,,,,,,,,,None,,178.1691077804193,None,178.1691077804193,None,2023-03-14-11:07:28.355790,178.16982310079038,178.4696325007826,178.16982310079038,None,None,178.16982310079038,None,178.9696758804843,None,,,,22030,0002,2023_Mar_14_1104,localizer,2021.1.3,59.245110190012525,
block,objects,objects043.bmp,,,,,0,23,23,23,,,,,,,,,,,,,,,,,,,,,,,,,,,,,,,,,,,,,,,,,,None,,178.9696758804843,None,178.9696758804843,None,2023-03-14-11:07:29.159517,178.9798181001097,179.2854942996055,178.9798181001097,178.9798181001097,None,178.9798181001097,178.9798181001097,179.78589117955417,None,,,,22030,0002,2023_Mar_14_1104,localizer,2021.1.3,59.245110190012525,
block,objects,objects002.bmp,,,,,0,24,24,24,,,,,,,,,,,,,,,,,,,,,,,,,,,,,,,,,,,,,,,,,,None,,179.78589117955417,None,179.78589117955417,None,2023-03-14-11:07:29.972576,179.7968370001763,180.1022565010935,179.7968370001763,None,None,179.7968370001763,None,180.60236288104207,None,,,,22030,0002,2023_Mar_14_1104,localizer,2021.1.3,59.245110190012525,
block,objects,objects067.bmp,,,,,0,25,25,25,,,,,,,,,,,,,,,,,,,,,,,,,,,,,,,,,,,,,,,,,,None,,180.60236288104207,None,180.60236288104207,None,2023-03-14-11:07:30.789052,180.60307279974222,180.90220590122044,180.60307279974222,None,None,180.60307279974222,None,181.4062173800543,None,,,,22030,0002,2023_Mar_14_1104,localizer,2021.1.3,59.245110190012525,
block,objects,objects027.bmp,,,,,0,26,26,26,,,,,,,,,,,,,,,,,,,,,,,,,,,,,,,,,,,,,,,,,,None,,181.4062173800543,None,181.4062173800543,None,2023-03-14-11:07:31.602885,181.42384820058942,181.73551589995623,181.42384820058942,181.42384820058942,None,181.42384820058942,181.42384820058942,182.219079679437,None,,,,22030,0002,2023_Mar_14_1104,localizer,2021.1.3,59.245110190012525,
block,objects,objects068.bmp,,,,,0,27,27,27,,,,,,,,,,,,,,,,,,,,,,,,,,,,,,,,,,,,,,,,,,None,,182.219079679437,None,182.219079679437,None,2023-03-14-11:07:32.405773,182.21968870051205,182.51902239955962,182.21968870051205,None,None,182.21968870051205,None,183.01919648107142,None,,,,22030,0002,2023_Mar_14_1104,localizer,2021.1.3,59.245110190012525,
block,objects,objects055.bmp,,,,,0,28,28,28,,,,,,,,,,,,,,,,,,,,,,,,,,,,,,,,,,,,,,,,,,None,,183.01919648107142,None,183.01919648107142,None,2023-03-14-11:07:33.208061,183.03284990042448,183.33584089949727,183.03284990042448,183.03284990042448,None,183.03284990042448,183.03284990042448,183.83600248079748,None,,,,22030,0002,2023_Mar_14_1104,localizer,2021.1.3,59.245110190012525,
block_end,objects,objects071.bmp,,,,,0,29,29,29,,,,,,,,,,,,,,,,,,,,,,,,,,,,,,,,,,,,,,,,,,None,,183.83600248079748,None,183.83600248079748,None,2023-03-14-11:07:34.022907,183.84323790110648,184.15245420113206,183.84323790110648,None,None,183.84323790110648,None,184.65259417947382,None,,,,22030,0002,2023_Mar_14_1104,localizer,2021.1.3,59.245110190012525,
block_start,faces,faces012.bmp,,,,,0,30,30,30,,,,,,,,,,,,,,,,,,,,,,,,,,,,,,,,,,,,,,,,,,t,1.7898760996758938,184.65242160111666,None,184.65242160111666,None,2023-03-14-11:07:36.659734,186.48022069968283,186.78546939976513,186.48022069968283,None,None,186.48022069968283,None,187.28611788023264,None,,,,22030,0002,2023_Mar_14_1104,localizer,2021.1.3,59.245110190012525,
block,faces,faces055.bmp,,,,,0,31,31,31,,,,,,,,,,,,,,,,,,,,,,,,,,,,,,,,,,,,,,,,,,None,,187.28611788023264,None,187.28611788023264,None,2023-03-14-11:07:37.473132,187.29397810064256,187.60255330055952,187.29397810064256,None,None,187.29397810064256,None,188.10271197985858,None,,,,22030,0002,2023_Mar_14_1104,localizer,2021.1.3,59.245110190012525,
block,faces,faces056.bmp,,,,,0,32,32,32,,,,,,,,,,,,,,,,,,,,,,,,,,,,,,,,,,,,,,,,,,None,,188.10271197985858,None,188.10271197985858,None,2023-03-14-11:07:38.290106,188.10319310054183,188.40933869965374,188.10319310054183,None,None,188.10319310054183,None,188.90403077993543,None,,,,22030,0002,2023_Mar_14_1104,localizer,2021.1.3,59.245110190012525,
block,faces,faces078.bmp,,,,,0,33,33,33,,,,,,,,,,,,,,,,,,,,,,,,,,,,,,,,,,,,,,,,,,None,,188.90403077993543,None,188.90403077993543,None,2023-03-14-11:07:39.096570,188.91887330077589,189.2190081998706,188.91887330077589,188.91887330077589,None,188.91887330077589,188.91887330077589,189.7191769802943,None,,,,22030,0002,2023_Mar_14_1104,localizer,2021.1.3,59.245110190012525,
block,faces,faces017.bmp,,,,,0,34,34,34,,,,,,,,,,,,,,,,,,,,,,,,,,,,,,,,,,,,,,,,,,None,,189.7191769802943,None,189.7191769802943,None,2023-03-14-11:07:39.905902,189.7263601012528,190.03570809960365,189.7263601012528,None,None,189.7263601012528,None,190.5359863812104,None,,,,22030,0002,2023_Mar_14_1104,localizer,2021.1.3,59.245110190012525,
block,faces,faces053.bmp,,,,,0,35,35,35,,,,,,,,,,,,,,,,,,,,,,,,,,,,,,,,,,,,,,,,,,None,,190.5359863812104,None,190.5359863812104,None,2023-03-14-11:07:40.722691,190.54292740114033,190.85863010026515,190.54292740114033,None,None,190.54292740114033,None,191.3527583802119,None,,,,22030,0002,2023_Mar_14_1104,localizer,2021.1.3,59.245110190012525,
block,faces,faces051.bmp,,,,,0,36,36,36,,,,,,,,,,,,,,,,,,,,,,,,,,,,,,,,,,,,,,,,,,None,,191.3527583802119,None,191.3527583802119,None,2023-03-14-11:07:41.539476,191.35432700067759,191.66871570050716,191.35432700067759,None,None,191.35432700067759,None,192.16942277979106,None,,,,22030,0002,2023_Mar_14_1104,localizer,2021.1.3,59.245110190012525,
block,faces,faces054.bmp,,,,,0,37,37,37,,,,,,,,,,,,,,,,,,,,,,,,,,,,,,,,,,,,,,,,,,None,,192.16942277979106,None,192.16942277979106,None,2023-03-14-11:07:42.357333,192.1776235010475,192.48544100113213,192.1776235010475,None,None,192.1776235010475,None,192.98634238038213,None,,,,22030,0002,2023_Mar_14_1104,localizer,2021.1.3,59.245110190012525,
block,faces,faces040.bmp,,,,,0,38,38,38,,,,,,,,,,,,,,,,,,,,,,,,,,,,,,,,,,,,,,,,,,None,,192.98634238038213,None,192.98634238038213,None,2023-03-14-11:07:43.171927,192.99394980072975,193.3022090010345,192.99394980072975,None,None,192.99394980072975,None,193.8022712809965,None,,,,22030,0002,2023_Mar_14_1104,localizer,2021.1.3,59.245110190012525,
block,faces,faces029.bmp,,,,,0,39,39,39,,,,,,,,,,,,,,,,,,,,,,,,,,,,,,,,,,,,,,,,,,None,,193.8022712809965,None,193.8022712809965,None,2023-03-14-11:07:43.988556,193.80395090021193,194.1191293001175,193.80395090021193,None,None,193.80395090021193,None,194.60329587999732,None,,,,22030,0002,2023_Mar_14_1104,localizer,2021.1.3,59.245110190012525,
block,faces,faces049.bmp,,,,,0,40,40,40,,,,,,,,,,,,,,,,,,,,,,,,,,,,,,,,,,,,,,,,,,None,,194.60329587999732,None,194.60329587999732,None,2023-03-14-11:07:44.791411,194.60446350090206,194.90894629992545,194.60446350090206,194.60446350090206,None,194.60446350090206,194.60446350090206,195.41922408025712,None,,,,22030,0002,2023_Mar_14_1104,localizer,2021.1.3,59.245110190012525,
block,faces,faces019.bmp,,,,,0,41,41,41,,,,,,,,,,,,,,,,,,,,,,,,,,,,,,,,,,,,,,,,,,None,,195.41922408025712,None,195.41922408025712,None,2023-03-14-11:07:45.605934,195.42022830061615,195.71908160112798,195.42022830061615,None,None,195.42022830061615,None,196.23572607953102,None,,,,22030,0002,2023_Mar_14_1104,localizer,2021.1.3,59.245110190012525,
block,faces,faces014.bmp,,,,,0,42,42,42,,,,,,,,,,,,,,,,,,,,,,,,,,,,,,,,,,,,,,,,,,None,,196.23572607953102,None,196.23572607953102,None,2023-03-14-11:07:46.422439,196.24172830022871,196.552418500185,196.24172830022871,None,None,196.24172830022871,None,197.05253158006818,None,,,,22030,0002,2023_Mar_14_1104,localizer,2021.1.3,59.245110190012525,
block,faces,faces002.bmp,,,,,0,43,43,43,,,,,,,,,,,,,,,,,,,,,,,,,,,,,,,,,,,,,,,,,,None,,197.05253158006818,None,197.05253158006818,None,2023-03-14-11:07:47.239244,197.0602330006659,197.36912750080228,197.0602330006659,None,None,197.0602330006659,None,197.87041888069362,None,,,,22030,0002,2023_Mar_14_1104,localizer,2021.1.3,59.245110190012525,
block_end,faces,faces071.bmp,,,,,0,44,44,44,,,,,,,,,,,,,,,,,,,,,,,,,,,,,,,,,,,,,,,,,,None,,197.87041888069362,None,197.87041888069362,None,2023-03-14-11:07:48.059107,197.87989540025592,198.18569480068982,197.87989540025592,None,None,197.87989540025592,None,198.6864552801475,None,,,,22030,0002,2023_Mar_14_1104,localizer,2021.1.3,59.245110190012525,
block_start,scenes,scenes022.bmp,,,,,0,45,45,45,,,,,,,,,,,,,,,,,,,,,,,,,,,,,,,,,,,,,,,,,,t,1.7548181992024183,198.68641900084913,None,198.68641900084913,None,2023-03-14-11:07:50.659368,200.4796200003475,200.78501760028303,200.4796200003475,None,None,200.4796200003475,None,201.28596117962152,None,,,,22030,0002,2023_Mar_14_1104,localizer,2021.1.3,59.245110190012525,
block,scenes,scenes006.bmp,,,,,0,46,46,46,,,,,,,,,,,,,,,,,,,,,,,,,,,,,,,,,,,,,,,,,,None,,201.28596117962152,None,201.28596117962152,None,2023-03-14-11:07:51.472680,201.29783260077238,201.6024191007018,201.29783260077238,None,None,201.29783260077238,None,202.10297877956182,None,,,,22030,0002,2023_Mar_14_1104,localizer,2021.1.3,59.245110190012525,
block,scenes,scenes086.bmp,,,,,0,47,47,47,,,,,,,,,,,,,,,,,,,,,,,,,,,,,,,,,,,,,,,,,,None,,202.10297877956182,None,202.10297877956182,None,2023-03-14-11:07:52.290692,202.11564410105348,202.4189999010414,202.11564410105348,None,None,202.11564410105348,None,202.91955607999117,None,,,,22030,0002,2023_Mar_14_1104,localizer,2021.1.3,59.245110190012525,
block,scenes,scenes029.bmp,,,,,0,48,48,48,,,,,,,,,,,,,,,,,,,,,,,,,,,,,,,,,,,,,,,,,,None,,202.91955607999117,None,202.91955607999117,None,2023-03-14-11:07:53.107251,202.9204115010798,203.23576010018587,202.9204115010798,None,None,202.9204115010798,None,203.73596067968757,None,,,,22030,0002,2023_Mar_14_1104,localizer,2021.1.3,59.245110190012525,
block,scenes,scenes065.bmp,,,,,0,49,49,49,,,,,,,,,,,,,,,,,,,,,,,,,,,,,,,,,,,,,,,,,,None,,203.73596067968757,None,203.73596067968757,None,2023-03-14-11:07:53.923015,203.73653080128133,204.03589119948447,203.73653080128133,None,None,203.73653080128133,None,204.5358419796452,None,,,,22030,0002,2023_Mar_14_1104,localizer,2021.1.3,59.245110190012525,
block,scenes,scenes007.bmp,,,,,0,50,50,50,,,,,,,,,,,,,,,,,,,,,,,,,,,,,,,,,,,,,,,,,,None,,204.5358419796452,None,204.5358419796452,None,2023-03-14-11:07:54.723566,204.53670519962907,204.83593589998782,204.53670519962907,204.53670519962907,None,204.53670519962907,204.53670519962907,205.33608848098666,None,,,,22030,0002,2023_Mar_14_1104,localizer,2021.1.3,59.245110190012525,
block,scenes,scenes049.bmp,,,,,0,51,51,51,,,,,,,,,,,,,,,,,,,,,,,,,,,,,,,,,,,,,,,,,,None,,205.33608848098666,None,205.33608848098666,None,2023-03-14-11:07:55.524806,205.3389389012009,205.6382472999394,205.3389389012009,205.3389389012009,None,205.3389389012009,205.3389389012009,206.15246897991747,None,,,,22030,0002,2023_Mar_14_1104,localizer,2021.1.3,59.245110190012525,
block,scenes,scenes087.bmp,,,,,0,52,52,52,,,,,,,,,,,,,,,,,,,,,,,,,,,,,,,,,,,,,,,,,,None,,206.15246897991747,None,206.15246897991747,None,2023-03-14-11:07:56.339411,206.16442590020597,206.4694373998791,206.16442590020597,None,None,206.16442590020597,None,206.96974178086967,None,,,,22030,0002,2023_Mar_14_1104,localizer,2021.1.3,59.245110190012525,
block,scenes,scenes026.bmp,,,,,0,53,53,53,,,,,,,,,,,,,,,,,,,,,,,,,,,,,,,,,,,,,,,,,,None,,206.96974178086967,None,206.96974178086967,None,2023-03-14-11:07:57.157656,206.97902970016003,207.2857186999172,206.97902970016003,None,None,206.97902970016003,None,207.78615728076548,None,,,,22030,0002,2023_Mar_14_1104,localizer,2021.1.3,59.245110190012525,
block,scenes,scenes059.bmp,,,,,0,54,54,54,,,,,,,,,,,,,,,,,,,,,,,,,,,,,,,,,,,,,,,,,,None,,207.78615728076548,None,207.78615728076548,None,2023-03-14-11:07:57.973131,207.79889860004187,208.10321629978716,207.79889860004187,None,None,207.79889860004187,None,208.60283527951688,None,,,,22030,0002,2023_Mar_14_1104,localizer,2021.1.3,59.245110190012525,
block,scenes,scenes071.bmp,,,,,0,55,55,55,,,,,,,,,,,,,,,,,,,,,,,,,,,,,,,,,,,,,,,,,,None,,208.60283527951688,None,208.60283527951688,None,2023-03-14-11:07:58.789874,208.6038540005684,208.91911710053682,208.6038540005684,None,None,208.6038540005684,None,209.406486880593,None,,,,22030,0002,2023_Mar_14_1104,localizer,2021.1.3,59.245110190012525,
block,scenes,scenes071.bmp,,,,,0,56,56,56,,,,,,,,,,,,,,,,,,,,,,,,,,,,,,,,,,,,,,,,,,None,,209.406486880593,None,209.406486880593,None,2023-03-14-11:07:59.603391,209.4193677008152,209.7190981004387,209.4193677008152,209.4193677008152,None,209.4193677008152,209.4193677008152,210.2191841794178,None,,,,22030,0002,2023_Mar_14_1104,localizer,2021.1.3,59.245110190012525,
block,scenes,scenes013.bmp,,,,,0,57,57,57,,,,,,,,,,,,,,,,,,,,,,,,,,,,,,,,,,,,,,,,,,None,,210.2191841794178,None,210.2191841794178,None,2023-03-14-11:08:00.405921,210.23110430128872,210.53640870004892,210.23110430128872,None,y,210.23110430128872,None,211.03603697996587,None,0.5488041993230581,,,22030,0002,2023_Mar_14_1104,localizer,2021.1.3,59.245110190012525,
block,scenes,scenes002.bmp,,,,,0,58,58,58,,,,,,,,,,,,,,,,,,,,,,,,,,,,,,,,,,,,,,,,,,None,,211.03603697996587,None,211.03603697996587,None,2023-03-14-11:08:01.222970,211.0476789996028,211.3590089008212,211.0476789996028,None,None,211.0476789996028,None,211.85273508038372,None,,,,22030,0002,2023_Mar_14_1104,localizer,2021.1.3,59.245110190012525,
block_end,scenes,scenes017.bmp,,,,,0,59,59,59,,,,,,,,,,,,,,,,,,,,,,,,,,,,,,,,,,,,,,,,,,None,,211.85273508038372,None,211.85273508038372,None,2023-03-14-11:08:02.039468,211.86580680124462,212.16921880096197,211.86580680124462,None,None,211.86580680124462,None,212.66932728011162,None,,,,22030,0002,2023_Mar_14_1104,localizer,2021.1.3,59.245110190012525,
null_block,null_block,null_block.bmp,,,,,0,60,60,60,,,,,,,,,,,,,,,,,,,,,,,,,,,,,,,,,,,,,,,,,,t,1.772172899916768,212.6690258011222,None,212.6690258011222,None,2023-03-14-11:08:04.656877,214.46995418015868,None,214.46995418015868,None,None,214.46995418015868,None,214.47556160017848,None,,,,22030,0002,2023_Mar_14_1104,localizer,2021.1.3,59.245110190012525,
block_start,objects,objects077.bmp,,,,,0,61,61,61,,,,,,,,,,,,,,,,,,,,,,,,,,,,,,,,,,,,,,,,,,t,1.9555095005780458,226.48579800128937,None,226.48579800128937,None,2023-03-14-11:08:18.656030,228.47032940015197,228.76930740103126,228.47032940015197,None,None,228.47032940015197,None,229.26963328067214,None,,,,22030,0002,2023_Mar_14_1104,localizer,2021.1.3,59.245110190012525,
block,objects,objects063.bmp,,,,,0,62,62,62,,,,,,,,,,,,,,,,,,,,,,,,,,,,,,,,,,,,,,,,,,None,,229.26963328067214,None,229.26963328067214,None,2023-03-14-11:08:19.459598,229.28568110056221,229.5861130002886,229.28568110056221,229.28568110056221,None,229.28568110056221,229.28568110056221,230.086319780536,None,,,,22030,0002,2023_Mar_14_1104,localizer,2021.1.3,59.245110190012525,
block,objects,objects028.bmp,,,,,0,63,63,63,,,,,,,,,,,,,,,,,,,,,,,,,,,,,,,,,,,,,,,,,,None,,230.086319780536,None,230.086319780536,None,2023-03-14-11:08:20.273286,230.0867510996759,230.38571489974856,230.0867510996759,None,None,230.0867510996759,None,230.8862690800801,None,,,,22030,0002,2023_Mar_14_1104,localizer,2021.1.3,59.245110190012525,
block,objects,objects069.bmp,,,,,0,64,64,64,,,,,,,,,,,,,,,,,,,,,,,,,,,,,,,,,,,,,,,,,,None,,230.8862690800801,None,230.8862690800801,None,2023-03-14-11:08:21.075028,230.90002810023725,231.2029833998531,230.90002810023725,230.90002810023725,None,230.90002810023725,230.90002810023725,231.70322408024222,None,,,,22030,0002,2023_Mar_14_1104,localizer,2021.1.3,59.245110190012525,
block,objects,objects050.bmp,,,,,0,65,65,65,,,,,,,,,,,,,,,,,,,,,,,,,,,,,,,,,,,,,,,,,,None,,231.70322408024222,None,231.70322408024222,None,2023-03-14-11:08:21.890179,231.7157634999603,232.01909930072725,231.7157634999603,None,None,231.7157634999603,None,232.5200849795714,None,,,,22030,0002,2023_Mar_14_1104,localizer,2021.1.3,59.245110190012525,
block,objects,objects056.bmp,,,,,0,66,66,66,,,,,,,,,,,,,,,,,,,,,,,,,,,,,,,,,,,,,,,,,,None,,232.5200849795714,None,232.5200849795714,None,2023-03-14-11:08:22.707992,232.53340470045805,232.83594609983265,232.53340470045805,None,None,232.53340470045805,None,233.33637427967042,None,,,,22030,0002,2023_Mar_14_1104,localizer,2021.1.3,59.245110190012525,
block,objects,objects053.bmp,,,,,0,67,67,67,,,,,,,,,,,,,,,,,,,,,,,,,,,,,,,,,,,,,,,,,,None,,233.33637427967042,None,233.33637427967042,None,2023-03-14-11:08:23.523360,233.34387169964612,233.65258670039475,233.34387169964612,None,None,233.34387169964612,None,234.1528974795714,None,,,,22030,0002,2023_Mar_14_1104,localizer,2021.1.3,59.245110190012525,
block,objects,objects081.bmp,,,,,0,68,68,68,,,,,,,,,,,,,,,,,,,,,,,,,,,,,,,,,,,,,,,,,,None,,234.1528974795714,None,234.1528974795714,None,2023-03-14-11:08:24.340017,234.153739400208,234.46929050050676,234.153739400208,None,None,234.153739400208,None,234.9529873808846,None,,,,22030,0002,2023_Mar_14_1104,localizer,2021.1.3,59.245110190012525,
block,objects,objects030.bmp,,,,,0,69,69,69,,,,,,,,,,,,,,,,,,,,,,,,,,,,,,,,,,,,,,,,,,None,,234.9529873808846,None,234.9529873808846,None,2023-03-14-11:08:25.142962,234.9557479005307,235.27604930102825,234.9557479005307,234.9557479005307,None,234.9557479005307,234.9557479005307,235.76968227941543,None,,,,22030,0002,2023_Mar_14_1104,localizer,2021.1.3,59.245110190012525,
block,objects,objects060.bmp,,,,,0,70,70,70,,,,,,,,,,,,,,,,,,,,,,,,,,,,,,,,,,,,,,,,,,None,,235.76968227941543,None,235.76968227941543,None,2023-03-14-11:08:25.956311,235.7702457010746,236.070019999519,235.7702457010746,None,None,235.7702457010746,None,236.56957588028163,None,,,,22030,0002,2023_Mar_14_1104,localizer,2021.1.3,59.245110190012525,
block,objects,objects026.bmp,,,,,0,71,71,71,,,,,,,,,,,,,,,,,,,,,,,,,,,,,,,,,,,,,,,,,,None,,236.56957588028163,None,236.56957588028163,None,2023-03-14-11:08:26.758500,236.58396610058844,236.88606120087206,236.58396610058844,236.58396610058844,None,236.58396610058844,236.58396610058844,237.38677077982575,None,,,,22030,0002,2023_Mar_14_1104,localizer,2021.1.3,59.245110190012525,
block,objects,objects022.bmp,,,,,0,72,72,72,,,,,,,,,,,,,,,,,,,,,,,,,,,,,,,,,,,,,,,,,,None,,237.38677077982575,None,237.38677077982575,None,2023-03-14-11:08:27.573543,237.3979064002633,237.70272229984403,237.3979064002633,None,None,237.3979064002633,None,238.2028732808307,None,,,,22030,0002,2023_Mar_14_1104,localizer,2021.1.3,59.245110190012525,
block,objects,objects078.bmp,,,,,0,73,73,73,,,,,,,,,,,,,,,,,,,,,,,,,,,,,,,,,,,,,,,,,,None,,238.2028732808307,None,238.2028732808307,None,2023-03-14-11:08:28.389651,238.2035357002169,238.51932409964502,238.2035357002169,None,None,238.2035357002169,None,239.00327618103475,None,,,,22030,0002,2023_Mar_14_1104,localizer,2021.1.3,59.245110190012525,
block,objects,objects075.bmp,,,,,0,74,74,74,,,,,,,,,,,,,,,,,,,,,,,,,,,,,,,,,,,,,,,,,,None,,239.00327618103475,None,239.00327618103475,None,2023-03-14-11:08:29.192259,239.00534139946103,239.31964500062168,239.00534139946103,239.00534139946103,None,239.00534139946103,239.00534139946103,239.8197612805292,None,,,,22030,0002,2023_Mar_14_1104,localizer,2021.1.3,59.245110190012525,
block_end,objects,objects075.bmp,,,,,0,75,75,75,,,,,,,,,,,,,,,,,,,,,,,,,,,,,,,,,,,,,,,,,,None,,239.8197612805292,None,239.8197612805292,None,2023-03-14-11:08:30.006756,239.82040790095925,240.13606799952686,239.82040790095925,None,None,239.82040790095925,None,240.61969698090107,None,,,,22030,0002,2023_Mar_14_1104,localizer,2021.1.3,59.245110190012525,
block_start,faces,faces065.bmp,,,,,0,76,76,76,,,,,,,,,,,,,,,,,,,,,,,,,,,,,,,,,,,,,,,,,,t,1.8211735989898443,240.6199834998697,None,240.6199834998697,None,2023-03-14-11:08:32.654525,242.48326780088246,242.7861428000033,242.48326780088246,None,None,242.48326780088246,None,243.2865363812074,None,,,,22030,0002,2023_Mar_14_1104,localizer,2021.1.3,59.245110190012525,
block,faces,faces075.bmp,,,,,0,77,77,77,,,,,,,,,,,,,,,,,,,,,,,,,,,,,,,,,,,,,,,,,,None,,243.2865363812074,None,243.2865363812074,None,2023-03-14-11:08:33.473321,243.29946890100837,243.60259070061147,243.29946890100837,None,None,243.29946890100837,None,244.10308918040246,None,,,,22030,0002,2023_Mar_14_1104,localizer,2021.1.3,59.245110190012525,
block,faces,faces005.bmp,,,,,0,78,78,78,,,,,,,,,,,,,,,,,,,,,,,,,,,,,,,,,,,,,,,,,,None,,244.10308918040246,None,244.10308918040246,None,2023-03-14-11:08:34.289875,244.1106678005308,244.41926510073245,244.1106678005308,None,None,244.1106678005308,None,244.91986187975854,None,,,,22030,0002,2023_Mar_14_1104,localizer,2021.1.3,59.245110190012525,
block,faces,faces089.bmp,,,,,0,79,79,79,,,,,,,,,,,,,,,,,,,,,,,,,,,,,,,,,,,,,,,,,,None,,244.91986187975854,None,244.91986187975854,None,2023-03-14-11:08:35.106783,244.9325069002807,245.23603440076113,244.9325069002807,None,None,244.9325069002807,None,245.73629868086428,None,,,,22030,0002,2023_Mar_14_1104,localizer,2021.1.3,59.245110190012525,
block,faces,faces001.bmp,,,,,0,80,80,80,,,,,,,,,,,,,,,,,,,,,,,,,,,,,,,,,,,,,,,,,,None,,245.73629868086428,None,245.73629868086428,None,2023-03-14-11:08:35.923090,245.74464900046587,246.05277010053396,245.74464900046587,None,None,245.74464900046587,None,246.5531002810225,None,,,,22030,0002,2023_Mar_14_1104,localizer,2021.1.3,59.245110190012525,
block,faces,faces071.bmp,,,,,0,81,81,81,,,,,,,,,,,,,,,,,,,,,,,,,,,,,,,,,,,,,,,,,,None,,246.5531002810225,None,246.5531002810225,None,2023-03-14-11:08:36.740148,246.55374759994447,246.85278929956257,246.55374759994447,None,None,246.55374759994447,None,247.3531913800165,None,,,,22030,0002,2023_Mar_14_1104,localizer,2021.1.3,59.245110190012525,
block,faces,faces043.bmp,,,,,0,82,82,82,,,,,,,,,,,,,,,,,,,,,,,,,,,,,,,,,,,,,,,,,,None,,247.3531913800165,None,247.3531913800165,None,2023-03-14-11:08:37.541084,247.36330069974065,247.66948150098324,247.36330069974065,247.36330069974065,None,247.36330069974065,247.36330069974065,248.17028727997095,None,,,,22030,0002,2023_Mar_14_1104,localizer,2021.1.3,59.245110190012525,
block,faces,faces066.bmp,,,,,0,83,83,83,,,,,,,,,,,,,,,,,,,,,,,,,,,,,,,,,,,,,,,,,,None,,248.17028727997095,None,248.17028727997095,None,2023-03-14-11:08:38.358069,248.17235779948533,248.48656539991498,248.17235779948533,None,None,248.17235779948533,None,248.98677378017456,None,,,,22030,0002,2023_Mar_14_1104,localizer,2021.1.3,59.245110190012525,
block,faces,faces069.bmp,,,,,0,84,84,84,,,,,,,,,,,,,,,,,,,,,,,,,,,,,,,,,,,,,,,,,,None,,248.98677378017456,None,248.98677378017456,None,2023-03-14-11:08:39.174751,248.9946871995926,249.3027953002602,248.9946871995926,None,None,248.9946871995926,None,249.80353478025646,None,,,,22030,0002,2023_Mar_14_1104,localizer,2021.1.3,59.245110190012525,
block,faces,faces074.bmp,,,,,0,85,85,85,,,,,,,,,,,,,,,,,,,,,,,,,,,,,,,,,,,,,,,,,,None,,249.80353478025646,None,249.80353478025646,None,2023-03-14-11:08:39.991953,249.80613060109317,250.10823990032077,249.80613060109317,None,None,249.80613060109317,None,250.62085777949542,None,,,,22030,0002,2023_Mar_14_1104,localizer,2021.1.3,59.245110190012525,
block,faces,faces083.bmp,,,,,0,86,86,86,,,,,,,,,,,,,,,,,,,,,,,,,,,,,,,,,,,,,,,,,,None,,250.62085777949542,None,250.62085777949542,None,2023-03-14-11:08:40.810617,250.6238362006843,250.93585490062833,250.6238362006843,None,None,250.6238362006843,None,251.43631777968258,None,,,,22030,0002,2023_Mar_14_1104,localizer,2021.1.3,59.245110190012525,
block,faces,faces085.bmp,,,,,0,87,87,87,,,,,,,,,,,,,,,,,,,,,,,,,,,,,,,,,,,,,,,,,,None,,251.43631777968258,None,251.43631777968258,None,2023-03-14-11:08:41.623281,251.4483014997095,251.75283090025187,251.4483014997095,None,None,251.4483014997095,None,252.25303668025882,None,,,,22030,0002,2023_Mar_14_1104,localizer,2021.1.3,59.245110190012525,
block,faces,faces021.bmp,,,,,0,88,88,88,,,,,,,,,,,,,,,,,,,,,,,,,,,,,,,,,,,,,,,,,,None,,252.25303668025882,None,252.25303668025882,None,2023-03-14-11:08:42.439981,252.26214309968054,252.56962590105832,252.26214309968054,None,None,252.26214309968054,None,253.06979138087482,None,,,,22030,0002,2023_Mar_14_1104,localizer,2021.1.3,59.245110190012525,
block,faces,faces030.bmp,,,,,0,89,89,89,,,,,,,,,,,,,,,,,,,,,,,,,,,,,,,,,,,,,,,,,,None,,253.06979138087482,None,253.06979138087482,None,2023-03-14-11:08:43.256805,253.07886310108006,253.38613110035658,253.07886310108006,None,None,253.07886310108006,None,253.88678058106453,None,,,,22030,0002,2023_Mar_14_1104,localizer,2021.1.3,59.245110190012525,
block_end,faces,faces017.bmp,,,,,0,90,90,90,,,,,,,,,,,,,,,,,,,,,,,,,,,,,,,,,,,,,,,,,,None,,253.88678058106453,None,253.88678058106453,None,2023-03-14-11:08:44.074572,253.88744099996984,254.18659410066903,253.88744099996984,None,None,253.88744099996984,None,254.68650987986476,None,,,,22030,0002,2023_Mar_14_1104,localizer,2021.1.3,59.245110190012525,
block_start,scrambled,scrambled080.bmp,,,,,0,91,91,91,,,,,,,,,,,,,,,,,,,,,,,,,,,,,,,,,,,,,,,,,,t,1.7550005000084639,254.68627700023353,None,254.68627700023353,None,2023-03-14-11:08:46.658913,256.4734030999243,256.7866609003395,256.4734030999243,None,None,256.4734030999243,None,257.286682880111,None,,,,22030,0002,2023_Mar_14_1104,localizer,2021.1.3,59.245110190012525,
block,scrambled,scrambled013.bmp,,,,,0,92,92,92,,,,,,,,,,,,,,,,,,,,,,,,,,,,,,,,,,,,,,,,,,None,,257.286682880111,None,257.286682880111,None,2023-03-14-11:08:47.474676,257.29518030025065,257.60240180045366,257.29518030025065,None,None,257.29518030025065,None,258.10297147985546,None,,,,22030,0002,2023_Mar_14_1104,localizer,2021.1.3,59.245110190012525,
block,scrambled,scrambled058.bmp,,,,,0,93,93,93,,,,,,,,,,,,,,,,,,,,,,,,,,,,,,,,,,,,,,,,,,None,,258.10297147985546,None,258.10297147985546,None,2023-03-14-11:08:48.289780,258.11433910019696,258.424689700827,258.11433910019696,None,None,258.11433910019696,None,258.9197785804048,None,,,,22030,0002,2023_Mar_14_1104,localizer,2021.1.3,59.245110190012525,
block,scrambled,scrambled047.bmp,,,,,0,94,94,94,,,,,,,,,,,,,,,,,,,,,,,,,,,,,,,,,,,,,,,,,,None,,258.9197785804048,None,258.9197785804048,None,2023-03-14-11:08:49.106798,258.93145020119846,259.2362939994782,258.93145020119846,None,None,258.93145020119846,None,259.73658968005327,None,,,,22030,0002,2023_Mar_14_1104,localizer,2021.1.3,59.245110190012525,
block,scrambled,scrambled002.bmp,,,,,0,95,95,95,,,,,,,,,,,,,,,,,,,,,,,,,,,,,,,,,,,,,,,,,,None,,259.73658968005327,None,259.73658968005327,None,2023-03-14-11:08:49.923512,259.73689039982855,260.03650780022144,259.73689039982855,None,None,259.73689039982855,None,260.53607847969977,None,,,,22030,0002,2023_Mar_14_1104,localizer,2021.1.3,59.245110190012525,
block,scrambled,scrambled082.bmp,,,,,0,96,96,96,,,,,,,,,,,,,,,,,,,,,,,,,,,,,,,,,,,,,,,,,,None,,260.53607847969977,None,260.53607847969977,None,2023-03-14-11:08:50.724115,260.54324029944837,260.85287529975176,260.54324029944837,260.54324029944837,None,260.54324029944837,260.54324029944837,261.35314437989143,None,,,,22030,0002,2023_Mar_14_1104,localizer,2021.1.3,59.245110190012525,
block,scrambled,scrambled028.bmp,,,,,0,97,97,97,,,,,,,,,,,,,,,,,,,,,,,,,,,,,,,,,,,,,,,,,,None,,261.35314437989143,None,261.35314437989143,None,2023-03-14-11:08:51.539955,261.36642420105636,261.66965620033443,261.36642420105636,None,None,261.36642420105636,None,262.17004508022217,None,,,,22030,0002,2023_Mar_14_1104,localizer,2021.1.3,59.245110190012525,
block,scrambled,scrambled026.bmp,,,,,0,98,98,98,,,,,,,,,,,,,,,,,,,,,,,,,,,,,,,,,,,,,,,,,,None,,262.17004508022217,None,262.17004508022217,None,2023-03-14-11:08:52.357851,262.1706114001572,262.48596220090985,262.1706114001572,None,None,262.1706114001572,None,262.9698527796194,None,,,,22030,0002,2023_Mar_14_1104,localizer,2021.1.3,59.245110190012525,
block,scrambled,scrambled068.bmp,,,,,0,99,99,99,,,,,,,,,,,,,,,,,,,,,,,,,,,,,,,,,,,,,,,,,,None,,262.9698527796194,None,262.9698527796194,None,2023-03-14-11:08:53.158656,262.9843637011945,263.2863347996026,262.9843637011945,262.9843637011945,None,262.9843637011945,262.9843637011945,263.78630277942864,None,,,,22030,0002,2023_Mar_14_1104,localizer,2021.1.3,59.245110190012525,
block,scrambled,scrambled024.bmp,,,,,0,100,100,100,,,,,,,,,,,,,,,,,,,,,,,,,,,,,,,,,,,,,,,,,,None,,263.78630277942864,None,263.78630277942864,None,2023-03-14-11:08:53.973526,263.78707149997354,264.086210699752,263.78707149997354,None,None,263.78707149997354,None,264.5868893811479,None,,,,22030,0002,2023_Mar_14_1104,localizer,2021.1.3,59.245110190012525,
block,scrambled,scrambled003.bmp,,,,,0,101,101,101,,,,,,,,,,,,,,,,,,,,,,,,,,,,,,,,,,,,,,,,,,None,,264.5868893811479,None,264.5868893811479,None,2023-03-14-11:08:54.776688,264.6006877999753,264.9036889001727,264.6006877999753,264.6006877999753,None,264.6006877999753,264.6006877999753,265.4030519803986,None,,,,22030,0002,2023_Mar_14_1104,localizer,2021.1.3,59.245110190012525,
block,scrambled,scrambled057.bmp,,,,,0,102,102,102,,,,,,,,,,,,,,,,,,,,,,,,,,,,,,,,,,,,,,,,,,None,,265.4030519803986,None,265.4030519803986,None,2023-03-14-11:08:55.589870,265.41483750008047,265.71957500092685,265.41483750008047,None,None,265.41483750008047,None,266.21983468029646,None,,,,22030,0002,2023_Mar_14_1104,localizer,2021.1.3,59.245110190012525,
block,scrambled,scrambled005.bmp,,,,,0,103,103,103,,,,,,,,,,,,,,,,,,,,,,,,,,,,,,,,,,,,,,,,,,None,,266.21983468029646,None,266.21983468029646,None,2023-03-14-11:08:56.406651,266.2205379996449,266.52022979967296,266.2205379996449,None,None,266.2205379996449,None,267.01993157956747,None,,,,22030,0002,2023_Mar_14_1104,localizer,2021.1.3,59.245110190012525,
block,scrambled,scrambled038.bmp,,,,,0,104,104,104,,,,,,,,,,,,,,,,,,,,,,,,,,,,,,,,,,,,,,,,,,None,,267.01993157956747,None,267.01993157956747,None,2023-03-14-11:08:57.208738,267.03023770079017,267.3363210000098,267.03023770079017,267.03023770079017,None,267.03023770079017,267.03023770079017,267.8363994793966,None,,,,22030,0002,2023_Mar_14_1104,localizer,2021.1.3,59.245110190012525,
block_end,scrambled,scrambled073.bmp,,,,,0,105,105,105,,,,,,,,,,,,,,,,,,,,,,,,,,,,,,,,,,,,,,,,,,None,,267.8363994793966,None,267.8363994793966,None,2023-03-14-11:08:58.023228,267.846839800477,268.15313879959285,267.846839800477,None,None,267.846839800477,None,268.6532821809873,None,,,,22030,0002,2023_Mar_14_1104,localizer,2021.1.3,59.245110190012525,
block_start,scenes,scenes077.bmp,,,,,0,106,106,106,,,,,,,,,,,,,,,,,,,,,,,,,,,,,,,,,,,,,,,,,,t,1.78836590051651,268.652926100418,None,268.652926100418,None,2023-03-14-11:09:00.655391,270.4757748004049,270.7862714007497,270.4757748004049,None,None,270.4757748004049,None,271.27567458022384,None,,,,22030,0002,2023_Mar_14_1104,localizer,2021.1.3,59.245110190012525,
block,scenes,scenes045.bmp,,,,,0,107,107,107,,,,,,,,,,,,,,,,,,,,,,,,,,,,,,,,,,,,,,,,,,None,,271.27567458022384,None,271.27567458022384,None,2023-03-14-11:09:01.466401,271.2798792012036,271.5864201001823,271.2798792012036,None,None,271.2798792012036,None,272.0864157794043,None,,,,22030,0002,2023_Mar_14_1104,localizer,2021.1.3,59.245110190012525,
block,scenes,scenes092.bmp,,,,,0,108,108,108,,,,,,,,,,,,,,,,,,,,,,,,,,,,,,,,,,,,,,,,,,None,,272.0864157794043,None,272.0864157794043,None,2023-03-14-11:09:02.273430,272.09821850061417,272.4029403999448,272.09821850061417,None,None,272.09821850061417,None,272.90321728084234,None,,,,22030,0002,2023_Mar_14_1104,localizer,2021.1.3,59.245110190012525,
block,scenes,scenes075.bmp,,,,,0,109,109,109,,,,,,,,,,,,,,,,,,,,,,,,,,,,,,,,,,,,,,,,,,None,,272.90321728084234,None,272.90321728084234,None,2023-03-14-11:09:03.090040,272.91549380123615,273.21971910074353,272.91549380123615,None,None,272.91549380123615,None,273.7199334805831,None,,,,22030,0002,2023_Mar_14_1104,localizer,2021.1.3,59.245110190012525,
block,scenes,scenes022.bmp,,,,,0,110,110,110,,,,,,,,,,,,,,,,,,,,,,,,,,,,,,,,,,,,,,,,,,None,,273.7199334805831,None,273.7199334805831,None,2023-03-14-11:09:03.906994,273.7205663006753,274.0197417996824,273.7205663006753,None,None,273.7205663006753,None,274.52303148116914,None,,,,22030,0002,2023_Mar_14_1104,localizer,2021.1.3,59.245110190012525,
block,scenes,scenes053.bmp,,,,,0,111,111,111,,,,,,,,,,,,,,,,,,,,,,,,,,,,,,,,,,,,,,,,,,None,,274.52303148116914,None,274.52303148116914,None,2023-03-14-11:09:04.716682,274.54815510101616,274.8541224002838,274.54815510101616,274.54815510101616,None,274.54815510101616,274.54815510101616,275.3374067811295,None,,,,22030,0002,2023_Mar_14_1104,localizer,2021.1.3,59.245110190012525,
block,scenes,scenes004.bmp,,,,,0,112,112,112,,,,,,,,,,,,,,,,,,,,,,,,,,,,,,,,,,,,,,,,,,None,,275.3374067811295,None,275.3374067811295,None,2023-03-14-11:09:05.525409,275.35753539949656,275.6695683002472,275.35753539949656,None,None,275.35753539949656,None,276.1533147810027,None,,,,22030,0002,2023_Mar_14_1104,localizer,2021.1.3,59.245110190012525,
block,scenes,scenes009.bmp,,,,,0,113,113,113,,,,,,,,,,,,,,,,,,,,,,,,,,,,,,,,,,,,,,,,,,None,,276.1533147810027,None,276.1533147810027,None,2023-03-14-11:09:06.340354,276.1608202010393,276.46936940029263,276.1608202010393,None,None,276.1608202010393,None,276.96979198101906,None,,,,22030,0002,2023_Mar_14_1104,localizer,2021.1.3,59.245110190012525,
block,scenes,scenes055.bmp,,,,,0,114,114,114,,,,,,,,,,,,,,,,,,,,,,,,,,,,,,,,,,,,,,,,,,None,,276.96979198101906,None,276.96979198101906,None,2023-03-14-11:09:07.156624,276.9705753996968,277.28603940084577,276.9705753996968,None,None,276.9705753996968,None,277.76972547974435,None,,,,22030,0002,2023_Mar_14_1104,localizer,2021.1.3,59.245110190012525,
block,scenes,scenes044.bmp,,,,,0,115,115,115,,,,,,,,,,,,,,,,,,,,,,,,,,,,,,,,,,,,,,,,,,None,,277.76972547974435,None,277.76972547974435,None,2023-03-14-11:09:07.957805,277.77062929980457,278.069613000378,277.77062929980457,277.77062929980457,None,277.77062929980457,277.77062929980457,278.57098538111893,None,,,,22030,0002,2023_Mar_14_1104,localizer,2021.1.3,59.245110190012525,
block,scenes,scenes090.bmp,,,,,0,116,116,116,,,,,,,,,,,,,,,,,,,,,,,,,,,,,,,,,,,,,,,,,,None,,278.57098538111893,None,278.57098538111893,None,2023-03-14-11:09:08.763785,278.5953150000423,278.9027511011809,278.5953150000423,278.5953150000423,None,278.5953150000423,278.5953150000423,279.38664897959677,None,,,,22030,0002,2023_Mar_14_1104,localizer,2021.1.3,59.245110190012525,
block,scenes,scenes019.bmp,,,,,0,117,117,117,,,,,,,,,,,,,,,,,,,,,,,,,,,,,,,,,,,,,,,,,,None,,279.38664897959677,None,279.38664897959677,None,2023-03-14-11:09:09.573603,279.39975189976394,279.703053900972,279.39975189976394,None,None,279.39975189976394,None,280.20295058060435,None,,,,22030,0002,2023_Mar_14_1104,localizer,2021.1.3,59.245110190012525,
block,scenes,scenes030.bmp,,,,,0,118,118,118,,,,,,,,,,,,,,,,,,,,,,,,,,,,,,,,,,,,,,,,,,None,,280.20295058060435,None,280.20295058060435,None,2023-03-14-11:09:10.389789,280.2135646007955,280.51955899968743,280.2135646007955,None,None,280.2135646007955,None,281.0198972808197,None,,,,22030,0002,2023_Mar_14_1104,localizer,2021.1.3,59.245110190012525,
block,scenes,scenes001.bmp,,,,,0,119,119,119,,,,,,,,,,,,,,,,,,,,,,,,,,,,,,,,,,,,,,,,,,None,,281.0198972808197,None,281.0198972808197,None,2023-03-14-11:09:11.206820,281.03073330037296,281.3365070000291,281.03073330037296,None,None,281.03073330037296,None,281.83664318043736,None,,,,22030,0002,2023_Mar_14_1104,localizer,2021.1.3,59.245110190012525,
block_end,scenes,scenes011.bmp,,,,,0,120,120,120,,,,,,,,,,,,,,,,,,,,,,,,,,,,,,,,,,,,,,,,,,None,,281.83664318043736,None,281.83664318043736,None,2023-03-14-11:09:12.023478,281.8493547998369,282.15304609946907,281.8493547998369,None,None,281.8493547998369,None,282.65334258098153,None,,,,22030,0002,2023_Mar_14_1104,localizer,2021.1.3,59.245110190012525,
null_block,null_block,null_block.bmp,,,,,0,121,121,121,,,,,,,,,,,,,,,,,,,,,,,,,,,,,,,,,,,,,,,,,,t,1.788162799552083,282.6531605012715,None,282.6531605012715,None,2023-03-14-11:09:14.655468,284.46962388101963,None,284.46962388101963,None,None,284.46962388101963,None,284.47985660098493,None,,,,22030,0002,2023_Mar_14_1104,localizer,2021.1.3,59.245110190012525,
null_block,null_block,null_block.bmp,,,,,0,122,122,122,,,,,,,,,,,,,,,,,,,,,,,,,,,,,,,,,,,,,,,,,,t,1.9514674004167318,296.4896108005196,None,296.4896108005196,None,2023-03-14-11:09:28.656254,298.4697764800861,None,298.4697764800861,None,None,298.4697764800861,None,298.472975499928,None,,,,22030,0002,2023_Mar_14_1104,localizer,2021.1.3,59.245110190012525,
block_start,objects,objects015.bmp,,,,,0,123,123,123,,,,,,,,,,,,,,,,,,,,,,,,,,,,,,,,,,,,,,,,,,t,1.9541416987776756,310.48655989952385,None,310.48655989952385,None,2023-03-14-11:09:42.655612,312.46769249998033,312.7698296997696,312.46769249998033,None,None,312.46769249998033,None,313.2692371798679,None,,,,22030,0002,2023_Mar_14_1104,localizer,2021.1.3,59.245110190012525,
block,objects,objects009.bmp,,,,,0,124,124,124,,,,,,,,,,,,,,,,,,,,,,,,,,,,,,,,,,,,,,,,,,None,,313.2692371798679,None,313.2692371798679,None,2023-03-14-11:09:43.455709,313.27044950053096,313.5760885011405,313.27044950053096,None,None,313.27044950053096,None,314.0703505804762,None,,,,22030,0002,2023_Mar_14_1104,localizer,2021.1.3,59.245110190012525,
block,objects,objects059.bmp,,,,,0,125,125,125,,,,,,,,,,,,,,,,,,,,,,,,,,,,,,,,,,,,,,,,,,None,,314.0703505804762,None,314.0703505804762,None,2023-03-14-11:09:44.260214,314.08480800129473,314.3865047004074,314.08480800129473,314.08480800129473,None,314.08480800129473,314.08480800129473,314.8870367804542,None,,,,22030,0002,2023_Mar_14_1104,localizer,2021.1.3,59.245110190012525,
block,objects,objects075.bmp,,,,,0,126,126,126,,,,,,,,,,,,,,,,,,,,,,,,,,,,,,,,,,,,,,,,,,None,,314.8870367804542,None,314.8870367804542,None,2023-03-14-11:09:45.074904,314.8876853007823,315.18681690096855,314.8876853007823,None,None,314.8876853007823,None,315.6869276804849,None,,,,22030,0002,2023_Mar_14_1104,localizer,2021.1.3,59.245110190012525,
block,objects,objects001.bmp,,,,,0,127,127,127,,,,,,,,,,,,,,,,,,,,,,,,,,,,,,,,,,,,,,,,,,None,,315.6869276804849,None,315.6869276804849,None,2023-03-14-11:09:45.875798,315.7005877997726,316.00332779996097,315.7005877997726,315.7005877997726,None,315.7005877997726,315.7005877997726,316.5033383803442,None,,,,22030,0002,2023_Mar_14_1104,localizer,2021.1.3,59.245110190012525,
block,objects,objects079.bmp,,,,,0,128,128,128,,,,,,,,,,,,,,,,,,,,,,,,,,,,,,,,,,,,,,,,,,None,,316.5033383803442,None,316.5033383803442,None,2023-03-14-11:09:46.690220,316.5040736012161,316.8032086007297,316.5040736012161,None,None,316.5040736012161,None,317.30341278072444,None,,,,22030,0002,2023_Mar_14_1104,localizer,2021.1.3,59.245110190012525,
block,objects,objects057.bmp,,,,,0,129,129,129,,,,,,,,,,,,,,,,,,,,,,,,,,,,,,,,,,,,,,,,,,None,,317.30341278072444,None,317.30341278072444,None,2023-03-14-11:09:47.492287,317.3047234006226,317.6199814006686,317.3047234006226,317.3047234006226,None,317.3047234006226,317.3047234006226,318.1200903808698,None,,,,22030,0002,2023_Mar_14_1104,localizer,2021.1.3,59.245110190012525,
block,objects,objects028.bmp,,,,,0,130,130,130,,,,,,,,,,,,,,,,,,,,,,,,,,,,,,,,,,,,,,,,,,None,,318.1200903808698,None,318.1200903808698,None,2023-03-14-11:09:48.306973,318.12078460119665,318.41968970000744,318.12078460119665,None,None,318.12078460119665,None,318.92026018034665,None,,,,22030,0002,2023_Mar_14_1104,localizer,2021.1.3,59.245110190012525,
block,objects,objects048.bmp,,,,,0,131,131,131,,,,,,,,,,,,,,,,,,,,,,,,,,,,,,,,,,,,,,,,,,None,,318.92026018034665,None,318.92026018034665,None,2023-03-14-11:09:49.109076,318.92294570058584,319.23670810088515,318.92294570058584,318.92294570058584,None,318.92294570058584,318.92294570058584,319.7369093807414,None,,,,22030,0002,2023_Mar_14_1104,localizer,2021.1.3,59.245110190012525,
block,objects,objects068.bmp,,,,,0,132,132,132,,,,,,,,,,,,,,,,,,,,,,,,,,,,,,,,,,,,,,,,,,None,,319.7369093807414,None,319.7369093807414,None,2023-03-14-11:09:49.923791,319.73757779970765,320.0366309005767,319.73757779970765,None,None,319.73757779970765,None,320.5367458803579,None,,,,22030,0002,2023_Mar_14_1104,localizer,2021.1.3,59.245110190012525,
block,objects,objects082.bmp,,,,,0,133,133,133,,,,,,,,,,,,,,,,,,,,,,,,,,,,,,,,,,,,,,,,,,None,,320.5367458803579,None,320.5367458803579,None,2023-03-14-11:09:50.725426,320.54585890099406,320.853314999491,320.54585890099406,320.54585890099406,None,320.54585890099406,320.54585890099406,321.35368268061427,None,,,,22030,0002,2023_Mar_14_1104,localizer,2021.1.3,59.245110190012525,
block,objects,objects087.bmp,,,,,0,134,134,134,,,,,,,,,,,,,,,,,,,,,,,,,,,,,,,,,,,,,,,,,,None,,321.35368268061427,None,321.35368268061427,None,2023-03-14-11:09:51.540774,321.35428800061345,321.65325289964676,321.35428800061345,None,None,321.35428800061345,None,322.15353078078476,None,,,,22030,0002,2023_Mar_14_1104,localizer,2021.1.3,59.245110190012525,
block,objects,objects052.bmp,,,,,0,135,135,135,,,,,,,,,,,,,,,,,,,,,,,,,,,,,,,,,,,,,,,,,,None,,322.15353078078476,None,322.15353078078476,None,2023-03-14-11:09:52.342628,322.16736380010843,322.469580700621,322.16736380010843,322.16736380010843,None,322.16736380010843,322.16736380010843,322.9700796796009,None,,,,22030,0002,2023_Mar_14_1104,localizer,2021.1.3,59.245110190012525,
block,objects,objects063.bmp,,,,,0,136,136,136,,,,,,,,,,,,,,,,,,,,,,,,,,,,,,,,,,,,,,,,,,None,,322.9700796796009,None,322.9700796796009,None,2023-03-14-11:09:53.156966,322.97089300118387,323.2698082998395,322.97089300118387,None,None,322.97089300118387,None,323.7704158803448,None,,,,22030,0002,2023_Mar_14_1104,localizer,2021.1.3,59.245110190012525,
block_end,objects,objects033.bmp,,,,,0,137,137,137,,,,,,,,,,,,,,,,,,,,,,,,,,,,,,,,,,,,,,,,,,None,,323.7704158803448,None,323.7704158803448,None,2023-03-14-11:09:53.959498,323.786991501227,324.086766500026,323.786991501227,323.786991501227,None,323.786991501227,323.786991501227,324.58666868004946,None,,,,22030,0002,2023_Mar_14_1104,localizer,2021.1.3,59.245110190012525,
block_start,faces,faces030.bmp,,,,,0,138,138,138,,,,,,,,,,,,,,,,,,,,,,,,,,,,,,,,,,,,,,,,,,t,1.8535562995821238,324.5864819008857,None,324.5864819008857,None,2023-03-14-11:09:56.655943,326.4711016006768,326.77000600099564,326.4711016006768,None,None,326.4711016006768,None,327.2702683812007,None,,,,22030,0002,2023_Mar_14_1104,localizer,2021.1.3,59.245110190012525,
block,faces,faces030.bmp,,,,,0,139,139,139,,,,,,,,,,,,,,,,,,,,,,,,,,,,,,,,,,,,,,,,,,None,,327.2702683812007,None,327.2702683812007,None,2023-03-14-11:09:57.459154,327.2714150995016,327.5867152996361,327.2714150995016,327.2714150995016,None,327.2714150995016,327.2714150995016,328.0870173802599,None,,,,22030,0002,2023_Mar_14_1104,localizer,2021.1.3,59.245110190012525,
block,faces,faces020.bmp,,,,,0,140,140,140,,,,,,,,,,,,,,,,,,,,,,,,,,,,,,,,,,,,,,,,,,None,,328.0870173802599,None,328.0870173802599,None,2023-03-14-11:09:58.274900,328.09806930087507,328.4095962010324,328.09806930087507,None,y,328.09806930087507,None,328.90354488100854,None,0.2059153988957405,,,22030,0002,2023_Mar_14_1104,localizer,2021.1.3,59.245110190012525,
block,faces,faces009.bmp,,,,,0,141,141,141,,,,,,,,,,,,,,,,,,,,,,,,,,,,,,,,,,,,,,,,,,None,,328.90354488100854,None,328.90354488100854,None,2023-03-14-11:09:59.090439,328.90420600026846,329.2034325003624,328.90420600026846,None,None,328.90420600026846,None,329.70401228088883,None,,,,22030,0002,2023_Mar_14_1104,localizer,2021.1.3,59.245110190012525,
block,faces,faces085.bmp,,,,,0,142,142,142,,,,,,,,,,,,,,,,,,,,,,,,,,,,,,,,,,,,,,,,,,None,,329.70401228088883,None,329.70401228088883,None,2023-03-14-11:09:59.893776,329.7068071998656,330.02006830088794,329.7068071998656,329.7068071998656,None,329.7068071998656,329.7068071998656,330.5199316801503,None,,,,22030,0002,2023_Mar_14_1104,localizer,2021.1.3,59.245110190012525,
block,faces,faces027.bmp,,,,,0,143,143,143,,,,,,,,,,,,,,,,,,,,,,,,,,,,,,,,,,,,,,,,,,None,,330.5199316801503,None,330.5199316801503,None,2023-03-14-11:10:00.706832,330.52081930078566,330.8198477011174,330.52081930078566,None,None,330.52081930078566,None,331.3204073799774,None,,,,22030,0002,2023_Mar_14_1104,localizer,2021.1.3,59.245110190012525,
block,faces,faces031.bmp,,,,,0,144,144,144,,,,,,,,,,,,,,,,,,,,,,,,,,,,,,,,,,,,,,,,,,None,,331.3204073799774,None,331.3204073799774,None,2023-03-14-11:10:01.509508,331.32317139953375,331.63728019967675,331.32317139953375,331.32317139953375,None,331.32317139953375,331.32317139953375,332.1373899808153,None,,,,22030,0002,2023_Mar_14_1104,localizer,2021.1.3,59.245110190012525,
block,faces,faces015.bmp,,,,,0,145,145,145,,,,,,,,,,,,,,,,,,,,,,,,,,,,,,,,,,,,,,,,,,None,,332.1373899808153,None,332.1373899808153,None,2023-03-14-11:10:02.325418,332.1395018007606,332.45324300043285,332.1395018007606,None,None,332.1395018007606,None,332.9537463808432,None,,,,22030,0002,2023_Mar_14_1104,localizer,2021.1.3,59.245110190012525,
block,faces,faces034.bmp,,,,,0,146,146,146,,,,,,,,,,,,,,,,,,,,,,,,,,,,,,,,,,,,,,,,,,None,,332.9537463808432,None,332.9537463808432,None,2023-03-14-11:10:03.140860,332.9545013010502,333.25349020026624,332.9545013010502,None,None,332.9545013010502,None,333.75480208043007,None,,,,22030,0002,2023_Mar_14_1104,localizer,2021.1.3,59.245110190012525,
block,faces,faces084.bmp,,,,,0,147,147,147,,,,,,,,,,,,,,,,,,,,,,,,,,,,,,,,,,,,,,,,,,None,,333.75480208043007,None,333.75480208043007,None,2023-03-14-11:10:03.947649,333.77931169979274,334.0872908011079,333.77931169979274,333.77931169979274,None,333.77931169979274,333.77931169979274,334.5703555798158,None,,,,22030,0002,2023_Mar_14_1104,localizer,2021.1.3,59.245110190012525,
block,faces,faces071.bmp,,,,,0,148,148,148,,,,,,,,,,,,,,,,,,,,,,,,,,,,,,,,,,,,,,,,,,None,,334.5703555798158,None,334.5703555798158,None,2023-03-14-11:10:04.757255,334.57100600004196,334.8702112007886,334.57100600004196,None,None,334.57100600004196,None,335.3705063803121,None,,,,22030,0002,2023_Mar_14_1104,localizer,2021.1.3,59.245110190012525,
block,faces,faces053.bmp,,,,,0,149,149,149,,,,,,,,,,,,,,,,,,,,,,,,,,,,,,,,,,,,,,,,,,None,,335.3705063803121,None,335.3705063803121,None,2023-03-14-11:10:05.559574,335.3725725002587,335.68644710071385,335.3725725002587,335.3725725002587,None,335.3725725002587,335.3725725002587,336.1868129806593,None,,,,22030,0002,2023_Mar_14_1104,localizer,2021.1.3,59.245110190012525,
block,faces,faces022.bmp,,,,,0,150,150,150,,,,,,,,,,,,,,,,,,,,,,,,,,,,,,,,,,,,,,,,,,None,,336.1868129806593,None,336.1868129806593,None,2023-03-14-11:10:06.373715,336.19524789974093,336.50332130119205,336.19524789974093,None,None,336.19524789974093,None,337.0035612793639,None,,,,22030,0002,2023_Mar_14_1104,localizer,2021.1.3,59.245110190012525,
block,faces,faces055.bmp,,,,,0,151,151,151,,,,,,,,,,,,,,,,,,,,,,,,,,,,,,,,,,,,,,,,,,None,,337.0035612793639,None,337.0035612793639,None,2023-03-14-11:10:07.190546,337.0043199006468,337.3037238009274,337.0043199006468,None,None,337.0043199006468,None,337.8034861801192,None,,,,22030,0002,2023_Mar_14_1104,localizer,2021.1.3,59.245110190012525,
block_end,faces,faces054.bmp,,,,,0,152,152,152,,,,,,,,,,,,,,,,,,,,,,,,,,,,,,,,,,,,,,,,,,None,,337.8034861801192,None,337.8034861801192,None,2023-03-14-11:10:07.992388,337.8046372998506,338.12019130028784,337.8046372998506,337.8046372998506,None,337.8046372998506,337.8046372998506,338.60374348107723,None,,,,22030,0002,2023_Mar_14_1104,localizer,2021.1.3,59.245110190012525,
block_start,scenes,scenes059.bmp,,,,,0,153,153,153,,,,,,,,,,,,,,,,,,,,,,,,,,,,,,,,,,,,,,,,,,t,1.8367878999561071,338.6033104006201,None,338.6033104006201,None,2023-03-14-11:10:10.655887,340.47086740098894,340.7699228003621,340.47086740098894,None,None,340.47086740098894,None,341.27025738041846,None,,,,22030,0002,2023_Mar_14_1104,localizer,2021.1.3,59.245110190012525,
block,scenes,scenes011.bmp,,,,,0,154,154,154,,,,,,,,,,,,,,,,,,,,,,,,,,,,,,,,,,,,,,,,,,None,,341.27025738041846,None,341.27025738041846,None,2023-03-14-11:10:11.459361,341.27112510055304,341.5868397001177,341.27112510055304,341.27112510055304,None,341.27112510055304,341.27112510055304,342.0723944796249,None,,,,22030,0002,2023_Mar_14_1104,localizer,2021.1.3,59.245110190012525,
block,scenes,scenes063.bmp,,,,,0,155,155,155,,,,,,,,,,,,,,,,,,,,,,,,,,,,,,,,,,,,,,,,,,None,,342.0723944796249,None,342.0723944796249,None,2023-03-14-11:10:12.264122,342.0776754003018,342.3873768001795,342.0776754003018,342.0776754003018,None,342.0776754003018,342.0776754003018,342.88748238105325,None,,,,22030,0002,2023_Mar_14_1104,localizer,2021.1.3,59.245110190012525,
block,scenes,scenes018.bmp,,,,,0,156,156,156,,,,,,,,,,,,,,,,,,,,,,,,,,,,,,,,,,,,,,,,,,None,,342.88748238105325,None,342.88748238105325,None,2023-03-14-11:10:13.074383,342.8944141995162,343.20347169972956,342.8944141995162,None,None,342.8944141995162,None,343.7038223804906,None,,,,22030,0002,2023_Mar_14_1104,localizer,2021.1.3,59.245110190012525,
block,scenes,scenes057.bmp,,,,,0,157,157,157,,,,,,,,,,,,,,,,,,,,,,,,,,,,,,,,,,,,,,,,,,None,,343.7038223804906,None,343.7038223804906,None,2023-03-14-11:10:13.890955,343.71169910021126,344.0201179012656,343.71169910021126,None,None,343.71169910021126,None,344.5207979796454,None,,,,22030,0002,2023_Mar_14_1104,localizer,2021.1.3,59.245110190012525,
block,scenes,scenes042.bmp,,,,,0,158,158,158,,,,,,,,,,,,,,,,,,,,,,,,,,,,,,,,,,,,,,,,,,None,,344.5207979796454,None,344.5207979796454,None,2023-03-14-11:10:14.707848,344.5216122996062,344.82055599987507,344.5216122996062,None,None,344.5216122996062,None,345.3207880804315,None,,,,22030,0002,2023_Mar_14_1104,localizer,2021.1.3,59.245110190012525,
block,scenes,scenes024.bmp,,,,,0,159,159,159,,,,,,,,,,,,,,,,,,,,,,,,,,,,,,,,,,,,,,,,,,None,,345.3207880804315,None,345.3207880804315,None,2023-03-14-11:10:15.515811,345.340510500595,345.65362050011754,345.340510500595,345.340510500595,None,345.340510500595,345.340510500595,346.13713518027214,None,,,,22030,0002,2023_Mar_14_1104,localizer,2021.1.3,59.245110190012525,
block,scenes,scenes010.bmp,,,,,0,160,160,160,,,,,,,,,,,,,,,,,,,,,,,,,,,,,,,,,,,,,,,,,,None,,346.13713518027214,None,346.13713518027214,None,2023-03-14-11:10:16.323736,346.1487847007811,346.453409999609,346.1487847007811,None,None,346.1487847007811,None,346.95383117962626,None,,,,22030,0002,2023_Mar_14_1104,localizer,2021.1.3,59.245110190012525,
block,scenes,scenes023.bmp,,,,,0,161,161,161,,,,,,,,,,,,,,,,,,,,,,,,,,,,,,,,,,,,,,,,,,None,,346.95383117962626,None,346.95383117962626,None,2023-03-14-11:10:17.140744,346.9544232003391,347.25364200025797,346.9544232003391,None,None,346.9544232003391,None,347.75383178014306,None,,,,22030,0002,2023_Mar_14_1104,localizer,2021.1.3,59.245110190012525,
block,scenes,scenes021.bmp,,,,,0,162,162,162,,,,,,,,,,,,,,,,,,,,,,,,,,,,,,,,,,,,,,,,,,None,,347.75383178014306,None,347.75383178014306,None,2023-03-14-11:10:17.942942,347.75438660010695,348.0699317008257,347.75438660010695,347.75438660010695,None,347.75438660010695,347.75438660010695,348.57023127991704,None,,,,22030,0002,2023_Mar_14_1104,localizer,2021.1.3,59.245110190012525,
block,scenes,scenes055.bmp,,,,,0,163,163,163,,,,,,,,,,,,,,,,,,,,,,,,,,,,,,,,,,,,,,,,,,None,,348.57023127991704,None,348.57023127991704,None,2023-03-14-11:10:18.757149,348.57117130048573,348.87008769996464,348.57117130048573,None,None,348.57117130048573,None,349.3706115806475,None,,,,22030,0002,2023_Mar_14_1104,localizer,2021.1.3,59.245110190012525,
block,scenes,scenes039.bmp,,,,,0,164,164,164,,,,,,,,,,,,,,,,,,,,,,,,,,,,,,,,,,,,,,,,,,None,,349.3706115806475,None,349.3706115806475,None,2023-03-14-11:10:19.559518,349.3723665997386,349.68705850094557,349.3723665997386,349.3723665997386,None,349.3723665997386,349.3723665997386,350.18712217975406,None,,,,22030,0002,2023_Mar_14_1104,localizer,2021.1.3,59.245110190012525,
block,scenes,scenes058.bmp,,,,,0,165,165,165,,,,,,,,,,,,,,,,,,,,,,,,,,,,,,,,,,,,,,,,,,None,,350.18712217975406,None,350.18712217975406,None,2023-03-14-11:10:20.374037,350.1878740005195,350.50337829999626,350.1878740005195,None,None,350.1878740005195,None,350.98716278057543,None,,,,22030,0002,2023_Mar_14_1104,localizer,2021.1.3,59.245110190012525,
block,scenes,scenes014.bmp,,,,,0,166,166,166,,,,,,,,,,,,,,,,,,,,,,,,,,,,,,,,,,,,,,,,,,None,,350.98716278057543,None,350.98716278057543,None,2023-03-14-11:10:21.176283,351.0023283995688,351.30339970067143,351.0023283995688,351.0023283995688,None,351.0023283995688,351.0023283995688,351.8036127803847,None,,,,22030,0002,2023_Mar_14_1104,localizer,2021.1.3,59.245110190012525,
block_end,scenes,scenes081.bmp,,,,,0,167,167,167,,,,,,,,,,,,,,,,,,,,,,,,,,,,,,,,,,,,,,,,,,None,,351.8036127803847,None,351.8036127803847,None,2023-03-14-11:10:21.991202,351.8157343994826,352.1202295012772,351.8157343994826,None,None,351.8157343994826,None,352.6202017800882,None,,,,22030,0002,2023_Mar_14_1104,localizer,2021.1.3,59.245110190012525,
block_start,scrambled,scrambled061.bmp,,,,,0,168,168,168,,,,,,,,,,,,,,,,,,,,,,,,,,,,,,,,,,,,,,,,,,t,1.820117298513651,352.6201117001474,None,352.6201117001474,None,2023-03-14-11:10:24.657060,354.4802053011954,354.78677400015295,354.4802053011954,None,None,354.4802053011954,None,355.28710597995666,None,,,,22030,0002,2023_Mar_14_1104,localizer,2021.1.3,59.245110190012525,
block,scrambled,scrambled020.bmp,,,,,0,169,169,169,,,,,,,,,,,,,,,,,,,,,,,,,,,,,,,,,,,,,,,,,,None,,355.28710597995666,None,355.28710597995666,None,2023-03-14-11:10:25.473245,355.29779339954257,355.60399410128593,355.29779339954257,None,None,355.29779339954257,None,356.1042786804959,None,,,,22030,0002,2023_Mar_14_1104,localizer,2021.1.3,59.245110190012525,
block,scrambled,scrambled045.bmp,,,,,0,170,170,170,,,,,,,,,,,,,,,,,,,,,,,,,,,,,,,,,,,,,,,,,,None,,356.1042786804959,None,356.1042786804959,None,2023-03-14-11:10:26.292244,356.10482960008085,356.41998390108347,356.10482960008085,None,None,356.10482960008085,None,356.9038346806541,None,,,,22030,0002,2023_Mar_14_1104,localizer,2021.1.3,59.245110190012525,
block,scrambled,scrambled046.bmp,,,,,0,171,171,171,,,,,,,,,,,,,,,,,,,,,,,,,,,,,,,,,,,,,,,,,,None,,356.9038346806541,None,356.9038346806541,None,2023-03-14-11:10:27.091760,356.91545320115983,357.22007820010185,356.91545320115983,356.91545320115983,None,356.91545320115983,356.91545320115983,357.72042628061024,None,,,,22030,0002,2023_Mar_14_1104,localizer,2021.1.3,59.245110190012525,
block,scrambled,scrambled073.bmp,,,,,0,172,172,172,,,,,,,,,,,,,,,,,,,,,,,,,,,,,,,,,,,,,,,,,,None,,357.72042628061024,None,357.72042628061024,None,2023-03-14-11:10:27.907587,357.7214970011264,358.020809199661,357.7214970011264,None,None,357.7214970011264,None,358.5215722793713,None,,,,22030,0002,2023_Mar_14_1104,localizer,2021.1.3,59.245110190012525,
block,scrambled,scrambled053.bmp,,,,,0,173,173,173,,,,,,,,,,,,,,,,,,,,,,,,,,,,,,,,,,,,,,,,,,None,,358.5215722793713,None,358.5215722793713,None,2023-03-14-11:10:28.711476,358.541853999719,358.85417279973626,358.541853999719,358.541853999719,None,358.541853999719,358.541853999719,359.3370533796027,None,,,,22030,0002,2023_Mar_14_1104,localizer,2021.1.3,59.245110190012525,
block,scrambled,scrambled063.bmp,,,,,0,174,174,174,,,,,,,,,,,,,,,,,,,,,,,,,,,,,,,,,,,,,,,,,,None,,359.3370533796027,None,359.3370533796027,None,2023-03-14-11:10:29.523984,359.3379581011832,359.6369777005166,359.3379581011832,None,None,359.3379581011832,None,360.1384834801778,None,,,,22030,0002,2023_Mar_14_1104,localizer,2021.1.3,59.245110190012525,
block,scrambled,scrambled056.bmp,,,,,0,175,175,175,,,,,,,,,,,,,,,,,,,,,,,,,,,,,,,,,,,,,,,,,,None,,360.1384834801778,None,360.1384834801778,None,2023-03-14-11:10:30.330384,360.16182040050626,360.47031510062516,360.16182040050626,360.16182040050626,None,360.16182040050626,360.16182040050626,360.95402927938846,None,,,,22030,0002,2023_Mar_14_1104,localizer,2021.1.3,59.245110190012525,
block,scrambled,scrambled062.bmp,,,,,0,176,176,176,,,,,,,,,,,,,,,,,,,,,,,,,,,,,,,,,,,,,,,,,,None,,360.95402927938846,None,360.95402927938846,None,2023-03-14-11:10:31.140959,360.96539760008454,361.2712629009038,360.96539760008454,None,None,360.96539760008454,None,361.7705540811643,None,,,,22030,0002,2023_Mar_14_1104,localizer,2021.1.3,59.245110190012525,
block,scrambled,scrambled082.bmp,,,,,0,177,177,177,,,,,,,,,,,,,,,,,,,,,,,,,,,,,,,,,,,,,,,,,,None,,361.7705540811643,None,361.7705540811643,None,2023-03-14-11:10:31.957500,361.7712465003133,362.08664149977267,361.7712465003133,None,None,361.7712465003133,None,362.57043488007037,None,,,,22030,0002,2023_Mar_14_1104,localizer,2021.1.3,59.245110190012525,
block,scrambled,scrambled027.bmp,,,,,0,178,178,178,,,,,,,,,,,,,,,,,,,,,,,,,,,,,,,,,,,,,,,,,,None,,362.57043488007037,None,362.57043488007037,None,2023-03-14-11:10:32.758366,362.5816815998405,362.88664579950273,362.5816815998405,362.5816815998405,None,362.5816815998405,362.5816815998405,363.3872841807082,None,,,,22030,0002,2023_Mar_14_1104,localizer,2021.1.3,59.245110190012525,
block,scrambled,scrambled066.bmp,,,,,0,179,179,179,,,,,,,,,,,,,,,,,,,,,,,,,,,,,,,,,,,,,,,,,,None,,363.3872841807082,None,363.3872841807082,None,2023-03-14-11:10:33.573099,363.38792940042913,363.6877858005464,363.38792940042913,None,None,363.38792940042913,None,364.18832228016106,None,,,,22030,0002,2023_Mar_14_1104,localizer,2021.1.3,59.245110190012525,
block,scrambled,scrambled081.bmp,,,,,0,180,180,180,,,,,,,,,,,,,,,,,,,,,,,,,,,,,,,,,,,,,,,,,,None,,364.18832228016106,None,364.18832228016106,None,2023-03-14-11:10:34.378218,364.2055712006986,364.5206348001957,364.2055712006986,364.2055712006986,None,364.2055712006986,364.2055712006986,365.0044528810307,None,,,,22030,0002,2023_Mar_14_1104,localizer,2021.1.3,59.245110190012525,
block,scrambled,scrambled040.bmp,,,,,0,181,181,181,,,,,,,,,,,,,,,,,,,,,,,,,,,,,,,,,,,,,,,,,,None,,365.0044528810307,None,365.0044528810307,None,2023-03-14-11:10:35.191583,365.00495650060475,365.3040244001895,365.00495650060475,None,None,365.00495650060475,None,365.8042507810518,None,,,,22030,0002,2023_Mar_14_1104,localizer,2021.1.3,59.245110190012525,
block_end,scrambled,scrambled088.bmp,,,,,0,182,182,182,,,,,,,,,,,,,,,,,,,,,,,,,,,,,,,,,,,,,,,,,,None,,365.8042507810518,None,365.8042507810518,None,2023-03-14-11:10:35.993173,365.8055588006973,366.12025470100343,365.8055588006973,365.8055588006973,None,365.8055588006973,365.8055588006973,366.6206730796024,None,,,,22030,0002,2023_Mar_14_1104,localizer,2021.1.3,59.245110190012525,
block_start,scrambled,scrambled087.bmp,,,,,0,183,183,183,,,,,,,,,,,,,,,,,,,,,,,,,,,,,,,,,,,,,,,,,,t,1.8195549994707108,366.6204711012542,None,366.6204711012542,None,2023-03-14-11:10:38.657274,368.4711681995541,368.770231500268,368.4711681995541,None,None,368.4711681995541,None,369.2710678806528,None,,,,22030,0002,2023_Mar_14_1104,localizer,2021.1.3,59.245110190012525,
block,scrambled,scrambled065.bmp,,,,,0,184,184,184,,,,,,,,,,,,,,,,,,,,,,,,,,,,,,,,,,,,,,,,,,None,,369.2710678806528,None,369.2710678806528,None,2023-03-14-11:10:39.460224,369.2806892003864,369.5869172010571,369.2806892003864,369.2806892003864,None,369.2806892003864,369.2806892003864,370.0900193793699,None,,,,22030,0002,2023_Mar_14_1104,localizer,2021.1.3,59.245110190012525,
block,scrambled,scrambled017.bmp,,,,,0,185,185,185,,,,,,,,,,,,,,,,,,,,,,,,,,,,,,,,,,,,,,,,,,None,,370.0900193793699,None,370.0900193793699,None,2023-03-14-11:10:40.276944,370.1032334007323,370.4034829996526,370.1032334007323,None,None,370.1032334007323,None,370.9036392798647,None,,,,22030,0002,2023_Mar_14_1104,localizer,2021.1.3,59.245110190012525,
block,scrambled,scrambled021.bmp,,,,,0,186,186,186,,,,,,,,,,,,,,,,,,,,,,,,,,,,,,,,,,,,,,,,,,None,,370.9036392798647,None,370.9036392798647,None,2023-03-14-11:10:41.089592,370.90466739982367,371.22025329992175,370.90466739982367,None,None,370.90466739982367,None,371.7204307807609,None,,,,22030,0002,2023_Mar_14_1104,localizer,2021.1.3,59.245110190012525,
block,scrambled,scrambled019.bmp,,,,,0,187,187,187,,,,,,,,,,,,,,,,,,,,,,,,,,,,,,,,,,,,,,,,,,None,,371.7204307807609,None,371.7204307807609,None,2023-03-14-11:10:41.906377,371.72207000106573,372.0367152001709,371.72207000106573,None,None,371.72207000106573,None,372.5369749801233,None,,,,22030,0002,2023_Mar_14_1104,localizer,2021.1.3,59.245110190012525,
block,scrambled,scrambled012.bmp,,,,,0,188,188,188,,,,,,,,,,,,,,,,,,,,,,,,,,,,,,,,,,,,,,,,,,None,,372.5369749801233,None,372.5369749801233,None,2023-03-14-11:10:42.722926,372.5387494005263,372.838951099664,372.5387494005263,None,None,372.5387494005263,None,373.353728380613,None,,,,22030,0002,2023_Mar_14_1104,localizer,2021.1.3,59.245110190012525,
block,scrambled,scrambled083.bmp,,,,,0,189,189,189,,,,,,,,,,,,,,,,,,,,,,,,,,,,,,,,,,,,,,,,,,None,,373.353728380613,None,373.353728380613,None,2023-03-14-11:10:43.540671,373.35463199950755,373.65432010032237,373.35463199950755,None,None,373.35463199950755,None,374.1543616807088,None,,,,22030,0002,2023_Mar_14_1104,localizer,2021.1.3,59.245110190012525,
block,scrambled,scrambled023.bmp,,,,,0,190,190,190,,,,,,,,,,,,,,,,,,,,,,,,,,,,,,,,,,,,,,,,,,None,,374.1543616807088,None,374.1543616807088,None,2023-03-14-11:10:44.343499,374.16889959946275,374.46993350051343,374.16889959946275,374.16889959946275,None,374.16889959946275,374.16889959946275,374.97112798001615,None,,,,22030,0002,2023_Mar_14_1104,localizer,2021.1.3,59.245110190012525,
block,scrambled,scrambled040.bmp,,,,,0,191,191,191,,,,,,,,,,,,,,,,,,,,,,,,,,,,,,,,,,,,,,,,,,None,,374.97112798001615,None,374.97112798001615,None,2023-03-14-11:10:45.158067,374.9716950003058,375.2870524004102,374.9716950003058,None,None,374.9716950003058,None,375.77167617958037,None,,,,22030,0002,2023_Mar_14_1104,localizer,2021.1.3,59.245110190012525,
block,scrambled,scrambled040.bmp,,,,,0,192,192,192,,,,,,,,,,,,,,,,,,,,,,,,,,,,,,,,,,,,,,,,,,None,,375.77167617958037,None,375.77167617958037,None,2023-03-14-11:10:45.963722,375.77585379965603,376.0870076995343,375.77585379965603,375.77585379965603,None,375.77585379965603,375.77585379965603,376.5869617803022,None,,,,22030,0002,2023_Mar_14_1104,localizer,2021.1.3,59.245110190012525,
block,scrambled,scrambled050.bmp,,,,,0,193,193,193,,,,,,,,,,,,,,,,,,,,,,,,,,,,,,,,,,,,,,,,,,None,,376.5869617803022,None,376.5869617803022,None,2023-03-14-11:10:46.772918,376.59673030115664,376.90422970056534,376.59673030115664,None,y,376.59673030115664,None,377.4033713812008,None,0.04415710084140301,,,22030,0002,2023_Mar_14_1104,localizer,2021.1.3,59.245110190012525,
block,scrambled,scrambled052.bmp,,,,,0,194,194,194,,,,,,,,,,,,,,,,,,,,,,,,,,,,,,,,,,,,,,,,,,None,,377.4033713812008,None,377.4033713812008,None,2023-03-14-11:10:47.589340,377.4129722006619,377.7205046005547,377.4129722006619,None,None,377.4129722006619,None,378.22051448058335,None,,,,22030,0002,2023_Mar_14_1104,localizer,2021.1.3,59.245110190012525,
block,scrambled,scrambled075.bmp,,,,,0,195,195,195,,,,,,,,,,,,,,,,,,,,,,,,,,,,,,,,,,,,,,,,,,None,,378.22051448058335,None,378.22051448058335,None,2023-03-14-11:10:48.407673,378.2211873997003,378.53699219971895,378.2211873997003,None,None,378.2211873997003,None,379.0204593805596,None,,,,22030,0002,2023_Mar_14_1104,localizer,2021.1.3,59.245110190012525,
block,scrambled,scrambled084.bmp,,,,,0,196,196,196,,,,,,,,,,,,,,,,,,,,,,,,,,,,,,,,,,,,,,,,,,None,,379.0204593805596,None,379.0204593805596,None,2023-03-14-11:10:49.209527,379.02129230089486,379.32097320072353,379.02129230089486,379.02129230089486,None,379.02129230089486,379.02129230089486,379.82083758022634,None,,,,22030,0002,2023_Mar_14_1104,localizer,2021.1.3,59.245110190012525,
block_end,scrambled,scrambled077.bmp,,,,,0,197,197,197,,,,,,,,,,,,,,,,,,,,,,,,,,,,,,,,,,,,,,,,,,None,,379.82083758022634,None,379.82083758022634,None,2023-03-14-11:10:50.009969,379.82290000095963,380.1369586009532,379.82290000095963,379.82290000095963,None,379.82290000095963,379.82290000095963,380.63723088111726,None,,,,22030,0002,2023_Mar_14_1104,localizer,2021.1.3,59.245110190012525,
block_start,objects,objects020.bmp,,,,,0,198,198,198,,,,,,,,,,,,,,,,,,,,,,,,,,,,,,,,,,,,,,,,,,t,1.8030214998871088,380.6370526999235,None,380.6370526999235,None,2023-03-14-11:10:52.654364,382.47306849993765,382.7869851011783,382.47306849993765,None,None,382.47306849993765,None,383.2878546794876,None,,,,22030,0002,2023_Mar_14_1104,localizer,2021.1.3,59.245110190012525,
block,objects,objects068.bmp,,,,,0,199,199,199,,,,,,,,,,,,,,,,,,,,,,,,,,,,,,,,,,,,,,,,,,None,,383.2878546794876,None,383.2878546794876,None,2023-03-14-11:10:53.474805,383.28831649944186,383.603581700474,383.28831649944186,None,None,383.28831649944186,None,384.0883805794641,None,,,,22030,0002,2023_Mar_14_1104,localizer,2021.1.3,59.245110190012525,
block,objects,objects088.bmp,,,,,0,200,200,200,,,,,,,,,,,,,,,,,,,,,,,,,,,,,,,,,,,,,,,,,,None,,384.0883805794641,None,384.0883805794641,None,2023-03-14-11:10:54.280311,384.09245680086315,384.40358719974756,384.09245680086315,384.09245680086315,None,384.09245680086315,384.09245680086315,384.9041488809511,None,,,,22030,0002,2023_Mar_14_1104,localizer,2021.1.3,59.245110190012525,
block,objects,objects043.bmp,,,,,0,201,201,201,,,,,,,,,,,,,,,,,,,,,,,,,,,,,,,,,,,,,,,,,,None,,384.9041488809511,None,384.9041488809511,None,2023-03-14-11:10:55.091104,384.90448920056224,385.20410710014403,384.90448920056224,None,None,384.90448920056224,None,385.70421618092803,None,,,,22030,0002,2023_Mar_14_1104,localizer,2021.1.3,59.245110190012525,
block,objects,objects010.bmp,,,,,0,202,202,202,,,,,,,,,,,,,,,,,,,,,,,,,,,,,,,,,,,,,,,,,,None,,385.70421618092803,None,385.70421618092803,None,2023-03-14-11:10:55.893359,385.717781201005,386.020793100819,385.717781201005,385.717781201005,None,385.717781201005,385.717781201005,386.52040858063845,None,,,,22030,0002,2023_Mar_14_1104,localizer,2021.1.3,59.245110190012525,
block,objects,objects013.bmp,,,,,0,203,203,203,,,,,,,,,,,,,,,,,,,,,,,,,,,,,,,,,,,,,,,,,,None,,386.52040858063845,None,386.52040858063845,None,2023-03-14-11:10:56.707590,386.530226200819,386.8370606005192,386.530226200819,None,None,386.530226200819,None,387.33816958088426,None,,,,22030,0002,2023_Mar_14_1104,localizer,2021.1.3,59.245110190012525,
block,objects,objects022.bmp,,,,,0,204,204,204,,,,,,,,,,,,,,,,,,,,,,,,,,,,,,,,,,,,,,,,,,None,,387.33816958088426,None,387.33816958088426,None,2023-03-14-11:10:57.525648,387.3387467004359,387.65446219965816,387.3387467004359,None,None,387.3387467004359,None,388.1538875797763,None,,,,22030,0002,2023_Mar_14_1104,localizer,2021.1.3,59.245110190012525,
block,objects,objects024.bmp,,,,,0,205,205,205,,,,,,,,,,,,,,,,,,,,,,,,,,,,,,,,,,,,,,,,,,None,,388.1538875797763,None,388.1538875797763,None,2023-03-14-11:10:58.341060,388.15471700020134,388.4546808004379,388.15471700020134,None,None,388.15471700020134,None,388.95407727975396,None,,,,22030,0002,2023_Mar_14_1104,localizer,2021.1.3,59.245110190012525,
block,objects,objects051.bmp,,,,,0,206,206,206,,,,,,,,,,,,,,,,,,,,,,,,,,,,,,,,,,,,,,,,,,None,,388.95407727975396,None,388.95407727975396,None,2023-03-14-11:10:59.143034,388.9618739001453,389.2706859000027,388.9618739001453,388.9618739001453,None,388.9618739001453,388.9618739001453,389.7708988809958,None,,,,22030,0002,2023_Mar_14_1104,localizer,2021.1.3,59.245110190012525,
block,objects,objects011.bmp,,,,,0,207,207,207,,,,,,,,,,,,,,,,,,,,,,,,,,,,,,,,,,,,,,,,,,None,,389.7708988809958,None,389.7708988809958,None,2023-03-14-11:10:59.957860,389.7714747004211,390.0701391994953,389.7714747004211,None,None,389.7714747004211,None,390.5705815801397,None,,,,22030,0002,2023_Mar_14_1104,localizer,2021.1.3,59.245110190012525,
block,objects,objects078.bmp,,,,,0,208,208,208,,,,,,,,,,,,,,,,,,,,,,,,,,,,,,,,,,,,,,,,,,None,,390.5705815801397,None,390.5705815801397,None,2023-03-14-11:11:00.759544,390.5715635996312,390.88673819974065,390.5715635996312,390.5715635996312,None,390.5715635996312,390.5715635996312,391.37471327986566,None,,,,22030,0002,2023_Mar_14_1104,localizer,2021.1.3,59.245110190012525,
block,objects,objects063.bmp,,,,,0,209,209,209,,,,,,,,,,,,,,,,,,,,,,,,,,,,,,,,,,,,,,,,,,None,,391.37471327986566,None,391.37471327986566,None,2023-03-14-11:11:01.566592,391.3782577998936,391.68751819990575,391.3782577998936,391.3782577998936,None,391.3782577998936,391.3782577998936,392.18788508009163,None,,,,22030,0002,2023_Mar_14_1104,localizer,2021.1.3,59.245110190012525,
block,objects,objects081.bmp,,,,,0,210,210,210,,,,,,,,,,,,,,,,,,,,,,,,,,,,,,,,,,,,,,,,,,None,,392.18788508009163,None,392.18788508009163,None,2023-03-14-11:11:02.374728,392.1880315002054,392.5035063009709,392.1880315002054,None,None,392.1880315002054,None,392.9881184795871,None,,,,22030,0002,2023_Mar_14_1104,localizer,2021.1.3,59.245110190012525,
block,objects,objects058.bmp,,,,,0,211,211,211,,,,,,,,,,,,,,,,,,,,,,,,,,,,,,,,,,,,,,,,,,None,,392.9881184795871,None,392.9881184795871,None,2023-03-14-11:11:03.176795,393.0069632008672,393.32131510041654,393.0069632008672,393.0069632008672,None,393.0069632008672,393.0069632008672,393.8050210798159,None,,,,22030,0002,2023_Mar_14_1104,localizer,2021.1.3,59.245110190012525,
block_end,objects,objects018.bmp,,,,,0,212,212,212,,,,,,,,,,,,,,,,,,,,,,,,,,,,,,,,,,,,,,,,,,None,,393.8050210798159,None,393.8050210798159,None,2023-03-14-11:11:03.993130,393.80581429973245,394.12014910019934,393.80581429973245,None,None,393.80581429973245,None,394.62064058016983,None,,,,22030,0002,2023_Mar_14_1104,localizer,2021.1.3,59.245110190012525,
block_start,scenes,scenes079.bmp,,,,,0,213,213,213,,,,,,,,,,,,,,,,,,,,,,,,,,,,,,,,,,,,,,,,,,t,1.8201107010245323,394.6202355995774,None,394.6202355995774,None,2023-03-14-11:11:06.654750,396.4718129001558,396.77118620090187,396.4718129001558,None,None,396.4718129001558,None,397.28738918025044,None,,,,22030,0002,2023_Mar_14_1104,localizer,2021.1.3,59.245110190012525,
block,scenes,scenes064.bmp,,,,,0,214,214,214,,,,,,,,,,,,,,,,,,,,,,,,,,,,,,,,,,,,,,,,,,None,,397.28738918025044,None,397.28738918025044,None,2023-03-14-11:11:07.473456,397.29783960059285,397.6035572011024,397.29783960059285,None,None,397.29783960059285,None,398.10391007978467,None,,,,22030,0002,2023_Mar_14_1104,localizer,2021.1.3,59.245110190012525,
block,scenes,scenes017.bmp,,,,,0,215,215,215,,,,,,,,,,,,,,,,,,,,,,,,,,,,,,,,,,,,,,,,,,None,,398.10391007978467,None,398.10391007978467,None,2023-03-14-11:11:08.290883,398.10499349981546,398.4203025996685,398.10499349981546,None,None,398.10499349981546,None,398.90638518016783,None,,,,22030,0002,2023_Mar_14_1104,localizer,2021.1.3,59.245110190012525,
block,scenes,scenes083.bmp,,,,,0,216,216,216,,,,,,,,,,,,,,,,,,,,,,,,,,,,,,,,,,,,,,,,,,None,,398.90638518016783,None,398.90638518016783,None,2023-03-14-11:11:09.098322,398.91182620078325,399.2203433010727,398.91182620078325,398.91182620078325,None,398.91182620078325,398.91182620078325,399.7214577799663,None,,,,22030,0002,2023_Mar_14_1104,localizer,2021.1.3,59.245110190012525,
block,scenes,scenes061.bmp,,,,,0,217,217,217,,,,,,,,,,,,,,,,,,,,,,,,,,,,,,,,,,,,,,,,,,None,,399.7214577799663,None,399.7214577799663,None,2023-03-14-11:11:09.908404,399.7314999010414,400.03711290098727,399.7314999010414,None,None,399.7314999010414,None,400.5373744802549,None,,,,22030,0002,2023_Mar_14_1104,localizer,2021.1.3,59.245110190012525,
block,scenes,scenes025.bmp,,,,,0,218,218,218,,,,,,,,,,,,,,,,,,,,,,,,,,,,,,,,,,,,,,,,,,None,,400.5373744802549,None,400.5373744802549,None,2023-03-14-11:11:10.723587,400.53833520039916,400.8537157997489,400.53833520039916,None,None,400.53833520039916,None,401.33826367985455,None,,,,22030,0002,2023_Mar_14_1104,localizer,2021.1.3,59.245110190012525,
block,scenes,scenes044.bmp,,,,,0,219,219,219,,,,,,,,,,,,,,,,,,,,,,,,,,,,,,,,,,,,,,,,,,None,,401.33826367985455,None,401.33826367985455,None,2023-03-14-11:11:11.529372,401.3415955007076,401.6538539994508,401.3415955007076,401.3415955007076,None,401.3415955007076,401.3415955007076,402.15417137984184,None,,,,22030,0002,2023_Mar_14_1104,localizer,2021.1.3,59.245110190012525,
block,scenes,scenes077.bmp,,,,,0,220,220,220,,,,,,,,,,,,,,,,,,,,,,,,,,,,,,,,,,,,,,,,,,None,,402.15417137984184,None,402.15417137984184,None,2023-03-14-11:11:12.341172,402.15487509965897,402.4540122002363,402.15487509965897,None,None,402.15487509965897,None,402.9541316801682,None,,,,22030,0002,2023_Mar_14_1104,localizer,2021.1.3,59.245110190012525,
block,scenes,scenes029.bmp,,,,,0,221,221,221,,,,,,,,,,,,,,,,,,,,,,,,,,,,,,,,,,,,,,,,,,None,,402.9541316801682,None,402.9541316801682,None,2023-03-14-11:11:13.142433,402.95482639968395,403.25403469987214,402.95482639968395,402.95482639968395,None,402.95482639968395,402.95482639968395,403.753886581026,None,,,,22030,0002,2023_Mar_14_1104,localizer,2021.1.3,59.245110190012525,
block,scenes,scenes036.bmp,,,,,0,222,222,222,,,,,,,,,,,,,,,,,,,,,,,,,,,,,,,,,,,,,,,,,,None,,403.753886581026,None,403.753886581026,None,2023-03-14-11:11:13.942019,403.75487960129976,404.07019890099764,403.75487960129976,403.75487960129976,None,403.75487960129976,403.75487960129976,404.5542855808511,None,,,,22030,0002,2023_Mar_14_1104,localizer,2021.1.3,59.245110190012525,
block,scenes,scenes053.bmp,,,,,0,223,223,223,,,,,,,,,,,,,,,,,,,,,,,,,,,,,,,,,,,,,,,,,,None,,404.5542855808511,None,404.5542855808511,None,2023-03-14-11:11:14.743270,404.55466859973967,404.8540759999305,404.55466859973967,404.55466859973967,None,404.55466859973967,404.55466859973967,405.35405458007006,None,,,,22030,0002,2023_Mar_14_1104,localizer,2021.1.3,59.245110190012525,
block,scenes,scenes080.bmp,,,,,0,224,224,224,,,,,,,,,,,,,,,,,,,,,,,,,,,,,,,,,,,,,,,,,,None,,405.35405458007006,None,405.35405458007006,None,2023-03-14-11:11:15.542043,405.3547756001353,405.65563970059156,405.3547756001353,405.3547756001353,None,405.3547756001353,405.3547756001353,406.15387217942623,None,,,,22030,0002,2023_Mar_14_1104,localizer,2021.1.3,59.245110190012525,
block,scenes,scenes091.bmp,,,,,0,225,225,225,,,,,,,,,,,,,,,,,,,,,,,,,,,,,,,,,,,,,,,,,,None,,406.15387217942623,None,406.15387217942623,None,2023-03-14-11:11:16.342975,406.1548801995814,406.4554471001029,406.1548801995814,406.1548801995814,None,406.1548801995814,406.1548801995814,406.9542206810787,None,,,,22030,0002,2023_Mar_14_1104,localizer,2021.1.3,59.245110190012525,
block,scenes,scenes090.bmp,,,,,0,226,226,226,,,,,,,,,,,,,,,,,,,,,,,,,,,,,,,,,,,,,,,,,,None,,406.9542206810787,None,406.9542206810787,None,2023-03-14-11:11:17.143200,406.9548843000084,407.2704594004899,406.9548843000084,406.9548843000084,None,406.9548843000084,406.9548843000084,407.7542305799201,None,,,,22030,0002,2023_Mar_14_1104,localizer,2021.1.3,59.245110190012525,
block_end,scenes,scenes027.bmp,,,,,0,227,227,227,,,,,,,,,,,,,,,,,,,,,,,,,,,,,,,,,,,,,,,,,,None,,407.7542305799201,None,407.7542305799201,None,2023-03-14-11:11:17.944215,407.765226399526,408.0705773998052,407.765226399526,407.765226399526,None,407.765226399526,407.765226399526,408.5702803811058,None,,,,22030,0002,2023_Mar_14_1104,localizer,2021.1.3,59.245110190012525,
null_block,null_block,null_block.bmp,,,,,0,228,228,228,,,,,,,,,,,,,,,,,,,,,,,,,,,,,,,,,,,,,,,,,,t,1.870007200166583,408.57028960064054,None,408.57028960064054,None,2023-03-14-11:11:20.642593,410.45561148095874,None,410.45561148095874,None,None,410.45561148095874,None,410.45913119986653,None,,,,22030,0002,2023_Mar_14_1104,localizer,2021.1.3,59.245110190012525,
block_start,faces,faces051.bmp,,,,,0,229,229,229,,,,,,,,,,,,,,,,,,,,,,,,,,,,,,,,,,,,,,,,,,t,1.9698088001459837,422.4706321004778,None,422.4706321004778,None,2023-03-14-11:11:34.657781,424.4713429007679,424.7712989002466,424.4713429007679,None,None,424.4713429007679,None,425.2715295800939,None,,,,22030,0002,2023_Mar_14_1104,localizer,2021.1.3,59.245110190012525,
block,faces,faces048.bmp,,,,,0,230,230,230,,,,,,,,,,,,,,,,,,,,,,,,,,,,,,,,,,,,,,,,,,None,,425.2715295800939,None,425.2715295800939,None,2023-03-14-11:11:35.460595,425.2820494007319,425.5878028012812,425.2820494007319,425.2820494007319,None,425.2820494007319,425.2820494007319,426.0880475794896,None,,,,22030,0002,2023_Mar_14_1104,localizer,2021.1.3,59.245110190012525,
block,faces,faces009.bmp,,,,,0,231,231,231,,,,,,,,,,,,,,,,,,,,,,,,,,,,,,,,,,,,,,,,,,None,,426.0880475794896,None,426.0880475794896,None,2023-03-14-11:11:36.275049,426.0886694006622,426.39119059965014,426.0886694006622,None,None,426.0886694006622,None,426.88857358004896,None,,,,22030,0002,2023_Mar_14_1104,localizer,2021.1.3,59.245110190012525,
block,faces,faces008.bmp,,,,,0,232,232,232,,,,,,,,,,,,,,,,,,,,,,,,,,,,,,,,,,,,,,,,,,None,,426.88857358004896,None,426.88857358004896,None,2023-03-14-11:11:37.078747,426.90604660101235,427.2213486004621,426.90604660101235,426.90604660101235,None,426.90604660101235,426.90604660101235,427.70498267989603,None,,,,22030,0002,2023_Mar_14_1104,localizer,2021.1.3,59.245110190012525,
block,faces,faces067.bmp,,,,,0,233,233,233,,,,,,,,,,,,,,,,,,,,,,,,,,,,,,,,,,,,,,,,,,None,,427.70498267989603,None,427.70498267989603,None,2023-03-14-11:11:37.892979,427.7149436008185,428.02078320086,427.7149436008185,None,None,427.7149436008185,None,428.520871479623,None,,,,22030,0002,2023_Mar_14_1104,localizer,2021.1.3,59.245110190012525,
block,faces,faces010.bmp,,,,,0,234,234,234,,,,,,,,,,,,,,,,,,,,,,,,,,,,,,,,,,,,,,,,,,None,,428.520871479623,None,428.520871479623,None,2023-03-14-11:11:38.707885,428.5292710997164,428.83733490109444,428.5292710997164,None,None,428.5292710997164,None,429.3379638796672,None,,,,22030,0002,2023_Mar_14_1104,localizer,2021.1.3,59.245110190012525,
block,faces,faces036.bmp,,,,,0,235,235,235,,,,,,,,,,,,,,,,,,,,,,,,,,,,,,,,,,,,,,,,,,None,,429.3379638796672,None,429.3379638796672,None,2023-03-14-11:11:39.525157,429.3383210003376,429.6375917997211,429.3383210003376,None,None,429.3383210003376,None,430.13769898060707,None,,,,22030,0002,2023_Mar_14_1104,localizer,2021.1.3,59.245110190012525,
block,faces,faces058.bmp,,,,,0,236,236,236,,,,,,,,,,,,,,,,,,,,,,,,,,,,,,,,,,,,,,,,,,None,,430.13769898060707,None,430.13769898060707,None,2023-03-14-11:11:40.326735,430.13916500099003,430.45389060117304,430.13916500099003,430.13916500099003,None,430.13916500099003,430.13916500099003,430.95444198008624,None,,,,22030,0002,2023_Mar_14_1104,localizer,2021.1.3,59.245110190012525,
block,faces,faces071.bmp,,,,,0,237,237,237,,,,,,,,,,,,,,,,,,,,,,,,,,,,,,,,,,,,,,,,,,None,,430.95444198008624,None,430.95444198008624,None,2023-03-14-11:11:41.141654,430.95512600056827,431.2546165008098,430.95512600056827,None,None,430.95512600056827,None,431.75490327980367,None,,,,22030,0002,2023_Mar_14_1104,localizer,2021.1.3,59.245110190012525,
block,faces,faces039.bmp,,,,,0,238,238,238,,,,,,,,,,,,,,,,,,,,,,,,,,,,,,,,,,,,,,,,,,None,,431.75490327980367,None,431.75490327980367,None,2023-03-14-11:11:41.944105,431.75715310126543,432.0713689997792,431.75715310126543,431.75715310126543,None,431.75715310126543,431.75715310126543,432.57097427975384,None,,,,22030,0002,2023_Mar_14_1104,localizer,2021.1.3,59.245110190012525,
block,faces,faces017.bmp,,,,,0,239,239,239,,,,,,,,,,,,,,,,,,,,,,,,,,,,,,,,,,,,,,,,,,None,,432.57097427975384,None,432.57097427975384,None,2023-03-14-11:11:42.757992,432.57159600034356,432.8706534001976,432.57159600034356,None,None,432.57159600034356,None,433.38730577994136,None,,,,22030,0002,2023_Mar_14_1104,localizer,2021.1.3,59.245110190012525,
block,faces,faces077.bmp,,,,,0,240,240,240,,,,,,,,,,,,,,,,,,,,,,,,,,,,,,,,,,,,,,,,,,None,,433.38730577994136,None,433.38730577994136,None,2023-03-14-11:11:43.573326,433.3890346996486,433.70464910008013,433.3890346996486,None,None,433.3890346996486,None,434.210694781132,None,,,,22030,0002,2023_Mar_14_1104,localizer,2021.1.3,59.245110190012525,
block,faces,faces081.bmp,,,,,0,241,241,241,,,,,,,,,,,,,,,,,,,,,,,,,,,,,,,,,,,,,,,,,,None,,434.210694781132,None,434.210694781132,None,2023-03-14-11:11:44.404902,434.2289632000029,434.53764490038157,434.2289632000029,None,None,434.2289632000029,None,435.0211215807125,None,,,,22030,0002,2023_Mar_14_1104,localizer,2021.1.3,59.245110190012525,
block,faces,faces049.bmp,,,,,0,242,242,242,,,,,,,,,,,,,,,,,,,,,,,,,,,,,,,,,,,,,,,,,,None,,435.0211215807125,None,435.0211215807125,None,2023-03-14-11:11:45.208329,435.02188619971275,435.32094700075686,435.02188619971275,None,None,435.02188619971275,None,435.82095368076114,None,,,,22030,0002,2023_Mar_14_1104,localizer,2021.1.3,59.245110190012525,
block_end,faces,faces066.bmp,,,,,0,243,243,243,,,,,,,,,,,,,,,,,,,,,,,,,,,,,,,,,,,,,,,,,,None,,435.82095368076114,None,435.82095368076114,None,2023-03-14-11:11:46.009993,435.8217901997268,436.12086030095816,435.8217901997268,435.8217901997268,None,435.8217901997268,435.8217901997268,436.6212258810177,None,,,,22030,0002,2023_Mar_14_1104,localizer,2021.1.3,59.245110190012525,
,,,,,,,,,,,,,,,,,,,,,,,,,,,,,,,,,,,,,,,,,,,,,,,,,,,,,,,,,,,,,,,,,,,,,436.6221372000873,None,,,,,,,
