block_type,condition,img_name,Button.thisRepN,Button.thisTrialN,Button.thisN,Button.thisIndex,trials.thisRepN,trials.thisTrialN,trials.thisN,trials.thisIndex,Ready_experimenter_text.started,Ready_experimenter_text.stopped,Ready_experimenter_resp.keys,Ready_experimenter_resp.rt,Ready_experimenter_resp.started,Ready_experimenter_resp.stopped,Alignment_background.started,Alignment_background.stopped,Alignment_image.started,Alignment_image.stopped,Alignment_resp.keys,Alignment_resp.rt,Alignment_resp.started,Alignment_resp.stopped,Button_text.started,Button_text.stopped,Index_text.started,Index_text.stopped,Index_resp.keys,Index_resp.rt,Index_resp.started,Index_resp.stopped,Middle_text.started,Middle_text.stopped,Middle_resp.keys,Middle_resp.rt,Middle_resp.started,Middle_resp.stopped,Repeat_text.started,Repeat_text.stopped,Repeat_resp.keys,Repeat_resp.corr,Repeat_resp.rt,Repeat_resp.started,Repeat_resp.stopped,instruction_text.started,instruction_text.stopped,key_resp.keys,key_resp.rt,key_resp.started,key_resp.stopped,scanner_t.keys,scanner_t.rt,scanner_t.started,scanner_t.stopped,fixation_wait_for_t.started,fixation_wait_for_t.stopped,real_timestamp_trial_start,image.started,image.stopped,fixation.started,fixation.stopped,repeat_response.keys,repeat_response.started,repeat_response.stopped,fixation_null.started,fixation_null.stopped,repeat_response.rt,end_text.started,end_text.stopped,participant,run,date,expName,psychopyVersion,frameRate,
,,,,,,,,,,,11.448273699963465,None,return,462.81488950003404,11.448273699963465,None,,,,,,,,,,,,,,,,,,,,,,,,,,,,,,,,,,,,,,,,,,,,,,,,,,,,,,,21009,0002,2022_Aug_05_1142,localizer,2021.1.3,60.91692153500789,
,,,,,,,,,,,,,,,,,474.3114304000046,None,474.3114304000046,None,return,0.8415072000352666,474.3114304000046,None,,,,,,,,,,,,,,,,,,,,,,,,,,,,,,,,,,,,,,,,,,,,,,,21009,0002,2022_Aug_05_1142,localizer,2021.1.3,60.91692153500789,
,,,0,0,0,0,,,,,,,,,,,,,,,,,,,475.1639688999858,None,476.1660011999775,None,y,2.774473399971612,476.1660011999775,None,478.9639677000232,None,b,1.67737930000294,478.9639677000232,None,480.6641554000089,None,n,0,1.4427328000310808,480.6641554000089,None,,,,,,,,,,,,,,,,,,,,,,,,,,21009,0002,2022_Aug_05_1142,localizer,2021.1.3,60.91692153500789,
,,,,,,,,,,,,,,,,,,,,,,,,,,,,,,,,,,,,,,,,,,,,,,482.1355453999713,None,y,24.336652699974366,482.1355453999713,None,,,,,,,,,,,,,,,,,,,,21009,0002,2022_Aug_05_1142,localizer,2021.1.3,60.91692153500789,
block_start,objects,objects001.bmp,,,,,0,0,0,0,,,,,,,,,,,,,,,,,,,,,,,,,,,,,,,,,,,,,,,,,,t,17.2368628999684,506.5336057000095,None,506.5336057000095,None,2022-08-05-11:50:59.636009,523.7985129000153,524.1140752000501,523.7985129000153,None,None,523.7985129000153,None,524.6139823899721,None,,,,21009,0002,2022_Aug_05_1142,localizer,2021.1.3,60.91692153500789,
block,objects,objects066.bmp,,,,,0,1,1,1,,,,,,,,,,,,,,,,,,,,,,,,,,,,,,,,,,,,,,,,,,None,,524.6139823899721,None,524.6139823899721,None,2022-08-05-11:51:00.454323,524.615462900023,524.930736899958,524.615462900023,None,None,524.615462900023,None,525.4146941899671,None,,,,21009,0002,2022_Aug_05_1142,localizer,2021.1.3,60.91692153500789,
block,objects,objects064.bmp,,,,,0,2,2,2,,,,,,,,,,,,,,,,,,,,,,,,,,,,,,,,,,,,,,,,,,None,,525.4146941899671,None,525.4146941899671,None,2022-08-05-11:51:01.258193,525.4249097999418,525.7307343999855,525.4249097999418,525.4249097999418,None,525.4249097999418,525.4249097999418,526.2309810900479,None,,,,21009,0002,2022_Aug_05_1142,localizer,2021.1.3,60.91692153500789,
block,objects,objects081.bmp,,,,,0,3,3,3,,,,,,,,,,,,,,,,,,,,,,,,,,,,,,,,,,,,,,,,,,None,,526.2309810900479,None,526.2309810900479,None,2022-08-05-11:51:02.070286,526.2401583000319,526.5471060000127,526.2401583000319,None,None,526.2401583000319,None,527.0474977900158,None,,,,21009,0002,2022_Aug_05_1142,localizer,2021.1.3,60.91692153500789,
block,objects,objects028.bmp,,,,,0,4,4,4,,,,,,,,,,,,,,,,,,,,,,,,,,,,,,,,,,,,,,,,,,None,,527.0474977900158,None,527.0474977900158,None,2022-08-05-11:51:02.887052,527.0522045999533,527.3635591999628,527.0522045999533,None,None,527.0522045999533,None,527.8655319900136,None,,,,21009,0002,2022_Aug_05_1142,localizer,2021.1.3,60.91692153500789,
block,objects,objects034.bmp,,,,,0,5,5,5,,,,,,,,,,,,,,,,,,,,,,,,,,,,,,,,,,,,,,,,,,None,,527.8655319900136,None,527.8655319900136,None,2022-08-05-11:51:03.706969,527.878142099944,528.1806792999851,527.878142099944,None,None,527.878142099944,None,528.6814905900392,None,,,,21009,0002,2022_Aug_05_1142,localizer,2021.1.3,60.91692153500789,
block,objects,objects034.bmp,,,,,0,6,6,6,,,,,,,,,,,,,,,,,,,,,,,,,,,,,,,,,,,,,,,,,,None,,528.6814905900392,None,528.6814905900392,None,2022-08-05-11:51:04.521979,528.6819424999412,528.9803318999475,528.6819424999412,None,y,528.6819424999412,None,529.4847482899786,None,0.40925250004511327,,,21009,0002,2022_Aug_05_1142,localizer,2021.1.3,60.91692153500789,
block,objects,objects002.bmp,,,,,0,7,7,7,,,,,,,,,,,,,,,,,,,,,,,,,,,,,,,,,,,,,,,,,,None,,529.4847482899786,None,529.4847482899786,None,2022-08-05-11:51:05.333927,529.5027592999395,529.8141714000376,529.5027592999395,529.5027592999395,None,529.5027592999395,529.5027592999395,530.2977655899595,None,,,,21009,0002,2022_Aug_05_1142,localizer,2021.1.3,60.91692153500789,
block,objects,objects073.bmp,,,,,0,8,8,8,,,,,,,,,,,,,,,,,,,,,,,,,,,,,,,,,,,,,,,,,,None,,530.2977655899595,None,530.2977655899595,None,2022-08-05-11:51:06.137068,530.2982427999377,530.5971767000156,530.2982427999377,None,None,530.2982427999377,None,531.0977967900108,None,,,,21009,0002,2022_Aug_05_1142,localizer,2021.1.3,60.91692153500789,
block,objects,objects015.bmp,,,,,0,9,9,9,,,,,,,,,,,,,,,,,,,,,,,,,,,,,,,,,,,,,,,,,,None,,531.0977967900108,None,531.0977967900108,None,2022-08-05-11:51:06.938092,531.0982500000391,531.3973306999542,531.0982500000391,531.0982500000391,None,531.0982500000391,531.0982500000391,531.8980275899521,None,,,,21009,0002,2022_Aug_05_1142,localizer,2021.1.3,60.91692153500789,
block,objects,objects033.bmp,,,,,0,10,10,10,,,,,,,,,,,,,,,,,,,,,,,,,,,,,,,,,,,,,,,,,,None,,531.8980275899521,None,531.8980275899521,None,2022-08-05-11:51:07.740317,531.910592500004,532.2139168999856,531.910592500004,531.910592500004,None,531.910592500004,531.910592500004,532.7173948899726,None,,,,21009,0002,2022_Aug_05_1142,localizer,2021.1.3,60.91692153500789,
block,objects,objects055.bmp,,,,,0,11,11,11,,,,,,,,,,,,,,,,,,,,,,,,,,,,,,,,,,,,,,,,,,None,,532.7173948899726,None,532.7173948899726,None,2022-08-05-11:51:08.560727,532.7311475999886,533.0311798000475,532.7311475999886,None,None,532.7311475999886,None,533.5310863899649,None,,,,21009,0002,2022_Aug_05_1142,localizer,2021.1.3,60.91692153500789,
block,objects,objects026.bmp,,,,,0,12,12,12,,,,,,,,,,,,,,,,,,,,,,,,,,,,,,,,,,,,,,,,,,None,,533.5310863899649,None,533.5310863899649,None,2022-08-05-11:51:09.370985,533.5413581000175,533.8474832000211,533.5413581000175,None,None,533.5413581000175,None,534.3478837899747,None,,,,21009,0002,2022_Aug_05_1142,localizer,2021.1.3,60.91692153500789,
block,objects,objects032.bmp,,,,,0,13,13,13,,,,,,,,,,,,,,,,,,,,,,,,,,,,,,,,,,,,,,,,,,None,,534.3478837899747,None,534.3478837899747,None,2022-08-05-11:51:10.187183,534.3482286999933,534.6474781000288,534.3482286999933,None,None,534.3482286999933,None,535.1484567899606,None,,,,21009,0002,2022_Aug_05_1142,localizer,2021.1.3,60.91692153500789,
block_end,objects,objects059.bmp,,,,,0,14,14,14,,,,,,,,,,,,,,,,,,,,,,,,,,,,,,,,,,,,,,,,,,None,,535.1484567899606,None,535.1484567899606,None,2022-08-05-11:51:10.990739,535.1511322000297,535.4646043999819,535.1511322000297,535.1511322000297,None,535.1511322000297,535.1511322000297,535.9649917899515,None,,,,21009,0002,2022_Aug_05_1142,localizer,2021.1.3,60.91692153500789,
null_block,null_block,null_block.bmp,,,,,0,15,15,15,,,,,,,,,,,,,,,,,,,,,,,,,,,,,,,,,,,,,,,,,,t,1.8055058000609279,535.9648451999528,None,535.9648451999528,None,2022-08-05-11:51:13.636436,537.7979484899552,None,537.7979484899552,None,None,537.7979484899552,None,537.8013809999684,None,,,,21009,0002,2022_Aug_05_1142,localizer,2021.1.3,60.91692153500789,
block_start,scrambled,scrambled019.bmp,,,,,0,16,16,16,,,,,,,,,,,,,,,,,,,,,,,,,,,,,,,,,,,,,,,,,,t,1.9564509000629187,549.8137941999594,None,549.8137941999594,None,2022-08-05-11:51:27.638290,551.8083645999432,552.1147469000425,551.8083645999432,None,None,551.8083645999432,None,552.6144461900112,None,,,,21009,0002,2022_Aug_05_1142,localizer,2021.1.3,60.91692153500789,
block,scrambled,scrambled018.bmp,,,,,0,17,17,17,,,,,,,,,,,,,,,,,,,,,,,,,,,,,,,,,,,,,,,,,,None,,552.6144461900112,None,552.6144461900112,None,2022-08-05-11:51:28.453749,552.6149457000429,552.914197599981,552.6149457000429,None,None,552.6149457000429,None,553.4146637899685,None,,,,21009,0002,2022_Aug_05_1142,localizer,2021.1.3,60.91692153500789,
block,scrambled,scrambled071.bmp,,,,,0,18,18,18,,,,,,,,,,,,,,,,,,,,,,,,,,,,,,,,,,,,,,,,,,None,,553.4146637899685,None,553.4146637899685,None,2022-08-05-11:51:29.254959,553.4149022999918,553.7143017000053,553.4149022999918,553.4149022999918,None,553.4149022999918,553.4149022999918,554.2147061899886,None,,,,21009,0002,2022_Aug_05_1142,localizer,2021.1.3,60.91692153500789,
block,scrambled,scrambled051.bmp,,,,,0,19,19,19,,,,,,,,,,,,,,,,,,,,,,,,,,,,,,,,,,,,,,,,,,None,,554.2147061899886,None,554.2147061899886,None,2022-08-05-11:51:30.055341,554.2164205999579,554.5305240999442,554.2164205999579,554.2164205999579,y,554.2164205999579,554.2164205999579,555.0317336900043,None,0.45770100003574044,,,21009,0002,2022_Aug_05_1142,localizer,2021.1.3,60.91692153500789,
block,scrambled,scrambled012.bmp,,,,,0,20,20,20,,,,,,,,,,,,,,,,,,,,,,,,,,,,,,,,,,,,,,,,,,None,,555.0317336900043,None,555.0317336900043,None,2022-08-05-11:51:30.872229,555.0429733999772,555.347334299935,555.0429733999772,None,None,555.0429733999772,None,555.8481445899815,None,,,,21009,0002,2022_Aug_05_1142,localizer,2021.1.3,60.91692153500789,
block,scrambled,scrambled053.bmp,,,,,0,21,21,21,,,,,,,,,,,,,,,,,,,,,,,,,,,,,,,,,,,,,,,,,,None,,555.8481445899815,None,555.8481445899815,None,2022-08-05-11:51:31.687444,555.8483351999894,556.1476415999932,555.8483351999894,None,None,555.8483351999894,None,556.6483736900263,None,,,,21009,0002,2022_Aug_05_1142,localizer,2021.1.3,60.91692153500789,
block,scrambled,scrambled067.bmp,,,,,0,22,22,22,,,,,,,,,,,,,,,,,,,,,,,,,,,,,,,,,,,,,,,,,,None,,556.6483736900263,None,556.6483736900263,None,2022-08-05-11:51:32.490661,556.6612226000289,556.9704443999799,556.6612226000289,556.6612226000289,None,556.6612226000289,556.6612226000289,557.4651201899978,None,,,,21009,0002,2022_Aug_05_1142,localizer,2021.1.3,60.91692153500789,
block,scrambled,scrambled043.bmp,,,,,0,23,23,23,,,,,,,,,,,,,,,,,,,,,,,,,,,,,,,,,,,,,,,,,,None,,557.4651201899978,None,557.4651201899978,None,2022-08-05-11:51:33.305411,557.466408599983,557.7808069000021,557.466408599983,None,None,557.466408599983,None,558.2813650899916,None,,,,21009,0002,2022_Aug_05_1142,localizer,2021.1.3,60.91692153500789,
block,scrambled,scrambled058.bmp,,,,,0,24,24,24,,,,,,,,,,,,,,,,,,,,,,,,,,,,,,,,,,,,,,,,,,None,,558.2813650899916,None,558.2813650899916,None,2022-08-05-11:51:34.120666,558.281703799963,558.5807888000272,558.281703799963,None,None,558.281703799963,None,559.0839952900424,None,,,,21009,0002,2022_Aug_05_1142,localizer,2021.1.3,60.91692153500789,
block,scrambled,scrambled046.bmp,,,,,0,25,25,25,,,,,,,,,,,,,,,,,,,,,,,,,,,,,,,,,,,,,,,,,,None,,559.0839952900424,None,559.0839952900424,None,2022-08-05-11:51:34.924820,559.0913244000403,559.3974212999456,559.0913244000403,559.0913244000403,None,559.0913244000403,559.0913244000403,559.8978322899784,None,,,,21009,0002,2022_Aug_05_1142,localizer,2021.1.3,60.91692153500789,
block,scrambled,scrambled007.bmp,,,,,0,26,26,26,,,,,,,,,,,,,,,,,,,,,,,,,,,,,,,,,,,,,,,,,,None,,559.8978322899784,None,559.8978322899784,None,2022-08-05-11:51:35.737136,559.8983562999638,560.197595500038,559.8983562999638,None,None,559.8983562999638,None,560.6980262899888,None,,,,21009,0002,2022_Aug_05_1142,localizer,2021.1.3,60.91692153500789,
block,scrambled,scrambled010.bmp,,,,,0,27,27,27,,,,,,,,,,,,,,,,,,,,,,,,,,,,,,,,,,,,,,,,,,None,,560.6980262899888,None,560.6980262899888,None,2022-08-05-11:51:36.539549,560.7098633999703,561.0139546999708,560.7098633999703,560.7098633999703,None,560.7098633999703,560.7098633999703,561.5148476899485,None,,,,21009,0002,2022_Aug_05_1142,localizer,2021.1.3,60.91692153500789,
block,scrambled,scrambled020.bmp,,,,,0,28,28,28,,,,,,,,,,,,,,,,,,,,,,,,,,,,,,,,,,,,,,,,,,None,,561.5148476899485,None,561.5148476899485,None,2022-08-05-11:51:37.355167,561.515171200037,561.8145698000444,561.515171200037,None,None,561.515171200037,None,562.3157459899667,None,,,,21009,0002,2022_Aug_05_1142,localizer,2021.1.3,60.91692153500789,
block,scrambled,scrambled041.bmp,,,,,0,29,29,29,,,,,,,,,,,,,,,,,,,,,,,,,,,,,,,,,,,,,,,,,,None,,562.3157459899667,None,562.3157459899667,None,2022-08-05-11:51:38.161017,562.321648000041,562.6315574999899,562.321648000041,562.321648000041,None,562.321648000041,562.321648000041,563.1374566900195,None,,,,21009,0002,2022_Aug_05_1142,localizer,2021.1.3,60.91692153500789,
block_end,scrambled,scrambled021.bmp,,,,,0,30,30,30,,,,,,,,,,,,,,,,,,,,,,,,,,,,,,,,,,,,,,,,,,None,,563.1374566900195,None,563.1374566900195,None,2022-08-05-11:51:38.985724,563.147895699949,563.4481449000305,563.147895699949,None,None,563.147895699949,None,563.9476761900005,None,,,,21009,0002,2022_Aug_05_1142,localizer,2021.1.3,60.91692153500789,
block_start,faces,faces006.bmp,,,,,0,31,31,31,,,,,,,,,,,,,,,,,,,,,,,,,,,,,,,,,,,,,,,,,,t,1.8229131000116467,563.9474662999855,None,563.9474662999855,None,2022-08-05-11:51:41.636187,565.8037154000485,566.1141313000116,565.8037154000485,None,None,565.8037154000485,None,566.6151047900203,None,,,,21009,0002,2022_Aug_05_1142,localizer,2021.1.3,60.91692153500789,
block,faces,faces085.bmp,,,,,0,32,32,32,,,,,,,,,,,,,,,,,,,,,,,,,,,,,,,,,,,,,,,,,,None,,566.6151047900203,None,566.6151047900203,None,2022-08-05-11:51:42.455584,566.615450900048,566.9146155000199,566.615450900048,None,None,566.615450900048,None,567.4310962899472,None,,,,21009,0002,2022_Aug_05_1142,localizer,2021.1.3,60.91692153500789,
block,faces,faces009.bmp,,,,,0,33,33,33,,,,,,,,,,,,,,,,,,,,,,,,,,,,,,,,,,,,,,,,,,None,,567.4310962899472,None,567.4310962899472,None,2022-08-05-11:51:43.271002,567.4315693000099,567.7311779999873,567.4315693000099,None,None,567.4315693000099,None,568.2313817899558,None,,,,21009,0002,2022_Aug_05_1142,localizer,2021.1.3,60.91692153500789,
block,faces,faces047.bmp,,,,,0,34,34,34,,,,,,,,,,,,,,,,,,,,,,,,,,,,,,,,,,,,,,,,,,None,,568.2313817899558,None,568.2313817899558,None,2022-08-05-11:51:44.072881,568.2329587000422,568.537177399965,568.2329587000422,568.2329587000422,None,568.2329587000422,568.2329587000422,569.0335208899924,None,,,,21009,0002,2022_Aug_05_1142,localizer,2021.1.3,60.91692153500789,
block,faces,faces030.bmp,,,,,0,35,35,35,,,,,,,,,,,,,,,,,,,,,,,,,,,,,,,,,,,,,,,,,,None,,569.0335208899924,None,569.0335208899924,None,2022-08-05-11:51:44.878792,569.0393901000498,569.3477907000342,569.0393901000498,569.0393901000498,None,569.0393901000498,569.0393901000498,569.8485536899534,None,,,,21009,0002,2022_Aug_05_1142,localizer,2021.1.3,60.91692153500789,
block,faces,faces036.bmp,,,,,0,36,36,36,,,,,,,,,,,,,,,,,,,,,,,,,,,,,,,,,,,,,,,,,,None,,569.8485536899534,None,569.8485536899534,None,2022-08-05-11:51:45.688847,569.8597105999943,570.1640149999876,569.8597105999943,None,None,569.8597105999943,None,570.6645858899574,None,,,,21009,0002,2022_Aug_05_1142,localizer,2021.1.3,60.91692153500789,
block,faces,faces081.bmp,,,,,0,37,37,37,,,,,,,,,,,,,,,,,,,,,,,,,,,,,,,,,,,,,,,,,,None,,570.6645858899574,None,570.6645858899574,None,2022-08-05-11:51:46.504612,570.6650861999951,570.9642107000109,570.6650861999951,None,None,570.6650861999951,None,571.4647158899461,None,,,,21009,0002,2022_Aug_05_1142,localizer,2021.1.3,60.91692153500789,
block,faces,faces044.bmp,,,,,0,38,38,38,,,,,,,,,,,,,,,,,,,,,,,,,,,,,,,,,,,,,,,,,,None,,571.4647158899461,None,571.4647158899461,None,2022-08-05-11:51:47.312001,571.4823712999932,571.7975145999808,571.4823712999932,571.4823712999932,None,571.4823712999932,571.4823712999932,572.2814587900066,None,,,,21009,0002,2022_Aug_05_1142,localizer,2021.1.3,60.91692153500789,
block,faces,faces050.bmp,,,,,0,39,39,39,,,,,,,,,,,,,,,,,,,,,,,,,,,,,,,,,,,,,,,,,,None,,572.2814587900066,None,572.2814587900066,None,2022-08-05-11:51:48.120758,572.2920834999532,572.5975923000369,572.2920834999532,None,None,572.2920834999532,None,573.0979119899566,None,,,,21009,0002,2022_Aug_05_1142,localizer,2021.1.3,60.91692153500789,
block,faces,faces002.bmp,,,,,0,40,40,40,,,,,,,,,,,,,,,,,,,,,,,,,,,,,,,,,,,,,,,,,,None,,573.0979119899566,None,573.0979119899566,None,2022-08-05-11:51:48.937212,573.0985032999888,573.3975484999828,573.0985032999888,None,None,573.0985032999888,None,573.8978567900485,None,,,,21009,0002,2022_Aug_05_1142,localizer,2021.1.3,60.91692153500789,
block,faces,faces005.bmp,,,,,0,41,41,41,,,,,,,,,,,,,,,,,,,,,,,,,,,,,,,,,,,,,,,,,,None,,573.8978567900485,None,573.8978567900485,None,2022-08-05-11:51:49.739310,573.9081932000117,574.2142323999433,573.9081932000117,573.9081932000117,None,573.9081932000117,573.9081932000117,574.7145882900222,None,,,,21009,0002,2022_Aug_05_1142,localizer,2021.1.3,60.91692153500789,
block,faces,faces072.bmp,,,,,0,42,42,42,,,,,,,,,,,,,,,,,,,,,,,,,,,,,,,,,,,,,,,,,,None,,574.7145882900222,None,574.7145882900222,None,2022-08-05-11:51:50.553892,574.7242620999459,575.0373815000057,574.7242620999459,None,None,574.7242620999459,None,575.5311624899623,None,,,,21009,0002,2022_Aug_05_1142,localizer,2021.1.3,60.91692153500789,
block,faces,faces033.bmp,,,,,0,43,43,43,,,,,,,,,,,,,,,,,,,,,,,,,,,,,,,,,,,,,,,,,,None,,575.5311624899623,None,575.5311624899623,None,2022-08-05-11:51:51.370747,575.5477281999774,575.8474423999432,575.5477281999774,None,None,575.5477281999774,None,576.3488235900295,None,,,,21009,0002,2022_Aug_05_1142,localizer,2021.1.3,60.91692153500789,
block,faces,faces054.bmp,,,,,0,44,44,44,,,,,,,,,,,,,,,,,,,,,,,,,,,,,,,,,,,,,,,,,,None,,576.3488235900295,None,576.3488235900295,None,2022-08-05-11:51:52.190307,576.3616883000359,576.6641800999641,576.3616883000359,None,None,576.3616883000359,None,577.1651422900031,None,,,,21009,0002,2022_Aug_05_1142,localizer,2021.1.3,60.91692153500789,
block_end,faces,faces088.bmp,,,,,0,45,45,45,,,,,,,,,,,,,,,,,,,,,,,,,,,,,,,,,,,,,,,,,,None,,577.1651422900031,None,577.1651422900031,None,2022-08-05-11:51:53.005435,577.1736156999832,577.4808722999878,577.1736156999832,None,None,577.1736156999832,None,577.9817435900331,None,,,,21009,0002,2022_Aug_05_1142,localizer,2021.1.3,60.91692153500789,
block_start,scenes,scenes050.bmp,,,,,0,46,46,46,,,,,,,,,,,,,,,,,,,,,,,,,,,,,,,,,,,,,,,,,,t,1.7890829000389203,577.9812224999769,None,577.9812224999769,None,2022-08-05-11:51:55.637398,579.8084373000311,580.1140909999376,579.8084373000311,None,None,579.8084373000311,None,580.6153047900298,None,,,,21009,0002,2022_Aug_05_1142,localizer,2021.1.3,60.91692153500789,
block,scenes,scenes029.bmp,,,,,0,47,47,47,,,,,,,,,,,,,,,,,,,,,,,,,,,,,,,,,,,,,,,,,,None,,580.6153047900298,None,580.6153047900298,None,2022-08-05-11:51:56.455711,580.6169994999655,580.9315289999358,580.6169994999655,None,None,580.6169994999655,None,581.4311799900024,None,,,,21009,0002,2022_Aug_05_1142,localizer,2021.1.3,60.91692153500789,
block,scenes,scenes031.bmp,,,,,0,48,48,48,,,,,,,,,,,,,,,,,,,,,,,,,,,,,,,,,,,,,,,,,,None,,581.4311799900024,None,581.4311799900024,None,2022-08-05-11:51:57.270485,581.4409656999633,581.7476301999995,581.4409656999633,None,None,581.4409656999633,None,582.2490439899848,None,,,,21009,0002,2022_Aug_05_1142,localizer,2021.1.3,60.91692153500789,
block,scenes,scenes047.bmp,,,,,0,49,49,49,,,,,,,,,,,,,,,,,,,,,,,,,,,,,,,,,,,,,,,,,,None,,582.2490439899848,None,582.2490439899848,None,2022-08-05-11:51:58.089982,582.2516200999962,582.5642817999469,582.2516200999962,None,None,582.2516200999962,None,583.0655503899907,None,,,,21009,0002,2022_Aug_05_1142,localizer,2021.1.3,60.91692153500789,
block,scenes,scenes081.bmp,,,,,0,50,50,50,,,,,,,,,,,,,,,,,,,,,,,,,,,,,,,,,,,,,,,,,,None,,583.0655503899907,None,583.0655503899907,None,2022-08-05-11:51:58.906823,583.0681796999415,583.3809496000176,583.0681796999415,None,None,583.0681796999415,None,583.8820244899835,None,,,,21009,0002,2022_Aug_05_1142,localizer,2021.1.3,60.91692153500789,
block,scenes,scenes092.bmp,,,,,0,51,51,51,,,,,,,,,,,,,,,,,,,,,,,,,,,,,,,,,,,,,,,,,,None,,583.8820244899835,None,583.8820244899835,None,2022-08-05-11:51:59.722494,583.8934692000039,584.1974489999702,583.8934692000039,None,None,583.8934692000039,None,584.6983373900293,None,,,,21009,0002,2022_Aug_05_1142,localizer,2021.1.3,60.91692153500789,
block,scenes,scenes062.bmp,,,,,0,52,52,52,,,,,,,,,,,,,,,,,,,,,,,,,,,,,,,,,,,,,,,,,,None,,584.6983373900293,None,584.6983373900293,None,2022-08-05-11:52:00.537636,584.7098121000454,585.0151035999879,584.7098121000454,None,None,584.7098121000454,None,585.514993490011,None,,,,21009,0002,2022_Aug_05_1142,localizer,2021.1.3,60.91692153500789,
block,scenes,scenes006.bmp,,,,,0,53,53,53,,,,,,,,,,,,,,,,,,,,,,,,,,,,,,,,,,,,,,,,,,None,,585.514993490011,None,585.514993490011,None,2022-08-05-11:52:01.355366,585.5151515000034,585.8140507000498,585.5151515000034,None,None,585.5151515000034,None,586.3149477899424,None,,,,21009,0002,2022_Aug_05_1142,localizer,2021.1.3,60.91692153500789,
block,scenes,scenes028.bmp,,,,,0,54,54,54,,,,,,,,,,,,,,,,,,,,,,,,,,,,,,,,,,,,,,,,,,None,,586.3149477899424,None,586.3149477899424,None,2022-08-05-11:52:02.156021,586.3155905000167,586.6145308000268,586.3155905000167,586.3155905000167,None,586.3155905000167,586.3155905000167,587.1160616899724,None,,,,21009,0002,2022_Aug_05_1142,localizer,2021.1.3,60.91692153500789,
block,scenes,scenes010.bmp,,,,,0,55,55,55,,,,,,,,,,,,,,,,,,,,,,,,,,,,,,,,,,,,,,,,,,None,,587.1160616899724,None,587.1160616899724,None,2022-08-05-11:52:02.961330,587.1328895000042,587.4479237999767,587.1328895000042,587.1328895000042,None,587.1328895000042,587.1328895000042,587.9317516900483,None,,,,21009,0002,2022_Aug_05_1142,localizer,2021.1.3,60.91692153500789,
block,scenes,scenes056.bmp,,,,,0,56,56,56,,,,,,,,,,,,,,,,,,,,,,,,,,,,,,,,,,,,,,,,,,None,,587.9317516900483,None,587.9317516900483,None,2022-08-05-11:52:03.771266,587.9385835999856,588.2477908999426,587.9385835999856,None,None,587.9385835999856,None,588.7482508899993,None,,,,21009,0002,2022_Aug_05_1142,localizer,2021.1.3,60.91692153500789,
block,scenes,scenes080.bmp,,,,,0,57,57,57,,,,,,,,,,,,,,,,,,,,,,,,,,,,,,,,,,,,,,,,,,None,,588.7482508899993,None,588.7482508899993,None,2022-08-05-11:52:04.587549,588.7483266999479,589.0476203999715,588.7483266999479,None,None,588.7483266999479,None,589.5480236899457,None,,,,21009,0002,2022_Aug_05_1142,localizer,2021.1.3,60.91692153500789,
block,scenes,scenes013.bmp,,,,,0,58,58,58,,,,,,,,,,,,,,,,,,,,,,,,,,,,,,,,,,,,,,,,,,None,,589.5480236899457,None,589.5480236899457,None,2022-08-05-11:52:05.388294,589.5486114999512,589.8476423999527,589.5486114999512,589.5486114999512,None,589.5486114999512,589.5486114999512,590.3480097900028,None,,,,21009,0002,2022_Aug_05_1142,localizer,2021.1.3,60.91692153500789,
block,scenes,scenes064.bmp,,,,,0,59,59,59,,,,,,,,,,,,,,,,,,,,,,,,,,,,,,,,,,,,,,,,,,None,,590.3480097900028,None,590.3480097900028,None,2022-08-05-11:52:06.189307,590.3598095000489,590.6646182000404,590.3598095000489,590.3598095000489,None,590.3598095000489,590.3598095000489,591.1648408900364,None,,,,21009,0002,2022_Aug_05_1142,localizer,2021.1.3,60.91692153500789,
block_end,scenes,scenes035.bmp,,,,,0,60,60,60,,,,,,,,,,,,,,,,,,,,,,,,,,,,,,,,,,,,,,,,,,None,,591.1648408900364,None,591.1648408900364,None,2022-08-05-11:52:07.004357,591.1652259000111,591.4643531000474,591.1652259000111,None,None,591.1652259000111,None,591.9649730900419,None,,,,21009,0002,2022_Aug_05_1142,localizer,2021.1.3,60.91692153500789,
block_start,scenes,scenes063.bmp,,,,,0,61,61,61,,,,,,,,,,,,,,,,,,,,,,,,,,,,,,,,,,,,,,,,,,t,1.7995556999230757,591.9706026000204,None,591.9706026000204,None,2022-08-05-11:52:09.639169,593.8011083999882,594.1150664000306,593.8011083999882,None,None,593.8011083999882,None,594.6147553900373,None,,,,21009,0002,2022_Aug_05_1142,localizer,2021.1.3,60.91692153500789,
block,scenes,scenes006.bmp,,,,,0,62,62,62,,,,,,,,,,,,,,,,,,,,,,,,,,,,,,,,,,,,,,,,,,None,,594.6147553900373,None,594.6147553900373,None,2022-08-05-11:52:10.454101,594.6152208000422,594.9142490000231,594.6152208000422,None,None,594.6152208000422,None,595.414953689964,None,,,,21009,0002,2022_Aug_05_1142,localizer,2021.1.3,60.91692153500789,
block,scenes,scenes044.bmp,,,,,0,63,63,63,,,,,,,,,,,,,,,,,,,,,,,,,,,,,,,,,,,,,,,,,,None,,595.414953689964,None,595.414953689964,None,2022-08-05-11:52:11.257242,595.4277966000373,595.731675600051,595.4277966000373,595.4277966000373,None,595.4277966000373,595.4277966000373,596.2321201899904,None,,,,21009,0002,2022_Aug_05_1142,localizer,2021.1.3,60.91692153500789,
block,scenes,scenes034.bmp,,,,,0,64,64,64,,,,,,,,,,,,,,,,,,,,,,,,,,,,,,,,,,,,,,,,,,None,,596.2321201899904,None,596.2321201899904,None,2022-08-05-11:52:12.072590,596.2323292000219,596.5312669000123,596.2323292000219,None,None,596.2323292000219,None,597.047963489953,None,,,,21009,0002,2022_Aug_05_1142,localizer,2021.1.3,60.91692153500789,
block,scenes,scenes087.bmp,,,,,0,65,65,65,,,,,,,,,,,,,,,,,,,,,,,,,,,,,,,,,,,,,,,,,,None,,597.047963489953,None,597.047963489953,None,2022-08-05-11:52:12.887266,597.0486301999772,597.3475325000472,597.0486301999772,None,None,597.0486301999772,None,597.8480727900169,None,,,,21009,0002,2022_Aug_05_1142,localizer,2021.1.3,60.91692153500789,
block,scenes,scenes057.bmp,,,,,0,66,66,66,,,,,,,,,,,,,,,,,,,,,,,,,,,,,,,,,,,,,,,,,,None,,597.8480727900169,None,597.8480727900169,None,2022-08-05-11:52:13.689371,597.8489325999981,598.1477368000196,597.8489325999981,597.8489325999981,None,597.8489325999981,597.8489325999981,598.6482023900026,None,,,,21009,0002,2022_Aug_05_1142,localizer,2021.1.3,60.91692153500789,
block,scenes,scenes072.bmp,,,,,0,67,67,67,,,,,,,,,,,,,,,,,,,,,,,,,,,,,,,,,,,,,,,,,,None,,598.6482023900026,None,598.6482023900026,None,2022-08-05-11:52:14.488503,598.6486158999614,598.9479983999627,598.6486158999614,598.6486158999614,None,598.6486158999614,598.6486158999614,599.449142389989,None,,,,21009,0002,2022_Aug_05_1142,localizer,2021.1.3,60.91692153500789,
block,scenes,scenes045.bmp,,,,,0,68,68,68,,,,,,,,,,,,,,,,,,,,,,,,,,,,,,,,,,,,,,,,,,None,,599.449142389989,None,599.449142389989,None,2022-08-05-11:52:15.292633,599.464375999989,599.7643587000202,599.464375999989,599.464375999989,None,599.464375999989,599.464375999989,600.2655429900042,None,,,,21009,0002,2022_Aug_05_1142,localizer,2021.1.3,60.91692153500789,
block,scenes,scenes047.bmp,,,,,0,69,69,69,,,,,,,,,,,,,,,,,,,,,,,,,,,,,,,,,,,,,,,,,,None,,600.2655429900042,None,600.2655429900042,None,2022-08-05-11:52:16.105832,600.2670486000134,600.5807142000413,600.2670486000134,None,None,600.2670486000134,None,601.0814792899764,None,,,,21009,0002,2022_Aug_05_1142,localizer,2021.1.3,60.91692153500789,
block,scenes,scenes002.bmp,,,,,0,70,70,70,,,,,,,,,,,,,,,,,,,,,,,,,,,,,,,,,,,,,,,,,,None,,601.0814792899764,None,601.0814792899764,None,2022-08-05-11:52:16.920780,601.0914463000372,601.3986573000439,601.0914463000372,None,None,601.0914463000372,None,601.8987321899622,None,,,,21009,0002,2022_Aug_05_1142,localizer,2021.1.3,60.91692153500789,
block,scenes,scenes010.bmp,,,,,0,71,71,71,,,,,,,,,,,,,,,,,,,,,,,,,,,,,,,,,,,,,,,,,,None,,601.8987321899622,None,601.8987321899622,None,2022-08-05-11:52:17.739197,601.8991533999797,602.198376400047,601.8991533999797,None,None,601.8991533999797,None,602.6989630900207,None,,,,21009,0002,2022_Aug_05_1142,localizer,2021.1.3,60.91692153500789,
block,scenes,scenes075.bmp,,,,,0,72,72,72,,,,,,,,,,,,,,,,,,,,,,,,,,,,,,,,,,,,,,,,,,None,,602.6989630900207,None,602.6989630900207,None,2022-08-05-11:52:18.541271,602.7130053000292,603.0143842999823,602.7130053000292,602.7130053000292,None,602.7130053000292,602.7130053000292,603.5213646899792,None,,,,21009,0002,2022_Aug_05_1142,localizer,2021.1.3,60.91692153500789,
block,scenes,scenes086.bmp,,,,,0,73,73,73,,,,,,,,,,,,,,,,,,,,,,,,,,,,,,,,,,,,,,,,,,None,,603.5213646899792,None,603.5213646899792,None,2022-08-05-11:52:19.364698,603.5251400000416,603.8310568999732,603.5251400000416,None,None,603.5251400000416,None,604.3326978899422,None,,,,21009,0002,2022_Aug_05_1142,localizer,2021.1.3,60.91692153500789,
block,scenes,scenes083.bmp,,,,,0,74,74,74,,,,,,,,,,,,,,,,,,,,,,,,,,,,,,,,,,,,,,,,,,None,,604.3326978899422,None,604.3326978899422,None,2022-08-05-11:52:20.173159,604.345719999983,604.6476064999588,604.345719999983,None,None,604.345719999983,None,605.1487995900097,None,,,,21009,0002,2022_Aug_05_1142,localizer,2021.1.3,60.91692153500789,
block_end,scenes,scenes076.bmp,,,,,0,75,75,75,,,,,,,,,,,,,,,,,,,,,,,,,,,,,,,,,,,,,,,,,,None,,605.1487995900097,None,605.1487995900097,None,2022-08-05-11:52:20.989156,605.1488848000299,605.4479780000402,605.1488848000299,None,None,605.1488848000299,None,605.9479782899725,None,,,,21009,0002,2022_Aug_05_1142,localizer,2021.1.3,60.91692153500789,
null_block,null_block,null_block.bmp,,,,,0,76,76,76,,,,,,,,,,,,,,,,,,,,,,,,,,,,,,,,,,,,,,,,,,t,1.8229461999144405,605.9473370000487,None,605.9473370000487,None,2022-08-05-11:52:23.637909,607.7986135900137,None,607.7986135900137,None,None,607.7986135900137,None,607.80189839995,None,,,,21009,0002,2022_Aug_05_1142,localizer,2021.1.3,60.91692153500789,
block_start,faces,faces037.bmp,,,,,0,77,77,77,,,,,,,,,,,,,,,,,,,,,,,,,,,,,,,,,,,,,,,,,,t,1.95573239994701,619.8145533000352,None,619.8145533000352,None,2022-08-05-11:52:37.640420,621.8080472999718,622.1146028999938,621.8080472999718,None,None,621.8080472999718,None,622.6161884900066,None,,,,21009,0002,2022_Aug_05_1142,localizer,2021.1.3,60.91692153500789,
block,faces,faces010.bmp,,,,,0,78,78,78,,,,,,,,,,,,,,,,,,,,,,,,,,,,,,,,,,,,,,,,,,None,,622.6161884900066,None,622.6161884900066,None,2022-08-05-11:52:38.457468,622.6180090999696,622.9315133000491,622.6180090999696,None,None,622.6180090999696,None,623.4327197899693,None,,,,21009,0002,2022_Aug_05_1142,localizer,2021.1.3,60.91692153500789,
block,faces,faces075.bmp,,,,,0,79,79,79,,,,,,,,,,,,,,,,,,,,,,,,,,,,,,,,,,,,,,,,,,None,,623.4327197899693,None,623.4327197899693,None,2022-08-05-11:52:39.274602,623.4349098999519,623.747625399963,623.4349098999519,None,None,623.4349098999519,None,624.2484362900141,None,,,,21009,0002,2022_Aug_05_1142,localizer,2021.1.3,60.91692153500789,
block,faces,faces016.bmp,,,,,0,80,80,80,,,,,,,,,,,,,,,,,,,,,,,,,,,,,,,,,,,,,,,,,,None,,624.2484362900141,None,624.2484362900141,None,2022-08-05-11:52:40.087738,624.2488546000095,624.5476824999787,624.2488546000095,None,None,624.2488546000095,None,625.0508945900365,None,,,,21009,0002,2022_Aug_05_1142,localizer,2021.1.3,60.91692153500789,
block,faces,faces002.bmp,,,,,0,81,81,81,,,,,,,,,,,,,,,,,,,,,,,,,,,,,,,,,,,,,,,,,,None,,625.0508945900365,None,625.0508945900365,None,2022-08-05-11:52:40.896340,625.0553900999948,625.3644050000003,625.0553900999948,625.0553900999948,None,625.0553900999948,625.0553900999948,625.865002389939,None,,,,21009,0002,2022_Aug_05_1142,localizer,2021.1.3,60.91692153500789,
block,faces,faces041.bmp,,,,,0,82,82,82,,,,,,,,,,,,,,,,,,,,,,,,,,,,,,,,,,,,,,,,,,None,,625.865002389939,None,625.865002389939,None,2022-08-05-11:52:41.704304,625.874612399959,626.1810942000011,625.874612399959,None,None,625.874612399959,None,626.6815155899967,None,,,,21009,0002,2022_Aug_05_1142,localizer,2021.1.3,60.91692153500789,
block,faces,faces072.bmp,,,,,0,83,83,83,,,,,,,,,,,,,,,,,,,,,,,,,,,,,,,,,,,,,,,,,,None,,626.6815155899967,None,626.6815155899967,None,2022-08-05-11:52:42.520821,626.6821834000293,626.9815830000443,626.6821834000293,None,None,626.6821834000293,None,627.4819377899985,None,,,,21009,0002,2022_Aug_05_1142,localizer,2021.1.3,60.91692153500789,
block,faces,faces089.bmp,,,,,0,84,84,84,,,,,,,,,,,,,,,,,,,,,,,,,,,,,,,,,,,,,,,,,,None,,627.4819377899985,None,627.4819377899985,None,2022-08-05-11:52:43.324227,627.4963470000075,627.7978135000449,627.4963470000075,627.4963470000075,None,627.4963470000075,627.4963470000075,628.2986994899693,None,,,,21009,0002,2022_Aug_05_1142,localizer,2021.1.3,60.91692153500789,
block,faces,faces080.bmp,,,,,0,85,85,85,,,,,,,,,,,,,,,,,,,,,,,,,,,,,,,,,,,,,,,,,,None,,628.2986994899693,None,628.2986994899693,None,2022-08-05-11:52:44.137912,628.3008840000257,628.6145403999835,628.3008840000257,None,None,628.3008840000257,None,629.1161138900206,None,,,,21009,0002,2022_Aug_05_1142,localizer,2021.1.3,60.91692153500789,
block,faces,faces021.bmp,,,,,0,86,86,86,,,,,,,,,,,,,,,,,,,,,,,,,,,,,,,,,,,,,,,,,,None,,629.1161138900206,None,629.1161138900206,None,2022-08-05-11:52:44.957572,629.1304749000119,629.431039600051,629.1304749000119,None,None,629.1304749000119,None,629.9316527899937,None,,,,21009,0002,2022_Aug_05_1142,localizer,2021.1.3,60.91692153500789,
block,faces,faces058.bmp,,,,,0,87,87,87,,,,,,,,,,,,,,,,,,,,,,,,,,,,,,,,,,,,,,,,,,None,,629.9316527899937,None,629.9316527899937,None,2022-08-05-11:52:45.771203,629.9321188000031,630.2310744000133,629.9321188000031,None,None,629.9321188000031,None,630.7316964900238,None,,,,21009,0002,2022_Aug_05_1142,localizer,2021.1.3,60.91692153500789,
block,faces,faces067.bmp,,,,,0,88,88,88,,,,,,,,,,,,,,,,,,,,,,,,,,,,,,,,,,,,,,,,,,None,,630.7316964900238,None,630.7316964900238,None,2022-08-05-11:52:46.572340,630.7320905999513,631.0311797000468,630.7320905999513,630.7320905999513,None,630.7320905999513,630.7320905999513,631.5340544899809,None,,,,21009,0002,2022_Aug_05_1142,localizer,2021.1.3,60.91692153500789,
block,faces,faces012.bmp,,,,,0,89,89,89,,,,,,,,,,,,,,,,,,,,,,,,,,,,,,,,,,,,,,,,,,None,,631.5340544899809,None,631.5340544899809,None,2022-08-05-11:52:47.377354,631.5368342000293,631.8480740999803,631.5368342000293,631.5368342000293,None,631.5368342000293,631.5368342000293,632.3481477900059,None,,,,21009,0002,2022_Aug_05_1142,localizer,2021.1.3,60.91692153500789,
block,faces,faces027.bmp,,,,,0,90,90,90,,,,,,,,,,,,,,,,,,,,,,,,,,,,,,,,,,,,,,,,,,None,,632.3481477900059,None,632.3481477900059,None,2022-08-05-11:52:48.187527,632.3579240000108,632.6644136999967,632.3579240000108,None,None,632.3579240000108,None,633.1649571899907,None,,,,21009,0002,2022_Aug_05_1142,localizer,2021.1.3,60.91692153500789,
block_end,faces,faces044.bmp,,,,,0,91,91,91,,,,,,,,,,,,,,,,,,,,,,,,,,,,,,,,,,,,,,,,,,None,,633.1649571899907,None,633.1649571899907,None,2022-08-05-11:52:49.004259,633.1653745999793,633.4645048000384,633.1653745999793,None,None,633.1653745999793,None,633.9654523899662,None,,,,21009,0002,2022_Aug_05_1142,localizer,2021.1.3,60.91692153500789,
block_start,objects,objects080.bmp,,,,,0,92,92,92,,,,,,,,,,,,,,,,,,,,,,,,,,,,,,,,,,,,,,,,,,t,1.8048738000215963,633.9643778000027,None,633.9643778000027,None,2022-08-05-11:52:51.636576,635.7993948999792,636.1145387999713,635.7993948999792,None,None,635.7993948999792,None,636.5987597900094,None,,,,21009,0002,2022_Aug_05_1142,localizer,2021.1.3,60.91692153500789,
block,objects,objects072.bmp,,,,,0,93,93,93,,,,,,,,,,,,,,,,,,,,,,,,,,,,,,,,,,,,,,,,,,None,,636.5987597900094,None,636.5987597900094,None,2022-08-05-11:52:52.440432,636.6119025000371,636.9149198000086,636.6119025000371,636.6119025000371,None,636.6119025000371,636.6119025000371,637.4155724900193,None,,,,21009,0002,2022_Aug_05_1142,localizer,2021.1.3,60.91692153500789,
block,objects,objects073.bmp,,,,,0,94,94,94,,,,,,,,,,,,,,,,,,,,,,,,,,,,,,,,,,,,,,,,,,None,,637.4155724900193,None,637.4155724900193,None,2022-08-05-11:52:53.254977,637.4155945000239,637.7149305000203,637.4155945000239,None,None,637.4155945000239,None,638.2153458899702,None,,,,21009,0002,2022_Aug_05_1142,localizer,2021.1.3,60.91692153500789,
block,objects,objects051.bmp,,,,,0,95,95,95,,,,,,,,,,,,,,,,,,,,,,,,,,,,,,,,,,,,,,,,,,None,,638.2153458899702,None,638.2153458899702,None,2022-08-05-11:52:54.057635,638.21777810005,638.5316938000033,638.21777810005,638.21777810005,None,638.21777810005,638.21777810005,639.0199144899962,None,,,,21009,0002,2022_Aug_05_1142,localizer,2021.1.3,60.91692153500789,
block,objects,objects030.bmp,,,,,0,96,96,96,,,,,,,,,,,,,,,,,,,,,,,,,,,,,,,,,,,,,,,,,,None,,639.0199144899962,None,639.0199144899962,None,2022-08-05-11:52:54.863291,639.0237768000225,639.3319890999701,639.0237768000225,639.0237768000225,None,639.0237768000225,639.0237768000225,639.834416889993,None,,,,21009,0002,2022_Aug_05_1142,localizer,2021.1.3,60.91692153500789,
block,objects,objects018.bmp,,,,,0,97,97,97,,,,,,,,,,,,,,,,,,,,,,,,,,,,,,,,,,,,,,,,,,None,,639.834416889993,None,639.834416889993,None,2022-08-05-11:52:55.675865,639.8417698999401,640.1475302999606,639.8417698999401,None,None,639.8417698999401,None,640.6483399900026,None,,,,21009,0002,2022_Aug_05_1142,localizer,2021.1.3,60.91692153500789,
block,objects,objects025.bmp,,,,,0,98,98,98,,,,,,,,,,,,,,,,,,,,,,,,,,,,,,,,,,,,,,,,,,None,,640.6483399900026,None,640.6483399900026,None,2022-08-05-11:52:56.487645,640.6487739000004,640.947885200032,640.6487739000004,None,None,640.6487739000004,None,641.4486151900492,None,,,,21009,0002,2022_Aug_05_1142,localizer,2021.1.3,60.91692153500789,
block,objects,objects006.bmp,,,,,0,99,99,99,,,,,,,,,,,,,,,,,,,,,,,,,,,,,,,,,,,,,,,,,,None,,641.4486151900492,None,641.4486151900492,None,2022-08-05-11:52:57.289931,641.4509911000496,641.7662301999517,641.4509911000496,641.4509911000496,None,641.4509911000496,641.4509911000496,642.2662269899738,None,,,,21009,0002,2022_Aug_05_1142,localizer,2021.1.3,60.91692153500789,
block,objects,objects026.bmp,,,,,0,100,100,100,,,,,,,,,,,,,,,,,,,,,,,,,,,,,,,,,,,,,,,,,,None,,642.2662269899738,None,642.2662269899738,None,2022-08-05-11:52:58.109407,642.2699313999619,642.5820192999672,642.2699313999619,None,None,642.2699313999619,None,643.0823118900298,None,,,,21009,0002,2022_Aug_05_1142,localizer,2021.1.3,60.91692153500789,
block,objects,objects064.bmp,,,,,0,101,101,101,,,,,,,,,,,,,,,,,,,,,,,,,,,,,,,,,,,,,,,,,,None,,643.0823118900298,None,643.0823118900298,None,2022-08-05-11:52:58.922601,643.0838414999889,643.3819503999548,643.0838414999889,None,None,643.0838414999889,None,643.8990061899531,None,,,,21009,0002,2022_Aug_05_1142,localizer,2021.1.3,60.91692153500789,
block,objects,objects071.bmp,,,,,0,102,102,102,,,,,,,,,,,,,,,,,,,,,,,,,,,,,,,,,,,,,,,,,,None,,643.8990061899531,None,643.8990061899531,None,2022-08-05-11:52:59.739477,643.8991699999897,644.2144465999445,643.8991699999897,None,None,643.8991699999897,None,644.6983832900296,None,,,,21009,0002,2022_Aug_05_1142,localizer,2021.1.3,60.91692153500789,
block,objects,objects076.bmp,,,,,0,103,103,103,,,,,,,,,,,,,,,,,,,,,,,,,,,,,,,,,,,,,,,,,,None,,644.6983832900296,None,644.6983832900296,None,2022-08-05-11:53:00.538933,644.7089997000294,645.0145759000443,644.7089997000294,644.7089997000294,None,644.7089997000294,644.7089997000294,645.516175190045,None,,,,21009,0002,2022_Aug_05_1142,localizer,2021.1.3,60.91692153500789,
block,objects,objects028.bmp,,,,,0,104,104,104,,,,,,,,,,,,,,,,,,,,,,,,,,,,,,,,,,,,,,,,,,None,,645.516175190045,None,645.516175190045,None,2022-08-05-11:53:01.356148,645.5156818999676,645.831088499981,645.5156818999676,None,None,645.5156818999676,None,646.3151515899808,None,,,,21009,0002,2022_Aug_05_1142,localizer,2021.1.3,60.91692153500789,
block,objects,objects001.bmp,,,,,0,105,105,105,,,,,,,,,,,,,,,,,,,,,,,,,,,,,,,,,,,,,,,,,,None,,646.3151515899808,None,646.3151515899808,None,2022-08-05-11:53:02.155447,646.3155713999877,646.6146896999562,646.3155713999877,646.3155713999877,None,646.3155713999877,646.3155713999877,647.1162693900405,None,,,,21009,0002,2022_Aug_05_1142,localizer,2021.1.3,60.91692153500789,
block_end,objects,objects017.bmp,,,,,0,106,106,106,,,,,,,,,,,,,,,,,,,,,,,,,,,,,,,,,,,,,,,,,,None,,647.1162693900405,None,647.1162693900405,None,2022-08-05-11:53:02.959732,647.1325801999774,647.4478799999924,647.1325801999774,647.1325801999774,None,647.1325801999774,647.1325801999774,647.9322935899836,None,,,,21009,0002,2022_Aug_05_1142,localizer,2021.1.3,60.91692153500789,
block_start,scrambled,scrambled060.bmp,,,,,0,107,107,107,,,,,,,,,,,,,,,,,,,,,,,,,,,,,,,,,,,,,,,,,,t,1.8373315000208095,647.9319962000009,None,647.9319962000009,None,2022-08-05-11:53:05.636766,649.7987499999581,650.0979151000502,649.7987499999581,None,None,649.7987499999581,None,650.602963990008,None,,,,21009,0002,2022_Aug_05_1142,localizer,2021.1.3,60.91692153500789,
block,scrambled,scrambled030.bmp,,,,,0,108,108,108,,,,,,,,,,,,,,,,,,,,,,,,,,,,,,,,,,,,,,,,,,None,,650.602963990008,None,650.602963990008,None,2022-08-05-11:53:06.445210,650.6164617999457,650.9313967999769,650.6164617999457,None,None,650.6164617999457,None,651.4155847899965,None,,,,21009,0002,2022_Aug_05_1142,localizer,2021.1.3,60.91692153500789,
block,scrambled,scrambled049.bmp,,,,,0,109,109,109,,,,,,,,,,,,,,,,,,,,,,,,,,,,,,,,,,,,,,,,,,None,,651.4155847899965,None,651.4155847899965,None,2022-08-05-11:53:07.256006,651.4269438999472,651.7313791000051,651.4269438999472,None,None,651.4269438999472,None,652.2315453900374,None,,,,21009,0002,2022_Aug_05_1142,localizer,2021.1.3,60.91692153500789,
block,scrambled,scrambled080.bmp,,,,,0,110,110,110,,,,,,,,,,,,,,,,,,,,,,,,,,,,,,,,,,,,,,,,,,None,,652.2315453900374,None,652.2315453900374,None,2022-08-05-11:53:08.070853,652.2356952000409,652.5517809999874,652.2356952000409,None,None,652.2356952000409,None,653.049782189948,None,,,,21009,0002,2022_Aug_05_1142,localizer,2021.1.3,60.91692153500789,
block,scrambled,scrambled062.bmp,,,,,0,111,111,111,,,,,,,,,,,,,,,,,,,,,,,,,,,,,,,,,,,,,,,,,,None,,653.049782189948,None,653.049782189948,None,2022-08-05-11:53:08.890237,653.0585504999617,653.365084100049,653.0585504999617,None,None,653.0585504999617,None,653.8660007899744,None,,,,21009,0002,2022_Aug_05_1142,localizer,2021.1.3,60.91692153500789,
block,scrambled,scrambled021.bmp,,,,,0,112,112,112,,,,,,,,,,,,,,,,,,,,,,,,,,,,,,,,,,,,,,,,,,None,,653.8660007899744,None,653.8660007899744,None,2022-08-05-11:53:09.706793,653.8681051000021,654.1815119000385,653.8681051000021,None,None,653.8681051000021,None,654.6821411899873,None,,,,21009,0002,2022_Aug_05_1142,localizer,2021.1.3,60.91692153500789,
block,scrambled,scrambled088.bmp,,,,,0,113,113,113,,,,,,,,,,,,,,,,,,,,,,,,,,,,,,,,,,,,,,,,,,None,,654.6821411899873,None,654.6821411899873,None,2022-08-05-11:53:10.522434,654.6826609999407,654.9817893999862,654.6826609999407,None,None,654.6826609999407,None,655.4819102900219,None,,,,21009,0002,2022_Aug_05_1142,localizer,2021.1.3,60.91692153500789,
block,scrambled,scrambled004.bmp,,,,,0,114,114,114,,,,,,,,,,,,,,,,,,,,,,,,,,,,,,,,,,,,,,,,,,None,,655.4819102900219,None,655.4819102900219,None,2022-08-05-11:53:11.323191,655.4925298000453,655.7981487000361,655.4925298000453,655.4925298000453,None,655.4925298000453,655.4925298000453,656.2981577900355,None,,,,21009,0002,2022_Aug_05_1142,localizer,2021.1.3,60.91692153500789,
block,scrambled,scrambled008.bmp,,,,,0,115,115,115,,,,,,,,,,,,,,,,,,,,,,,,,,,,,,,,,,,,,,,,,,None,,656.2981577900355,None,656.2981577900355,None,2022-08-05-11:53:12.137465,656.3024855999975,656.6144798999885,656.3024855999975,None,None,656.3024855999975,None,657.1153018900077,None,,,,21009,0002,2022_Aug_05_1142,localizer,2021.1.3,60.91692153500789,
block,scrambled,scrambled008.bmp,,,,,0,116,116,116,,,,,,,,,,,,,,,,,,,,,,,,,,,,,,,,,,,,,,,,,,None,,657.1153018900077,None,657.1153018900077,None,2022-08-05-11:53:12.955597,657.1156940000365,657.415126399952,657.1156940000365,None,None,657.1156940000365,None,657.9154275899637,None,,,,21009,0002,2022_Aug_05_1142,localizer,2021.1.3,60.91692153500789,
block,scrambled,scrambled061.bmp,,,,,0,117,117,117,,,,,,,,,,,,,,,,,,,,,,,,,,,,,,,,,,,,,,,,,,None,,657.9154275899637,None,657.9154275899637,None,2022-08-05-11:53:13.756738,657.9255488000344,658.2318065,657.9255488000344,657.9255488000344,None,657.9255488000344,657.9255488000344,658.731875389989,None,,,,21009,0002,2022_Aug_05_1142,localizer,2021.1.3,60.91692153500789,
block,scrambled,scrambled025.bmp,,,,,0,118,118,118,,,,,,,,,,,,,,,,,,,,,,,,,,,,,,,,,,,,,,,,,,None,,658.731875389989,None,658.731875389989,None,2022-08-05-11:53:14.571179,658.741099899984,659.0480649999809,658.741099899984,None,None,658.741099899984,None,659.5484756900114,None,,,,21009,0002,2022_Aug_05_1142,localizer,2021.1.3,60.91692153500789,
block,scrambled,scrambled046.bmp,,,,,0,119,119,119,,,,,,,,,,,,,,,,,,,,,,,,,,,,,,,,,,,,,,,,,,None,,659.5484756900114,None,659.5484756900114,None,2022-08-05-11:53:15.387781,659.549003800028,659.8479151000502,659.549003800028,None,None,659.549003800028,None,660.3484470899566,None,,,,21009,0002,2022_Aug_05_1142,localizer,2021.1.3,60.91692153500789,
block,scrambled,scrambled076.bmp,,,,,0,120,120,120,,,,,,,,,,,,,,,,,,,,,,,,,,,,,,,,,,,,,,,,,,None,,660.3484470899566,None,660.3484470899566,None,2022-08-05-11:53:16.190073,660.3500419999473,660.6647148999618,660.3500419999473,660.3500419999473,None,660.3500419999473,660.3500419999473,661.1652605899726,None,,,,21009,0002,2022_Aug_05_1142,localizer,2021.1.3,60.91692153500789,
block_end,scrambled,scrambled006.bmp,,,,,0,121,121,121,,,,,,,,,,,,,,,,,,,,,,,,,,,,,,,,,,,,,,,,,,None,,661.1652605899726,None,661.1652605899726,None,2022-08-05-11:53:17.004565,661.1654569000239,661.4650424999418,661.1654569000239,None,None,661.1654569000239,None,661.9655312899849,None,,,,21009,0002,2022_Aug_05_1142,localizer,2021.1.3,60.91692153500789,
block_start,objects,objects009.bmp,,,,,0,122,122,122,,,,,,,,,,,,,,,,,,,,,,,,,,,,,,,,,,,,,,,,,,t,1.8043244999134913,661.9651131000137,None,661.9651131000137,None,2022-08-05-11:53:19.636677,663.8063444000436,664.1149703999981,663.8063444000436,None,None,663.8063444000436,None,664.6150433900184,None,,,,21009,0002,2022_Aug_05_1142,localizer,2021.1.3,60.91692153500789,
block,objects,objects065.bmp,,,,,0,123,123,123,,,,,,,,,,,,,,,,,,,,,,,,,,,,,,,,,,,,,,,,,,None,,664.6150433900184,None,664.6150433900184,None,2022-08-05-11:53:20.454855,664.6248372000409,664.9312781000044,664.6248372000409,None,None,664.6248372000409,None,665.4317608900019,None,,,,21009,0002,2022_Aug_05_1142,localizer,2021.1.3,60.91692153500789,
block,objects,objects026.bmp,,,,,0,124,124,124,,,,,,,,,,,,,,,,,,,,,,,,,,,,,,,,,,,,,,,,,,None,,665.4317608900019,None,665.4317608900019,None,2022-08-05-11:53:21.271065,665.4320722999983,665.7317908999976,665.4320722999983,None,None,665.4320722999983,None,666.2320180900279,None,,,,21009,0002,2022_Aug_05_1142,localizer,2021.1.3,60.91692153500789,
block,objects,objects072.bmp,,,,,0,125,125,125,,,,,,,,,,,,,,,,,,,,,,,,,,,,,,,,,,,,,,,,,,None,,666.2320180900279,None,666.2320180900279,None,2022-08-05-11:53:22.074311,666.2342435000464,666.5482459999621,666.2342435000464,666.2342435000464,None,666.2342435000464,666.2342435000464,667.0485737899435,None,,,,21009,0002,2022_Aug_05_1142,localizer,2021.1.3,60.91692153500789,
block,objects,objects086.bmp,,,,,0,126,126,126,,,,,,,,,,,,,,,,,,,,,,,,,,,,,,,,,,,,,,,,,,None,,667.0485737899435,None,667.0485737899435,None,2022-08-05-11:53:22.888053,667.0491191999754,667.3490929999389,667.0491191999754,None,None,667.0491191999754,None,667.8485558899702,None,,,,21009,0002,2022_Aug_05_1142,localizer,2021.1.3,60.91692153500789,
block,objects,objects069.bmp,,,,,0,127,127,127,,,,,,,,,,,,,,,,,,,,,,,,,,,,,,,,,,,,,,,,,,None,,667.8485558899702,None,667.8485558899702,None,2022-08-05-11:53:23.688859,667.8490896000294,668.1480867000064,667.8490896000294,667.8490896000294,None,667.8490896000294,667.8490896000294,668.6485960899736,None,,,,21009,0002,2022_Aug_05_1142,localizer,2021.1.3,60.91692153500789,
block,objects,objects079.bmp,,,,,0,128,128,128,,,,,,,,,,,,,,,,,,,,,,,,,,,,,,,,,,,,,,,,,,None,,668.6485960899736,None,668.6485960899736,None,2022-08-05-11:53:24.489891,668.660120000015,668.9652750999667,668.660120000015,668.660120000015,None,668.660120000015,668.660120000015,669.4657220900408,None,,,,21009,0002,2022_Aug_05_1142,localizer,2021.1.3,60.91692153500789,
block,objects,objects025.bmp,,,,,0,129,129,129,,,,,,,,,,,,,,,,,,,,,,,,,,,,,,,,,,,,,,,,,,None,,669.4657220900408,None,669.4657220900408,None,2022-08-05-11:53:25.306011,669.4660452000098,669.765133799985,669.4660452000098,None,None,669.4660452000098,None,670.2659950899542,None,,,,21009,0002,2022_Aug_05_1142,localizer,2021.1.3,60.91692153500789,
block,objects,objects013.bmp,,,,,0,130,130,130,,,,,,,,,,,,,,,,,,,,,,,,,,,,,,,,,,,,,,,,,,None,,670.2659950899542,None,670.2659950899542,None,2022-08-05-11:53:26.108458,670.2799056000076,670.5813878000481,670.2799056000076,670.2799056000076,None,670.2799056000076,670.2799056000076,671.0841367899557,None,,,,21009,0002,2022_Aug_05_1142,localizer,2021.1.3,60.91692153500789,
block,objects,objects039.bmp,,,,,0,131,131,131,,,,,,,,,,,,,,,,,,,,,,,,,,,,,,,,,,,,,,,,,,None,,671.0841367899557,None,671.0841367899557,None,2022-08-05-11:53:26.923195,671.0915842000395,671.3981338000158,671.0915842000395,None,None,671.0915842000395,None,671.9006341900094,None,,,,21009,0002,2022_Aug_05_1142,localizer,2021.1.3,60.91692153500789,
block,objects,objects074.bmp,,,,,0,132,132,132,,,,,,,,,,,,,,,,,,,,,,,,,,,,,,,,,,,,,,,,,,None,,671.9006341900094,None,671.9006341900094,None,2022-08-05-11:53:27.744972,671.9043105000164,672.214732500026,671.9043105000164,None,None,671.9043105000164,None,672.7151283899439,None,,,,21009,0002,2022_Aug_05_1142,localizer,2021.1.3,60.91692153500789,
block,objects,objects053.bmp,,,,,0,133,133,133,,,,,,,,,,,,,,,,,,,,,,,,,,,,,,,,,,,,,,,,,,None,,672.7151283899439,None,672.7151283899439,None,2022-08-05-11:53:28.554431,672.7156497000251,673.0149425000418,672.7156497000251,None,None,672.7156497000251,None,673.5153265899862,None,,,,21009,0002,2022_Aug_05_1142,localizer,2021.1.3,60.91692153500789,
block,objects,objects021.bmp,,,,,0,134,134,134,,,,,,,,,,,,,,,,,,,,,,,,,,,,,,,,,,,,,,,,,,None,,673.5153265899862,None,673.5153265899862,None,2022-08-05-11:53:29.356624,673.5271935999626,673.8312777000247,673.5271935999626,673.5271935999626,None,673.5271935999626,673.5271935999626,674.3325349899824,None,,,,21009,0002,2022_Aug_05_1142,localizer,2021.1.3,60.91692153500789,
block,objects,objects040.bmp,,,,,0,135,135,135,,,,,,,,,,,,,,,,,,,,,,,,,,,,,,,,,,,,,,,,,,None,,674.3325349899824,None,674.3325349899824,None,2022-08-05-11:53:30.173007,674.3328076000325,674.6320772999898,674.3328076000325,None,None,674.3328076000325,None,675.1323729899595,None,,,,21009,0002,2022_Aug_05_1142,localizer,2021.1.3,60.91692153500789,
block_end,objects,objects005.bmp,,,,,0,136,136,136,,,,,,,,,,,,,,,,,,,,,,,,,,,,,,,,,,,,,,,,,,None,,675.1323729899595,None,675.1323729899595,None,2022-08-05-11:53:30.974853,675.1352640000405,675.4488241999643,675.1352640000405,675.1352640000405,None,675.1352640000405,675.1352640000405,675.9492332899827,None,,,,21009,0002,2022_Aug_05_1142,localizer,2021.1.3,60.91692153500789,
null_block,null_block,null_block.bmp,,,,,0,137,137,137,,,,,,,,,,,,,,,,,,,,,,,,,,,,,,,,,,,,,,,,,,t,1.8206375000299886,675.9486840999452,None,675.9486840999452,None,2022-08-05-11:53:33.636683,677.7983727900428,None,677.7983727900428,None,None,677.7983727900428,None,677.8006404000334,None,,,,21009,0002,2022_Aug_05_1142,localizer,2021.1.3,60.91692153500789,
block_start,scrambled,scrambled008.bmp,,,,,0,138,138,138,,,,,,,,,,,,,,,,,,,,,,,,,,,,,,,,,,,,,,,,,,t,1.9541208000155166,689.8150096000172,None,689.8150096000172,None,2022-08-05-11:53:47.638958,691.7989890000317,692.0985655999975,691.7989890000317,None,None,691.7989890000317,None,692.5992547899368,None,,,,21009,0002,2022_Aug_05_1142,localizer,2021.1.3,60.91692153500789,
block,scrambled,scrambled054.bmp,,,,,0,139,139,139,,,,,,,,,,,,,,,,,,,,,,,,,,,,,,,,,,,,,,,,,,None,,692.5992547899368,None,692.5992547899368,None,2022-08-05-11:53:48.441635,692.6020083000185,692.9156987000024,692.6020083000185,692.6020083000185,None,692.6020083000185,692.6020083000185,693.4152802900062,None,,,,21009,0002,2022_Aug_05_1142,localizer,2021.1.3,60.91692153500789,
block,scrambled,scrambled037.bmp,,,,,0,140,140,140,,,,,,,,,,,,,,,,,,,,,,,,,,,,,,,,,,,,,,,,,,None,,693.4152802900062,None,693.4152802900062,None,2022-08-05-11:53:49.254582,693.425089300028,693.7314327999484,693.425089300028,None,None,693.425089300028,None,694.2326996899792,None,,,,21009,0002,2022_Aug_05_1142,localizer,2021.1.3,60.91692153500789,
block,scrambled,scrambled040.bmp,,,,,0,141,141,141,,,,,,,,,,,,,,,,,,,,,,,,,,,,,,,,,,,,,,,,,,None,,694.2326996899792,None,694.2326996899792,None,2022-08-05-11:53:50.073050,694.2427896000445,694.5480866000289,694.2427896000445,None,None,694.2427896000445,None,695.0487423899467,None,,,,21009,0002,2022_Aug_05_1142,localizer,2021.1.3,60.91692153500789,
block,scrambled,scrambled014.bmp,,,,,0,142,142,142,,,,,,,,,,,,,,,,,,,,,,,,,,,,,,,,,,,,,,,,,,None,,695.0487423899467,None,695.0487423899467,None,2022-08-05-11:53:50.887918,695.049092900008,695.348162899958,695.049092900008,None,None,695.049092900008,None,695.848814589961,None,,,,21009,0002,2022_Aug_05_1142,localizer,2021.1.3,60.91692153500789,
block,scrambled,scrambled058.bmp,,,,,0,143,143,143,,,,,,,,,,,,,,,,,,,,,,,,,,,,,,,,,,,,,,,,,,None,,695.848814589961,None,695.848814589961,None,2022-08-05-11:53:51.690112,695.851039799978,696.1648518999573,695.851039799978,695.851039799978,None,695.851039799978,695.851039799978,696.6659065900021,None,,,,21009,0002,2022_Aug_05_1142,localizer,2021.1.3,60.91692153500789,
block,scrambled,scrambled059.bmp,,,,,0,144,144,144,,,,,,,,,,,,,,,,,,,,,,,,,,,,,,,,,,,,,,,,,,None,,696.6659065900021,None,696.6659065900021,None,2022-08-05-11:53:52.507301,696.6782251000404,696.9817062000511,696.6782251000404,None,None,696.6782251000404,None,697.4820644900319,None,,,,21009,0002,2022_Aug_05_1142,localizer,2021.1.3,60.91692153500789,
block,scrambled,scrambled005.bmp,,,,,0,145,145,145,,,,,,,,,,,,,,,,,,,,,,,,,,,,,,,,,,,,,,,,,,None,,697.4820644900319,None,697.4820644900319,None,2022-08-05-11:53:53.322026,697.4823789999355,697.7817039999645,697.4823789999355,None,None,697.4823789999355,None,698.2820372899878,None,,,,21009,0002,2022_Aug_05_1142,localizer,2021.1.3,60.91692153500789,
block,scrambled,scrambled063.bmp,,,,,0,146,146,146,,,,,,,,,,,,,,,,,,,,,,,,,,,,,,,,,,,,,,,,,,None,,698.2820372899878,None,698.2820372899878,None,2022-08-05-11:53:54.123540,698.2950409000041,698.5984965999378,698.2950409000041,698.2950409000041,None,698.2950409000041,698.2950409000041,699.0987464900245,None,,,,21009,0002,2022_Aug_05_1142,localizer,2021.1.3,60.91692153500789,
block,scrambled,scrambled057.bmp,,,,,0,147,147,147,,,,,,,,,,,,,,,,,,,,,,,,,,,,,,,,,,,,,,,,,,None,,699.0987464900245,None,699.0987464900245,None,2022-08-05-11:53:54.938047,699.0991585999727,699.3985013000201,699.0991585999727,None,None,699.0991585999727,None,699.8987321899622,None,,,,21009,0002,2022_Aug_05_1142,localizer,2021.1.3,60.91692153500789,
block,scrambled,scrambled042.bmp,,,,,0,148,148,148,,,,,,,,,,,,,,,,,,,,,,,,,,,,,,,,,,,,,,,,,,None,,699.8987321899622,None,699.8987321899622,None,2022-08-05-11:53:55.740028,699.8996604999993,700.2147513999371,699.8996604999993,699.8996604999993,None,699.8996604999993,699.8996604999993,700.698732090008,None,,,,21009,0002,2022_Aug_05_1142,localizer,2021.1.3,60.91692153500789,
block,scrambled,scrambled051.bmp,,,,,0,149,149,149,,,,,,,,,,,,,,,,,,,,,,,,,,,,,,,,,,,,,,,,,,None,,700.698732090008,None,700.698732090008,None,2022-08-05-11:53:56.539034,700.6991672000149,700.9982034999412,700.6991672000149,700.6991672000149,None,700.6991672000149,700.6991672000149,701.4985131900175,None,,,,21009,0002,2022_Aug_05_1142,localizer,2021.1.3,60.91692153500789,
block,scrambled,scrambled020.bmp,,,,,0,150,150,150,,,,,,,,,,,,,,,,,,,,,,,,,,,,,,,,,,,,,,,,,,None,,701.4985131900175,None,701.4985131900175,None,2022-08-05-11:53:57.339810,701.4992324999766,701.798294999986,701.4992324999766,701.4992324999766,None,701.4992324999766,701.4992324999766,702.2988247899921,None,,,,21009,0002,2022_Aug_05_1142,localizer,2021.1.3,60.91692153500789,
block,scrambled,scrambled001.bmp,,,,,0,151,151,151,,,,,,,,,,,,,,,,,,,,,,,,,,,,,,,,,,,,,,,,,,None,,702.2988247899921,None,702.2988247899921,None,2022-08-05-11:53:58.140119,702.3107080999762,702.6168342999881,702.3107080999762,702.3107080999762,None,702.3107080999762,702.3107080999762,703.1159671899513,None,,,,21009,0002,2022_Aug_05_1142,localizer,2021.1.3,60.91692153500789,
block_end,scrambled,scrambled064.bmp,,,,,0,152,152,152,,,,,,,,,,,,,,,,,,,,,,,,,,,,,,,,,,,,,,,,,,None,,703.1159671899513,None,703.1159671899513,None,2022-08-05-11:53:58.956255,703.1172771999845,703.4314876999706,703.1172771999845,None,None,703.1172771999845,None,703.9320170899737,None,,,,21009,0002,2022_Aug_05_1142,localizer,2021.1.3,60.91692153500789,
block_start,faces,faces039.bmp,,,,,0,153,153,153,,,,,,,,,,,,,,,,,,,,,,,,,,,,,,,,,,,,,,,,,,t,1.8377284000162035,703.9316073999507,None,703.9316073999507,None,2022-08-05-11:54:01.640747,705.8129231999628,706.1159184999997,705.8129231999628,None,None,705.8129231999628,None,706.6161093899864,None,,,,21009,0002,2022_Aug_05_1142,localizer,2021.1.3,60.91692153500789,
block,faces,faces028.bmp,,,,,0,154,154,154,,,,,,,,,,,,,,,,,,,,,,,,,,,,,,,,,,,,,,,,,,None,,706.6161093899864,None,706.6161093899864,None,2022-08-05-11:54:02.456588,706.6178235999541,706.9318266999908,706.6178235999541,None,None,706.6178235999541,None,707.4321464900277,None,,,,21009,0002,2022_Aug_05_1142,localizer,2021.1.3,60.91692153500789,
block,faces,faces073.bmp,,,,,0,155,155,155,,,,,,,,,,,,,,,,,,,,,,,,,,,,,,,,,,,,,,,,,,None,,707.4321464900277,None,707.4321464900277,None,2022-08-05-11:54:03.271446,707.4326563000213,707.7317257999675,707.4326563000213,None,None,707.4326563000213,None,708.2319784899591,None,,,,21009,0002,2022_Aug_05_1142,localizer,2021.1.3,60.91692153500789,
block,faces,faces088.bmp,,,,,0,156,156,156,,,,,,,,,,,,,,,,,,,,,,,,,,,,,,,,,,,,,,,,,,None,,708.2319784899591,None,708.2319784899591,None,2022-08-05-11:54:04.073286,708.2329529999988,708.5319140000502,708.2329529999988,708.2329529999988,None,708.2329529999988,708.2329529999988,709.0320213899831,None,,,,21009,0002,2022_Aug_05_1142,localizer,2021.1.3,60.91692153500789,
block,faces,faces078.bmp,,,,,0,157,157,157,,,,,,,,,,,,,,,,,,,,,,,,,,,,,,,,,,,,,,,,,,None,,709.0320213899831,None,709.0320213899831,None,2022-08-05-11:54:04.872327,709.032897499972,709.3315731999464,709.032897499972,709.032897499972,None,709.032897499972,709.032897499972,709.8322340900195,None,,,,21009,0002,2022_Aug_05_1142,localizer,2021.1.3,60.91692153500789,
block,faces,faces025.bmp,,,,,0,158,158,158,,,,,,,,,,,,,,,,,,,,,,,,,,,,,,,,,,,,,,,,,,None,,709.8322340900195,None,709.8322340900195,None,2022-08-05-11:54:05.673528,709.8330705999397,710.1483826000476,709.8330705999397,709.8330705999397,None,709.8330705999397,709.8330705999397,710.6320722899982,None,,,,21009,0002,2022_Aug_05_1142,localizer,2021.1.3,60.91692153500789,
block,faces,faces017.bmp,,,,,0,159,159,159,,,,,,,,,,,,,,,,,,,,,,,,,,,,,,,,,,,,,,,,,,None,,710.6320722899982,None,710.6320722899982,None,2022-08-05-11:54:06.473373,710.6330047999509,710.9317112000426,710.6330047999509,710.6330047999509,None,710.6330047999509,710.6330047999509,711.4322928899783,None,,,,21009,0002,2022_Aug_05_1142,localizer,2021.1.3,60.91692153500789,
block,faces,faces067.bmp,,,,,0,160,160,160,,,,,,,,,,,,,,,,,,,,,,,,,,,,,,,,,,,,,,,,,,None,,711.4322928899783,None,711.4322928899783,None,2022-08-05-11:54:07.273782,711.4350392000051,711.7486352999695,711.4350392000051,711.4350392000051,None,711.4350392000051,711.4350392000051,712.2490664900397,None,,,,21009,0002,2022_Aug_05_1142,localizer,2021.1.3,60.91692153500789,
block,faces,faces005.bmp,,,,,0,161,161,161,,,,,,,,,,,,,,,,,,,,,,,,,,,,,,,,,,,,,,,,,,None,,712.2490664900397,None,712.2490664900397,None,2022-08-05-11:54:08.088446,712.2492777999723,712.5482118999353,712.2492777999723,None,None,712.2492777999723,None,713.0486290900153,None,,,,21009,0002,2022_Aug_05_1142,localizer,2021.1.3,60.91692153500789,
block,faces,faces063.bmp,,,,,0,162,162,162,,,,,,,,,,,,,,,,,,,,,,,,,,,,,,,,,,,,,,,,,,None,,713.0486290900153,None,713.0486290900153,None,2022-08-05-11:54:08.889177,713.0492711999686,713.3483502999879,713.0492711999686,713.0492711999686,None,713.0492711999686,713.0492711999686,713.8488391900319,None,,,,21009,0002,2022_Aug_05_1142,localizer,2021.1.3,60.91692153500789,
block,faces,faces059.bmp,,,,,0,163,163,163,,,,,,,,,,,,,,,,,,,,,,,,,,,,,,,,,,,,,,,,,,None,,713.8488391900319,None,713.8488391900319,None,2022-08-05-11:54:09.689139,713.8493973000441,714.1483953000279,713.8493973000441,713.8493973000441,None,713.8493973000441,713.8493973000441,714.6495491900132,None,,,,21009,0002,2022_Aug_05_1142,localizer,2021.1.3,60.91692153500789,
block,faces,faces048.bmp,,,,,0,164,164,164,,,,,,,,,,,,,,,,,,,,,,,,,,,,,,,,,,,,,,,,,,None,,714.6495491900132,None,714.6495491900132,None,2022-08-05-11:54:10.491944,714.6643904999364,714.9650130999507,714.6643904999364,714.6643904999364,None,714.6643904999364,714.6643904999364,715.4675729900482,None,,,,21009,0002,2022_Aug_05_1142,localizer,2021.1.3,60.91692153500789,
block,faces,faces054.bmp,,,,,0,165,165,165,,,,,,,,,,,,,,,,,,,,,,,,,,,,,,,,,,,,,,,,,,None,,715.4675729900482,None,715.4675729900482,None,2022-08-05-11:54:11.311818,715.4735341999913,715.7673442999367,715.4735341999913,None,None,715.4735341999913,None,716.2821450899937,None,,,,21009,0002,2022_Aug_05_1142,localizer,2021.1.3,60.91692153500789,
block,faces,faces018.bmp,,,,,0,166,166,166,,,,,,,,,,,,,,,,,,,,,,,,,,,,,,,,,,,,,,,,,,None,,716.2821450899937,None,716.2821450899937,None,2022-08-05-11:54:12.121447,716.2877127999673,716.5981310999487,716.2877127999673,None,None,716.2877127999673,None,717.0983294899925,None,,,,21009,0002,2022_Aug_05_1142,localizer,2021.1.3,60.91692153500789,
block_end,faces,faces002.bmp,,,,,0,167,167,167,,,,,,,,,,,,,,,,,,,,,,,,,,,,,,,,,,,,,,,,,,None,,717.0983294899925,None,717.0983294899925,None,2022-08-05-11:54:12.937804,717.0997312000254,717.4151413999498,717.0997312000254,None,None,717.0997312000254,None,717.898968590016,None,,,,21009,0002,2022_Aug_05_1142,localizer,2021.1.3,60.91692153500789,
block_start,scenes,scenes085.bmp,,,,,0,168,168,168,,,,,,,,,,,,,,,,,,,,,,,,,,,,,,,,,,,,,,,,,,t,1.870747199980542,717.8985880999826,None,717.8985880999826,None,2022-08-05-11:54:15.641441,719.8133001000388,720.1150725999614,719.8133001000388,None,None,719.8133001000388,None,720.6173455899698,None,,,,21009,0002,2022_Aug_05_1142,localizer,2021.1.3,60.91692153500789,
block,scenes,scenes065.bmp,,,,,0,169,169,169,,,,,,,,,,,,,,,,,,,,,,,,,,,,,,,,,,,,,,,,,,None,,720.6173455899698,None,720.6173455899698,None,2022-08-05-11:54:16.457825,720.6273182999576,720.9316658000462,720.6273182999576,None,None,720.6273182999576,None,721.4318516899948,None,,,,21009,0002,2022_Aug_05_1142,localizer,2021.1.3,60.91692153500789,
block,scenes,scenes014.bmp,,,,,0,170,170,170,,,,,,,,,,,,,,,,,,,,,,,,,,,,,,,,,,,,,,,,,,None,,721.4318516899948,None,721.4318516899948,None,2022-08-05-11:54:17.270163,721.4409171999432,721.7485488000093,721.4409171999432,None,None,721.4409171999432,None,722.2490136899869,None,,,,21009,0002,2022_Aug_05_1142,localizer,2021.1.3,60.91692153500789,
block,scenes,scenes014.bmp,,,,,0,171,171,171,,,,,,,,,,,,,,,,,,,,,,,,,,,,,,,,,,,,,,,,,,None,,722.2490136899869,None,722.2490136899869,None,2022-08-05-11:54:18.088044,722.2493826999562,722.5548447000328,722.2493826999562,None,y,722.2493826999562,None,723.0488282900187,None,0.5007240999257192,,,21009,0002,2022_Aug_05_1142,localizer,2021.1.3,60.91692153500789,
block,scenes,scenes080.bmp,,,,,0,172,172,172,,,,,,,,,,,,,,,,,,,,,,,,,,,,,,,,,,,,,,,,,,None,,723.0488282900187,None,723.0488282900187,None,2022-08-05-11:54:18.889555,723.0493148999522,723.3484842999605,723.0493148999522,723.0493148999522,None,723.0493148999522,723.0493148999522,723.8485965900472,None,,,,21009,0002,2022_Aug_05_1142,localizer,2021.1.3,60.91692153500789,
block,scenes,scenes006.bmp,,,,,0,173,173,173,,,,,,,,,,,,,,,,,,,,,,,,,,,,,,,,,,,,,,,,,,None,,723.8485965900472,None,723.8485965900472,None,2022-08-05-11:54:19.688901,723.8490557000041,724.1484495999757,723.8490557000041,723.8490557000041,None,723.8490557000041,723.8490557000041,724.649293590046,None,,,,21009,0002,2022_Aug_05_1142,localizer,2021.1.3,60.91692153500789,
block,scenes,scenes038.bmp,,,,,0,174,174,174,,,,,,,,,,,,,,,,,,,,,,,,,,,,,,,,,,,,,,,,,,None,,724.649293590046,None,724.649293590046,None,2022-08-05-11:54:20.491582,724.6516318999929,724.9654906999785,724.6516318999929,724.6516318999929,None,724.6516318999929,724.6516318999929,725.4656075899838,None,,,,21009,0002,2022_Aug_05_1142,localizer,2021.1.3,60.91692153500789,
block,scenes,scenes024.bmp,,,,,0,175,175,175,,,,,,,,,,,,,,,,,,,,,,,,,,,,,,,,,,,,,,,,,,None,,725.4656075899838,None,725.4656075899838,None,2022-08-05-11:54:21.305005,725.4751772000454,725.7817008999409,725.4751772000454,None,None,725.4751772000454,None,726.2826325899805,None,,,,21009,0002,2022_Aug_05_1142,localizer,2021.1.3,60.91692153500789,
block,scenes,scenes078.bmp,,,,,0,176,176,176,,,,,,,,,,,,,,,,,,,,,,,,,,,,,,,,,,,,,,,,,,None,,726.2826325899805,None,726.2826325899805,None,2022-08-05-11:54:22.123121,726.2843057999853,726.5984867999796,726.2843057999853,None,None,726.2843057999853,None,727.0989426900051,None,,,,21009,0002,2022_Aug_05_1142,localizer,2021.1.3,60.91692153500789,
block,scenes,scenes072.bmp,,,,,0,177,177,177,,,,,,,,,,,,,,,,,,,,,,,,,,,,,,,,,,,,,,,,,,None,,727.0989426900051,None,727.0989426900051,None,2022-08-05-11:54:22.938352,727.0993744999869,727.3985404999694,727.0993744999869,None,None,727.0993744999869,None,727.8989744899445,None,,,,21009,0002,2022_Aug_05_1142,localizer,2021.1.3,60.91692153500789,
block,scenes,scenes029.bmp,,,,,0,178,178,178,,,,,,,,,,,,,,,,,,,,,,,,,,,,,,,,,,,,,,,,,,None,,727.8989744899445,None,727.8989744899445,None,2022-08-05-11:54:23.740315,727.9000770000275,728.2152170999907,727.9000770000275,727.9000770000275,None,727.9000770000275,727.9000770000275,728.6994273899472,None,,,,21009,0002,2022_Aug_05_1142,localizer,2021.1.3,60.91692153500789,
block,scenes,scenes066.bmp,,,,,0,179,179,179,,,,,,,,,,,,,,,,,,,,,,,,,,,,,,,,,,,,,,,,,,None,,728.6994273899472,None,728.6994273899472,None,2022-08-05-11:54:24.541891,728.7022299999371,729.0154218999669,728.7022299999371,728.7022299999371,None,728.7022299999371,728.7022299999371,729.5156299899681,None,,,,21009,0002,2022_Aug_05_1142,localizer,2021.1.3,60.91692153500789,
block,scenes,scenes082.bmp,,,,,0,180,180,180,,,,,,,,,,,,,,,,,,,,,,,,,,,,,,,,,,,,,,,,,,None,,729.5156299899681,None,729.5156299899681,None,2022-08-05-11:54:25.355095,729.5162980000023,729.8155312000308,729.5162980000023,None,None,729.5162980000023,None,730.3219693899737,None,,,,21009,0002,2022_Aug_05_1142,localizer,2021.1.3,60.91692153500789,
block,scenes,scenes074.bmp,,,,,0,181,181,181,,,,,,,,,,,,,,,,,,,,,,,,,,,,,,,,,,,,,,,,,,None,,730.3219693899737,None,730.3219693899737,None,2022-08-05-11:54:26.169246,730.338403700036,730.651962999953,730.338403700036,None,None,730.338403700036,None,731.1325570899644,None,,,,21009,0002,2022_Aug_05_1142,localizer,2021.1.3,60.91692153500789,
block_end,scenes,scenes040.bmp,,,,,0,182,182,182,,,,,,,,,,,,,,,,,,,,,,,,,,,,,,,,,,,,,,,,,,None,,731.1325570899644,None,731.1325570899644,None,2022-08-05-11:54:26.973059,731.1330261999974,731.4323789000046,731.1330261999974,None,None,731.1330261999974,None,731.9321894900058,None,,,,21009,0002,2022_Aug_05_1142,localizer,2021.1.3,60.91692153500789,
block_start,faces,faces019.bmp,,,,,0,183,183,183,,,,,,,,,,,,,,,,,,,,,,,,,,,,,,,,,,,,,,,,,,t,1.8373613000148907,731.931676200009,None,731.931676200009,None,2022-08-05-11:54:29.637336,733.799520200002,734.0984640000388,733.799520200002,None,None,733.799520200002,None,734.5987007900258,None,,,,21009,0002,2022_Aug_05_1142,localizer,2021.1.3,60.91692153500789,
block,faces,faces078.bmp,,,,,0,184,184,184,,,,,,,,,,,,,,,,,,,,,,,,,,,,,,,,,,,,,,,,,,None,,734.5987007900258,None,734.5987007900258,None,2022-08-05-11:54:30.439591,734.5993644000264,734.8988334999885,734.5993644000264,734.5993644000264,None,734.5993644000264,734.5993644000264,735.3989501899923,None,,,,21009,0002,2022_Aug_05_1142,localizer,2021.1.3,60.91692153500789,
block,faces,faces069.bmp,,,,,0,185,185,185,,,,,,,,,,,,,,,,,,,,,,,,,,,,,,,,,,,,,,,,,,None,,735.3989501899923,None,735.3989501899923,None,2022-08-05-11:54:31.239249,735.3995624999516,735.698616300011,735.3995624999516,735.3995624999516,None,735.3995624999516,735.3995624999516,736.1990210899967,None,,,,21009,0002,2022_Aug_05_1142,localizer,2021.1.3,60.91692153500789,
block,faces,faces068.bmp,,,,,0,186,186,186,,,,,,,,,,,,,,,,,,,,,,,,,,,,,,,,,,,,,,,,,,None,,736.1990210899967,None,736.1990210899967,None,2022-08-05-11:54:32.039320,736.1996303000487,736.4984862999991,736.1996303000487,736.1996303000487,None,736.1996303000487,736.1996303000487,736.9988756899838,None,,,,21009,0002,2022_Aug_05_1142,localizer,2021.1.3,60.91692153500789,
block,faces,faces087.bmp,,,,,0,187,187,187,,,,,,,,,,,,,,,,,,,,,,,,,,,,,,,,,,,,,,,,,,None,,736.9988756899838,None,736.9988756899838,None,2022-08-05-11:54:32.840295,736.9996209000237,737.2984725999413,736.9996209000237,736.9996209000237,None,736.9996209000237,736.9996209000237,737.7993683899404,None,,,,21009,0002,2022_Aug_05_1142,localizer,2021.1.3,60.91692153500789,
block,faces,faces079.bmp,,,,,0,188,188,188,,,,,,,,,,,,,,,,,,,,,,,,,,,,,,,,,,,,,,,,,,None,,737.7993683899404,None,737.7993683899404,None,2022-08-05-11:54:33.640733,737.8108356000157,738.1152048000367,737.8108356000157,737.8108356000157,None,737.8108356000157,737.8108356000157,738.6153915899922,None,,,,21009,0002,2022_Aug_05_1142,localizer,2021.1.3,60.91692153500789,
block,faces,faces029.bmp,,,,,0,189,189,189,,,,,,,,,,,,,,,,,,,,,,,,,,,,,,,,,,,,,,,,,,None,,738.6153915899922,None,738.6153915899922,None,2022-08-05-11:54:34.454823,738.6253792999778,738.9317360999994,738.6253792999778,None,None,738.6253792999778,None,739.4322740899515,None,,,,21009,0002,2022_Aug_05_1142,localizer,2021.1.3,60.91692153500789,
block,faces,faces073.bmp,,,,,0,190,190,190,,,,,,,,,,,,,,,,,,,,,,,,,,,,,,,,,,,,,,,,,,None,,739.4322740899515,None,739.4322740899515,None,2022-08-05-11:54:35.271838,739.4328888000455,739.7321260999888,739.4328888000455,None,None,739.4328888000455,None,740.2328282900271,None,,,,21009,0002,2022_Aug_05_1142,localizer,2021.1.3,60.91692153500789,
block,faces,faces008.bmp,,,,,0,191,191,191,,,,,,,,,,,,,,,,,,,,,,,,,,,,,,,,,,,,,,,,,,None,,740.2328282900271,None,740.2328282900271,None,2022-08-05-11:54:36.076301,740.2366478999611,740.5481280999957,740.2366478999611,740.2366478999611,None,740.2366478999611,740.2366478999611,741.0488595900242,None,,,,21009,0002,2022_Aug_05_1142,localizer,2021.1.3,60.91692153500789,
block,faces,faces080.bmp,,,,,0,192,192,192,,,,,,,,,,,,,,,,,,,,,,,,,,,,,,,,,,,,,,,,,,None,,741.0488595900242,None,741.0488595900242,None,2022-08-05-11:54:36.888167,741.0501109999605,741.3488541999832,741.0501109999605,None,None,741.0501109999605,None,741.865387489961,None,,,,21009,0002,2022_Aug_05_1142,localizer,2021.1.3,60.91692153500789,
block,faces,faces080.bmp,,,,,0,193,193,193,,,,,,,,,,,,,,,,,,,,,,,,,,,,,,,,,,,,,,,,,,None,,741.865387489961,None,741.865387489961,None,2022-08-05-11:54:37.704690,741.8664633999579,742.1819531000219,741.8664633999579,None,y,741.8664633999579,None,742.681811490038,None,0.5855916999280453,,,21009,0002,2022_Aug_05_1142,localizer,2021.1.3,60.91692153500789,
block,faces,faces033.bmp,,,,,0,194,194,194,,,,,,,,,,,,,,,,,,,,,,,,,,,,,,,,,,,,,,,,,,None,,742.681811490038,None,742.681811490038,None,2022-08-05-11:54:38.521338,742.6832000999711,742.9985197000206,742.6832000999711,None,None,742.6832000999711,None,743.4985223899712,None,,,,21009,0002,2022_Aug_05_1142,localizer,2021.1.3,60.91692153500789,
block,faces,faces021.bmp,,,,,0,195,195,195,,,,,,,,,,,,,,,,,,,,,,,,,,,,,,,,,,,,,,,,,,None,,743.4985223899712,None,743.4985223899712,None,2022-08-05-11:54:39.337861,743.4994315999793,743.7983550999779,743.4994315999793,None,None,743.4994315999793,None,744.2991243899451,None,,,,21009,0002,2022_Aug_05_1142,localizer,2021.1.3,60.91692153500789,
block,faces,faces028.bmp,,,,,0,196,196,196,,,,,,,,,,,,,,,,,,,,,,,,,,,,,,,,,,,,,,,,,,None,,744.2991243899451,None,744.2991243899451,None,2022-08-05-11:54:40.141621,744.301865400048,744.6154572999803,744.301865400048,744.301865400048,None,744.301865400048,744.301865400048,745.1155925900093,None,,,,21009,0002,2022_Aug_05_1142,localizer,2021.1.3,60.91692153500789,
block_end,faces,faces015.bmp,,,,,0,197,197,197,,,,,,,,,,,,,,,,,,,,,,,,,,,,,,,,,,,,,,,,,,None,,745.1155925900093,None,745.1155925900093,None,2022-08-05-11:54:40.954912,745.1297756000422,745.4315614999505,745.1297756000422,None,None,745.1297756000422,None,745.9328195900307,None,,,,21009,0002,2022_Aug_05_1142,localizer,2021.1.3,60.91692153500789,
null_block,null_block,null_block.bmp,,,,,0,198,198,198,,,,,,,,,,,,,,,,,,,,,,,,,,,,,,,,,,,,,,,,,,t,1.8378343000076711,745.9313262000214,None,745.9313262000214,None,2022-08-05-11:54:43.637086,747.7989335900056,None,747.7989335900056,None,None,747.7989335900056,None,747.799924199935,None,,,,21009,0002,2022_Aug_05_1142,localizer,2021.1.3,60.91692153500789,
block_start,objects,objects072.bmp,,,,,0,199,199,199,,,,,,,,,,,,,,,,,,,,,,,,,,,,,,,,,,,,,,,,,,t,1.953744599944912,759.8153277999954,None,759.8153277999954,None,2022-08-05-11:54:57.639178,761.7995831000153,762.0992963999743,761.7995831000153,None,None,761.7995831000153,None,762.5997467899579,None,,,,21009,0002,2022_Aug_05_1142,localizer,2021.1.3,60.91692153500789,
block,objects,objects047.bmp,,,,,0,200,200,200,,,,,,,,,,,,,,,,,,,,,,,,,,,,,,,,,,,,,,,,,,None,,762.5997467899579,None,762.5997467899579,None,2022-08-05-11:54:58.442214,762.6102505000308,762.9152243999997,762.6102505000308,762.6102505000308,None,762.6102505000308,762.6102505000308,763.4161122899386,None,,,,21009,0002,2022_Aug_05_1142,localizer,2021.1.3,60.91692153500789,
block,objects,objects084.bmp,,,,,0,201,201,201,,,,,,,,,,,,,,,,,,,,,,,,,,,,,,,,,,,,,,,,,,None,,763.4161122899386,None,763.4161122899386,None,2022-08-05-11:54:59.256405,763.4265921999468,763.7319693999598,763.4265921999468,None,None,763.4265921999468,None,764.2325079900329,None,,,,21009,0002,2022_Aug_05_1142,localizer,2021.1.3,60.91692153500789,
block,objects,objects002.bmp,,,,,0,202,202,202,,,,,,,,,,,,,,,,,,,,,,,,,,,,,,,,,,,,,,,,,,None,,764.2325079900329,None,764.2325079900329,None,2022-08-05-11:55:00.071809,764.2329140000511,764.5324921000283,764.2329140000511,None,None,764.2329140000511,None,765.033053590043,None,,,,21009,0002,2022_Aug_05_1142,localizer,2021.1.3,60.91692153500789,
block,objects,objects060.bmp,,,,,0,203,203,203,,,,,,,,,,,,,,,,,,,,,,,,,,,,,,,,,,,,,,,,,,None,,765.033053590043,None,765.033053590043,None,2022-08-05-11:55:00.875361,765.0357401999645,765.3493764000013,765.0357401999645,765.0357401999645,None,765.0357401999645,765.0357401999645,765.8504415900097,None,,,,21009,0002,2022_Aug_05_1142,localizer,2021.1.3,60.91692153500789,
block,objects,objects017.bmp,,,,,0,204,204,204,,,,,,,,,,,,,,,,,,,,,,,,,,,,,,,,,,,,,,,,,,None,,765.8504415900097,None,765.8504415900097,None,2022-08-05-11:55:01.692626,765.853003700031,766.1653897999786,765.853003700031,None,None,765.853003700031,None,766.6655211899779,None,,,,21009,0002,2022_Aug_05_1142,localizer,2021.1.3,60.91692153500789,
block,objects,objects053.bmp,,,,,0,205,205,205,,,,,,,,,,,,,,,,,,,,,,,,,,,,,,,,,,,,,,,,,,None,,766.6655211899779,None,766.6655211899779,None,2022-08-05-11:55:02.504264,766.666328500025,766.965846600011,766.666328500025,None,None,766.666328500025,None,767.4657523900387,None,,,,21009,0002,2022_Aug_05_1142,localizer,2021.1.3,60.91692153500789,
block,objects,objects015.bmp,,,,,0,206,206,206,,,,,,,,,,,,,,,,,,,,,,,,,,,,,,,,,,,,,,,,,,None,,767.4657523900387,None,767.4657523900387,None,2022-08-05-11:55:03.307051,767.4666099000024,767.7820492000319,767.4666099000024,767.4666099000024,None,767.4666099000024,767.4666099000024,768.2822790899663,None,,,,21009,0002,2022_Aug_05_1142,localizer,2021.1.3,60.91692153500789,
block,objects,objects064.bmp,,,,,0,207,207,207,,,,,,,,,,,,,,,,,,,,,,,,,,,,,,,,,,,,,,,,,,None,,768.2822790899663,None,768.2822790899663,None,2022-08-05-11:55:04.120592,768.283049599966,768.5826766999671,768.283049599966,None,None,768.283049599966,None,769.0830613900325,None,,,,21009,0002,2022_Aug_05_1142,localizer,2021.1.3,60.91692153500789,
block,objects,objects058.bmp,,,,,0,208,208,208,,,,,,,,,,,,,,,,,,,,,,,,,,,,,,,,,,,,,,,,,,None,,769.0830613900325,None,769.0830613900325,None,2022-08-05-11:55:04.925539,769.0859171999618,769.3985829999438,769.0859171999618,769.0859171999618,None,769.0859171999618,769.0859171999618,769.8989538900205,None,,,,21009,0002,2022_Aug_05_1142,localizer,2021.1.3,60.91692153500789,
block,objects,objects085.bmp,,,,,0,209,209,209,,,,,,,,,,,,,,,,,,,,,,,,,,,,,,,,,,,,,,,,,,None,,769.8989538900205,None,769.8989538900205,None,2022-08-05-11:55:05.738261,769.8995028999634,770.1989889999386,769.8995028999634,None,None,769.8995028999634,None,770.7002966900473,None,,,,21009,0002,2022_Aug_05_1142,localizer,2021.1.3,60.91692153500789,
block,objects,objects032.bmp,,,,,0,210,210,210,,,,,,,,,,,,,,,,,,,,,,,,,,,,,,,,,,,,,,,,,,None,,770.7002966900473,None,770.7002966900473,None,2022-08-05-11:55:06.544803,770.7040020000422,771.015422699973,770.7040020000422,770.7040020000422,None,770.7040020000422,770.7040020000422,771.5156447899644,None,,,,21009,0002,2022_Aug_05_1142,localizer,2021.1.3,60.91692153500789,
block,objects,objects040.bmp,,,,,0,211,211,211,,,,,,,,,,,,,,,,,,,,,,,,,,,,,,,,,,,,,,,,,,None,,771.5156447899644,None,771.5156447899644,None,2022-08-05-11:55:07.354952,771.5162738999352,771.8153166000266,771.5162738999352,None,None,771.5162738999352,None,772.3157266899361,None,,,,21009,0002,2022_Aug_05_1142,localizer,2021.1.3,60.91692153500789,
block,objects,objects038.bmp,,,,,0,212,212,212,,,,,,,,,,,,,,,,,,,,,,,,,,,,,,,,,,,,,,,,,,None,,772.3157266899361,None,772.3157266899361,None,2022-08-05-11:55:08.156027,772.3162811000366,772.6154398999643,772.3162811000366,772.3162811000366,None,772.3162811000366,772.3162811000366,773.1158478899742,None,,,,21009,0002,2022_Aug_05_1142,localizer,2021.1.3,60.91692153500789,
block_end,objects,objects073.bmp,,,,,0,213,213,213,,,,,,,,,,,,,,,,,,,,,,,,,,,,,,,,,,,,,,,,,,None,,773.1158478899742,None,773.1158478899742,None,2022-08-05-11:55:08.957145,773.1167095999699,773.4153485000134,773.1167095999699,773.1167095999699,None,773.1167095999699,773.1167095999699,773.9322533900267,None,,,,21009,0002,2022_Aug_05_1142,localizer,2021.1.3,60.91692153500789,
block_start,scenes,scenes048.bmp,,,,,0,214,214,214,,,,,,,,,,,,,,,,,,,,,,,,,,,,,,,,,,,,,,,,,,t,1.8364905999042094,773.9318040000508,None,773.9318040000508,None,2022-08-05-11:55:11.637396,775.8121199000161,776.1158460000297,775.8121199000161,None,None,775.8121199000161,None,776.6173563899356,None,,,,21009,0002,2022_Aug_05_1142,localizer,2021.1.3,60.91692153500789,
block,scenes,scenes035.bmp,,,,,0,215,215,215,,,,,,,,,,,,,,,,,,,,,,,,,,,,,,,,,,,,,,,,,,None,,776.6173563899356,None,776.6173563899356,None,2022-08-05-11:55:12.457646,776.6175629999489,776.9319553000387,776.6175629999489,None,None,776.6175629999489,None,777.4327197899693,None,,,,21009,0002,2022_Aug_05_1142,localizer,2021.1.3,60.91692153500789,
block,scenes,scenes030.bmp,,,,,0,216,216,216,,,,,,,,,,,,,,,,,,,,,,,,,,,,,,,,,,,,,,,,,,None,,777.4327197899693,None,777.4327197899693,None,2022-08-05-11:55:13.272019,777.4432697000448,777.748675800045,777.4432697000448,None,None,777.4432697000448,None,778.2490146899945,None,,,,21009,0002,2022_Aug_05_1142,localizer,2021.1.3,60.91692153500789,
block,scenes,scenes057.bmp,,,,,0,217,217,217,,,,,,,,,,,,,,,,,,,,,,,,,,,,,,,,,,,,,,,,,,None,,778.2490146899945,None,778.2490146899945,None,2022-08-05-11:55:14.088319,778.2500290999888,778.5654831000138,778.2500290999888,None,None,778.2500290999888,None,779.0490426900215,None,,,,21009,0002,2022_Aug_05_1142,localizer,2021.1.3,60.91692153500789,
block,scenes,scenes076.bmp,,,,,0,218,218,218,,,,,,,,,,,,,,,,,,,,,,,,,,,,,,,,,,,,,,,,,,None,,779.0490426900215,None,779.0490426900215,None,2022-08-05-11:55:14.890345,779.049984500045,779.348688099999,779.049984500045,779.049984500045,None,779.049984500045,779.049984500045,779.8491004900425,None,,,,21009,0002,2022_Aug_05_1142,localizer,2021.1.3,60.91692153500789,
block,scenes,scenes028.bmp,,,,,0,219,219,219,,,,,,,,,,,,,,,,,,,,,,,,,,,,,,,,,,,,,,,,,,None,,779.8491004900425,None,779.8491004900425,None,2022-08-05-11:55:15.690351,779.8498177999863,780.1487991999602,779.8498177999863,779.8498177999863,None,779.8498177999863,779.8498177999863,780.6492317900411,None,,,,21009,0002,2022_Aug_05_1142,localizer,2021.1.3,60.91692153500789,
block,scenes,scenes063.bmp,,,,,0,220,220,220,,,,,,,,,,,,,,,,,,,,,,,,,,,,,,,,,,,,,,,,,,None,,780.6492317900411,None,780.6492317900411,None,2022-08-05-11:55:16.490529,780.6501389000332,780.9487709000241,780.6501389000332,780.6501389000332,None,780.6501389000332,780.6501389000332,781.4657988900435,None,,,,21009,0002,2022_Aug_05_1142,localizer,2021.1.3,60.91692153500789,
block,scenes,scenes055.bmp,,,,,0,221,221,221,,,,,,,,,,,,,,,,,,,,,,,,,,,,,,,,,,,,,,,,,,None,,781.4657988900435,None,781.4657988900435,None,2022-08-05-11:55:17.305463,781.4663931999821,781.7653623999795,781.4663931999821,None,None,781.4663931999821,None,782.2656168899848,None,,,,21009,0002,2022_Aug_05_1142,localizer,2021.1.3,60.91692153500789,
block,scenes,scenes081.bmp,,,,,0,222,222,222,,,,,,,,,,,,,,,,,,,,,,,,,,,,,,,,,,,,,,,,,,None,,782.2656168899848,None,782.2656168899848,None,2022-08-05-11:55:18.106916,782.266628399957,782.5658776999917,782.266628399957,782.266628399957,None,782.266628399957,782.266628399957,783.0661630899995,None,,,,21009,0002,2022_Aug_05_1142,localizer,2021.1.3,60.91692153500789,
block,scenes,scenes089.bmp,,,,,0,223,223,223,,,,,,,,,,,,,,,,,,,,,,,,,,,,,,,,,,,,,,,,,,None,,783.0661630899995,None,783.0661630899995,None,2022-08-05-11:55:18.908629,783.0754441999597,783.3824206000427,783.0754441999597,783.0754441999597,None,783.0754441999597,783.0754441999597,783.8828325899667,None,,,,21009,0002,2022_Aug_05_1142,localizer,2021.1.3,60.91692153500789,
block,scenes,scenes073.bmp,,,,,0,224,224,224,,,,,,,,,,,,,,,,,,,,,,,,,,,,,,,,,,,,,,,,,,None,,783.8828325899667,None,783.8828325899667,None,2022-08-05-11:55:19.723125,783.8851667999988,784.1985957999714,783.8851667999988,None,None,783.8851667999988,None,784.6999207899789,None,,,,21009,0002,2022_Aug_05_1142,localizer,2021.1.3,60.91692153500789,
block,scenes,scenes043.bmp,,,,,0,225,225,225,,,,,,,,,,,,,,,,,,,,,,,,,,,,,,,,,,,,,,,,,,None,,784.6999207899789,None,784.6999207899789,None,2022-08-05-11:55:20.539402,784.7003811999457,785.0155333000002,784.7003811999457,None,None,784.7003811999457,None,785.5056329899817,None,,,,21009,0002,2022_Aug_05_1142,localizer,2021.1.3,60.91692153500789,
block,scenes,scenes050.bmp,,,,,0,226,226,226,,,,,,,,,,,,,,,,,,,,,,,,,,,,,,,,,,,,,,,,,,None,,785.5056329899817,None,785.5056329899817,None,2022-08-05-11:55:21.352814,785.5112647999777,785.8154118999373,785.5112647999777,None,None,785.5112647999777,None,786.315913689963,None,,,,21009,0002,2022_Aug_05_1142,localizer,2021.1.3,60.91692153500789,
block,scenes,scenes027.bmp,,,,,0,227,227,227,,,,,,,,,,,,,,,,,,,,,,,,,,,,,,,,,,,,,,,,,,None,,786.315913689963,None,786.315913689963,None,2022-08-05-11:55:22.155219,786.3162717999658,786.6155126999365,786.3162717999658,None,None,786.3162717999658,None,787.115677189955,None,,,,21009,0002,2022_Aug_05_1142,localizer,2021.1.3,60.91692153500789,
block_end,scenes,scenes010.bmp,,,,,0,228,228,228,,,,,,,,,,,,,,,,,,,,,,,,,,,,,,,,,,,,,,,,,,None,,787.115677189955,None,787.115677189955,None,2022-08-05-11:55:22.955975,787.116429500049,787.4153932000045,787.116429500049,787.116429500049,None,787.116429500049,787.116429500049,787.9158118899795,None,,,,21009,0002,2022_Aug_05_1142,localizer,2021.1.3,60.91692153500789,
block_start,scrambled,scrambled069.bmp,,,,,0,229,229,229,,,,,,,,,,,,,,,,,,,,,,,,,,,,,,,,,,,,,,,,,,t,1.853026199969463,787.915264399955,None,787.915264399955,None,2022-08-05-11:55:25.639979,789.8102466999553,790.1153453999432,789.8102466999553,None,None,789.8102466999553,None,790.6171506899991,None,,,,21009,0002,2022_Aug_05_1142,localizer,2021.1.3,60.91692153500789,
block,scrambled,scrambled058.bmp,,,,,0,230,230,230,,,,,,,,,,,,,,,,,,,,,,,,,,,,,,,,,,,,,,,,,,None,,790.6171506899991,None,790.6171506899991,None,2022-08-05-11:55:26.458605,790.6191136999987,790.9327048000414,790.6191136999987,None,None,790.6191136999987,None,791.4321009900304,None,,,,21009,0002,2022_Aug_05_1142,localizer,2021.1.3,60.91692153500789,
block,scrambled,scrambled087.bmp,,,,,0,231,231,231,,,,,,,,,,,,,,,,,,,,,,,,,,,,,,,,,,,,,,,,,,None,,791.4321009900304,None,791.4321009900304,None,2022-08-05-11:55:27.271408,791.437114099972,791.7487230999395,791.437114099972,None,None,791.437114099972,None,792.2490498900297,None,,,,21009,0002,2022_Aug_05_1142,localizer,2021.1.3,60.91692153500789,
block,scrambled,scrambled044.bmp,,,,,0,232,232,232,,,,,,,,,,,,,,,,,,,,,,,,,,,,,,,,,,,,,,,,,,None,,792.2490498900297,None,792.2490498900297,None,2022-08-05-11:55:28.088358,792.249778999947,792.5486972000217,792.249778999947,None,None,792.249778999947,None,793.0491444899817,None,,,,21009,0002,2022_Aug_05_1142,localizer,2021.1.3,60.91692153500789,
block,scrambled,scrambled077.bmp,,,,,0,233,233,233,,,,,,,,,,,,,,,,,,,,,,,,,,,,,,,,,,,,,,,,,,None,,793.0491444899817,None,793.0491444899817,None,2022-08-05-11:55:28.889446,793.0588243999518,793.365496100043,793.0588243999518,793.0588243999518,None,793.0588243999518,793.0588243999518,793.8659495900501,None,,,,21009,0002,2022_Aug_05_1142,localizer,2021.1.3,60.91692153500789,
block,scrambled,scrambled074.bmp,,,,,0,234,234,234,,,,,,,,,,,,,,,,,,,,,,,,,,,,,,,,,,,,,,,,,,None,,793.8659495900501,None,793.8659495900501,None,2022-08-05-11:55:29.705496,793.8664101000177,794.1654447000474,793.8664101000177,None,None,793.8664101000177,None,794.665821589937,None,,,,21009,0002,2022_Aug_05_1142,localizer,2021.1.3,60.91692153500789,
block,scrambled,scrambled021.bmp,,,,,0,235,235,235,,,,,,,,,,,,,,,,,,,,,,,,,,,,,,,,,,,,,,,,,,None,,794.665821589937,None,794.665821589937,None,2022-08-05-11:55:30.506123,794.6663211999694,794.9655250000069,794.6663211999694,794.6663211999694,None,794.6663211999694,794.6663211999694,795.4663067899528,None,,,,21009,0002,2022_Aug_05_1142,localizer,2021.1.3,60.91692153500789,
block,scrambled,scrambled045.bmp,,,,,0,236,236,236,,,,,,,,,,,,,,,,,,,,,,,,,,,,,,,,,,,,,,,,,,None,,795.4663067899528,None,795.4663067899528,None,2022-08-05-11:55:31.308593,795.4793044000398,795.7821321999654,795.4793044000398,795.4793044000398,None,795.4793044000398,795.4793044000398,796.282565989939,None,,,,21009,0002,2022_Aug_05_1142,localizer,2021.1.3,60.91692153500789,
block,scrambled,scrambled086.bmp,,,,,0,237,237,237,,,,,,,,,,,,,,,,,,,,,,,,,,,,,,,,,,,,,,,,,,None,,796.282565989939,None,796.282565989939,None,2022-08-05-11:55:32.121870,796.2920046000509,796.599436199991,796.2920046000509,None,None,796.2920046000509,None,797.0994802900241,None,,,,21009,0002,2022_Aug_05_1142,localizer,2021.1.3,60.91692153500789,
block,scrambled,scrambled054.bmp,,,,,0,238,238,238,,,,,,,,,,,,,,,,,,,,,,,,,,,,,,,,,,,,,,,,,,None,,797.0994802900241,None,797.0994802900241,None,2022-08-05-11:55:32.938782,797.0999053999549,797.3989668999566,797.0999053999549,None,None,797.0999053999549,None,797.8991953899967,None,,,,21009,0002,2022_Aug_05_1142,localizer,2021.1.3,60.91692153500789,
block,scrambled,scrambled072.bmp,,,,,0,239,239,239,,,,,,,,,,,,,,,,,,,,,,,,,,,,,,,,,,,,,,,,,,None,,797.8991953899967,None,797.8991953899967,None,2022-08-05-11:55:33.739498,797.9098797000479,798.2155140000395,797.9098797000479,797.9098797000479,None,797.9098797000479,797.9098797000479,798.7165589900105,None,,,,21009,0002,2022_Aug_05_1142,localizer,2021.1.3,60.91692153500789,
block,scrambled,scrambled009.bmp,,,,,0,240,240,240,,,,,,,,,,,,,,,,,,,,,,,,,,,,,,,,,,,,,,,,,,None,,798.7165589900105,None,798.7165589900105,None,2022-08-05-11:55:34.557065,798.7184346000431,799.0329298999859,798.7184346000431,None,None,798.7184346000431,None,799.5322134900489,None,,,,21009,0002,2022_Aug_05_1142,localizer,2021.1.3,60.91692153500789,
block,scrambled,scrambled003.bmp,,,,,0,241,241,241,,,,,,,,,,,,,,,,,,,,,,,,,,,,,,,,,,,,,,,,,,None,,799.5322134900489,None,799.5322134900489,None,2022-08-05-11:55:35.371490,799.539866499952,799.8490577000193,799.539866499952,None,None,799.539866499952,None,800.350618389959,None,,,,21009,0002,2022_Aug_05_1142,localizer,2021.1.3,60.91692153500789,
block,scrambled,scrambled018.bmp,,,,,0,242,242,242,,,,,,,,,,,,,,,,,,,,,,,,,,,,,,,,,,,,,,,,,,None,,800.350618389959,None,800.350618389959,None,2022-08-05-11:55:36.192082,800.3534436000045,800.6658727000467,800.3534436000045,None,None,800.3534436000045,None,801.166402689938,None,,,,21009,0002,2022_Aug_05_1142,localizer,2021.1.3,60.91692153500789,
block_end,scrambled,scrambled061.bmp,,,,,0,243,243,243,,,,,,,,,,,,,,,,,,,,,,,,,,,,,,,,,,,,,,,,,,None,,801.166402689938,None,801.166402689938,None,2022-08-05-11:55:37.006696,801.1664791000076,801.4658196000382,801.1664791000076,None,None,801.1664791000076,None,801.9666025899933,None,,,,21009,0002,2022_Aug_05_1142,localizer,2021.1.3,60.91692153500789,
,,,,,,,,,,,,,,,,,,,,,,,,,,,,,,,,,,,,,,,,,,,,,,,,,,,,,,,,,,,,,,,,,,,,,801.9661692000227,None,,,,,,,
