block_type,condition,img_name,Button.thisRepN,Button.thisTrialN,Button.thisN,Button.thisIndex,trials.thisRepN,trials.thisTrialN,trials.thisN,trials.thisIndex,Ready_experimenter_text.started,Ready_experimenter_text.stopped,Ready_experimenter_resp.keys,Ready_experimenter_resp.rt,Ready_experimenter_resp.started,Ready_experimenter_resp.stopped,Alignment_background.started,Alignment_background.stopped,Alignment_image.started,Alignment_image.stopped,Alignment_resp.keys,Alignment_resp.rt,Alignment_resp.started,Alignment_resp.stopped,Button_text.started,Button_text.stopped,Index_text.started,Index_text.stopped,Index_resp.keys,Index_resp.rt,Index_resp.started,Index_resp.stopped,Middle_text.started,Middle_text.stopped,Middle_resp.keys,Middle_resp.rt,Middle_resp.started,Middle_resp.stopped,Repeat_text.started,Repeat_text.stopped,Repeat_resp.keys,Repeat_resp.corr,Repeat_resp.rt,Repeat_resp.started,Repeat_resp.stopped,instruction_text.started,instruction_text.stopped,key_resp.keys,key_resp.rt,key_resp.started,key_resp.stopped,scanner_t.keys,scanner_t.rt,scanner_t.started,scanner_t.stopped,fixation_wait_for_t.started,fixation_wait_for_t.stopped,real_timestamp_trial_start,image.started,image.stopped,fixation.started,fixation.stopped,repeat_response.keys,repeat_response.started,repeat_response.stopped,fixation_null.started,fixation_null.stopped,repeat_response.rt,end_text.started,end_text.stopped,participant,run,date,expName,psychopyVersion,frameRate,
,,,,,,,,,,,11.74376819981262,None,return,462.4372297001537,11.74376819981262,None,,,,,,,,,,,,,,,,,,,,,,,,,,,,,,,,,,,,,,,,,,,,,,,,,,,,,,,12017,0002,2022_May_20_1356,localizer,2021.1.3,60.92011298944356,
,,,,,,,,,,,,,,,,,474.22725879983045,None,474.22725879983045,None,return,1.0419217001181096,474.22725879983045,None,,,,,,,,,,,,,,,,,,,,,,,,,,,,,,,,,,,,,,,,,,,,,,,12017,0002,2022_May_20_1356,localizer,2021.1.3,60.92011298944356,
,,,0,0,0,0,,,,,,,,,,,,,,,,,,,475.29163069999777,None,476.29586549988016,None,y,2.5884573999792337,476.29586549988016,None,478.90750669990666,None,b,1.4135804998222739,478.90750669990666,None,480.341720999917,None,n,0,25.535381600027904,480.341720999917,None,,,,,,,,,,,,,,,,,,,,,,,,,,12017,0002,2022_May_20_1356,localizer,2021.1.3,60.92011298944356,
,,,,,,,,,,,,,,,,,,,,,,,,,,,,,,,,,,,,,,,,,,,,,,505.9084589998238,None,y,4.187752600060776,505.9084589998238,None,,,,,,,,,,,,,,,,,,,,12017,0002,2022_May_20_1356,localizer,2021.1.3,60.92011298944356,
block_start,scenes,scenes044.bmp,,,,,0,0,0,0,,,,,,,,,,,,,,,,,,,,,,,,,,,,,,,,,,,,,,,,,,t,15.27295619994402,510.1532649998553,None,510.1532649998553,None,2022-05-20-14:04:48.486847,525.4470746999141,525.758203299949,525.4470746999141,None,None,525.4470746999141,None,526.2583342400146,None,,,,12017,0002,2022_May_20_1356,localizer,2021.1.3,60.92011298944356,
block,scenes,scenes044.bmp,,,,,0,1,1,1,,,,,,,,,,,,,,,,,,,,,,,,,,,,,,,,,,,,,,,,,,None,,526.2583342400146,None,526.2583342400146,None,2022-05-20-14:04:49.306854,526.268166200025,526.5746167998295,526.268166200025,None,y,526.268166200025,None,527.075364039815,None,0.7121570999734104,,,12017,0002,2022_May_20_1356,localizer,2021.1.3,60.92011298944356,
block,scenes,scenes087.bmp,,,,,0,2,2,2,,,,,,,,,,,,,,,,,,,,,,,,,,,,,,,,,,,,,,,,,,None,,527.075364039815,None,527.075364039815,None,2022-05-20-14:04:50.122905,527.0820939999539,527.3912704999093,527.0820939999539,None,None,527.0820939999539,None,527.892597640003,None,,,,12017,0002,2022_May_20_1356,localizer,2021.1.3,60.92011298944356,
block,scenes,scenes030.bmp,,,,,0,3,3,3,,,,,,,,,,,,,,,,,,,,,,,,,,,,,,,,,,,,,,,,,,None,,527.892597640003,None,527.892597640003,None,2022-05-20-14:04:50.941125,527.895551599795,528.2075124999974,527.895551599795,None,None,527.895551599795,None,528.7083723399089,None,,,,12017,0002,2022_May_20_1356,localizer,2021.1.3,60.92011298944356,
block,scenes,scenes006.bmp,,,,,0,4,4,4,,,,,,,,,,,,,,,,,,,,,,,,,,,,,,,,,,,,,,,,,,None,,528.7083723399089,None,528.7083723399089,None,2022-05-20-14:04:51.754926,528.7197042999323,529.0257067999337,528.7197042999323,None,None,528.7197042999323,None,529.5258089400129,None,,,,12017,0002,2022_May_20_1356,localizer,2021.1.3,60.92011298944356,
block,scenes,scenes068.bmp,,,,,0,5,5,5,,,,,,,,,,,,,,,,,,,,,,,,,,,,,,,,,,,,,,,,,,None,,529.5258089400129,None,529.5258089400129,None,2022-05-20-14:04:52.573496,529.5280259000137,529.8249365999363,529.5280259000137,None,None,529.5280259000137,None,530.342722639977,None,,,,12017,0002,2022_May_20_1356,localizer,2021.1.3,60.92011298944356,
block,scenes,scenes053.bmp,,,,,0,6,6,6,,,,,,,,,,,,,,,,,,,,,,,,,,,,,,,,,,,,,,,,,,None,,530.342722639977,None,530.342722639977,None,2022-05-20-14:04:53.391248,530.3457203998696,530.6590795000084,530.3457203998696,None,None,530.3457203998696,None,531.1583914398914,None,,,,12017,0002,2022_May_20_1356,localizer,2021.1.3,60.92011298944356,
block,scenes,scenes039.bmp,,,,,0,7,7,7,,,,,,,,,,,,,,,,,,,,,,,,,,,,,,,,,,,,,,,,,,None,,531.1583914398914,None,531.1583914398914,None,2022-05-20-14:04:54.204951,531.1630062998738,531.4745234998409,531.1630062998738,None,None,531.1630062998738,None,531.9751945399446,None,,,,12017,0002,2022_May_20_1356,localizer,2021.1.3,60.92011298944356,
block,scenes,scenes049.bmp,,,,,0,8,8,8,,,,,,,,,,,,,,,,,,,,,,,,,,,,,,,,,,,,,,,,,,None,,531.9751945399446,None,531.9751945399446,None,2022-05-20-14:04:55.022862,531.9756612998899,532.2746250999626,531.9756612998899,None,None,531.9756612998899,None,532.774801740027,None,,,,12017,0002,2022_May_20_1356,localizer,2021.1.3,60.92011298944356,
block,scenes,scenes083.bmp,,,,,0,9,9,9,,,,,,,,,,,,,,,,,,,,,,,,,,,,,,,,,,,,,,,,,,None,,532.774801740027,None,532.774801740027,None,2022-05-20-14:04:55.823364,532.7759673998225,533.0902219000272,532.7759673998225,532.7759673998225,None,532.7759673998225,532.7759673998225,533.5914185399422,None,,,,12017,0002,2022_May_20_1356,localizer,2021.1.3,60.92011298944356,
block,scenes,scenes034.bmp,,,,,0,10,10,10,,,,,,,,,,,,,,,,,,,,,,,,,,,,,,,,,,,,,,,,,,None,,533.5914185399422,None,533.5914185399422,None,2022-05-20-14:04:56.637985,533.5963284999598,533.9085412998684,533.5963284999598,None,None,533.5963284999598,None,534.4087306399131,None,,,,12017,0002,2022_May_20_1356,localizer,2021.1.3,60.92011298944356,
block,scenes,scenes088.bmp,,,,,0,11,11,11,,,,,,,,,,,,,,,,,,,,,,,,,,,,,,,,,,,,,,,,,,None,,534.4087306399131,None,534.4087306399131,None,2022-05-20-14:04:57.456440,534.4103065999225,534.7251054998487,534.4103065999225,None,None,534.4103065999225,None,535.2256554398452,None,,,,12017,0002,2022_May_20_1356,localizer,2021.1.3,60.92011298944356,
block,scenes,scenes091.bmp,,,,,0,12,12,12,,,,,,,,,,,,,,,,,,,,,,,,,,,,,,,,,,,,,,,,,,None,,535.2256554398452,None,535.2256554398452,None,2022-05-20-14:04:58.273411,535.2327536998782,535.541282299906,535.2327536998782,None,None,535.2327536998782,None,536.0416147399926,None,,,,12017,0002,2022_May_20_1356,localizer,2021.1.3,60.92011298944356,
block,scenes,scenes070.bmp,,,,,0,13,13,13,,,,,,,,,,,,,,,,,,,,,,,,,,,,,,,,,,,,,,,,,,None,,536.0416147399926,None,536.0416147399926,None,2022-05-20-14:04:59.088190,536.0422739998903,536.3409903999418,536.0422739998903,None,None,536.0422739998903,None,536.8419504399178,None,,,,12017,0002,2022_May_20_1356,localizer,2021.1.3,60.92011298944356,
block_end,scenes,scenes013.bmp,,,,,0,14,14,14,,,,,,,,,,,,,,,,,,,,,,,,,,,,,,,,,,,,,,,,,,None,,536.8419504399178,None,536.8419504399178,None,2022-05-20-14:04:59.892512,536.8446809998713,537.157584299799,536.8446809998713,536.8446809998713,None,536.8446809998713,536.8446809998713,537.6583890398731,None,,,,12017,0002,2022_May_20_1356,localizer,2021.1.3,60.92011298944356,
block_start,faces,faces087.bmp,,,,,0,15,15,15,,,,,,,,,,,,,,,,,,,,,,,,,,,,,,,,,,,,,,,,,,t,1.7680616998113692,537.6582223000005,None,537.6582223000005,None,2022-05-20-14:05:02.503847,539.4590207999572,539.7583679999225,539.4590207999572,None,None,539.4590207999572,None,540.2581001399783,None,,,,12017,0002,2022_May_20_1356,localizer,2021.1.3,60.92011298944356,
block,faces,faces012.bmp,,,,,0,16,16,16,,,,,,,,,,,,,,,,,,,,,,,,,,,,,,,,,,,,,,,,,,None,,540.2581001399783,None,540.2581001399783,None,2022-05-20-14:05:03.306163,540.2588292998262,540.5575876999646,540.2588292998262,540.2588292998262,None,540.2588292998262,540.2588292998262,541.0593304399633,None,,,,12017,0002,2022_May_20_1356,localizer,2021.1.3,60.92011298944356,
block,faces,faces061.bmp,,,,,0,17,17,17,,,,,,,,,,,,,,,,,,,,,,,,,,,,,,,,,,,,,,,,,,None,,541.0593304399633,None,541.0593304399633,None,2022-05-20-14:05:04.110051,541.0755103998818,541.3749936998356,541.0755103998818,541.0755103998818,None,541.0755103998818,541.0755103998818,541.8751187399728,None,,,,12017,0002,2022_May_20_1356,localizer,2021.1.3,60.92011298944356,
block,faces,faces065.bmp,,,,,0,18,18,18,,,,,,,,,,,,,,,,,,,,,,,,,,,,,,,,,,,,,,,,,,None,,541.8751187399728,None,541.8751187399728,None,2022-05-20-14:05:04.921928,541.8756972998381,542.1911892998032,541.8756972998381,None,None,541.8756972998381,None,542.6911977399839,None,,,,12017,0002,2022_May_20_1356,localizer,2021.1.3,60.92011298944356,
block,faces,faces040.bmp,,,,,0,19,19,19,,,,,,,,,,,,,,,,,,,,,,,,,,,,,,,,,,,,,,,,,,None,,542.6911977399839,None,542.6911977399839,None,2022-05-20-14:05:05.738008,542.7008042999078,543.007699099835,542.7008042999078,None,None,542.7008042999078,None,543.5082399398786,None,,,,12017,0002,2022_May_20_1356,localizer,2021.1.3,60.92011298944356,
block,faces,faces072.bmp,,,,,0,20,20,20,,,,,,,,,,,,,,,,,,,,,,,,,,,,,,,,,,,,,,,,,,None,,543.5082399398786,None,543.5082399398786,None,2022-05-20-14:05:06.554834,543.5090381000191,543.810864900006,543.5090381000191,None,None,543.5090381000191,None,544.3088095398386,None,,,,12017,0002,2022_May_20_1356,localizer,2021.1.3,60.92011298944356,
block,faces,faces086.bmp,,,,,0,21,21,21,,,,,,,,,,,,,,,,,,,,,,,,,,,,,,,,,,,,,,,,,,None,,544.3088095398386,None,544.3088095398386,None,2022-05-20-14:05:07.358387,544.3116468000226,544.6252111999784,544.3116468000226,544.3116468000226,None,544.3116468000226,544.3116468000226,545.125503539876,None,,,,12017,0002,2022_May_20_1356,localizer,2021.1.3,60.92011298944356,
block,faces,faces044.bmp,,,,,0,22,22,22,,,,,,,,,,,,,,,,,,,,,,,,,,,,,,,,,,,,,,,,,,None,,545.125503539876,None,545.125503539876,None,2022-05-20-14:05:08.173088,545.1320132999681,545.4412308000028,545.1320132999681,None,None,545.1320132999681,None,545.9428066400112,None,,,,12017,0002,2022_May_20_1356,localizer,2021.1.3,60.92011298944356,
block,faces,faces088.bmp,,,,,0,23,23,23,,,,,,,,,,,,,,,,,,,,,,,,,,,,,,,,,,,,,,,,,,None,,545.9428066400112,None,545.9428066400112,None,2022-05-20-14:05:08.991385,545.9445240998175,546.2579150998499,545.9445240998175,None,None,545.9445240998175,None,546.7585248398361,None,,,,12017,0002,2022_May_20_1356,localizer,2021.1.3,60.92011298944356,
block,faces,faces006.bmp,,,,,0,24,24,24,,,,,,,,,,,,,,,,,,,,,,,,,,,,,,,,,,,,,,,,,,None,,546.7585248398361,None,546.7585248398361,None,2022-05-20-14:05:09.805125,546.7692369997967,547.0746883000247,546.7692369997967,None,None,546.7692369997967,None,547.5750610398361,None,,,,12017,0002,2022_May_20_1356,localizer,2021.1.3,60.92011298944356,
block,faces,faces008.bmp,,,,,0,25,25,25,,,,,,,,,,,,,,,,,,,,,,,,,,,,,,,,,,,,,,,,,,None,,547.5750610398361,None,547.5750610398361,None,2022-05-20-14:05:10.621956,547.5844078999944,547.8916370000225,547.5844078999944,None,None,547.5844078999944,None,548.392077039997,None,,,,12017,0002,2022_May_20_1356,localizer,2021.1.3,60.92011298944356,
block,faces,faces030.bmp,,,,,0,26,26,26,,,,,,,,,,,,,,,,,,,,,,,,,,,,,,,,,,,,,,,,,,None,,548.392077039997,None,548.392077039997,None,2022-05-20-14:05:11.439673,548.3994079998229,548.7080138998572,548.3994079998229,None,None,548.3994079998229,None,549.2086733398726,None,,,,12017,0002,2022_May_20_1356,localizer,2021.1.3,60.92011298944356,
block,faces,faces034.bmp,,,,,0,27,27,27,,,,,,,,,,,,,,,,,,,,,,,,,,,,,,,,,,,,,,,,,,None,,549.2086733398726,None,549.2086733398726,None,2022-05-20-14:05:12.255494,549.2091721999459,549.5086352999788,549.2091721999459,None,None,549.2091721999459,None,550.0094756398582,None,,,,12017,0002,2022_May_20_1356,localizer,2021.1.3,60.92011298944356,
block,faces,faces083.bmp,,,,,0,28,28,28,,,,,,,,,,,,,,,,,,,,,,,,,,,,,,,,,,,,,,,,,,None,,550.0094756398582,None,550.0094756398582,None,2022-05-20-14:05:13.062055,550.0202826999594,550.3248926999513,550.0202826999594,550.0202826999594,None,550.0202826999594,550.0202826999594,550.8254406399326,None,,,,12017,0002,2022_May_20_1356,localizer,2021.1.3,60.92011298944356,
block_end,faces,faces010.bmp,,,,,0,29,29,29,,,,,,,,,,,,,,,,,,,,,,,,,,,,,,,,,,,,,,,,,,None,,550.8254406399326,None,550.8254406399326,None,2022-05-20-14:05:13.873042,550.8258841999341,551.1252200999297,550.8258841999341,None,y,550.8258841999341,None,551.6250611399998,None,0.3012176000047475,,,12017,0002,2022_May_20_1356,localizer,2021.1.3,60.92011298944356,
block_start,objects,objects068.bmp,,,,,0,30,30,30,,,,,,,,,,,,,,,,,,,,,,,,,,,,,,,,,,,,,,,,,,t,1.8017434000503272,551.6246060000267,None,551.6246060000267,None,2022-05-20-14:05:16.491501,553.445059799822,553.7588327999692,553.445059799822,None,None,553.445059799822,None,554.2582537399837,None,,,,12017,0002,2022_May_20_1356,localizer,2021.1.3,60.92011298944356,
block,objects,objects063.bmp,,,,,0,31,31,31,,,,,,,,,,,,,,,,,,,,,,,,,,,,,,,,,,,,,,,,,,None,,554.2582537399837,None,554.2582537399837,None,2022-05-20-14:05:17.304877,554.2589044999331,554.5582369000185,554.2589044999331,None,None,554.2589044999331,None,555.0589885398047,None,,,,12017,0002,2022_May_20_1356,localizer,2021.1.3,60.92011298944356,
block,objects,objects027.bmp,,,,,0,32,32,32,,,,,,,,,,,,,,,,,,,,,,,,,,,,,,,,,,,,,,,,,,None,,555.0589885398047,None,555.0589885398047,None,2022-05-20-14:05:18.108595,555.0618100999855,555.3744419999421,555.0618100999855,555.0618100999855,None,555.0618100999855,555.0618100999855,555.8751711399061,None,,,,12017,0002,2022_May_20_1356,localizer,2021.1.3,60.92011298944356,
block,objects,objects051.bmp,,,,,0,33,33,33,,,,,,,,,,,,,,,,,,,,,,,,,,,,,,,,,,,,,,,,,,None,,555.8751711399061,None,555.8751711399061,None,2022-05-20-14:05:18.921795,555.8800252999645,556.1916319997981,555.8800252999645,None,None,555.8800252999645,None,556.6918689399724,None,,,,12017,0002,2022_May_20_1356,localizer,2021.1.3,60.92011298944356,
block,objects,objects049.bmp,,,,,0,34,34,34,,,,,,,,,,,,,,,,,,,,,,,,,,,,,,,,,,,,,,,,,,None,,556.6918689399724,None,556.6918689399724,None,2022-05-20-14:05:19.739475,556.7024462998379,557.0079880999401,556.7024462998379,None,None,556.7024462998379,None,557.5085679398151,None,,,,12017,0002,2022_May_20_1356,localizer,2021.1.3,60.92011298944356,
block,objects,objects073.bmp,,,,,0,35,35,35,,,,,,,,,,,,,,,,,,,,,,,,,,,,,,,,,,,,,,,,,,None,,557.5085679398151,None,557.5085679398151,None,2022-05-20-14:05:20.555197,557.5090466998518,557.8082558999304,557.5090466998518,None,None,557.5090466998518,None,558.3087063399842,None,,,,12017,0002,2022_May_20_1356,localizer,2021.1.3,60.92011298944356,
block,objects,objects004.bmp,,,,,0,36,36,36,,,,,,,,,,,,,,,,,,,,,,,,,,,,,,,,,,,,,,,,,,None,,558.3087063399842,None,558.3087063399842,None,2022-05-20-14:05:21.357368,558.3221049997956,558.6249802999664,558.3221049997956,558.3221049997956,None,558.3221049997956,558.3221049997956,559.1254315400263,None,,,,12017,0002,2022_May_20_1356,localizer,2021.1.3,60.92011298944356,
block,objects,objects016.bmp,,,,,0,37,37,37,,,,,,,,,,,,,,,,,,,,,,,,,,,,,,,,,,,,,,,,,,None,,559.1254315400263,None,559.1254315400263,None,2022-05-20-14:05:22.173108,559.125825199997,559.441350299865,559.125825199997,None,None,559.125825199997,None,559.9252447398146,None,,,,12017,0002,2022_May_20_1356,localizer,2021.1.3,60.92011298944356,
block,objects,objects043.bmp,,,,,0,38,38,38,,,,,,,,,,,,,,,,,,,,,,,,,,,,,,,,,,,,,,,,,,None,,559.9252447398146,None,559.9252447398146,None,2022-05-20-14:05:22.973873,559.9277788000181,560.2414209998678,559.9277788000181,559.9277788000181,None,559.9277788000181,559.9277788000181,560.7415144399972,None,,,,12017,0002,2022_May_20_1356,localizer,2021.1.3,60.92011298944356,
block,objects,objects057.bmp,,,,,0,39,39,39,,,,,,,,,,,,,,,,,,,,,,,,,,,,,,,,,,,,,,,,,,None,,560.7415144399972,None,560.7415144399972,None,2022-05-20-14:05:23.788157,560.742397399852,561.041416999884,560.742397399852,None,None,560.742397399852,None,561.5422978399554,None,,,,12017,0002,2022_May_20_1356,localizer,2021.1.3,60.92011298944356,
block,objects,objects023.bmp,,,,,0,40,40,40,,,,,,,,,,,,,,,,,,,,,,,,,,,,,,,,,,,,,,,,,,None,,561.5422978399554,None,561.5422978399554,None,2022-05-20-14:05:24.591876,561.5502634998411,561.8581117999274,561.5502634998411,561.5502634998411,None,561.5502634998411,561.5502634998411,562.3587090399349,None,,,,12017,0002,2022_May_20_1356,localizer,2021.1.3,60.92011298944356,
block,objects,objects082.bmp,,,,,0,41,41,41,,,,,,,,,,,,,,,,,,,,,,,,,,,,,,,,,,,,,,,,,,None,,562.3587090399349,None,562.3587090399349,None,2022-05-20-14:05:25.405318,562.3638804999646,562.6751307998784,562.3638804999646,None,None,562.3638804999646,None,563.1754980399971,None,,,,12017,0002,2022_May_20_1356,localizer,2021.1.3,60.92011298944356,
block,objects,objects053.bmp,,,,,0,42,42,42,,,,,,,,,,,,,,,,,,,,,,,,,,,,,,,,,,,,,,,,,,None,,563.1754980399971,None,563.1754980399971,None,2022-05-20-14:05:26.223340,563.1758814998902,563.4912399000023,563.1758814998902,None,None,563.1758814998902,None,563.9754519398091,None,,,,12017,0002,2022_May_20_1356,localizer,2021.1.3,60.92011298944356,
block,objects,objects066.bmp,,,,,0,43,43,43,,,,,,,,,,,,,,,,,,,,,,,,,,,,,,,,,,,,,,,,,,None,,563.9754519398091,None,563.9754519398091,None,2022-05-20-14:05:27.025296,563.9780129999854,564.2911594999023,563.9780129999854,563.9780129999854,None,563.9780129999854,563.9780129999854,564.7917638398474,None,,,,12017,0002,2022_May_20_1356,localizer,2021.1.3,60.92011298944356,
block_end,objects,objects030.bmp,,,,,0,44,44,44,,,,,,,,,,,,,,,,,,,,,,,,,,,,,,,,,,,,,,,,,,None,,564.7917638398474,None,564.7917638398474,None,2022-05-20-14:05:27.838618,564.7923729999457,565.0920571999159,564.7923729999457,None,None,564.7923729999457,None,565.5922296399483,None,,,,12017,0002,2022_May_20_1356,localizer,2021.1.3,60.92011298944356,
block_start,scrambled,scrambled078.bmp,,,,,0,45,45,45,,,,,,,,,,,,,,,,,,,,,,,,,,,,,,,,,,,,,,,,,,t,1.834797700168565,565.5917092999443,None,565.5917092999443,None,2022-05-20-14:05:30.493972,567.4520574000198,567.7582544998731,567.4520574000198,None,None,567.4520574000198,None,568.2585661400342,None,,,,12017,0002,2022_May_20_1356,localizer,2021.1.3,60.92011298944356,
block,scrambled,scrambled076.bmp,,,,,0,46,46,46,,,,,,,,,,,,,,,,,,,,,,,,,,,,,,,,,,,,,,,,,,None,,568.2585661400342,None,568.2585661400342,None,2022-05-20-14:05:31.305437,568.2634866000153,568.5747260998469,568.2634866000153,None,None,568.2634866000153,None,569.0648643398424,None,,,,12017,0002,2022_May_20_1356,localizer,2021.1.3,60.92011298944356,
block,scrambled,scrambled062.bmp,,,,,0,47,47,47,,,,,,,,,,,,,,,,,,,,,,,,,,,,,,,,,,,,,,,,,,None,,569.0648643398424,None,569.0648643398424,None,2022-05-20-14:05:32.114469,569.0679014998022,569.3760128999129,569.0679014998022,None,None,569.0679014998022,None,569.8764337399741,None,,,,12017,0002,2022_May_20_1356,localizer,2021.1.3,60.92011298944356,
block,scrambled,scrambled036.bmp,,,,,0,48,48,48,,,,,,,,,,,,,,,,,,,,,,,,,,,,,,,,,,,,,,,,,,None,,569.8764337399741,None,569.8764337399741,None,2022-05-20-14:05:32.924572,569.8843211999629,570.1918663999531,569.8843211999629,None,None,569.8843211999629,None,570.6918960398295,None,,,,12017,0002,2022_May_20_1356,localizer,2021.1.3,60.92011298944356,
block,scrambled,scrambled072.bmp,,,,,0,49,49,49,,,,,,,,,,,,,,,,,,,,,,,,,,,,,,,,,,,,,,,,,,None,,570.6918960398295,None,570.6918960398295,None,2022-05-20-14:05:33.738779,570.6973411999643,571.0088118999265,570.6973411999643,None,None,570.6973411999643,None,571.5091042398242,None,,,,12017,0002,2022_May_20_1356,localizer,2021.1.3,60.92011298944356,
block,scrambled,scrambled032.bmp,,,,,0,50,50,50,,,,,,,,,,,,,,,,,,,,,,,,,,,,,,,,,,,,,,,,,,None,,571.5091042398242,None,571.5091042398242,None,2022-05-20-14:05:34.556966,571.5094035000075,571.808650800027,571.5094035000075,None,None,571.5094035000075,None,572.3249602399999,None,,,,12017,0002,2022_May_20_1356,localizer,2021.1.3,60.92011298944356,
block,scrambled,scrambled004.bmp,,,,,0,51,51,51,,,,,,,,,,,,,,,,,,,,,,,,,,,,,,,,,,,,,,,,,,None,,572.3249602399999,None,572.3249602399999,None,2022-05-20-14:05:35.371840,572.3257511998527,572.6252215998247,572.3257511998527,None,None,572.3257511998527,None,573.1255761399632,None,,,,12017,0002,2022_May_20_1356,localizer,2021.1.3,60.92011298944356,
block,scrambled,scrambled040.bmp,,,,,0,52,52,52,,,,,,,,,,,,,,,,,,,,,,,,,,,,,,,,,,,,,,,,,,None,,573.1255761399632,None,573.1255761399632,None,2022-05-20-14:05:36.175235,573.1333118998446,573.4420559999999,573.1333118998446,573.1333118998446,None,573.1333118998446,573.1333118998446,573.9424095398979,None,,,,12017,0002,2022_May_20_1356,localizer,2021.1.3,60.92011298944356,
block,scrambled,scrambled050.bmp,,,,,0,53,53,53,,,,,,,,,,,,,,,,,,,,,,,,,,,,,,,,,,,,,,,,,,None,,573.9424095398979,None,573.9424095398979,None,2022-05-20-14:05:36.990264,573.9443298999686,574.2594938999973,573.9443298999686,None,None,573.9443298999686,None,574.758730139886,None,,,,12017,0002,2022_May_20_1356,localizer,2021.1.3,60.92011298944356,
block,scrambled,scrambled007.bmp,,,,,0,54,54,54,,,,,,,,,,,,,,,,,,,,,,,,,,,,,,,,,,,,,,,,,,None,,574.758730139886,None,574.758730139886,None,2022-05-20-14:05:37.805403,574.7591706998646,575.0585349998437,574.7591706998646,None,None,574.7591706998646,None,575.5814477399224,None,,,,12017,0002,2022_May_20_1356,localizer,2021.1.3,60.92011298944356,
block,scrambled,scrambled046.bmp,,,,,0,55,55,55,,,,,,,,,,,,,,,,,,,,,,,,,,,,,,,,,,,,,,,,,,None,,575.5814477399224,None,575.5814477399224,None,2022-05-20-14:05:38.636919,575.5961846997961,575.9083457998931,575.5961846997961,None,None,575.5961846997961,None,576.3918076398083,None,,,,12017,0002,2022_May_20_1356,localizer,2021.1.3,60.92011298944356,
block,scrambled,scrambled037.bmp,,,,,0,56,56,56,,,,,,,,,,,,,,,,,,,,,,,,,,,,,,,,,,,,,,,,,,None,,576.3918076398083,None,576.3918076398083,None,2022-05-20-14:05:39.438488,576.396033299854,576.7082242998295,576.396033299854,None,None,576.396033299854,None,577.20848343994,None,,,,12017,0002,2022_May_20_1356,localizer,2021.1.3,60.92011298944356,
block,scrambled,scrambled070.bmp,,,,,0,57,57,57,,,,,,,,,,,,,,,,,,,,,,,,,,,,,,,,,,,,,,,,,,None,,577.20848343994,None,577.20848343994,None,2022-05-20-14:05:40.255172,577.2112483999226,577.5247200999875,577.2112483999226,None,None,577.2112483999226,None,578.0106335399439,None,,,,12017,0002,2022_May_20_1356,localizer,2021.1.3,60.92011298944356,
block,scrambled,scrambled020.bmp,,,,,0,58,58,58,,,,,,,,,,,,,,,,,,,,,,,,,,,,,,,,,,,,,,,,,,None,,578.0106335399439,None,578.0106335399439,None,2022-05-20-14:05:41.063411,578.0179867998231,578.3245794998948,578.0179867998231,578.0179867998231,None,578.0179867998231,578.0179867998231,578.8251649398123,None,,,,12017,0002,2022_May_20_1356,localizer,2021.1.3,60.92011298944356,
block_end,scrambled,scrambled002.bmp,,,,,0,59,59,59,,,,,,,,,,,,,,,,,,,,,,,,,,,,,,,,,,,,,,,,,,None,,578.8251649398123,None,578.8251649398123,None,2022-05-20-14:05:41.871855,578.8256849998143,579.1249002998229,578.8256849998143,None,None,578.8256849998143,None,579.625204639812,None,,,,12017,0002,2022_May_20_1356,localizer,2021.1.3,60.92011298944356,
null_block,null_block,null_block.bmp,,,,,0,60,60,60,,,,,,,,,,,,,,,,,,,,,,,,,,,,,,,,,,,,,,,,,,t,1.801507799886167,579.624808399938,None,579.624808399938,None,2022-05-20-14:05:44.488533,581.4418391399784,None,581.4418391399784,None,None,581.4418391399784,None,581.4462542999536,None,,,,12017,0002,2022_May_20_1356,localizer,2021.1.3,60.92011298944356,
block_start,scrambled,scrambled022.bmp,,,,,0,61,61,61,,,,,,,,,,,,,,,,,,,,,,,,,,,,,,,,,,,,,,,,,,t,1.9670950998552144,593.4591943998821,None,593.4591943998821,None,2022-05-20-14:05:58.490833,595.4489142999519,595.7584125997964,595.4489142999519,None,None,595.4489142999519,None,596.2586464398307,None,,,,12017,0002,2022_May_20_1356,localizer,2021.1.3,60.92011298944356,
block,scrambled,scrambled037.bmp,,,,,0,62,62,62,,,,,,,,,,,,,,,,,,,,,,,,,,,,,,,,,,,,,,,,,,None,,596.2586464398307,None,596.2586464398307,None,2022-05-20-14:05:59.305380,596.2591194999404,596.5584631999955,596.2591194999404,None,None,596.2591194999404,None,597.0583898400189,None,,,,12017,0002,2022_May_20_1356,localizer,2021.1.3,60.92011298944356,
block,scrambled,scrambled078.bmp,,,,,0,63,63,63,,,,,,,,,,,,,,,,,,,,,,,,,,,,,,,,,,,,,,,,,,None,,597.0583898400189,None,597.0583898400189,None,2022-05-20-14:06:00.106085,597.059168699896,597.3747097998857,597.059168699896,597.059168699896,y,597.059168699896,597.059168699896,597.8583506399998,None,0.6878454999532551,,,12017,0002,2022_May_20_1356,localizer,2021.1.3,60.92011298944356,
block,scrambled,scrambled050.bmp,,,,,0,64,64,64,,,,,,,,,,,,,,,,,,,,,,,,,,,,,,,,,,,,,,,,,,None,,597.8583506399998,None,597.8583506399998,None,2022-05-20-14:06:00.907365,597.8591930998955,598.1582971999887,597.8591930998955,597.8591930998955,None,597.8591930998955,597.8591930998955,598.6587537399726,None,,,,12017,0002,2022_May_20_1356,localizer,2021.1.3,60.92011298944356,
block,scrambled,scrambled016.bmp,,,,,0,65,65,65,,,,,,,,,,,,,,,,,,,,,,,,,,,,,,,,,,,,,,,,,,None,,598.6587537399726,None,598.6587537399726,None,2022-05-20-14:06:01.707674,598.6614655999001,598.9753721999004,598.6614655999001,598.6614655999001,None,598.6614655999001,598.6614655999001,599.4753903398057,None,,,,12017,0002,2022_May_20_1356,localizer,2021.1.3,60.92011298944356,
block,scrambled,scrambled059.bmp,,,,,0,66,66,66,,,,,,,,,,,,,,,,,,,,,,,,,,,,,,,,,,,,,,,,,,None,,599.4753903398057,None,599.4753903398057,None,2022-05-20-14:06:02.522126,599.4759478999767,599.774585200008,599.4759478999767,None,None,599.4759478999767,None,600.2754538399865,None,,,,12017,0002,2022_May_20_1356,localizer,2021.1.3,60.92011298944356,
block,scrambled,scrambled010.bmp,,,,,0,67,67,67,,,,,,,,,,,,,,,,,,,,,,,,,,,,,,,,,,,,,,,,,,None,,600.2754538399865,None,600.2754538399865,None,2022-05-20-14:06:03.324341,600.2760893998202,600.57508949982,600.2760893998202,600.2760893998202,None,600.2760893998202,600.2760893998202,601.0758109398419,None,,,,12017,0002,2022_May_20_1356,localizer,2021.1.3,60.92011298944356,
block,scrambled,scrambled054.bmp,,,,,0,68,68,68,,,,,,,,,,,,,,,,,,,,,,,,,,,,,,,,,,,,,,,,,,None,,601.0758109398419,None,601.0758109398419,None,2022-05-20-14:06:04.125737,601.0789005998522,601.3923902998213,601.0789005998522,601.0789005998522,None,601.0789005998522,601.0789005998522,601.8921397398924,None,,,,12017,0002,2022_May_20_1356,localizer,2021.1.3,60.92011298944356,
block,scrambled,scrambled015.bmp,,,,,0,69,69,69,,,,,,,,,,,,,,,,,,,,,,,,,,,,,,,,,,,,,,,,,,None,,601.8921397398924,None,601.8921397398924,None,2022-05-20-14:06:04.939091,601.8970291998703,602.2083395998925,601.8970291998703,None,None,601.8970291998703,None,602.7090478398138,None,,,,12017,0002,2022_May_20_1356,localizer,2021.1.3,60.92011298944356,
block,scrambled,scrambled066.bmp,,,,,0,70,70,70,,,,,,,,,,,,,,,,,,,,,,,,,,,,,,,,,,,,,,,,,,None,,602.7090478398138,None,602.7090478398138,None,2022-05-20-14:06:05.755794,602.7093297999818,603.008345299866,602.7093297999818,None,None,602.7093297999818,None,603.5086423399159,None,,,,12017,0002,2022_May_20_1356,localizer,2021.1.3,60.92011298944356,
block,scrambled,scrambled084.bmp,,,,,0,71,71,71,,,,,,,,,,,,,,,,,,,,,,,,,,,,,,,,,,,,,,,,,,None,,603.5086423399159,None,603.5086423399159,None,2022-05-20-14:06:06.555398,603.5094576999545,603.8112031000201,603.5094576999545,603.5094576999545,None,603.5094576999545,603.5094576999545,604.3249449399998,None,,,,12017,0002,2022_May_20_1356,localizer,2021.1.3,60.92011298944356,
block,scrambled,scrambled028.bmp,,,,,0,72,72,72,,,,,,,,,,,,,,,,,,,,,,,,,,,,,,,,,,,,,,,,,,None,,604.3249449399998,None,604.3249449399998,None,2022-05-20-14:06:07.371702,604.3262871999759,604.6417377998587,604.3262871999759,None,None,604.3262871999759,None,605.1256304400274,None,,,,12017,0002,2022_May_20_1356,localizer,2021.1.3,60.92011298944356,
block,scrambled,scrambled036.bmp,,,,,0,73,73,73,,,,,,,,,,,,,,,,,,,,,,,,,,,,,,,,,,,,,,,,,,None,,605.1256304400274,None,605.1256304400274,None,2022-05-20-14:06:08.173705,605.1276787000243,605.4420304999221,605.1276787000243,605.1276787000243,y,605.1276787000243,605.1276787000243,605.942226040014,None,0.6544782998971641,,,12017,0002,2022_May_20_1356,localizer,2021.1.3,60.92011298944356,
block,scrambled,scrambled067.bmp,,,,,0,74,74,74,,,,,,,,,,,,,,,,,,,,,,,,,,,,,,,,,,,,,,,,,,None,,605.942226040014,None,605.942226040014,None,2022-05-20-14:06:08.989120,605.9427237999626,606.241801999975,605.9427237999626,None,None,605.9427237999626,None,606.7427814398659,None,,,,12017,0002,2022_May_20_1356,localizer,2021.1.3,60.92011298944356,
block_end,scrambled,scrambled002.bmp,,,,,0,75,75,75,,,,,,,,,,,,,,,,,,,,,,,,,,,,,,,,,,,,,,,,,,None,,606.7427814398659,None,606.7427814398659,None,2022-05-20-14:06:09.793725,606.7466833998915,607.0581616999116,606.7466833998915,606.7466833998915,None,606.7466833998915,606.7466833998915,607.5589544398943,None,,,,12017,0002,2022_May_20_1356,localizer,2021.1.3,60.92011298944356,
block_start,scenes,scenes090.bmp,,,,,0,76,76,76,,,,,,,,,,,,,,,,,,,,,,,,,,,,,,,,,,,,,,,,,,t,1.867593300063163,607.5585608999245,None,607.5585608999245,None,2022-05-20-14:06:12.488527,609.4446717000101,609.7587335999124,609.4446717000101,None,None,609.4446717000101,None,610.2587536399485,None,,,,12017,0002,2022_May_20_1356,localizer,2021.1.3,60.92011298944356,
block,scenes,scenes060.bmp,,,,,0,77,77,77,,,,,,,,,,,,,,,,,,,,,,,,,,,,,,,,,,,,,,,,,,None,,610.2587536399485,None,610.2587536399485,None,2022-05-20-14:06:13.305770,610.2594132998493,610.5585630999412,610.2594132998493,None,None,610.2594132998493,None,611.0588047400349,None,,,,12017,0002,2022_May_20_1356,localizer,2021.1.3,60.92011298944356,
block,scenes,scenes067.bmp,,,,,0,78,78,78,,,,,,,,,,,,,,,,,,,,,,,,,,,,,,,,,,,,,,,,,,None,,611.0588047400349,None,611.0588047400349,None,2022-05-20-14:06:14.107568,611.0657643999439,611.3753547000233,611.0657643999439,611.0657643999439,None,611.0657643999439,611.0657643999439,611.8750628398964,None,,,,12017,0002,2022_May_20_1356,localizer,2021.1.3,60.92011298944356,
block,scenes,scenes055.bmp,,,,,0,79,79,79,,,,,,,,,,,,,,,,,,,,,,,,,,,,,,,,,,,,,,,,,,None,,611.8750628398964,None,611.8750628398964,None,2022-05-20-14:06:14.921552,611.8772120999638,612.1918248999864,611.8772120999638,None,None,611.8772120999638,None,612.6987406400265,None,,,,12017,0002,2022_May_20_1356,localizer,2021.1.3,60.92011298944356,
block,scenes,scenes041.bmp,,,,,0,80,80,80,,,,,,,,,,,,,,,,,,,,,,,,,,,,,,,,,,,,,,,,,,None,,612.6987406400265,None,612.6987406400265,None,2022-05-20-14:06:15.753392,612.7204747998621,613.0249336999841,612.7204747998621,None,None,612.7204747998621,None,613.5092735398327,None,,,,12017,0002,2022_May_20_1356,localizer,2021.1.3,60.92011298944356,
block,scenes,scenes073.bmp,,,,,0,81,81,81,,,,,,,,,,,,,,,,,,,,,,,,,,,,,,,,,,,,,,,,,,None,,613.5092735398327,None,613.5092735398327,None,2022-05-20-14:06:16.558119,613.5131992998067,613.8250052998774,613.5131992998067,None,None,613.5131992998067,None,614.3258321400033,None,,,,12017,0002,2022_May_20_1356,localizer,2021.1.3,60.92011298944356,
block,scenes,scenes044.bmp,,,,,0,82,82,82,,,,,,,,,,,,,,,,,,,,,,,,,,,,,,,,,,,,,,,,,,None,,614.3258321400033,None,614.3258321400033,None,2022-05-20-14:06:17.372604,614.32669479982,614.6256291000172,614.32669479982,None,None,614.32669479982,None,615.1260433400282,None,,,,12017,0002,2022_May_20_1356,localizer,2021.1.3,60.92011298944356,
block,scenes,scenes029.bmp,,,,,0,83,83,83,,,,,,,,,,,,,,,,,,,,,,,,,,,,,,,,,,,,,,,,,,None,,615.1260433400282,None,615.1260433400282,None,2022-05-20-14:06:18.176811,615.1298197999131,615.4420539999846,615.1298197999131,615.1298197999131,None,615.1298197999131,615.1298197999131,615.9422848399961,None,,,,12017,0002,2022_May_20_1356,localizer,2021.1.3,60.92011298944356,
block,scenes,scenes065.bmp,,,,,0,84,84,84,,,,,,,,,,,,,,,,,,,,,,,,,,,,,,,,,,,,,,,,,,None,,615.9422848399961,None,615.9422848399961,None,2022-05-20-14:06:18.989249,615.9474797998555,616.2584599999245,615.9474797998555,None,None,615.9474797998555,None,616.7591523398412,None,,,,12017,0002,2022_May_20_1356,localizer,2021.1.3,60.92011298944356,
block,scenes,scenes050.bmp,,,,,0,85,85,85,,,,,,,,,,,,,,,,,,,,,,,,,,,,,,,,,,,,,,,,,,None,,616.7591523398412,None,616.7591523398412,None,2022-05-20-14:06:19.806137,616.759708999889,617.0751326999161,616.759708999889,None,None,616.759708999889,None,617.5617452399572,None,,,,12017,0002,2022_May_20_1356,localizer,2021.1.3,60.92011298944356,
block,scenes,scenes074.bmp,,,,,0,86,86,86,,,,,,,,,,,,,,,,,,,,,,,,,,,,,,,,,,,,,,,,,,None,,617.5617452399572,None,617.5617452399572,None,2022-05-20-14:06:20.616632,617.5698444999289,617.8751534000039,617.5698444999289,617.5698444999289,None,617.5698444999289,617.5698444999289,618.3781002399744,None,,,,12017,0002,2022_May_20_1356,localizer,2021.1.3,60.92011298944356,
block,scenes,scenes087.bmp,,,,,0,87,87,87,,,,,,,,,,,,,,,,,,,,,,,,,,,,,,,,,,,,,,,,,,None,,618.3781002399744,None,618.3781002399744,None,2022-05-20-14:06:21.428824,618.3808273000177,618.6919015999883,618.3808273000177,None,y,618.3808273000177,None,619.181641039974,None,0.6910080001689494,,,12017,0002,2022_May_20_1356,localizer,2021.1.3,60.92011298944356,
block,scenes,scenes045.bmp,,,,,0,88,88,88,,,,,,,,,,,,,,,,,,,,,,,,,,,,,,,,,,,,,,,,,,None,,619.181641039974,None,619.181641039974,None,2022-05-20-14:06:22.237364,619.1931266998872,619.5086357998662,619.1931266998872,619.1931266998872,None,619.1931266998872,619.1931266998872,619.993294839817,None,,,,12017,0002,2022_May_20_1356,localizer,2021.1.3,60.92011298944356,
block,scenes,scenes054.bmp,,,,,0,89,89,89,,,,,,,,,,,,,,,,,,,,,,,,,,,,,,,,,,,,,,,,,,None,,619.993294839817,None,619.993294839817,None,2022-05-20-14:06:23.042200,619.9954063999467,620.3082020999864,619.9954063999467,None,y,619.9954063999467,None,620.8088634398998,None,0.6875336999073625,,,12017,0002,2022_May_20_1356,localizer,2021.1.3,60.92011298944356,
block_end,scenes,scenes013.bmp,,,,,0,90,90,90,,,,,,,,,,,,,,,,,,,,,,,,,,,,,,,,,,,,,,,,,,None,,620.8088634398998,None,620.8088634398998,None,2022-05-20-14:06:23.855655,620.8096483999398,621.1087038000114,620.8096483999398,None,None,620.8096483999398,None,621.6092092400183,None,,,,12017,0002,2022_May_20_1356,localizer,2021.1.3,60.92011298944356,
block_start,faces,faces033.bmp,,,,,0,91,91,91,,,,,,,,,,,,,,,,,,,,,,,,,,,,,,,,,,,,,,,,,,t,1.817447799956426,621.6087604998611,None,621.6087604998611,None,2022-05-20-14:06:26.488937,623.4555190999527,623.7586951998528,623.4555190999527,None,None,623.4555190999527,None,624.2585486400174,None,,,,12017,0002,2022_May_20_1356,localizer,2021.1.3,60.92011298944356,
block,faces,faces012.bmp,,,,,0,92,92,92,,,,,,,,,,,,,,,,,,,,,,,,,,,,,,,,,,,,,,,,,,None,,624.2585486400174,None,624.2585486400174,None,2022-05-20-14:06:27.305358,624.2596523999237,624.575251000002,624.2596523999237,None,y,624.2596523999237,None,625.0597516399109,None,0.5173637000843883,,,12017,0002,2022_May_20_1356,localizer,2021.1.3,60.92011298944356,
block,faces,faces035.bmp,,,,,0,93,93,93,,,,,,,,,,,,,,,,,,,,,,,,,,,,,,,,,,,,,,,,,,None,,625.0597516399109,None,625.0597516399109,None,2022-05-20-14:06:28.110462,625.0642972998321,625.3750875999685,625.0642972998321,625.0642972998321,None,625.0642972998321,625.0642972998321,625.875476840022,None,,,,12017,0002,2022_May_20_1356,localizer,2021.1.3,60.92011298944356,
block,faces,faces031.bmp,,,,,0,94,94,94,,,,,,,,,,,,,,,,,,,,,,,,,,,,,,,,,,,,,,,,,,None,,625.875476840022,None,625.875476840022,None,2022-05-20-14:06:28.922283,625.8763146998826,626.1746584998909,625.8763146998826,None,None,625.8763146998826,None,626.6754019398475,None,,,,12017,0002,2022_May_20_1356,localizer,2021.1.3,60.92011298944356,
block,faces,faces046.bmp,,,,,0,95,95,95,,,,,,,,,,,,,,,,,,,,,,,,,,,,,,,,,,,,,,,,,,None,,626.6754019398475,None,626.6754019398475,None,2022-05-20-14:06:29.724401,626.683470999822,626.9926551999524,626.683470999822,626.683470999822,y,626.683470999822,626.683470999822,627.4984448399161,None,0.618583400035277,,,12017,0002,2022_May_20_1356,localizer,2021.1.3,60.92011298944356,
block,faces,faces061.bmp,,,,,0,96,96,96,,,,,,,,,,,,,,,,,,,,,,,,,,,,,,,,,,,,,,,,,,None,,627.4984448399161,None,627.4984448399161,None,2022-05-20-14:06:30.553229,627.5051982998848,627.808666799916,627.5051982998848,None,None,627.5051982998848,None,628.3088992399396,None,,,,12017,0002,2022_May_20_1356,localizer,2021.1.3,60.92011298944356,
block,faces,faces085.bmp,,,,,0,97,97,97,,,,,,,,,,,,,,,,,,,,,,,,,,,,,,,,,,,,,,,,,,None,,628.3088992399396,None,628.3088992399396,None,2022-05-20-14:06:31.355955,628.3129672999494,628.6254147000145,628.3129672999494,None,None,628.3129672999494,None,629.1256190399406,None,,,,12017,0002,2022_May_20_1356,localizer,2021.1.3,60.92011298944356,
block,faces,faces085.bmp,,,,,0,98,98,98,,,,,,,,,,,,,,,,,,,,,,,,,,,,,,,,,,,,,,,,,,None,,629.1256190399406,None,629.1256190399406,None,2022-05-20-14:06:32.172467,629.1261791000143,629.4254193999805,629.1261791000143,None,y,629.1261791000143,None,629.9262104398338,None,0.5181736999657005,,,12017,0002,2022_May_20_1356,localizer,2021.1.3,60.92011298944356,
block,faces,faces083.bmp,,,,,0,99,99,99,,,,,,,,,,,,,,,,,,,,,,,,,,,,,,,,,,,,,,,,,,None,,629.9262104398338,None,629.9262104398338,None,2022-05-20-14:06:32.976012,629.9289003999438,630.2422664000187,629.9289003999438,629.9289003999438,None,629.9289003999438,629.9289003999438,630.7426294398726,None,,,,12017,0002,2022_May_20_1356,localizer,2021.1.3,60.92011298944356,
block,faces,faces006.bmp,,,,,0,100,100,100,,,,,,,,,,,,,,,,,,,,,,,,,,,,,,,,,,,,,,,,,,None,,630.7426294398726,None,630.7426294398726,None,2022-05-20-14:06:33.790442,630.7430710999761,631.0425813999027,630.7430710999761,None,None,630.7430710999761,None,631.5434577398235,None,,,,12017,0002,2022_May_20_1356,localizer,2021.1.3,60.92011298944356,
block,faces,faces037.bmp,,,,,0,101,101,101,,,,,,,,,,,,,,,,,,,,,,,,,,,,,,,,,,,,,,,,,,None,,631.5434577398235,None,631.5434577398235,None,2022-05-20-14:06:34.596249,631.549475699896,631.8592591998167,631.549475699896,631.549475699896,y,631.549475699896,631.549475699896,632.3597009399207,None,0.37563939997926354,,,12017,0002,2022_May_20_1356,localizer,2021.1.3,60.92011298944356,
block,faces,faces047.bmp,,,,,0,102,102,102,,,,,,,,,,,,,,,,,,,,,,,,,,,,,,,,,,,,,,,,,,None,,632.3597009399207,None,632.3597009399207,None,2022-05-20-14:06:35.407663,632.3599366999697,632.6590044000186,632.3599366999697,None,None,632.3599366999697,None,633.1591013398254,None,,,,12017,0002,2022_May_20_1356,localizer,2021.1.3,60.92011298944356,
block,faces,faces073.bmp,,,,,0,103,103,103,,,,,,,,,,,,,,,,,,,,,,,,,,,,,,,,,,,,,,,,,,None,,633.1591013398254,None,633.1591013398254,None,2022-05-20-14:06:36.208916,633.161763299955,633.4751398998778,633.161763299955,633.161763299955,None,633.161763299955,633.161763299955,633.9752340398961,None,,,,12017,0002,2022_May_20_1356,localizer,2021.1.3,60.92011298944356,
block,faces,faces045.bmp,,,,,0,104,104,104,,,,,,,,,,,,,,,,,,,,,,,,,,,,,,,,,,,,,,,,,,None,,633.9752340398961,None,633.9752340398961,None,2022-05-20-14:06:37.022103,633.9836206999607,634.2984817000106,633.9836206999607,None,None,633.9836206999607,None,634.7959180398145,None,,,,12017,0002,2022_May_20_1356,localizer,2021.1.3,60.92011298944356,
block_end,faces,faces062.bmp,,,,,0,105,105,105,,,,,,,,,,,,,,,,,,,,,,,,,,,,,,,,,,,,,,,,,,None,,634.7959180398145,None,634.7959180398145,None,2022-05-20-14:06:37.852803,634.8211652999744,635.1258876998909,634.8211652999744,None,None,634.8211652999744,None,635.6088508398504,None,,,,12017,0002,2022_May_20_1356,localizer,2021.1.3,60.92011298944356,
null_block,null_block,null_block.bmp,,,,,0,106,106,106,,,,,,,,,,,,,,,,,,,,,,,,,,,,,,,,,,,,,,,,,,t,1.8181563999969512,635.6079454999417,None,635.6079454999417,None,2022-05-20-14:06:40.487565,637.4425301398849,None,637.4425301398849,None,None,637.4425301398849,None,637.4450338999741,None,,,,12017,0002,2022_May_20_1356,localizer,2021.1.3,60.92011298944356,
block_start,objects,objects032.bmp,,,,,0,107,107,107,,,,,,,,,,,,,,,,,,,,,,,,,,,,,,,,,,,,,,,,,,t,1.9669242999516428,649.4592526999768,None,649.4592526999768,None,2022-05-20-14:06:54.490361,651.4437923999503,651.7588938998524,651.4437923999503,None,None,651.4437923999503,None,652.2588947399752,None,,,,12017,0002,2022_May_20_1356,localizer,2021.1.3,60.92011298944356,
block,objects,objects053.bmp,,,,,0,108,108,108,,,,,,,,,,,,,,,,,,,,,,,,,,,,,,,,,,,,,,,,,,None,,652.2588947399752,None,652.2588947399752,None,2022-05-20-14:06:55.305773,652.2597007998265,652.5590651999228,652.2597007998265,None,y,652.2597007998265,None,653.0590252399677,None,0.7482547000981867,,,12017,0002,2022_May_20_1356,localizer,2021.1.3,60.92011298944356,
block,objects,objects060.bmp,,,,,0,109,109,109,,,,,,,,,,,,,,,,,,,,,,,,,,,,,,,,,,,,,,,,,,None,,653.0590252399677,None,653.0590252399677,None,2022-05-20-14:06:56.107165,653.0643728999421,653.3742416999303,653.0643728999421,653.0643728999421,None,653.0643728999421,653.0643728999421,653.8757604398531,None,,,,12017,0002,2022_May_20_1356,localizer,2021.1.3,60.92011298944356,
block,objects,objects077.bmp,,,,,0,110,110,110,,,,,,,,,,,,,,,,,,,,,,,,,,,,,,,,,,,,,,,,,,None,,653.8757604398531,None,653.8757604398531,None,2022-05-20-14:06:56.922642,653.8800503998064,654.1922046998516,653.8800503998064,None,None,653.8800503998064,None,654.6923848398262,None,,,,12017,0002,2022_May_20_1356,localizer,2021.1.3,60.92011298944356,
block,objects,objects034.bmp,,,,,0,111,111,111,,,,,,,,,,,,,,,,,,,,,,,,,,,,,,,,,,,,,,,,,,None,,654.6923848398262,None,654.6923848398262,None,2022-05-20-14:06:57.739267,654.6930257999338,654.992112299893,654.6930257999338,None,None,654.6930257999338,None,655.508701539901,None,,,,12017,0002,2022_May_20_1356,localizer,2021.1.3,60.92011298944356,
block,objects,objects007.bmp,,,,,0,112,112,112,,,,,,,,,,,,,,,,,,,,,,,,,,,,,,,,,,,,,,,,,,None,,655.508701539901,None,655.508701539901,None,2022-05-20-14:06:58.555590,655.5170042000245,655.8252389000263,655.5170042000245,None,None,655.5170042000245,None,656.3277664399473,None,,,,12017,0002,2022_May_20_1356,localizer,2021.1.3,60.92011298944356,
block,objects,objects022.bmp,,,,,0,113,113,113,,,,,,,,,,,,,,,,,,,,,,,,,,,,,,,,,,,,,,,,,,None,,656.3277664399473,None,656.3277664399473,None,2022-05-20-14:06:59.379799,656.3344878999051,656.643389799865,656.3344878999051,None,None,656.3344878999051,None,657.1424870398594,None,,,,12017,0002,2022_May_20_1356,localizer,2021.1.3,60.92011298944356,
block,objects,objects027.bmp,,,,,0,114,114,114,,,,,,,,,,,,,,,,,,,,,,,,,,,,,,,,,,,,,,,,,,None,,657.1424870398594,None,657.1424870398594,None,2022-05-20-14:07:00.189378,657.1429341000039,657.4418605000246,657.1429341000039,None,y,657.1429341000039,None,657.9425937399035,None,0.5132144000381231,,,12017,0002,2022_May_20_1356,localizer,2021.1.3,60.92011298944356,
block,objects,objects044.bmp,,,,,0,115,115,115,,,,,,,,,,,,,,,,,,,,,,,,,,,,,,,,,,,,,,,,,,None,,657.9425937399035,None,657.9425937399035,None,2022-05-20-14:07:00.991662,657.9451973999385,658.2589709998574,657.9451973999385,657.9451973999385,None,657.9451973999385,657.9451973999385,658.7592841399135,None,,,,12017,0002,2022_May_20_1356,localizer,2021.1.3,60.92011298944356,
block,objects,objects017.bmp,,,,,0,116,116,116,,,,,,,,,,,,,,,,,,,,,,,,,,,,,,,,,,,,,,,,,,None,,658.7592841399135,None,658.7592841399135,None,2022-05-20-14:07:01.806359,658.75982009992,659.0589613998309,658.75982009992,None,y,658.75982009992,None,659.5753383399685,None,0.6142289000563323,,,12017,0002,2022_May_20_1356,localizer,2021.1.3,60.92011298944356,
block,objects,objects008.bmp,,,,,0,117,117,117,,,,,,,,,,,,,,,,,,,,,,,,,,,,,,,,,,,,,,,,,,None,,659.5753383399685,None,659.5753383399685,None,2022-05-20-14:07:02.622240,659.576760899974,659.8923114999197,659.576760899974,None,None,659.576760899974,None,660.3921522398712,None,,,,12017,0002,2022_May_20_1356,localizer,2021.1.3,60.92011298944356,
block,objects,objects054.bmp,,,,,0,118,118,118,,,,,,,,,,,,,,,,,,,,,,,,,,,,,,,,,,,,,,,,,,None,,660.3921522398712,None,660.3921522398712,None,2022-05-20-14:07:03.439052,660.4007174998987,660.7087212998886,660.4007174998987,None,None,660.4007174998987,None,661.2092503398424,None,,,,12017,0002,2022_May_20_1356,localizer,2021.1.3,60.92011298944356,
block,objects,objects070.bmp,,,,,0,119,119,119,,,,,,,,,,,,,,,,,,,,,,,,,,,,,,,,,,,,,,,,,,None,,661.2092503398424,None,661.2092503398424,None,2022-05-20-14:07:04.256369,661.2144476999529,661.525738599943,661.2144476999529,None,None,661.2144476999529,None,662.0260039398679,None,,,,12017,0002,2022_May_20_1356,localizer,2021.1.3,60.92011298944356,
block,objects,objects086.bmp,,,,,0,120,120,120,,,,,,,,,,,,,,,,,,,,,,,,,,,,,,,,,,,,,,,,,,None,,662.0260039398679,None,662.0260039398679,None,2022-05-20-14:07:05.073880,662.0265114998911,662.3250565999188,662.0265114998911,None,None,662.0265114998911,None,662.8269133398542,None,,,,12017,0002,2022_May_20_1356,localizer,2021.1.3,60.92011298944356,
block_end,objects,objects013.bmp,,,,,0,121,121,121,,,,,,,,,,,,,,,,,,,,,,,,,,,,,,,,,,,,,,,,,,None,,662.8269133398542,None,662.8269133398542,None,2022-05-20-14:07:05.878972,662.8368154999334,663.1421456998214,662.8368154999334,662.8368154999334,None,662.8368154999334,662.8368154999334,663.6424664399353,None,,,,12017,0002,2022_May_20_1356,localizer,2021.1.3,60.92011298944356,
block_start,scrambled,scrambled019.bmp,,,,,0,122,122,122,,,,,,,,,,,,,,,,,,,,,,,,,,,,,,,,,,,,,,,,,,t,1.7839903999119997,663.6421345998533,None,663.6421345998533,None,2022-05-20-14:07:08.488428,665.4430909999646,665.7424782000016,665.4430909999646,None,None,665.4430909999646,None,666.2589928399073,None,,,,12017,0002,2022_May_20_1356,localizer,2021.1.3,60.92011298944356,
block,scrambled,scrambled069.bmp,,,,,0,123,123,123,,,,,,,,,,,,,,,,,,,,,,,,,,,,,,,,,,,,,,,,,,None,,666.2589928399073,None,666.2589928399073,None,2022-05-20-14:07:09.306178,666.2600386999547,666.5589781999588,666.2600386999547,None,None,666.2600386999547,None,667.0593312399694,None,,,,12017,0002,2022_May_20_1356,localizer,2021.1.3,60.92011298944356,
block,scrambled,scrambled017.bmp,,,,,0,124,124,124,,,,,,,,,,,,,,,,,,,,,,,,,,,,,,,,,,,,,,,,,,None,,667.0593312399694,None,667.0593312399694,None,2022-05-20-14:07:10.108447,667.0715485999826,667.3752544999588,667.0715485999826,667.0715485999826,None,667.0715485999826,667.0715485999826,667.875930639985,None,,,,12017,0002,2022_May_20_1356,localizer,2021.1.3,60.92011298944356,
block,scrambled,scrambled005.bmp,,,,,0,125,125,125,,,,,,,,,,,,,,,,,,,,,,,,,,,,,,,,,,,,,,,,,,None,,667.875930639985,None,667.875930639985,None,2022-05-20-14:07:10.923037,667.885638399981,668.1920892999042,667.885638399981,None,None,667.885638399981,None,668.6925291398773,None,,,,12017,0002,2022_May_20_1356,localizer,2021.1.3,60.92011298944356,
block,scrambled,scrambled084.bmp,,,,,0,126,126,126,,,,,,,,,,,,,,,,,,,,,,,,,,,,,,,,,,,,,,,,,,None,,668.6925291398773,None,668.6925291398773,None,2022-05-20-14:07:11.740131,668.6931213999633,668.9921606997959,668.6931213999633,None,y,668.6931213999633,None,669.4922911399742,None,0.7356981001794338,,,12017,0002,2022_May_20_1356,localizer,2021.1.3,60.92011298944356,
block,scrambled,scrambled050.bmp,,,,,0,127,127,127,,,,,,,,,,,,,,,,,,,,,,,,,,,,,,,,,,,,,,,,,,None,,669.4922911399742,None,669.4922911399742,None,2022-05-20-14:07:12.540205,669.4933004998602,669.7922336999327,669.4933004998602,669.4933004998602,None,669.4933004998602,669.4933004998602,670.2924359399592,None,,,,12017,0002,2022_May_20_1356,localizer,2021.1.3,60.92011298944356,
block,scrambled,scrambled035.bmp,,,,,0,128,128,128,,,,,,,,,,,,,,,,,,,,,,,,,,,,,,,,,,,,,,,,,,None,,670.2924359399592,None,670.2924359399592,None,2022-05-20-14:07:13.341589,670.2937815999612,670.6089506999124,670.2937815999612,670.2937815999612,y,670.2937815999612,670.2937815999612,671.1093906400026,None,0.045192900113761425,,,12017,0002,2022_May_20_1356,localizer,2021.1.3,60.92011298944356,
block,scrambled,scrambled047.bmp,,,,,0,129,129,129,,,,,,,,,,,,,,,,,,,,,,,,,,,,,,,,,,,,,,,,,,None,,671.1093906400026,None,671.1093906400026,None,2022-05-20-14:07:14.156205,671.1489111999981,671.461790899979,671.1489111999981,None,None,671.1489111999981,None,671.9261111398926,None,,,,12017,0002,2022_May_20_1356,localizer,2021.1.3,60.92011298944356,
block,scrambled,scrambled013.bmp,,,,,0,130,130,130,,,,,,,,,,,,,,,,,,,,,,,,,,,,,,,,,,,,,,,,,,None,,671.9261111398926,None,671.9261111398926,None,2022-05-20-14:07:14.973261,671.9264946999028,672.2258083999623,671.9264946999028,None,None,671.9264946999028,None,672.7271072399569,None,,,,12017,0002,2022_May_20_1356,localizer,2021.1.3,60.92011298944356,
block,scrambled,scrambled043.bmp,,,,,0,131,131,131,,,,,,,,,,,,,,,,,,,,,,,,,,,,,,,,,,,,,,,,,,None,,672.7271072399569,None,672.7271072399569,None,2022-05-20-14:07:15.778600,672.7422701998148,673.0428504999727,672.7422701998148,672.7422701998148,None,672.7422701998148,672.7422701998148,673.5419754398288,None,,,,12017,0002,2022_May_20_1356,localizer,2021.1.3,60.92011298944356,
block,scrambled,scrambled074.bmp,,,,,0,132,132,132,,,,,,,,,,,,,,,,,,,,,,,,,,,,,,,,,,,,,,,,,,None,,673.5419754398288,None,673.5419754398288,None,2022-05-20-14:07:16.588899,673.5444729998708,673.8588075998705,673.5444729998708,None,None,673.5444729998708,None,674.3590867399005,None,,,,12017,0002,2022_May_20_1356,localizer,2021.1.3,60.92011298944356,
block,scrambled,scrambled021.bmp,,,,,0,133,133,133,,,,,,,,,,,,,,,,,,,,,,,,,,,,,,,,,,,,,,,,,,None,,674.3590867399005,None,674.3590867399005,None,2022-05-20-14:07:17.406005,674.3598370000254,674.6589241998736,674.3598370000254,None,None,674.3598370000254,None,675.1592258399585,None,,,,12017,0002,2022_May_20_1356,localizer,2021.1.3,60.92011298944356,
block,scrambled,scrambled042.bmp,,,,,0,134,134,134,,,,,,,,,,,,,,,,,,,,,,,,,,,,,,,,,,,,,,,,,,None,,675.1592258399585,None,675.1592258399585,None,2022-05-20-14:07:18.207592,675.1599597998429,675.4600509998854,675.1599597998429,675.1599597998429,None,675.1599597998429,675.1599597998429,675.9597823399351,None,,,,12017,0002,2022_May_20_1356,localizer,2021.1.3,60.92011298944356,
block,scrambled,scrambled072.bmp,,,,,0,135,135,135,,,,,,,,,,,,,,,,,,,,,,,,,,,,,,,,,,,,,,,,,,None,,675.9597823399351,None,675.9597823399351,None,2022-05-20-14:07:19.010660,675.9634789999109,676.2749775999691,675.9634789999109,675.9634789999109,y,675.9634789999109,675.9634789999109,676.7771163399564,None,0.3715071000624448,,,12017,0002,2022_May_20_1356,localizer,2021.1.3,60.92011298944356,
block_end,scrambled,scrambled032.bmp,,,,,0,136,136,136,,,,,,,,,,,,,,,,,,,,,,,,,,,,,,,,,,,,,,,,,,None,,676.7771163399564,None,676.7771163399564,None,2022-05-20-14:07:19.826015,676.7801099999342,677.0936457000207,676.7801099999342,None,y,676.7801099999342,None,677.5922559400321,None,0.6271410000044852,,,12017,0002,2022_May_20_1356,localizer,2021.1.3,60.92011298944356,
block_start,scenes,scenes084.bmp,,,,,0,137,137,137,,,,,,,,,,,,,,,,,,,,,,,,,,,,,,,,,,,,,,,,,,t,1.8331595999188721,677.5920239998959,None,677.5920239998959,None,2022-05-20-14:07:22.489688,679.4481622998137,679.7594548999332,679.4481622998137,None,None,679.4481622998137,None,680.2598784398986,None,,,,12017,0002,2022_May_20_1356,localizer,2021.1.3,60.92011298944356,
block,scenes,scenes018.bmp,,,,,0,138,138,138,,,,,,,,,,,,,,,,,,,,,,,,,,,,,,,,,,,,,,,,,,None,,680.2598784398986,None,680.2598784398986,None,2022-05-20-14:07:23.307894,680.3010554998182,680.6089963000268,680.3010554998182,None,None,680.3010554998182,None,681.0752937398618,None,,,,12017,0002,2022_May_20_1356,localizer,2021.1.3,60.92011298944356,
block,scenes,scenes065.bmp,,,,,0,139,139,139,,,,,,,,,,,,,,,,,,,,,,,,,,,,,,,,,,,,,,,,,,None,,681.0752937398618,None,681.0752937398618,None,2022-05-20-14:07:24.122227,681.0768335999455,681.3757441998459,681.0768335999455,None,None,681.0768335999455,None,681.8764979399973,None,,,,12017,0002,2022_May_20_1356,localizer,2021.1.3,60.92011298944356,
block,scenes,scenes091.bmp,,,,,0,140,140,140,,,,,,,,,,,,,,,,,,,,,,,,,,,,,,,,,,,,,,,,,,None,,681.8764979399973,None,681.8764979399973,None,2022-05-20-14:07:24.925462,681.8781683999114,682.192681599874,681.8781683999114,681.8781683999114,y,681.8781683999114,681.8781683999114,682.6926772399572,None,0.5296978000551462,,,12017,0002,2022_May_20_1356,localizer,2021.1.3,60.92011298944356,
block,scenes,scenes001.bmp,,,,,0,141,141,141,,,,,,,,,,,,,,,,,,,,,,,,,,,,,,,,,,,,,,,,,,None,,682.6926772399572,None,682.6926772399572,None,2022-05-20-14:07:25.739937,682.7034761998802,683.0096385998186,682.7034761998802,None,None,682.7034761998802,None,683.4997467399342,None,,,,12017,0002,2022_May_20_1356,localizer,2021.1.3,60.92011298944356,
block,scenes,scenes067.bmp,,,,,0,142,142,142,,,,,,,,,,,,,,,,,,,,,,,,,,,,,,,,,,,,,,,,,,None,,683.4997467399342,None,683.4997467399342,None,2022-05-20-14:07:26.552056,683.505388099933,683.8084972000215,683.505388099933,None,None,683.505388099933,None,684.3089438398135,None,,,,12017,0002,2022_May_20_1356,localizer,2021.1.3,60.92011298944356,
block,scenes,scenes031.bmp,,,,,0,143,143,143,,,,,,,,,,,,,,,,,,,,,,,,,,,,,,,,,,,,,,,,,,None,,684.3089438398135,None,684.3089438398135,None,2022-05-20-14:07:27.355880,684.3102510999888,684.6094248997979,684.3102510999888,None,None,684.3102510999888,None,685.1093376398319,None,,,,12017,0002,2022_May_20_1356,localizer,2021.1.3,60.92011298944356,
block,scenes,scenes011.bmp,,,,,0,144,144,144,,,,,,,,,,,,,,,,,,,,,,,,,,,,,,,,,,,,,,,,,,None,,685.1093376398319,None,685.1093376398319,None,2022-05-20-14:07:28.157506,685.1153063999955,685.4271831000224,685.1153063999955,685.1153063999955,y,685.1153063999955,685.1153063999955,685.9261432400206,None,0.4198763999156654,,,12017,0002,2022_May_20_1356,localizer,2021.1.3,60.92011298944356,
block,scenes,scenes057.bmp,,,,,0,145,145,145,,,,,,,,,,,,,,,,,,,,,,,,,,,,,,,,,,,,,,,,,,None,,685.9261432400206,None,685.9261432400206,None,2022-05-20-14:07:28.973072,685.926625699969,686.2259415998124,685.926625699969,None,y,685.926625699969,None,686.7269700398435,None,0.7256459000054747,,,12017,0002,2022_May_20_1356,localizer,2021.1.3,60.92011298944356,
block,scenes,scenes061.bmp,,,,,0,146,146,146,,,,,,,,,,,,,,,,,,,,,,,,,,,,,,,,,,,,,,,,,,None,,686.7269700398435,None,686.7269700398435,None,2022-05-20-14:07:29.778877,686.7385505000129,687.0423830999061,686.7385505000129,686.7385505000129,None,686.7385505000129,686.7385505000129,687.5425966399023,None,,,,12017,0002,2022_May_20_1356,localizer,2021.1.3,60.92011298944356,
block,scenes,scenes042.bmp,,,,,0,147,147,147,,,,,,,,,,,,,,,,,,,,,,,,,,,,,,,,,,,,,,,,,,None,,687.5425966399023,None,687.5425966399023,None,2022-05-20-14:07:30.589526,687.5473809998948,687.8593433999922,687.5473809998948,None,None,687.5473809998948,None,688.3605194399831,None,,,,12017,0002,2022_May_20_1356,localizer,2021.1.3,60.92011298944356,
block,scenes,scenes075.bmp,,,,,0,148,148,148,,,,,,,,,,,,,,,,,,,,,,,,,,,,,,,,,,,,,,,,,,None,,688.3605194399831,None,688.3605194399831,None,2022-05-20-14:07:31.409417,688.3634540999774,688.6763902998064,688.3634540999774,None,None,688.3634540999774,None,689.1766406398499,None,,,,12017,0002,2022_May_20_1356,localizer,2021.1.3,60.92011298944356,
block,scenes,scenes077.bmp,,,,,0,149,149,149,,,,,,,,,,,,,,,,,,,,,,,,,,,,,,,,,,,,,,,,,,None,,689.1766406398499,None,689.1766406398499,None,2022-05-20-14:07:32.224535,689.1781796999276,689.4921758000273,689.1781796999276,None,y,689.1781796999276,None,689.9938193399691,None,0.6588504000101238,,,12017,0002,2022_May_20_1356,localizer,2021.1.3,60.92011298944356,
block,scenes,scenes025.bmp,,,,,0,150,150,150,,,,,,,,,,,,,,,,,,,,,,,,,,,,,,,,,,,,,,,,,,None,,689.9938193399691,None,689.9938193399691,None,2022-05-20-14:07:33.042878,690.0065593998879,690.308940900024,690.0065593998879,None,None,690.0065593998879,None,690.8090069399448,None,,,,12017,0002,2022_May_20_1356,localizer,2021.1.3,60.92011298944356,
block_end,scenes,scenes002.bmp,,,,,0,151,151,151,,,,,,,,,,,,,,,,,,,,,,,,,,,,,,,,,,,,,,,,,,None,,690.8090069399448,None,690.8090069399448,None,2022-05-20-14:07:33.855948,690.8101394998375,691.1253660998773,690.8101394998375,None,None,690.8101394998375,None,691.6097910400247,None,,,,12017,0002,2022_May_20_1356,localizer,2021.1.3,60.92011298944356,
block_start,faces,faces061.bmp,,,,,0,152,152,152,,,,,,,,,,,,,,,,,,,,,,,,,,,,,,,,,,,,,,,,,,t,1.8157859002240002,691.6094823998865,None,691.6094823998865,None,2022-05-20-14:07:36.488934,693.4433815998491,693.7426120999735,693.4433815998491,None,y,693.4433815998491,None,694.2426208398072,None,0.47687079990282655,,,12017,0002,2022_May_20_1356,localizer,2021.1.3,60.92011298944356,
block,faces,faces039.bmp,,,,,0,153,153,153,,,,,,,,,,,,,,,,,,,,,,,,,,,,,,,,,,,,,,,,,,None,,694.2426208398072,None,694.2426208398072,None,2022-05-20-14:07:37.290790,694.249651900027,694.5592340999283,694.249651900027,694.249651900027,None,694.249651900027,694.249651900027,695.0596107398858,None,,,,12017,0002,2022_May_20_1356,localizer,2021.1.3,60.92011298944356,
block,faces,faces042.bmp,,,,,0,154,154,154,,,,,,,,,,,,,,,,,,,,,,,,,,,,,,,,,,,,,,,,,,None,,695.0596107398858,None,695.0596107398858,None,2022-05-20-14:07:38.106552,695.0645420998335,695.3759306999855,695.0645420998335,None,None,695.0645420998335,None,695.8766900399467,None,,,,12017,0002,2022_May_20_1356,localizer,2021.1.3,60.92011298944356,
block,faces,faces013.bmp,,,,,0,155,155,155,,,,,,,,,,,,,,,,,,,,,,,,,,,,,,,,,,,,,,,,,,None,,695.8766900399467,None,695.8766900399467,None,2022-05-20-14:07:38.925534,695.8913334999233,696.1930352000054,695.8913334999233,None,None,695.8913334999233,None,696.6928558399202,None,,,,12017,0002,2022_May_20_1356,localizer,2021.1.3,60.92011298944356,
block,faces,faces025.bmp,,,,,0,156,156,156,,,,,,,,,,,,,,,,,,,,,,,,,,,,,,,,,,,,,,,,,,None,,696.6928558399202,None,696.6928558399202,None,2022-05-20-14:07:39.739775,696.6934148999862,696.9927383000031,696.6934148999862,None,y,696.6934148999862,None,697.4926702399505,None,0.48374389996752143,,,12017,0002,2022_May_20_1356,localizer,2021.1.3,60.92011298944356,
block,faces,faces074.bmp,,,,,0,157,157,157,,,,,,,,,,,,,,,,,,,,,,,,,,,,,,,,,,,,,,,,,,None,,697.4926702399505,None,697.4926702399505,None,2022-05-20-14:07:40.541612,697.5007559999358,697.8084842998069,697.5007559999358,697.5007559999358,None,697.5007559999358,697.5007559999358,698.3094573398819,None,,,,12017,0002,2022_May_20_1356,localizer,2021.1.3,60.92011298944356,
block,faces,faces081.bmp,,,,,0,158,158,158,,,,,,,,,,,,,,,,,,,,,,,,,,,,,,,,,,,,,,,,,,None,,698.3094573398819,None,698.3094573398819,None,2022-05-20-14:07:41.356717,698.3157062998507,698.6258222998586,698.3157062998507,None,None,698.3157062998507,None,699.1269893400138,None,,,,12017,0002,2022_May_20_1356,localizer,2021.1.3,60.92011298944356,
block,faces,faces031.bmp,,,,,0,159,159,159,,,,,,,,,,,,,,,,,,,,,,,,,,,,,,,,,,,,,,,,,,None,,699.1269893400138,None,699.1269893400138,None,2022-05-20-14:07:42.177061,699.1300676998217,699.443216299871,699.1300676998217,None,y,699.1300676998217,None,699.9427309400169,None,0.4146282998844981,,,12017,0002,2022_May_20_1356,localizer,2021.1.3,60.92011298944356,
block,faces,faces043.bmp,,,,,0,160,160,160,,,,,,,,,,,,,,,,,,,,,,,,,,,,,,,,,,,,,,,,,,None,,699.9427309400169,None,699.9427309400169,None,2022-05-20-14:07:42.989686,699.9433234999888,700.2421413999982,699.9433234999888,None,None,699.9433234999888,None,700.7448370399186,None,,,,12017,0002,2022_May_20_1356,localizer,2021.1.3,60.92011298944356,
block,faces,faces001.bmp,,,,,0,161,161,161,,,,,,,,,,,,,,,,,,,,,,,,,,,,,,,,,,,,,,,,,,None,,700.7448370399186,None,700.7448370399186,None,2022-05-20-14:07:43.797876,700.7522758999839,701.0598061999772,700.7522758999839,700.7522758999839,y,700.7522758999839,700.7522758999839,701.5605082398513,None,0.39583540009334683,,,12017,0002,2022_May_20_1356,localizer,2021.1.3,60.92011298944356,
block,faces,faces008.bmp,,,,,0,162,162,162,,,,,,,,,,,,,,,,,,,,,,,,,,,,,,,,,,,,,,,,,,None,,701.5605082398513,None,701.5605082398513,None,2022-05-20-14:07:44.611468,701.5643868998159,701.876823999919,701.5643868998159,None,None,701.5643868998159,None,702.3760663399705,None,,,,12017,0002,2022_May_20_1356,localizer,2021.1.3,60.92011298944356,
block,faces,faces033.bmp,,,,,0,163,163,163,,,,,,,,,,,,,,,,,,,,,,,,,,,,,,,,,,,,,,,,,,None,,702.3760663399705,None,702.3760663399705,None,2022-05-20-14:07:45.423291,702.3769653998315,702.6759642998222,702.3769653998315,None,y,702.3769653998315,None,703.1924042399739,None,0.7108972000423819,,,12017,0002,2022_May_20_1356,localizer,2021.1.3,60.92011298944356,
block,faces,faces064.bmp,,,,,0,164,164,164,,,,,,,,,,,,,,,,,,,,,,,,,,,,,,,,,,,,,,,,,,None,,703.1924042399739,None,703.1924042399739,None,2022-05-20-14:07:46.239663,703.2007340998389,703.5098772000056,703.2007340998389,None,None,703.2007340998389,None,704.0100916398922,None,,,,12017,0002,2022_May_20_1356,localizer,2021.1.3,60.92011298944356,
block,faces,faces028.bmp,,,,,0,165,165,165,,,,,,,,,,,,,,,,,,,,,,,,,,,,,,,,,,,,,,,,,,None,,704.0100916398922,None,704.0100916398922,None,2022-05-20-14:07:47.058033,704.0118093998171,704.3258175998926,704.0118093998171,None,None,704.0118093998171,None,704.8271969399182,None,,,,12017,0002,2022_May_20_1356,localizer,2021.1.3,60.92011298944356,
block_end,faces,faces087.bmp,,,,,0,166,166,166,,,,,,,,,,,,,,,,,,,,,,,,,,,,,,,,,,,,,,,,,,None,,704.8271969399182,None,704.8271969399182,None,2022-05-20-14:07:47.875305,704.8291519000195,705.1425135999452,704.8291519000195,None,None,704.8291519000195,None,705.6429978400236,None,,,,12017,0002,2022_May_20_1356,localizer,2021.1.3,60.92011298944356,
null_block,null_block,null_block.bmp,,,,,0,167,167,167,,,,,,,,,,,,,,,,,,,,,,,,,,,,,,,,,,,,,,,,,,t,1.7822424999903888,705.6429281998426,None,705.6429281998426,None,2022-05-20-14:07:50.488824,707.4419617399806,None,707.4419617399806,None,None,707.4419617399806,None,707.4439832000062,None,,,,12017,0002,2022_May_20_1356,localizer,2021.1.3,60.92011298944356,
block_start,objects,objects034.bmp,,,,,0,168,168,168,,,,,,,,,,,,,,,,,,,,,,,,,,,,,,,,,,,,,,,,,,t,1.982609200058505,719.4425986998249,None,719.4425986998249,None,2022-05-20-14:08:04.491262,721.4449729998596,721.759640699951,721.4449729998596,None,y,721.4449729998596,None,722.2592213399009,None,0.7533017999958247,,,12017,0002,2022_May_20_1356,localizer,2021.1.3,60.92011298944356,
block,objects,objects011.bmp,,,,,0,169,169,169,,,,,,,,,,,,,,,,,,,,,,,,,,,,,,,,,,,,,,,,,,None,,722.2592213399009,None,722.2592213399009,None,2022-05-20-14:08:05.306203,722.2605100998189,722.5758026998956,722.2605100998189,None,y,722.2605100998189,None,723.0757197398459,None,0.7237464999780059,,,12017,0002,2022_May_20_1356,localizer,2021.1.3,60.92011298944356,
block,objects,objects068.bmp,,,,,0,170,170,170,,,,,,,,,,,,,,,,,,,,,,,,,,,,,,,,,,,,,,,,,,None,,723.0757197398459,None,723.0757197398459,None,2022-05-20-14:08:06.122964,723.0768655999564,723.3760358998552,723.0768655999564,None,None,723.0768655999564,None,723.876345540001,None,,,,12017,0002,2022_May_20_1356,localizer,2021.1.3,60.92011298944356,
block,objects,objects068.bmp,,,,,0,171,171,171,,,,,,,,,,,,,,,,,,,,,,,,,,,,,,,,,,,,,,,,,,None,,723.876345540001,None,723.876345540001,None,2022-05-20-14:08:06.925318,723.8789052998181,724.1928297998384,723.8789052998181,723.8789052998181,y,723.8789052998181,723.8789052998181,724.6933075399836,None,0.6401275000534952,,,12017,0002,2022_May_20_1356,localizer,2021.1.3,60.92011298944356,
block,objects,objects015.bmp,,,,,0,172,172,172,,,,,,,,,,,,,,,,,,,,,,,,,,,,,,,,,,,,,,,,,,None,,724.6933075399836,None,724.6933075399836,None,2022-05-20-14:08:07.741302,724.6937249999028,724.9931421999354,724.6937249999028,None,None,724.6937249999028,None,725.4952341400319,None,,,,12017,0002,2022_May_20_1356,localizer,2021.1.3,60.92011298944356,
block,objects,objects016.bmp,,,,,0,173,173,173,,,,,,,,,,,,,,,,,,,,,,,,,,,,,,,,,,,,,,,,,,None,,725.4952341400319,None,725.4952341400319,None,2022-05-20-14:08:08.548169,725.5013373999391,725.8098243998829,725.5013373999391,725.5013373999391,None,725.5013373999391,725.5013373999391,726.3102228400064,None,,,,12017,0002,2022_May_20_1356,localizer,2021.1.3,60.92011298944356,
block,objects,objects049.bmp,,,,,0,174,174,174,,,,,,,,,,,,,,,,,,,,,,,,,,,,,,,,,,,,,,,,,,None,,726.3102228400064,None,726.3102228400064,None,2022-05-20-14:08:09.358192,726.3118417998776,726.6267557998654,726.3118417998776,None,None,726.3118417998776,None,727.1258830398554,None,,,,12017,0002,2022_May_20_1356,localizer,2021.1.3,60.92011298944356,
block,objects,objects085.bmp,,,,,0,175,175,175,,,,,,,,,,,,,,,,,,,,,,,,,,,,,,,,,,,,,,,,,,None,,727.1258830398554,None,727.1258830398554,None,2022-05-20-14:08:10.172869,727.127138499869,727.4272961998358,727.127138499869,None,None,727.127138499869,None,727.9267831398872,None,,,,12017,0002,2022_May_20_1356,localizer,2021.1.3,60.92011298944356,
block,objects,objects088.bmp,,,,,0,176,176,176,,,,,,,,,,,,,,,,,,,,,,,,,,,,,,,,,,,,,,,,,,None,,727.9267831398872,None,727.9267831398872,None,2022-05-20-14:08:10.976887,727.929741299944,728.243243600009,727.929741299944,727.929741299944,y,727.929741299944,727.929741299944,728.7430116399889,None,0.42523829988203943,,,12017,0002,2022_May_20_1356,localizer,2021.1.3,60.92011298944356,
block,objects,objects024.bmp,,,,,0,177,177,177,,,,,,,,,,,,,,,,,,,,,,,,,,,,,,,,,,,,,,,,,,None,,728.7430116399889,None,728.7430116399889,None,2022-05-20-14:08:11.790209,728.7435160998721,729.0429328000173,728.7435160998721,None,y,728.7435160998721,None,729.5429837399395,None,0.58461600006558,,,12017,0002,2022_May_20_1356,localizer,2021.1.3,60.92011298944356,
block,objects,objects047.bmp,,,,,0,178,178,178,,,,,,,,,,,,,,,,,,,,,,,,,,,,,,,,,,,,,,,,,,None,,729.5429837399395,None,729.5429837399395,None,2022-05-20-14:08:12.591965,729.5497535998002,729.8595329998061,729.5497535998002,729.5497535998002,None,729.5497535998002,729.5497535998002,730.3597656398313,None,,,,12017,0002,2022_May_20_1356,localizer,2021.1.3,60.92011298944356,
block,objects,objects046.bmp,,,,,0,179,179,179,,,,,,,,,,,,,,,,,,,,,,,,,,,,,,,,,,,,,,,,,,None,,730.3597656398313,None,730.3597656398313,None,2022-05-20-14:08:13.406763,730.3602366999257,730.6606328999624,730.3602366999257,None,None,730.3602366999257,None,731.1597038398729,None,,,,12017,0002,2022_May_20_1356,localizer,2021.1.3,60.92011298944356,
block,objects,objects008.bmp,,,,,0,180,180,180,,,,,,,,,,,,,,,,,,,,,,,,,,,,,,,,,,,,,,,,,,None,,731.1597038398729,None,731.1597038398729,None,2022-05-20-14:08:14.208649,731.1623167998623,731.4765731999651,731.1623167998623,731.1623167998623,y,731.1623167998623,731.1623167998623,731.9770342398667,None,0.618910999968648,,,12017,0002,2022_May_20_1356,localizer,2021.1.3,60.92011298944356,
block,objects,objects045.bmp,,,,,0,181,181,181,,,,,,,,,,,,,,,,,,,,,,,,,,,,,,,,,,,,,,,,,,None,,731.9770342398667,None,731.9770342398667,None,2022-05-20-14:08:15.030017,731.9866469998378,732.299871499883,731.9866469998378,None,None,731.9866469998378,None,732.7990618400042,None,,,,12017,0002,2022_May_20_1356,localizer,2021.1.3,60.92011298944356,
block_end,objects,objects087.bmp,,,,,0,182,182,182,,,,,,,,,,,,,,,,,,,,,,,,,,,,,,,,,,,,,,,,,,None,,732.7990618400042,None,732.7990618400042,None,2022-05-20-14:08:15.853841,732.809348099865,733.1099917998072,732.809348099865,None,None,732.809348099865,None,733.6098241399275,None,,,,12017,0002,2022_May_20_1356,localizer,2021.1.3,60.92011298944356,
block_start,faces,faces055.bmp,,,,,0,183,183,183,,,,,,,,,,,,,,,,,,,,,,,,,,,,,,,,,,,,,,,,,,t,1.8157460000365973,733.6094131998252,None,733.6094131998252,None,2022-05-20-14:08:18.490314,735.4477783998009,735.7594569998328,735.4477783998009,None,None,735.4477783998009,None,736.2597988399909,None,,,,12017,0002,2022_May_20_1356,localizer,2021.1.3,60.92011298944356,
block,faces,faces064.bmp,,,,,0,184,184,184,,,,,,,,,,,,,,,,,,,,,,,,,,,,,,,,,,,,,,,,,,None,,736.2597988399909,None,736.2597988399909,None,2022-05-20-14:08:19.306808,736.2603145998437,736.5595865999348,736.2603145998437,None,y,736.2603145998437,None,737.0596227399772,None,0.6657753998879343,,,12017,0002,2022_May_20_1356,localizer,2021.1.3,60.92011298944356,
block,faces,faces027.bmp,,,,,0,185,185,185,,,,,,,,,,,,,,,,,,,,,,,,,,,,,,,,,,,,,,,,,,None,,737.0596227399772,None,737.0596227399772,None,2022-05-20-14:08:20.108612,737.0609222999774,737.375883899862,737.0609222999774,737.0609222999774,None,737.0609222999774,737.0609222999774,737.876063439832,None,,,,12017,0002,2022_May_20_1356,localizer,2021.1.3,60.92011298944356,
block,faces,faces004.bmp,,,,,0,186,186,186,,,,,,,,,,,,,,,,,,,,,,,,,,,,,,,,,,,,,,,,,,None,,737.876063439832,None,737.876063439832,None,2022-05-20-14:08:20.922950,737.8852599998936,738.1924608999398,737.8852599998936,None,None,737.8852599998936,None,738.693283639918,None,,,,12017,0002,2022_May_20_1356,localizer,2021.1.3,60.92011298944356,
block,faces,faces089.bmp,,,,,0,187,187,187,,,,,,,,,,,,,,,,,,,,,,,,,,,,,,,,,,,,,,,,,,None,,738.693283639918,None,738.693283639918,None,2022-05-20-14:08:21.741270,738.6986744999886,739.0092703998089,738.6986744999886,None,None,738.6986744999886,None,739.5100485399132,None,,,,12017,0002,2022_May_20_1356,localizer,2021.1.3,60.92011298944356,
block,faces,faces078.bmp,,,,,0,188,188,188,,,,,,,,,,,,,,,,,,,,,,,,,,,,,,,,,,,,,,,,,,None,,739.5100485399132,None,739.5100485399132,None,2022-05-20-14:08:22.558037,739.5208513999823,739.8261356998701,739.5208513999823,None,None,739.5208513999823,None,740.3265021399827,None,,,,12017,0002,2022_May_20_1356,localizer,2021.1.3,60.92011298944356,
block,faces,faces038.bmp,,,,,0,189,189,189,,,,,,,,,,,,,,,,,,,,,,,,,,,,,,,,,,,,,,,,,,None,,740.3265021399827,None,740.3265021399827,None,2022-05-20-14:08:23.373497,740.3269570998382,740.6263248999603,740.3269570998382,None,None,740.3269570998382,None,741.1261213399237,None,,,,12017,0002,2022_May_20_1356,localizer,2021.1.3,60.92011298944356,
block,faces,faces013.bmp,,,,,0,190,190,190,,,,,,,,,,,,,,,,,,,,,,,,,,,,,,,,,,,,,,,,,,None,,741.1261213399237,None,741.1261213399237,None,2022-05-20-14:08:24.175120,741.1270397999324,741.4421618999913,741.1270397999324,741.1270397999324,y,741.1270397999324,741.1270397999324,741.92619643996,None,0.5632229000329971,,,12017,0002,2022_May_20_1356,localizer,2021.1.3,60.92011298944356,
block,faces,faces018.bmp,,,,,0,191,191,191,,,,,,,,,,,,,,,,,,,,,,,,,,,,,,,,,,,,,,,,,,None,,741.92619643996,None,741.92619643996,None,2022-05-20-14:08:24.974450,741.9271660998929,742.2261936999857,741.9271660998929,741.9271660998929,y,741.9271660998929,741.9271660998929,742.7279041398549,None,0.5089652999304235,,,12017,0002,2022_May_20_1356,localizer,2021.1.3,60.92011298944356,
block,faces,faces054.bmp,,,,,0,192,192,192,,,,,,,,,,,,,,,,,,,,,,,,,,,,,,,,,,,,,,,,,,None,,742.7279041398549,None,742.7279041398549,None,2022-05-20-14:08:25.780943,742.7351243000012,743.0427815997973,742.7351243000012,742.7351243000012,None,742.7351243000012,742.7351243000012,743.5436369400238,None,,,,12017,0002,2022_May_20_1356,localizer,2021.1.3,60.92011298944356,
block,faces,faces012.bmp,,,,,0,193,193,193,,,,,,,,,,,,,,,,,,,,,,,,,,,,,,,,,,,,,,,,,,None,,743.5436369400238,None,743.5436369400238,None,2022-05-20-14:08:26.591730,743.5456316999625,743.8599425998982,743.5456316999625,None,y,743.5456316999625,None,744.3594878398114,None,0.7212682999670506,,,12017,0002,2022_May_20_1356,localizer,2021.1.3,60.92011298944356,
block,faces,faces037.bmp,,,,,0,194,194,194,,,,,,,,,,,,,,,,,,,,,,,,,,,,,,,,,,,,,,,,,,None,,744.3594878398114,None,744.3594878398114,None,2022-05-20-14:08:27.406492,744.3603304999415,744.6596144998912,744.3603304999415,None,y,744.3603304999415,None,745.1596477400278,None,0.6427849000319839,,,12017,0002,2022_May_20_1356,localizer,2021.1.3,60.92011298944356,
block,faces,faces021.bmp,,,,,0,195,195,195,,,,,,,,,,,,,,,,,,,,,,,,,,,,,,,,,,,,,,,,,,None,,745.1596477400278,None,745.1596477400278,None,2022-05-20-14:08:28.207102,745.1605332000181,745.4594820998609,745.1605332000181,745.1605332000181,None,745.1605332000181,745.1605332000181,745.9601059398381,None,,,,12017,0002,2022_May_20_1356,localizer,2021.1.3,60.92011298944356,
block,faces,faces033.bmp,,,,,0,196,196,196,,,,,,,,,,,,,,,,,,,,,,,,,,,,,,,,,,,,,,,,,,None,,745.9601059398381,None,745.9601059398381,None,2022-05-20-14:08:29.010253,745.9628990998026,746.2762356000021,745.9628990998026,745.9628990998026,y,745.9628990998026,745.9628990998026,746.7630455399164,None,0.5812113001011312,,,12017,0002,2022_May_20_1356,localizer,2021.1.3,60.92011298944356,
block_end,faces,faces053.bmp,,,,,0,197,197,197,,,,,,,,,,,,,,,,,,,,,,,,,,,,,,,,,,,,,,,,,,None,,746.7630455399164,None,746.7630455399164,None,2022-05-20-14:08:29.814736,746.7667166998144,747.07674329984,746.7667166998144,746.7667166998144,None,746.7667166998144,746.7667166998144,747.5765776399755,None,,,,12017,0002,2022_May_20_1356,localizer,2021.1.3,60.92011298944356,
null_block,null_block,null_block.bmp,,,,,0,198,198,198,,,,,,,,,,,,,,,,,,,,,,,,,,,,,,,,,,,,,,,,,,t,1.849014800041914,747.5761688000057,None,747.5761688000057,None,2022-05-20-14:08:32.488328,749.4431152400327,None,749.4431152400327,None,None,749.4431152400327,None,749.444614399923,None,,,,12017,0002,2022_May_20_1356,localizer,2021.1.3,60.92011298944356,
block_start,scrambled,scrambled071.bmp,,,,,0,199,199,199,,,,,,,,,,,,,,,,,,,,,,,,,,,,,,,,,,,,,,,,,,t,1.9595621000044048,761.4656577999704,None,761.4656577999704,None,2022-05-20-14:08:46.490248,763.4536284999922,763.7596832998097,763.4536284999922,None,None,763.4536284999922,None,764.259901139955,None,,,,12017,0002,2022_May_20_1356,localizer,2021.1.3,60.92011298944356,
block,scrambled,scrambled045.bmp,,,,,0,200,200,200,,,,,,,,,,,,,,,,,,,,,,,,,,,,,,,,,,,,,,,,,,None,,764.259901139955,None,764.259901139955,None,2022-05-20-14:08:47.306925,764.2604821999557,764.5597458998673,764.2604821999557,None,y,764.2604821999557,None,765.0649492399068,None,0.4826412000693381,,,12017,0002,2022_May_20_1356,localizer,2021.1.3,60.92011298944356,
block,scrambled,scrambled073.bmp,,,,,0,201,201,201,,,,,,,,,,,,,,,,,,,,,,,,,,,,,,,,,,,,,,,,,,None,,765.0649492399068,None,765.0649492399068,None,2022-05-20-14:08:48.114814,765.072850999888,765.3763259998523,765.072850999888,None,None,765.072850999888,None,765.8764464399544,None,,,,12017,0002,2022_May_20_1356,localizer,2021.1.3,60.92011298944356,
block,scrambled,scrambled073.bmp,,,,,0,202,202,202,,,,,,,,,,,,,,,,,,,,,,,,,,,,,,,,,,,,,,,,,,None,,765.8764464399544,None,765.8764464399544,None,2022-05-20-14:08:48.923481,765.8772028998937,766.1759837998543,765.8772028998937,None,None,765.8772028998937,None,766.6767020398518,None,,,,12017,0002,2022_May_20_1356,localizer,2021.1.3,60.92011298944356,
block,scrambled,scrambled061.bmp,,,,,0,203,203,203,,,,,,,,,,,,,,,,,,,,,,,,,,,,,,,,,,,,,,,,,,None,,766.6767020398518,None,766.6767020398518,None,2022-05-20-14:08:49.725724,766.6792587998789,766.9928834999446,766.6792587998789,766.6792587998789,y,766.6792587998789,766.6792587998789,767.4932701399782,None,0.05321509996429086,,,12017,0002,2022_May_20_1356,localizer,2021.1.3,60.92011298944356,
block,scrambled,scrambled029.bmp,,,,,0,204,204,204,,,,,,,,,,,,,,,,,,,,,,,,,,,,,,,,,,,,,,,,,,None,,767.4932701399782,None,767.4932701399782,None,2022-05-20-14:08:50.540512,767.4937624000013,767.8001354997978,767.4937624000013,None,None,767.4937624000013,None,768.3095633399905,None,,,,12017,0002,2022_May_20_1356,localizer,2021.1.3,60.92011298944356,
block,scrambled,scrambled043.bmp,,,,,0,205,205,205,,,,,,,,,,,,,,,,,,,,,,,,,,,,,,,,,,,,,,,,,,None,,768.3095633399905,None,768.3095633399905,None,2022-05-20-14:08:51.356267,768.3114490997978,768.6260975999758,768.3114490997978,None,None,768.3114490997978,None,769.1263039399171,None,,,,12017,0002,2022_May_20_1356,localizer,2021.1.3,60.92011298944356,
block,scrambled,scrambled001.bmp,,,,,0,206,206,206,,,,,,,,,,,,,,,,,,,,,,,,,,,,,,,,,,,,,,,,,,None,,769.1263039399171,None,769.1263039399171,None,2022-05-20-14:08:52.173604,769.1271830999758,769.4261075998656,769.1271830999758,None,y,769.1271830999758,None,769.9266995399491,None,0.15110390004701912,,,12017,0002,2022_May_20_1356,localizer,2021.1.3,60.92011298944356,
block,scrambled,scrambled054.bmp,,,,,0,207,207,207,,,,,,,,,,,,,,,,,,,,,,,,,,,,,,,,,,,,,,,,,,None,,769.9266995399491,None,769.9266995399491,None,2022-05-20-14:08:52.975929,769.9293386999052,770.2430323997978,769.9293386999052,769.9293386999052,y,769.9293386999052,769.9293386999052,770.7433387400349,None,0.3796725000720471,,,12017,0002,2022_May_20_1356,localizer,2021.1.3,60.92011298944356,
block,scrambled,scrambled057.bmp,,,,,0,208,208,208,,,,,,,,,,,,,,,,,,,,,,,,,,,,,,,,,,,,,,,,,,None,,770.7433387400349,None,770.7433387400349,None,2022-05-20-14:08:53.790371,770.7438721000217,771.0428219998721,770.7438721000217,None,y,770.7438721000217,None,771.5431593398796,None,0.7404201000463217,,,12017,0002,2022_May_20_1356,localizer,2021.1.3,60.92011298944356,
block,scrambled,scrambled026.bmp,,,,,0,209,209,209,,,,,,,,,,,,,,,,,,,,,,,,,,,,,,,,,,,,,,,,,,None,,771.5431593398796,None,771.5431593398796,None,2022-05-20-14:08:54.592188,771.5550064998679,771.8589006999973,771.5550064998679,771.5550064998679,None,771.5550064998679,771.5550064998679,772.3599681398598,None,,,,12017,0002,2022_May_20_1356,localizer,2021.1.3,60.92011298944356,
block,scrambled,scrambled012.bmp,,,,,0,210,210,210,,,,,,,,,,,,,,,,,,,,,,,,,,,,,,,,,,,,,,,,,,None,,772.3599681398598,None,772.3599681398598,None,2022-05-20-14:08:55.407001,772.3704913998954,772.6759381999727,772.3704913998954,None,None,772.3704913998954,None,773.1761631398228,None,,,,12017,0002,2022_May_20_1356,localizer,2021.1.3,60.92011298944356,
block,scrambled,scrambled087.bmp,,,,,0,211,211,211,,,,,,,,,,,,,,,,,,,,,,,,,,,,,,,,,,,,,,,,,,None,,773.1761631398228,None,773.1761631398228,None,2022-05-20-14:08:56.223289,773.1791876999196,773.4928200999275,773.1791876999196,None,None,773.1791876999196,None,773.9785633399849,None,,,,12017,0002,2022_May_20_1356,localizer,2021.1.3,60.92011298944356,
block,scrambled,scrambled018.bmp,,,,,0,212,212,212,,,,,,,,,,,,,,,,,,,,,,,,,,,,,,,,,,,,,,,,,,None,,773.9785633399849,None,773.9785633399849,None,2022-05-20-14:08:57.031682,773.9855651999824,774.2935718998779,773.9855651999824,773.9855651999824,None,773.9855651999824,773.9855651999824,774.799475839897,None,,,,12017,0002,2022_May_20_1356,localizer,2021.1.3,60.92011298944356,
block_end,scrambled,scrambled028.bmp,,,,,0,213,213,213,,,,,,,,,,,,,,,,,,,,,,,,,,,,,,,,,,,,,,,,,,None,,774.799475839897,None,774.799475839897,None,2022-05-20-14:08:57.854422,774.806033300003,775.1095778997988,774.806033300003,None,y,774.806033300003,None,775.6097670398419,None,0.701797500019893,,,12017,0002,2022_May_20_1356,localizer,2021.1.3,60.92011298944356,
block_start,scenes,scenes029.bmp,,,,,0,214,214,214,,,,,,,,,,,,,,,,,,,,,,,,,,,,,,,,,,,,,,,,,,t,1.8158735998440534,775.6094007999636,None,775.6094007999636,None,2022-05-20-14:09:00.492461,777.4465793999843,777.7596279999707,777.4465793999843,None,None,777.4465793999843,None,778.2610199398594,None,,,,12017,0002,2022_May_20_1356,localizer,2021.1.3,60.92011298944356,
block,scenes,scenes018.bmp,,,,,0,215,215,215,,,,,,,,,,,,,,,,,,,,,,,,,,,,,,,,,,,,,,,,,,None,,778.2610199398594,None,778.2610199398594,None,2022-05-20-14:09:01.310040,778.2631698998157,778.5773388999514,778.2631698998157,None,y,778.2631698998157,None,779.0764582399977,None,0.6103204998653382,,,12017,0002,2022_May_20_1356,localizer,2021.1.3,60.92011298944356,
block,scenes,scenes020.bmp,,,,,0,216,216,216,,,,,,,,,,,,,,,,,,,,,,,,,,,,,,,,,,,,,,,,,,None,,779.0764582399977,None,779.0764582399977,None,2022-05-20-14:09:02.123502,779.0772384998854,779.3761012000032,779.0772384998854,None,None,779.0772384998854,None,779.8765767398988,None,,,,12017,0002,2022_May_20_1356,localizer,2021.1.3,60.92011298944356,
block,scenes,scenes032.bmp,,,,,0,217,217,217,,,,,,,,,,,,,,,,,,,,,,,,,,,,,,,,,,,,,,,,,,None,,779.8765767398988,None,779.8765767398988,None,2022-05-20-14:09:02.925618,779.8776179999113,780.1929564999882,779.8776179999113,779.8776179999113,None,779.8776179999113,779.8776179999113,780.6933735400205,None,,,,12017,0002,2022_May_20_1356,localizer,2021.1.3,60.92011298944356,
block,scenes,scenes091.bmp,,,,,0,218,218,218,,,,,,,,,,,,,,,,,,,,,,,,,,,,,,,,,,,,,,,,,,None,,780.6933735400205,None,780.6933735400205,None,2022-05-20-14:09:03.740418,780.6940259998664,780.9929792999756,780.6940259998664,None,y,780.6940259998664,None,781.5096969400299,None,0.4712230998557061,,,12017,0002,2022_May_20_1356,localizer,2021.1.3,60.92011298944356,
block,scenes,scenes054.bmp,,,,,0,219,219,219,,,,,,,,,,,,,,,,,,,,,,,,,,,,,,,,,,,,,,,,,,None,,781.5096969400299,None,781.5096969400299,None,2022-05-20-14:09:04.556746,781.5107305999845,781.8098303999286,781.5107305999845,None,None,781.5107305999845,None,782.3166406399803,None,,,,12017,0002,2022_May_20_1356,localizer,2021.1.3,60.92011298944356,
block,scenes,scenes045.bmp,,,,,0,220,220,220,,,,,,,,,,,,,,,,,,,,,,,,,,,,,,,,,,,,,,,,,,None,,782.3166406399803,None,782.3166406399803,None,2022-05-20-14:09:05.369685,782.3230441999622,782.6261706999503,782.3230441999622,None,y,782.3230441999622,None,783.1267071399604,None,0.564277800032869,,,12017,0002,2022_May_20_1356,localizer,2021.1.3,60.92011298944356,
block,scenes,scenes064.bmp,,,,,0,221,221,221,,,,,,,,,,,,,,,,,,,,,,,,,,,,,,,,,,,,,,,,,,None,,783.1267071399604,None,783.1267071399604,None,2022-05-20-14:09:06.173968,783.127359099919,783.4260992999189,783.127359099919,None,None,783.127359099919,None,783.9266622400144,None,,,,12017,0002,2022_May_20_1356,localizer,2021.1.3,60.92011298944356,
block,scenes,scenes046.bmp,,,,,0,222,222,222,,,,,,,,,,,,,,,,,,,,,,,,,,,,,,,,,,,,,,,,,,None,,783.9266622400144,None,783.9266622400144,None,2022-05-20-14:09:06.975707,783.9277339000255,784.2429794999771,783.9277339000255,783.9277339000255,None,783.9277339000255,783.9277339000255,784.7268213399918,None,,,,12017,0002,2022_May_20_1356,localizer,2021.1.3,60.92011298944356,
block,scenes,scenes033.bmp,,,,,0,223,223,223,,,,,,,,,,,,,,,,,,,,,,,,,,,,,,,,,,,,,,,,,,None,,784.7268213399918,None,784.7268213399918,None,2022-05-20-14:09:07.775166,784.7286576000042,785.0434334999882,784.7286576000042,784.7286576000042,y,784.7286576000042,784.7286576000042,785.5432228400139,None,0.2293990000616759,,,12017,0002,2022_May_20_1356,localizer,2021.1.3,60.92011298944356,
block,scenes,scenes019.bmp,,,,,0,224,224,224,,,,,,,,,,,,,,,,,,,,,,,,,,,,,,,,,,,,,,,,,,None,,785.5432228400139,None,785.5432228400139,None,2022-05-20-14:09:08.590274,785.5537582000252,785.8597914997954,785.5537582000252,None,None,785.5537582000252,None,786.3600185400107,None,,,,12017,0002,2022_May_20_1356,localizer,2021.1.3,60.92011298944356,
block,scenes,scenes001.bmp,,,,,0,225,225,225,,,,,,,,,,,,,,,,,,,,,,,,,,,,,,,,,,,,,,,,,,None,,786.3600185400107,None,786.3600185400107,None,2022-05-20-14:09:09.407471,786.3605510999914,786.6597557999194,786.3605510999914,None,None,786.3605510999914,None,787.1598325398052,None,,,,12017,0002,2022_May_20_1356,localizer,2021.1.3,60.92011298944356,
block,scenes,scenes087.bmp,,,,,0,226,226,226,,,,,,,,,,,,,,,,,,,,,,,,,,,,,,,,,,,,,,,,,,None,,787.1598325398052,None,787.1598325398052,None,2022-05-20-14:09:10.209878,787.1621393999085,787.4760192998219,787.1621393999085,787.1621393999085,y,787.1621393999085,787.1621393999085,787.9765345399035,None,0.638016999932006,,,12017,0002,2022_May_20_1356,localizer,2021.1.3,60.92011298944356,
block,scenes,scenes037.bmp,,,,,0,227,227,227,,,,,,,,,,,,,,,,,,,,,,,,,,,,,,,,,,,,,,,,,,None,,787.9765345399035,None,787.9765345399035,None,2022-05-20-14:09:11.024167,787.9774191998877,788.2757488000207,787.9774191998877,None,None,787.9774191998877,None,788.7770174400182,None,,,,12017,0002,2022_May_20_1356,localizer,2021.1.3,60.92011298944356,
block_end,scenes,scenes038.bmp,,,,,0,228,228,228,,,,,,,,,,,,,,,,,,,,,,,,,,,,,,,,,,,,,,,,,,None,,788.7770174400182,None,788.7770174400182,None,2022-05-20-14:09:11.825089,788.7816339000128,789.093076699879,788.7816339000128,788.7816339000128,y,788.7816339000128,788.7816339000128,789.5930036400212,None,0.09263119986280799,,,12017,0002,2022_May_20_1356,localizer,2021.1.3,60.92011298944356,
block_start,objects,objects069.bmp,,,,,0,229,229,229,,,,,,,,,,,,,,,,,,,,,,,,,,,,,,,,,,,,,,,,,,t,1.8329762001521885,789.5927859998774,None,789.5927859998774,None,2022-05-20-14:09:14.491073,791.4439679998904,791.7431220000144,791.4439679998904,None,None,791.4439679998904,None,792.2435591398505,None,,,,12017,0002,2022_May_20_1356,localizer,2021.1.3,60.92011298944356,
block,objects,objects052.bmp,,,,,0,230,230,230,,,,,,,,,,,,,,,,,,,,,,,,,,,,,,,,,,,,,,,,,,None,,792.2435591398505,None,792.2435591398505,None,2022-05-20-14:09:15.292682,792.2507408999372,792.559627099894,792.2507408999372,792.2507408999372,None,792.2507408999372,792.2507408999372,793.0611608399311,None,,,,12017,0002,2022_May_20_1356,localizer,2021.1.3,60.92011298944356,
block,objects,objects061.bmp,,,,,0,231,231,231,,,,,,,,,,,,,,,,,,,,,,,,,,,,,,,,,,,,,,,,,,None,,793.0611608399311,None,793.0611608399311,None,2022-05-20-14:09:16.109928,793.0703470997978,793.3771957999561,793.0703470997978,None,y,793.0703470997978,None,793.8769370399648,None,0.47972570010460913,,,12017,0002,2022_May_20_1356,localizer,2021.1.3,60.92011298944356,
block,objects,objects078.bmp,,,,,0,232,232,232,,,,,,,,,,,,,,,,,,,,,,,,,,,,,,,,,,,,,,,,,,None,,793.8769370399648,None,793.8769370399648,None,2022-05-20-14:09:16.924303,793.887524999911,794.1931393998675,793.887524999911,None,None,793.887524999911,None,794.6936104398453,None,,,,12017,0002,2022_May_20_1356,localizer,2021.1.3,60.92011298944356,
block,objects,objects049.bmp,,,,,0,233,233,233,,,,,,,,,,,,,,,,,,,,,,,,,,,,,,,,,,,,,,,,,,None,,794.6936104398453,None,794.6936104398453,None,2022-05-20-14:09:17.740775,794.6940987999551,794.993576399982,794.6940987999551,None,y,794.6940987999551,None,795.509732039948,None,0.7637176001444459,,,12017,0002,2022_May_20_1356,localizer,2021.1.3,60.92011298944356,
block,objects,objects054.bmp,,,,,0,234,234,234,,,,,,,,,,,,,,,,,,,,,,,,,,,,,,,,,,,,,,,,,,None,,795.509732039948,None,795.509732039948,None,2022-05-20-14:09:18.556582,795.510756299831,795.8095398999285,795.510756299831,None,y,795.510756299831,None,796.3160961399087,None,0.5892293001525104,,,12017,0002,2022_May_20_1356,localizer,2021.1.3,60.92011298944356,
block,objects,objects050.bmp,,,,,0,235,235,235,,,,,,,,,,,,,,,,,,,,,,,,,,,,,,,,,,,,,,,,,,None,,796.3160961399087,None,796.3160961399087,None,2022-05-20-14:09:19.369284,796.3275770999026,796.6430984998588,796.3275770999026,None,None,796.3275770999026,None,797.1268160399748,None,,,,12017,0002,2022_May_20_1356,localizer,2021.1.3,60.92011298944356,
block,objects,objects025.bmp,,,,,0,236,236,236,,,,,,,,,,,,,,,,,,,,,,,,,,,,,,,,,,,,,,,,,,None,,797.1268160399748,None,797.1268160399748,None,2022-05-20-14:09:20.174232,797.1275656998623,797.4266224999446,797.1275656998623,None,None,797.1275656998623,None,797.9270172399235,None,,,,12017,0002,2022_May_20_1356,localizer,2021.1.3,60.92011298944356,
block,objects,objects040.bmp,,,,,0,237,237,237,,,,,,,,,,,,,,,,,,,,,,,,,,,,,,,,,,,,,,,,,,None,,797.9270172399235,None,797.9270172399235,None,2022-05-20-14:09:20.977185,797.9296406998765,798.2433418999426,797.9296406998765,797.9296406998765,None,797.9296406998765,797.9296406998765,798.7435554399387,None,,,,12017,0002,2022_May_20_1356,localizer,2021.1.3,60.92011298944356,
block,objects,objects039.bmp,,,,,0,238,238,238,,,,,,,,,,,,,,,,,,,,,,,,,,,,,,,,,,,,,,,,,,None,,798.7435554399387,None,798.7435554399387,None,2022-05-20-14:09:21.790778,798.7485809000209,799.0596790998243,798.7485809000209,None,None,798.7485809000209,None,799.5599386399379,None,,,,12017,0002,2022_May_20_1356,localizer,2021.1.3,60.92011298944356,
block,objects,objects029.bmp,,,,,0,239,239,239,,,,,,,,,,,,,,,,,,,,,,,,,,,,,,,,,,,,,,,,,,None,,799.5599386399379,None,799.5599386399379,None,2022-05-20-14:09:22.607177,799.5696731999051,799.8768320998643,799.5696731999051,None,None,799.5696731999051,None,800.376557739987,None,,,,12017,0002,2022_May_20_1356,localizer,2021.1.3,60.92011298944356,
block,objects,objects053.bmp,,,,,0,240,240,240,,,,,,,,,,,,,,,,,,,,,,,,,,,,,,,,,,,,,,,,,,None,,800.376557739987,None,800.376557739987,None,2022-05-20-14:09:23.423810,800.3773051998578,800.6763766999356,800.3773051998578,None,y,800.3773051998578,None,801.1764211399247,None,0.5497269998304546,,,12017,0002,2022_May_20_1356,localizer,2021.1.3,60.92011298944356,
block,objects,objects022.bmp,,,,,0,241,241,241,,,,,,,,,,,,,,,,,,,,,,,,,,,,,,,,,,,,,,,,,,None,,801.1764211399247,None,801.1764211399247,None,2022-05-20-14:09:24.225684,801.1773999999277,801.4763499998953,801.1773999999277,801.1773999999277,y,801.1773999999277,801.1773999999277,801.977861039876,None,0.5822379000019282,,,12017,0002,2022_May_20_1356,localizer,2021.1.3,60.92011298944356,
block,objects,objects055.bmp,,,,,0,242,242,242,,,,,,,,,,,,,,,,,,,,,,,,,,,,,,,,,,,,,,,,,,None,,801.977861039876,None,801.977861039876,None,2022-05-20-14:09:25.029248,801.9874475998804,802.2930279998109,801.9874475998804,801.9874475998804,None,801.9874475998804,801.9874475998804,802.7929826398147,None,,,,12017,0002,2022_May_20_1356,localizer,2021.1.3,60.92011298944356,
block_end,objects,objects014.bmp,,,,,0,243,243,243,,,,,,,,,,,,,,,,,,,,,,,,,,,,,,,,,,,,,,,,,,None,,802.7929826398147,None,802.7929826398147,None,2022-05-20-14:09:25.840277,802.796312399907,803.1094825000037,802.796312399907,None,None,802.796312399907,None,803.6102424399694,None,,,,12017,0002,2022_May_20_1356,localizer,2021.1.3,60.92011298944356,
,,,,,,,,,,,,,,,,,,,,,,,,,,,,,,,,,,,,,,,,,,,,,,,,,,,,,,,,,,,,,,,,,,,,,803.6136362999678,None,,,,,,,
