block_type,condition,img_name,Button.thisRepN,Button.thisTrialN,Button.thisN,Button.thisIndex,trials.thisRepN,trials.thisTrialN,trials.thisN,trials.thisIndex,Ready_experimenter_text.started,Ready_experimenter_text.stopped,Ready_experimenter_resp.keys,Ready_experimenter_resp.rt,Ready_experimenter_resp.started,Ready_experimenter_resp.stopped,Alignment_background.started,Alignment_background.stopped,Alignment_image.started,Alignment_image.stopped,Alignment_resp.keys,Alignment_resp.rt,Alignment_resp.started,Alignment_resp.stopped,Button_text.started,Button_text.stopped,Index_text.started,Index_text.stopped,Index_resp.keys,Index_resp.rt,Index_resp.started,Index_resp.stopped,Middle_text.started,Middle_text.stopped,Middle_resp.keys,Middle_resp.rt,Middle_resp.started,Middle_resp.stopped,Repeat_text.started,Repeat_text.stopped,Repeat_resp.keys,Repeat_resp.corr,Repeat_resp.rt,Repeat_resp.started,Repeat_resp.stopped,instruction_text.started,instruction_text.stopped,key_resp.keys,key_resp.rt,key_resp.started,key_resp.stopped,scanner_t.keys,scanner_t.rt,scanner_t.started,scanner_t.stopped,fixation_wait_for_t.started,fixation_wait_for_t.stopped,real_timestamp_trial_start,image.started,image.stopped,fixation.started,fixation.stopped,repeat_response.keys,repeat_response.started,repeat_response.stopped,fixation_null.started,fixation_null.stopped,repeat_response.rt,end_text.started,end_text.stopped,participant,run,date,expName,psychopyVersion,frameRate,
,,,,,,,,,,,23.799279799990472,None,return,2.1477315000083763,23.799279799990472,None,,,,,,,,,,,,,,,,,,,,,,,,,,,,,,,,,,,,,,,,,,,,,,,,,,,,,,,22002,0002,2021_Sep_24_1414,localizer,2021.1.3,60.0225324590636,
,,,,,,,,,,,,,,,,,25.9986315999995,None,25.9986315999995,None,return,1.2769456000096397,25.9986315999995,None,,,,,,,,,,,,,,,,,,,,,,,,,,,,,,,,,,,,,,,,,,,,,,,22002,0002,2021_Sep_24_1414,localizer,2021.1.3,60.0225324590636,
,,,0,0,0,0,,,,,,,,,,,,,,,,,,,27.288833899991005,None,28.289279299991904,None,y,1.419978899997659,28.289279299991904,None,29.739241699993727,None,b,1.5482013000000734,29.739241699993727,None,31.305613099990296,None,n,0,1.258760999990045,31.305613099990296,None,,,,,,,,,,,,,,,,,,,,,,,,,,22002,0002,2021_Sep_24_1414,localizer,2021.1.3,60.0225324590636,
,,,,,,,,,,,,,,,,,,,,,,,,,,,,,,,,,,,,,,,,,,,,,,32.59010919999855,None,y,8.489996799995424,32.59010919999855,None,,,,,,,,,,,,,,,,,,,,22002,0002,2021_Sep_24_1414,localizer,2021.1.3,60.0225324590636,
block_start,objects,objects032.bmp,,,,,0,0,0,0,,,,,,,,,,,,,,,,,,,,,,,,,,,,,,,,,,,,,,,,,,t,3.6630290000030072,41.15208580000035,None,41.15208580000035,None,2021-09-24-14:15:04.565478,44.849003399998765,45.15582580000046,44.849003399998765,None,None,44.849003399998765,None,45.65583758999419,None,,,,22002,0002,2021_Sep_24_1414,localizer,2021.1.3,60.0225324590636,
block,objects,objects021.bmp,,,,,0,1,1,1,,,,,,,,,,,,,,,,,,,,,,,,,,,,,,,,,,,,,,,,,,None,,45.65583758999419,None,45.65583758999419,None,2021-09-24-14:15:05.389905,45.671011899990845,45.97249960000045,45.671011899990845,None,None,45.671011899990845,None,46.47250538999215,None,,,,22002,0002,2021_Sep_24_1414,localizer,2021.1.3,60.0225324590636,
block,objects,objects028.bmp,,,,,0,2,2,2,,,,,,,,,,,,,,,,,,,,,,,,,,,,,,,,,,,,,,,,,,None,,46.47250538999215,None,46.47250538999215,None,2021-09-24-14:15:06.203999,46.49361439999484,46.80584009998711,46.49361439999484,None,None,46.49361439999484,None,47.289018789993136,None,,,,22002,0002,2021_Sep_24_1414,localizer,2021.1.3,60.0225324590636,
block,objects,objects070.bmp,,,,,0,3,3,3,,,,,,,,,,,,,,,,,,,,,,,,,,,,,,,,,,,,,,,,,,None,,47.289018789993136,None,47.289018789993136,None,2021-09-24-14:15:07.020342,47.299641699995846,47.605944999988424,47.299641699995846,None,None,47.299641699995846,None,48.10586478999467,None,,,,22002,0002,2021_Sep_24_1414,localizer,2021.1.3,60.0225324590636,
block,objects,objects033.bmp,,,,,0,4,4,4,,,,,,,,,,,,,,,,,,,,,,,,,,,,,,,,,,,,,,,,,,None,,48.10586478999467,None,48.10586478999467,None,2021-09-24-14:15:07.838793,48.11593119999452,48.42227389999607,48.11593119999452,None,None,48.11593119999452,None,48.922430089997945,None,,,,22002,0002,2021_Sep_24_1414,localizer,2021.1.3,60.0225324590636,
block,objects,objects045.bmp,,,,,0,5,5,5,,,,,,,,,,,,,,,,,,,,,,,,,,,,,,,,,,,,,,,,,,None,,48.922430089997945,None,48.922430089997945,None,2021-09-24-14:15:08.653939,48.93455229999381,49.23917000000074,48.93455229999381,None,None,48.93455229999381,None,49.73919748999761,None,,,,22002,0002,2021_Sep_24_1414,localizer,2021.1.3,60.0225324590636,
block,objects,objects008.bmp,,,,,0,6,6,6,,,,,,,,,,,,,,,,,,,,,,,,,,,,,,,,,,,,,,,,,,None,,49.73919748999761,None,49.73919748999761,None,2021-09-24-14:15:09.469508,49.74997419999272,50.055710799992085,49.74997419999272,None,None,49.74997419999272,None,50.55591158999887,None,,,,22002,0002,2021_Sep_24_1414,localizer,2021.1.3,60.0225324590636,
block,objects,objects043.bmp,,,,,0,7,7,7,,,,,,,,,,,,,,,,,,,,,,,,,,,,,,,,,,,,,,,,,,None,,50.55591158999887,None,50.55591158999887,None,2021-09-24-14:15:10.288250,50.567551199987065,50.87254309999116,50.567551199987065,None,None,50.567551199987065,None,51.37253928999708,None,,,,22002,0002,2021_Sep_24_1414,localizer,2021.1.3,60.0225324590636,
block,objects,objects019.bmp,,,,,0,8,8,8,,,,,,,,,,,,,,,,,,,,,,,,,,,,,,,,,,,,,,,,,,None,,51.37253928999708,None,51.37253928999708,None,2021-09-24-14:15:11.103870,51.39215729999705,51.70585479999136,51.39215729999705,None,None,51.39215729999705,None,52.18901758999273,None,,,,22002,0002,2021_Sep_24_1414,localizer,2021.1.3,60.0225324590636,
block,objects,objects020.bmp,,,,,0,9,9,9,,,,,,,,,,,,,,,,,,,,,,,,,,,,,,,,,,,,,,,,,,None,,52.18901758999273,None,52.18901758999273,None,2021-09-24-14:15:11.920496,52.205409899994265,52.50587779999478,52.205409899994265,None,None,52.205409899994265,None,53.00590269000095,None,,,,22002,0002,2021_Sep_24_1414,localizer,2021.1.3,60.0225324590636,
block,objects,objects060.bmp,,,,,0,10,10,10,,,,,,,,,,,,,,,,,,,,,,,,,,,,,,,,,,,,,,,,,,None,,53.00590269000095,None,53.00590269000095,None,2021-09-24-14:15:12.737400,53.016671999997925,53.322317899990594,53.016671999997925,None,None,53.016671999997925,None,53.82232948999736,None,,,,22002,0002,2021_Sep_24_1414,localizer,2021.1.3,60.0225324590636,
block,objects,objects027.bmp,,,,,0,11,11,11,,,,,,,,,,,,,,,,,,,,,,,,,,,,,,,,,,,,,,,,,,None,,53.82232948999736,None,53.82232948999736,None,2021-09-24-14:15:13.544775,53.82351740000013,54.12250749999657,53.82351740000013,None,None,53.82351740000013,None,54.622553289987266,None,,,,22002,0002,2021_Sep_24_1414,localizer,2021.1.3,60.0225324590636,
block,objects,objects061.bmp,,,,,0,12,12,12,,,,,,,,,,,,,,,,,,,,,,,,,,,,,,,,,,,,,,,,,,None,,54.622553289987266,None,54.622553289987266,None,2021-09-24-14:15:14.354598,54.63418609999644,54.9391586999991,54.63418609999644,54.63418609999644,None,54.63418609999644,54.63418609999644,55.439168489992156,None,,,,22002,0002,2021_Sep_24_1414,localizer,2021.1.3,60.0225324590636,
block,objects,objects086.bmp,,,,,0,13,13,13,,,,,,,,,,,,,,,,,,,,,,,,,,,,,,,,,,,,,,,,,,None,,55.439168489992156,None,55.439168489992156,None,2021-09-24-14:15:15.169689,55.45879669999704,55.77256619998661,55.45879669999704,None,None,55.45879669999704,None,56.25588118999731,None,,,,22002,0002,2021_Sep_24_1414,localizer,2021.1.3,60.0225324590636,
block_end,objects,objects074.bmp,,,,,0,14,14,14,,,,,,,,,,,,,,,,,,,,,,,,,,,,,,,,,,,,,,,,,,None,,56.25588118999731,None,56.25588118999731,None,2021-09-24-14:15:15.985836,56.27455469999404,56.57253259999561,56.27455469999404,None,None,56.27455469999404,None,57.07254158999713,None,,,,22002,0002,2021_Sep_24_1414,localizer,2021.1.3,60.0225324590636,
block_start,faces,faces049.bmp,,,,,0,15,15,15,,,,,,,,,,,,,,,,,,,,,,,,,,,,,,,,,,,,,,,,,,t,2.763932499990915,57.07253520000086,None,57.07253520000086,None,2021-09-24-14:15:19.584093,59.87476759999117,60.18919739998819,59.87476759999117,None,None,59.87476759999117,None,60.67259038999619,None,,,,22002,0002,2021_Sep_24_1414,localizer,2021.1.3,60.0225324590636,
block,faces,faces061.bmp,,,,,0,16,16,16,,,,,,,,,,,,,,,,,,,,,,,,,,,,,,,,,,,,,,,,,,None,,60.67259038999619,None,60.67259038999619,None,2021-09-24-14:15:20.402923,60.69409399999131,61.00587729999097,60.69409399999131,None,None,60.69409399999131,None,61.48907708999759,None,,,,22002,0002,2021_Sep_24_1414,localizer,2021.1.3,60.0225324590636,
block,faces,faces068.bmp,,,,,0,17,17,17,,,,,,,,,,,,,,,,,,,,,,,,,,,,,,,,,,,,,,,,,,None,,61.48907708999759,None,61.48907708999759,None,2021-09-24-14:15:21.211801,61.498788599987165,61.80577120000089,61.498788599987165,None,None,61.498788599987165,None,62.30595318999549,None,,,,22002,0002,2021_Sep_24_1414,localizer,2021.1.3,60.0225324590636,
block,faces,faces080.bmp,,,,,0,18,18,18,,,,,,,,,,,,,,,,,,,,,,,,,,,,,,,,,,,,,,,,,,None,,62.30595318999549,None,62.30595318999549,None,2021-09-24-14:15:22.036286,62.33158499999263,62.63928809999197,62.33158499999263,None,None,62.33158499999263,None,63.122597689990656,None,,,,22002,0002,2021_Sep_24_1414,localizer,2021.1.3,60.0225324590636,
block,faces,faces070.bmp,,,,,0,19,19,19,,,,,,,,,,,,,,,,,,,,,,,,,,,,,,,,,,,,,,,,,,None,,63.122597689990656,None,63.122597689990656,None,2021-09-24-14:15:22.854100,63.15443119998963,63.4556956999877,63.15443119998963,None,None,63.15443119998963,None,63.939249989987005,None,,,,22002,0002,2021_Sep_24_1414,localizer,2021.1.3,60.0225324590636,
block,faces,faces051.bmp,,,,,0,20,20,20,,,,,,,,,,,,,,,,,,,,,,,,,,,,,,,,,,,,,,,,,,None,,63.939249989987005,None,63.939249989987005,None,2021-09-24-14:15:23.670560,63.950262899990776,64.25594459999411,63.950262899990776,None,None,63.950262899990776,None,64.75594408999605,None,,,,22002,0002,2021_Sep_24_1414,localizer,2021.1.3,60.0225324590636,
block,faces,faces062.bmp,,,,,0,21,21,21,,,,,,,,,,,,,,,,,,,,,,,,,,,,,,,,,,,,,,,,,,None,,64.75594408999605,None,64.75594408999605,None,2021-09-24-14:15:24.487438,64.78482439999061,65.08901969999715,64.78482439999061,None,None,64.78482439999061,None,65.57258748999739,None,,,,22002,0002,2021_Sep_24_1414,localizer,2021.1.3,60.0225324590636,
block,faces,faces086.bmp,,,,,0,22,22,22,,,,,,,,,,,,,,,,,,,,,,,,,,,,,,,,,,,,,,,,,,None,,65.57258748999739,None,65.57258748999739,None,2021-09-24-14:15:25.295787,65.58113120000053,65.88926519999222,65.58113120000053,None,None,65.58113120000053,None,66.38926068999281,None,,,,22002,0002,2021_Sep_24_1414,localizer,2021.1.3,60.0225324590636,
block,faces,faces024.bmp,,,,,0,23,23,23,,,,,,,,,,,,,,,,,,,,,,,,,,,,,,,,,,,,,,,,,,None,,66.38926068999281,None,66.38926068999281,None,2021-09-24-14:15:26.120769,66.41056859999662,66.72243449999951,66.41056859999662,None,None,66.41056859999662,None,67.2057119899866,None,,,,22002,0002,2021_Sep_24_1414,localizer,2021.1.3,60.0225324590636,
block,faces,faces069.bmp,,,,,0,24,24,24,,,,,,,,,,,,,,,,,,,,,,,,,,,,,,,,,,,,,,,,,,None,,67.2057119899866,None,67.2057119899866,None,2021-09-24-14:15:26.934282,67.21544459999132,67.5226268999977,67.21544459999132,None,None,67.21544459999132,None,68.02263758999761,None,,,,22002,0002,2021_Sep_24_1414,localizer,2021.1.3,60.0225324590636,
block,faces,faces082.bmp,,,,,0,25,25,25,,,,,,,,,,,,,,,,,,,,,,,,,,,,,,,,,,,,,,,,,,None,,68.02263758999761,None,68.02263758999761,None,2021-09-24-14:15:27.753131,68.03273539998918,68.33920889999717,68.03273539998918,None,None,68.03273539998918,None,68.83931298999524,None,,,,22002,0002,2021_Sep_24_1414,localizer,2021.1.3,60.0225324590636,
block,faces,faces041.bmp,,,,,0,26,26,26,,,,,,,,,,,,,,,,,,,,,,,,,,,,,,,,,,,,,,,,,,None,,68.83931298999524,None,68.83931298999524,None,2021-09-24-14:15:28.569823,68.84954519999155,69.15590359999624,68.84954519999155,None,None,68.84954519999155,None,69.65600028999616,None,,,,22002,0002,2021_Sep_24_1414,localizer,2021.1.3,60.0225324590636,
block,faces,faces021.bmp,,,,,0,27,27,27,,,,,,,,,,,,,,,,,,,,,,,,,,,,,,,,,,,,,,,,,,None,,69.65600028999616,None,69.65600028999616,None,2021-09-24-14:15:29.386525,69.67392219998874,69.972629099997,69.67392219998874,None,None,69.67392219998874,None,70.47264578999894,None,,,,22002,0002,2021_Sep_24_1414,localizer,2021.1.3,60.0225324590636,
block,faces,faces037.bmp,,,,,0,28,28,28,,,,,,,,,,,,,,,,,,,,,,,,,,,,,,,,,,,,,,,,,,None,,70.47264578999894,None,70.47264578999894,None,2021-09-24-14:15:30.202955,70.48359159998654,70.78931779999402,70.48359159998654,None,None,70.48359159998654,None,71.28909068998765,None,,,,22002,0002,2021_Sep_24_1414,localizer,2021.1.3,60.0225324590636,
block_end,faces,faces011.bmp,,,,,0,29,29,29,,,,,,,,,,,,,,,,,,,,,,,,,,,,,,,,,,,,,,,,,,None,,71.28909068998765,None,71.28909068998765,None,2021-09-24-14:15:31.014472,71.30588569999964,71.60594019999553,71.30588569999964,None,None,71.30588569999964,None,72.1059540899907,None,,,,22002,0002,2021_Sep_24_1414,localizer,2021.1.3,60.0225324590636,
null_block,null_block,null_block.bmp,,,,,0,30,30,30,,,,,,,,,,,,,,,,,,,,,,,,,,,,,,,,,,,,,,,,,,t,2.831827300004079,72.10598009999376,None,72.10598009999376,None,2021-09-24-14:15:34.684519,74.97266957999673,None,74.97266957999673,None,None,74.97266957999673,None,74.97065169998677,None,,,,22002,0002,2021_Sep_24_1414,localizer,2021.1.3,60.0225324590636,
block_start,scrambled,scrambled024.bmp,,,,,0,31,31,31,,,,,,,,,,,,,,,,,,,,,,,,,,,,,,,,,,,,,,,,,,t,0.9704020000062883,86.97270169999683,None,86.97270169999683,None,2021-09-24-14:15:47.702033,87.97714989999076,88.28939499999979,87.97714989999076,None,None,87.97714989999076,None,88.78940338999674,None,,,,22002,0002,2021_Sep_24_1414,localizer,2021.1.3,60.0225324590636,
block,scrambled,scrambled011.bmp,,,,,0,32,32,32,,,,,,,,,,,,,,,,,,,,,,,,,,,,,,,,,,,,,,,,,,None,,88.78940338999674,None,88.78940338999674,None,2021-09-24-14:15:48.519929,88.82518909999635,89.13937239999359,88.82518909999635,None,None,88.82518909999635,None,89.60609168999072,None,,,,22002,0002,2021_Sep_24_1414,localizer,2021.1.3,60.0225324590636,
block,scrambled,scrambled086.bmp,,,,,0,33,33,33,,,,,,,,,,,,,,,,,,,,,,,,,,,,,,,,,,,,,,,,,,None,,89.60609168999072,None,89.60609168999072,None,2021-09-24-14:15:49.336606,89.61617049999768,89.92266609999933,89.61617049999768,None,None,89.61617049999768,None,90.42269158999552,None,,,,22002,0002,2021_Sep_24_1414,localizer,2021.1.3,60.0225324590636,
block,scrambled,scrambled085.bmp,,,,,0,34,34,34,,,,,,,,,,,,,,,,,,,,,,,,,,,,,,,,,,,,,,,,,,None,,90.42269158999552,None,90.42269158999552,None,2021-09-24-14:15:50.153043,90.4430743999983,90.75590150000062,90.4430743999983,None,None,90.4430743999983,None,91.23931218999788,None,,,,22002,0002,2021_Sep_24_1414,localizer,2021.1.3,60.0225324590636,
block,scrambled,scrambled040.bmp,,,,,0,35,35,35,,,,,,,,,,,,,,,,,,,,,,,,,,,,,,,,,,,,,,,,,,None,,91.23931218999788,None,91.23931218999788,None,2021-09-24-14:15:50.961784,91.24053419999836,91.53935169999022,91.24053419999836,None,None,91.24053419999836,None,92.05610099000042,None,,,,22002,0002,2021_Sep_24_1414,localizer,2021.1.3,60.0225324590636,
block,scrambled,scrambled063.bmp,,,,,0,36,36,36,,,,,,,,,,,,,,,,,,,,,,,,,,,,,,,,,,,,,,,,,,None,,92.05610099000042,None,92.05610099000042,None,2021-09-24-14:15:51.786625,92.06606599999941,92.37271559999499,92.06606599999941,None,None,92.06606599999941,None,92.8727420899988,None,,,,22002,0002,2021_Sep_24_1414,localizer,2021.1.3,60.0225324590636,
block,scrambled,scrambled052.bmp,,,,,0,37,37,37,,,,,,,,,,,,,,,,,,,,,,,,,,,,,,,,,,,,,,,,,,None,,92.8727420899988,None,92.8727420899988,None,2021-09-24-14:15:52.601293,92.88172330000089,93.1893424999871,92.88172330000089,None,None,92.88172330000089,None,93.68920878999343,None,,,,22002,0002,2021_Sep_24_1414,localizer,2021.1.3,60.0225324590636,
block,scrambled,scrambled037.bmp,,,,,0,38,38,38,,,,,,,,,,,,,,,,,,,,,,,,,,,,,,,,,,,,,,,,,,None,,93.68920878999343,None,93.68920878999343,None,2021-09-24-14:15:53.419744,93.69934199999261,94.00605409999844,93.69934199999261,None,None,93.69934199999261,None,94.50609598998854,None,,,,22002,0002,2021_Sep_24_1414,localizer,2021.1.3,60.0225324590636,
block,scrambled,scrambled074.bmp,,,,,0,39,39,39,,,,,,,,,,,,,,,,,,,,,,,,,,,,,,,,,,,,,,,,,,None,,94.50609598998854,None,94.50609598998854,None,2021-09-24-14:15:54.236532,94.52700499999628,94.83918099998846,94.52700499999628,None,None,94.52700499999628,None,95.32271328999487,None,,,,22002,0002,2021_Sep_24_1414,localizer,2021.1.3,60.0225324590636,
block,scrambled,scrambled080.bmp,,,,,0,40,40,40,,,,,,,,,,,,,,,,,,,,,,,,,,,,,,,,,,,,,,,,,,None,,95.32271328999487,None,95.32271328999487,None,2021-09-24-14:15:55.053049,95.32857329999388,95.63941540000087,95.32857329999388,None,None,95.32857329999388,None,96.13944448999537,None,,,,22002,0002,2021_Sep_24_1414,localizer,2021.1.3,60.0225324590636,
block,scrambled,scrambled006.bmp,,,,,0,41,41,41,,,,,,,,,,,,,,,,,,,,,,,,,,,,,,,,,,,,,,,,,,None,,96.13944448999537,None,96.13944448999537,None,2021-09-24-14:15:55.870960,96.16026279999642,96.47273069999937,96.16026279999642,None,None,96.16026279999642,None,96.95580398998864,None,,,,22002,0002,2021_Sep_24_1414,localizer,2021.1.3,60.0225324590636,
block,scrambled,scrambled032.bmp,,,,,0,42,42,42,,,,,,,,,,,,,,,,,,,,,,,,,,,,,,,,,,,,,,,,,,None,,96.95580398998864,None,96.95580398998864,None,2021-09-24-14:15:56.679260,96.96794170000067,97.2727545999951,96.96794170000067,None,None,96.96794170000067,None,97.77278268999653,None,,,,22002,0002,2021_Sep_24_1414,localizer,2021.1.3,60.0225324590636,
block,scrambled,scrambled020.bmp,,,,,0,43,43,43,,,,,,,,,,,,,,,,,,,,,,,,,,,,,,,,,,,,,,,,,,None,,97.77278268999653,None,97.77278268999653,None,2021-09-24-14:15:57.502830,97.782352299997,98.08940349999466,97.782352299997,None,None,97.782352299997,None,98.58945768999111,None,,,,22002,0002,2021_Sep_24_1414,localizer,2021.1.3,60.0225324590636,
block,scrambled,scrambled048.bmp,,,,,0,44,44,44,,,,,,,,,,,,,,,,,,,,,,,,,,,,,,,,,,,,,,,,,,None,,98.58945768999111,None,98.58945768999111,None,2021-09-24-14:15:58.319980,98.61044809999294,98.92286999999487,98.61044809999294,None,None,98.61044809999294,None,99.40599568999023,None,,,,22002,0002,2021_Sep_24_1414,localizer,2021.1.3,60.0225324590636,
block_end,scrambled,scrambled054.bmp,,,,,0,45,45,45,,,,,,,,,,,,,,,,,,,,,,,,,,,,,,,,,,,,,,,,,,None,,99.40599568999023,None,99.40599568999023,None,2021-09-24-14:15:59.136513,99.42744229998789,99.73943819999113,99.42744229998789,None,None,99.42744229998789,None,100.2227776899992,None,,,,22002,0002,2021_Sep_24_1414,localizer,2021.1.3,60.0225324590636,
block_start,scenes,scenes055.bmp,,,,,0,46,46,46,,,,,,,,,,,,,,,,,,,,,,,,,,,,,,,,,,,,,,,,,,t,2.7257152999954997,100.22277079999913,None,100.22277079999913,None,2021-09-24-14:16:02.701360,102.98252859999775,103.28946970000106,102.98252859999775,None,None,102.98252859999775,None,103.78947258999979,None,,,,22002,0002,2021_Sep_24_1414,localizer,2021.1.3,60.0225324590636,
block,scenes,scenes039.bmp,,,,,0,47,47,47,,,,,,,,,,,,,,,,,,,,,,,,,,,,,,,,,,,,,,,,,,None,,103.78947258999979,None,103.78947258999979,None,2021-09-24-14:16:03.520799,103.80150969998795,104.10593879999942,103.80150969998795,None,None,103.80150969998795,None,104.6061602899892,None,,,,22002,0002,2021_Sep_24_1414,localizer,2021.1.3,60.0225324590636,
block,scenes,scenes056.bmp,,,,,0,48,48,48,,,,,,,,,,,,,,,,,,,,,,,,,,,,,,,,,,,,,,,,,,None,,104.6061602899892,None,104.6061602899892,None,2021-09-24-14:16:04.336675,104.62694669999473,104.939418199996,104.62694669999473,None,None,104.62694669999473,None,105.42274288999324,None,,,,22002,0002,2021_Sep_24_1414,localizer,2021.1.3,60.0225324590636,
block,scenes,scenes009.bmp,,,,,0,49,49,49,,,,,,,,,,,,,,,,,,,,,,,,,,,,,,,,,,,,,,,,,,None,,105.42274288999324,None,105.42274288999324,None,2021-09-24-14:16:05.154066,105.43879399998696,105.73947119999502,105.43879399998696,None,None,105.43879399998696,None,106.23942408999137,None,,,,22002,0002,2021_Sep_24_1414,localizer,2021.1.3,60.0225324590636,
block,scenes,scenes009.bmp,,,,,0,50,50,50,,,,,,,,,,,,,,,,,,,,,,,,,,,,,,,,,,,,,,,,,,None,,106.23942408999137,None,106.23942408999137,None,2021-09-24-14:16:05.969789,106.24932469999476,106.55613709999307,106.24932469999476,None,None,106.24932469999476,None,107.05605448999559,None,,,,22002,0002,2021_Sep_24_1414,localizer,2021.1.3,60.0225324590636,
block,scenes,scenes024.bmp,,,,,0,51,51,51,,,,,,,,,,,,,,,,,,,,,,,,,,,,,,,,,,,,,,,,,,None,,107.05605448999559,None,107.05605448999559,None,2021-09-24-14:16:06.785667,107.07601239999349,107.38946489999944,107.07601239999349,None,y,107.07601239999349,None,107.87281299000024,None,0.2099778999981936,,,22002,0002,2021_Sep_24_1414,localizer,2021.1.3,60.0225324590636,
block,scenes,scenes034.bmp,,,,,0,52,52,52,,,,,,,,,,,,,,,,,,,,,,,,,,,,,,,,,,,,,,,,,,None,,107.87281299000024,None,107.87281299000024,None,2021-09-24-14:16:07.602989,107.89300999999978,108.20599319999747,107.89300999999978,None,None,107.89300999999978,None,108.68948308998661,None,,,,22002,0002,2021_Sep_24_1414,localizer,2021.1.3,60.0225324590636,
block,scenes,scenes072.bmp,,,,,0,53,53,53,,,,,,,,,,,,,,,,,,,,,,,,,,,,,,,,,,,,,,,,,,None,,108.68948308998661,None,108.68948308998661,None,2021-09-24-14:16:08.419041,108.70864029999939,109.02278449998994,108.70864029999939,None,None,108.70864029999939,None,109.50603888999031,None,,,,22002,0002,2021_Sep_24_1414,localizer,2021.1.3,60.0225324590636,
block,scenes,scenes001.bmp,,,,,0,54,54,54,,,,,,,,,,,,,,,,,,,,,,,,,,,,,,,,,,,,,,,,,,None,,109.50603888999031,None,109.50603888999031,None,2021-09-24-14:16:09.236382,109.51585839998734,109.82281449998845,109.51585839998734,None,None,109.51585839998734,None,110.3228747899877,None,,,,22002,0002,2021_Sep_24_1414,localizer,2021.1.3,60.0225324590636,
block,scenes,scenes007.bmp,,,,,0,55,55,55,,,,,,,,,,,,,,,,,,,,,,,,,,,,,,,,,,,,,,,,,,None,,110.3228747899877,None,110.3228747899877,None,2021-09-24-14:16:10.053280,110.33283909999591,110.63945429999148,110.33283909999591,None,None,110.33283909999591,None,111.13950008999673,None,,,,22002,0002,2021_Sep_24_1414,localizer,2021.1.3,60.0225324590636,
block,scenes,scenes071.bmp,,,,,0,56,56,56,,,,,,,,,,,,,,,,,,,,,,,,,,,,,,,,,,,,,,,,,,None,,111.13950008999673,None,111.13950008999673,None,2021-09-24-14:16:10.869052,111.1441433,111.45616029998928,111.1441433,None,None,111.1441433,None,111.95617878999037,None,,,,22002,0002,2021_Sep_24_1414,localizer,2021.1.3,60.0225324590636,
block,scenes,scenes038.bmp,,,,,0,57,57,57,,,,,,,,,,,,,,,,,,,,,,,,,,,,,,,,,,,,,,,,,,None,,111.95617878999037,None,111.95617878999037,None,2021-09-24-14:16:11.686253,111.96577809999872,112.27268650000042,111.96577809999872,None,None,111.96577809999872,None,112.77263248998788,None,,,,22002,0002,2021_Sep_24_1414,localizer,2021.1.3,60.0225324590636,
block,scenes,scenes065.bmp,,,,,0,58,58,58,,,,,,,,,,,,,,,,,,,,,,,,,,,,,,,,,,,,,,,,,,None,,112.77263248998788,None,112.77263248998788,None,2021-09-24-14:16:12.500674,112.7776515000005,113.08951709998655,112.7776515000005,None,None,112.7776515000005,None,113.58950998999644,None,,,,22002,0002,2021_Sep_24_1414,localizer,2021.1.3,60.0225324590636,
block,scenes,scenes005.bmp,,,,,0,59,59,59,,,,,,,,,,,,,,,,,,,,,,,,,,,,,,,,,,,,,,,,,,None,,113.58950998999644,None,113.58950998999644,None,2021-09-24-14:16:13.319631,113.60965209999995,113.92279709999275,113.60965209999995,None,None,113.60965209999995,None,114.40619389000058,None,,,,22002,0002,2021_Sep_24_1414,localizer,2021.1.3,60.0225324590636,
block_end,scenes,scenes083.bmp,,,,,0,60,60,60,,,,,,,,,,,,,,,,,,,,,,,,,,,,,,,,,,,,,,,,,,None,,114.40619389000058,None,114.40619389000058,None,2021-09-24-14:16:14.136528,114.43810599998687,114.73948039999232,114.43810599998687,None,None,114.43810599998687,None,115.22279328998702,None,,,,22002,0002,2021_Sep_24_1414,localizer,2021.1.3,60.0225324590636,
block_start,scrambled,scrambled044.bmp,,,,,0,61,61,61,,,,,,,,,,,,,,,,,,,,,,,,,,,,,,,,,,,,,,,,,,t,2.528222299995832,115.22280179998779,None,115.22280179998779,None,2021-09-24-14:16:17.501189,117.7809111999959,118.08952489998774,117.7809111999959,None,None,117.7809111999959,None,118.58955028999772,None,,,,22002,0002,2021_Sep_24_1414,localizer,2021.1.3,60.0225324590636,
block,scrambled,scrambled073.bmp,,,,,0,62,62,62,,,,,,,,,,,,,,,,,,,,,,,,,,,,,,,,,,,,,,,,,,None,,118.58955028999772,None,118.58955028999772,None,2021-09-24-14:16:18.319705,118.60009439999703,118.90603459998965,118.60009439999703,None,None,118.60009439999703,None,119.40618058998662,None,,,,22002,0002,2021_Sep_24_1414,localizer,2021.1.3,60.0225324590636,
block,scrambled,scrambled035.bmp,,,,,0,63,63,63,,,,,,,,,,,,,,,,,,,,,,,,,,,,,,,,,,,,,,,,,,None,,119.40618058998662,None,119.40618058998662,None,2021-09-24-14:16:19.137508,119.4272784999921,119.7395533999952,119.4272784999921,None,None,119.4272784999921,None,120.2228864899982,None,,,,22002,0002,2021_Sep_24_1414,localizer,2021.1.3,60.0225324590636,
block,scrambled,scrambled016.bmp,,,,,0,64,64,64,,,,,,,,,,,,,,,,,,,,,,,,,,,,,,,,,,,,,,,,,,None,,120.2228864899982,None,120.2228864899982,None,2021-09-24-14:16:19.953436,120.23295569999027,120.53934609999123,120.23295569999027,None,None,120.23295569999027,None,121.03919578998757,None,,,,22002,0002,2021_Sep_24_1414,localizer,2021.1.3,60.0225324590636,
block,scrambled,scrambled015.bmp,,,,,0,65,65,65,,,,,,,,,,,,,,,,,,,,,,,,,,,,,,,,,,,,,,,,,,None,,121.03919578998757,None,121.03919578998757,None,2021-09-24-14:16:20.760790,121.04052679998858,121.33957069998723,121.04052679998858,None,None,121.04052679998858,None,121.85625138999895,None,,,,22002,0002,2021_Sep_24_1414,localizer,2021.1.3,60.0225324590636,
block,scrambled,scrambled087.bmp,,,,,0,66,66,66,,,,,,,,,,,,,,,,,,,,,,,,,,,,,,,,,,,,,,,,,,None,,121.85625138999895,None,121.85625138999895,None,2021-09-24-14:16:21.586615,121.8870726999885,122.18957349999982,121.8870726999885,None,None,121.8870726999885,None,122.67293348998938,None,,,,22002,0002,2021_Sep_24_1414,localizer,2021.1.3,60.0225324590636,
block,scrambled,scrambled080.bmp,,,,,0,67,67,67,,,,,,,,,,,,,,,,,,,,,,,,,,,,,,,,,,,,,,,,,,None,,122.67293348998938,None,122.67293348998938,None,2021-09-24-14:16:22.403296,122.68284989999665,122.9895458999963,122.68284989999665,None,None,122.68284989999665,None,123.4895749899908,None,,,,22002,0002,2021_Sep_24_1414,localizer,2021.1.3,60.0225324590636,
block,scrambled,scrambled009.bmp,,,,,0,68,68,68,,,,,,,,,,,,,,,,,,,,,,,,,,,,,,,,,,,,,,,,,,None,,123.4895749899908,None,123.4895749899908,None,2021-09-24-14:16:23.219571,123.4991258999944,123.8062060999946,123.4991258999944,None,None,123.4991258999944,None,124.30616988998663,None,,,,22002,0002,2021_Sep_24_1414,localizer,2021.1.3,60.0225324590636,
block,scrambled,scrambled058.bmp,,,,,0,69,69,69,,,,,,,,,,,,,,,,,,,,,,,,,,,,,,,,,,,,,,,,,,None,,124.30616988998663,None,124.30616988998663,None,2021-09-24-14:16:24.036741,124.31668779999018,124.62273219999042,124.31668779999018,None,None,124.31668779999018,None,125.12277068999829,None,,,,22002,0002,2021_Sep_24_1414,localizer,2021.1.3,60.0225324590636,
block,scrambled,scrambled038.bmp,,,,,0,70,70,70,,,,,,,,,,,,,,,,,,,,,,,,,,,,,,,,,,,,,,,,,,None,,125.12277068999829,None,125.12277068999829,None,2021-09-24-14:16:24.845257,125.12399039999582,125.42283119999047,125.12399039999582,None,None,125.12399039999582,None,125.93959878999449,None,,,,22002,0002,2021_Sep_24_1414,localizer,2021.1.3,60.0225324590636,
block,scrambled,scrambled056.bmp,,,,,0,71,71,71,,,,,,,,,,,,,,,,,,,,,,,,,,,,,,,,,,,,,,,,,,None,,125.93959878999449,None,125.93959878999449,None,2021-09-24-14:16:25.670157,125.94949249998899,126.25625459999719,125.94949249998899,None,None,125.94949249998899,None,126.75625678999059,None,,,,22002,0002,2021_Sep_24_1414,localizer,2021.1.3,60.0225324590636,
block,scrambled,scrambled040.bmp,,,,,0,72,72,72,,,,,,,,,,,,,,,,,,,,,,,,,,,,,,,,,,,,,,,,,,None,,126.75625678999059,None,126.75625678999059,None,2021-09-24-14:16:26.486628,126.76616769999964,127.0728439999948,126.76616769999964,None,None,126.76616769999964,None,127.57294238999312,None,,,,22002,0002,2021_Sep_24_1414,localizer,2021.1.3,60.0225324590636,
block,scrambled,scrambled077.bmp,,,,,0,73,73,73,,,,,,,,,,,,,,,,,,,,,,,,,,,,,,,,,,,,,,,,,,None,,127.57294238999312,None,127.57294238999312,None,2021-09-24-14:16:27.303279,127.58277049999742,127.88958899999852,127.58277049999742,None,None,127.58277049999742,None,128.38933318999187,None,,,,22002,0002,2021_Sep_24_1414,localizer,2021.1.3,60.0225324590636,
block,scrambled,scrambled021.bmp,,,,,0,74,74,74,,,,,,,,,,,,,,,,,,,,,,,,,,,,,,,,,,,,,,,,,,None,,128.38933318999187,None,128.38933318999187,None,2021-09-24-14:16:28.111842,128.3908051999897,128.68943030000082,128.3908051999897,None,None,128.3908051999897,None,129.2061699899961,None,,,,22002,0002,2021_Sep_24_1414,localizer,2021.1.3,60.0225324590636,
block_end,scrambled,scrambled030.bmp,,,,,0,75,75,75,,,,,,,,,,,,,,,,,,,,,,,,,,,,,,,,,,,,,,,,,,None,,129.2061699899961,None,129.2061699899961,None,2021-09-24-14:16:28.928960,129.20736819999001,129.5062995999906,129.20736819999001,None,None,129.20736819999001,None,130.02275698999,None,,,,22002,0002,2021_Sep_24_1414,localizer,2021.1.3,60.0225324590636,
block_start,scenes,scenes001.bmp,,,,,0,76,76,76,,,,,,,,,,,,,,,,,,,,,,,,,,,,,,,,,,,,,,,,,,t,2.8298007999983383,130.02288819999376,None,130.02288819999376,None,2021-09-24-14:16:32.596207,132.87384759999986,133.172977299997,132.87384759999986,None,None,132.87384759999986,None,133.68953498998889,None,,,,22002,0002,2021_Sep_24_1414,localizer,2021.1.3,60.0225324590636,
block,scenes,scenes068.bmp,,,,,0,77,77,77,,,,,,,,,,,,,,,,,,,,,,,,,,,,,,,,,,,,,,,,,,None,,133.68953498998889,None,133.68953498998889,None,2021-09-24-14:16:33.417964,133.69841389999783,134.00625529998797,133.69841389999783,None,None,133.69841389999783,None,134.50619848999776,None,,,,22002,0002,2021_Sep_24_1414,localizer,2021.1.3,60.0225324590636,
block,scenes,scenes024.bmp,,,,,0,78,78,78,,,,,,,,,,,,,,,,,,,,,,,,,,,,,,,,,,,,,,,,,,None,,134.50619848999776,None,134.50619848999776,None,2021-09-24-14:16:34.236125,134.51554689998738,134.82278479999513,134.51554689998738,None,None,134.51554689998738,None,135.32297389000013,None,,,,22002,0002,2021_Sep_24_1414,localizer,2021.1.3,60.0225324590636,
block,scenes,scenes009.bmp,,,,,0,79,79,79,,,,,,,,,,,,,,,,,,,,,,,,,,,,,,,,,,,,,,,,,,None,,135.32297389000013,None,135.32297389000013,None,2021-09-24-14:16:35.054517,135.33401209999283,135.63962079999328,135.33401209999283,None,None,135.33401209999283,None,136.13962038999597,None,,,,22002,0002,2021_Sep_24_1414,localizer,2021.1.3,60.0225324590636,
block,scenes,scenes090.bmp,,,,,0,80,80,80,,,,,,,,,,,,,,,,,,,,,,,,,,,,,,,,,,,,,,,,,,None,,136.13962038999597,None,136.13962038999597,None,2021-09-24-14:16:35.869982,136.14955589998863,136.45607919999748,136.14955589998863,None,None,136.14955589998863,None,136.95633318998733,None,,,,22002,0002,2021_Sep_24_1414,localizer,2021.1.3,60.0225324590636,
block,scenes,scenes049.bmp,,,,,0,81,81,81,,,,,,,,,,,,,,,,,,,,,,,,,,,,,,,,,,,,,,,,,,None,,136.95633318998733,None,136.95633318998733,None,2021-09-24-14:16:36.687675,136.97971759999928,137.2896458999894,136.97971759999928,None,None,136.97971759999928,None,137.77299848999536,None,,,,22002,0002,2021_Sep_24_1414,localizer,2021.1.3,60.0225324590636,
block,scenes,scenes085.bmp,,,,,0,82,82,82,,,,,,,,,,,,,,,,,,,,,,,,,,,,,,,,,,,,,,,,,,None,,137.77299848999536,None,137.77299848999536,None,2021-09-24-14:16:37.503125,137.78265689998807,138.0896473999892,137.78265689998807,None,None,137.78265689998807,None,138.58950908998958,None,,,,22002,0002,2021_Sep_24_1414,localizer,2021.1.3,60.0225324590636,
block,scenes,scenes067.bmp,,,,,0,83,83,83,,,,,,,,,,,,,,,,,,,,,,,,,,,,,,,,,,,,,,,,,,None,,138.58950908998958,None,138.58950908998958,None,2021-09-24-14:16:38.319888,138.61028090000036,138.9229115999915,138.61028090000036,None,None,138.61028090000036,None,139.4062840899889,None,,,,22002,0002,2021_Sep_24_1414,localizer,2021.1.3,60.0225324590636,
block,scenes,scenes016.bmp,,,,,0,84,84,84,,,,,,,,,,,,,,,,,,,,,,,,,,,,,,,,,,,,,,,,,,None,,139.4062840899889,None,139.4062840899889,None,2021-09-24-14:16:39.136518,139.42832059999637,139.73961710000003,139.42832059999637,None,None,139.42832059999637,None,140.22299569000023,None,,,,22002,0002,2021_Sep_24_1414,localizer,2021.1.3,60.0225324590636,
block,scenes,scenes091.bmp,,,,,0,85,85,85,,,,,,,,,,,,,,,,,,,,,,,,,,,,,,,,,,,,,,,,,,None,,140.22299569000023,None,140.22299569000023,None,2021-09-24-14:16:39.953350,140.24423179999576,140.55615989999205,140.24423179999576,None,None,140.24423179999576,None,141.03971078999456,None,,,,22002,0002,2021_Sep_24_1414,localizer,2021.1.3,60.0225324590636,
block,scenes,scenes020.bmp,,,,,0,86,86,86,,,,,,,,,,,,,,,,,,,,,,,,,,,,,,,,,,,,,,,,,,None,,141.03971078999456,None,141.03971078999456,None,2021-09-24-14:16:40.770283,141.0715601999982,141.37299869999697,141.0715601999982,None,None,141.0715601999982,None,141.85633808998972,None,,,,22002,0002,2021_Sep_24_1414,localizer,2021.1.3,60.0225324590636,
block,scenes,scenes053.bmp,,,,,0,87,87,87,,,,,,,,,,,,,,,,,,,,,,,,,,,,,,,,,,,,,,,,,,None,,141.85633808998972,None,141.85633808998972,None,2021-09-24-14:16:41.586702,141.87725829999545,142.18962339998689,141.87725829999545,None,None,141.87725829999545,None,142.6730191899871,None,,,,22002,0002,2021_Sep_24_1414,localizer,2021.1.3,60.0225324590636,
block,scenes,scenes023.bmp,,,,,0,88,88,88,,,,,,,,,,,,,,,,,,,,,,,,,,,,,,,,,,,,,,,,,,None,,142.6730191899871,None,142.6730191899871,None,2021-09-24-14:16:42.403558,142.70681449999392,143.00634889998764,142.70681449999392,None,None,142.70681449999392,None,143.4896769899962,None,,,,22002,0002,2021_Sep_24_1414,localizer,2021.1.3,60.0225324590636,
block,scenes,scenes045.bmp,,,,,0,89,89,89,,,,,,,,,,,,,,,,,,,,,,,,,,,,,,,,,,,,,,,,,,None,,143.4896769899962,None,143.4896769899962,None,2021-09-24-14:16:43.220229,143.51106720000098,143.82288959999278,143.51106720000098,None,None,143.51106720000098,None,144.3063032899983,None,,,,22002,0002,2021_Sep_24_1414,localizer,2021.1.3,60.0225324590636,
block_end,scenes,scenes062.bmp,,,,,0,90,90,90,,,,,,,,,,,,,,,,,,,,,,,,,,,,,,,,,,,,,,,,,,None,,144.3063032899983,None,144.3063032899983,None,2021-09-24-14:16:44.037667,144.31730239999888,144.62260439999227,144.31730239999888,None,None,144.31730239999888,None,145.1229276900005,None,,,,22002,0002,2021_Sep_24_1414,localizer,2021.1.3,60.0225324590636,
block_start,faces,faces001.bmp,,,,,0,91,91,91,,,,,,,,,,,,,,,,,,,,,,,,,,,,,,,,,,,,,,,,,,t,3.3050182000006316,145.1229081999918,None,145.1229081999918,None,2021-09-24-14:16:48.184753,148.465523699997,148.77281349999248,148.465523699997,None,None,148.465523699997,None,149.27280918999458,None,,,,22002,0002,2021_Sep_24_1414,localizer,2021.1.3,60.0225324590636,
block,faces,faces047.bmp,,,,,0,92,92,92,,,,,,,,,,,,,,,,,,,,,,,,,,,,,,,,,,,,,,,,,,None,,149.27280918999458,None,149.27280918999458,None,2021-09-24-14:16:48.996480,149.2856133999885,149.58972459999495,149.2856133999885,None,None,149.2856133999885,None,150.0896948899928,None,,,,22002,0002,2021_Sep_24_1414,localizer,2021.1.3,60.0225324590636,
block,faces,faces074.bmp,,,,,0,93,93,93,,,,,,,,,,,,,,,,,,,,,,,,,,,,,,,,,,,,,,,,,,None,,150.0896948899928,None,150.0896948899928,None,2021-09-24-14:16:49.819944,150.11050709999108,150.42306919999828,150.11050709999108,None,None,150.11050709999108,None,150.90639958999526,None,,,,22002,0002,2021_Sep_24_1414,localizer,2021.1.3,60.0225324590636,
block,faces,faces028.bmp,,,,,0,94,94,94,,,,,,,,,,,,,,,,,,,,,,,,,,,,,,,,,,,,,,,,,,None,,150.90639958999526,None,150.90639958999526,None,2021-09-24-14:16:50.636940,150.9420373999892,151.25618899999245,150.9420373999892,None,None,150.9420373999892,None,151.72295348999904,None,,,,22002,0002,2021_Sep_24_1414,localizer,2021.1.3,60.0225324590636,
block,faces,faces075.bmp,,,,,0,95,95,95,,,,,,,,,,,,,,,,,,,,,,,,,,,,,,,,,,,,,,,,,,None,,151.72295348999904,None,151.72295348999904,None,2021-09-24-14:16:51.453522,151.74378209999122,152.05640659999335,151.74378209999122,None,None,151.74378209999122,None,152.53973478998813,None,,,,22002,0002,2021_Sep_24_1414,localizer,2021.1.3,60.0225324590636,
block,faces,faces054.bmp,,,,,0,96,96,96,,,,,,,,,,,,,,,,,,,,,,,,,,,,,,,,,,,,,,,,,,None,,152.53973478998813,None,152.53973478998813,None,2021-09-24-14:16:52.271100,152.55069899999944,152.85637679998763,152.55069899999944,None,None,152.55069899999944,None,153.3561219899886,None,,,,22002,0002,2021_Sep_24_1414,localizer,2021.1.3,60.0225324590636,
block,faces,faces036.bmp,,,,,0,97,97,97,,,,,,,,,,,,,,,,,,,,,,,,,,,,,,,,,,,,,,,,,,None,,153.3561219899886,None,153.3561219899886,None,2021-09-24-14:16:53.078620,153.36478720000014,153.67304519999016,153.36478720000014,None,None,153.36478720000014,None,154.17307028999784,None,,,,22002,0002,2021_Sep_24_1414,localizer,2021.1.3,60.0225324590636,
block,faces,faces081.bmp,,,,,0,98,98,98,,,,,,,,,,,,,,,,,,,,,,,,,,,,,,,,,,,,,,,,,,None,,154.17307028999784,None,154.17307028999784,None,2021-09-24-14:16:53.903454,154.18300559998897,154.48946669998986,154.18300559998897,None,None,154.18300559998897,None,154.98971938999892,None,,,,22002,0002,2021_Sep_24_1414,localizer,2021.1.3,60.0225324590636,
block,faces,faces079.bmp,,,,,0,99,99,99,,,,,,,,,,,,,,,,,,,,,,,,,,,,,,,,,,,,,,,,,,None,,154.98971938999892,None,154.98971938999892,None,2021-09-24-14:16:54.720072,155.00087699999858,155.3064044999919,155.00087699999858,None,None,155.00087699999858,None,155.8064237899991,None,,,,22002,0002,2021_Sep_24_1414,localizer,2021.1.3,60.0225324590636,
block,faces,faces021.bmp,,,,,0,100,100,100,,,,,,,,,,,,,,,,,,,,,,,,,,,,,,,,,,,,,,,,,,None,,155.8064237899991,None,155.8064237899991,None,2021-09-24-14:16:55.537000,155.81732519999787,156.12307489999512,155.81732519999787,None,None,155.81732519999787,None,156.62309088999172,None,,,,22002,0002,2021_Sep_24_1414,localizer,2021.1.3,60.0225324590636,
block,faces,faces006.bmp,,,,,0,101,101,101,,,,,,,,,,,,,,,,,,,,,,,,,,,,,,,,,,,,,,,,,,None,,156.62309088999172,None,156.62309088999172,None,2021-09-24-14:16:56.353648,156.64279619998706,156.9562484999915,156.64279619998706,None,None,156.64279619998706,None,157.43947718999988,None,,,,22002,0002,2021_Sep_24_1414,localizer,2021.1.3,60.0225324590636,
block,faces,faces053.bmp,,,,,0,102,102,102,,,,,,,,,,,,,,,,,,,,,,,,,,,,,,,,,,,,,,,,,,None,,157.43947718999988,None,157.43947718999988,None,2021-09-24-14:16:57.161982,157.44187689998944,157.75642799999332,157.44187689998944,None,None,157.44187689998944,None,158.2564217899955,None,,,,22002,0002,2021_Sep_24_1414,localizer,2021.1.3,60.0225324590636,
block,faces,faces070.bmp,,,,,0,103,103,103,,,,,,,,,,,,,,,,,,,,,,,,,,,,,,,,,,,,,,,,,,None,,158.2564217899955,None,158.2564217899955,None,2021-09-24-14:16:57.987790,158.26844669999264,158.57300889999897,158.26844669999264,None,None,158.26844669999264,None,159.07307998999312,None,,,,22002,0002,2021_Sep_24_1414,localizer,2021.1.3,60.0225324590636,
block,faces,faces056.bmp,,,,,0,104,104,104,,,,,,,,,,,,,,,,,,,,,,,,,,,,,,,,,,,,,,,,,,None,,159.07307998999312,None,159.07307998999312,None,2021-09-24-14:16:58.803653,159.09414489999472,159.40644899998733,159.09414489999472,None,None,159.09414489999472,None,159.88976458998803,None,,,,22002,0002,2021_Sep_24_1414,localizer,2021.1.3,60.0225324590636,
block_end,faces,faces051.bmp,,,,,0,105,105,105,,,,,,,,,,,,,,,,,,,,,,,,,,,,,,,,,,,,,,,,,,None,,159.88976458998803,None,159.88976458998803,None,2021-09-24-14:16:59.621143,159.90149639999436,160.2064379999938,159.90149639999436,None,None,159.90149639999436,None,160.70626419000035,None,,,,22002,0002,2021_Sep_24_1414,localizer,2021.1.3,60.0225324590636,
null_block,null_block,null_block.bmp,,,,,0,106,106,106,,,,,,,,,,,,,,,,,,,,,,,,,,,,,,,,,,,,,,,,,,t,3.1249646000069333,160.70640779999667,None,160.70640779999667,None,2021-09-24-14:17:03.584832,163.87312257999145,None,163.87312257999145,None,None,163.87312257999145,None,163.8697960999998,None,,,,22002,0002,2021_Sep_24_1414,localizer,2021.1.3,60.0225324590636,
block_start,objects,objects052.bmp,,,,,0,107,107,107,,,,,,,,,,,,,,,,,,,,,,,,,,,,,,,,,,,,,,,,,,t,2.330470899993088,175.87289619998774,None,175.87289619998774,None,2021-09-24-14:17:17.954692,178.23943119999603,178.53988689999096,178.23943119999603,None,None,178.23943119999603,None,179.03972598999388,None,,,,22002,0002,2021_Sep_24_1414,localizer,2021.1.3,60.0225324590636,
block,objects,objects004.bmp,,,,,0,108,108,108,,,,,,,,,,,,,,,,,,,,,,,,,,,,,,,,,,,,,,,,,,None,,179.03972598999388,None,179.03972598999388,None,2021-09-24-14:17:18.763228,179.04982699999528,179.35654929999146,179.04982699999528,None,None,179.04982699999528,None,179.85655138999863,None,,,,22002,0002,2021_Sep_24_1414,localizer,2021.1.3,60.0225324590636,
block,objects,objects036.bmp,,,,,0,109,109,109,,,,,,,,,,,,,,,,,,,,,,,,,,,,,,,,,,,,,,,,,,None,,179.85655138999863,None,179.85655138999863,None,2021-09-24-14:17:19.587914,179.86864459999197,180.173243799989,179.86864459999197,None,None,179.86864459999197,None,180.67322068999346,None,,,,22002,0002,2021_Sep_24_1414,localizer,2021.1.3,60.0225324590636,
block,objects,objects075.bmp,,,,,0,110,110,110,,,,,,,,,,,,,,,,,,,,,,,,,,,,,,,,,,,,,,,,,,None,,180.67322068999346,None,180.67322068999346,None,2021-09-24-14:17:20.403586,180.6838996999868,180.98977479999303,180.6838996999868,None,None,180.6838996999868,None,181.48974908999224,None,,,,22002,0002,2021_Sep_24_1414,localizer,2021.1.3,60.0225324590636,
block,objects,objects049.bmp,,,,,0,111,111,111,,,,,,,,,,,,,,,,,,,,,,,,,,,,,,,,,,,,,,,,,,None,,181.48974908999224,None,181.48974908999224,None,2021-09-24-14:17:21.220320,181.5008317999891,181.8065276999987,181.5008317999891,None,None,181.5008317999891,None,182.30657048999564,None,,,,22002,0002,2021_Sep_24_1414,localizer,2021.1.3,60.0225324590636,
block,objects,objects012.bmp,,,,,0,112,112,112,,,,,,,,,,,,,,,,,,,,,,,,,,,,,,,,,,,,,,,,,,None,,182.30657048999564,None,182.30657048999564,None,2021-09-24-14:17:22.036568,182.32788469998923,182.63980789999187,182.32788469998923,None,None,182.32788469998923,None,183.1230581899901,None,,,,22002,0002,2021_Sep_24_1414,localizer,2021.1.3,60.0225324590636,
block,objects,objects021.bmp,,,,,0,113,113,113,,,,,,,,,,,,,,,,,,,,,,,,,,,,,,,,,,,,,,,,,,None,,183.1230581899901,None,183.1230581899901,None,2021-09-24-14:17:22.845815,183.12414409998746,183.42320659999677,183.12414409998746,None,None,183.12414409998746,None,183.9232416899933,None,,,,22002,0002,2021_Sep_24_1414,localizer,2021.1.3,60.0225324590636,
block,objects,objects021.bmp,,,,,0,114,114,114,,,,,,,,,,,,,,,,,,,,,,,,,,,,,,,,,,,,,,,,,,None,,183.9232416899933,None,183.9232416899933,None,2021-09-24-14:17:23.655604,183.93519659999583,184.23979079999845,183.93519659999583,183.93519659999583,y,183.93519659999583,183.93519659999583,184.7398543899937,None,0.5473154000064824,,,22002,0002,2021_Sep_24_1414,localizer,2021.1.3,60.0225324590636,
block,objects,objects041.bmp,,,,,0,115,115,115,,,,,,,,,,,,,,,,,,,,,,,,,,,,,,,,,,,,,,,,,,None,,184.7398543899937,None,184.7398543899937,None,2021-09-24-14:17:24.470429,184.7500052999967,185.05658259999473,184.7500052999967,None,None,184.7500052999967,None,185.5565799899952,None,,,,22002,0002,2021_Sep_24_1414,localizer,2021.1.3,60.0225324590636,
block,objects,objects007.bmp,,,,,0,116,116,116,,,,,,,,,,,,,,,,,,,,,,,,,,,,,,,,,,,,,,,,,,None,,185.5565799899952,None,185.5565799899952,None,2021-09-24-14:17:25.286478,185.57713799999328,185.8899020999961,185.57713799999328,None,None,185.57713799999328,None,186.37323668999596,None,,,,22002,0002,2021_Sep_24_1414,localizer,2021.1.3,60.0225324590636,
block,objects,objects070.bmp,,,,,0,117,117,117,,,,,,,,,,,,,,,,,,,,,,,,,,,,,,,,,,,,,,,,,,None,,186.37323668999596,None,186.37323668999596,None,2021-09-24-14:17:26.103826,186.3832146999921,186.6896468999912,186.3832146999921,None,None,186.3832146999921,None,187.18984068998833,None,,,,22002,0002,2021_Sep_24_1414,localizer,2021.1.3,60.0225324590636,
block,objects,objects018.bmp,,,,,0,118,118,118,,,,,,,,,,,,,,,,,,,,,,,,,,,,,,,,,,,,,,,,,,None,,187.18984068998833,None,187.18984068998833,None,2021-09-24-14:17:26.920422,187.19849969999632,187.5065895000007,187.19849969999632,None,None,187.19849969999632,None,188.00659418999857,None,,,,22002,0002,2021_Sep_24_1414,localizer,2021.1.3,60.0225324590636,
block,objects,objects026.bmp,,,,,0,119,119,119,,,,,,,,,,,,,,,,,,,,,,,,,,,,,,,,,,,,,,,,,,None,,188.00659418999857,None,188.00659418999857,None,2021-09-24-14:17:27.739163,188.018319099996,188.32315620000008,188.018319099996,None,None,188.018319099996,None,188.8230741899926,None,,,,22002,0002,2021_Sep_24_1414,localizer,2021.1.3,60.0225324590636,
block,objects,objects079.bmp,,,,,0,120,120,120,,,,,,,,,,,,,,,,,,,,,,,,,,,,,,,,,,,,,,,,,,None,,188.8230741899926,None,188.8230741899926,None,2021-09-24-14:17:28.552522,188.83406399999512,189.13994079999975,188.83406399999512,None,None,188.83406399999512,None,189.63992428999626,None,,,,22002,0002,2021_Sep_24_1414,localizer,2021.1.3,60.0225324590636,
block_end,objects,objects046.bmp,,,,,0,121,121,121,,,,,,,,,,,,,,,,,,,,,,,,,,,,,,,,,,,,,,,,,,None,,189.63992428999626,None,189.63992428999626,None,2021-09-24-14:17:29.371474,189.6495484999905,189.95660029999272,189.6495484999905,None,None,189.6495484999905,None,190.45661188999946,None,,,,22002,0002,2021_Sep_24_1414,localizer,2021.1.3,60.0225324590636,
null_block,null_block,null_block.bmp,,,,,0,122,122,122,,,,,,,,,,,,,,,,,,,,,,,,,,,,,,,,,,,,,,,,,,t,3.5380109999969136,190.45648239999718,None,190.45648239999718,None,2021-09-24-14:17:33.745644,194.0231568899937,None,194.0231568899937,None,None,194.0231568899937,None,194.02345290000085,None,,,,22002,0002,2021_Sep_24_1414,localizer,2021.1.3,60.0225324590636,
block_start,scenes,scenes073.bmp,,,,,0,123,123,123,,,,,,,,,,,,,,,,,,,,,,,,,,,,,,,,,,,,,,,,,,t,1.3063026999880094,206.02338529999543,None,206.02338529999543,None,2021-09-24-14:17:47.080084,207.35793079998984,207.65668819998973,207.35793079998984,None,None,207.35793079998984,None,208.17338789000058,None,,,,22002,0002,2021_Sep_24_1414,localizer,2021.1.3,60.0225324590636,
block,scenes,scenes025.bmp,,,,,0,124,124,124,,,,,,,,,,,,,,,,,,,,,,,,,,,,,,,,,,,,,,,,,,None,,208.17338789000058,None,208.17338789000058,None,2021-09-24-14:17:47.903982,208.1786119999888,208.49000569999043,208.1786119999888,None,None,208.1786119999888,None,208.98999258999828,None,,,,22002,0002,2021_Sep_24_1414,localizer,2021.1.3,60.0225324590636,
block,scenes,scenes042.bmp,,,,,0,125,125,125,,,,,,,,,,,,,,,,,,,,,,,,,,,,,,,,,,,,,,,,,,None,,208.98999258999828,None,208.98999258999828,None,2021-09-24-14:17:48.721565,209.0130935999914,209.32325509999646,209.0130935999914,None,None,209.0130935999914,None,209.80657818999606,None,,,,22002,0002,2021_Sep_24_1414,localizer,2021.1.3,60.0225324590636,
block,scenes,scenes061.bmp,,,,,0,126,126,126,,,,,,,,,,,,,,,,,,,,,,,,,,,,,,,,,,,,,,,,,,None,,209.80657818999606,None,209.80657818999606,None,2021-09-24-14:17:49.529107,209.81734850000066,210.12327079998795,209.81734850000066,None,None,209.81734850000066,None,210.62340078999404,None,,,,22002,0002,2021_Sep_24_1414,localizer,2021.1.3,60.0225324590636,
block,scenes,scenes068.bmp,,,,,0,127,127,127,,,,,,,,,,,,,,,,,,,,,,,,,,,,,,,,,,,,,,,,,,None,,210.62340078999404,None,210.62340078999404,None,2021-09-24-14:17:50.354852,210.63510639999004,210.94005419999303,210.63510639999004,None,None,210.63510639999004,None,211.43994718999892,None,,,,22002,0002,2021_Sep_24_1414,localizer,2021.1.3,60.0225324590636,
block,scenes,scenes013.bmp,,,,,0,128,128,128,,,,,,,,,,,,,,,,,,,,,,,,,,,,,,,,,,,,,,,,,,None,,211.43994718999892,None,211.43994718999892,None,2021-09-24-14:17:51.167395,211.4513755999942,211.75671869999496,211.4513755999942,None,None,211.4513755999942,None,212.25675508998683,None,,,,22002,0002,2021_Sep_24_1414,localizer,2021.1.3,60.0225324590636,
block,scenes,scenes075.bmp,,,,,0,129,129,129,,,,,,,,,,,,,,,,,,,,,,,,,,,,,,,,,,,,,,,,,,None,,212.25675508998683,None,212.25675508998683,None,2021-09-24-14:17:51.988180,212.27829659999406,212.59001029998763,212.27829659999406,None,None,212.27829659999406,None,213.07340788998698,None,,,,22002,0002,2021_Sep_24_1414,localizer,2021.1.3,60.0225324590636,
block,scenes,scenes055.bmp,,,,,0,130,130,130,,,,,,,,,,,,,,,,,,,,,,,,,,,,,,,,,,,,,,,,,,None,,213.07340788998698,None,213.07340788998698,None,2021-09-24-14:17:52.804017,213.08436699998856,213.38994979999552,213.08436699998856,None,None,213.08436699998856,None,213.88990798998856,None,,,,22002,0002,2021_Sep_24_1414,localizer,2021.1.3,60.0225324590636,
block,scenes,scenes010.bmp,,,,,0,131,131,131,,,,,,,,,,,,,,,,,,,,,,,,,,,,,,,,,,,,,,,,,,None,,213.88990798998856,None,213.88990798998856,None,2021-09-24-14:17:53.616394,213.9092881999968,214.22335349999776,213.9092881999968,None,None,213.9092881999968,None,214.70667988999338,None,,,,22002,0002,2021_Sep_24_1414,localizer,2021.1.3,60.0225324590636,
block,scenes,scenes009.bmp,,,,,0,132,132,132,,,,,,,,,,,,,,,,,,,,,,,,,,,,,,,,,,,,,,,,,,None,,214.70667988999338,None,214.70667988999338,None,2021-09-24-14:17:54.438060,214.7187966999918,215.0230404999893,214.7187966999918,None,None,214.7187966999918,None,215.52339289000082,None,,,,22002,0002,2021_Sep_24_1414,localizer,2021.1.3,60.0225324590636,
block,scenes,scenes077.bmp,,,,,0,133,133,133,,,,,,,,,,,,,,,,,,,,,,,,,,,,,,,,,,,,,,,,,,None,,215.52339289000082,None,215.52339289000082,None,2021-09-24-14:17:55.255772,215.56035599998722,215.87333219998982,215.56035599998722,None,None,215.56035599998722,None,216.33999228998726,None,,,,22002,0002,2021_Sep_24_1414,localizer,2021.1.3,60.0225324590636,
block,scenes,scenes065.bmp,,,,,0,134,134,134,,,,,,,,,,,,,,,,,,,,,,,,,,,,,,,,,,,,,,,,,,None,,216.33999228998726,None,216.33999228998726,None,2021-09-24-14:17:56.071372,216.3505853999959,216.65674729998864,216.3505853999959,None,None,216.3505853999959,None,217.15675618998938,None,,,,22002,0002,2021_Sep_24_1414,localizer,2021.1.3,60.0225324590636,
block,scenes,scenes047.bmp,,,,,0,135,135,135,,,,,,,,,,,,,,,,,,,,,,,,,,,,,,,,,,,,,,,,,,None,,217.15675618998938,None,217.15675618998938,None,2021-09-24-14:17:56.887337,217.17696839998825,217.48986180000065,217.17696839998825,None,None,217.17696839998825,None,217.97322678999916,None,,,,22002,0002,2021_Sep_24_1414,localizer,2021.1.3,60.0225324590636,
block,scenes,scenes049.bmp,,,,,0,136,136,136,,,,,,,,,,,,,,,,,,,,,,,,,,,,,,,,,,,,,,,,,,None,,217.97322678999916,None,217.97322678999916,None,2021-09-24-14:17:57.702220,217.98013250000076,218.29009849998693,217.98013250000076,None,None,217.98013250000076,None,218.78999508999112,None,,,,22002,0002,2021_Sep_24_1414,localizer,2021.1.3,60.0225324590636,
block_end,scenes,scenes060.bmp,,,,,0,137,137,137,,,,,,,,,,,,,,,,,,,,,,,,,,,,,,,,,,,,,,,,,,None,,218.78999508999112,None,218.78999508999112,None,2021-09-24-14:17:58.520602,218.81263580000086,219.12340149999363,218.81263580000086,None,None,218.81263580000086,None,219.6067598900001,None,,,,22002,0002,2021_Sep_24_1414,localizer,2021.1.3,60.0225324590636,
block_start,scrambled,scrambled016.bmp,,,,,0,138,138,138,,,,,,,,,,,,,,,,,,,,,,,,,,,,,,,,,,,,,,,,,,t,2.5849137000041083,219.60673109999334,None,219.60673109999334,None,2021-09-24-14:18:01.935336,222.21634729999641,222.52339859999483,222.21634729999641,None,None,222.21634729999641,None,223.02340838998788,None,,,,22002,0002,2021_Sep_24_1414,localizer,2021.1.3,60.0225324590636,
block,scrambled,scrambled043.bmp,,,,,0,139,139,139,,,,,,,,,,,,,,,,,,,,,,,,,,,,,,,,,,,,,,,,,,None,,223.02340838998788,None,223.02340838998788,None,2021-09-24-14:18:02.754995,223.03316500000074,223.34010499999567,223.03316500000074,None,None,223.03316500000074,None,223.83979888999892,None,,,,22002,0002,2021_Sep_24_1414,localizer,2021.1.3,60.0225324590636,
block,scrambled,scrambled072.bmp,,,,,0,140,140,140,,,,,,,,,,,,,,,,,,,,,,,,,,,,,,,,,,,,,,,,,,None,,223.83979888999892,None,223.83979888999892,None,2021-09-24-14:18:03.562642,223.8411386999942,224.13994639999873,223.8411386999942,None,None,223.8411386999942,None,224.6566153899941,None,,,,22002,0002,2021_Sep_24_1414,localizer,2021.1.3,60.0225324590636,
block,scrambled,scrambled007.bmp,,,,,0,141,141,141,,,,,,,,,,,,,,,,,,,,,,,,,,,,,,,,,,,,,,,,,,None,,224.6566153899941,None,224.6566153899941,None,2021-09-24-14:18:04.379391,224.66706839999824,224.97343269998964,224.66706839999824,None,None,224.66706839999824,None,225.47345908999267,None,,,,22002,0002,2021_Sep_24_1414,localizer,2021.1.3,60.0225324590636,
block,scrambled,scrambled077.bmp,,,,,0,142,142,142,,,,,,,,,,,,,,,,,,,,,,,,,,,,,,,,,,,,,,,,,,None,,225.47345908999267,None,225.47345908999267,None,2021-09-24-14:18:05.204843,225.48403849999886,225.79009919999226,225.48403849999886,None,None,225.48403849999886,None,226.29013378999952,None,,,,22002,0002,2021_Sep_24_1414,localizer,2021.1.3,60.0225324590636,
block,scrambled,scrambled047.bmp,,,,,0,143,143,143,,,,,,,,,,,,,,,,,,,,,,,,,,,,,,,,,,,,,,,,,,None,,226.29013378999952,None,226.29013378999952,None,2021-09-24-14:18:06.021711,226.30080499999167,226.60662059999595,226.30080499999167,None,None,226.30080499999167,None,227.10675558999645,None,,,,22002,0002,2021_Sep_24_1414,localizer,2021.1.3,60.0225324590636,
block,scrambled,scrambled078.bmp,,,,,0,144,144,144,,,,,,,,,,,,,,,,,,,,,,,,,,,,,,,,,,,,,,,,,,None,,227.10675558999645,None,227.10675558999645,None,2021-09-24-14:18:06.837375,227.12682739998854,227.44016389999888,227.12682739998854,None,None,227.12682739998854,None,227.92339749000092,None,,,,22002,0002,2021_Sep_24_1414,localizer,2021.1.3,60.0225324590636,
block,scrambled,scrambled041.bmp,,,,,0,145,145,145,,,,,,,,,,,,,,,,,,,,,,,,,,,,,,,,,,,,,,,,,,None,,227.92339749000092,None,227.92339749000092,None,2021-09-24-14:18:07.654995,227.93408179999096,228.23999209998874,227.93408179999096,None,None,227.93408179999096,None,228.7400791899883,None,,,,22002,0002,2021_Sep_24_1414,localizer,2021.1.3,60.0225324590636,
block,scrambled,scrambled042.bmp,,,,,0,146,146,146,,,,,,,,,,,,,,,,,,,,,,,,,,,,,,,,,,,,,,,,,,None,,228.7400791899883,None,228.7400791899883,None,2021-09-24-14:18:08.462633,228.74138179999136,229.04011329999776,228.74138179999136,None,None,228.74138179999136,None,229.55680208999837,None,,,,22002,0002,2021_Sep_24_1414,localizer,2021.1.3,60.0225324590636,
block,scrambled,scrambled045.bmp,,,,,0,147,147,147,,,,,,,,,,,,,,,,,,,,,,,,,,,,,,,,,,,,,,,,,,None,,229.55680208999837,None,229.55680208999837,None,2021-09-24-14:18:09.288402,229.57841249999183,229.89013669999258,229.57841249999183,None,None,229.57841249999183,None,230.37349068999464,None,,,,22002,0002,2021_Sep_24_1414,localizer,2021.1.3,60.0225324590636,
block,scrambled,scrambled052.bmp,,,,,0,148,148,148,,,,,,,,,,,,,,,,,,,,,,,,,,,,,,,,,,,,,,,,,,None,,230.37349068999464,None,230.37349068999464,None,2021-09-24-14:18:10.104876,230.38654689998657,230.690133600001,230.38654689998657,None,None,230.38654689998657,None,231.19007328999868,None,,,,22002,0002,2021_Sep_24_1414,localizer,2021.1.3,60.0225324590636,
block,scrambled,scrambled031.bmp,,,,,0,149,149,149,,,,,,,,,,,,,,,,,,,,,,,,,,,,,,,,,,,,,,,,,,None,,231.19007328999868,None,231.19007328999868,None,2021-09-24-14:18:10.921658,231.2008385999943,231.50673429999733,231.2008385999943,None,None,231.2008385999943,None,232.00685098998946,None,,,,22002,0002,2021_Sep_24_1414,localizer,2021.1.3,60.0225324590636,
block,scrambled,scrambled033.bmp,,,,,0,150,150,150,,,,,,,,,,,,,,,,,,,,,,,,,,,,,,,,,,,,,,,,,,None,,232.00685098998946,None,232.00685098998946,None,2021-09-24-14:18:11.738262,232.01736959999835,232.32335439999588,232.01736959999835,None,None,232.01736959999835,None,232.8234190899995,None,,,,22002,0002,2021_Sep_24_1414,localizer,2021.1.3,60.0225324590636,
block,scrambled,scrambled055.bmp,,,,,0,151,151,151,,,,,,,,,,,,,,,,,,,,,,,,,,,,,,,,,,,,,,,,,,None,,232.8234190899995,None,232.8234190899995,None,2021-09-24-14:18:12.554027,232.84033869999985,233.1401707999903,232.84033869999985,None,None,232.84033869999985,None,233.6400981899962,None,,,,22002,0002,2021_Sep_24_1414,localizer,2021.1.3,60.0225324590636,
block_end,scrambled,scrambled022.bmp,,,,,0,152,152,152,,,,,,,,,,,,,,,,,,,,,,,,,,,,,,,,,,,,,,,,,,None,,233.6400981899962,None,233.6400981899962,None,2021-09-24-14:18:13.371213,233.66032059999998,233.97348089999286,233.66032059999998,None,None,233.66032059999998,None,234.45661188999946,None,,,,22002,0002,2021_Sep_24_1414,localizer,2021.1.3,60.0225324590636,
block_start,objects,objects066.bmp,,,,,0,153,153,153,,,,,,,,,,,,,,,,,,,,,,,,,,,,,,,,,,,,,,,,,,t,3.145196900004521,234.45683609999833,None,234.45683609999833,None,2021-09-24-14:18:17.351848,237.64175959999557,237.94020810000075,237.64175959999557,None,None,237.64175959999557,None,238.44021109000022,None,,,,22002,0002,2021_Sep_24_1414,localizer,2021.1.3,60.0225324590636,
block,objects,objects074.bmp,,,,,0,154,154,154,,,,,,,,,,,,,,,,,,,,,,,,,,,,,,,,,,,,,,,,,,None,,238.44021109000022,None,238.44021109000022,None,2021-09-24-14:18:18.171596,238.4517393999995,238.75667569998768,238.4517393999995,None,None,238.4517393999995,None,239.25689418999826,None,,,,22002,0002,2021_Sep_24_1414,localizer,2021.1.3,60.0225324590636,
block,objects,objects071.bmp,,,,,0,155,155,155,,,,,,,,,,,,,,,,,,,,,,,,,,,,,,,,,,,,,,,,,,None,,239.25689418999826,None,239.25689418999826,None,2021-09-24-14:18:18.988482,239.27771729999222,239.59017999999924,239.27771729999222,None,None,239.27771729999222,None,240.07359298999944,None,,,,22002,0002,2021_Sep_24_1414,localizer,2021.1.3,60.0225324590636,
block,objects,objects011.bmp,,,,,0,156,156,156,,,,,,,,,,,,,,,,,,,,,,,,,,,,,,,,,,,,,,,,,,None,,240.07359298999944,None,240.07359298999944,None,2021-09-24-14:18:19.804568,240.09413420000055,240.4068913999945,240.09413420000055,None,None,240.09413420000055,None,240.8901899899967,None,,,,22002,0002,2021_Sep_24_1414,localizer,2021.1.3,60.0225324590636,
block,objects,objects077.bmp,,,,,0,157,157,157,,,,,,,,,,,,,,,,,,,,,,,,,,,,,,,,,,,,,,,,,,None,,240.8901899899967,None,240.8901899899967,None,2021-09-24-14:18:20.621793,240.91137940000044,241.2235526000004,240.91137940000044,None,None,240.91137940000044,None,241.70675608999153,None,,,,22002,0002,2021_Sep_24_1414,localizer,2021.1.3,60.0225324590636,
block,objects,objects005.bmp,,,,,0,158,158,158,,,,,,,,,,,,,,,,,,,,,,,,,,,,,,,,,,,,,,,,,,None,,241.70675608999153,None,241.70675608999153,None,2021-09-24-14:18:21.437361,241.72437799999898,242.02356149999832,241.72437799999898,None,None,241.72437799999898,None,242.52357008999678,None,,,,22002,0002,2021_Sep_24_1414,localizer,2021.1.3,60.0225324590636,
block,objects,objects061.bmp,,,,,0,159,159,159,,,,,,,,,,,,,,,,,,,,,,,,,,,,,,,,,,,,,,,,,,None,,242.52357008999678,None,242.52357008999678,None,2021-09-24-14:18:22.255993,242.5351391999866,242.84014599998773,242.5351391999866,None,None,242.5351391999866,None,243.340149489991,None,,,,22002,0002,2021_Sep_24_1414,localizer,2021.1.3,60.0225324590636,
block,objects,objects029.bmp,,,,,0,160,160,160,,,,,,,,,,,,,,,,,,,,,,,,,,,,,,,,,,,,,,,,,,None,,243.340149489991,None,243.340149489991,None,2021-09-24-14:18:23.071555,243.36142239999026,243.67354669999622,243.36142239999026,None,None,243.36142239999026,None,244.15666589000028,None,,,,22002,0002,2021_Sep_24_1414,localizer,2021.1.3,60.0225324590636,
block,objects,objects075.bmp,,,,,0,161,161,161,,,,,,,,,,,,,,,,,,,,,,,,,,,,,,,,,,,,,,,,,,None,,244.15666589000028,None,244.15666589000028,None,2021-09-24-14:18:23.880320,244.15786669999943,244.45682779999333,244.15786669999943,None,None,244.15786669999943,None,244.95690978999772,None,,,,22002,0002,2021_Sep_24_1414,localizer,2021.1.3,60.0225324590636,
block,objects,objects085.bmp,,,,,0,162,162,162,,,,,,,,,,,,,,,,,,,,,,,,,,,,,,,,,,,,,,,,,,None,,244.95690978999772,None,244.95690978999772,None,2021-09-24-14:18:24.690317,244.968366599991,245.27359899999283,244.968366599991,244.968366599991,None,244.968366599991,244.968366599991,245.77338158998754,None,,,,22002,0002,2021_Sep_24_1414,localizer,2021.1.3,60.0225324590636,
block,objects,objects014.bmp,,,,,0,163,163,163,,,,,,,,,,,,,,,,,,,,,,,,,,,,,,,,,,,,,,,,,,None,,245.77338158998754,None,245.77338158998754,None,2021-09-24-14:18:25.503974,245.78322019999905,246.09022719999484,245.78322019999905,None,None,245.78322019999905,None,246.59023958999313,None,,,,22002,0002,2021_Sep_24_1414,localizer,2021.1.3,60.0225324590636,
block,objects,objects060.bmp,,,,,0,164,164,164,,,,,,,,,,,,,,,,,,,,,,,,,,,,,,,,,,,,,,,,,,None,,246.59023958999313,None,246.59023958999313,None,2021-09-24-14:18:26.320844,246.60019569999713,246.90682509999897,246.60019569999713,None,None,246.60019569999713,None,247.40669758999428,None,,,,22002,0002,2021_Sep_24_1414,localizer,2021.1.3,60.0225324590636,
block,objects,objects030.bmp,,,,,0,165,165,165,,,,,,,,,,,,,,,,,,,,,,,,,,,,,,,,,,,,,,,,,,None,,247.40669758999428,None,247.40669758999428,None,2021-09-24-14:18:27.129508,247.4080006999866,247.70679089998885,247.4080006999866,None,None,247.4080006999866,None,248.2236359900009,None,,,,22002,0002,2021_Sep_24_1414,localizer,2021.1.3,60.0225324590636,
block,objects,objects050.bmp,,,,,0,166,166,166,,,,,,,,,,,,,,,,,,,,,,,,,,,,,,,,,,,,,,,,,,None,,248.2236359900009,None,248.2236359900009,None,2021-09-24-14:18:27.946590,248.22474269999657,248.52356159999908,248.22474269999657,None,None,248.22474269999657,None,249.0402626899915,None,,,,22002,0002,2021_Sep_24_1414,localizer,2021.1.3,60.0225324590636,
block_end,objects,objects058.bmp,,,,,0,167,167,167,,,,,,,,,,,,,,,,,,,,,,,,,,,,,,,,,,,,,,,,,,None,,249.0402626899915,None,249.0402626899915,None,2021-09-24-14:18:28.771652,249.0635889999976,249.37358179999865,249.0635889999976,None,None,249.0635889999976,None,249.85689628999097,None,,,,22002,0002,2021_Sep_24_1414,localizer,2021.1.3,60.0225324590636,
block_start,faces,faces027.bmp,,,,,0,168,168,168,,,,,,,,,,,,,,,,,,,,,,,,,,,,,,,,,,,,,,,,,,t,3.616580200003227,249.85691759998736,None,249.85691759998736,None,2021-09-24-14:18:33.219383,253.50061089999508,253.80696189998707,253.50061089999508,None,None,253.50061089999508,None,254.30669398999015,None,,,,22002,0002,2021_Sep_24_1414,localizer,2021.1.3,60.0225324590636,
block,faces,faces027.bmp,,,,,0,169,169,169,,,,,,,,,,,,,,,,,,,,,,,,,,,,,,,,,,,,,,,,,,None,,254.30669398999015,None,254.30669398999015,None,2021-09-24-14:18:34.029116,254.3082013999956,254.60695309999574,254.3082013999956,None,y,254.3082013999956,None,255.12362808999313,None,0.747125000008964,,,22002,0002,2021_Sep_24_1414,localizer,2021.1.3,60.0225324590636,
block,faces,faces045.bmp,,,,,0,170,170,170,,,,,,,,,,,,,,,,,,,,,,,,,,,,,,,,,,,,,,,,,,None,,255.12362808999313,None,255.12362808999313,None,2021-09-24-14:18:34.855239,255.13452249999682,255.44018819999474,255.13452249999682,None,None,255.13452249999682,None,255.94017828999785,None,,,,22002,0002,2021_Sep_24_1414,localizer,2021.1.3,60.0225324590636,
block,faces,faces055.bmp,,,,,0,171,171,171,,,,,,,,,,,,,,,,,,,,,,,,,,,,,,,,,,,,,,,,,,None,,255.94017828999785,None,255.94017828999785,None,2021-09-24-14:18:35.662721,255.94874599999457,256.25694049999584,255.94874599999457,None,None,255.94874599999457,None,256.7570039899903,None,,,,22002,0002,2021_Sep_24_1414,localizer,2021.1.3,60.0225324590636,
block,faces,faces023.bmp,,,,,0,172,172,172,,,,,,,,,,,,,,,,,,,,,,,,,,,,,,,,,,,,,,,,,,None,,256.7570039899903,None,256.7570039899903,None,2021-09-24-14:18:36.488593,256.77845699999307,257.09018839999044,256.77845699999307,None,None,256.77845699999307,None,257.5736858899938,None,,,,22002,0002,2021_Sep_24_1414,localizer,2021.1.3,60.0225324590636,
block,faces,faces035.bmp,,,,,0,173,173,173,,,,,,,,,,,,,,,,,,,,,,,,,,,,,,,,,,,,,,,,,,None,,257.5736858899938,None,257.5736858899938,None,2021-09-24-14:18:37.304122,257.5968872999947,257.90695009999035,257.5968872999947,None,None,257.5968872999947,None,258.39022328998834,None,,,,22002,0002,2021_Sep_24_1414,localizer,2021.1.3,60.0225324590636,
block,faces,faces042.bmp,,,,,0,174,174,174,,,,,,,,,,,,,,,,,,,,,,,,,,,,,,,,,,,,,,,,,,None,,258.39022328998834,None,258.39022328998834,None,2021-09-24-14:18:38.120617,258.41152759999386,258.7235471999884,258.41152759999386,None,None,258.41152759999386,None,259.2067675899918,None,,,,22002,0002,2021_Sep_24_1414,localizer,2021.1.3,60.0225324590636,
block,faces,faces020.bmp,,,,,0,175,175,175,,,,,,,,,,,,,,,,,,,,,,,,,,,,,,,,,,,,,,,,,,None,,259.2067675899918,None,259.2067675899918,None,2021-09-24-14:18:38.937168,259.2288802999974,259.540124799998,259.2288802999974,None,None,259.2288802999974,None,260.0234110899939,None,,,,22002,0002,2021_Sep_24_1414,localizer,2021.1.3,60.0225324590636,
block,faces,faces061.bmp,,,,,0,176,176,176,,,,,,,,,,,,,,,,,,,,,,,,,,,,,,,,,,,,,,,,,,None,,260.0234110899939,None,260.0234110899939,None,2021-09-24-14:18:39.754835,260.03189349999593,260.34021609999763,260.03189349999593,None,None,260.03189349999593,None,260.8403348899912,None,,,,22002,0002,2021_Sep_24_1414,localizer,2021.1.3,60.0225324590636,
block,faces,faces043.bmp,,,,,0,177,177,177,,,,,,,,,,,,,,,,,,,,,,,,,,,,,,,,,,,,,,,,,,None,,260.8403348899912,None,260.8403348899912,None,2021-09-24-14:18:40.572413,260.8632038999931,261.17363819999446,260.8632038999931,None,None,260.8632038999931,None,261.65678288998896,None,,,,22002,0002,2021_Sep_24_1414,localizer,2021.1.3,60.0225324590636,
block,faces,faces053.bmp,,,,,0,178,178,178,,,,,,,,,,,,,,,,,,,,,,,,,,,,,,,,,,,,,,,,,,None,,261.65678288998896,None,261.65678288998896,None,2021-09-24-14:18:41.380320,261.6579780999891,261.95700450000004,261.6579780999891,None,None,261.6579780999891,None,262.4569805899984,None,,,,22002,0002,2021_Sep_24_1414,localizer,2021.1.3,60.0225324590636,
block,faces,faces006.bmp,,,,,0,179,179,179,,,,,,,,,,,,,,,,,,,,,,,,,,,,,,,,,,,,,,,,,,None,,262.4569805899984,None,262.4569805899984,None,2021-09-24-14:18:42.190568,262.4697698999953,262.7736514999997,262.4697698999953,262.4697698999953,None,262.4697698999953,262.4697698999953,263.2735651899886,None,,,,22002,0002,2021_Sep_24_1414,localizer,2021.1.3,60.0225324590636,
block,faces,faces036.bmp,,,,,0,180,180,180,,,,,,,,,,,,,,,,,,,,,,,,,,,,,,,,,,,,,,,,,,None,,263.2735651899886,None,263.2735651899886,None,2021-09-24-14:18:43.003964,263.2832994999917,263.5902472999878,263.2832994999917,None,None,263.2832994999917,None,264.09033498999196,None,,,,22002,0002,2021_Sep_24_1414,localizer,2021.1.3,60.0225324590636,
block,faces,faces040.bmp,,,,,0,181,181,181,,,,,,,,,,,,,,,,,,,,,,,,,,,,,,,,,,,,,,,,,,None,,264.09033498999196,None,264.09033498999196,None,2021-09-24-14:18:43.821943,264.10130819999904,264.40681879999465,264.10130819999904,None,None,264.10130819999904,None,264.90700208999914,None,,,,22002,0002,2021_Sep_24_1414,localizer,2021.1.3,60.0225324590636,
block_end,faces,faces060.bmp,,,,,0,182,182,182,,,,,,,,,,,,,,,,,,,,,,,,,,,,,,,,,,,,,,,,,,None,,264.90700208999914,None,264.90700208999914,None,2021-09-24-14:18:44.638151,264.9238456999883,265.22361129999626,264.9238456999883,None,None,264.9238456999883,None,265.7235999899887,None,,,,22002,0002,2021_Sep_24_1414,localizer,2021.1.3,60.0225324590636,
block_start,scrambled,scrambled044.bmp,,,,,0,183,183,183,,,,,,,,,,,,,,,,,,,,,,,,,,,,,,,,,,,,,,,,,,t,3.7636245000030613,265.72356749999744,None,265.72356749999744,None,2021-09-24-14:18:49.236515,269.5175484999927,269.82370169999194,269.5175484999927,None,None,269.5175484999927,None,270.32344728999595,None,,,,22002,0002,2021_Sep_24_1414,localizer,2021.1.3,60.0225324590636,
block,scrambled,scrambled027.bmp,,,,,0,184,184,184,,,,,,,,,,,,,,,,,,,,,,,,,,,,,,,,,,,,,,,,,,None,,270.32344728999595,None,270.32344728999595,None,2021-09-24-14:18:50.045995,270.3273868999968,270.640249899996,270.3273868999968,None,None,270.3273868999968,None,271.1404039899964,None,,,,22002,0002,2021_Sep_24_1414,localizer,2021.1.3,60.0225324590636,
block,scrambled,scrambled027.bmp,,,,,0,185,185,185,,,,,,,,,,,,,,,,,,,,,,,,,,,,,,,,,,,,,,,,,,None,,271.1404039899964,None,271.1404039899964,None,2021-09-24-14:18:50.872818,271.1519855999941,271.4569907999976,271.1519855999941,None,y,271.1519855999941,None,271.9569864899997,None,0.43324159999610856,,,22002,0002,2021_Sep_24_1414,localizer,2021.1.3,60.0225324590636,
block,scrambled,scrambled049.bmp,,,,,0,186,186,186,,,,,,,,,,,,,,,,,,,,,,,,,,,,,,,,,,,,,,,,,,None,,271.9569864899997,None,271.9569864899997,None,2021-09-24-14:18:51.688574,271.978234899987,272.2903704999917,271.978234899987,None,None,271.978234899987,None,272.7737141899881,None,,,,22002,0002,2021_Sep_24_1414,localizer,2021.1.3,60.0225324590636,
block,scrambled,scrambled019.bmp,,,,,0,187,187,187,,,,,,,,,,,,,,,,,,,,,,,,,,,,,,,,,,,,,,,,,,None,,272.7737141899881,None,272.7737141899881,None,2021-09-24-14:18:52.504851,272.7951456999872,273.1069623999938,272.7951456999872,None,None,272.7951456999872,None,273.59035418999264,None,,,,22002,0002,2021_Sep_24_1414,localizer,2021.1.3,60.0225324590636,
block,scrambled,scrambled067.bmp,,,,,0,188,188,188,,,,,,,,,,,,,,,,,,,,,,,,,,,,,,,,,,,,,,,,,,None,,273.59035418999264,None,273.59035418999264,None,2021-09-24-14:18:53.321951,273.60671889998775,273.90688819999923,273.60671889998775,None,None,273.60671889998775,None,274.4069698899868,None,,,,22002,0002,2021_Sep_24_1414,localizer,2021.1.3,60.0225324590636,
block,scrambled,scrambled069.bmp,,,,,0,189,189,189,,,,,,,,,,,,,,,,,,,,,,,,,,,,,,,,,,,,,,,,,,None,,274.4069698899868,None,274.4069698899868,None,2021-09-24-14:18:54.129521,274.40812589999405,274.70642789998965,274.40812589999405,None,None,274.40812589999405,None,275.22367888999287,None,,,,22002,0002,2021_Sep_24_1414,localizer,2021.1.3,60.0225324590636,
block,scrambled,scrambled080.bmp,,,,,0,190,190,190,,,,,,,,,,,,,,,,,,,,,,,,,,,,,,,,,,,,,,,,,,None,,275.22367888999287,None,275.22367888999287,None,2021-09-24-14:18:54.955099,275.23576859998866,275.5404143999913,275.23576859998866,None,None,275.23576859998866,None,276.0404104899964,None,,,,22002,0002,2021_Sep_24_1414,localizer,2021.1.3,60.0225324590636,
block,scrambled,scrambled059.bmp,,,,,0,191,191,191,,,,,,,,,,,,,,,,,,,,,,,,,,,,,,,,,,,,,,,,,,None,,276.0404104899964,None,276.0404104899964,None,2021-09-24-14:18:55.771831,276.0604475,276.37367769998673,276.0604475,None,None,276.0604475,None,276.8570215899992,None,,,,22002,0002,2021_Sep_24_1414,localizer,2021.1.3,60.0225324590636,
block,scrambled,scrambled088.bmp,,,,,0,192,192,192,,,,,,,,,,,,,,,,,,,,,,,,,,,,,,,,,,,,,,,,,,None,,276.8570215899992,None,276.8570215899992,None,2021-09-24-14:18:56.588651,276.8779571999912,277.1904252999957,276.8779571999912,None,None,276.8779571999912,None,277.67371308998844,None,,,,22002,0002,2021_Sep_24_1414,localizer,2021.1.3,60.0225324590636,
block,scrambled,scrambled031.bmp,,,,,0,193,193,193,,,,,,,,,,,,,,,,,,,,,,,,,,,,,,,,,,,,,,,,,,None,,277.67371308998844,None,277.67371308998844,None,2021-09-24-14:18:57.404591,277.6847895999963,277.9902606999967,277.6847895999963,None,None,277.6847895999963,None,278.4904264899989,None,,,,22002,0002,2021_Sep_24_1414,localizer,2021.1.3,60.0225324590636,
block,scrambled,scrambled064.bmp,,,,,0,194,194,194,,,,,,,,,,,,,,,,,,,,,,,,,,,,,,,,,,,,,,,,,,None,,278.4904264899989,None,278.4904264899989,None,2021-09-24-14:18:58.221823,278.49632649999694,278.8070760999981,278.49632649999694,None,None,278.49632649999694,None,279.3070706899918,None,,,,22002,0002,2021_Sep_24_1414,localizer,2021.1.3,60.0225324590636,
block,scrambled,scrambled053.bmp,,,,,0,195,195,195,,,,,,,,,,,,,,,,,,,,,,,,,,,,,,,,,,,,,,,,,,None,,279.3070706899918,None,279.3070706899918,None,2021-09-24-14:18:59.037142,279.3276057999901,279.64038810000056,279.3276057999901,None,None,279.3276057999901,None,280.12367848999855,None,,,,22002,0002,2021_Sep_24_1414,localizer,2021.1.3,60.0225324590636,
block,scrambled,scrambled050.bmp,,,,,0,196,196,196,,,,,,,,,,,,,,,,,,,,,,,,,,,,,,,,,,,,,,,,,,None,,280.12367848999855,None,280.12367848999855,None,2021-09-24-14:18:59.853164,280.14247739998973,280.4570862999972,280.14247739998973,None,None,280.14247739998973,None,280.9403396899899,None,,,,22002,0002,2021_Sep_24_1414,localizer,2021.1.3,60.0225324590636,
block_end,scrambled,scrambled087.bmp,,,,,0,197,197,197,,,,,,,,,,,,,,,,,,,,,,,,,,,,,,,,,,,,,,,,,,None,,280.9403396899899,None,280.9403396899899,None,2021-09-24-14:19:00.671940,280.9510072999983,281.256936699996,280.9510072999983,None,None,280.9510072999983,None,281.75708828999194,None,,,,22002,0002,2021_Sep_24_1414,localizer,2021.1.3,60.0225324590636,
block_start,objects,objects019.bmp,,,,,0,198,198,198,,,,,,,,,,,,,,,,,,,,,,,,,,,,,,,,,,,,,,,,,,t,3.462808700001915,281.7571101999929,None,281.7571101999929,None,2021-09-24-14:19:04.965877,285.24591889999283,285.55713619999005,285.24591889999283,None,None,285.24591889999283,None,286.0569340899994,None,,,,22002,0002,2021_Sep_24_1414,localizer,2021.1.3,60.0225324590636,
block,objects,objects016.bmp,,,,,0,199,199,199,,,,,,,,,,,,,,,,,,,,,,,,,,,,,,,,,,,,,,,,,,None,,286.0569340899994,None,286.0569340899994,None,2021-09-24-14:19:05.788549,286.07819729999756,286.3904463999934,286.07819729999756,None,None,286.07819729999756,None,286.87376758999307,None,,,,22002,0002,2021_Sep_24_1414,localizer,2021.1.3,60.0225324590636,
block,objects,objects048.bmp,,,,,0,200,200,200,,,,,,,,,,,,,,,,,,,,,,,,,,,,,,,,,,,,,,,,,,None,,286.87376758999307,None,286.87376758999307,None,2021-09-24-14:19:06.605363,286.8859931999905,287.1902919999993,286.8859931999905,None,None,286.8859931999905,None,287.69050658999475,None,,,,22002,0002,2021_Sep_24_1414,localizer,2021.1.3,60.0225324590636,
block,objects,objects005.bmp,,,,,0,201,201,201,,,,,,,,,,,,,,,,,,,,,,,,,,,,,,,,,,,,,,,,,,None,,287.69050658999475,None,287.69050658999475,None,2021-09-24-14:19:07.422108,287.7007069999963,288.00711279999814,287.7007069999963,None,None,287.7007069999963,None,288.5071383899951,None,,,,22002,0002,2021_Sep_24_1414,localizer,2021.1.3,60.0225324590636,
block,objects,objects057.bmp,,,,,0,202,202,202,,,,,,,,,,,,,,,,,,,,,,,,,,,,,,,,,,,,,,,,,,None,,288.5071383899951,None,288.5071383899951,None,2021-09-24-14:19:08.238766,288.51890759999515,288.8236567999993,288.51890759999515,None,None,288.51890759999515,None,289.323613689997,None,,,,22002,0002,2021_Sep_24_1414,localizer,2021.1.3,60.0225324590636,
block,objects,objects040.bmp,,,,,0,203,203,203,,,,,,,,,,,,,,,,,,,,,,,,,,,,,,,,,,,,,,,,,,None,,289.323613689997,None,289.323613689997,None,2021-09-24-14:19:09.047413,289.33147859999735,289.64043839999067,289.33147859999735,None,None,289.33147859999735,None,290.1404860899958,None,,,,22002,0002,2021_Sep_24_1414,localizer,2021.1.3,60.0225324590636,
block,objects,objects086.bmp,,,,,0,204,204,204,,,,,,,,,,,,,,,,,,,,,,,,,,,,,,,,,,,,,,,,,,None,,290.1404860899958,None,290.1404860899958,None,2021-09-24-14:19:09.872115,290.1512440999941,290.4571470999945,290.1512440999941,None,None,290.1512440999941,None,290.9571551899891,None,,,,22002,0002,2021_Sep_24_1414,localizer,2021.1.3,60.0225324590636,
block,objects,objects087.bmp,,,,,0,205,205,205,,,,,,,,,,,,,,,,,,,,,,,,,,,,,,,,,,,,,,,,,,None,,290.9571551899891,None,290.9571551899891,None,2021-09-24-14:19:10.688761,290.9678549999953,291.27382229999057,290.9678549999953,None,None,290.9678549999953,None,291.7738389899925,None,,,,22002,0002,2021_Sep_24_1414,localizer,2021.1.3,60.0225324590636,
block,objects,objects052.bmp,,,,,0,206,206,206,,,,,,,,,,,,,,,,,,,,,,,,,,,,,,,,,,,,,,,,,,None,,291.7738389899925,None,291.7738389899925,None,2021-09-24-14:19:11.505443,291.7858969999943,292.09032069999375,291.7858969999943,None,None,291.7858969999943,None,292.5905182899907,None,,,,22002,0002,2021_Sep_24_1414,localizer,2021.1.3,60.0225324590636,
block,objects,objects071.bmp,,,,,0,207,207,207,,,,,,,,,,,,,,,,,,,,,,,,,,,,,,,,,,,,,,,,,,None,,292.5905182899907,None,292.5905182899907,None,2021-09-24-14:19:12.322917,292.6020537999866,292.90696419999585,292.6020537999866,None,None,292.6020537999866,None,293.4070137900009,None,,,,22002,0002,2021_Sep_24_1414,localizer,2021.1.3,60.0225324590636,
block,objects,objects068.bmp,,,,,0,208,208,208,,,,,,,,,,,,,,,,,,,,,,,,,,,,,,,,,,,,,,,,,,None,,293.4070137900009,None,293.4070137900009,None,2021-09-24-14:19:13.129858,293.4082877999899,293.7071109999961,293.4082877999899,None,None,293.4082877999899,None,294.2238227899972,None,,,,22002,0002,2021_Sep_24_1414,localizer,2021.1.3,60.0225324590636,
block,objects,objects047.bmp,,,,,0,209,209,209,,,,,,,,,,,,,,,,,,,,,,,,,,,,,,,,,,,,,,,,,,None,,294.2238227899972,None,294.2238227899972,None,2021-09-24-14:19:13.954261,294.24467859999277,294.5571166000009,294.24467859999277,None,None,294.24467859999277,None,295.0404206899868,None,,,,22002,0002,2021_Sep_24_1414,localizer,2021.1.3,60.0225324590636,
block,objects,objects023.bmp,,,,,0,210,210,210,,,,,,,,,,,,,,,,,,,,,,,,,,,,,,,,,,,,,,,,,,None,,295.0404206899868,None,295.0404206899868,None,2021-09-24-14:19:14.772042,295.0610432999965,295.3738594999886,295.0610432999965,None,None,295.0610432999965,None,295.8571939899877,None,,,,22002,0002,2021_Sep_24_1414,localizer,2021.1.3,60.0225324590636,
block,objects,objects046.bmp,,,,,0,211,211,211,,,,,,,,,,,,,,,,,,,,,,,,,,,,,,,,,,,,,,,,,,None,,295.8571939899877,None,295.8571939899877,None,2021-09-24-14:19:15.588623,295.86769089999143,296.1737696999917,295.86769089999143,None,None,295.86769089999143,None,296.67387788999184,None,,,,22002,0002,2021_Sep_24_1414,localizer,2021.1.3,60.0225324590636,
block_end,objects,objects067.bmp,,,,,0,212,212,212,,,,,,,,,,,,,,,,,,,,,,,,,,,,,,,,,,,,,,,,,,None,,296.67387788999184,None,296.67387788999184,None,2021-09-24-14:19:16.405280,296.69072989998676,296.9905110999971,296.69072989998676,None,None,296.69072989998676,None,297.4904889899946,None,,,,22002,0002,2021_Sep_24_1414,localizer,2021.1.3,60.0225324590636,
null_block,null_block,null_block.bmp,,,,,0,213,213,213,,,,,,,,,,,,,,,,,,,,,,,,,,,,,,,,,,,,,,,,,,t,2.7319805000006454,297.49054169999727,None,297.49054169999727,None,2021-09-24-14:19:19.968595,300.257195079996,None,300.257195079996,None,None,300.257195079996,None,300.2555415999959,None,,,,22002,0002,2021_Sep_24_1414,localizer,2021.1.3,60.0225324590636,
block_start,faces,faces048.bmp,,,,,0,214,214,214,,,,,,,,,,,,,,,,,,,,,,,,,,,,,,,,,,,,,,,,,,t,4.446929999990971,312.2572235999978,None,312.2572235999978,None,2021-09-24-14:19:36.455410,316.7315181999875,317.0405022999912,316.7315181999875,None,None,316.7315181999875,None,317.5405761899921,None,,,,22002,0002,2021_Sep_24_1414,localizer,2021.1.3,60.0225324590636,
block,faces,faces084.bmp,,,,,0,215,215,215,,,,,,,,,,,,,,,,,,,,,,,,,,,,,,,,,,,,,,,,,,None,,317.5405761899921,None,317.5405761899921,None,2021-09-24-14:19:37.263140,317.54177369999525,317.8406277999893,317.54177369999525,None,None,317.54177369999525,None,318.35731168999627,None,,,,22002,0002,2021_Sep_24_1414,localizer,2021.1.3,60.0225324590636,
block,faces,faces088.bmp,,,,,0,216,216,216,,,,,,,,,,,,,,,,,,,,,,,,,,,,,,,,,,,,,,,,,,None,,318.35731168999627,None,318.35731168999627,None,2021-09-24-14:19:38.088944,318.3681069999875,318.6739152999944,318.3681069999875,None,None,318.3681069999875,None,319.1739579899906,None,,,,22002,0002,2021_Sep_24_1414,localizer,2021.1.3,60.0225324590636,
block,faces,faces058.bmp,,,,,0,217,217,217,,,,,,,,,,,,,,,,,,,,,,,,,,,,,,,,,,,,,,,,,,None,,319.1739579899906,None,319.1739579899906,None,2021-09-24-14:19:38.905568,319.1847778999945,319.4906201999984,319.1847778999945,None,None,319.1847778999945,None,319.99065488999184,None,,,,22002,0002,2021_Sep_24_1414,localizer,2021.1.3,60.0225324590636,
block,faces,faces089.bmp,,,,,0,218,218,218,,,,,,,,,,,,,,,,,,,,,,,,,,,,,,,,,,,,,,,,,,None,,319.99065488999184,None,319.99065488999184,None,2021-09-24-14:19:39.721279,320.0013914999872,320.307066999987,320.0013914999872,None,None,320.0013914999872,None,320.8072514900006,None,,,,22002,0002,2021_Sep_24_1414,localizer,2021.1.3,60.0225324590636,
block,faces,faces002.bmp,,,,,0,219,219,219,,,,,,,,,,,,,,,,,,,,,,,,,,,,,,,,,,,,,,,,,,None,,320.8072514900006,None,320.8072514900006,None,2021-09-24-14:19:40.538889,320.8196265000006,321.12389789998997,320.8196265000006,None,None,320.8196265000006,None,321.6238953899912,None,,,,22002,0002,2021_Sep_24_1414,localizer,2021.1.3,60.0225324590636,
block,faces,faces012.bmp,,,,,0,220,220,220,,,,,,,,,,,,,,,,,,,,,,,,,,,,,,,,,,,,,,,,,,None,,321.6238953899912,None,321.6238953899912,None,2021-09-24-14:19:41.346460,321.6249378999928,321.92397340000025,321.6249378999928,None,None,321.6249378999928,None,322.44060448999807,None,,,,22002,0002,2021_Sep_24_1414,localizer,2021.1.3,60.0225324590636,
block,faces,faces055.bmp,,,,,0,221,221,221,,,,,,,,,,,,,,,,,,,,,,,,,,,,,,,,,,,,,,,,,,None,,322.44060448999807,None,322.44060448999807,None,2021-09-24-14:19:42.172244,322.45277689999784,322.7573255999887,322.45277689999784,None,None,322.45277689999784,None,323.25730878999747,None,,,,22002,0002,2021_Sep_24_1414,localizer,2021.1.3,60.0225324590636,
block,faces,faces067.bmp,,,,,0,222,222,222,,,,,,,,,,,,,,,,,,,,,,,,,,,,,,,,,,,,,,,,,,None,,323.25730878999747,None,323.25730878999747,None,2021-09-24-14:19:42.989743,323.26889979999396,323.5738227999973,323.26889979999396,None,None,323.26889979999396,None,324.0737926899921,None,,,,22002,0002,2021_Sep_24_1414,localizer,2021.1.3,60.0225324590636,
block,faces,faces052.bmp,,,,,0,223,223,223,,,,,,,,,,,,,,,,,,,,,,,,,,,,,,,,,,,,,,,,,,None,,324.0737926899921,None,324.0737926899921,None,2021-09-24-14:19:43.797692,324.08344979998947,324.3906577999878,324.08344979998947,None,None,324.08344979998947,None,324.89067498999356,None,,,,22002,0002,2021_Sep_24_1414,localizer,2021.1.3,60.0225324590636,
block,faces,faces034.bmp,,,,,0,224,224,224,,,,,,,,,,,,,,,,,,,,,,,,,,,,,,,,,,,,,,,,,,None,,324.89067498999356,None,324.89067498999356,None,2021-09-24-14:19:44.623283,324.9014113999874,325.20698569998785,324.9014113999874,None,None,324.9014113999874,None,325.70704078999114,None,,,,22002,0002,2021_Sep_24_1414,localizer,2021.1.3,60.0225324590636,
block,faces,faces014.bmp,,,,,0,225,225,225,,,,,,,,,,,,,,,,,,,,,,,,,,,,,,,,,,,,,,,,,,None,,325.70704078999114,None,325.70704078999114,None,2021-09-24-14:19:45.429926,325.7085956999945,326.00735119999445,325.7085956999945,None,None,325.7085956999945,None,326.5240326899977,None,,,,22002,0002,2021_Sep_24_1414,localizer,2021.1.3,60.0225324590636,
block,faces,faces064.bmp,,,,,0,226,226,226,,,,,,,,,,,,,,,,,,,,,,,,,,,,,,,,,,,,,,,,,,None,,326.5240326899977,None,326.5240326899977,None,2021-09-24-14:19:46.256355,326.5458266999922,326.8573316999973,326.5458266999922,None,None,326.5458266999922,None,327.34068998998845,None,,,,22002,0002,2021_Sep_24_1414,localizer,2021.1.3,60.0225324590636,
block,faces,faces011.bmp,,,,,0,227,227,227,,,,,,,,,,,,,,,,,,,,,,,,,,,,,,,,,,,,,,,,,,None,,327.34068998998845,None,327.34068998998845,None,2021-09-24-14:19:47.071110,327.3451439999917,327.6573490999872,327.3451439999917,None,None,327.3451439999917,None,328.1573407899879,None,,,,22002,0002,2021_Sep_24_1414,localizer,2021.1.3,60.0225324590636,
block_end,faces,faces077.bmp,,,,,0,228,228,228,,,,,,,,,,,,,,,,,,,,,,,,,,,,,,,,,,,,,,,,,,None,,328.1573407899879,None,328.1573407899879,None,2021-09-24-14:19:47.889466,328.17893999999797,328.4906708999915,328.17893999999797,None,None,328.17893999999797,None,328.97401118999113,None,,,,22002,0002,2021_Sep_24_1414,localizer,2021.1.3,60.0225324590636,
block_start,scenes,scenes031.bmp,,,,,0,229,229,229,,,,,,,,,,,,,,,,,,,,,,,,,,,,,,,,,,,,,,,,,,t,2.8477588999958243,328.97401179998997,None,328.97401179998997,None,2021-09-24-14:19:51.562212,331.84692619999987,332.15732689999277,331.84692619999987,None,None,331.84692619999987,None,332.65737258999724,None,,,,22002,0002,2021_Sep_24_1414,localizer,2021.1.3,60.0225324590636,
block,scenes,scenes042.bmp,,,,,0,230,230,230,,,,,,,,,,,,,,,,,,,,,,,,,,,,,,,,,,,,,,,,,,None,,332.65737258999724,None,332.65737258999724,None,2021-09-24-14:19:52.388991,332.66830419999314,332.97399129999394,332.66830419999314,None,None,332.66830419999314,None,333.4740344899939,None,,,,22002,0002,2021_Sep_24_1414,localizer,2021.1.3,60.0225324590636,
block,scenes,scenes016.bmp,,,,,0,231,231,231,,,,,,,,,,,,,,,,,,,,,,,,,,,,,,,,,,,,,,,,,,None,,333.4740344899939,None,333.4740344899939,None,2021-09-24-14:19:53.205630,333.48477589999675,333.79054289999476,333.48477589999675,None,None,333.48477589999675,None,334.2907346899912,None,,,,22002,0002,2021_Sep_24_1414,localizer,2021.1.3,60.0225324590636,
block,scenes,scenes021.bmp,,,,,0,232,232,232,,,,,,,,,,,,,,,,,,,,,,,,,,,,,,,,,,,,,,,,,,None,,334.2907346899912,None,334.2907346899912,None,2021-09-24-14:19:54.022375,334.3018602999946,334.60735739998927,334.3018602999946,None,None,334.3018602999946,None,335.1074120899895,None,,,,22002,0002,2021_Sep_24_1414,localizer,2021.1.3,60.0225324590636,
block,scenes,scenes024.bmp,,,,,0,233,233,233,,,,,,,,,,,,,,,,,,,,,,,,,,,,,,,,,,,,,,,,,,None,,335.1074120899895,None,335.1074120899895,None,2021-09-24-14:19:54.838065,335.11838129999524,335.4240180999914,335.11838129999524,None,None,335.11838129999524,None,335.92407048998865,None,,,,22002,0002,2021_Sep_24_1414,localizer,2021.1.3,60.0225324590636,
block,scenes,scenes035.bmp,,,,,0,234,234,234,,,,,,,,,,,,,,,,,,,,,,,,,,,,,,,,,,,,,,,,,,None,,335.92407048998865,None,335.92407048998865,None,2021-09-24-14:19:55.656672,335.9358396999887,336.24050989998796,335.9358396999887,None,None,335.9358396999887,None,336.74053128999657,None,,,,22002,0002,2021_Sep_24_1414,localizer,2021.1.3,60.0225324590636,
block,scenes,scenes082.bmp,,,,,0,235,235,235,,,,,,,,,,,,,,,,,,,,,,,,,,,,,,,,,,,,,,,,,,None,,336.74053128999657,None,336.74053128999657,None,2021-09-24-14:19:56.472178,336.762141299987,337.0740044999984,336.762141299987,None,None,336.762141299987,None,337.55739888998795,None,,,,22002,0002,2021_Sep_24_1414,localizer,2021.1.3,60.0225324590636,
block,scenes,scenes043.bmp,,,,,0,236,236,236,,,,,,,,,,,,,,,,,,,,,,,,,,,,,,,,,,,,,,,,,,None,,337.55739888998795,None,337.55739888998795,None,2021-09-24-14:19:57.290017,337.57893879999756,337.8906583999924,337.57893879999756,None,None,337.57893879999756,None,338.3736300899938,None,,,,22002,0002,2021_Sep_24_1414,localizer,2021.1.3,60.0225324590636,
block,scenes,scenes034.bmp,,,,,0,237,237,237,,,,,,,,,,,,,,,,,,,,,,,,,,,,,,,,,,,,,,,,,,None,,338.3736300899938,None,338.3736300899938,None,2021-09-24-14:19:58.094873,338.3751137999934,338.6740599999903,338.3751137999934,None,None,338.3751137999934,None,339.19073948999284,None,,,,22002,0002,2021_Sep_24_1414,localizer,2021.1.3,60.0225324590636,
block,scenes,scenes062.bmp,,,,,0,238,238,238,,,,,,,,,,,,,,,,,,,,,,,,,,,,,,,,,,,,,,,,,,None,,339.19073948999284,None,339.19073948999284,None,2021-09-24-14:19:58.922380,339.20407129998785,339.5074414999981,339.20407129998785,None,None,339.20407129998785,None,340.0073761899868,None,,,,22002,0002,2021_Sep_24_1414,localizer,2021.1.3,60.0225324590636,
block,scenes,scenes008.bmp,,,,,0,239,239,239,,,,,,,,,,,,,,,,,,,,,,,,,,,,,,,,,,,,,,,,,,None,,340.0073761899868,None,340.0073761899868,None,2021-09-24-14:19:59.738016,340.01738379999006,340.3238985999924,340.01738379999006,None,None,340.01738379999006,None,340.8240940899879,None,,,,22002,0002,2021_Sep_24_1414,localizer,2021.1.3,60.0225324590636,
block,scenes,scenes059.bmp,,,,,0,240,240,240,,,,,,,,,,,,,,,,,,,,,,,,,,,,,,,,,,,,,,,,,,None,,340.8240940899879,None,340.8240940899879,None,2021-09-24-14:20:00.556532,340.8366676000005,341.1403079999873,340.8366676000005,None,None,340.8366676000005,None,341.6405020899867,None,,,,22002,0002,2021_Sep_24_1414,localizer,2021.1.3,60.0225324590636,
block,scenes,scenes056.bmp,,,,,0,241,241,241,,,,,,,,,,,,,,,,,,,,,,,,,,,,,,,,,,,,,,,,,,None,,341.6405020899867,None,341.6405020899867,None,2021-09-24-14:20:01.363345,341.6418044999882,341.94075809999777,341.6418044999882,None,None,341.6418044999882,None,342.4573641899944,None,,,,22002,0002,2021_Sep_24_1414,localizer,2021.1.3,60.0225324590636,
block,scenes,scenes037.bmp,,,,,0,242,242,242,,,,,,,,,,,,,,,,,,,,,,,,,,,,,,,,,,,,,,,,,,None,,342.4573641899944,None,342.4573641899944,None,2021-09-24-14:20:02.189781,342.47028539999155,342.7740805999929,342.47028539999155,None,None,342.47028539999155,None,343.2741006899916,None,,,,22002,0002,2021_Sep_24_1414,localizer,2021.1.3,60.0225324590636,
block_end,scenes,scenes017.bmp,,,,,0,243,243,243,,,,,,,,,,,,,,,,,,,,,,,,,,,,,,,,,,,,,,,,,,None,,343.2741006899916,None,343.2741006899916,None,2021-09-24-14:20:03.005250,343.29525009999634,343.60735869999917,343.29525009999634,None,None,343.29525009999634,None,344.09055458999063,None,,,,22002,0002,2021_Sep_24_1414,localizer,2021.1.3,60.0225324590636,
,,,,,,,,,,,,,,,,,,,,,,,,,,,,,,,,,,,,,,,,,,,,,,,,,,,,,,,,,,,,,,,,,,,,,344.09072699998796,None,,,,,,,
