block_type,condition,img_name,Button.thisRepN,Button.thisTrialN,Button.thisN,Button.thisIndex,trials.thisRepN,trials.thisTrialN,trials.thisN,trials.thisIndex,Ready_experimenter_text.started,Ready_experimenter_text.stopped,Ready_experimenter_resp.keys,Ready_experimenter_resp.rt,Ready_experimenter_resp.started,Ready_experimenter_resp.stopped,Alignment_background.started,Alignment_background.stopped,Alignment_image.started,Alignment_image.stopped,Alignment_resp.keys,Alignment_resp.rt,Alignment_resp.started,Alignment_resp.stopped,Button_text.started,Button_text.stopped,Index_text.started,Index_text.stopped,Index_resp.keys,Index_resp.rt,Index_resp.started,Index_resp.stopped,Middle_text.started,Middle_text.stopped,Middle_resp.keys,Middle_resp.rt,Middle_resp.started,Middle_resp.stopped,Repeat_text.started,Repeat_text.stopped,Repeat_resp.keys,Repeat_resp.corr,Repeat_resp.rt,Repeat_resp.started,Repeat_resp.stopped,instruction_text.started,instruction_text.stopped,key_resp.keys,key_resp.rt,key_resp.started,key_resp.stopped,scanner_t.keys,scanner_t.rt,scanner_t.started,scanner_t.stopped,fixation_wait_for_t.started,fixation_wait_for_t.stopped,real_timestamp_trial_start,image.started,image.stopped,fixation.started,fixation.stopped,repeat_response.keys,repeat_response.started,repeat_response.stopped,fixation_null.started,fixation_null.stopped,repeat_response.rt,end_text.started,end_text.stopped,participant,run,date,expName,psychopyVersion,frameRate,
,,,,,,,,,,,12.132025799997791,None,return,414.39490339999975,12.132025799997791,None,,,,,,,,,,,,,,,,,,,,,,,,,,,,,,,,,,,,,,,,,,,,,,,,,,,,,,,22055,0002,2023_May_01_1451,localizer,2021.1.3,59.3671932140277,
,,,,,,,,,,,,,,,,,426.5791064999976,None,426.5791064999976,None,return,0.8745502000019769,426.5791064999976,None,,,,,,,,,,,,,,,,,,,,,,,,,,,,,,,,,,,,,,,,,,,,,,,22055,0002,2023_May_01_1451,localizer,2021.1.3,59.3671932140277,
,,,0,0,0,0,,,,,,,,,,,,,,,,,,,427.47097139999823,None,428.4703343999972,None,y,1.3435238000020036,428.4703343999972,None,429.8379496999987,None,b,3.253089699999691,429.8379496999987,None,433.10473609999826,None,n,0,1.585975199999666,433.10473609999826,None,,,,,,,,,,,,,,,,,,,,,,,,,,22055,0002,2023_May_01_1451,localizer,2021.1.3,59.3671932140277,
,,,,,,,,,,,,,,,,,,,,,,,,,,,,,,,,,,,,,,,,,,,,,,434.7224262999989,None,y,59.45847800000047,434.7224262999989,None,,,,,,,,,,,,,,,,,,,,22055,0002,2023_May_01_1451,localizer,2021.1.3,59.3671932140277,
block_start,scenes,scenes052.bmp,,,,,0,0,0,0,,,,,,,,,,,,,,,,,,,,,,,,,,,,,,,,,,,,,,,,,,t,18.803629699999874,494.2363946999976,None,494.2363946999976,None,2023-05-01-14:59:24.137893,513.0719703999966,513.3710324999993,513.0719703999966,None,None,513.0719703999966,None,513.8716719599994,None,,,,22055,0002,2023_May_01_1451,localizer,2021.1.3,59.3671932140277,
block,scenes,scenes035.bmp,,,,,0,1,1,1,,,,,,,,,,,,,,,,,,,,,,,,,,,,,,,,,,,,,,,,,,None,,513.8716719599994,None,513.8716719599994,None,2023-05-01-14:59:24.944147,513.8765578999992,514.1876961999988,513.8765578999992,513.8765578999992,None,513.8765578999992,513.8765578999992,514.6882526599999,None,,,,22055,0002,2023_May_01_1451,localizer,2021.1.3,59.3671932140277,
block,scenes,scenes021.bmp,,,,,0,2,2,2,,,,,,,,,,,,,,,,,,,,,,,,,,,,,,,,,,,,,,,,,,None,,514.6882526599999,None,514.6882526599999,None,2023-05-01-14:59:25.756740,514.6889411999982,514.9891467999987,514.6889411999982,None,None,514.6889411999982,None,515.4883088599978,None,,,,22055,0002,2023_May_01_1451,localizer,2021.1.3,59.3671932140277,
block,scenes,scenes017.bmp,,,,,0,3,3,3,,,,,,,,,,,,,,,,,,,,,,,,,,,,,,,,,,,,,,,,,,None,,515.4883088599978,None,515.4883088599978,None,2023-05-01-14:59:26.557797,515.4888852999975,515.7888068999964,515.4888852999975,515.4888852999975,None,515.4888852999975,515.4888852999975,516.2888915599993,None,,,,22055,0002,2023_May_01_1451,localizer,2021.1.3,59.3671932140277,
block,scenes,scenes037.bmp,,,,,0,4,4,4,,,,,,,,,,,,,,,,,,,,,,,,,,,,,,,,,,,,,,,,,,None,,516.2888915599993,None,516.2888915599993,None,2023-05-01-14:59:27.359234,516.303330499999,516.6044620999965,516.303330499999,516.303330499999,None,516.303330499999,516.303330499999,517.1046479599987,None,,,,22055,0002,2023_May_01_1451,localizer,2021.1.3,59.3671932140277,
block,scenes,scenes012.bmp,,,,,0,5,5,5,,,,,,,,,,,,,,,,,,,,,,,,,,,,,,,,,,,,,,,,,,None,,517.1046479599987,None,517.1046479599987,None,2023-05-01-14:59:28.172433,517.1063239999967,517.4212801999965,517.1063239999967,None,None,517.1063239999967,None,517.9214200599978,None,,,,22055,0002,2023_May_01_1451,localizer,2021.1.3,59.3671932140277,
block,scenes,scenes074.bmp,,,,,0,6,6,6,,,,,,,,,,,,,,,,,,,,,,,,,,,,,,,,,,,,,,,,,,None,,517.9214200599978,None,517.9214200599978,None,2023-05-01-14:59:28.989911,517.9324425999985,518.2378069999977,517.9324425999985,None,None,517.9324425999985,None,518.7395028599982,None,,,,22055,0002,2023_May_01_1451,localizer,2021.1.3,59.3671932140277,
block,scenes,scenes082.bmp,,,,,0,7,7,7,,,,,,,,,,,,,,,,,,,,,,,,,,,,,,,,,,,,,,,,,,None,,518.7395028599982,None,518.7395028599982,None,2023-05-01-14:59:29.809451,518.7534539999979,519.0544269999991,518.7534539999979,None,None,518.7534539999979,None,519.5548699599982,None,,,,22055,0002,2023_May_01_1451,localizer,2021.1.3,59.3671932140277,
block,scenes,scenes038.bmp,,,,,0,8,8,8,,,,,,,,,,,,,,,,,,,,,,,,,,,,,,,,,,,,,,,,,,None,,519.5548699599982,None,519.5548699599982,None,2023-05-01-14:59:30.623359,519.5556868999993,519.8546455999967,519.5556868999993,None,None,519.5556868999993,None,520.3550715599973,None,,,,22055,0002,2023_May_01_1451,localizer,2021.1.3,59.3671932140277,
block,scenes,scenes015.bmp,,,,,0,9,9,9,,,,,,,,,,,,,,,,,,,,,,,,,,,,,,,,,,,,,,,,,,None,,520.3550715599973,None,520.3550715599973,None,2023-05-01-14:59:31.424709,520.3555070999973,520.6548498999982,520.3555070999973,520.3555070999973,None,520.3555070999973,520.3555070999973,521.1546663599999,None,,,,22055,0002,2023_May_01_1451,localizer,2021.1.3,59.3671932140277,
block,scenes,scenes072.bmp,,,,,0,10,10,10,,,,,,,,,,,,,,,,,,,,,,,,,,,,,,,,,,,,,,,,,,None,,521.1546663599999,None,521.1546663599999,None,2023-05-01-14:59:32.224158,521.1645793999996,521.4712000999971,521.1645793999996,521.1645793999996,None,521.1645793999996,521.1645793999996,521.9716974599993,None,,,,22055,0002,2023_May_01_1451,localizer,2021.1.3,59.3671932140277,
block,scenes,scenes031.bmp,,,,,0,11,11,11,,,,,,,,,,,,,,,,,,,,,,,,,,,,,,,,,,,,,,,,,,None,,521.9716974599993,None,521.9716974599993,None,2023-05-01-14:59:33.040400,521.9722457999997,522.2713111999983,521.9722457999997,None,None,521.9722457999997,None,522.771372159999,None,,,,22055,0002,2023_May_01_1451,localizer,2021.1.3,59.3671932140277,
block,scenes,scenes047.bmp,,,,,0,12,12,12,,,,,,,,,,,,,,,,,,,,,,,,,,,,,,,,,,,,,,,,,,None,,522.771372159999,None,522.771372159999,None,2023-05-01-14:59:33.841856,522.7722814999979,523.0785219999998,522.7722814999979,522.7722814999979,None,522.7722814999979,522.7722814999979,523.5714891599979,None,,,,22055,0002,2023_May_01_1451,localizer,2021.1.3,59.3671932140277,
block,scenes,scenes042.bmp,,,,,0,13,13,13,,,,,,,,,,,,,,,,,,,,,,,,,,,,,,,,,,,,,,,,,,None,,523.5714891599979,None,523.5714891599979,None,2023-05-01-14:59:34.640975,523.572305499998,523.8714736999973,523.572305499998,523.572305499998,None,523.572305499998,523.572305499998,524.3721745599993,None,,,,22055,0002,2023_May_01_1451,localizer,2021.1.3,59.3671932140277,
block_end,scenes,scenes044.bmp,,,,,0,14,14,14,,,,,,,,,,,,,,,,,,,,,,,,,,,,,,,,,,,,,,,,,,None,,524.3721745599993,None,524.3721745599993,None,2023-05-01-14:59:35.442850,524.3862642999993,524.687886599997,524.3862642999993,524.3862642999993,None,524.3862642999993,524.3862642999993,525.1894853599966,None,,,,22055,0002,2023_May_01_1451,localizer,2021.1.3,59.3671932140277,
block_start,objects,objects003.bmp,,,,,0,15,15,15,,,,,,,,,,,,,,,,,,,,,,,,,,,,,,,,,,,,,,,,,,t,1.8505540000005567,525.1893182999993,None,525.1893182999993,None,2023-05-01-14:59:38.137676,527.0723439999965,527.3713363999996,527.0723439999965,None,None,527.0723439999965,None,527.8721393599968,None,,,,22055,0002,2023_May_01_1451,localizer,2021.1.3,59.3671932140277,
block,objects,objects082.bmp,,,,,0,16,16,16,,,,,,,,,,,,,,,,,,,,,,,,,,,,,,,,,,,,,,,,,,None,,527.8721393599968,None,527.8721393599968,None,2023-05-01-14:59:38.942615,527.8854396999996,528.1880778999985,527.8854396999996,527.8854396999996,None,527.8854396999996,527.8854396999996,528.688361959999,None,,,,22055,0002,2023_May_01_1451,localizer,2021.1.3,59.3671932140277,
block,objects,objects028.bmp,,,,,0,17,17,17,,,,,,,,,,,,,,,,,,,,,,,,,,,,,,,,,,,,,,,,,,None,,528.688361959999,None,528.688361959999,None,2023-05-01-14:59:39.756848,528.6890096999996,528.988333199999,528.6890096999996,None,None,528.6890096999996,None,529.4886865599998,None,,,,22055,0002,2023_May_01_1451,localizer,2021.1.3,59.3671932140277,
block,objects,objects014.bmp,,,,,0,18,18,18,,,,,,,,,,,,,,,,,,,,,,,,,,,,,,,,,,,,,,,,,,None,,529.4886865599998,None,529.4886865599998,None,2023-05-01-14:59:40.559162,529.5013121999982,529.8046076999999,529.5013121999982,529.5013121999982,None,529.5013121999982,529.5013121999982,530.3050257599986,None,,,,22055,0002,2023_May_01_1451,localizer,2021.1.3,59.3671932140277,
block,objects,objects070.bmp,,,,,0,19,19,19,,,,,,,,,,,,,,,,,,,,,,,,,,,,,,,,,,,,,,,,,,None,,530.3050257599986,None,530.3050257599986,None,2023-05-01-14:59:41.373511,530.3056975999971,530.6048379999993,530.3056975999971,None,None,530.3056975999971,None,531.1128118599969,None,,,,22055,0002,2023_May_01_1451,localizer,2021.1.3,59.3671932140277,
block,objects,objects066.bmp,,,,,0,20,20,20,,,,,,,,,,,,,,,,,,,,,,,,,,,,,,,,,,,,,,,,,,None,,531.1128118599969,None,531.1128118599969,None,2023-05-01-14:59:42.184201,531.1160645999989,531.4217215999997,531.1160645999989,None,None,531.1160645999989,None,531.9218359599996,None,,,,22055,0002,2023_May_01_1451,localizer,2021.1.3,59.3671932140277,
block,objects,objects029.bmp,,,,,0,21,21,21,,,,,,,,,,,,,,,,,,,,,,,,,,,,,,,,,,,,,,,,,,None,,531.9218359599996,None,531.9218359599996,None,2023-05-01-14:59:42.990521,531.9223937999996,532.2216076999975,531.9223937999996,None,None,531.9223937999996,None,532.7220698599973,None,,,,22055,0002,2023_May_01_1451,localizer,2021.1.3,59.3671932140277,
block,objects,objects020.bmp,,,,,0,22,22,22,,,,,,,,,,,,,,,,,,,,,,,,,,,,,,,,,,,,,,,,,,None,,532.7220698599973,None,532.7220698599973,None,2023-05-01-14:59:43.792677,532.7222249999977,533.0211657,532.7222249999977,532.7222249999977,None,532.7222249999977,532.7222249999977,533.5214816599997,None,,,,22055,0002,2023_May_01_1451,localizer,2021.1.3,59.3671932140277,
block,objects,objects069.bmp,,,,,0,23,23,23,,,,,,,,,,,,,,,,,,,,,,,,,,,,,,,,,,,,,,,,,,None,,533.5214816599997,None,533.5214816599997,None,2023-05-01-14:59:44.590971,533.5221231999967,533.8214791999999,533.5221231999967,533.5221231999967,None,533.5221231999967,533.5221231999967,534.3221305599997,None,,,,22055,0002,2023_May_01_1451,localizer,2021.1.3,59.3671932140277,
block,objects,objects065.bmp,,,,,0,24,24,24,,,,,,,,,,,,,,,,,,,,,,,,,,,,,,,,,,,,,,,,,,None,,534.3221305599997,None,534.3221305599997,None,2023-05-01-14:59:45.392792,534.3241596999978,534.638649499997,534.3241596999978,534.3241596999978,None,534.3241596999978,534.3241596999978,535.1290098599981,None,,,,22055,0002,2023_May_01_1451,localizer,2021.1.3,59.3671932140277,
block,objects,objects065.bmp,,,,,0,25,25,25,,,,,,,,,,,,,,,,,,,,,,,,,,,,,,,,,,,,,,,,,,None,,535.1290098599981,None,535.1290098599981,None,2023-05-01-14:59:46.202480,535.134452899998,535.4388400999997,535.134452899998,None,y,535.134452899998,None,535.9389330599967,None,0.5252999000003911,,,22055,0002,2023_May_01_1451,localizer,2021.1.3,59.3671932140277,
block,objects,objects081.bmp,,,,,0,26,26,26,,,,,,,,,,,,,,,,,,,,,,,,,,,,,,,,,,,,,,,,,,None,,535.9389330599967,None,535.9389330599967,None,2023-05-01-14:59:47.007431,535.9514636999993,536.2546616999971,535.9514636999993,None,None,535.9514636999993,None,536.7553581599983,None,,,,22055,0002,2023_May_01_1451,localizer,2021.1.3,59.3671932140277,
block,objects,objects036.bmp,,,,,0,27,27,27,,,,,,,,,,,,,,,,,,,,,,,,,,,,,,,,,,,,,,,,,,None,,536.7553581599983,None,536.7553581599983,None,2023-05-01-14:59:47.823839,536.7663619999985,537.0753461999993,536.7663619999985,None,None,536.7663619999985,None,537.5609604599973,None,,,,22055,0002,2023_May_01_1451,localizer,2021.1.3,59.3671932140277,
block,objects,objects054.bmp,,,,,0,28,28,28,,,,,,,,,,,,,,,,,,,,,,,,,,,,,,,,,,,,,,,,,,None,,537.5609604599973,None,537.5609604599973,None,2023-05-01-14:59:48.632366,537.573493099997,537.8881122999992,537.573493099997,None,None,537.573493099997,None,538.3719258599973,None,,,,22055,0002,2023_May_01_1451,localizer,2021.1.3,59.3671932140277,
block_end,objects,objects009.bmp,,,,,0,29,29,29,,,,,,,,,,,,,,,,,,,,,,,,,,,,,,,,,,,,,,,,,,None,,538.3719258599973,None,538.3719258599973,None,2023-05-01-14:59:49.440408,538.3723277999998,538.6718352999997,538.3723277999998,None,None,538.3723277999998,None,539.1714748599967,None,,,,22055,0002,2023_May_01_1451,localizer,2021.1.3,59.3671932140277,
null_block,null_block,null_block.bmp,,,,,0,30,30,30,,,,,,,,,,,,,,,,,,,,,,,,,,,,,,,,,,,,,,,,,,t,1.8687100000024657,539.1710811999983,None,539.1710811999983,None,2023-05-01-14:59:52.123778,541.0552942599985,None,541.0552942599985,None,None,541.0552942599985,None,541.0578948999973,None,,,,22055,0002,2023_May_01_1451,localizer,2021.1.3,59.3671932140277,
block_start,scrambled,scrambled006.bmp,,,,,0,31,31,31,,,,,,,,,,,,,,,,,,,,,,,,,,,,,,,,,,,,,,,,,,t,1.9643907999998191,553.0754018999978,None,553.0754018999978,None,2023-05-01-15:00:06.140594,555.0832478999982,555.3884360999982,555.0832478999982,None,None,555.0832478999982,None,555.8891631599996,None,,,,22055,0002,2023_May_01_1451,localizer,2021.1.3,59.3671932140277,
block,scrambled,scrambled087.bmp,,,,,0,32,32,32,,,,,,,,,,,,,,,,,,,,,,,,,,,,,,,,,,,,,,,,,,None,,555.8891631599996,None,555.8891631599996,None,2023-05-01-15:00:06.957640,555.9018939999987,556.2047636999996,555.9018939999987,None,None,555.9018939999987,None,556.7052483599997,None,,,,22055,0002,2023_May_01_1451,localizer,2021.1.3,59.3671932140277,
block,scrambled,scrambled069.bmp,,,,,0,33,33,33,,,,,,,,,,,,,,,,,,,,,,,,,,,,,,,,,,,,,,,,,,None,,556.7052483599997,None,556.7052483599997,None,2023-05-01-15:00:07.773735,556.7056840999976,557.0051671999972,556.7056840999976,None,None,556.7056840999976,None,557.5051943599989,None,,,,22055,0002,2023_May_01_1451,localizer,2021.1.3,59.3671932140277,
block,scrambled,scrambled044.bmp,,,,,0,34,34,34,,,,,,,,,,,,,,,,,,,,,,,,,,,,,,,,,,,,,,,,,,None,,557.5051943599989,None,557.5051943599989,None,2023-05-01-15:00:08.574909,557.505779199997,557.8047981999989,557.505779199997,557.505779199997,None,557.505779199997,557.505779199997,558.304925959999,None,,,,22055,0002,2023_May_01_1451,localizer,2021.1.3,59.3671932140277,
block,scrambled,scrambled002.bmp,,,,,0,35,35,35,,,,,,,,,,,,,,,,,,,,,,,,,,,,,,,,,,,,,,,,,,None,,558.304925959999,None,558.304925959999,None,2023-05-01-15:00:09.374749,558.3172085999977,558.6219541999999,558.3172085999977,558.3172085999977,None,558.3172085999977,558.3172085999977,559.1208609599977,None,,,,22055,0002,2023_May_01_1451,localizer,2021.1.3,59.3671932140277,
block,scrambled,scrambled041.bmp,,,,,0,36,36,36,,,,,,,,,,,,,,,,,,,,,,,,,,,,,,,,,,,,,,,,,,None,,559.1208609599977,None,559.1208609599977,None,2023-05-01-15:00:10.188815,559.1224038999972,559.4219693999985,559.1224038999972,None,None,559.1224038999972,None,559.922213059997,None,,,,22055,0002,2023_May_01_1451,localizer,2021.1.3,59.3671932140277,
block,scrambled,scrambled038.bmp,,,,,0,37,37,37,,,,,,,,,,,,,,,,,,,,,,,,,,,,,,,,,,,,,,,,,,None,,559.922213059997,None,559.922213059997,None,2023-05-01-15:00:10.992691,559.935533099997,560.2381652999975,559.935533099997,559.935533099997,None,559.935533099997,559.935533099997,560.73879886,None,,,,22055,0002,2023_May_01_1451,localizer,2021.1.3,59.3671932140277,
block,scrambled,scrambled059.bmp,,,,,0,38,38,38,,,,,,,,,,,,,,,,,,,,,,,,,,,,,,,,,,,,,,,,,,None,,560.73879886,None,560.73879886,None,2023-05-01-15:00:11.807281,560.7455373999983,561.0552309999985,560.7455373999983,None,None,560.7455373999983,None,561.5556141599969,None,,,,22055,0002,2023_May_01_1451,localizer,2021.1.3,59.3671932140277,
block,scrambled,scrambled012.bmp,,,,,0,39,39,39,,,,,,,,,,,,,,,,,,,,,,,,,,,,,,,,,,,,,,,,,,None,,561.5556141599969,None,561.5556141599969,None,2023-05-01-15:00:12.624645,561.5681416999978,561.8714985999977,561.5681416999978,None,None,561.5681416999978,None,562.3717748599971,None,,,,22055,0002,2023_May_01_1451,localizer,2021.1.3,59.3671932140277,
block,scrambled,scrambled023.bmp,,,,,0,40,40,40,,,,,,,,,,,,,,,,,,,,,,,,,,,,,,,,,,,,,,,,,,None,,562.3717748599971,None,562.3717748599971,None,2023-05-01-15:00:13.439493,562.3825055999987,562.6885982999993,562.3825055999987,None,None,562.3825055999987,None,563.1881665599991,None,,,,22055,0002,2023_May_01_1451,localizer,2021.1.3,59.3671932140277,
block,scrambled,scrambled003.bmp,,,,,0,41,41,41,,,,,,,,,,,,,,,,,,,,,,,,,,,,,,,,,,,,,,,,,,None,,563.1881665599991,None,563.1881665599991,None,2023-05-01-15:00:14.255709,563.1974601999973,563.5049211999976,563.1974601999973,None,y,563.1974601999973,None,564.0051798599976,None,0.5742678000024171,,,22055,0002,2023_May_01_1451,localizer,2021.1.3,59.3671932140277,
block,scrambled,scrambled029.bmp,,,,,0,42,42,42,,,,,,,,,,,,,,,,,,,,,,,,,,,,,,,,,,,,,,,,,,None,,564.0051798599976,None,564.0051798599976,None,2023-05-01-15:00:15.073670,564.0057278999993,564.3047955999973,564.0057278999993,None,None,564.0057278999993,None,564.8051714599984,None,,,,22055,0002,2023_May_01_1451,localizer,2021.1.3,59.3671932140277,
block,scrambled,scrambled053.bmp,,,,,0,43,43,43,,,,,,,,,,,,,,,,,,,,,,,,,,,,,,,,,,,,,,,,,,None,,564.8051714599984,None,564.8051714599984,None,2023-05-01-15:00:15.875649,564.805906499998,565.1241457999968,564.805906499998,564.805906499998,None,564.805906499998,564.805906499998,565.6116584600001,None,,,,22055,0002,2023_May_01_1451,localizer,2021.1.3,59.3671932140277,
block,scrambled,scrambled010.bmp,,,,,0,44,44,44,,,,,,,,,,,,,,,,,,,,,,,,,,,,,,,,,,,,,,,,,,None,,565.6116584600001,None,565.6116584600001,None,2023-05-01-15:00:16.689141,565.6295713,565.9381801999989,565.6295713,565.6295713,None,565.6295713,565.6295713,566.422487559999,None,,,,22055,0002,2023_May_01_1451,localizer,2021.1.3,59.3671932140277,
block_end,scrambled,scrambled017.bmp,,,,,0,45,45,45,,,,,,,,,,,,,,,,,,,,,,,,,,,,,,,,,,,,,,,,,,None,,566.422487559999,None,566.422487559999,None,2023-05-01-15:00:17.491145,566.4229920999969,566.7223192999991,566.4229920999969,None,None,566.4229920999969,None,567.2220269599981,None,,,,22055,0002,2023_May_01_1451,localizer,2021.1.3,59.3671932140277,
block_start,faces,faces015.bmp,,,,,0,46,46,46,,,,,,,,,,,,,,,,,,,,,,,,,,,,,,,,,,,,,,,,,,t,1.8180706000021019,567.2217527999965,None,567.2217527999965,None,2023-05-01-15:00:20.123592,569.0674227999989,569.3714130999979,569.0674227999989,None,None,569.0674227999989,None,569.8718882599984,None,,,,22055,0002,2023_May_01_1451,localizer,2021.1.3,59.3671932140277,
block,faces,faces002.bmp,,,,,0,47,47,47,,,,,,,,,,,,,,,,,,,,,,,,,,,,,,,,,,,,,,,,,,None,,569.8718882599984,None,569.8718882599984,None,2023-05-01-15:00:20.939377,569.8818390999986,570.1882264999986,569.8818390999986,None,None,569.8818390999986,None,570.6884797599974,None,,,,22055,0002,2023_May_01_1451,localizer,2021.1.3,59.3671932140277,
block,faces,faces033.bmp,,,,,0,48,48,48,,,,,,,,,,,,,,,,,,,,,,,,,,,,,,,,,,,,,,,,,,None,,570.6884797599974,None,570.6884797599974,None,2023-05-01-15:00:21.755972,570.6980378999979,571.0048412999968,570.6980378999979,None,None,570.6980378999979,None,571.5049389599968,None,,,,22055,0002,2023_May_01_1451,localizer,2021.1.3,59.3671932140277,
block,faces,faces030.bmp,,,,,0,49,49,49,,,,,,,,,,,,,,,,,,,,,,,,,,,,,,,,,,,,,,,,,,None,,571.5049389599968,None,571.5049389599968,None,2023-05-01-15:00:22.572437,571.5111940999996,571.8214941999977,571.5111940999996,None,None,571.5111940999996,None,572.3215367599965,None,,,,22055,0002,2023_May_01_1451,localizer,2021.1.3,59.3671932140277,
block,faces,faces050.bmp,,,,,0,50,50,50,,,,,,,,,,,,,,,,,,,,,,,,,,,,,,,,,,,,,,,,,,None,,572.3215367599965,None,572.3215367599965,None,2023-05-01-15:00:23.389031,572.3316189999969,572.638264199999,572.3316189999969,None,None,572.3316189999969,None,573.1276312599999,None,,,,22055,0002,2023_May_01_1451,localizer,2021.1.3,59.3671932140277,
block,faces,faces076.bmp,,,,,0,51,51,51,,,,,,,,,,,,,,,,,,,,,,,,,,,,,,,,,,,,,,,,,,None,,573.1276312599999,None,573.1276312599999,None,2023-05-01-15:00:24.199173,573.1320826999981,573.4379731999979,573.1320826999981,None,None,573.1320826999981,None,573.9387285599965,None,,,,22055,0002,2023_May_01_1451,localizer,2021.1.3,59.3671932140277,
block,faces,faces036.bmp,,,,,0,52,52,52,,,,,,,,,,,,,,,,,,,,,,,,,,,,,,,,,,,,,,,,,,None,,573.9387285599965,None,573.9387285599965,None,2023-05-01-15:00:25.007214,573.9498525999988,574.2549462999996,573.9498525999988,None,None,573.9498525999988,None,574.7555338599974,None,,,,22055,0002,2023_May_01_1451,localizer,2021.1.3,59.3671932140277,
block,faces,faces089.bmp,,,,,0,53,53,53,,,,,,,,,,,,,,,,,,,,,,,,,,,,,,,,,,,,,,,,,,None,,574.7555338599974,None,574.7555338599974,None,2023-05-01-15:00:25.823913,574.7562682999996,575.0554313999965,574.7562682999996,None,None,574.7562682999996,None,575.5557099599988,None,,,,22055,0002,2023_May_01_1451,localizer,2021.1.3,59.3671932140277,
block,faces,faces021.bmp,,,,,0,54,54,54,,,,,,,,,,,,,,,,,,,,,,,,,,,,,,,,,,,,,,,,,,None,,575.5557099599988,None,575.5557099599988,None,2023-05-01-15:00:26.627393,575.5588869999992,575.8716158999996,575.5588869999992,575.5588869999992,None,575.5588869999992,575.5588869999992,576.3726416599981,None,,,,22055,0002,2023_May_01_1451,localizer,2021.1.3,59.3671932140277,
block,faces,faces024.bmp,,,,,0,55,55,55,,,,,,,,,,,,,,,,,,,,,,,,,,,,,,,,,,,,,,,,,,None,,576.3726416599981,None,576.3726416599981,None,2023-05-01-15:00:27.441285,576.3732912999985,576.6881751999972,576.3732912999985,None,None,576.3732912999985,None,577.18837546,None,,,,22055,0002,2023_May_01_1451,localizer,2021.1.3,59.3671932140277,
block,faces,faces044.bmp,,,,,0,56,56,56,,,,,,,,,,,,,,,,,,,,,,,,,,,,,,,,,,,,,,,,,,None,,577.18837546,None,577.18837546,None,2023-05-01-15:00:28.256379,577.1988868999979,577.5049512999976,577.1988868999979,None,None,577.1988868999979,None,578.0053769599996,None,,,,22055,0002,2023_May_01_1451,localizer,2021.1.3,59.3671932140277,
block,faces,faces077.bmp,,,,,0,57,57,57,,,,,,,,,,,,,,,,,,,,,,,,,,,,,,,,,,,,,,,,,,None,,578.0053769599996,None,578.0053769599996,None,2023-05-01-15:00:29.073844,578.0170463999966,578.3216187999969,578.0170463999966,None,None,578.0170463999966,None,578.8284784599979,None,,,,22055,0002,2023_May_01_1451,localizer,2021.1.3,59.3671932140277,
block,faces,faces022.bmp,,,,,0,58,58,58,,,,,,,,,,,,,,,,,,,,,,,,,,,,,,,,,,,,,,,,,,None,,578.8284784599979,None,578.8284784599979,None,2023-05-01-15:00:29.903838,578.8457950999982,579.154861199997,578.8457950999982,None,None,578.8457950999982,None,579.6405533599988,None,,,,22055,0002,2023_May_01_1451,localizer,2021.1.3,59.3671932140277,
block,faces,faces052.bmp,,,,,0,59,59,59,,,,,,,,,,,,,,,,,,,,,,,,,,,,,,,,,,,,,,,,,,None,,579.6405533599988,None,579.6405533599988,None,2023-05-01-15:00:30.710101,579.6418328999971,579.9550302999996,579.6418328999971,None,None,579.6418328999971,None,580.4551965599982,None,,,,22055,0002,2023_May_01_1451,localizer,2021.1.3,59.3671932140277,
block_end,faces,faces039.bmp,,,,,0,60,60,60,,,,,,,,,,,,,,,,,,,,,,,,,,,,,,,,,,,,,,,,,,None,,580.4551965599982,None,580.4551965599982,None,2023-05-01-15:00:31.522727,580.456628099997,580.7715686999982,580.456628099997,None,None,580.456628099997,None,581.2557134599971,None,,,,22055,0002,2023_May_01_1451,localizer,2021.1.3,59.3671932140277,
block_start,objects,objects078.bmp,,,,,0,61,61,61,,,,,,,,,,,,,,,,,,,,,,,,,,,,,,,,,,,,,,,,,,t,1.7839089000008244,581.2560142999973,None,581.2560142999973,None,2023-05-01-15:00:34.123101,583.0653005999993,583.3717168999974,583.0653005999993,None,None,583.0653005999993,None,583.8732862599987,None,,,,22055,0002,2023_May_01_1451,localizer,2021.1.3,59.3671932140277,
block,objects,objects073.bmp,,,,,0,62,62,62,,,,,,,,,,,,,,,,,,,,,,,,,,,,,,,,,,,,,,,,,,None,,583.8732862599987,None,583.8732862599987,None,2023-05-01-15:00:34.942923,583.8738387999983,584.1883189,583.8738387999983,None,None,583.8738387999983,None,584.6889150599978,None,,,,22055,0002,2023_May_01_1451,localizer,2021.1.3,59.3671932140277,
block,objects,objects080.bmp,,,,,0,63,63,63,,,,,,,,,,,,,,,,,,,,,,,,,,,,,,,,,,,,,,,,,,None,,584.6889150599978,None,584.6889150599978,None,2023-05-01-15:00:35.757546,584.7004359999992,585.0049196,584.7004359999992,None,None,584.7004359999992,None,585.5059461599973,None,,,,22055,0002,2023_May_01_1451,localizer,2021.1.3,59.3671932140277,
block,objects,objects064.bmp,,,,,0,64,64,64,,,,,,,,,,,,,,,,,,,,,,,,,,,,,,,,,,,,,,,,,,None,,585.5059461599973,None,585.5059461599973,None,2023-05-01-15:00:36.574424,585.5063317999993,585.8054404999966,585.5063317999993,None,None,585.5063317999993,None,586.3218795599984,None,,,,22055,0002,2023_May_01_1451,localizer,2021.1.3,59.3671932140277,
block,objects,objects034.bmp,,,,,0,65,65,65,,,,,,,,,,,,,,,,,,,,,,,,,,,,,,,,,,,,,,,,,,None,,586.3218795599984,None,586.3218795599984,None,2023-05-01-15:00:37.389270,586.3235951999995,586.6292641,586.3235951999995,None,None,586.3235951999995,None,587.1384862599967,None,,,,22055,0002,2023_May_01_1451,localizer,2021.1.3,59.3671932140277,
block,objects,objects070.bmp,,,,,0,66,66,66,,,,,,,,,,,,,,,,,,,,,,,,,,,,,,,,,,,,,,,,,,None,,587.1384862599967,None,587.1384862599967,None,2023-05-01-15:00:38.205985,587.1403653999987,587.4550928999997,587.1403653999987,None,None,587.1403653999987,None,587.9554122599999,None,,,,22055,0002,2023_May_01_1451,localizer,2021.1.3,59.3671932140277,
block,objects,objects039.bmp,,,,,0,67,67,67,,,,,,,,,,,,,,,,,,,,,,,,,,,,,,,,,,,,,,,,,,None,,587.9554122599999,None,587.9554122599999,None,2023-05-01-15:00:39.024127,587.9559876999992,588.2550397999985,587.9559876999992,None,None,587.9559876999992,None,588.755497759999,None,,,,22055,0002,2023_May_01_1451,localizer,2021.1.3,59.3671932140277,
block,objects,objects044.bmp,,,,,0,68,68,68,,,,,,,,,,,,,,,,,,,,,,,,,,,,,,,,,,,,,,,,,,None,,588.755497759999,None,588.755497759999,None,2023-05-01-15:00:39.825187,588.7559837999979,589.0555689999965,588.7559837999979,588.7559837999979,None,588.7559837999979,588.7559837999979,589.5558842599982,None,,,,22055,0002,2023_May_01_1451,localizer,2021.1.3,59.3671932140277,
block,objects,objects060.bmp,,,,,0,69,69,69,,,,,,,,,,,,,,,,,,,,,,,,,,,,,,,,,,,,,,,,,,None,,589.5558842599982,None,589.5558842599982,None,2023-05-01-15:00:40.626509,589.557816499997,589.8724515999966,589.557816499997,589.557816499997,None,589.557816499997,589.557816499997,590.3727589599999,None,,,,22055,0002,2023_May_01_1451,localizer,2021.1.3,59.3671932140277,
block,objects,objects043.bmp,,,,,0,70,70,70,,,,,,,,,,,,,,,,,,,,,,,,,,,,,,,,,,,,,,,,,,None,,590.3727589599999,None,590.3727589599999,None,2023-05-01-15:00:41.442334,590.3732630999984,590.6725689999985,590.3732630999984,None,None,590.3732630999984,None,591.1733013599966,None,,,,22055,0002,2023_May_01_1451,localizer,2021.1.3,59.3671932140277,
block,objects,objects042.bmp,,,,,0,71,71,71,,,,,,,,,,,,,,,,,,,,,,,,,,,,,,,,,,,,,,,,,,None,,591.1733013599966,None,591.1733013599966,None,2023-05-01-15:00:42.243176,591.1833108999999,591.4883054999991,591.1833108999999,591.1833108999999,None,591.1833108999999,591.1833108999999,591.9892810599973,None,,,,22055,0002,2023_May_01_1451,localizer,2021.1.3,59.3671932140277,
block,objects,objects029.bmp,,,,,0,72,72,72,,,,,,,,,,,,,,,,,,,,,,,,,,,,,,,,,,,,,,,,,,None,,591.9892810599973,None,591.9892810599973,None,2023-05-01-15:00:43.057951,591.9896863999966,592.289125299998,591.9896863999966,None,None,591.9896863999966,None,592.8051385599989,None,,,,22055,0002,2023_May_01_1451,localizer,2021.1.3,59.3671932140277,
block,objects,objects058.bmp,,,,,0,73,73,73,,,,,,,,,,,,,,,,,,,,,,,,,,,,,,,,,,,,,,,,,,None,,592.8051385599989,None,592.8051385599989,None,2023-05-01-15:00:43.872635,592.8069464,593.1260412999982,592.8069464,None,None,592.8069464,None,593.6219409599995,None,,,,22055,0002,2023_May_01_1451,localizer,2021.1.3,59.3671932140277,
block,objects,objects077.bmp,,,,,0,74,74,74,,,,,,,,,,,,,,,,,,,,,,,,,,,,,,,,,,,,,,,,,,None,,593.6219409599995,None,593.6219409599995,None,2023-05-01-15:00:44.689432,593.6288586999981,593.9387209999986,593.6288586999981,None,None,593.6288586999981,None,594.4387532599991,None,,,,22055,0002,2023_May_01_1451,localizer,2021.1.3,59.3671932140277,
block_end,objects,objects021.bmp,,,,,0,75,75,75,,,,,,,,,,,,,,,,,,,,,,,,,,,,,,,,,,,,,,,,,,None,,594.4387532599991,None,594.4387532599991,None,2023-05-01-15:00:45.506565,594.4490809999988,594.7551241999972,594.4490809999988,None,None,594.4490809999988,None,595.2560382600001,None,,,,22055,0002,2023_May_01_1451,localizer,2021.1.3,59.3671932140277,
block_start,faces,faces072.bmp,,,,,0,76,76,76,,,,,,,,,,,,,,,,,,,,,,,,,,,,,,,,,,,,,,,,,,t,1.7838828999992984,595.2558936999994,None,595.2558936999994,None,2023-05-01-15:00:48.125906,597.0572394999981,597.3720854999992,597.0572394999981,None,None,597.0572394999981,None,597.8723440599985,None,,,,22055,0002,2023_May_01_1451,localizer,2021.1.3,59.3671932140277,
block,faces,faces019.bmp,,,,,0,77,77,77,,,,,,,,,,,,,,,,,,,,,,,,,,,,,,,,,,,,,,,,,,None,,597.8723440599985,None,597.8723440599985,None,2023-05-01-15:00:48.940825,597.8729808999997,598.1722292999984,597.8729808999997,None,None,597.8729808999997,None,598.6722528599981,None,,,,22055,0002,2023_May_01_1451,localizer,2021.1.3,59.3671932140277,
block,faces,faces083.bmp,,,,,0,78,78,78,,,,,,,,,,,,,,,,,,,,,,,,,,,,,,,,,,,,,,,,,,None,,598.6722528599981,None,598.6722528599981,None,2023-05-01-15:00:49.742732,598.685834099997,598.9883378999984,598.685834099997,598.685834099997,None,598.685834099997,598.685834099997,599.4887723599983,None,,,,22055,0002,2023_May_01_1451,localizer,2021.1.3,59.3671932140277,
block,faces,faces031.bmp,,,,,0,79,79,79,,,,,,,,,,,,,,,,,,,,,,,,,,,,,,,,,,,,,,,,,,None,,599.4887723599983,None,599.4887723599983,None,2023-05-01-15:00:50.557468,599.489585299998,599.7891047999983,599.489585299998,None,None,599.489585299998,None,600.2890319599989,None,,,,22055,0002,2023_May_01_1451,localizer,2021.1.3,59.3671932140277,
block,faces,faces059.bmp,,,,,0,80,80,80,,,,,,,,,,,,,,,,,,,,,,,,,,,,,,,,,,,,,,,,,,None,,600.2890319599989,None,600.2890319599989,None,2023-05-01-15:00:51.358783,600.2893113999999,600.5910509999994,600.2893113999999,600.2893113999999,None,600.2893113999999,600.2893113999999,601.0883699599996,None,,,,22055,0002,2023_May_01_1451,localizer,2021.1.3,59.3671932140277,
block,faces,faces067.bmp,,,,,0,81,81,81,,,,,,,,,,,,,,,,,,,,,,,,,,,,,,,,,,,,,,,,,,None,,601.0883699599996,None,601.0883699599996,None,2023-05-01-15:00:52.157862,601.1001656999979,601.405361699999,601.1001656999979,601.1001656999979,None,601.1001656999979,601.1001656999979,601.905450959997,None,,,,22055,0002,2023_May_01_1451,localizer,2021.1.3,59.3671932140277,
block,faces,faces085.bmp,,,,,0,82,82,82,,,,,,,,,,,,,,,,,,,,,,,,,,,,,,,,,,,,,,,,,,None,,601.905450959997,None,601.905450959997,None,2023-05-01-15:00:52.972939,601.9151867999972,602.2217743999972,601.9151867999972,None,None,601.9151867999972,None,602.7222905599971,None,,,,22055,0002,2023_May_01_1451,localizer,2021.1.3,59.3671932140277,
block,faces,faces011.bmp,,,,,0,83,83,83,,,,,,,,,,,,,,,,,,,,,,,,,,,,,,,,,,,,,,,,,,None,,602.7222905599971,None,602.7222905599971,None,2023-05-01-15:00:53.790989,602.7227366999978,603.0383941999971,602.7227366999978,None,None,602.7227366999978,None,603.522252559998,None,,,,22055,0002,2023_May_01_1451,localizer,2021.1.3,59.3671932140277,
block,faces,faces036.bmp,,,,,0,84,84,84,,,,,,,,,,,,,,,,,,,,,,,,,,,,,,,,,,,,,,,,,,None,,603.522252559998,None,603.522252559998,None,2023-05-01-15:00:54.591739,603.5228736999998,603.822406299998,603.5228736999998,603.5228736999998,None,603.5228736999998,603.5228736999998,604.3228021599986,None,,,,22055,0002,2023_May_01_1451,localizer,2021.1.3,59.3671932140277,
block,faces,faces007.bmp,,,,,0,85,85,85,,,,,,,,,,,,,,,,,,,,,,,,,,,,,,,,,,,,,,,,,,None,,604.3228021599986,None,604.3228021599986,None,2023-05-01-15:00:55.393468,604.3330623999973,604.638775899999,604.3330623999973,604.3330623999973,None,604.3330623999973,604.3330623999973,605.13855166,None,,,,22055,0002,2023_May_01_1451,localizer,2021.1.3,59.3671932140277,
block,faces,faces054.bmp,,,,,0,86,86,86,,,,,,,,,,,,,,,,,,,,,,,,,,,,,,,,,,,,,,,,,,None,,605.13855166,None,605.13855166,None,2023-05-01-15:00:56.206051,605.1475420999996,605.455760599998,605.1475420999996,None,None,605.1475420999996,None,605.9560648599996,None,,,,22055,0002,2023_May_01_1451,localizer,2021.1.3,59.3671932140277,
block,faces,faces004.bmp,,,,,0,87,87,87,,,,,,,,,,,,,,,,,,,,,,,,,,,,,,,,,,,,,,,,,,None,,605.9560648599996,None,605.9560648599996,None,2023-05-01-15:00:57.024743,605.9685377999995,606.2722182999969,605.9685377999995,None,None,605.9685377999995,None,606.7724568599966,None,,,,22055,0002,2023_May_01_1451,localizer,2021.1.3,59.3671932140277,
block,faces,faces086.bmp,,,,,0,88,88,88,,,,,,,,,,,,,,,,,,,,,,,,,,,,,,,,,,,,,,,,,,None,,606.7724568599966,None,606.7724568599966,None,2023-05-01-15:00:57.841130,606.7730101999987,607.0959956999977,606.7730101999987,None,None,606.7730101999987,None,607.5724486599989,None,,,,22055,0002,2023_May_01_1451,localizer,2021.1.3,59.3671932140277,
block,faces,faces069.bmp,,,,,0,89,89,89,,,,,,,,,,,,,,,,,,,,,,,,,,,,,,,,,,,,,,,,,,None,,607.5724486599989,None,607.5724486599989,None,2023-05-01-15:00:58.643141,607.5743613999985,607.8888957999989,607.5743613999985,607.5743613999985,None,607.5743613999985,607.5743613999985,608.3891610599982,None,,,,22055,0002,2023_May_01_1451,localizer,2021.1.3,59.3671932140277,
block_end,faces,faces027.bmp,,,,,0,90,90,90,,,,,,,,,,,,,,,,,,,,,,,,,,,,,,,,,,,,,,,,,,None,,608.3891610599982,None,608.3891610599982,None,2023-05-01-15:00:59.457830,608.3897992999991,608.6890140999967,608.3897992999991,None,None,608.3897992999991,None,609.1894881599998,None,,,,22055,0002,2023_May_01_1451,localizer,2021.1.3,59.3671932140277,
null_block,null_block,null_block.bmp,,,,,0,91,91,91,,,,,,,,,,,,,,,,,,,,,,,,,,,,,,,,,,,,,,,,,,t,1.8505942000010691,609.189642399997,None,609.189642399997,None,2023-05-01-15:01:02.129665,611.0617901599995,None,611.0617901599995,None,None,611.0617901599995,None,611.0636860999984,None,,,,22055,0002,2023_May_01_1451,localizer,2021.1.3,59.3671932140277,
block_start,scrambled,scrambled044.bmp,,,,,0,92,92,92,,,,,,,,,,,,,,,,,,,,,,,,,,,,,,,,,,,,,,,,,,t,1.968494600001577,623.0714510999969,None,623.0714510999969,None,2023-05-01-15:01:16.126272,625.0561189999971,625.3553384999977,625.0561189999971,None,None,625.0561189999971,None,625.8559416599979,None,,,,22055,0002,2023_May_01_1451,localizer,2021.1.3,59.3671932140277,
block,scrambled,scrambled076.bmp,,,,,0,93,93,93,,,,,,,,,,,,,,,,,,,,,,,,,,,,,,,,,,,,,,,,,,None,,625.8559416599979,None,625.8559416599979,None,2023-05-01-15:01:16.926631,625.8578587999982,626.1722893999977,625.8578587999982,625.8578587999982,None,625.8578587999982,625.8578587999982,626.6724130599993,None,,,,22055,0002,2023_May_01_1451,localizer,2021.1.3,59.3671932140277,
block,scrambled,scrambled067.bmp,,,,,0,94,94,94,,,,,,,,,,,,,,,,,,,,,,,,,,,,,,,,,,,,,,,,,,None,,626.6724130599993,None,626.6724130599993,None,2023-05-01-15:01:17.740897,626.6841907999988,626.9885278999973,626.6841907999988,None,None,626.6841907999988,None,627.4895944599972,None,,,,22055,0002,2023_May_01_1451,localizer,2021.1.3,59.3671932140277,
block,scrambled,scrambled003.bmp,,,,,0,95,95,95,,,,,,,,,,,,,,,,,,,,,,,,,,,,,,,,,,,,,,,,,,None,,627.4895944599972,None,627.4895944599972,None,2023-05-01-15:01:18.558252,627.489977199999,627.8052045999975,627.489977199999,None,None,627.489977199999,None,628.3055739600001,None,,,,22055,0002,2023_May_01_1451,localizer,2021.1.3,59.3671932140277,
block,scrambled,scrambled063.bmp,,,,,0,96,96,96,,,,,,,,,,,,,,,,,,,,,,,,,,,,,,,,,,,,,,,,,,None,,628.3055739600001,None,628.3055739600001,None,2023-05-01-15:01:19.373273,628.3177450999974,628.6221637999988,628.3177450999974,None,None,628.3177450999974,None,629.1220533599968,None,,,,22055,0002,2023_May_01_1451,localizer,2021.1.3,59.3671932140277,
block,scrambled,scrambled010.bmp,,,,,0,97,97,97,,,,,,,,,,,,,,,,,,,,,,,,,,,,,,,,,,,,,,,,,,None,,629.1220533599968,None,629.1220533599968,None,2023-05-01-15:01:20.189552,629.1237857999986,629.4385363999972,629.1237857999986,None,None,629.1237857999986,None,629.9388714599969,None,,,,22055,0002,2023_May_01_1451,localizer,2021.1.3,59.3671932140277,
block,scrambled,scrambled016.bmp,,,,,0,98,98,98,,,,,,,,,,,,,,,,,,,,,,,,,,,,,,,,,,,,,,,,,,None,,629.9388714599969,None,629.9388714599969,None,2023-05-01-15:01:21.007362,629.9500279999993,630.2552721999964,629.9500279999993,None,None,629.9500279999993,None,630.755643959999,None,,,,22055,0002,2023_May_01_1451,localizer,2021.1.3,59.3671932140277,
block,scrambled,scrambled058.bmp,,,,,0,99,99,99,,,,,,,,,,,,,,,,,,,,,,,,,,,,,,,,,,,,,,,,,,None,,630.755643959999,None,630.755643959999,None,2023-05-01-15:01:21.824133,630.7563735999975,631.0547679999981,630.7563735999975,None,None,630.7563735999975,None,631.5617318599994,None,,,,22055,0002,2023_May_01_1451,localizer,2021.1.3,59.3671932140277,
block,scrambled,scrambled080.bmp,,,,,0,100,100,100,,,,,,,,,,,,,,,,,,,,,,,,,,,,,,,,,,,,,,,,,,None,,631.5617318599994,None,631.5617318599994,None,2023-05-01-15:01:22.632266,631.565693499997,631.8723072999965,631.565693499997,None,None,631.565693499997,None,632.3724407599999,None,,,,22055,0002,2023_May_01_1451,localizer,2021.1.3,59.3671932140277,
block,scrambled,scrambled045.bmp,,,,,0,101,101,101,,,,,,,,,,,,,,,,,,,,,,,,,,,,,,,,,,,,,,,,,,None,,632.3724407599999,None,632.3724407599999,None,2023-05-01-15:01:23.441125,632.3871941999969,632.6887604999974,632.3871941999969,None,None,632.3871941999969,None,633.1888457599977,None,,,,22055,0002,2023_May_01_1451,localizer,2021.1.3,59.3671932140277,
block,scrambled,scrambled074.bmp,,,,,0,102,102,102,,,,,,,,,,,,,,,,,,,,,,,,,,,,,,,,,,,,,,,,,,None,,633.1888457599977,None,633.1888457599977,None,2023-05-01-15:01:24.256341,633.1990912999972,633.5052782999992,633.1990912999972,None,None,633.1990912999972,None,634.0056137599983,None,,,,22055,0002,2023_May_01_1451,localizer,2021.1.3,59.3671932140277,
block,scrambled,scrambled002.bmp,,,,,0,103,103,103,,,,,,,,,,,,,,,,,,,,,,,,,,,,,,,,,,,,,,,,,,None,,634.0056137599983,None,634.0056137599983,None,2023-05-01-15:01:25.074101,634.0061360999971,634.306870299999,634.0061360999971,None,None,634.0061360999971,None,634.8055276599968,None,,,,22055,0002,2023_May_01_1451,localizer,2021.1.3,59.3671932140277,
block,scrambled,scrambled046.bmp,,,,,0,104,104,104,,,,,,,,,,,,,,,,,,,,,,,,,,,,,,,,,,,,,,,,,,None,,634.8055276599968,None,634.8055276599968,None,2023-05-01-15:01:25.875021,634.8177151999989,635.1218571999998,634.8177151999989,634.8177151999989,None,634.8177151999989,634.8177151999989,635.6222676599988,None,,,,22055,0002,2023_May_01_1451,localizer,2021.1.3,59.3671932140277,
block,scrambled,scrambled047.bmp,,,,,0,105,105,105,,,,,,,,,,,,,,,,,,,,,,,,,,,,,,,,,,,,,,,,,,None,,635.6222676599988,None,635.6222676599988,None,2023-05-01-15:01:26.690756,635.6230651999977,635.9222274999993,635.6230651999977,None,None,635.6230651999977,None,636.422757359998,None,,,,22055,0002,2023_May_01_1451,localizer,2021.1.3,59.3671932140277,
block_end,scrambled,scrambled039.bmp,,,,,0,106,106,106,,,,,,,,,,,,,,,,,,,,,,,,,,,,,,,,,,,,,,,,,,None,,636.422757359998,None,636.422757359998,None,2023-05-01-15:01:27.493426,636.4248172999978,636.7392321999978,636.4248172999978,636.4248172999978,None,636.4248172999978,636.4248172999978,637.2394794599983,None,,,,22055,0002,2023_May_01_1451,localizer,2021.1.3,59.3671932140277,
block_start,scenes,scenes008.bmp,,,,,0,107,107,107,,,,,,,,,,,,,,,,,,,,,,,,,,,,,,,,,,,,,,,,,,t,1.7999705000001995,637.2392511999969,None,637.2392511999969,None,2023-05-01-15:01:30.123195,639.0658048999976,639.3724983999964,639.0658048999976,None,None,639.0658048999976,None,639.8728270599983,None,,,,22055,0002,2023_May_01_1451,localizer,2021.1.3,59.3671932140277,
block,scenes,scenes052.bmp,,,,,0,108,108,108,,,,,,,,,,,,,,,,,,,,,,,,,,,,,,,,,,,,,,,,,,None,,639.8728270599983,None,639.8728270599983,None,2023-05-01-15:01:30.941340,639.872910099999,640.172390599997,639.872910099999,None,None,639.872910099999,None,640.6727067599983,None,,,,22055,0002,2023_May_01_1451,localizer,2021.1.3,59.3671932140277,
block,scenes,scenes085.bmp,,,,,0,109,109,109,,,,,,,,,,,,,,,,,,,,,,,,,,,,,,,,,,,,,,,,,,None,,640.6727067599983,None,640.6727067599983,None,2023-05-01-15:01:31.743363,640.6856793999978,640.9888068999971,640.6856793999978,640.6856793999978,None,640.6856793999978,640.6856793999978,641.4889795599971,None,,,,22055,0002,2023_May_01_1451,localizer,2021.1.3,59.3671932140277,
block,scenes,scenes027.bmp,,,,,0,110,110,110,,,,,,,,,,,,,,,,,,,,,,,,,,,,,,,,,,,,,,,,,,None,,641.4889795599971,None,641.4889795599971,None,2023-05-01-15:01:32.557468,641.4898569999968,641.7887427999995,641.4898569999968,None,None,641.4898569999968,None,642.305553759999,None,,,,22055,0002,2023_May_01_1451,localizer,2021.1.3,59.3671932140277,
block,scenes,scenes087.bmp,,,,,0,111,111,111,,,,,,,,,,,,,,,,,,,,,,,,,,,,,,,,,,,,,,,,,,None,,642.305553759999,None,642.305553759999,None,2023-05-01-15:01:33.373960,642.3156810999972,642.6220740999997,642.3156810999972,None,None,642.3156810999972,None,643.1116970599993,None,,,,22055,0002,2023_May_01_1451,localizer,2021.1.3,59.3671932140277,
block,scenes,scenes087.bmp,,,,,0,112,112,112,,,,,,,,,,,,,,,,,,,,,,,,,,,,,,,,,,,,,,,,,,None,,643.1116970599993,None,643.1116970599993,None,2023-05-01-15:01:34.183239,643.1156208999964,643.4225364999984,643.1156208999964,None,None,643.1156208999964,None,643.9228752599971,None,,,,22055,0002,2023_May_01_1451,localizer,2021.1.3,59.3671932140277,
block,scenes,scenes028.bmp,,,,,0,113,113,113,,,,,,,,,,,,,,,,,,,,,,,,,,,,,,,,,,,,,,,,,,None,,643.9228752599971,None,643.9228752599971,None,2023-05-01-15:01:34.991477,643.9345854999992,644.2386657999996,643.9345854999992,None,None,643.9345854999992,None,644.7396890599972,None,,,,22055,0002,2023_May_01_1451,localizer,2021.1.3,59.3671932140277,
block,scenes,scenes084.bmp,,,,,0,114,114,114,,,,,,,,,,,,,,,,,,,,,,,,,,,,,,,,,,,,,,,,,,None,,644.7396890599972,None,644.7396890599972,None,2023-05-01-15:01:35.808167,644.7403881999999,645.0561219999981,644.7403881999999,None,None,644.7403881999999,None,645.5557021599976,None,,,,22055,0002,2023_May_01_1451,localizer,2021.1.3,59.3671932140277,
block,scenes,scenes069.bmp,,,,,0,115,115,115,,,,,,,,,,,,,,,,,,,,,,,,,,,,,,,,,,,,,,,,,,None,,645.5557021599976,None,645.5557021599976,None,2023-05-01-15:01:36.624190,645.5669600999972,645.8719332999972,645.5669600999972,None,None,645.5669600999972,None,646.3721311599999,None,,,,22055,0002,2023_May_01_1451,localizer,2021.1.3,59.3671932140277,
block,scenes,scenes070.bmp,,,,,0,116,116,116,,,,,,,,,,,,,,,,,,,,,,,,,,,,,,,,,,,,,,,,,,None,,646.3721311599999,None,646.3721311599999,None,2023-05-01-15:01:37.439630,646.3741467999971,646.6890060999976,646.3741467999971,None,None,646.3741467999971,None,647.1892511599996,None,,,,22055,0002,2023_May_01_1451,localizer,2021.1.3,59.3671932140277,
block,scenes,scenes016.bmp,,,,,0,117,117,117,,,,,,,,,,,,,,,,,,,,,,,,,,,,,,,,,,,,,,,,,,None,,647.1892511599996,None,647.1892511599996,None,2023-05-01-15:01:38.257940,647.2011121999967,647.5049590999988,647.2011121999967,None,None,647.2011121999967,None,648.0058339599979,None,,,,22055,0002,2023_May_01_1451,localizer,2021.1.3,59.3671932140277,
block,scenes,scenes079.bmp,,,,,0,118,118,118,,,,,,,,,,,,,,,,,,,,,,,,,,,,,,,,,,,,,,,,,,None,,648.0058339599979,None,648.0058339599979,None,2023-05-01-15:01:39.074254,648.0175331999999,648.3221782999972,648.0175331999999,None,None,648.0175331999999,None,648.8226790599998,None,,,,22055,0002,2023_May_01_1451,localizer,2021.1.3,59.3671932140277,
block,scenes,scenes081.bmp,,,,,0,119,119,119,,,,,,,,,,,,,,,,,,,,,,,,,,,,,,,,,,,,,,,,,,None,,648.8226790599998,None,648.8226790599998,None,2023-05-01-15:01:39.891377,648.8233907999966,649.1386680999967,648.8233907999966,None,None,648.8233907999966,None,649.6391336599969,None,,,,22055,0002,2023_May_01_1451,localizer,2021.1.3,59.3671932140277,
block,scenes,scenes041.bmp,,,,,0,120,120,120,,,,,,,,,,,,,,,,,,,,,,,,,,,,,,,,,,,,,,,,,,None,,649.6391336599969,None,649.6391336599969,None,2023-05-01-15:01:40.707661,649.6505834999989,649.955506899998,649.6505834999989,None,None,649.6505834999989,None,650.4558720599977,None,,,,22055,0002,2023_May_01_1451,localizer,2021.1.3,59.3671932140277,
block_end,scenes,scenes057.bmp,,,,,0,121,121,121,,,,,,,,,,,,,,,,,,,,,,,,,,,,,,,,,,,,,,,,,,None,,650.4558720599977,None,650.4558720599977,None,2023-05-01-15:01:41.524573,650.4684755999988,650.7724404999972,650.4684755999988,None,None,650.4684755999988,None,651.272288859998,None,,,,22055,0002,2023_May_01_1451,localizer,2021.1.3,59.3671932140277,
block_start,faces,faces077.bmp,,,,,0,122,122,122,,,,,,,,,,,,,,,,,,,,,,,,,,,,,,,,,,,,,,,,,,t,1.7667016999985208,651.2721244999993,None,651.2721244999993,None,2023-05-01-15:01:44.124052,653.0570635999975,653.3720718999975,653.0570635999975,None,None,653.0570635999975,None,653.8726127599999,None,,,,22055,0002,2023_May_01_1451,localizer,2021.1.3,59.3671932140277,
block,faces,faces040.bmp,,,,,0,123,123,123,,,,,,,,,,,,,,,,,,,,,,,,,,,,,,,,,,,,,,,,,,None,,653.8726127599999,None,653.8726127599999,None,2023-05-01-15:01:44.941309,653.8845522999982,654.1888577999998,653.8845522999982,None,None,653.8845522999982,None,654.6903593599978,None,,,,22055,0002,2023_May_01_1451,localizer,2021.1.3,59.3671932140277,
block,faces,faces024.bmp,,,,,0,124,124,124,,,,,,,,,,,,,,,,,,,,,,,,,,,,,,,,,,,,,,,,,,None,,654.6903593599978,None,654.6903593599978,None,2023-05-01-15:01:45.759376,654.6917157999997,655.0054651999999,654.6917157999997,None,None,654.6917157999997,None,655.505692559998,None,,,,22055,0002,2023_May_01_1451,localizer,2021.1.3,59.3671932140277,
block,faces,faces073.bmp,,,,,0,125,125,125,,,,,,,,,,,,,,,,,,,,,,,,,,,,,,,,,,,,,,,,,,None,,655.505692559998,None,655.505692559998,None,2023-05-01-15:01:46.574181,655.5066136999994,655.8055709,655.5066136999994,None,None,655.5066136999994,None,656.3058332599991,None,,,,22055,0002,2023_May_01_1451,localizer,2021.1.3,59.3671932140277,
block,faces,faces014.bmp,,,,,0,126,126,126,,,,,,,,,,,,,,,,,,,,,,,,,,,,,,,,,,,,,,,,,,None,,656.3058332599991,None,656.3058332599991,None,2023-05-01-15:01:47.374566,656.3175612999985,656.622019399998,656.3175612999985,656.3175612999985,None,656.3175612999985,656.3175612999985,657.1225415599998,None,,,,22055,0002,2023_May_01_1451,localizer,2021.1.3,59.3671932140277,
block,faces,faces018.bmp,,,,,0,127,127,127,,,,,,,,,,,,,,,,,,,,,,,,,,,,,,,,,,,,,,,,,,None,,657.1225415599998,None,657.1225415599998,None,2023-05-01-15:01:48.191028,657.1231317999991,657.4225217999992,657.1231317999991,None,None,657.1231317999991,None,657.9223369599982,None,,,,22055,0002,2023_May_01_1451,localizer,2021.1.3,59.3671932140277,
block,faces,faces021.bmp,,,,,0,128,128,128,,,,,,,,,,,,,,,,,,,,,,,,,,,,,,,,,,,,,,,,,,None,,657.9223369599982,None,657.9223369599982,None,2023-05-01-15:01:48.992817,657.9229825999973,658.2223110999985,657.9229825999973,657.9229825999973,None,657.9229825999973,657.9229825999973,658.7225230599994,None,,,,22055,0002,2023_May_01_1451,localizer,2021.1.3,59.3671932140277,
block,faces,faces001.bmp,,,,,0,129,129,129,,,,,,,,,,,,,,,,,,,,,,,,,,,,,,,,,,,,,,,,,,None,,658.7225230599994,None,658.7225230599994,None,2023-05-01-15:01:49.793003,658.7355773999989,659.0388687999985,658.7355773999989,658.7355773999989,None,658.7355773999989,658.7355773999989,659.5390017599981,None,,,,22055,0002,2023_May_01_1451,localizer,2021.1.3,59.3671932140277,
block,faces,faces080.bmp,,,,,0,130,130,130,,,,,,,,,,,,,,,,,,,,,,,,,,,,,,,,,,,,,,,,,,None,,659.5390017599981,None,659.5390017599981,None,2023-05-01-15:01:50.607488,659.5529404999979,659.8554139999978,659.5529404999979,None,None,659.5529404999979,None,660.3562776599989,None,,,,22055,0002,2023_May_01_1451,localizer,2021.1.3,59.3671932140277,
block,faces,faces020.bmp,,,,,0,131,131,131,,,,,,,,,,,,,,,,,,,,,,,,,,,,,,,,,,,,,,,,,,None,,660.3562776599989,None,660.3562776599989,None,2023-05-01-15:01:51.427121,660.3591680999998,660.6720518999973,660.3591680999998,None,None,660.3591680999998,None,661.1737343599976,None,,,,22055,0002,2023_May_01_1451,localizer,2021.1.3,59.3671932140277,
block,faces,faces019.bmp,,,,,0,132,132,132,,,,,,,,,,,,,,,,,,,,,,,,,,,,,,,,,,,,,,,,,,None,,661.1737343599976,None,661.1737343599976,None,2023-05-01-15:01:52.244377,661.1827102999996,661.4892039999977,661.1827102999996,None,None,661.1827102999996,None,661.988894159998,None,,,,22055,0002,2023_May_01_1451,localizer,2021.1.3,59.3671932140277,
block,faces,faces023.bmp,,,,,0,133,133,133,,,,,,,,,,,,,,,,,,,,,,,,,,,,,,,,,,,,,,,,,,None,,661.988894159998,None,661.988894159998,None,2023-05-01-15:01:53.057384,662.0005373999993,662.3059190999993,662.0005373999993,None,None,662.0005373999993,None,662.806064359998,None,,,,22055,0002,2023_May_01_1451,localizer,2021.1.3,59.3671932140277,
block,faces,faces063.bmp,,,,,0,134,134,134,,,,,,,,,,,,,,,,,,,,,,,,,,,,,,,,,,,,,,,,,,None,,662.806064359998,None,662.806064359998,None,2023-05-01-15:01:53.875599,662.8186868999983,663.1220839999987,662.8186868999983,None,None,662.8186868999983,None,663.6231768599988,None,,,,22055,0002,2023_May_01_1451,localizer,2021.1.3,59.3671932140277,
block,faces,faces022.bmp,,,,,0,135,135,135,,,,,,,,,,,,,,,,,,,,,,,,,,,,,,,,,,,,,,,,,,None,,663.6231768599988,None,663.6231768599988,None,2023-05-01-15:01:54.692858,663.6252281999987,663.9394956999968,663.6252281999987,None,None,663.6252281999987,None,664.4396997599994,None,,,,22055,0002,2023_May_01_1451,localizer,2021.1.3,59.3671932140277,
block_end,faces,faces041.bmp,,,,,0,136,136,136,,,,,,,,,,,,,,,,,,,,,,,,,,,,,,,,,,,,,,,,,,None,,664.4396997599994,None,664.4396997599994,None,2023-05-01-15:01:55.509354,664.4541244999964,664.7556357999965,664.4541244999964,None,None,664.4541244999964,None,665.25700096,None,,,,22055,0002,2023_May_01_1451,localizer,2021.1.3,59.3671932140277,
block_start,scenes,scenes080.bmp,,,,,0,137,137,137,,,,,,,,,,,,,,,,,,,,,,,,,,,,,,,,,,,,,,,,,,t,1.782107899998664,665.2567221999998,None,665.2567221999998,None,2023-05-01-15:01:58.123601,667.0565098999978,667.3567465999986,667.0565098999978,None,None,667.0565098999978,None,667.8570131599969,None,,,,22055,0002,2023_May_01_1451,localizer,2021.1.3,59.3671932140277,
block,scenes,scenes028.bmp,,,,,0,138,138,138,,,,,,,,,,,,,,,,,,,,,,,,,,,,,,,,,,,,,,,,,,None,,667.8570131599969,None,667.8570131599969,None,2023-05-01-15:01:58.929664,667.8622325999968,668.1726715999976,667.8622325999968,667.8622325999968,None,667.8622325999968,667.8622325999968,668.6729714599984,None,,,,22055,0002,2023_May_01_1451,localizer,2021.1.3,59.3671932140277,
block,scenes,scenes065.bmp,,,,,0,139,139,139,,,,,,,,,,,,,,,,,,,,,,,,,,,,,,,,,,,,,,,,,,None,,668.6729714599984,None,668.6729714599984,None,2023-05-01-15:01:59.742637,668.6733581999979,668.9785574999987,668.6733581999979,None,None,668.6733581999979,None,669.4723767599986,None,,,,22055,0002,2023_May_01_1451,localizer,2021.1.3,59.3671932140277,
block,scenes,scenes090.bmp,,,,,0,140,140,140,,,,,,,,,,,,,,,,,,,,,,,,,,,,,,,,,,,,,,,,,,None,,669.4723767599986,None,669.4723767599986,None,2023-05-01-15:02:00.541865,669.4731550999968,669.7888738999973,669.4731550999968,669.4731550999968,None,669.4731550999968,669.4731550999968,670.2725286599976,None,,,,22055,0002,2023_May_01_1451,localizer,2021.1.3,59.3671932140277,
block,scenes,scenes038.bmp,,,,,0,141,141,141,,,,,,,,,,,,,,,,,,,,,,,,,,,,,,,,,,,,,,,,,,None,,670.2725286599976,None,670.2725286599976,None,2023-05-01-15:02:01.343124,670.2741073999969,670.5889862999975,670.2741073999969,670.2741073999969,None,670.2741073999969,670.2741073999969,671.0894007599978,None,,,,22055,0002,2023_May_01_1451,localizer,2021.1.3,59.3671932140277,
block,scenes,scenes027.bmp,,,,,0,142,142,142,,,,,,,,,,,,,,,,,,,,,,,,,,,,,,,,,,,,,,,,,,None,,671.0894007599978,None,671.0894007599978,None,2023-05-01-15:02:02.164881,671.1000745999991,671.4059860999987,671.1000745999991,None,None,671.1000745999991,None,671.9060465599993,None,,,,22055,0002,2023_May_01_1451,localizer,2021.1.3,59.3671932140277,
block,scenes,scenes001.bmp,,,,,0,143,143,143,,,,,,,,,,,,,,,,,,,,,,,,,,,,,,,,,,,,,,,,,,None,,671.9060465599993,None,671.9060465599993,None,2023-05-01-15:02:02.975526,671.918935499998,672.2226225999984,671.918935499998,None,None,671.918935499998,None,672.7225391599983,None,,,,22055,0002,2023_May_01_1451,localizer,2021.1.3,59.3671932140277,
block,scenes,scenes067.bmp,,,,,0,144,144,144,,,,,,,,,,,,,,,,,,,,,,,,,,,,,,,,,,,,,,,,,,None,,672.7225391599983,None,672.7225391599983,None,2023-05-01-15:02:03.792000,672.7233468999984,673.022556099997,672.7233468999984,None,None,672.7233468999984,None,673.5224973599994,None,,,,22055,0002,2023_May_01_1451,localizer,2021.1.3,59.3671932140277,
block,scenes,scenes073.bmp,,,,,0,145,145,145,,,,,,,,,,,,,,,,,,,,,,,,,,,,,,,,,,,,,,,,,,None,,673.5224973599994,None,673.5224973599994,None,2023-05-01-15:02:04.593216,673.5392052999996,673.8389379,673.5392052999996,673.5392052999996,None,673.5392052999996,673.5392052999996,674.3391293599976,None,,,,22055,0002,2023_May_01_1451,localizer,2021.1.3,59.3671932140277,
block,scenes,scenes007.bmp,,,,,0,146,146,146,,,,,,,,,,,,,,,,,,,,,,,,,,,,,,,,,,,,,,,,,,None,,674.3391293599976,None,674.3391293599976,None,2023-05-01-15:02:05.406664,674.355312599997,674.656246399998,674.355312599997,None,None,674.355312599997,None,675.1557086599984,None,,,,22055,0002,2023_May_01_1451,localizer,2021.1.3,59.3671932140277,
block,scenes,scenes003.bmp,,,,,0,147,147,147,,,,,,,,,,,,,,,,,,,,,,,,,,,,,,,,,,,,,,,,,,None,,675.1557086599984,None,675.1557086599984,None,2023-05-01-15:02:06.223204,675.1660559999982,675.4723386999976,675.1660559999982,None,None,675.1660559999982,None,675.9731266599971,None,,,,22055,0002,2023_May_01_1451,localizer,2021.1.3,59.3671932140277,
block,scenes,scenes053.bmp,,,,,0,148,148,148,,,,,,,,,,,,,,,,,,,,,,,,,,,,,,,,,,,,,,,,,,None,,675.9731266599971,None,675.9731266599971,None,2023-05-01-15:02:07.041781,675.9740079999974,676.2890795999992,675.9740079999974,None,None,675.9740079999974,None,676.7891903599972,None,,,,22055,0002,2023_May_01_1451,localizer,2021.1.3,59.3671932140277,
block,scenes,scenes024.bmp,,,,,0,149,149,149,,,,,,,,,,,,,,,,,,,,,,,,,,,,,,,,,,,,,,,,,,None,,676.7891903599972,None,676.7891903599972,None,2023-05-01-15:02:07.857765,676.800893399999,677.1056188999974,676.800893399999,None,None,676.800893399999,None,677.6058905599981,None,,,,22055,0002,2023_May_01_1451,localizer,2021.1.3,59.3671932140277,
block,scenes,scenes017.bmp,,,,,0,150,150,150,,,,,,,,,,,,,,,,,,,,,,,,,,,,,,,,,,,,,,,,,,None,,677.6058905599981,None,677.6058905599981,None,2023-05-01-15:02:08.674460,677.6066989999999,677.9057092999974,677.6066989999999,None,None,677.6066989999999,None,678.405914659999,None,,,,22055,0002,2023_May_01_1451,localizer,2021.1.3,59.3671932140277,
block_end,scenes,scenes060.bmp,,,,,0,151,151,151,,,,,,,,,,,,,,,,,,,,,,,,,,,,,,,,,,,,,,,,,,None,,678.405914659999,None,678.405914659999,None,2023-05-01-15:02:09.475401,678.4196101999987,678.7223887,678.4196101999987,678.4196101999987,None,678.4196101999987,678.4196101999987,679.2224990599985,None,,,,22055,0002,2023_May_01_1451,localizer,2021.1.3,59.3671932140277,
block_start,scrambled,scrambled043.bmp,,,,,0,152,152,152,,,,,,,,,,,,,,,,,,,,,,,,,,,,,,,,,,,,,,,,,,t,1.8167332999983046,679.2222511,None,679.2222511,None,2023-05-01-15:02:12.124522,681.0564845999979,681.3556174999976,681.0564845999979,None,None,681.0564845999979,None,681.8560129599988,None,,,,22055,0002,2023_May_01_1451,localizer,2021.1.3,59.3671932140277,
block,scrambled,scrambled013.bmp,,,,,0,153,153,153,,,,,,,,,,,,,,,,,,,,,,,,,,,,,,,,,,,,,,,,,,None,,681.8560129599988,None,681.8560129599988,None,2023-05-01-15:02:12.925500,681.8565840999981,682.1554782999992,681.8565840999981,681.8565840999981,None,681.8565840999981,681.8565840999981,682.6560169599994,None,,,,22055,0002,2023_May_01_1451,localizer,2021.1.3,59.3671932140277,
block,scrambled,scrambled077.bmp,,,,,0,154,154,154,,,,,,,,,,,,,,,,,,,,,,,,,,,,,,,,,,,,,,,,,,None,,682.6560169599994,None,682.6560169599994,None,2023-05-01-15:02:13.726501,682.6695775999979,682.9724178999968,682.6695775999979,682.6695775999979,None,682.6695775999979,682.6695775999979,683.4729391599991,None,,,,22055,0002,2023_May_01_1451,localizer,2021.1.3,59.3671932140277,
block,scrambled,scrambled031.bmp,,,,,0,155,155,155,,,,,,,,,,,,,,,,,,,,,,,,,,,,,,,,,,,,,,,,,,None,,683.4729391599991,None,683.4729391599991,None,2023-05-01-15:02:14.540461,683.4732846999977,683.7722847999976,683.4732846999977,None,None,683.4732846999977,None,684.2725255599995,None,,,,22055,0002,2023_May_01_1451,localizer,2021.1.3,59.3671932140277,
block,scrambled,scrambled034.bmp,,,,,0,156,156,156,,,,,,,,,,,,,,,,,,,,,,,,,,,,,,,,,,,,,,,,,,None,,684.2725255599995,None,684.2725255599995,None,2023-05-01-15:02:15.343009,684.2854255999991,684.5889244999998,684.2854255999991,684.2854255999991,None,684.2854255999991,684.2854255999991,685.0932533599968,None,,,,22055,0002,2023_May_01_1451,localizer,2021.1.3,59.3671932140277,
block,scrambled,scrambled037.bmp,,,,,0,157,157,157,,,,,,,,,,,,,,,,,,,,,,,,,,,,,,,,,,,,,,,,,,None,,685.0932533599968,None,685.0932533599968,None,2023-05-01-15:02:16.169681,685.1030128999992,685.4070252999991,685.1030128999992,None,None,685.1030128999992,None,685.9058380599978,None,,,,22055,0002,2023_May_01_1451,localizer,2021.1.3,59.3671932140277,
block,scrambled,scrambled004.bmp,,,,,0,158,158,158,,,,,,,,,,,,,,,,,,,,,,,,,,,,,,,,,,,,,,,,,,None,,685.9058380599978,None,685.9058380599978,None,2023-05-01-15:02:16.974327,685.9068180999966,686.2223792999976,685.9068180999966,None,None,685.9068180999966,None,686.7058963599972,None,,,,22055,0002,2023_May_01_1451,localizer,2021.1.3,59.3671932140277,
block,scrambled,scrambled075.bmp,,,,,0,159,159,159,,,,,,,,,,,,,,,,,,,,,,,,,,,,,,,,,,,,,,,,,,None,,686.7058963599972,None,686.7058963599972,None,2023-05-01-15:02:17.775380,686.7065221999983,687.0057478999988,686.7065221999983,686.7065221999983,None,686.7065221999983,686.7065221999983,687.5061979599974,None,,,,22055,0002,2023_May_01_1451,localizer,2021.1.3,59.3671932140277,
block,scrambled,scrambled012.bmp,,,,,0,160,160,160,,,,,,,,,,,,,,,,,,,,,,,,,,,,,,,,,,,,,,,,,,None,,687.5061979599974,None,687.5061979599974,None,2023-05-01-15:02:18.576678,687.5078240999974,687.8226251999986,687.5078240999974,687.5078240999974,None,687.5078240999974,687.5078240999974,688.322660059997,None,,,,22055,0002,2023_May_01_1451,localizer,2021.1.3,59.3671932140277,
block,scrambled,scrambled008.bmp,,,,,0,161,161,161,,,,,,,,,,,,,,,,,,,,,,,,,,,,,,,,,,,,,,,,,,None,,688.322660059997,None,688.322660059997,None,2023-05-01-15:02:19.391422,688.3231895999998,688.6226961999964,688.3231895999998,None,y,688.3231895999998,None,689.1224471599977,None,0.6574441000011575,,,22055,0002,2023_May_01_1451,localizer,2021.1.3,59.3671932140277,
block,scrambled,scrambled061.bmp,,,,,0,162,162,162,,,,,,,,,,,,,,,,,,,,,,,,,,,,,,,,,,,,,,,,,,None,,689.1224471599977,None,689.1224471599977,None,2023-05-01-15:02:20.190943,689.1323941999981,689.4390458999987,689.1323941999981,689.1323941999981,None,689.1323941999981,689.1323941999981,689.939916359997,None,,,,22055,0002,2023_May_01_1451,localizer,2021.1.3,59.3671932140277,
block,scrambled,scrambled026.bmp,,,,,0,163,163,163,,,,,,,,,,,,,,,,,,,,,,,,,,,,,,,,,,,,,,,,,,None,,689.939916359997,None,689.939916359997,None,2023-05-01-15:02:21.008495,689.9404899999972,690.2555903999964,689.9404899999972,None,None,689.9404899999972,None,690.755889059999,None,,,,22055,0002,2023_May_01_1451,localizer,2021.1.3,59.3671932140277,
block,scrambled,scrambled074.bmp,,,,,0,164,164,164,,,,,,,,,,,,,,,,,,,,,,,,,,,,,,,,,,,,,,,,,,None,,690.755889059999,None,690.755889059999,None,2023-05-01-15:02:21.824381,690.7566746999983,691.0722076999991,690.7566746999983,None,None,690.7566746999983,None,691.5559337599967,None,,,,22055,0002,2023_May_01_1451,localizer,2021.1.3,59.3671932140277,
block,scrambled,scrambled074.bmp,,,,,0,165,165,165,,,,,,,,,,,,,,,,,,,,,,,,,,,,,,,,,,,,,,,,,,None,,691.5559337599967,None,691.5559337599967,None,2023-05-01-15:02:22.626649,691.5570671999994,691.8721747999989,691.5570671999994,691.5570671999994,y,691.5570671999994,691.5570671999994,692.372511559997,None,0.6936979999991308,,,22055,0002,2023_May_01_1451,localizer,2021.1.3,59.3671932140277,
block_end,scrambled,scrambled018.bmp,,,,,0,166,166,166,,,,,,,,,,,,,,,,,,,,,,,,,,,,,,,,,,,,,,,,,,None,,692.372511559997,None,692.372511559997,None,2023-05-01-15:02:23.440289,692.3850748999976,692.6888056999996,692.3850748999976,None,None,692.3850748999976,None,693.1889680599976,None,,,,22055,0002,2023_May_01_1451,localizer,2021.1.3,59.3671932140277,
null_block,null_block,null_block.bmp,,,,,0,167,167,167,,,,,,,,,,,,,,,,,,,,,,,,,,,,,,,,,,,,,,,,,,t,1.8501183000007586,693.1887966999966,None,693.1887966999966,None,2023-05-01-15:02:26.123735,695.0562447599965,None,695.0562447599965,None,None,695.0562447599965,None,695.0657686999984,None,,,,22055,0002,2023_May_01_1451,localizer,2021.1.3,59.3671932140277,
block_start,objects,objects004.bmp,,,,,0,168,168,168,,,,,,,,,,,,,,,,,,,,,,,,,,,,,,,,,,,,,,,,,,t,1.9600977999980387,707.078758599997,None,707.078758599997,None,2023-05-01-15:02:40.127333,709.0696229999994,709.3722839999973,709.0696229999994,None,None,709.0696229999994,None,709.8726982599998,None,,,,22055,0002,2023_May_01_1451,localizer,2021.1.3,59.3671932140277,
block,objects,objects082.bmp,,,,,0,169,169,169,,,,,,,,,,,,,,,,,,,,,,,,,,,,,,,,,,,,,,,,,,None,,709.8726982599998,None,709.8726982599998,None,2023-05-01-15:02:40.941187,709.8735038999985,710.1722818999988,709.8735038999985,None,None,709.8735038999985,None,710.6730445599984,None,,,,22055,0002,2023_May_01_1451,localizer,2021.1.3,59.3671932140277,
block,objects,objects006.bmp,,,,,0,170,170,170,,,,,,,,,,,,,,,,,,,,,,,,,,,,,,,,,,,,,,,,,,None,,710.6730445599984,None,710.6730445599984,None,2023-05-01-15:02:41.743731,710.6881224999997,710.9892423999991,710.6881224999997,710.6881224999997,None,710.6881224999997,710.6881224999997,711.4892926599983,None,,,,22055,0002,2023_May_01_1451,localizer,2021.1.3,59.3671932140277,
block,objects,objects068.bmp,,,,,0,171,171,171,,,,,,,,,,,,,,,,,,,,,,,,,,,,,,,,,,,,,,,,,,None,,711.4892926599983,None,711.4892926599983,None,2023-05-01-15:02:42.557784,711.4900219999981,711.7890975999981,711.4900219999981,None,None,711.4900219999981,None,712.2893047599988,None,,,,22055,0002,2023_May_01_1451,localizer,2021.1.3,59.3671932140277,
block,objects,objects072.bmp,,,,,0,172,172,172,,,,,,,,,,,,,,,,,,,,,,,,,,,,,,,,,,,,,,,,,,None,,712.2893047599988,None,712.2893047599988,None,2023-05-01-15:02:43.359788,712.3021178999988,712.6058330999986,712.3021178999988,712.3021178999988,None,712.3021178999988,712.3021178999988,713.1059644599969,None,,,,22055,0002,2023_May_01_1451,localizer,2021.1.3,59.3671932140277,
block,objects,objects071.bmp,,,,,0,173,173,173,,,,,,,,,,,,,,,,,,,,,,,,,,,,,,,,,,,,,,,,,,None,,713.1059644599969,None,713.1059644599969,None,2023-05-01-15:02:44.173463,713.1152013999999,713.422480199999,713.1152013999999,None,None,713.1152013999999,None,713.9225599599973,None,,,,22055,0002,2023_May_01_1451,localizer,2021.1.3,59.3671932140277,
block,objects,objects085.bmp,,,,,0,174,174,174,,,,,,,,,,,,,,,,,,,,,,,,,,,,,,,,,,,,,,,,,,None,,713.9225599599973,None,713.9225599599973,None,2023-05-01-15:02:44.991030,713.9234247999993,714.2227819999971,713.9234247999993,None,None,713.9234247999993,None,714.7229917599994,None,,,,22055,0002,2023_May_01_1451,localizer,2021.1.3,59.3671932140277,
block,objects,objects084.bmp,,,,,0,175,175,175,,,,,,,,,,,,,,,,,,,,,,,,,,,,,,,,,,,,,,,,,,None,,714.7229917599994,None,714.7229917599994,None,2023-05-01-15:02:45.793582,714.7380877999967,715.0389508999979,714.7380877999967,714.7380877999967,None,714.7380877999967,714.7380877999967,715.5393288599968,None,,,,22055,0002,2023_May_01_1451,localizer,2021.1.3,59.3671932140277,
block,objects,objects063.bmp,,,,,0,176,176,176,,,,,,,,,,,,,,,,,,,,,,,,,,,,,,,,,,,,,,,,,,None,,715.5393288599968,None,715.5393288599968,None,2023-05-01-15:02:46.607818,715.5400917999978,715.8391723999994,715.5400917999978,None,None,715.5400917999978,None,716.3392944599997,None,,,,22055,0002,2023_May_01_1451,localizer,2021.1.3,59.3671932140277,
block,objects,objects043.bmp,,,,,0,177,177,177,,,,,,,,,,,,,,,,,,,,,,,,,,,,,,,,,,,,,,,,,,None,,716.3392944599997,None,716.3392944599997,None,2023-05-01-15:02:47.408782,716.3399219999992,716.6391526999978,716.3399219999992,716.3399219999992,None,716.3399219999992,716.3399219999992,717.140719659999,None,,,,22055,0002,2023_May_01_1451,localizer,2021.1.3,59.3671932140277,
block,objects,objects074.bmp,,,,,0,178,178,178,,,,,,,,,,,,,,,,,,,,,,,,,,,,,,,,,,,,,,,,,,None,,717.140719659999,None,717.140719659999,None,2023-05-01-15:02:48.211404,717.1422913999995,717.4623373999966,717.1422913999995,717.1422913999995,None,717.1422913999995,717.1422913999995,717.9563224599966,None,,,,22055,0002,2023_May_01_1451,localizer,2021.1.3,59.3671932140277,
block,objects,objects083.bmp,,,,,0,179,179,179,,,,,,,,,,,,,,,,,,,,,,,,,,,,,,,,,,,,,,,,,,None,,717.9563224599966,None,717.9563224599966,None,2023-05-01-15:02:49.024805,717.9680376999968,718.2725506999996,717.9680376999968,None,None,717.9680376999968,None,718.7726778599987,None,,,,22055,0002,2023_May_01_1451,localizer,2021.1.3,59.3671932140277,
block,objects,objects077.bmp,,,,,0,180,180,180,,,,,,,,,,,,,,,,,,,,,,,,,,,,,,,,,,,,,,,,,,None,,718.7726778599987,None,718.7726778599987,None,2023-05-01-15:02:49.841166,718.7735963999985,719.0722991999974,718.7735963999985,None,None,718.7735963999985,None,719.5727439599992,None,,,,22055,0002,2023_May_01_1451,localizer,2021.1.3,59.3671932140277,
block,objects,objects066.bmp,,,,,0,181,181,181,,,,,,,,,,,,,,,,,,,,,,,,,,,,,,,,,,,,,,,,,,None,,719.5727439599992,None,719.5727439599992,None,2023-05-01-15:02:50.643229,719.5733512999977,719.8724559999973,719.5733512999977,719.5733512999977,None,719.5733512999977,719.5733512999977,720.3726550599982,None,,,,22055,0002,2023_May_01_1451,localizer,2021.1.3,59.3671932140277,
block_end,objects,objects017.bmp,,,,,0,182,182,182,,,,,,,,,,,,,,,,,,,,,,,,,,,,,,,,,,,,,,,,,,None,,720.3726550599982,None,720.3726550599982,None,2023-05-01-15:02:51.442142,720.3845746999978,720.6887841999996,720.3845746999978,720.3845746999978,None,720.3845746999978,720.3845746999978,721.189171159998,None,,,,22055,0002,2023_May_01_1451,localizer,2021.1.3,59.3671932140277,
null_block,null_block,null_block.bmp,,,,,0,183,183,183,,,,,,,,,,,,,,,,,,,,,,,,,,,,,,,,,,,,,,,,,,t,1.8496610000001965,721.1891069999983,None,721.1891069999983,None,2023-05-01-15:02:54.121935,723.0556255600001,None,723.0556255600001,None,None,723.0556255600001,None,723.0556927999969,None,,,,22055,0002,2023_May_01_1451,localizer,2021.1.3,59.3671932140277,
block_start,objects,objects029.bmp,,,,,0,184,184,184,,,,,,,,,,,,,,,,,,,,,,,,,,,,,,,,,,,,,,,,,,t,1.982573900000716,735.0562144999967,None,735.0562144999967,None,2023-05-01-15:03:08.127423,737.0588898999995,737.372771899998,737.0588898999995,None,None,737.0588898999995,None,737.873215459998,None,,,,22055,0002,2023_May_01_1451,localizer,2021.1.3,59.3671932140277,
block,objects,objects072.bmp,,,,,0,185,185,185,,,,,,,,,,,,,,,,,,,,,,,,,,,,,,,,,,,,,,,,,,None,,737.873215459998,None,737.873215459998,None,2023-05-01-15:03:08.941698,737.8735359999991,738.1723372999986,737.8735359999991,None,None,737.8735359999991,None,738.6727430599982,None,,,,22055,0002,2023_May_01_1451,localizer,2021.1.3,59.3671932140277,
block,objects,objects059.bmp,,,,,0,186,186,186,,,,,,,,,,,,,,,,,,,,,,,,,,,,,,,,,,,,,,,,,,None,,738.6727430599982,None,738.6727430599982,None,2023-05-01-15:03:09.742230,738.6735044999987,738.9725617999975,738.6735044999987,738.6735044999987,None,738.6735044999987,738.6735044999987,739.4727370599991,None,,,,22055,0002,2023_May_01_1451,localizer,2021.1.3,59.3671932140277,
block,objects,objects047.bmp,,,,,0,187,187,187,,,,,,,,,,,,,,,,,,,,,,,,,,,,,,,,,,,,,,,,,,None,,739.4727370599991,None,739.4727370599991,None,2023-05-01-15:03:10.542225,739.4840067999976,739.7904906999975,739.4840067999976,739.4840067999976,None,739.4840067999976,739.4840067999976,740.2906028599988,None,,,,22055,0002,2023_May_01_1451,localizer,2021.1.3,59.3671932140277,
block,objects,objects061.bmp,,,,,0,188,188,188,,,,,,,,,,,,,,,,,,,,,,,,,,,,,,,,,,,,,,,,,,None,,740.2906028599988,None,740.2906028599988,None,2023-05-01-15:03:11.360256,740.2913744999969,740.6058822999985,740.2913744999969,None,None,740.2913744999969,None,741.1060744599978,None,,,,22055,0002,2023_May_01_1451,localizer,2021.1.3,59.3671932140277,
block,objects,objects038.bmp,,,,,0,189,189,189,,,,,,,,,,,,,,,,,,,,,,,,,,,,,,,,,,,,,,,,,,None,,741.1060744599978,None,741.1060744599978,None,2023-05-01-15:03:12.173572,741.1159007999995,741.4225548999966,741.1159007999995,None,None,741.1159007999995,None,741.9229118599993,None,,,,22055,0002,2023_May_01_1451,localizer,2021.1.3,59.3671932140277,
block,objects,objects079.bmp,,,,,0,190,190,190,,,,,,,,,,,,,,,,,,,,,,,,,,,,,,,,,,,,,,,,,,None,,741.9229118599993,None,741.9229118599993,None,2023-05-01-15:03:12.991595,741.9236454999991,742.2227493999999,741.9236454999991,None,None,741.9236454999991,None,742.7230093599989,None,,,,22055,0002,2023_May_01_1451,localizer,2021.1.3,59.3671932140277,
block,objects,objects010.bmp,,,,,0,191,191,191,,,,,,,,,,,,,,,,,,,,,,,,,,,,,,,,,,,,,,,,,,None,,742.7230093599989,None,742.7230093599989,None,2023-05-01-15:03:13.793715,742.7235323999994,743.0227725999976,742.7235323999994,742.7235323999994,None,742.7235323999994,742.7235323999994,743.5230054599975,None,,,,22055,0002,2023_May_01_1451,localizer,2021.1.3,59.3671932140277,
block,objects,objects049.bmp,,,,,0,192,192,192,,,,,,,,,,,,,,,,,,,,,,,,,,,,,,,,,,,,,,,,,,None,,743.5230054599975,None,743.5230054599975,None,2023-05-01-15:03:14.592486,743.5235743999983,743.8223779999971,743.5235743999983,743.5235743999983,None,743.5235743999983,743.5235743999983,744.3226848599967,None,,,,22055,0002,2023_May_01_1451,localizer,2021.1.3,59.3671932140277,
block,objects,objects088.bmp,,,,,0,193,193,193,,,,,,,,,,,,,,,,,,,,,,,,,,,,,,,,,,,,,,,,,,None,,744.3226848599967,None,744.3226848599967,None,2023-05-01-15:03:15.393172,744.334681999997,744.6391183999986,744.334681999997,744.334681999997,None,744.334681999997,744.334681999997,745.1393242599967,None,,,,22055,0002,2023_May_01_1451,localizer,2021.1.3,59.3671932140277,
block,objects,objects003.bmp,,,,,0,194,194,194,,,,,,,,,,,,,,,,,,,,,,,,,,,,,,,,,,,,,,,,,,None,,745.1393242599967,None,745.1393242599967,None,2023-05-01-15:03:16.206821,745.1409049999966,745.4558660999974,745.1409049999966,None,None,745.1409049999966,None,745.9399985599972,None,,,,22055,0002,2023_May_01_1451,localizer,2021.1.3,59.3671932140277,
block,objects,objects021.bmp,,,,,0,195,195,195,,,,,,,,,,,,,,,,,,,,,,,,,,,,,,,,,,,,,,,,,,None,,745.9399985599972,None,745.9399985599972,None,2023-05-01-15:03:17.010597,745.9404420999999,746.2397399999973,745.9404420999999,745.9404420999999,None,745.9404420999999,745.9404420999999,746.7399486599985,None,,,,22055,0002,2023_May_01_1451,localizer,2021.1.3,59.3671932140277,
block,objects,objects057.bmp,,,,,0,196,196,196,,,,,,,,,,,,,,,,,,,,,,,,,,,,,,,,,,,,,,,,,,None,,746.7399486599985,None,746.7399486599985,None,2023-05-01-15:03:17.810424,746.7416313999965,747.0563986999987,746.7416313999965,746.7416313999965,None,746.7416313999965,746.7416313999965,747.5564879599966,None,,,,22055,0002,2023_May_01_1451,localizer,2021.1.3,59.3671932140277,
block,objects,objects056.bmp,,,,,0,197,197,197,,,,,,,,,,,,,,,,,,,,,,,,,,,,,,,,,,,,,,,,,,None,,747.5564879599966,None,747.5564879599966,None,2023-05-01-15:03:18.625187,747.5665575999992,747.8725921999976,747.5665575999992,None,None,747.5665575999992,None,748.3729363599974,None,,,,22055,0002,2023_May_01_1451,localizer,2021.1.3,59.3671932140277,
block_end,objects,objects055.bmp,,,,,0,198,198,198,,,,,,,,,,,,,,,,,,,,,,,,,,,,,,,,,,,,,,,,,,None,,748.3729363599974,None,748.3729363599974,None,2023-05-01-15:03:19.441791,748.3737389999987,748.6727415999994,748.3737389999987,None,None,748.3737389999987,None,749.1891916599976,None,,,,22055,0002,2023_May_01_1451,localizer,2021.1.3,59.3671932140277,
block_start,scrambled,scrambled040.bmp,,,,,0,199,199,199,,,,,,,,,,,,,,,,,,,,,,,,,,,,,,,,,,,,,,,,,,t,1.8495969999967201,749.1892603999986,None,749.1892603999986,None,2023-05-01-15:03:22.123916,751.068201099999,751.3726098999978,751.068201099999,None,None,751.068201099999,None,751.8729195599968,None,,,,22055,0002,2023_May_01_1451,localizer,2021.1.3,59.3671932140277,
block,scrambled,scrambled076.bmp,,,,,0,200,200,200,,,,,,,,,,,,,,,,,,,,,,,,,,,,,,,,,,,,,,,,,,None,,751.8729195599968,None,751.8729195599968,None,2023-05-01-15:03:22.941409,751.8736621999997,752.1725260999992,751.8736621999997,None,None,751.8736621999997,None,752.6730910599996,None,,,,22055,0002,2023_May_01_1451,localizer,2021.1.3,59.3671932140277,
block,scrambled,scrambled033.bmp,,,,,0,201,201,201,,,,,,,,,,,,,,,,,,,,,,,,,,,,,,,,,,,,,,,,,,None,,752.6730910599996,None,752.6730910599996,None,2023-05-01-15:03:23.743408,752.6737102999978,752.9728912999999,752.6737102999978,752.6737102999978,None,752.6737102999978,752.6737102999978,753.4730249599976,None,,,,22055,0002,2023_May_01_1451,localizer,2021.1.3,59.3671932140277,
block,scrambled,scrambled041.bmp,,,,,0,202,202,202,,,,,,,,,,,,,,,,,,,,,,,,,,,,,,,,,,,,,,,,,,None,,753.4730249599976,None,753.4730249599976,None,2023-05-01-15:03:24.543507,753.4736857999997,753.7728815999981,753.4736857999997,753.4736857999997,None,753.4736857999997,753.4736857999997,754.2729421599994,None,,,,22055,0002,2023_May_01_1451,localizer,2021.1.3,59.3671932140277,
block,scrambled,scrambled052.bmp,,,,,0,203,203,203,,,,,,,,,,,,,,,,,,,,,,,,,,,,,,,,,,,,,,,,,,None,,754.2729421599994,None,754.2729421599994,None,2023-05-01-15:03:25.342428,754.273510199997,754.5728586999976,754.273510199997,754.273510199997,None,754.273510199997,754.273510199997,755.0895163599977,None,,,,22055,0002,2023_May_01_1451,localizer,2021.1.3,59.3671932140277,
block,scrambled,scrambled086.bmp,,,,,0,204,204,204,,,,,,,,,,,,,,,,,,,,,,,,,,,,,,,,,,,,,,,,,,None,,755.0895163599977,None,755.0895163599977,None,2023-05-01-15:03:26.157013,755.0993610999976,755.4056786999972,755.0993610999976,None,None,755.0993610999976,None,755.9089376600001,None,,,,22055,0002,2023_May_01_1451,localizer,2021.1.3,59.3671932140277,
block,scrambled,scrambled009.bmp,,,,,0,205,205,205,,,,,,,,,,,,,,,,,,,,,,,,,,,,,,,,,,,,,,,,,,None,,755.9089376600001,None,755.9089376600001,None,2023-05-01-15:03:26.981393,755.9239522999997,756.2394148999992,755.9239522999997,None,None,755.9239522999997,None,756.7230318599992,None,,,,22055,0002,2023_May_01_1451,localizer,2021.1.3,59.3671932140277,
block,scrambled,scrambled014.bmp,,,,,0,206,206,206,,,,,,,,,,,,,,,,,,,,,,,,,,,,,,,,,,,,,,,,,,None,,756.7230318599992,None,756.7230318599992,None,2023-05-01-15:03:27.791713,756.7237873999984,757.0228648999982,756.7237873999984,None,None,756.7237873999984,None,757.5237549599966,None,,,,22055,0002,2023_May_01_1451,localizer,2021.1.3,59.3671932140277,
block,scrambled,scrambled022.bmp,,,,,0,207,207,207,,,,,,,,,,,,,,,,,,,,,,,,,,,,,,,,,,,,,,,,,,None,,757.5237549599966,None,757.5237549599966,None,2023-05-01-15:03:28.594306,757.5389100999964,757.8392370999973,757.5389100999964,757.5389100999964,None,757.5389100999964,757.5389100999964,758.3399487599978,None,,,,22055,0002,2023_May_01_1451,localizer,2021.1.3,59.3671932140277,
block,scrambled,scrambled058.bmp,,,,,0,208,208,208,,,,,,,,,,,,,,,,,,,,,,,,,,,,,,,,,,,,,,,,,,None,,758.3399487599978,None,758.3399487599978,None,2023-05-01-15:03:29.408631,758.3404241999997,758.639914899999,758.3404241999997,None,None,758.3404241999997,None,759.1403088599997,None,,,,22055,0002,2023_May_01_1451,localizer,2021.1.3,59.3671932140277,
block,scrambled,scrambled010.bmp,,,,,0,209,209,209,,,,,,,,,,,,,,,,,,,,,,,,,,,,,,,,,,,,,,,,,,None,,759.1403088599997,None,759.1403088599997,None,2023-05-01-15:03:30.210781,759.1419175999981,759.4564271999989,759.1419175999981,759.1419175999981,None,759.1419175999981,759.1419175999981,759.9567203599996,None,,,,22055,0002,2023_May_01_1451,localizer,2021.1.3,59.3671932140277,
block,scrambled,scrambled026.bmp,,,,,0,210,210,210,,,,,,,,,,,,,,,,,,,,,,,,,,,,,,,,,,,,,,,,,,None,,759.9567203599996,None,759.9567203599996,None,2023-05-01-15:03:31.025316,759.9570596999984,760.2564528999974,759.9570596999984,None,None,759.9570596999984,None,760.7566319599988,None,,,,22055,0002,2023_May_01_1451,localizer,2021.1.3,59.3671932140277,
block,scrambled,scrambled060.bmp,,,,,0,211,211,211,,,,,,,,,,,,,,,,,,,,,,,,,,,,,,,,,,,,,,,,,,None,,760.7566319599988,None,760.7566319599988,None,2023-05-01-15:03:31.827321,760.7713148999974,761.0724794999987,760.7713148999974,760.7713148999974,None,760.7713148999974,760.7713148999974,761.5729695599999,None,,,,22055,0002,2023_May_01_1451,localizer,2021.1.3,59.3671932140277,
block,scrambled,scrambled056.bmp,,,,,0,212,212,212,,,,,,,,,,,,,,,,,,,,,,,,,,,,,,,,,,,,,,,,,,None,,761.5729695599999,None,761.5729695599999,None,2023-05-01-15:03:32.641459,761.5846142999981,761.8894704999984,761.5846142999981,None,None,761.5846142999981,None,762.390916359998,None,,,,22055,0002,2023_May_01_1451,localizer,2021.1.3,59.3671932140277,
block_end,scrambled,scrambled034.bmp,,,,,0,213,213,213,,,,,,,,,,,,,,,,,,,,,,,,,,,,,,,,,,,,,,,,,,None,,762.390916359998,None,762.390916359998,None,2023-05-01-15:03:33.461434,762.3929906999983,762.7132895999966,762.3929906999983,None,None,762.3929906999983,None,763.2071713599995,None,,,,22055,0002,2023_May_01_1451,localizer,2021.1.3,59.3671932140277,
block_start,scenes,scenes035.bmp,,,,,0,214,214,214,,,,,,,,,,,,,,,,,,,,,,,,,,,,,,,,,,,,,,,,,,t,1.8309434000002511,763.2067935999985,None,763.2067935999985,None,2023-05-01-15:03:36.125530,765.0577301999983,765.372700699998,765.0577301999983,None,None,765.0577301999983,None,765.8731562599984,None,,,,22055,0002,2023_May_01_1451,localizer,2021.1.3,59.3671932140277,
block,scenes,scenes053.bmp,,,,,0,215,215,215,,,,,,,,,,,,,,,,,,,,,,,,,,,,,,,,,,,,,,,,,,None,,765.8731562599984,None,765.8731562599984,None,2023-05-01-15:03:36.941638,765.8739812999993,766.1896008999975,765.8739812999993,None,None,765.8739812999993,None,766.6730408599993,None,,,,22055,0002,2023_May_01_1451,localizer,2021.1.3,59.3671932140277,
block,scenes,scenes088.bmp,,,,,0,216,216,216,,,,,,,,,,,,,,,,,,,,,,,,,,,,,,,,,,,,,,,,,,None,,766.6730408599993,None,766.6730408599993,None,2023-05-01-15:03:37.743526,766.6738954999964,766.9731352999988,766.6738954999964,766.6738954999964,None,766.6738954999964,766.6738954999964,767.4733230599974,None,,,,22055,0002,2023_May_01_1451,localizer,2021.1.3,59.3671932140277,
block,scenes,scenes014.bmp,,,,,0,217,217,217,,,,,,,,,,,,,,,,,,,,,,,,,,,,,,,,,,,,,,,,,,None,,767.4733230599974,None,767.4733230599974,None,2023-05-01-15:03:38.543947,767.4736542999999,767.7730930999969,767.4736542999999,767.4736542999999,None,767.4736542999999,767.4736542999999,768.2736861599966,None,,,,22055,0002,2023_May_01_1451,localizer,2021.1.3,59.3671932140277,
block,scenes,scenes059.bmp,,,,,0,218,218,218,,,,,,,,,,,,,,,,,,,,,,,,,,,,,,,,,,,,,,,,,,None,,768.2736861599966,None,768.2736861599966,None,2023-05-01-15:03:39.344089,768.2750624999971,768.5893642999981,768.2750624999971,768.2750624999971,None,768.2750624999971,768.2750624999971,769.0895322599987,None,,,,22055,0002,2023_May_01_1451,localizer,2021.1.3,59.3671932140277,
block,scenes,scenes011.bmp,,,,,0,219,219,219,,,,,,,,,,,,,,,,,,,,,,,,,,,,,,,,,,,,,,,,,,None,,769.0895322599987,None,769.0895322599987,None,2023-05-01-15:03:40.157029,769.0912315999994,769.4062566999964,769.0912315999994,None,None,769.0912315999994,None,769.90641406,None,,,,22055,0002,2023_May_01_1451,localizer,2021.1.3,59.3671932140277,
block,scenes,scenes070.bmp,,,,,0,220,220,220,,,,,,,,,,,,,,,,,,,,,,,,,,,,,,,,,,,,,,,,,,None,,769.90641406,None,769.90641406,None,2023-05-01-15:03:40.974900,769.9071584999983,770.2063419999977,769.9071584999983,None,None,769.9071584999983,None,770.7064930599969,None,,,,22055,0002,2023_May_01_1451,localizer,2021.1.3,59.3671932140277,
block,scenes,scenes008.bmp,,,,,0,221,221,221,,,,,,,,,,,,,,,,,,,,,,,,,,,,,,,,,,,,,,,,,,None,,770.7064930599969,None,770.7064930599969,None,2023-05-01-15:03:41.777194,770.7072199999966,771.0062806999995,770.7072199999966,770.7072199999966,None,770.7072199999966,770.7072199999966,771.5064251599994,None,,,,22055,0002,2023_May_01_1451,localizer,2021.1.3,59.3671932140277,
block,scenes,scenes032.bmp,,,,,0,222,222,222,,,,,,,,,,,,,,,,,,,,,,,,,,,,,,,,,,,,,,,,,,None,,771.5064251599994,None,771.5064251599994,None,2023-05-01-15:03:42.574917,771.5190335999978,771.8229199999987,771.5190335999978,771.5190335999978,None,771.5190335999978,771.5190335999978,772.3237292599966,None,,,,22055,0002,2023_May_01_1451,localizer,2021.1.3,59.3671932140277,
block,scenes,scenes078.bmp,,,,,0,223,223,223,,,,,,,,,,,,,,,,,,,,,,,,,,,,,,,,,,,,,,,,,,None,,772.3237292599966,None,772.3237292599966,None,2023-05-01-15:03:43.392396,772.3245607999997,772.6235359999991,772.3245607999997,None,None,772.3245607999997,None,773.1395367599995,None,,,,22055,0002,2023_May_01_1451,localizer,2021.1.3,59.3671932140277,
block,scenes,scenes077.bmp,,,,,0,224,224,224,,,,,,,,,,,,,,,,,,,,,,,,,,,,,,,,,,,,,,,,,,None,,773.1395367599995,None,773.1395367599995,None,2023-05-01-15:03:44.206992,773.1492729999991,773.4562474999984,773.1492729999991,None,None,773.1492729999991,None,773.9565074599974,None,,,,22055,0002,2023_May_01_1451,localizer,2021.1.3,59.3671932140277,
block,scenes,scenes023.bmp,,,,,0,225,225,225,,,,,,,,,,,,,,,,,,,,,,,,,,,,,,,,,,,,,,,,,,None,,773.9565074599974,None,773.9565074599974,None,2023-05-01-15:03:45.024996,773.9571335999972,774.256265699998,773.9571335999972,None,None,773.9571335999972,None,774.756478359997,None,,,,22055,0002,2023_May_01_1451,localizer,2021.1.3,59.3671932140277,
block,scenes,scenes058.bmp,,,,,0,226,226,226,,,,,,,,,,,,,,,,,,,,,,,,,,,,,,,,,,,,,,,,,,None,,774.756478359997,None,774.756478359997,None,2023-05-01-15:03:45.826344,774.7653529999989,775.0768965999996,774.7653529999989,774.7653529999989,None,774.7653529999989,774.7653529999989,775.5738086599973,None,,,,22055,0002,2023_May_01_1451,localizer,2021.1.3,59.3671932140277,
block,scenes,scenes071.bmp,,,,,0,227,227,227,,,,,,,,,,,,,,,,,,,,,,,,,,,,,,,,,,,,,,,,,,None,,775.5738086599973,None,775.5738086599973,None,2023-05-01-15:03:46.642488,775.5745678999992,775.8736209999988,775.5745678999992,None,None,775.5745678999992,None,776.3736285599967,None,,,,22055,0002,2023_May_01_1451,localizer,2021.1.3,59.3671932140277,
block_end,scenes,scenes089.bmp,,,,,0,228,228,228,,,,,,,,,,,,,,,,,,,,,,,,,,,,,,,,,,,,,,,,,,None,,776.3736285599967,None,776.3736285599967,None,2023-05-01-15:03:47.444306,776.3900734999988,776.6896227999969,776.3900734999988,776.3900734999988,None,776.3900734999988,776.3900734999988,777.1911321599997,None,,,,22055,0002,2023_May_01_1451,localizer,2021.1.3,59.3671932140277,
block_start,faces,faces014.bmp,,,,,0,229,229,229,,,,,,,,,,,,,,,,,,,,,,,,,,,,,,,,,,,,,,,,,,t,1.8471155000006547,777.1907624999985,None,777.1907624999985,None,2023-05-01-15:03:50.122990,779.0600363999984,779.3728126999995,779.0600363999984,None,None,779.0600363999984,None,779.873112859999,None,,,,22055,0002,2023_May_01_1451,localizer,2021.1.3,59.3671932140277,
block,faces,faces024.bmp,,,,,0,230,230,230,,,,,,,,,,,,,,,,,,,,,,,,,,,,,,,,,,,,,,,,,,None,,779.873112859999,None,779.873112859999,None,2023-05-01-15:03:50.941598,779.8738472999976,780.1733287999996,779.8738472999976,None,None,779.8738472999976,None,780.6734535599986,None,,,,22055,0002,2023_May_01_1451,localizer,2021.1.3,59.3671932140277,
block,faces,faces024.bmp,,,,,0,231,231,231,,,,,,,,,,,,,,,,,,,,,,,,,,,,,,,,,,,,,,,,,,None,,780.6734535599986,None,780.6734535599986,None,2023-05-01-15:03:51.743931,780.674127299997,780.9895542999984,780.674127299997,780.674127299997,y,780.674127299997,780.674127299997,781.4896784599965,None,0.5013737999979639,,,22055,0002,2023_May_01_1451,localizer,2021.1.3,59.3671932140277,
block,faces,faces040.bmp,,,,,0,232,232,232,,,,,,,,,,,,,,,,,,,,,,,,,,,,,,,,,,,,,,,,,,None,,781.4896784599965,None,781.4896784599965,None,2023-05-01-15:03:52.558167,781.4905620999998,781.806177399998,781.4905620999998,None,None,781.4905620999998,None,782.2901061599965,None,,,,22055,0002,2023_May_01_1451,localizer,2021.1.3,59.3671932140277,
block,faces,faces058.bmp,,,,,0,233,233,233,,,,,,,,,,,,,,,,,,,,,,,,,,,,,,,,,,,,,,,,,,None,,782.2901061599965,None,782.2901061599965,None,2023-05-01-15:03:53.360821,782.3046710999988,782.6064933999987,782.3046710999988,782.3046710999988,None,782.3046710999988,782.3046710999988,783.1130413599982,None,,,,22055,0002,2023_May_01_1451,localizer,2021.1.3,59.3671932140277,
block,faces,faces080.bmp,,,,,0,234,234,234,,,,,,,,,,,,,,,,,,,,,,,,,,,,,,,,,,,,,,,,,,None,,783.1130413599982,None,783.1130413599982,None,2023-05-01-15:03:54.184466,783.1190789999964,783.4230353999992,783.1190789999964,None,None,783.1190789999964,None,783.9253499599996,None,,,,22055,0002,2023_May_01_1451,localizer,2021.1.3,59.3671932140277,
block,faces,faces054.bmp,,,,,0,235,235,235,,,,,,,,,,,,,,,,,,,,,,,,,,,,,,,,,,,,,,,,,,None,,783.9253499599996,None,783.9253499599996,None,2023-05-01-15:03:54.998776,783.9320700999997,784.2403218999971,783.9320700999997,None,None,783.9320700999997,None,784.7396591599987,None,,,,22055,0002,2023_May_01_1451,localizer,2021.1.3,59.3671932140277,
block,faces,faces089.bmp,,,,,0,236,236,236,,,,,,,,,,,,,,,,,,,,,,,,,,,,,,,,,,,,,,,,,,None,,784.7396591599987,None,784.7396591599987,None,2023-05-01-15:03:55.808410,784.7404972999975,785.039911099997,784.7404972999975,None,None,784.7404972999975,None,785.5398222599994,None,,,,22055,0002,2023_May_01_1451,localizer,2021.1.3,59.3671932140277,
block,faces,faces042.bmp,,,,,0,237,237,237,,,,,,,,,,,,,,,,,,,,,,,,,,,,,,,,,,,,,,,,,,None,,785.5398222599994,None,785.5398222599994,None,2023-05-01-15:03:56.608606,785.5410480999999,785.8562916999981,785.5410480999999,785.5410480999999,None,785.5410480999999,785.5410480999999,786.3564941599994,None,,,,22055,0002,2023_May_01_1451,localizer,2021.1.3,59.3671932140277,
block,faces,faces041.bmp,,,,,0,238,238,238,,,,,,,,,,,,,,,,,,,,,,,,,,,,,,,,,,,,,,,,,,None,,786.3564941599994,None,786.3564941599994,None,2023-05-01-15:03:57.424982,786.3574040999993,786.6729629999973,786.3574040999993,None,None,786.3574040999993,None,787.156444859998,None,,,,22055,0002,2023_May_01_1451,localizer,2021.1.3,59.3671932140277,
block,faces,faces021.bmp,,,,,0,239,239,239,,,,,,,,,,,,,,,,,,,,,,,,,,,,,,,,,,,,,,,,,,None,,787.156444859998,None,787.156444859998,None,2023-05-01-15:03:58.225932,787.1571818999982,787.4562129999977,787.1571818999982,787.1571818999982,None,787.1571818999982,787.1571818999982,787.9568261599976,None,,,,22055,0002,2023_May_01_1451,localizer,2021.1.3,59.3671932140277,
block,faces,faces065.bmp,,,,,0,240,240,240,,,,,,,,,,,,,,,,,,,,,,,,,,,,,,,,,,,,,,,,,,None,,787.9568261599976,None,787.9568261599976,None,2023-05-01-15:03:59.026421,787.9572019999978,788.2565808999971,787.9572019999978,787.9572019999978,None,787.9572019999978,787.9572019999978,788.7567101599976,None,,,,22055,0002,2023_May_01_1451,localizer,2021.1.3,59.3671932140277,
block,faces,faces052.bmp,,,,,0,241,241,241,,,,,,,,,,,,,,,,,,,,,,,,,,,,,,,,,,,,,,,,,,None,,788.7567101599976,None,788.7567101599976,None,2023-05-01-15:03:59.827421,788.7574619999978,789.0565834999979,788.7574619999978,788.7574619999978,None,788.7574619999978,788.7574619999978,789.5572834599967,None,,,,22055,0002,2023_May_01_1451,localizer,2021.1.3,59.3671932140277,
block,faces,faces043.bmp,,,,,0,242,242,242,,,,,,,,,,,,,,,,,,,,,,,,,,,,,,,,,,,,,,,,,,None,,789.5572834599967,None,789.5572834599967,None,2023-05-01-15:04:00.627957,789.5719193999976,789.8730738999984,789.5719193999976,789.5719193999976,None,789.5719193999976,789.5719193999976,790.3731196599998,None,,,,22055,0002,2023_May_01_1451,localizer,2021.1.3,59.3671932140277,
block_end,faces,faces069.bmp,,,,,0,243,243,243,,,,,,,,,,,,,,,,,,,,,,,,,,,,,,,,,,,,,,,,,,None,,790.3731196599998,None,790.3731196599998,None,2023-05-01-15:04:01.441608,790.3740177,790.6895505999964,790.3740177,None,None,790.3740177,None,791.1897229599978,None,,,,22055,0002,2023_May_01_1451,localizer,2021.1.3,59.3671932140277,
,,,,,,,,,,,,,,,,,,,,,,,,,,,,,,,,,,,,,,,,,,,,,,,,,,,,,,,,,,,,,,,,,,,,,791.189487399999,None,,,,,,,
