block_type,condition,img_name,Button.thisRepN,Button.thisTrialN,Button.thisN,Button.thisIndex,trials.thisRepN,trials.thisTrialN,trials.thisN,trials.thisIndex,Ready_experimenter_text.started,Ready_experimenter_text.stopped,Ready_experimenter_resp.keys,Ready_experimenter_resp.rt,Ready_experimenter_resp.started,Ready_experimenter_resp.stopped,Alignment_background.started,Alignment_background.stopped,Alignment_image.started,Alignment_image.stopped,Alignment_resp.keys,Alignment_resp.rt,Alignment_resp.started,Alignment_resp.stopped,Button_text.started,Button_text.stopped,Index_text.started,Index_text.stopped,Index_resp.keys,Index_resp.rt,Index_resp.started,Index_resp.stopped,Middle_text.started,Middle_text.stopped,Middle_resp.keys,Middle_resp.rt,Middle_resp.started,Middle_resp.stopped,Repeat_text.started,Repeat_text.stopped,Repeat_resp.keys,Repeat_resp.corr,Repeat_resp.rt,Repeat_resp.started,Repeat_resp.stopped,instruction_text.started,instruction_text.stopped,key_resp.keys,key_resp.rt,key_resp.started,key_resp.stopped,scanner_t.keys,scanner_t.rt,scanner_t.started,scanner_t.stopped,fixation_wait_for_t.started,fixation_wait_for_t.stopped,real_timestamp_trial_start,image.started,image.stopped,fixation.started,fixation.stopped,repeat_response.keys,repeat_response.started,repeat_response.stopped,fixation_null.started,fixation_null.stopped,repeat_response.rt,end_text.started,end_text.stopped,participant,run,date,expName,psychopyVersion,frameRate,
,,,,,,,,,,,8.671207600000344,None,return,2.0360123999998905,8.671207600000344,None,,,,,,,,,,,,,,,,,,,,,,,,,,,,,,,,,,,,,,,,,,,,,,,,,,,,,,,22055,0001,2023_May_01_1443,localizer,2021.1.3,59.846445989237196,
,,,,,,,,,,,,,,,,,10.764624799998273,None,10.764624799998273,None,return,1.1329402000010305,10.764624799998273,None,,,,,,,,,,,,,,,,,,,,,,,,,,,,,,,,,,,,,,,,,,,,,,,22055,0001,2023_May_01_1443,localizer,2021.1.3,59.846445989237196,
,,,0,0,0,0,,,,,,,,,,,,,,,,,,,11.92256880000059,None,12.934637599999405,None,y,22.656741499999043,12.934637599999405,None,35.61870819999967,None,b,2.7366154000010283,35.61870819999967,None,38.390353899998445,None,y,1,23.129443099998753,38.390353899998445,None,,,,,,,,,,,,,,,,,,,,,,,,,,22055,0001,2023_May_01_1443,localizer,2021.1.3,59.846445989237196,
,,,1,0,1,0,,,,,,,,,,,,,,,,,,,61.53639249999833,None,62.54201240000111,None,y,4.413263400001597,62.54201240000111,None,66.98511289999806,None,b,1.3333333000009588,66.98511289999806,None,68.33551649999936,None,n,0,1.6330498000024818,68.33551649999936,None,,,,,,,,,,,,,,,,,,,,,,,,,,22055,0001,2023_May_01_1443,localizer,2021.1.3,59.846445989237196,
,,,,,,,,,,,,,,,,,,,,,,,,,,,,,,,,,,,,,,,,,,,,,,69.9866847000012,None,y,36.73163750000094,69.9866847000012,None,,,,,,,,,,,,,,,,,,,,22055,0001,2023_May_01_1443,localizer,2021.1.3,59.846445989237196,
block_start,scenes,scenes084.bmp,,,,,0,0,0,0,,,,,,,,,,,,,,,,,,,,,,,,,,,,,,,,,,,,,,,,,,t,17.51339640000151,106.80491239999901,None,106.80491239999901,None,2023-05-01-14:45:20.700198,124.34861140000066,124.65227529999902,124.34861140000066,None,None,124.34861140000066,None,125.15248042999956,None,,,,22055,0001,2023_May_01_1443,localizer,2021.1.3,59.846445989237196,
block,scenes,scenes092.bmp,,,,,0,1,1,1,,,,,,,,,,,,,,,,,,,,,,,,,,,,,,,,,,,,,,,,,,None,,125.15248042999956,None,125.15248042999956,None,2023-05-01-14:45:21.518948,125.16598610000074,125.46980030000122,125.16598610000074,None,None,125.16598610000074,None,125.96908822999903,None,,,,22055,0001,2023_May_01_1443,localizer,2021.1.3,59.846445989237196,
block,scenes,scenes034.bmp,,,,,0,2,2,2,,,,,,,,,,,,,,,,,,,,,,,,,,,,,,,,,,,,,,,,,,None,,125.96908822999903,None,125.96908822999903,None,2023-05-01-14:45:22.334559,125.98055810000005,126.28569190000053,125.98055810000005,None,None,125.98055810000005,None,126.78563283000112,None,,,,22055,0001,2023_May_01_1443,localizer,2021.1.3,59.846445989237196,
block,scenes,scenes076.bmp,,,,,0,3,3,3,,,,,,,,,,,,,,,,,,,,,,,,,,,,,,,,,,,,,,,,,,None,,126.78563283000112,None,126.78563283000112,None,2023-05-01-14:45:23.151382,126.7978750000002,127.1021327999988,126.7978750000002,None,None,126.7978750000002,None,127.60251303000113,None,,,,22055,0001,2023_May_01_1443,localizer,2021.1.3,59.846445989237196,
block,scenes,scenes015.bmp,,,,,0,4,4,4,,,,,,,,,,,,,,,,,,,,,,,,,,,,,,,,,,,,,,,,,,None,,127.60251303000113,None,127.60251303000113,None,2023-05-01-14:45:23.968396,127.6148076999998,127.91912479999883,127.6148076999998,None,None,127.6148076999998,None,128.41945393000134,None,,,,22055,0001,2023_May_01_1443,localizer,2021.1.3,59.846445989237196,
block,scenes,scenes027.bmp,,,,,0,5,5,5,,,,,,,,,,,,,,,,,,,,,,,,,,,,,,,,,,,,,,,,,,None,,128.41945393000134,None,128.41945393000134,None,2023-05-01-14:45:24.785135,128.43133930000113,128.73568840000007,128.43133930000113,None,None,128.43133930000113,None,129.23579292999858,None,,,,22055,0001,2023_May_01_1443,localizer,2021.1.3,59.846445989237196,
block,scenes,scenes081.bmp,,,,,0,6,6,6,,,,,,,,,,,,,,,,,,,,,,,,,,,,,,,,,,,,,,,,,,None,,129.23579292999858,None,129.23579292999858,None,2023-05-01-14:45:25.601655,129.24795950000043,129.55282019999868,129.24795950000043,None,None,129.24795950000043,None,130.0527426300003,None,,,,22055,0001,2023_May_01_1443,localizer,2021.1.3,59.846445989237196,
block,scenes,scenes038.bmp,,,,,0,7,7,7,,,,,,,,,,,,,,,,,,,,,,,,,,,,,,,,,,,,,,,,,,None,,130.0527426300003,None,130.0527426300003,None,2023-05-01-14:45:26.418312,130.06571450000047,130.3690306999997,130.06571450000047,None,None,130.06571450000047,None,130.8703953299999,None,,,,22055,0001,2023_May_01_1443,localizer,2021.1.3,59.846445989237196,
block,scenes,scenes080.bmp,,,,,0,8,8,8,,,,,,,,,,,,,,,,,,,,,,,,,,,,,,,,,,,,,,,,,,None,,130.8703953299999,None,130.8703953299999,None,2023-05-01-14:45:27.238027,130.88575099999798,131.18551659999866,130.88575099999798,None,None,130.88575099999798,None,131.68535342999968,None,,,,22055,0001,2023_May_01_1443,localizer,2021.1.3,59.846445989237196,
block,scenes,scenes053.bmp,,,,,0,9,9,9,,,,,,,,,,,,,,,,,,,,,,,,,,,,,,,,,,,,,,,,,,None,,131.68535342999968,None,131.68535342999968,None,2023-05-01-14:45:28.050829,131.69657019999795,132.00269489999846,131.69657019999795,None,None,131.69657019999795,None,132.50270362999873,None,,,,22055,0001,2023_May_01_1443,localizer,2021.1.3,59.846445989237196,
block,scenes,scenes045.bmp,,,,,0,10,10,10,,,,,,,,,,,,,,,,,,,,,,,,,,,,,,,,,,,,,,,,,,None,,132.50270362999873,None,132.50270362999873,None,2023-05-01-14:45:28.868165,132.51479649999965,132.8192158999991,132.51479649999965,None,None,132.51479649999965,None,133.31912982999785,None,,,,22055,0001,2023_May_01_1443,localizer,2021.1.3,59.846445989237196,
block,scenes,scenes052.bmp,,,,,0,11,11,11,,,,,,,,,,,,,,,,,,,,,,,,,,,,,,,,,,,,,,,,,,None,,133.31912982999785,None,133.31912982999785,None,2023-05-01-14:45:29.684597,133.32649649999803,133.63637680000102,133.32649649999803,None,None,133.32649649999803,None,134.13603822999795,None,,,,22055,0001,2023_May_01_1443,localizer,2021.1.3,59.846445989237196,
block,scenes,scenes035.bmp,,,,,0,12,12,12,,,,,,,,,,,,,,,,,,,,,,,,,,,,,,,,,,,,,,,,,,None,,134.13603822999795,None,134.13603822999795,None,2023-05-01-14:45:30.501584,134.14808220000123,134.45245219999924,134.14808220000123,None,None,134.14808220000123,None,134.95377892999824,None,,,,22055,0001,2023_May_01_1443,localizer,2021.1.3,59.846445989237196,
block,scenes,scenes018.bmp,,,,,0,13,13,13,,,,,,,,,,,,,,,,,,,,,,,,,,,,,,,,,,,,,,,,,,None,,134.95377892999824,None,134.95377892999824,None,2023-05-01-14:45:31.322203,134.96954360000018,135.26917989999856,134.96954360000018,None,None,134.96954360000018,None,135.7690781299978,None,,,,22055,0001,2023_May_01_1443,localizer,2021.1.3,59.846445989237196,
block_end,scenes,scenes059.bmp,,,,,0,14,14,14,,,,,,,,,,,,,,,,,,,,,,,,,,,,,,,,,,,,,,,,,,None,,135.7690781299978,None,135.7690781299978,None,2023-05-01-14:45:32.134754,135.7798354000006,136.0856786000004,135.7798354000006,None,None,135.7798354000006,None,136.58618283000106,None,,,,22055,0001,2023_May_01_1443,localizer,2021.1.3,59.846445989237196,
block_start,scrambled,scrambled053.bmp,,,,,0,15,15,15,,,,,,,,,,,,,,,,,,,,,,,,,,,,,,,,,,,,,,,,,,t,1.7323824000013701,136.5860689000001,None,136.5860689000001,None,2023-05-01-14:45:34.702929,138.34568229999786,138.65237880000132,138.34568229999786,None,None,138.34568229999786,None,139.15292022999785,None,,,,22055,0001,2023_May_01_1443,localizer,2021.1.3,59.846445989237196,
block,scrambled,scrambled004.bmp,,,,,0,16,16,16,,,,,,,,,,,,,,,,,,,,,,,,,,,,,,,,,,,,,,,,,,None,,139.15292022999785,None,139.15292022999785,None,2023-05-01-14:45:35.518442,139.1647019000011,139.46921160000056,139.1647019000011,None,None,139.1647019000011,None,139.96980933000015,None,,,,22055,0001,2023_May_01_1443,localizer,2021.1.3,59.846445989237196,
block,scrambled,scrambled041.bmp,,,,,0,17,17,17,,,,,,,,,,,,,,,,,,,,,,,,,,,,,,,,,,,,,,,,,,None,,139.96980933000015,None,139.96980933000015,None,2023-05-01-14:45:36.336456,139.98322120000012,140.2856087,139.98322120000012,None,None,139.98322120000012,None,140.7860754299989,None,,,,22055,0001,2023_May_01_1443,localizer,2021.1.3,59.846445989237196,
block,scrambled,scrambled019.bmp,,,,,0,18,18,18,,,,,,,,,,,,,,,,,,,,,,,,,,,,,,,,,,,,,,,,,,None,,140.7860754299989,None,140.7860754299989,None,2023-05-01-14:45:37.153276,140.7960619000005,141.10237920000145,140.7960619000005,None,None,140.7960619000005,None,141.59225402999874,None,,,,22055,0001,2023_May_01_1443,localizer,2021.1.3,59.846445989237196,
block,scrambled,scrambled017.bmp,,,,,0,19,19,19,,,,,,,,,,,,,,,,,,,,,,,,,,,,,,,,,,,,,,,,,,None,,141.59225402999874,None,141.59225402999874,None,2023-05-01-14:45:37.964620,141.61293189999924,141.92005900000004,141.61293189999924,None,None,141.61293189999924,None,142.40235833000116,None,,,,22055,0001,2023_May_01_1443,localizer,2021.1.3,59.846445989237196,
block,scrambled,scrambled049.bmp,,,,,0,20,20,20,,,,,,,,,,,,,,,,,,,,,,,,,,,,,,,,,,,,,,,,,,None,,142.40235833000116,None,142.40235833000116,None,2023-05-01-14:45:38.768103,142.41255380000075,142.7190941000008,142.41255380000075,None,None,142.41255380000075,None,143.21984243000117,None,,,,22055,0001,2023_May_01_1443,localizer,2021.1.3,59.846445989237196,
block,scrambled,scrambled052.bmp,,,,,0,21,21,21,,,,,,,,,,,,,,,,,,,,,,,,,,,,,,,,,,,,,,,,,,None,,143.21984243000117,None,143.21984243000117,None,2023-05-01-14:45:39.586486,143.2333953999987,143.5358367000008,143.2333953999987,None,None,143.2333953999987,None,144.03571862999962,None,,,,22055,0001,2023_May_01_1443,localizer,2021.1.3,59.846445989237196,
block,scrambled,scrambled079.bmp,,,,,0,22,22,22,,,,,,,,,,,,,,,,,,,,,,,,,,,,,,,,,,,,,,,,,,None,,144.03571862999962,None,144.03571862999962,None,2023-05-01-14:45:40.401187,144.04583799999818,144.3591563000009,144.04583799999818,None,None,144.04583799999818,None,144.8523784299985,None,,,,22055,0001,2023_May_01_1443,localizer,2021.1.3,59.846445989237196,
block,scrambled,scrambled027.bmp,,,,,0,23,23,23,,,,,,,,,,,,,,,,,,,,,,,,,,,,,,,,,,,,,,,,,,None,,144.8523784299985,None,144.8523784299985,None,2023-05-01-14:45:41.217853,144.86271199999828,145.16910799999823,144.86271199999828,None,None,144.86271199999828,None,145.67057192999783,None,,,,22055,0001,2023_May_01_1443,localizer,2021.1.3,59.846445989237196,
block,scrambled,scrambled071.bmp,,,,,0,24,24,24,,,,,,,,,,,,,,,,,,,,,,,,,,,,,,,,,,,,,,,,,,None,,145.67057192999783,None,145.67057192999783,None,2023-05-01-14:45:42.038103,145.68625709999833,145.98614889999953,145.68625709999833,None,None,145.68625709999833,None,146.48612093000048,None,,,,22055,0001,2023_May_01_1443,localizer,2021.1.3,59.846445989237196,
block,scrambled,scrambled042.bmp,,,,,0,25,25,25,,,,,,,,,,,,,,,,,,,,,,,,,,,,,,,,,,,,,,,,,,None,,146.48612093000048,None,146.48612093000048,None,2023-05-01-14:45:42.851784,146.49870259999807,146.80219489999945,146.49870259999807,None,None,146.49870259999807,None,147.30265692999893,None,,,,22055,0001,2023_May_01_1443,localizer,2021.1.3,59.846445989237196,
block,scrambled,scrambled043.bmp,,,,,0,26,26,26,,,,,,,,,,,,,,,,,,,,,,,,,,,,,,,,,,,,,,,,,,None,,147.30265692999893,None,147.30265692999893,None,2023-05-01-14:45:43.668281,147.3143756999998,147.6189032000002,147.3143756999998,None,None,147.3143756999998,None,148.11930473000103,None,,,,22055,0001,2023_May_01_1443,localizer,2021.1.3,59.846445989237196,
block,scrambled,scrambled076.bmp,,,,,0,27,27,27,,,,,,,,,,,,,,,,,,,,,,,,,,,,,,,,,,,,,,,,,,None,,148.11930473000103,None,148.11930473000103,None,2023-05-01-14:45:44.484774,148.13120920000074,148.4360611000011,148.13120920000074,None,None,148.13120920000074,None,148.93669482999832,None,,,,22055,0001,2023_May_01_1443,localizer,2021.1.3,59.846445989237196,
block,scrambled,scrambled064.bmp,,,,,0,28,28,28,,,,,,,,,,,,,,,,,,,,,,,,,,,,,,,,,,,,,,,,,,None,,148.93669482999832,None,148.93669482999832,None,2023-05-01-14:45:45.303149,148.9499709999982,149.25254199999836,148.9499709999982,None,None,148.9499709999982,None,149.74269822999923,None,,,,22055,0001,2023_May_01_1443,localizer,2021.1.3,59.846445989237196,
block_end,scrambled,scrambled050.bmp,,,,,0,29,29,29,,,,,,,,,,,,,,,,,,,,,,,,,,,,,,,,,,,,,,,,,,None,,149.74269822999923,None,149.74269822999923,None,2023-05-01-14:45:46.113089,149.7557299,150.06922269999995,149.7557299,None,None,149.7557299,None,150.55269372999902,None,,,,22055,0001,2023_May_01_1443,localizer,2021.1.3,59.846445989237196,
block_start,faces,faces024.bmp,,,,,0,30,30,30,,,,,,,,,,,,,,,,,,,,,,,,,,,,,,,,,,,,,,,,,,t,1.7664702999973088,150.55231840000124,None,150.55231840000124,None,2023-05-01-14:45:48.703246,152.34978829999818,152.6520461,152.34978829999818,None,None,152.34978829999818,None,153.15329102999823,None,,,,22055,0001,2023_May_01_1443,localizer,2021.1.3,59.846445989237196,
block,faces,faces068.bmp,,,,,0,31,31,31,,,,,,,,,,,,,,,,,,,,,,,,,,,,,,,,,,,,,,,,,,None,,153.15329102999823,None,153.15329102999823,None,2023-05-01-14:45:49.520002,153.16677960000015,153.46945760000017,153.16677960000015,None,None,153.16677960000015,None,153.96895382999793,None,,,,22055,0001,2023_May_01_1443,localizer,2021.1.3,59.846445989237196,
block,faces,faces031.bmp,,,,,0,32,32,32,,,,,,,,,,,,,,,,,,,,,,,,,,,,,,,,,,,,,,,,,,None,,153.96895382999793,None,153.96895382999793,None,2023-05-01-14:45:50.334688,153.97611229999893,154.28587269999844,153.97611229999893,None,None,153.97611229999893,None,154.78562993000088,None,,,,22055,0001,2023_May_01_1443,localizer,2021.1.3,59.846445989237196,
block,faces,faces071.bmp,,,,,0,33,33,33,,,,,,,,,,,,,,,,,,,,,,,,,,,,,,,,,,,,,,,,,,None,,154.78562993000088,None,154.78562993000088,None,2023-05-01-14:45:51.150890,154.7959183999992,155.10271999999895,154.7959183999992,None,None,154.7959183999992,None,155.6023677300007,None,,,,22055,0001,2023_May_01_1443,localizer,2021.1.3,59.846445989237196,
block,faces,faces071.bmp,,,,,0,34,34,34,,,,,,,,,,,,,,,,,,,,,,,,,,,,,,,,,,,,,,,,,,None,,155.6023677300007,None,155.6023677300007,None,2023-05-01-14:45:51.967843,155.6037432000012,155.90329790000033,155.6037432000012,None,None,155.6037432000012,None,156.4192030300008,None,,,,22055,0001,2023_May_01_1443,localizer,2021.1.3,59.846445989237196,
block,faces,faces011.bmp,,,,,0,35,35,35,,,,,,,,,,,,,,,,,,,,,,,,,,,,,,,,,,,,,,,,,,None,,156.4192030300008,None,156.4192030300008,None,2023-05-01-14:45:52.784679,156.42956849999973,156.7363817000005,156.42956849999973,None,None,156.42956849999973,None,157.23663942999775,None,,,,22055,0001,2023_May_01_1443,localizer,2021.1.3,59.846445989237196,
block,faces,faces027.bmp,,,,,0,36,36,36,,,,,,,,,,,,,,,,,,,,,,,,,,,,,,,,,,,,,,,,,,None,,157.23663942999775,None,157.23663942999775,None,2023-05-01-14:45:53.604089,157.25141290000101,157.55220410000038,157.25141290000101,None,None,157.25141290000101,None,158.05264692999918,None,,,,22055,0001,2023_May_01_1443,localizer,2021.1.3,59.846445989237196,
block,faces,faces087.bmp,,,,,0,37,37,37,,,,,,,,,,,,,,,,,,,,,,,,,,,,,,,,,,,,,,,,,,None,,158.05264692999918,None,158.05264692999918,None,2023-05-01-14:45:54.418273,158.06074839999928,158.36929279999822,158.06074839999928,None,None,158.06074839999928,None,158.87003473000078,None,,,,22055,0001,2023_May_01_1443,localizer,2021.1.3,59.846445989237196,
block,faces,faces086.bmp,,,,,0,38,38,38,,,,,,,,,,,,,,,,,,,,,,,,,,,,,,,,,,,,,,,,,,None,,158.87003473000078,None,158.87003473000078,None,2023-05-01-14:45:55.236514,158.88284199999907,159.18606630000068,158.88284199999907,None,None,158.88284199999907,None,159.68605393000036,None,,,,22055,0001,2023_May_01_1443,localizer,2021.1.3,59.846445989237196,
block,faces,faces025.bmp,,,,,0,39,39,39,,,,,,,,,,,,,,,,,,,,,,,,,,,,,,,,,,,,,,,,,,None,,159.68605393000036,None,159.68605393000036,None,2023-05-01-14:45:56.051664,159.69820999999865,160.00239859999783,159.69820999999865,None,None,159.69820999999865,None,160.50299842999885,None,,,,22055,0001,2023_May_01_1443,localizer,2021.1.3,59.846445989237196,
block,faces,faces076.bmp,,,,,0,40,40,40,,,,,,,,,,,,,,,,,,,,,,,,,,,,,,,,,,,,,,,,,,None,,160.50299842999885,None,160.50299842999885,None,2023-05-01-14:45:56.868480,160.51477439999871,160.8189362999983,160.51477439999871,None,None,160.51477439999871,None,161.31921352999854,None,,,,22055,0001,2023_May_01_1443,localizer,2021.1.3,59.846445989237196,
block,faces,faces049.bmp,,,,,0,41,41,41,,,,,,,,,,,,,,,,,,,,,,,,,,,,,,,,,,,,,,,,,,None,,161.31921352999854,None,161.31921352999854,None,2023-05-01-14:45:57.684686,161.32895740000095,161.6361861000005,161.32895740000095,None,None,161.32895740000095,None,162.13633143000044,None,,,,22055,0001,2023_May_01_1443,localizer,2021.1.3,59.846445989237196,
block,faces,faces039.bmp,,,,,0,42,42,42,,,,,,,,,,,,,,,,,,,,,,,,,,,,,,,,,,,,,,,,,,None,,162.13633143000044,None,162.13633143000044,None,2023-05-01-14:45:58.502878,162.14477469999838,162.45471499999985,162.14477469999838,None,None,162.14477469999838,None,162.95258902999996,None,,,,22055,0001,2023_May_01_1443,localizer,2021.1.3,59.846445989237196,
block,faces,faces089.bmp,,,,,0,43,43,43,,,,,,,,,,,,,,,,,,,,,,,,,,,,,,,,,,,,,,,,,,None,,162.95258902999996,None,162.95258902999996,None,2023-05-01-14:45:59.318192,162.96422959999836,163.2690994000004,162.96422959999836,None,None,162.96422959999836,None,163.76930923000037,None,,,,22055,0001,2023_May_01_1443,localizer,2021.1.3,59.846445989237196,
block_end,faces,faces019.bmp,,,,,0,44,44,44,,,,,,,,,,,,,,,,,,,,,,,,,,,,,,,,,,,,,,,,,,None,,163.76930923000037,None,163.76930923000037,None,2023-05-01-14:46:00.135134,163.78167069999836,164.08602560000145,163.78167069999836,None,None,163.78167069999836,None,164.58568453000117,None,,,,22055,0001,2023_May_01_1443,localizer,2021.1.3,59.846445989237196,
block_start,objects,objects029.bmp,,,,,0,45,45,45,,,,,,,,,,,,,,,,,,,,,,,,,,,,,,,,,,,,,,,,,,t,1.7327235999982804,164.58555069999784,None,164.58555069999784,None,2023-05-01-14:46:02.704803,166.34813829999985,166.65223530000003,166.34813829999985,None,None,166.34813829999985,None,167.15261942999933,None,,,,22055,0001,2023_May_01_1443,localizer,2021.1.3,59.846445989237196,
block,objects,objects028.bmp,,,,,0,46,46,46,,,,,,,,,,,,,,,,,,,,,,,,,,,,,,,,,,,,,,,,,,None,,167.15261942999933,None,167.15261942999933,None,2023-05-01-14:46:03.518313,167.1638712999993,167.46919609999895,167.1638712999993,None,None,167.1638712999993,None,167.96939212999933,None,,,,22055,0001,2023_May_01_1443,localizer,2021.1.3,59.846445989237196,
block,objects,objects018.bmp,,,,,0,47,47,47,,,,,,,,,,,,,,,,,,,,,,,,,,,,,,,,,,,,,,,,,,None,,167.96939212999933,None,167.96939212999933,None,2023-05-01-14:46:04.334985,167.98054570000022,168.28611539999838,167.98054570000022,None,None,167.98054570000022,None,168.7858963299994,None,,,,22055,0001,2023_May_01_1443,localizer,2021.1.3,59.846445989237196,
block,objects,objects069.bmp,,,,,0,48,48,48,,,,,,,,,,,,,,,,,,,,,,,,,,,,,,,,,,,,,,,,,,None,,168.7858963299994,None,168.7858963299994,None,2023-05-01-14:46:05.151515,168.79518530000132,169.10405779999928,168.79518530000132,None,None,168.79518530000132,None,169.60194652999854,None,,,,22055,0001,2023_May_01_1443,localizer,2021.1.3,59.846445989237196,
block,objects,objects007.bmp,,,,,0,49,49,49,,,,,,,,,,,,,,,,,,,,,,,,,,,,,,,,,,,,,,,,,,None,,169.60194652999854,None,169.60194652999854,None,2023-05-01-14:46:05.966660,169.61201129999972,169.9187275000004,169.61201129999972,None,None,169.61201129999972,None,170.41884033000025,None,,,,22055,0001,2023_May_01_1443,localizer,2021.1.3,59.846445989237196,
block,objects,objects052.bmp,,,,,0,50,50,50,,,,,,,,,,,,,,,,,,,,,,,,,,,,,,,,,,,,,,,,,,None,,170.41884033000025,None,170.41884033000025,None,2023-05-01-14:46:06.783981,170.42878189999828,170.73633820000032,170.42878189999828,None,None,170.42878189999828,None,171.23612143000065,None,,,,22055,0001,2023_May_01_1443,localizer,2021.1.3,59.846445989237196,
block,objects,objects023.bmp,,,,,0,51,51,51,,,,,,,,,,,,,,,,,,,,,,,,,,,,,,,,,,,,,,,,,,None,,171.23612143000065,None,171.23612143000065,None,2023-05-01-14:46:07.601588,171.24749829999928,171.5533445000001,171.24749829999928,None,None,171.24749829999928,None,172.05338932999877,None,,,,22055,0001,2023_May_01_1443,localizer,2021.1.3,59.846445989237196,
block,objects,objects048.bmp,,,,,0,52,52,52,,,,,,,,,,,,,,,,,,,,,,,,,,,,,,,,,,,,,,,,,,None,,172.05338932999877,None,172.05338932999877,None,2023-05-01-14:46:08.420038,172.06676009999865,172.36880559999918,172.06676009999865,None,None,172.06676009999865,None,172.86942422999783,None,,,,22055,0001,2023_May_01_1443,localizer,2021.1.3,59.846445989237196,
block,objects,objects043.bmp,,,,,0,53,53,53,,,,,,,,,,,,,,,,,,,,,,,,,,,,,,,,,,,,,,,,,,None,,172.86942422999783,None,172.86942422999783,None,2023-05-01-14:46:09.235533,172.87627950000024,173.1856133000001,172.87627950000024,None,None,172.87627950000024,None,173.68565453000048,None,,,,22055,0001,2023_May_01_1443,localizer,2021.1.3,59.846445989237196,
block,objects,objects050.bmp,,,,,0,54,54,54,,,,,,,,,,,,,,,,,,,,,,,,,,,,,,,,,,,,,,,,,,None,,173.68565453000048,None,173.68565453000048,None,2023-05-01-14:46:10.051129,173.69576479999887,174.0033489999987,173.69576479999887,None,None,173.69576479999887,None,174.50272792999823,None,,,,22055,0001,2023_May_01_1443,localizer,2021.1.3,59.846445989237196,
block,objects,objects075.bmp,,,,,0,55,55,55,,,,,,,,,,,,,,,,,,,,,,,,,,,,,,,,,,,,,,,,,,None,,174.50272792999823,None,174.50272792999823,None,2023-05-01-14:46:10.868197,174.51418299999932,174.8193848999981,174.51418299999932,None,None,174.51418299999932,None,175.32065772999778,None,,,,22055,0001,2023_May_01_1443,localizer,2021.1.3,59.846445989237196,
block,objects,objects066.bmp,,,,,0,56,56,56,,,,,,,,,,,,,,,,,,,,,,,,,,,,,,,,,,,,,,,,,,None,,175.32065772999778,None,175.32065772999778,None,2023-05-01-14:46:11.690137,175.33758029999808,175.63666680000097,175.33758029999808,None,None,175.33758029999808,None,176.1366973299999,None,,,,22055,0001,2023_May_01_1443,localizer,2021.1.3,59.846445989237196,
block,objects,objects074.bmp,,,,,0,57,57,57,,,,,,,,,,,,,,,,,,,,,,,,,,,,,,,,,,,,,,,,,,None,,176.1366973299999,None,176.1366973299999,None,2023-05-01-14:46:12.503152,176.15025320000132,176.45251540000027,176.15025320000132,None,None,176.15025320000132,None,176.95308752999773,None,,,,22055,0001,2023_May_01_1443,localizer,2021.1.3,59.846445989237196,
block,objects,objects026.bmp,,,,,0,58,58,58,,,,,,,,,,,,,,,,,,,,,,,,,,,,,,,,,,,,,,,,,,None,,176.95308752999773,None,176.95308752999773,None,2023-05-01-14:46:13.319548,176.96567620000133,177.2701608999996,176.96567620000133,None,None,176.96567620000133,None,177.76932783000012,None,,,,22055,0001,2023_May_01_1443,localizer,2021.1.3,59.846445989237196,
block_end,objects,objects010.bmp,,,,,0,59,59,59,,,,,,,,,,,,,,,,,,,,,,,,,,,,,,,,,,,,,,,,,,None,,177.76932783000012,None,177.76932783000012,None,2023-05-01-14:46:14.134799,177.78042089999872,178.08639029999904,177.78042089999872,None,None,177.78042089999872,None,178.5855096300009,None,,,,22055,0001,2023_May_01_1443,localizer,2021.1.3,59.846445989237196,
null_block,null_block,null_block.bmp,,,,,0,60,60,60,,,,,,,,,,,,,,,,,,,,,,,,,,,,,,,,,,,,,,,,,,t,1.733106099996803,178.5857748999988,None,178.5857748999988,None,2023-05-01-14:46:16.713032,180.35933115999944,None,180.35933115999944,None,None,180.35933115999944,None,180.366783999998,None,,,,22055,0001,2023_May_01_1443,localizer,2021.1.3,59.846445989237196,
null_block,null_block,null_block.bmp,,,,,0,61,61,61,,,,,,,,,,,,,,,,,,,,,,,,,,,,,,,,,,,,,,,,,,t,1.9488330999993195,192.36980989999938,None,192.36980989999938,None,2023-05-01-14:46:30.703654,194.33721293000127,None,194.33721293000127,None,None,194.33721293000127,None,194.3419047999996,None,,,,22055,0001,2023_May_01_1443,localizer,2021.1.3,59.846445989237196,
block_start,scenes,scenes025.bmp,,,,,0,62,62,62,,,,,,,,,,,,,,,,,,,,,,,,,,,,,,,,,,,,,,,,,,t,1.9621420000003127,206.35611399999834,None,206.35611399999834,None,2023-05-01-14:46:44.706929,208.3525010000012,208.65263399999822,208.3525010000012,None,None,208.3525010000012,None,209.1531057299988,None,,,,22055,0001,2023_May_01_1443,localizer,2021.1.3,59.846445989237196,
block,scenes,scenes050.bmp,,,,,0,63,63,63,,,,,,,,,,,,,,,,,,,,,,,,,,,,,,,,,,,,,,,,,,None,,209.1531057299988,None,209.1531057299988,None,2023-05-01-14:46:45.518589,209.165406600001,209.46955969999908,209.165406600001,None,None,209.165406600001,None,209.96961453000114,None,,,,22055,0001,2023_May_01_1443,localizer,2021.1.3,59.846445989237196,
block,scenes,scenes006.bmp,,,,,0,64,64,64,,,,,,,,,,,,,,,,,,,,,,,,,,,,,,,,,,,,,,,,,,None,,209.96961453000114,None,209.96961453000114,None,2023-05-01-14:46:46.335088,209.98086440000043,210.28608819999863,209.98086440000043,None,None,209.98086440000043,None,210.7865408299993,None,,,,22055,0001,2023_May_01_1443,localizer,2021.1.3,59.846445989237196,
block,scenes,scenes035.bmp,,,,,0,65,65,65,,,,,,,,,,,,,,,,,,,,,,,,,,,,,,,,,,,,,,,,,,None,,210.7865408299993,None,210.7865408299993,None,2023-05-01-14:46:47.152030,210.78725679999843,211.08623409999927,210.78725679999843,None,None,210.78725679999843,None,211.59029652999817,None,,,,22055,0001,2023_May_01_1443,localizer,2021.1.3,59.846445989237196,
block,scenes,scenes026.bmp,,,,,0,66,66,66,,,,,,,,,,,,,,,,,,,,,,,,,,,,,,,,,,,,,,,,,,None,,211.59029652999817,None,211.59029652999817,None,2023-05-01-14:46:47.964520,211.6149136999993,211.91972149999856,211.6149136999993,211.6149136999993,None,211.6149136999993,211.6149136999993,212.40302822999803,None,,,,22055,0001,2023_May_01_1443,localizer,2021.1.3,59.846445989237196,
block,scenes,scenes065.bmp,,,,,0,67,67,67,,,,,,,,,,,,,,,,,,,,,,,,,,,,,,,,,,,,,,,,,,None,,212.40302822999803,None,212.40302822999803,None,2023-05-01-14:46:48.768498,212.41443860000072,212.71954729999925,212.41443860000072,None,None,212.41443860000072,None,213.21957502999868,None,,,,22055,0001,2023_May_01_1443,localizer,2021.1.3,59.846445989237196,
block,scenes,scenes090.bmp,,,,,0,68,68,68,,,,,,,,,,,,,,,,,,,,,,,,,,,,,,,,,,,,,,,,,,None,,213.21957502999868,None,213.21957502999868,None,2023-05-01-14:46:49.585044,213.23029899999892,213.53631949999908,213.23029899999892,None,None,213.23029899999892,None,214.0362780299991,None,,,,22055,0001,2023_May_01_1443,localizer,2021.1.3,59.846445989237196,
block,scenes,scenes047.bmp,,,,,0,69,69,69,,,,,,,,,,,,,,,,,,,,,,,,,,,,,,,,,,,,,,,,,,None,,214.0362780299991,None,214.0362780299991,None,2023-05-01-14:46:50.401749,214.04697870000018,214.35279269999955,214.04697870000018,None,None,214.04697870000018,None,214.85290442999832,None,,,,22055,0001,2023_May_01_1443,localizer,2021.1.3,59.846445989237196,
block,scenes,scenes005.bmp,,,,,0,70,70,70,,,,,,,,,,,,,,,,,,,,,,,,,,,,,,,,,,,,,,,,,,None,,214.85290442999832,None,214.85290442999832,None,2023-05-01-14:46:51.219014,214.86386459999994,215.16964929999813,214.86386459999994,None,None,214.86386459999994,None,215.66954682999932,None,,,,22055,0001,2023_May_01_1443,localizer,2021.1.3,59.846445989237196,
block,scenes,scenes027.bmp,,,,,0,71,71,71,,,,,,,,,,,,,,,,,,,,,,,,,,,,,,,,,,,,,,,,,,None,,215.66954682999932,None,215.66954682999932,None,2023-05-01-14:46:52.035022,215.67072149999876,215.9862159000004,215.67072149999876,None,None,215.67072149999876,None,216.47004092999924,None,,,,22055,0001,2023_May_01_1443,localizer,2021.1.3,59.846445989237196,
block,scenes,scenes015.bmp,,,,,0,72,72,72,,,,,,,,,,,,,,,,,,,,,,,,,,,,,,,,,,,,,,,,,,None,,216.47004092999924,None,216.47004092999924,None,2023-05-01-14:46:52.837496,216.47281010000006,216.78631029999815,216.47281010000006,216.47281010000006,None,216.47281010000006,216.47281010000006,217.286272629998,None,,,,22055,0001,2023_May_01_1443,localizer,2021.1.3,59.846445989237196,
block,scenes,scenes078.bmp,,,,,0,73,73,73,,,,,,,,,,,,,,,,,,,,,,,,,,,,,,,,,,,,,,,,,,None,,217.286272629998,None,217.286272629998,None,2023-05-01-14:46:53.651743,217.29766129999916,217.60280430000057,217.29766129999916,None,None,217.29766129999916,None,218.10278852999983,None,,,,22055,0001,2023_May_01_1443,localizer,2021.1.3,59.846445989237196,
block,scenes,scenes067.bmp,,,,,0,74,74,74,,,,,,,,,,,,,,,,,,,,,,,,,,,,,,,,,,,,,,,,,,None,,218.10278852999983,None,218.10278852999983,None,2023-05-01-14:46:54.468259,218.11357800000042,218.4195522000009,218.11357800000042,None,None,218.11357800000042,None,218.9207873300009,None,,,,22055,0001,2023_May_01_1443,localizer,2021.1.3,59.846445989237196,
block,scenes,scenes071.bmp,,,,,0,75,75,75,,,,,,,,,,,,,,,,,,,,,,,,,,,,,,,,,,,,,,,,,,None,,218.9207873300009,None,218.9207873300009,None,2023-05-01-14:46:55.287410,218.93541259999984,219.23620999999912,218.93541259999984,None,None,218.93541259999984,None,219.73652292999833,None,,,,22055,0001,2023_May_01_1443,localizer,2021.1.3,59.846445989237196,
block_end,scenes,scenes056.bmp,,,,,0,76,76,76,,,,,,,,,,,,,,,,,,,,,,,,,,,,,,,,,,,,,,,,,,None,,219.73652292999833,None,219.73652292999833,None,2023-05-01-14:46:56.102192,219.74863779999941,220.05290009999953,219.74863779999941,None,None,219.74863779999941,None,220.55303582999915,None,,,,22055,0001,2023_May_01_1443,localizer,2021.1.3,59.846445989237196,
block_start,faces,faces082.bmp,,,,,0,77,77,77,,,,,,,,,,,,,,,,,,,,,,,,,,,,,,,,,,,,,,,,,,t,1.764611500002502,220.5526049,None,220.5526049,None,2023-05-01-14:46:58.701005,222.34780559999854,222.6529335999985,222.34780559999854,None,None,222.34780559999854,None,223.15331942999984,None,,,,22055,0001,2023_May_01_1443,localizer,2021.1.3,59.846445989237196,
block,faces,faces060.bmp,,,,,0,78,78,78,,,,,,,,,,,,,,,,,,,,,,,,,,,,,,,,,,,,,,,,,,None,,223.15331942999984,None,223.15331942999984,None,2023-05-01-14:46:59.519064,223.165247500001,223.46974520000003,223.165247500001,None,None,223.165247500001,None,223.96963403000046,None,,,,22055,0001,2023_May_01_1443,localizer,2021.1.3,59.846445989237196,
block,faces,faces026.bmp,,,,,0,79,79,79,,,,,,,,,,,,,,,,,,,,,,,,,,,,,,,,,,,,,,,,,,None,,223.96963403000046,None,223.96963403000046,None,2023-05-01-14:47:00.335107,224.00860000000102,224.3197145999984,224.00860000000102,None,None,224.00860000000102,None,224.79299882999914,None,,,,22055,0001,2023_May_01_1443,localizer,2021.1.3,59.846445989237196,
block,faces,faces027.bmp,,,,,0,80,80,80,,,,,,,,,,,,,,,,,,,,,,,,,,,,,,,,,,,,,,,,,,None,,224.79299882999914,None,224.79299882999914,None,2023-05-01-14:47:01.166274,224.7997206,225.10292330000084,224.7997206,None,None,224.7997206,None,225.60443342999935,None,,,,22055,0001,2023_May_01_1443,localizer,2021.1.3,59.846445989237196,
block,faces,faces073.bmp,,,,,0,81,81,81,,,,,,,,,,,,,,,,,,,,,,,,,,,,,,,,,,,,,,,,,,None,,225.60443342999935,None,225.60443342999935,None,2023-05-01-14:47:01.971864,225.61980179999955,225.92004389999784,225.61980179999955,None,None,225.61980179999955,None,226.42033552999857,None,,,,22055,0001,2023_May_01_1443,localizer,2021.1.3,59.846445989237196,
block,faces,faces031.bmp,,,,,0,82,82,82,,,,,,,,,,,,,,,,,,,,,,,,,,,,,,,,,,,,,,,,,,None,,226.42033552999857,None,226.42033552999857,None,2023-05-01-14:47:02.786793,226.42192710000018,226.73571919999813,226.42192710000018,None,None,226.42192710000018,None,227.22101942999944,None,,,,22055,0001,2023_May_01_1443,localizer,2021.1.3,59.846445989237196,
block,faces,faces034.bmp,,,,,0,83,83,83,,,,,,,,,,,,,,,,,,,,,,,,,,,,,,,,,,,,,,,,,,None,,227.22101942999944,None,227.22101942999944,None,2023-05-01-14:47:03.590681,227.23918369999956,227.55286669999987,227.23918369999956,227.23918369999956,None,227.23918369999956,227.23918369999956,228.03635792999995,None,,,,22055,0001,2023_May_01_1443,localizer,2021.1.3,59.846445989237196,
block,faces,faces066.bmp,,,,,0,84,84,84,,,,,,,,,,,,,,,,,,,,,,,,,,,,,,,,,,,,,,,,,,None,,228.03635792999995,None,228.03635792999995,None,2023-05-01-14:47:04.401810,228.04755749999822,228.35951809999824,228.04755749999822,None,None,228.04755749999822,None,228.85533012999878,None,,,,22055,0001,2023_May_01_1443,localizer,2021.1.3,59.846445989237196,
block,faces,faces032.bmp,,,,,0,85,85,85,,,,,,,,,,,,,,,,,,,,,,,,,,,,,,,,,,,,,,,,,,None,,228.85533012999878,None,228.85533012999878,None,2023-05-01-14:47:05.221370,228.86136679999981,229.16961069999888,228.86136679999981,None,None,228.86136679999981,None,229.66975093000002,None,,,,22055,0001,2023_May_01_1443,localizer,2021.1.3,59.846445989237196,
block,faces,faces039.bmp,,,,,0,86,86,86,,,,,,,,,,,,,,,,,,,,,,,,,,,,,,,,,,,,,,,,,,None,,229.66975093000002,None,229.66975093000002,None,2023-05-01-14:47:06.035220,229.6707740999991,229.97018110000135,229.6707740999991,None,None,229.6707740999991,None,230.470297329998,None,,,,22055,0001,2023_May_01_1443,localizer,2021.1.3,59.846445989237196,
block,faces,faces011.bmp,,,,,0,87,87,87,,,,,,,,,,,,,,,,,,,,,,,,,,,,,,,,,,,,,,,,,,None,,230.470297329998,None,230.470297329998,None,2023-05-01-14:47:06.838750,230.4733801000002,230.78635009999925,230.4733801000002,230.4733801000002,None,230.4733801000002,230.4733801000002,231.28748613000135,None,,,,22055,0001,2023_May_01_1443,localizer,2021.1.3,59.846445989237196,
block,faces,faces020.bmp,,,,,0,88,88,88,,,,,,,,,,,,,,,,,,,,,,,,,,,,,,,,,,,,,,,,,,None,,231.28748613000135,None,231.28748613000135,None,2023-05-01-14:47:07.654128,231.3018693999984,231.6028124000004,231.3018693999984,None,None,231.3018693999984,None,232.10285342999924,None,,,,22055,0001,2023_May_01_1443,localizer,2021.1.3,59.846445989237196,
block,faces,faces006.bmp,,,,,0,89,89,89,,,,,,,,,,,,,,,,,,,,,,,,,,,,,,,,,,,,,,,,,,None,,232.10285342999924,None,232.10285342999924,None,2023-05-01-14:47:08.467332,232.11322260000088,232.41999059999944,232.11322260000088,None,None,232.11322260000088,None,232.91982073000037,None,,,,22055,0001,2023_May_01_1443,localizer,2021.1.3,59.846445989237196,
block,faces,faces017.bmp,,,,,0,90,90,90,,,,,,,,,,,,,,,,,,,,,,,,,,,,,,,,,,,,,,,,,,None,,232.91982073000037,None,232.91982073000037,None,2023-05-01-14:47:09.285290,232.93159229999947,233.23689549999835,232.93159229999947,None,None,232.93159229999947,None,233.7361615300004,None,,,,22055,0001,2023_May_01_1443,localizer,2021.1.3,59.846445989237196,
block_end,faces,faces087.bmp,,,,,0,91,91,91,,,,,,,,,,,,,,,,,,,,,,,,,,,,,,,,,,,,,,,,,,None,,233.7361615300004,None,233.7361615300004,None,2023-05-01-14:47:10.101526,233.73742560000028,234.03644669999994,233.73742560000028,None,None,233.73742560000028,None,234.53658292999972,None,,,,22055,0001,2023_May_01_1443,localizer,2021.1.3,59.846445989237196,
block_start,objects,objects041.bmp,,,,,0,92,92,92,,,,,,,,,,,,,,,,,,,,,,,,,,,,,,,,,,,,,,,,,,t,1.7810461000008218,234.5362916999984,None,234.5362916999984,None,2023-05-01-14:47:12.702565,236.3477955999988,236.6528744999996,236.3477955999988,None,None,236.3477955999988,None,237.15381202999998,None,,,,22055,0001,2023_May_01_1443,localizer,2021.1.3,59.846445989237196,
block,objects,objects059.bmp,,,,,0,93,93,93,,,,,,,,,,,,,,,,,,,,,,,,,,,,,,,,,,,,,,,,,,None,,237.15381202999998,None,237.15381202999998,None,2023-05-01-14:47:13.520267,237.1673422999993,237.46960300000137,237.1673422999993,None,None,237.1673422999993,None,237.97005032999806,None,,,,22055,0001,2023_May_01_1443,localizer,2021.1.3,59.846445989237196,
block,objects,objects069.bmp,,,,,0,94,94,94,,,,,,,,,,,,,,,,,,,,,,,,,,,,,,,,,,,,,,,,,,None,,237.97005032999806,None,237.97005032999806,None,2023-05-01-14:47:14.335539,237.97072209999897,238.26989830000093,237.97072209999897,None,None,237.97072209999897,None,238.77023903000082,None,,,,22055,0001,2023_May_01_1443,localizer,2021.1.3,59.846445989237196,
block,objects,objects008.bmp,,,,,0,95,95,95,,,,,,,,,,,,,,,,,,,,,,,,,,,,,,,,,,,,,,,,,,None,,238.77023903000082,None,238.77023903000082,None,2023-05-01-14:47:15.138765,238.7855574999994,239.0867478,238.7855574999994,238.7855574999994,None,238.7855574999994,238.7855574999994,239.58695923000124,None,,,,22055,0001,2023_May_01_1443,localizer,2021.1.3,59.846445989237196,
block,objects,objects045.bmp,,,,,0,96,96,96,,,,,,,,,,,,,,,,,,,,,,,,,,,,,,,,,,,,,,,,,,None,,239.58695923000124,None,239.58695923000124,None,2023-05-01-14:47:15.952449,239.59993910000048,239.90371740000046,239.59993910000048,None,None,239.59993910000048,None,240.40288252999818,None,,,,22055,0001,2023_May_01_1443,localizer,2021.1.3,59.846445989237196,
block,objects,objects052.bmp,,,,,0,97,97,97,,,,,,,,,,,,,,,,,,,,,,,,,,,,,,,,,,,,,,,,,,None,,240.40288252999818,None,240.40288252999818,None,2023-05-01-14:47:16.768361,240.40421140000035,240.71947590000127,240.40421140000035,None,None,240.40421140000035,None,241.203215129998,None,,,,22055,0001,2023_May_01_1443,localizer,2021.1.3,59.846445989237196,
block,objects,objects020.bmp,,,,,0,98,98,98,,,,,,,,,,,,,,,,,,,,,,,,,,,,,,,,,,,,,,,,,,None,,241.203215129998,None,241.203215129998,None,2023-05-01-14:47:17.570680,241.21234139999797,241.52005389999977,241.21234139999797,241.21234139999797,None,241.21234139999797,241.21234139999797,242.01970992999924,None,,,,22055,0001,2023_May_01_1443,localizer,2021.1.3,59.846445989237196,
block,objects,objects026.bmp,,,,,0,99,99,99,,,,,,,,,,,,,,,,,,,,,,,,,,,,,,,,,,,,,,,,,,None,,242.01970992999924,None,242.01970992999924,None,2023-05-01-14:47:18.385183,242.02049500000066,242.31958099999974,242.02049500000066,None,None,242.02049500000066,None,242.8201048300005,None,,,,22055,0001,2023_May_01_1443,localizer,2021.1.3,59.846445989237196,
block,objects,objects064.bmp,,,,,0,100,100,100,,,,,,,,,,,,,,,,,,,,,,,,,,,,,,,,,,,,,,,,,,None,,242.8201048300005,None,242.8201048300005,None,2023-05-01-14:47:19.188584,242.8348674000008,243.1365236999991,242.8348674000008,242.8348674000008,None,242.8348674000008,242.8348674000008,243.63639793000112,None,,,,22055,0001,2023_May_01_1443,localizer,2021.1.3,59.846445989237196,
block,objects,objects028.bmp,,,,,0,101,101,101,,,,,,,,,,,,,,,,,,,,,,,,,,,,,,,,,,,,,,,,,,None,,243.63639793000112,None,243.63639793000112,None,2023-05-01-14:47:20.001870,243.63727260000087,243.95294640000066,243.63727260000087,None,None,243.63727260000087,None,244.4370467300003,None,,,,22055,0001,2023_May_01_1443,localizer,2021.1.3,59.846445989237196,
block,objects,objects024.bmp,,,,,0,102,102,102,,,,,,,,,,,,,,,,,,,,,,,,,,,,,,,,,,,,,,,,,,None,,244.4370467300003,None,244.4370467300003,None,2023-05-01-14:47:20.805534,244.45161150000058,244.75308180000138,244.45161150000058,244.45161150000058,None,244.45161150000058,244.45161150000058,245.25380102999844,None,,,,22055,0001,2023_May_01_1443,localizer,2021.1.3,59.846445989237196,
block,objects,objects043.bmp,,,,,0,103,103,103,,,,,,,,,,,,,,,,,,,,,,,,,,,,,,,,,,,,,,,,,,None,,245.25380102999844,None,245.25380102999844,None,2023-05-01-14:47:21.620447,245.2542444999999,245.55380049999803,245.2542444999999,None,None,245.2542444999999,None,246.0535671299993,None,,,,22055,0001,2023_May_01_1443,localizer,2021.1.3,59.846445989237196,
block,objects,objects065.bmp,,,,,0,104,104,104,,,,,,,,,,,,,,,,,,,,,,,,,,,,,,,,,,,,,,,,,,None,,246.0535671299993,None,246.0535671299993,None,2023-05-01-14:47:22.421024,246.06948230000125,246.37005660000068,246.06948230000125,246.06948230000125,None,246.06948230000125,246.06948230000125,246.87119302999855,None,,,,22055,0001,2023_May_01_1443,localizer,2021.1.3,59.846445989237196,
block,objects,objects085.bmp,,,,,0,105,105,105,,,,,,,,,,,,,,,,,,,,,,,,,,,,,,,,,,,,,,,,,,None,,246.87119302999855,None,246.87119302999855,None,2023-05-01-14:47:23.237618,246.8852971999986,247.1863814999997,246.8852971999986,None,None,246.8852971999986,None,247.6866271299994,None,,,,22055,0001,2023_May_01_1443,localizer,2021.1.3,59.846445989237196,
block_end,objects,objects074.bmp,,,,,0,106,106,106,,,,,,,,,,,,,,,,,,,,,,,,,,,,,,,,,,,,,,,,,,None,,247.6866271299994,None,247.6866271299994,None,2023-05-01-14:47:24.052131,247.68742650000058,247.98649790000127,247.68742650000058,None,None,247.68742650000058,None,248.48657922999774,None,,,,22055,0001,2023_May_01_1443,localizer,2021.1.3,59.846445989237196,
block_start,scrambled,scrambled036.bmp,,,,,0,107,107,107,,,,,,,,,,,,,,,,,,,,,,,,,,,,,,,,,,,,,,,,,,t,1.8306783999978506,248.48662310000145,None,248.48662310000145,None,2023-05-01-14:47:26.702492,250.34927990000142,250.65331370000058,250.34927990000142,None,None,250.34927990000142,None,251.15343882999952,None,,,,22055,0001,2023_May_01_1443,localizer,2021.1.3,59.846445989237196,
block,scrambled,scrambled049.bmp,,,,,0,108,108,108,,,,,,,,,,,,,,,,,,,,,,,,,,,,,,,,,,,,,,,,,,None,,251.15343882999952,None,251.15343882999952,None,2023-05-01-14:47:27.519233,251.15419760000077,251.45612080000137,251.15419760000077,None,None,251.15419760000077,None,251.95336463000132,None,,,,22055,0001,2023_May_01_1443,localizer,2021.1.3,59.846445989237196,
block,scrambled,scrambled043.bmp,,,,,0,109,109,109,,,,,,,,,,,,,,,,,,,,,,,,,,,,,,,,,,,,,,,,,,None,,251.95336463000132,None,251.95336463000132,None,2023-05-01-14:47:28.320829,251.95499479999853,252.27016559999902,251.95499479999853,251.95499479999853,None,251.95499479999853,251.95499479999853,252.76980542999883,None,,,,22055,0001,2023_May_01_1443,localizer,2021.1.3,59.846445989237196,
block,scrambled,scrambled043.bmp,,,,,0,110,110,110,,,,,,,,,,,,,,,,,,,,,,,,,,,,,,,,,,,,,,,,,,None,,252.76980542999883,None,252.76980542999883,None,2023-05-01-14:47:29.135274,252.77085029999944,253.0701001999987,252.77085029999944,None,None,252.77085029999944,None,253.57019993000068,None,,,,22055,0001,2023_May_01_1443,localizer,2021.1.3,59.846445989237196,
block,scrambled,scrambled020.bmp,,,,,0,111,111,111,,,,,,,,,,,,,,,,,,,,,,,,,,,,,,,,,,,,,,,,,,None,,253.57019993000068,None,253.57019993000068,None,2023-05-01-14:47:29.937661,253.58396469999934,253.88629539999965,253.58396469999934,253.58396469999934,None,253.58396469999934,253.58396469999934,254.38667332999904,None,,,,22055,0001,2023_May_01_1443,localizer,2021.1.3,59.846445989237196,
block,scrambled,scrambled013.bmp,,,,,0,112,112,112,,,,,,,,,,,,,,,,,,,,,,,,,,,,,,,,,,,,,,,,,,None,,254.38667332999904,None,254.38667332999904,None,2023-05-01-14:47:30.752166,254.39819780000107,254.7031347000011,254.39819780000107,None,None,254.39819780000107,None,255.2032846299997,None,,,,22055,0001,2023_May_01_1443,localizer,2021.1.3,59.846445989237196,
block,scrambled,scrambled007.bmp,,,,,0,113,113,113,,,,,,,,,,,,,,,,,,,,,,,,,,,,,,,,,,,,,,,,,,None,,255.2032846299997,None,255.2032846299997,None,2023-05-01-14:47:31.568753,255.2150331999983,255.51999140000044,255.2150331999983,None,None,255.2150331999983,None,256.02056832999807,None,,,,22055,0001,2023_May_01_1443,localizer,2021.1.3,59.846445989237196,
block,scrambled,scrambled047.bmp,,,,,0,114,114,114,,,,,,,,,,,,,,,,,,,,,,,,,,,,,,,,,,,,,,,,,,None,,256.02056832999807,None,256.02056832999807,None,2023-05-01-14:47:32.387216,256.0333198999979,256.3365731999984,256.0333198999979,None,None,256.0333198999979,None,256.83651782999806,None,,,,22055,0001,2023_May_01_1443,localizer,2021.1.3,59.846445989237196,
block,scrambled,scrambled072.bmp,,,,,0,115,115,115,,,,,,,,,,,,,,,,,,,,,,,,,,,,,,,,,,,,,,,,,,None,,256.83651782999806,None,256.83651782999806,None,2023-05-01-14:47:33.202198,256.8478384000009,257.1532432999993,256.8478384000009,None,None,256.8478384000009,None,257.65309772999973,None,,,,22055,0001,2023_May_01_1443,localizer,2021.1.3,59.846445989237196,
block,scrambled,scrambled071.bmp,,,,,0,116,116,116,,,,,,,,,,,,,,,,,,,,,,,,,,,,,,,,,,,,,,,,,,None,,257.65309772999973,None,257.65309772999973,None,2023-05-01-14:47:34.018572,257.65408190000016,257.9530838999999,257.65408190000016,None,None,257.65408190000016,None,258.4531552300003,None,,,,22055,0001,2023_May_01_1443,localizer,2021.1.3,59.846445989237196,
block,scrambled,scrambled069.bmp,,,,,0,117,117,117,,,,,,,,,,,,,,,,,,,,,,,,,,,,,,,,,,,,,,,,,,None,,258.4531552300003,None,258.4531552300003,None,2023-05-01-14:47:34.820753,258.46642489999795,258.7698524000007,258.46642489999795,258.46642489999795,None,258.46642489999795,258.46642489999795,259.27013762999997,None,,,,22055,0001,2023_May_01_1443,localizer,2021.1.3,59.846445989237196,
block,scrambled,scrambled039.bmp,,,,,0,118,118,118,,,,,,,,,,,,,,,,,,,,,,,,,,,,,,,,,,,,,,,,,,None,,259.27013762999997,None,259.27013762999997,None,2023-05-01-14:47:35.635748,259.28212580000036,259.5928834000006,259.28212580000036,None,None,259.28212580000036,None,260.08742933000104,None,,,,22055,0001,2023_May_01_1443,localizer,2021.1.3,59.846445989237196,
block,scrambled,scrambled001.bmp,,,,,0,119,119,119,,,,,,,,,,,,,,,,,,,,,,,,,,,,,,,,,,,,,,,,,,None,,260.08742933000104,None,260.08742933000104,None,2023-05-01-14:47:36.454983,260.1019048999988,260.403035299998,260.1019048999988,None,None,260.1019048999988,None,260.9033204300002,None,,,,22055,0001,2023_May_01_1443,localizer,2021.1.3,59.846445989237196,
block,scrambled,scrambled068.bmp,,,,,0,120,120,120,,,,,,,,,,,,,,,,,,,,,,,,,,,,,,,,,,,,,,,,,,None,,260.9033204300002,None,260.9033204300002,None,2023-05-01-14:47:37.269013,260.9154269999999,261.21989329999997,260.9154269999999,None,None,260.9154269999999,None,261.71994183000135,None,,,,22055,0001,2023_May_01_1443,localizer,2021.1.3,59.846445989237196,
block_end,scrambled,scrambled078.bmp,,,,,0,121,121,121,,,,,,,,,,,,,,,,,,,,,,,,,,,,,,,,,,,,,,,,,,None,,261.71994183000135,None,261.71994183000135,None,2023-05-01-14:47:38.085665,261.7314726000004,262.0367191000005,261.7314726000004,None,None,261.7314726000004,None,262.53684562999916,None,,,,22055,0001,2023_May_01_1443,localizer,2021.1.3,59.846445989237196,
null_block,null_block,null_block.bmp,,,,,0,122,122,122,,,,,,,,,,,,,,,,,,,,,,,,,,,,,,,,,,,,,,,,,,t,1.780500300003041,262.53675179999846,None,262.53675179999846,None,2023-05-01-14:47:40.705351,264.33790603000017,None,264.33790603000017,None,None,264.33790603000017,None,264.34546749999936,None,,,,22055,0001,2023_May_01_1443,localizer,2021.1.3,59.846445989237196,
block_start,scrambled,scrambled020.bmp,,,,,0,123,123,123,,,,,,,,,,,,,,,,,,,,,,,,,,,,,,,,,,,,,,,,,,t,1.9642217999971763,276.35307900000043,None,276.35307900000043,None,2023-05-01-14:47:54.707089,278.3404827000013,278.6531470000009,278.3404827000013,None,None,278.3404827000013,None,279.15303012999794,None,,,,22055,0001,2023_May_01_1443,localizer,2021.1.3,59.846445989237196,
block,scrambled,scrambled076.bmp,,,,,0,124,124,124,,,,,,,,,,,,,,,,,,,,,,,,,,,,,,,,,,,,,,,,,,None,,279.15303012999794,None,279.15303012999794,None,2023-05-01-14:47:55.518224,279.15415660000144,279.4535050000013,279.15415660000144,None,None,279.15415660000144,None,279.9535676300009,None,,,,22055,0001,2023_May_01_1443,localizer,2021.1.3,59.846445989237196,
block,scrambled,scrambled013.bmp,,,,,0,125,125,125,,,,,,,,,,,,,,,,,,,,,,,,,,,,,,,,,,,,,,,,,,None,,279.9535676300009,None,279.9535676300009,None,2023-05-01-14:47:56.321031,279.9548563999997,280.270184099998,279.9548563999997,279.9548563999997,None,279.9548563999997,279.9548563999997,280.7699266300013,None,,,,22055,0001,2023_May_01_1443,localizer,2021.1.3,59.846445989237196,
block,scrambled,scrambled058.bmp,,,,,0,126,126,126,,,,,,,,,,,,,,,,,,,,,,,,,,,,,,,,,,,,,,,,,,None,,280.7699266300013,None,280.7699266300013,None,2023-05-01-14:47:57.135893,280.7813338999986,281.08679720000146,280.7813338999986,None,None,280.7813338999986,None,281.5876603299992,None,,,,22055,0001,2023_May_01_1443,localizer,2021.1.3,59.846445989237196,
block,scrambled,scrambled044.bmp,,,,,0,127,127,127,,,,,,,,,,,,,,,,,,,,,,,,,,,,,,,,,,,,,,,,,,None,,281.5876603299992,None,281.5876603299992,None,2023-05-01-14:47:57.954962,281.6020989999997,281.903168599998,281.6020989999997,None,None,281.6020989999997,None,282.40377182999947,None,,,,22055,0001,2023_May_01_1443,localizer,2021.1.3,59.846445989237196,
block,scrambled,scrambled014.bmp,,,,,0,128,128,128,,,,,,,,,,,,,,,,,,,,,,,,,,,,,,,,,,,,,,,,,,None,,282.40377182999947,None,282.40377182999947,None,2023-05-01-14:47:58.769235,282.4162292000001,282.7206479999986,282.4162292000001,None,None,282.4162292000001,None,283.2200860300007,None,,,,22055,0001,2023_May_01_1443,localizer,2021.1.3,59.846445989237196,
block,scrambled,scrambled029.bmp,,,,,0,129,129,129,,,,,,,,,,,,,,,,,,,,,,,,,,,,,,,,,,,,,,,,,,None,,283.2200860300007,None,283.2200860300007,None,2023-05-01-14:47:59.585554,283.2321000000011,283.53665629999887,283.2321000000011,None,None,283.2321000000011,None,284.0365689299986,None,,,,22055,0001,2023_May_01_1443,localizer,2021.1.3,59.846445989237196,
block,scrambled,scrambled069.bmp,,,,,0,130,130,130,,,,,,,,,,,,,,,,,,,,,,,,,,,,,,,,,,,,,,,,,,None,,284.0365689299986,None,284.0365689299986,None,2023-05-01-14:48:00.402036,284.03762509999797,284.33671759999925,284.03762509999797,None,None,284.03762509999797,None,284.83680823000105,None,,,,22055,0001,2023_May_01_1443,localizer,2021.1.3,59.846445989237196,
block,scrambled,scrambled070.bmp,,,,,0,131,131,131,,,,,,,,,,,,,,,,,,,,,,,,,,,,,,,,,,,,,,,,,,None,,284.83680823000105,None,284.83680823000105,None,2023-05-01-14:48:01.204277,284.85073850000117,285.1533706000009,284.85073850000117,284.85073850000117,None,284.85073850000117,284.85073850000117,285.6532761300012,None,,,,22055,0001,2023_May_01_1443,localizer,2021.1.3,59.846445989237196,
block,scrambled,scrambled031.bmp,,,,,0,132,132,132,,,,,,,,,,,,,,,,,,,,,,,,,,,,,,,,,,,,,,,,,,None,,285.6532761300012,None,285.6532761300012,None,2023-05-01-14:48:02.018525,285.6645626999998,285.96981550000055,285.6645626999998,None,None,285.6645626999998,None,286.4700427299984,None,,,,22055,0001,2023_May_01_1443,localizer,2021.1.3,59.846445989237196,
block,scrambled,scrambled019.bmp,,,,,0,133,133,133,,,,,,,,,,,,,,,,,,,,,,,,,,,,,,,,,,,,,,,,,,None,,286.4700427299984,None,286.4700427299984,None,2023-05-01-14:48:02.835517,286.47094749999815,286.7698367000012,286.47094749999815,None,None,286.47094749999815,None,287.27005893000097,None,,,,22055,0001,2023_May_01_1443,localizer,2021.1.3,59.846445989237196,
block,scrambled,scrambled080.bmp,,,,,0,134,134,134,,,,,,,,,,,,,,,,,,,,,,,,,,,,,,,,,,,,,,,,,,None,,287.27005893000097,None,287.27005893000097,None,2023-05-01-14:48:03.637728,287.28321380000125,287.5865893000009,287.28321380000125,287.28321380000125,None,287.28321380000125,287.28321380000125,288.0868222299985,None,,,,22055,0001,2023_May_01_1443,localizer,2021.1.3,59.846445989237196,
block,scrambled,scrambled026.bmp,,,,,0,135,135,135,,,,,,,,,,,,,,,,,,,,,,,,,,,,,,,,,,,,,,,,,,None,,288.0868222299985,None,288.0868222299985,None,2023-05-01-14:48:04.452292,288.094574499999,288.4033242000005,288.094574499999,None,None,288.094574499999,None,288.90306602999846,None,,,,22055,0001,2023_May_01_1443,localizer,2021.1.3,59.846445989237196,
block,scrambled,scrambled085.bmp,,,,,0,136,136,136,,,,,,,,,,,,,,,,,,,,,,,,,,,,,,,,,,,,,,,,,,None,,288.90306602999846,None,288.90306602999846,None,2023-05-01-14:48:05.268539,288.91304319999836,289.2198936999994,288.91304319999836,None,None,288.91304319999836,None,289.72145852999967,None,,,,22055,0001,2023_May_01_1443,localizer,2021.1.3,59.846445989237196,
block_end,scrambled,scrambled033.bmp,,,,,0,137,137,137,,,,,,,,,,,,,,,,,,,,,,,,,,,,,,,,,,,,,,,,,,None,,289.72145852999967,None,289.72145852999967,None,2023-05-01-14:48:06.088090,289.73645810000016,290.03672209999786,289.73645810000016,None,None,289.73645810000016,None,290.53668243000067,None,,,,22055,0001,2023_May_01_1443,localizer,2021.1.3,59.846445989237196,
block_start,faces,faces081.bmp,,,,,0,138,138,138,,,,,,,,,,,,,,,,,,,,,,,,,,,,,,,,,,,,,,,,,,t,1.7806488999995054,290.536578700001,None,290.536578700001,None,2023-05-01-14:48:08.701804,292.3487067999995,292.6533993999983,292.3487067999995,None,None,292.3487067999995,None,293.1530728299993,None,,,,22055,0001,2023_May_01_1443,localizer,2021.1.3,59.846445989237196,
block,faces,faces006.bmp,,,,,0,139,139,139,,,,,,,,,,,,,,,,,,,,,,,,,,,,,,,,,,,,,,,,,,None,,293.1530728299993,None,293.1530728299993,None,2023-05-01-14:48:09.518548,293.15451799999937,293.46998950000125,293.15451799999937,None,None,293.15451799999937,None,293.97008223000086,None,,,,22055,0001,2023_May_01_1443,localizer,2021.1.3,59.846445989237196,
block,faces,faces018.bmp,,,,,0,140,140,140,,,,,,,,,,,,,,,,,,,,,,,,,,,,,,,,,,,,,,,,,,None,,293.97008223000086,None,293.97008223000086,None,2023-05-01-14:48:10.335558,293.98022050000145,294.2868163999992,293.98022050000145,None,None,293.98022050000145,None,294.78735043000125,None,,,,22055,0001,2023_May_01_1443,localizer,2021.1.3,59.846445989237196,
block,faces,faces069.bmp,,,,,0,141,141,141,,,,,,,,,,,,,,,,,,,,,,,,,,,,,,,,,,,,,,,,,,None,,294.78735043000125,None,294.78735043000125,None,2023-05-01-14:48:11.154847,294.80212329999995,295.10352710000006,294.80212329999995,None,None,294.80212329999995,None,295.60324562999887,None,,,,22055,0001,2023_May_01_1443,localizer,2021.1.3,59.846445989237196,
block,faces,faces056.bmp,,,,,0,142,142,142,,,,,,,,,,,,,,,,,,,,,,,,,,,,,,,,,,,,,,,,,,None,,295.60324562999887,None,295.60324562999887,None,2023-05-01-14:48:11.968971,295.61063060000015,295.92038200000025,295.61063060000015,None,None,295.61063060000015,None,296.4203267300007,None,,,,22055,0001,2023_May_01_1443,localizer,2021.1.3,59.846445989237196,
block,faces,faces021.bmp,,,,,0,143,143,143,,,,,,,,,,,,,,,,,,,,,,,,,,,,,,,,,,,,,,,,,,None,,296.4203267300007,None,296.4203267300007,None,2023-05-01-14:48:12.785818,296.4323460000014,296.73662839999815,296.4323460000014,None,None,296.4323460000014,None,297.23685233,None,,,,22055,0001,2023_May_01_1443,localizer,2021.1.3,59.846445989237196,
block,faces,faces042.bmp,,,,,0,144,144,144,,,,,,,,,,,,,,,,,,,,,,,,,,,,,,,,,,,,,,,,,,None,,297.23685233,None,297.23685233,None,2023-05-01-14:48:13.602321,297.24901229999887,297.5532142000011,297.24901229999887,None,None,297.24901229999887,None,298.0535525300009,None,,,,22055,0001,2023_May_01_1443,localizer,2021.1.3,59.846445989237196,
block,faces,faces059.bmp,,,,,0,145,145,145,,,,,,,,,,,,,,,,,,,,,,,,,,,,,,,,,,,,,,,,,,None,,298.0535525300009,None,298.0535525300009,None,2023-05-01-14:48:14.419018,298.06490549999944,298.3701758999996,298.06490549999944,None,None,298.06490549999944,None,298.87020852999996,None,,,,22055,0001,2023_May_01_1443,localizer,2021.1.3,59.846445989237196,
block,faces,faces089.bmp,,,,,0,146,146,146,,,,,,,,,,,,,,,,,,,,,,,,,,,,,,,,,,,,,,,,,,None,,298.87020852999996,None,298.87020852999996,None,2023-05-01-14:48:15.235680,298.8711676999992,299.1868116000005,298.8711676999992,None,None,298.8711676999992,None,299.67153662999846,None,,,,22055,0001,2023_May_01_1443,localizer,2021.1.3,59.846445989237196,
block,faces,faces017.bmp,,,,,0,147,147,147,,,,,,,,,,,,,,,,,,,,,,,,,,,,,,,,,,,,,,,,,,None,,299.67153662999846,None,299.67153662999846,None,2023-05-01-14:48:16.041186,299.6756255,299.9769521999988,299.6756255,299.6756255,None,299.6756255,299.6756255,300.48759282999964,None,,,,22055,0001,2023_May_01_1443,localizer,2021.1.3,59.846445989237196,
block,faces,faces039.bmp,,,,,0,148,148,148,,,,,,,,,,,,,,,,,,,,,,,,,,,,,,,,,,,,,,,,,,None,,300.48759282999964,None,300.48759282999964,None,2023-05-01-14:48:16.854029,300.48965899999894,300.8033668999997,300.48965899999894,None,None,300.48965899999894,None,301.30358793000124,None,,,,22055,0001,2023_May_01_1443,localizer,2021.1.3,59.846445989237196,
block,faces,faces052.bmp,,,,,0,149,149,149,,,,,,,,,,,,,,,,,,,,,,,,,,,,,,,,,,,,,,,,,,None,,301.30358793000124,None,301.30358793000124,None,2023-05-01-14:48:17.669270,301.31493709999995,301.6225544000008,301.31493709999995,None,None,301.31493709999995,None,302.1206769299977,None,,,,22055,0001,2023_May_01_1443,localizer,2021.1.3,59.846445989237196,
block,faces,faces078.bmp,,,,,0,150,150,150,,,,,,,,,,,,,,,,,,,,,,,,,,,,,,,,,,,,,,,,,,None,,302.1206769299977,None,302.1206769299977,None,2023-05-01-14:48:18.487181,302.1335193999985,302.43688420000035,302.1335193999985,None,None,302.1335193999985,None,302.9373753299995,None,,,,22055,0001,2023_May_01_1443,localizer,2021.1.3,59.846445989237196,
block,faces,faces009.bmp,,,,,0,151,151,151,,,,,,,,,,,,,,,,,,,,,,,,,,,,,,,,,,,,,,,,,,None,,302.9373753299995,None,302.9373753299995,None,2023-05-01-14:48:19.302864,302.9500900999992,303.2531142000007,302.9500900999992,None,None,302.9500900999992,None,303.75339262999915,None,,,,22055,0001,2023_May_01_1443,localizer,2021.1.3,59.846445989237196,
block_end,faces,faces035.bmp,,,,,0,152,152,152,,,,,,,,,,,,,,,,,,,,,,,,,,,,,,,,,,,,,,,,,,None,,303.75339262999915,None,303.75339262999915,None,2023-05-01-14:48:20.117870,303.7635803000012,304.0701749,303.7635803000012,None,None,303.7635803000012,None,304.57162622999823,None,,,,22055,0001,2023_May_01_1443,localizer,2021.1.3,59.846445989237196,
block_start,scenes,scenes042.bmp,,,,,0,153,153,153,,,,,,,,,,,,,,,,,,,,,,,,,,,,,,,,,,,,,,,,,,t,1.745865999997477,304.57136360000004,None,304.57136360000004,None,2023-05-01-14:48:22.701409,306.34917009999845,306.65351419999934,306.34917009999845,None,None,306.34917009999845,None,307.15367812999904,None,,,,22055,0001,2023_May_01_1443,localizer,2021.1.3,59.846445989237196,
block,scenes,scenes070.bmp,,,,,0,154,154,154,,,,,,,,,,,,,,,,,,,,,,,,,,,,,,,,,,,,,,,,,,None,,307.15367812999904,None,307.15367812999904,None,2023-05-01-14:48:23.519516,307.16556240000136,307.47016299999814,307.16556240000136,None,None,307.16556240000136,None,307.97099082999995,None,,,,22055,0001,2023_May_01_1443,localizer,2021.1.3,59.846445989237196,
block,scenes,scenes084.bmp,,,,,0,155,155,155,,,,,,,,,,,,,,,,,,,,,,,,,,,,,,,,,,,,,,,,,,None,,307.97099082999995,None,307.97099082999995,None,2023-05-01-14:48:24.337446,307.9732150999989,308.28766819999873,307.9732150999989,None,None,307.9732150999989,None,308.7867958299983,None,,,,22055,0001,2023_May_01_1443,localizer,2021.1.3,59.846445989237196,
block,scenes,scenes038.bmp,,,,,0,156,156,156,,,,,,,,,,,,,,,,,,,,,,,,,,,,,,,,,,,,,,,,,,None,,308.7867958299983,None,308.7867958299983,None,2023-05-01-14:48:25.152269,308.7878290000008,309.0868859000002,308.7878290000008,None,None,308.7878290000008,None,309.5869943299993,None,,,,22055,0001,2023_May_01_1443,localizer,2021.1.3,59.846445989237196,
block,scenes,scenes021.bmp,,,,,0,157,157,157,,,,,,,,,,,,,,,,,,,,,,,,,,,,,,,,,,,,,,,,,,None,,309.5869943299993,None,309.5869943299993,None,2023-05-01-14:48:25.954453,309.60086690000026,309.9034095999996,309.60086690000026,309.60086690000026,None,309.60086690000026,309.60086690000026,310.40436913000013,None,,,,22055,0001,2023_May_01_1443,localizer,2021.1.3,59.846445989237196,
block,scenes,scenes011.bmp,,,,,0,158,158,158,,,,,,,,,,,,,,,,,,,,,,,,,,,,,,,,,,,,,,,,,,None,,310.40436913000013,None,310.40436913000013,None,2023-05-01-14:48:26.770824,310.4177344999989,310.72004449999804,310.4177344999989,None,None,310.4177344999989,None,311.220297329998,None,,,,22055,0001,2023_May_01_1443,localizer,2021.1.3,59.846445989237196,
block,scenes,scenes053.bmp,,,,,0,159,159,159,,,,,,,,,,,,,,,,,,,,,,,,,,,,,,,,,,,,,,,,,,None,,311.220297329998,None,311.220297329998,None,2023-05-01-14:48:27.585765,311.22127080000064,311.52031480000005,311.22127080000064,None,None,311.22127080000064,None,312.03690802999773,None,,,,22055,0001,2023_May_01_1443,localizer,2021.1.3,59.846445989237196,
block,scenes,scenes014.bmp,,,,,0,160,160,160,,,,,,,,,,,,,,,,,,,,,,,,,,,,,,,,,,,,,,,,,,None,,312.03690802999773,None,312.03690802999773,None,2023-05-01-14:48:28.402376,312.0437388999999,312.36013829999865,312.0437388999999,None,None,312.0437388999999,None,312.85305903000045,None,,,,22055,0001,2023_May_01_1443,localizer,2021.1.3,59.846445989237196,
block,scenes,scenes080.bmp,,,,,0,161,161,161,,,,,,,,,,,,,,,,,,,,,,,,,,,,,,,,,,,,,,,,,,None,,312.85305903000045,None,312.85305903000045,None,2023-05-01-14:48:29.218534,312.85476859999835,313.17014859999836,312.85476859999835,None,None,312.85476859999835,None,313.65474713000077,None,,,,22055,0001,2023_May_01_1443,localizer,2021.1.3,59.846445989237196,
block,scenes,scenes080.bmp,,,,,0,162,162,162,,,,,,,,,,,,,,,,,,,,,,,,,,,,,,,,,,,,,,,,,,None,,313.65474713000077,None,313.65474713000077,None,2023-05-01-14:48:30.024141,313.6585994999987,313.9706057000003,313.6585994999987,313.6585994999987,None,313.6585994999987,313.6585994999987,314.4706261299987,None,,,,22055,0001,2023_May_01_1443,localizer,2021.1.3,59.846445989237196,
block,scenes,scenes071.bmp,,,,,0,163,163,163,,,,,,,,,,,,,,,,,,,,,,,,,,,,,,,,,,,,,,,,,,None,,314.4706261299987,None,314.4706261299987,None,2023-05-01-14:48:30.837281,314.4713416000013,314.7871046,314.4713416000013,None,None,314.4713416000013,None,315.27159593000107,None,,,,22055,0001,2023_May_01_1443,localizer,2021.1.3,59.846445989237196,
block,scenes,scenes017.bmp,,,,,0,164,164,164,,,,,,,,,,,,,,,,,,,,,,,,,,,,,,,,,,,,,,,,,,None,,315.27159593000107,None,315.27159593000107,None,2023-05-01-14:48:31.641011,315.2885017999979,315.6034475999986,315.2885017999979,315.2885017999979,None,315.2885017999979,315.2885017999979,316.0870850299987,None,,,,22055,0001,2023_May_01_1443,localizer,2021.1.3,59.846445989237196,
block,scenes,scenes031.bmp,,,,,0,165,165,165,,,,,,,,,,,,,,,,,,,,,,,,,,,,,,,,,,,,,,,,,,None,,316.0870850299987,None,316.0870850299987,None,2023-05-01-14:48:32.452594,316.0984976,316.4037122000009,316.0984976,None,None,316.0984976,None,316.9034447300008,None,,,,22055,0001,2023_May_01_1443,localizer,2021.1.3,59.846445989237196,
block,scenes,scenes012.bmp,,,,,0,166,166,166,,,,,,,,,,,,,,,,,,,,,,,,,,,,,,,,,,,,,,,,,,None,,316.9034447300008,None,316.9034447300008,None,2023-05-01-14:48:33.268912,316.915488300001,317.220453599999,316.915488300001,None,None,316.915488300001,None,317.7202176299987,None,,,,22055,0001,2023_May_01_1443,localizer,2021.1.3,59.846445989237196,
block_end,scenes,scenes006.bmp,,,,,0,167,167,167,,,,,,,,,,,,,,,,,,,,,,,,,,,,,,,,,,,,,,,,,,None,,317.7202176299987,None,317.7202176299987,None,2023-05-01-14:48:34.085657,317.7211384000002,318.0210358000004,317.7211384000002,None,None,317.7211384000002,None,318.5205208300002,None,,,,22055,0001,2023_May_01_1443,localizer,2021.1.3,59.846445989237196,
block_start,objects,objects045.bmp,,,,,0,168,168,168,,,,,,,,,,,,,,,,,,,,,,,,,,,,,,,,,,,,,,,,,,t,1.796983199998067,318.52031910000005,None,318.52031910000005,None,2023-05-01-14:48:36.701529,320.3378913999986,320.63667540000097,320.3378913999986,None,None,320.3378913999986,None,321.13728192999844,None,,,,22055,0001,2023_May_01_1443,localizer,2021.1.3,59.846445989237196,
block,objects,objects061.bmp,,,,,0,169,169,169,,,,,,,,,,,,,,,,,,,,,,,,,,,,,,,,,,,,,,,,,,None,,321.13728192999844,None,321.13728192999844,None,2023-05-01-14:48:37.504744,321.1509982999996,321.45365980000133,321.1509982999996,321.1509982999996,None,321.1509982999996,321.1509982999996,321.95373813000043,None,,,,22055,0001,2023_May_01_1443,localizer,2021.1.3,59.846445989237196,
block,objects,objects060.bmp,,,,,0,170,170,170,,,,,,,,,,,,,,,,,,,,,,,,,,,,,,,,,,,,,,,,,,None,,321.95373813000043,None,321.95373813000043,None,2023-05-01-14:48:38.319291,321.96551270000055,322.2707941999979,321.96551270000055,None,None,321.96551270000055,None,322.77046232999857,None,,,,22055,0001,2023_May_01_1443,localizer,2021.1.3,59.846445989237196,
block,objects,objects055.bmp,,,,,0,171,171,171,,,,,,,,,,,,,,,,,,,,,,,,,,,,,,,,,,,,,,,,,,None,,322.77046232999857,None,322.77046232999857,None,2023-05-01-14:48:39.135932,322.78289439999935,323.0870580999981,322.78289439999935,None,None,322.78289439999935,None,323.5877999299999,None,,,,22055,0001,2023_May_01_1443,localizer,2021.1.3,59.846445989237196,
block,objects,objects065.bmp,,,,,0,172,172,172,,,,,,,,,,,,,,,,,,,,,,,,,,,,,,,,,,,,,,,,,,None,,323.5877999299999,None,323.5877999299999,None,2023-05-01-14:48:39.954454,323.5886449999998,323.903457299999,323.5886449999998,None,None,323.5886449999998,None,324.4035132299985,None,,,,22055,0001,2023_May_01_1443,localizer,2021.1.3,59.846445989237196,
block,objects,objects049.bmp,,,,,0,173,173,173,,,,,,,,,,,,,,,,,,,,,,,,,,,,,,,,,,,,,,,,,,None,,324.4035132299985,None,324.4035132299985,None,2023-05-01-14:48:40.769107,324.41511679999894,324.7203373000011,324.41511679999894,None,None,324.41511679999894,None,325.22046412999845,None,,,,22055,0001,2023_May_01_1443,localizer,2021.1.3,59.846445989237196,
block,objects,objects079.bmp,,,,,0,174,174,174,,,,,,,,,,,,,,,,,,,,,,,,,,,,,,,,,,,,,,,,,,None,,325.22046412999845,None,325.22046412999845,None,2023-05-01-14:48:41.585934,325.2323867999985,325.53761889999805,325.2323867999985,None,None,325.2323867999985,None,326.036923829998,None,,,,22055,0001,2023_May_01_1443,localizer,2021.1.3,59.846445989237196,
block,objects,objects039.bmp,,,,,0,175,175,175,,,,,,,,,,,,,,,,,,,,,,,,,,,,,,,,,,,,,,,,,,None,,326.036923829998,None,326.036923829998,None,2023-05-01-14:48:42.402547,326.04772819999926,326.35406389999844,326.04772819999926,None,None,326.04772819999926,None,326.85373722999867,None,,,,22055,0001,2023_May_01_1443,localizer,2021.1.3,59.846445989237196,
block,objects,objects073.bmp,,,,,0,176,176,176,,,,,,,,,,,,,,,,,,,,,,,,,,,,,,,,,,,,,,,,,,None,,326.85373722999867,None,326.85373722999867,None,2023-05-01-14:48:43.219203,326.8655561000014,327.1703736999989,326.8655561000014,None,None,326.8655561000014,None,327.67032913000077,None,,,,22055,0001,2023_May_01_1443,localizer,2021.1.3,59.846445989237196,
block,objects,objects003.bmp,,,,,0,177,177,177,,,,,,,,,,,,,,,,,,,,,,,,,,,,,,,,,,,,,,,,,,None,,327.67032913000077,None,327.67032913000077,None,2023-05-01-14:48:44.035971,327.6806403999981,327.98699059999853,327.6806403999981,None,None,327.6806403999981,None,328.48718142999934,None,,,,22055,0001,2023_May_01_1443,localizer,2021.1.3,59.846445989237196,
block,objects,objects057.bmp,,,,,0,178,178,178,,,,,,,,,,,,,,,,,,,,,,,,,,,,,,,,,,,,,,,,,,None,,328.48718142999934,None,328.48718142999934,None,2023-05-01-14:48:44.852928,328.49920869999914,328.8038262000009,328.49920869999914,None,None,328.49920869999914,None,329.3038620300002,None,,,,22055,0001,2023_May_01_1443,localizer,2021.1.3,59.846445989237196,
block,objects,objects087.bmp,,,,,0,179,179,179,,,,,,,,,,,,,,,,,,,,,,,,,,,,,,,,,,,,,,,,,,None,,329.3038620300002,None,329.3038620300002,None,2023-05-01-14:48:45.669332,329.3156119999985,329.6206768000011,329.3156119999985,None,None,329.3156119999985,None,330.11996142999925,None,,,,22055,0001,2023_May_01_1443,localizer,2021.1.3,59.846445989237196,
block,objects,objects005.bmp,,,,,0,180,180,180,,,,,,,,,,,,,,,,,,,,,,,,,,,,,,,,,,,,,,,,,,None,,330.11996142999925,None,330.11996142999925,None,2023-05-01-14:48:46.486041,330.1323912000007,330.437010499998,330.1323912000007,None,None,330.1323912000007,None,330.93707432999946,None,,,,22055,0001,2023_May_01_1443,localizer,2021.1.3,59.846445989237196,
block,objects,objects058.bmp,,,,,0,181,181,181,,,,,,,,,,,,,,,,,,,,,,,,,,,,,,,,,,,,,,,,,,None,,330.93707432999946,None,330.93707432999946,None,2023-05-01-14:48:47.302546,330.9491023999981,331.2536379999983,330.9491023999981,None,None,330.9491023999981,None,331.754965429999,None,,,,22055,0001,2023_May_01_1443,localizer,2021.1.3,59.846445989237196,
block_end,objects,objects025.bmp,,,,,0,182,182,182,,,,,,,,,,,,,,,,,,,,,,,,,,,,,,,,,,,,,,,,,,None,,331.754965429999,None,331.754965429999,None,2023-05-01-14:48:48.122438,331.7702543999985,332.07043359999807,331.7702543999985,None,None,331.7702543999985,None,332.57066272999947,None,,,,22055,0001,2023_May_01_1443,localizer,2021.1.3,59.846445989237196,
null_block,null_block,null_block.bmp,,,,,0,183,183,183,,,,,,,,,,,,,,,,,,,,,,,,,,,,,,,,,,,,,,,,,,t,1.7468023000001267,332.5703820999988,None,332.5703820999988,None,2023-05-01-14:48:50.702602,334.337038030001,None,334.337038030001,None,None,334.337038030001,None,334.3406544999998,None,,,,22055,0001,2023_May_01_1443,localizer,2021.1.3,59.846445989237196,
block_start,objects,objects063.bmp,,,,,0,184,184,184,,,,,,,,,,,,,,,,,,,,,,,,,,,,,,,,,,,,,,,,,,t,1.9628182999986166,346.3534545000002,None,346.3534545000002,None,2023-05-01-14:49:04.703996,348.3502100000005,348.653398800001,348.3502100000005,None,None,348.3502100000005,None,349.15348022999825,None,,,,22055,0001,2023_May_01_1443,localizer,2021.1.3,59.846445989237196,
block,objects,objects046.bmp,,,,,0,185,185,185,,,,,,,,,,,,,,,,,,,,,,,,,,,,,,,,,,,,,,,,,,None,,349.15348022999825,None,349.15348022999825,None,2023-05-01-14:49:05.518954,349.16320559999804,349.4710367000007,349.16320559999804,None,None,349.16320559999804,None,349.97040862999785,None,,,,22055,0001,2023_May_01_1443,localizer,2021.1.3,59.846445989237196,
block,objects,objects049.bmp,,,,,0,186,186,186,,,,,,,,,,,,,,,,,,,,,,,,,,,,,,,,,,,,,,,,,,None,,349.97040862999785,None,349.97040862999785,None,2023-05-01-14:49:06.335881,349.97127869999895,350.2704139999987,349.97127869999895,None,None,349.97127869999895,None,350.77041972999797,None,,,,22055,0001,2023_May_01_1443,localizer,2021.1.3,59.846445989237196,
block,objects,objects005.bmp,,,,,0,187,187,187,,,,,,,,,,,,,,,,,,,,,,,,,,,,,,,,,,,,,,,,,,None,,350.77041972999797,None,350.77041972999797,None,2023-05-01-14:49:07.137183,350.7710834999998,351.0701479999989,350.7710834999998,350.7710834999998,None,350.7710834999998,350.7710834999998,351.5708248300005,None,,,,22055,0001,2023_May_01_1443,localizer,2021.1.3,59.846445989237196,
block,objects,objects031.bmp,,,,,0,188,188,188,,,,,,,,,,,,,,,,,,,,,,,,,,,,,,,,,,,,,,,,,,None,,351.5708248300005,None,351.5708248300005,None,2023-05-01-14:49:07.938269,351.5804829000008,351.8861290999994,351.5804829000008,351.5804829000008,None,351.5804829000008,351.5804829000008,352.38731822999836,None,,,,22055,0001,2023_May_01_1443,localizer,2021.1.3,59.846445989237196,
block,objects,objects031.bmp,,,,,0,189,189,189,,,,,,,,,,,,,,,,,,,,,,,,,,,,,,,,,,,,,,,,,,None,,352.38731822999836,None,352.38731822999836,None,2023-05-01-14:49:08.752787,352.38816769999903,352.7035599999981,352.38816769999903,None,None,352.38816769999903,None,353.1871828299998,None,,,,22055,0001,2023_May_01_1443,localizer,2021.1.3,59.846445989237196,
block,objects,objects009.bmp,,,,,0,190,190,190,,,,,,,,,,,,,,,,,,,,,,,,,,,,,,,,,,,,,,,,,,None,,353.1871828299998,None,353.1871828299998,None,2023-05-01-14:49:09.554649,353.19591729999956,353.50370629999816,353.19591729999956,353.19591729999956,None,353.19591729999956,353.19591729999956,354.00371443000114,None,,,,22055,0001,2023_May_01_1443,localizer,2021.1.3,59.846445989237196,
block,objects,objects020.bmp,,,,,0,191,191,191,,,,,,,,,,,,,,,,,,,,,,,,,,,,,,,,,,,,,,,,,,None,,354.00371443000114,None,354.00371443000114,None,2023-05-01-14:49:10.369186,354.00467800000115,354.3204345000013,354.00467800000115,None,None,354.00467800000115,None,354.8038716300005,None,,,,22055,0001,2023_May_01_1443,localizer,2021.1.3,59.846445989237196,
block,objects,objects052.bmp,,,,,0,192,192,192,,,,,,,,,,,,,,,,,,,,,,,,,,,,,,,,,,,,,,,,,,None,,354.8038716300005,None,354.8038716300005,None,2023-05-01-14:49:11.170342,354.80480890000035,355.1204481999994,354.80480890000035,354.80480890000035,None,354.80480890000035,354.80480890000035,355.62059622999806,None,,,,22055,0001,2023_May_01_1443,localizer,2021.1.3,59.846445989237196,
block,objects,objects013.bmp,,,,,0,193,193,193,,,,,,,,,,,,,,,,,,,,,,,,,,,,,,,,,,,,,,,,,,None,,355.62059622999806,None,355.62059622999806,None,2023-05-01-14:49:11.986071,355.63069389999873,355.9370256000002,355.63069389999873,None,None,355.63069389999873,None,356.43722363000126,None,,,,22055,0001,2023_May_01_1443,localizer,2021.1.3,59.846445989237196,
block,objects,objects034.bmp,,,,,0,194,194,194,,,,,,,,,,,,,,,,,,,,,,,,,,,,,,,,,,,,,,,,,,None,,356.43722363000126,None,356.43722363000126,None,2023-05-01-14:49:12.802696,356.4489833000007,356.75352869999915,356.4489833000007,None,None,356.4489833000007,None,357.2538156300005,None,,,,22055,0001,2023_May_01_1443,localizer,2021.1.3,59.846445989237196,
block,objects,objects075.bmp,,,,,0,195,195,195,,,,,,,,,,,,,,,,,,,,,,,,,,,,,,,,,,,,,,,,,,None,,357.2538156300005,None,357.2538156300005,None,2023-05-01-14:49:13.619315,357.25486140000066,357.5538772,357.25486140000066,None,None,357.25486140000066,None,358.0545172299979,None,,,,22055,0001,2023_May_01_1443,localizer,2021.1.3,59.846445989237196,
block,objects,objects070.bmp,,,,,0,196,196,196,,,,,,,,,,,,,,,,,,,,,,,,,,,,,,,,,,,,,,,,,,None,,358.0545172299979,None,358.0545172299979,None,2023-05-01-14:49:14.422949,358.07017239999914,358.37066810000033,358.07017239999914,358.07017239999914,None,358.07017239999914,358.07017239999914,358.87048963000126,None,,,,22055,0001,2023_May_01_1443,localizer,2021.1.3,59.846445989237196,
block,objects,objects068.bmp,,,,,0,197,197,197,,,,,,,,,,,,,,,,,,,,,,,,,,,,,,,,,,,,,,,,,,None,,358.87048963000126,None,358.87048963000126,None,2023-05-01-14:49:15.235961,358.8819743999993,359.18714199999886,358.8819743999993,None,None,358.8819743999993,None,359.68727033000033,None,,,,22055,0001,2023_May_01_1443,localizer,2021.1.3,59.846445989237196,
block_end,objects,objects044.bmp,,,,,0,198,198,198,,,,,,,,,,,,,,,,,,,,,,,,,,,,,,,,,,,,,,,,,,None,,359.68727033000033,None,359.68727033000033,None,2023-05-01-14:49:16.052741,359.69876490000024,360.00372720000087,359.69876490000024,None,None,359.69876490000024,None,360.50524212999954,None,,,,22055,0001,2023_May_01_1443,localizer,2021.1.3,59.846445989237196,
block_start,scenes,scenes050.bmp,,,,,0,199,199,199,,,,,,,,,,,,,,,,,,,,,,,,,,,,,,,,,,,,,,,,,,t,1.8110263999988092,360.5051999999996,None,360.5051999999996,None,2023-05-01-14:49:18.701681,362.33888490000027,362.63746479999827,362.33888490000027,None,None,362.33888490000027,None,363.1542945299996,None,,,,22055,0001,2023_May_01_1443,localizer,2021.1.3,59.846445989237196,
block,scenes,scenes026.bmp,,,,,0,200,200,200,,,,,,,,,,,,,,,,,,,,,,,,,,,,,,,,,,,,,,,,,,None,,363.1542945299996,None,363.1542945299996,None,2023-05-01-14:49:19.520875,363.1552430999982,363.45417180000004,363.1552430999982,None,None,363.1552430999982,None,363.9706498300009,None,,,,22055,0001,2023_May_01_1443,localizer,2021.1.3,59.846445989237196,
block,scenes,scenes023.bmp,,,,,0,201,201,201,,,,,,,,,,,,,,,,,,,,,,,,,,,,,,,,,,,,,,,,,,None,,363.9706498300009,None,363.9706498300009,None,2023-05-01-14:49:20.336119,363.98276819999955,364.2875505000011,363.98276819999955,None,None,363.98276819999955,None,364.78720902999777,None,,,,22055,0001,2023_May_01_1443,localizer,2021.1.3,59.846445989237196,
block,scenes,scenes053.bmp,,,,,0,202,202,202,,,,,,,,,,,,,,,,,,,,,,,,,,,,,,,,,,,,,,,,,,None,,364.78720902999777,None,364.78720902999777,None,2023-05-01-14:49:21.152682,364.7883054999984,365.1038192999986,364.7883054999984,None,None,364.7883054999984,None,365.5887595299981,None,,,,22055,0001,2023_May_01_1443,localizer,2021.1.3,59.846445989237196,
block,scenes,scenes076.bmp,,,,,0,203,203,203,,,,,,,,,,,,,,,,,,,,,,,,,,,,,,,,,,,,,,,,,,None,,365.5887595299981,None,365.5887595299981,None,2023-05-01-14:49:21.959430,365.5929173000004,365.90384730000005,365.5929173000004,365.5929173000004,None,365.5929173000004,365.5929173000004,366.40374412999955,None,,,,22055,0001,2023_May_01_1443,localizer,2021.1.3,59.846445989237196,
block,scenes,scenes015.bmp,,,,,0,204,204,204,,,,,,,,,,,,,,,,,,,,,,,,,,,,,,,,,,,,,,,,,,None,,366.40374412999955,None,366.40374412999955,None,2023-05-01-14:49:22.769400,366.40471740000066,366.70382790000076,366.40471740000066,None,None,366.40471740000066,None,367.2037469299983,None,,,,22055,0001,2023_May_01_1443,localizer,2021.1.3,59.846445989237196,
block,scenes,scenes033.bmp,,,,,0,205,205,205,,,,,,,,,,,,,,,,,,,,,,,,,,,,,,,,,,,,,,,,,,None,,367.2037469299983,None,367.2037469299983,None,2023-05-01-14:49:23.571212,367.2179139,367.52052399999957,367.2179139,367.2179139,None,367.2179139,367.2179139,368.0212838300002,None,,,,22055,0001,2023_May_01_1443,localizer,2021.1.3,59.846445989237196,
block,scenes,scenes034.bmp,,,,,0,206,206,206,,,,,,,,,,,,,,,,,,,,,,,,,,,,,,,,,,,,,,,,,,None,,368.0212838300002,None,368.0212838300002,None,2023-05-01-14:49:24.387721,368.0232096,368.33758319999833,368.0232096,None,None,368.0232096,None,368.83732262999985,None,,,,22055,0001,2023_May_01_1443,localizer,2021.1.3,59.846445989237196,
block,scenes,scenes004.bmp,,,,,0,207,207,207,,,,,,,,,,,,,,,,,,,,,,,,,,,,,,,,,,,,,,,,,,None,,368.83732262999985,None,368.83732262999985,None,2023-05-01-14:49:25.202792,368.85139100000015,369.15373120000004,368.85139100000015,None,None,368.85139100000015,None,369.65369403000005,None,,,,22055,0001,2023_May_01_1443,localizer,2021.1.3,59.846445989237196,
block,scenes,scenes056.bmp,,,,,0,208,208,208,,,,,,,,,,,,,,,,,,,,,,,,,,,,,,,,,,,,,,,,,,None,,369.65369403000005,None,369.65369403000005,None,2023-05-01-14:49:26.019168,369.655060699999,369.9704219999985,369.655060699999,None,None,369.655060699999,None,370.47056373000015,None,,,,22055,0001,2023_May_01_1443,localizer,2021.1.3,59.846445989237196,
block,scenes,scenes012.bmp,,,,,0,209,209,209,,,,,,,,,,,,,,,,,,,,,,,,,,,,,,,,,,,,,,,,,,None,,370.47056373000015,None,370.47056373000015,None,2023-05-01-14:49:26.836038,370.47161739999865,370.77102809999997,370.47161739999865,None,None,370.47161739999865,None,371.27068642999876,None,,,,22055,0001,2023_May_01_1443,localizer,2021.1.3,59.846445989237196,
block,scenes,scenes064.bmp,,,,,0,210,210,210,,,,,,,,,,,,,,,,,,,,,,,,,,,,,,,,,,,,,,,,,,None,,371.27068642999876,None,371.27068642999876,None,2023-05-01-14:49:27.638150,371.28357699999833,371.58736409999983,371.28357699999833,371.28357699999833,None,371.28357699999833,371.28357699999833,372.0872042300005,None,,,,22055,0001,2023_May_01_1443,localizer,2021.1.3,59.846445989237196,
block,scenes,scenes055.bmp,,,,,0,211,211,211,,,,,,,,,,,,,,,,,,,,,,,,,,,,,,,,,,,,,,,,,,None,,372.0872042300005,None,372.0872042300005,None,2023-05-01-14:49:28.452927,372.09764580000046,372.40390359999947,372.09764580000046,None,None,372.09764580000046,None,372.9039445300012,None,,,,22055,0001,2023_May_01_1443,localizer,2021.1.3,59.846445989237196,
block,scenes,scenes088.bmp,,,,,0,212,212,212,,,,,,,,,,,,,,,,,,,,,,,,,,,,,,,,,,,,,,,,,,None,,372.9039445300012,None,372.9039445300012,None,2023-05-01-14:49:29.269414,372.91608129999804,373.2206487000003,372.91608129999804,None,None,372.91608129999804,None,373.7101456299977,None,,,,22055,0001,2023_May_01_1443,localizer,2021.1.3,59.846445989237196,
block_end,scenes,scenes092.bmp,,,,,0,213,213,213,,,,,,,,,,,,,,,,,,,,,,,,,,,,,,,,,,,,,,,,,,None,,373.7101456299977,None,373.7101456299977,None,2023-05-01-14:49:30.079574,373.71353029999955,374.0207675999991,373.71353029999955,None,None,373.71353029999955,None,374.52065363,None,,,,22055,0001,2023_May_01_1443,localizer,2021.1.3,59.846445989237196,
block_start,faces,faces025.bmp,,,,,0,214,214,214,,,,,,,,,,,,,,,,,,,,,,,,,,,,,,,,,,,,,,,,,,t,1.7955489000014495,374.52068280000094,None,374.52068280000094,None,2023-05-01-14:49:32.703264,376.3383568999998,376.6538112999988,376.3383568999998,None,None,376.3383568999998,None,377.1376925299999,None,,,,22055,0001,2023_May_01_1443,localizer,2021.1.3,59.846445989237196,
block,faces,faces084.bmp,,,,,0,215,215,215,,,,,,,,,,,,,,,,,,,,,,,,,,,,,,,,,,,,,,,,,,None,,377.1376925299999,None,377.1376925299999,None,2023-05-01-14:49:33.505363,377.1545294999996,377.45414009999877,377.1545294999996,377.1545294999996,None,377.1545294999996,377.1545294999996,377.9538470300002,None,,,,22055,0001,2023_May_01_1443,localizer,2021.1.3,59.846445989237196,
block,faces,faces024.bmp,,,,,0,216,216,216,,,,,,,,,,,,,,,,,,,,,,,,,,,,,,,,,,,,,,,,,,None,,377.9538470300002,None,377.9538470300002,None,2023-05-01-14:49:34.319568,377.9547590000002,378.27050139999847,377.9547590000002,None,None,377.9547590000002,None,378.7545356300005,None,,,,22055,0001,2023_May_01_1443,localizer,2021.1.3,59.846445989237196,
block,faces,faces072.bmp,,,,,0,217,217,217,,,,,,,,,,,,,,,,,,,,,,,,,,,,,,,,,,,,,,,,,,None,,378.7545356300005,None,378.7545356300005,None,2023-05-01-14:49:35.122949,378.7711789999994,379.07082459999947,378.7711789999994,378.7711789999994,None,378.7711789999994,378.7711789999994,379.5704278300007,None,,,,22055,0001,2023_May_01_1443,localizer,2021.1.3,59.846445989237196,
block,faces,faces065.bmp,,,,,0,218,218,218,,,,,,,,,,,,,,,,,,,,,,,,,,,,,,,,,,,,,,,,,,None,,379.5704278300007,None,379.5704278300007,None,2023-05-01-14:49:35.935903,379.58885139999984,379.9044864999996,379.58885139999984,None,None,379.58885139999984,None,380.3880626299986,None,,,,22055,0001,2023_May_01_1443,localizer,2021.1.3,59.846445989237196,
block,faces,faces016.bmp,,,,,0,219,219,219,,,,,,,,,,,,,,,,,,,,,,,,,,,,,,,,,,,,,,,,,,None,,380.3880626299986,None,380.3880626299986,None,2023-05-01-14:49:36.755719,380.40147269999943,380.70397030000095,380.40147269999943,None,None,380.40147269999943,None,381.2043097299982,None,,,,22055,0001,2023_May_01_1443,localizer,2021.1.3,59.846445989237196,
block,faces,faces029.bmp,,,,,0,220,220,220,,,,,,,,,,,,,,,,,,,,,,,,,,,,,,,,,,,,,,,,,,None,,381.2043097299982,None,381.2043097299982,None,2023-05-01-14:49:37.570769,381.2162752000004,381.5204124000011,381.2162752000004,None,None,381.2162752000004,None,382.0208266300004,None,,,,22055,0001,2023_May_01_1443,localizer,2021.1.3,59.846445989237196,
block,faces,faces053.bmp,,,,,0,221,221,221,,,,,,,,,,,,,,,,,,,,,,,,,,,,,,,,,,,,,,,,,,None,,382.0208266300004,None,382.0208266300004,None,2023-05-01-14:49:38.386275,382.0336602999996,382.3373568999996,382.0336602999996,None,None,382.0336602999996,None,382.8381526300007,None,,,,22055,0001,2023_May_01_1443,localizer,2021.1.3,59.846445989237196,
block,faces,faces071.bmp,,,,,0,222,222,222,,,,,,,,,,,,,,,,,,,,,,,,,,,,,,,,,,,,,,,,,,None,,382.8381526300007,None,382.8381526300007,None,2023-05-01-14:49:39.204805,382.84028899999976,383.1546840999981,382.84028899999976,None,None,382.84028899999976,None,383.6548648299984,None,,,,22055,0001,2023_May_01_1443,localizer,2021.1.3,59.846445989237196,
block,faces,faces081.bmp,,,,,0,223,223,223,,,,,,,,,,,,,,,,,,,,,,,,,,,,,,,,,,,,,,,,,,None,,383.6548648299984,None,383.6548648299984,None,2023-05-01-14:49:40.021708,383.65597490000073,383.9705893999999,383.65597490000073,None,None,383.65597490000073,None,384.47063622999923,None,,,,22055,0001,2023_May_01_1443,localizer,2021.1.3,59.846445989237196,
block,faces,faces069.bmp,,,,,0,224,224,224,,,,,,,,,,,,,,,,,,,,,,,,,,,,,,,,,,,,,,,,,,None,,384.47063622999923,None,384.47063622999923,None,2023-05-01-14:49:40.836059,384.4715862999983,384.7871844000001,384.4715862999983,None,None,384.4715862999983,None,385.27117683000034,None,,,,22055,0001,2023_May_01_1443,localizer,2021.1.3,59.846445989237196,
block,faces,faces009.bmp,,,,,0,225,225,225,,,,,,,,,,,,,,,,,,,,,,,,,,,,,,,,,,,,,,,,,,None,,385.27117683000034,None,385.27117683000034,None,2023-05-01-14:49:41.639832,385.2742322999984,385.58793220000007,385.2742322999984,385.2742322999984,None,385.2742322999984,385.2742322999984,386.08735512999993,None,,,,22055,0001,2023_May_01_1443,localizer,2021.1.3,59.846445989237196,
block,faces,faces073.bmp,,,,,0,226,226,226,,,,,,,,,,,,,,,,,,,,,,,,,,,,,,,,,,,,,,,,,,None,,386.08735512999993,None,386.08735512999993,None,2023-05-01-14:49:42.452828,386.0882249999995,386.3873147999984,386.0882249999995,None,None,386.0882249999995,None,386.88733483000107,None,,,,22055,0001,2023_May_01_1443,localizer,2021.1.3,59.846445989237196,
block,faces,faces057.bmp,,,,,0,227,227,227,,,,,,,,,,,,,,,,,,,,,,,,,,,,,,,,,,,,,,,,,,None,,386.88733483000107,None,386.88733483000107,None,2023-05-01-14:49:43.254801,386.9008035000006,387.20410719999927,386.9008035000006,386.9008035000006,None,386.9008035000006,386.9008035000006,387.70409632999946,None,,,,22055,0001,2023_May_01_1443,localizer,2021.1.3,59.846445989237196,
block_end,faces,faces059.bmp,,,,,0,228,228,228,,,,,,,,,,,,,,,,,,,,,,,,,,,,,,,,,,,,,,,,,,None,,387.70409632999946,None,387.70409632999946,None,2023-05-01-14:49:44.069568,387.70501610000065,388.00405749999845,387.70501610000065,None,None,387.70501610000065,None,388.50409192999797,None,,,,22055,0001,2023_May_01_1443,localizer,2021.1.3,59.846445989237196,
block_start,scrambled,scrambled069.bmp,,,,,0,229,229,229,,,,,,,,,,,,,,,,,,,,,,,,,,,,,,,,,,,,,,,,,,t,1.812268399997265,388.50403709999955,None,388.50403709999955,None,2023-05-01-14:49:46.702144,390.3385257000009,390.6376554999988,390.3385257000009,None,None,390.3385257000009,None,391.13803052999793,None,,,,22055,0001,2023_May_01_1443,localizer,2021.1.3,59.846445989237196,
block,scrambled,scrambled015.bmp,,,,,0,230,230,230,,,,,,,,,,,,,,,,,,,,,,,,,,,,,,,,,,,,,,,,,,None,,391.13803052999793,None,391.13803052999793,None,2023-05-01-14:49:47.506551,391.1498879999999,391.4541490999982,391.1498879999999,391.1498879999999,None,391.1498879999999,391.1498879999999,391.9537799299986,None,,,,22055,0001,2023_May_01_1443,localizer,2021.1.3,59.846445989237196,
block,scrambled,scrambled084.bmp,,,,,0,231,231,231,,,,,,,,,,,,,,,,,,,,,,,,,,,,,,,,,,,,,,,,,,None,,391.9537799299986,None,391.9537799299986,None,2023-05-01-14:49:48.319465,391.9655868000009,392.27070280000044,391.9655868000009,None,None,391.9655868000009,None,392.77061743000087,None,,,,22055,0001,2023_May_01_1443,localizer,2021.1.3,59.846445989237196,
block,scrambled,scrambled037.bmp,,,,,0,232,232,232,,,,,,,,,,,,,,,,,,,,,,,,,,,,,,,,,,,,,,,,,,None,,392.77061743000087,None,392.77061743000087,None,2023-05-01-14:49:49.136090,392.7818213999999,393.08734579999873,392.7818213999999,None,None,392.7818213999999,None,393.58724673000034,None,,,,22055,0001,2023_May_01_1443,localizer,2021.1.3,59.846445989237196,
block,scrambled,scrambled027.bmp,,,,,0,233,233,233,,,,,,,,,,,,,,,,,,,,,,,,,,,,,,,,,,,,,,,,,,None,,393.58724673000034,None,393.58724673000034,None,2023-05-01-14:49:49.952462,393.5883771000008,393.9037997000014,393.5883771000008,None,None,393.5883771000008,None,394.4039967299985,None,,,,22055,0001,2023_May_01_1443,localizer,2021.1.3,59.846445989237196,
block,scrambled,scrambled050.bmp,,,,,0,234,234,234,,,,,,,,,,,,,,,,,,,,,,,,,,,,,,,,,,,,,,,,,,None,,394.4039967299985,None,394.4039967299985,None,2023-05-01-14:49:50.769761,394.40463459999955,394.720427799999,394.40463459999955,None,None,394.40463459999955,None,395.20433332999966,None,,,,22055,0001,2023_May_01_1443,localizer,2021.1.3,59.846445989237196,
block,scrambled,scrambled017.bmp,,,,,0,235,235,235,,,,,,,,,,,,,,,,,,,,,,,,,,,,,,,,,,,,,,,,,,None,,395.20433332999966,None,395.20433332999966,None,2023-05-01-14:49:51.571988,395.2061993999996,395.5206118999995,395.2061993999996,395.2061993999996,None,395.2061993999996,395.2061993999996,396.02086472999946,None,,,,22055,0001,2023_May_01_1443,localizer,2021.1.3,59.846445989237196,
block,scrambled,scrambled041.bmp,,,,,0,236,236,236,,,,,,,,,,,,,,,,,,,,,,,,,,,,,,,,,,,,,,,,,,None,,396.02086472999946,None,396.02086472999946,None,2023-05-01-14:49:52.386734,396.0217678000008,396.33719589999964,396.0217678000008,None,None,396.0217678000008,None,396.82090062999924,None,,,,22055,0001,2023_May_01_1443,localizer,2021.1.3,59.846445989237196,
block,scrambled,scrambled019.bmp,,,,,0,237,237,237,,,,,,,,,,,,,,,,,,,,,,,,,,,,,,,,,,,,,,,,,,None,,396.82090062999924,None,396.82090062999924,None,2023-05-01-14:49:53.188593,396.8226247999992,397.1371201000002,396.8226247999992,396.8226247999992,None,396.8226247999992,396.8226247999992,397.63726643000047,None,,,,22055,0001,2023_May_01_1443,localizer,2021.1.3,59.846445989237196,
block,scrambled,scrambled070.bmp,,,,,0,238,238,238,,,,,,,,,,,,,,,,,,,,,,,,,,,,,,,,,,,,,,,,,,None,,397.63726643000047,None,397.63726643000047,None,2023-05-01-14:49:54.002742,397.6382420000009,397.9373701000004,397.6382420000009,None,None,397.6382420000009,None,398.45410693000014,None,,,,22055,0001,2023_May_01_1443,localizer,2021.1.3,59.846445989237196,
block,scrambled,scrambled075.bmp,,,,,0,239,239,239,,,,,,,,,,,,,,,,,,,,,,,,,,,,,,,,,,,,,,,,,,None,,398.45410693000014,None,398.45410693000014,None,2023-05-01-14:49:54.819583,398.46603479999976,398.7712070999987,398.46603479999976,None,None,398.46603479999976,None,399.2717276299998,None,,,,22055,0001,2023_May_01_1443,localizer,2021.1.3,59.846445989237196,
block,scrambled,scrambled057.bmp,,,,,0,240,240,240,,,,,,,,,,,,,,,,,,,,,,,,,,,,,,,,,,,,,,,,,,None,,399.2717276299998,None,399.2717276299998,None,2023-05-01-14:49:55.638206,399.2825849000001,399.5874947000011,399.2825849000001,None,None,399.2825849000001,None,400.0874463299995,None,,,,22055,0001,2023_May_01_1443,localizer,2021.1.3,59.846445989237196,
block,scrambled,scrambled001.bmp,,,,,0,241,241,241,,,,,,,,,,,,,,,,,,,,,,,,,,,,,,,,,,,,,,,,,,None,,400.0874463299995,None,400.0874463299995,None,2023-05-01-14:49:56.452916,400.0883102000007,400.3872114000005,400.0883102000007,None,None,400.0883102000007,None,400.8875210300001,None,,,,22055,0001,2023_May_01_1443,localizer,2021.1.3,59.846445989237196,
block,scrambled,scrambled008.bmp,,,,,0,242,242,242,,,,,,,,,,,,,,,,,,,,,,,,,,,,,,,,,,,,,,,,,,None,,400.8875210300001,None,400.8875210300001,None,2023-05-01-14:49:57.255184,400.9015948999986,401.204353000001,400.9015948999986,400.9015948999986,y,400.9015948999986,400.9015948999986,401.7039353299995,None,0.6483598000013444,,,22055,0001,2023_May_01_1443,localizer,2021.1.3,59.846445989237196,
block_end,scrambled,scrambled030.bmp,,,,,0,243,243,243,,,,,,,,,,,,,,,,,,,,,,,,,,,,,,,,,,,,,,,,,,None,,401.7039353299995,None,401.7039353299995,None,2023-05-01-14:49:58.069408,401.7144499999995,402.02078450000045,401.7144499999995,None,None,401.7144499999995,None,402.5208534300007,None,,,,22055,0001,2023_May_01_1443,localizer,2021.1.3,59.846445989237196,
,,,,,,,,,,,,,,,,,,,,,,,,,,,,,,,,,,,,,,,,,,,,,,,,,,,,,,,,,,,,,,,,,,,,,402.52037389999896,None,,,,,,,
