block_type,condition,img_name,Button.thisRepN,Button.thisTrialN,Button.thisN,Button.thisIndex,trials.thisRepN,trials.thisTrialN,trials.thisN,trials.thisIndex,Ready_experimenter_text.started,Ready_experimenter_text.stopped,Ready_experimenter_resp.keys,Ready_experimenter_resp.rt,Ready_experimenter_resp.started,Ready_experimenter_resp.stopped,Alignment_background.started,Alignment_background.stopped,Alignment_image.started,Alignment_image.stopped,Alignment_resp.keys,Alignment_resp.rt,Alignment_resp.started,Alignment_resp.stopped,Button_text.started,Button_text.stopped,Index_text.started,Index_text.stopped,Index_resp.keys,Index_resp.rt,Index_resp.started,Index_resp.stopped,Middle_text.started,Middle_text.stopped,Middle_resp.keys,Middle_resp.rt,Middle_resp.started,Middle_resp.stopped,Repeat_text.started,Repeat_text.stopped,Repeat_resp.keys,Repeat_resp.corr,Repeat_resp.rt,Repeat_resp.started,Repeat_resp.stopped,instruction_text.started,instruction_text.stopped,key_resp.keys,key_resp.rt,key_resp.started,key_resp.stopped,scanner_t.keys,scanner_t.rt,scanner_t.started,scanner_t.stopped,fixation_wait_for_t.started,fixation_wait_for_t.stopped,real_timestamp_trial_start,image.started,image.stopped,fixation.started,fixation.stopped,repeat_response.keys,repeat_response.started,repeat_response.stopped,fixation_null.started,fixation_null.stopped,repeat_response.rt,end_text.started,end_text.stopped,participant,run,date,expName,psychopyVersion,frameRate,
,,,,,,,,,,,14.098203600035049,None,return,363.95497109997086,14.098203600035049,None,,,,,,,,,,,,,,,,,,,,,,,,,,,,,,,,,,,,,,,,,,,,,,,,,,,,,,,11014,0002,2022_May_04_1428,localizer,2021.1.3,60.02631555543143,
,,,,,,,,,,,,,,,,,378.0992264000233,None,378.0992264000233,None,return,1.0550026999553666,378.0992264000233,None,,,,,,,,,,,,,,,,,,,,,,,,,,,,,,,,,,,,,,,,,,,,,,,11014,0002,2022_May_04_1428,localizer,2021.1.3,60.02631555543143,
,,,0,0,0,0,,,,,,,,,,,,,,,,,,,379.1782536000246,None,380.1934544999385,None,y,2.7589998999610543,380.1934544999385,None,382.98136540001724,None,b,1.265095700044185,382.98136540001724,None,384.28101209993474,None,n,0,1.4084831000072882,384.28101209993474,None,,,,,,,,,,,,,,,,,,,,,,,,,,11014,0002,2022_May_04_1428,localizer,2021.1.3,60.02631555543143,
,,,,,,,,,,,,,,,,,,,,,,,,,,,,,,,,,,,,,,,,,,,,,,385.7115647000028,None,y,28.010815300047398,385.7115647000028,None,,,,,,,,,,,,,,,,,,,,11014,0002,2022_May_04_1428,localizer,2021.1.3,60.02631555543143,
block_start,scenes,scenes043.bmp,,,,,0,0,0,0,,,,,,,,,,,,,,,,,,,,,,,,,,,,,,,,,,,,,,,,,,t,108.96484279993456,413.76556870003697,None,413.76556870003697,None,2022-05-04-14:37:24.546686,522.7504356999416,523.0618544999743,522.7504356999416,None,None,522.7504356999416,None,523.5614732999354,None,,,,11014,0002,2022_May_04_1428,localizer,2021.1.3,60.02631555543143,
block,scenes,scenes076.bmp,,,,,0,1,1,1,,,,,,,,,,,,,,,,,,,,,,,,,,,,,,,,,,,,,,,,,,None,,523.5614732999354,None,523.5614732999354,None,2022-05-04-14:37:25.362046,523.5639608999481,523.8778169000288,523.5639608999481,None,None,523.5639608999481,None,524.3788945000385,None,,,,11014,0002,2022_May_04_1428,localizer,2021.1.3,60.02631555543143,
block,scenes,scenes076.bmp,,,,,0,2,2,2,,,,,,,,,,,,,,,,,,,,,,,,,,,,,,,,,,,,,,,,,,None,,524.3788945000385,None,524.3788945000385,None,2022-05-04-14:37:26.179223,524.3792493999936,524.6822155000409,524.3792493999936,None,None,524.3792493999936,None,525.1796285999706,None,,,,11014,0002,2022_May_04_1428,localizer,2021.1.3,60.02631555543143,
block,scenes,scenes047.bmp,,,,,0,3,3,3,,,,,,,,,,,,,,,,,,,,,,,,,,,,,,,,,,,,,,,,,,None,,525.1796285999706,None,525.1796285999706,None,2022-05-04-14:37:26.984390,525.1835705999983,525.4949255000101,525.1835705999983,525.1835705999983,None,525.1835705999983,525.1835705999983,525.9944789999397,None,,,,11014,0002,2022_May_04_1428,localizer,2021.1.3,60.02631555543143,
block,scenes,scenes071.bmp,,,,,0,4,4,4,,,,,,,,,,,,,,,,,,,,,,,,,,,,,,,,,,,,,,,,,,None,,525.9944789999397,None,525.9944789999397,None,2022-05-04-14:37:27.793908,525.9959696000442,526.2954492999706,525.9959696000442,None,None,525.9959696000442,None,526.7955499999923,None,,,,11014,0002,2022_May_04_1428,localizer,2021.1.3,60.02631555543143,
block,scenes,scenes053.bmp,,,,,0,5,5,5,,,,,,,,,,,,,,,,,,,,,,,,,,,,,,,,,,,,,,,,,,None,,526.7955499999923,None,526.7955499999923,None,2022-05-04-14:37:28.598113,526.8110366000328,527.1118445999455,526.8110366000328,526.8110366000328,None,526.8110366000328,526.8110366000328,527.611446800013,None,,,,11014,0002,2022_May_04_1428,localizer,2021.1.3,60.02631555543143,
block,scenes,scenes070.bmp,,,,,0,6,6,6,,,,,,,,,,,,,,,,,,,,,,,,,,,,,,,,,,,,,,,,,,None,,527.611446800013,None,527.611446800013,None,2022-05-04-14:37:29.410778,527.6193455000175,527.9279716999736,527.6193455000175,None,None,527.6193455000175,None,528.4287232999457,None,,,,11014,0002,2022_May_04_1428,localizer,2021.1.3,60.02631555543143,
block,scenes,scenes088.bmp,,,,,0,7,7,7,,,,,,,,,,,,,,,,,,,,,,,,,,,,,,,,,,,,,,,,,,None,,528.4287232999457,None,528.4287232999457,None,2022-05-04-14:37:30.229253,528.4294398999773,528.7447183999466,528.4294398999773,None,None,528.4294398999773,None,529.2287790999515,None,,,,11014,0002,2022_May_04_1428,localizer,2021.1.3,60.02631555543143,
block,scenes,scenes024.bmp,,,,,0,8,8,8,,,,,,,,,,,,,,,,,,,,,,,,,,,,,,,,,,,,,,,,,,None,,529.2287790999515,None,529.2287790999515,None,2022-05-04-14:37:31.031487,529.2320157999638,529.5452759000473,529.2320157999638,529.2320157999638,None,529.2320157999638,529.2320157999638,530.0455341999884,None,,,,11014,0002,2022_May_04_1428,localizer,2021.1.3,60.02631555543143,
block,scenes,scenes019.bmp,,,,,0,9,9,9,,,,,,,,,,,,,,,,,,,,,,,,,,,,,,,,,,,,,,,,,,None,,530.0455341999884,None,530.0455341999884,None,2022-05-04-14:37:31.846185,530.0573435999686,530.3617345000384,530.0573435999686,None,None,530.0573435999686,None,530.8613591000437,None,,,,11014,0002,2022_May_04_1428,localizer,2021.1.3,60.02631555543143,
block,scenes,scenes091.bmp,,,,,0,10,10,10,,,,,,,,,,,,,,,,,,,,,,,,,,,,,,,,,,,,,,,,,,None,,530.8613591000437,None,530.8613591000437,None,2022-05-04-14:37:32.660953,530.8622868999373,531.1611453000223,530.8622868999373,None,None,530.8622868999373,None,531.6629881000379,None,,,,11014,0002,2022_May_04_1428,localizer,2021.1.3,60.02631555543143,
block,scenes,scenes087.bmp,,,,,0,11,11,11,,,,,,,,,,,,,,,,,,,,,,,,,,,,,,,,,,,,,,,,,,None,,531.6629881000379,None,531.6629881000379,None,2022-05-04-14:37:33.468533,531.6824756000424,531.9949272000231,531.6824756000424,531.6824756000424,None,531.6824756000424,531.6824756000424,532.4791604999452,None,,,,11014,0002,2022_May_04_1428,localizer,2021.1.3,60.02631555543143,
block,scenes,scenes041.bmp,,,,,0,12,12,12,,,,,,,,,,,,,,,,,,,,,,,,,,,,,,,,,,,,,,,,,,None,,532.4791604999452,None,532.4791604999452,None,2022-05-04-14:37:34.279726,532.4900766999926,532.7946099999826,532.4900766999926,None,None,532.4900766999926,None,533.295145499939,None,,,,11014,0002,2022_May_04_1428,localizer,2021.1.3,60.02631555543143,
block,scenes,scenes067.bmp,,,,,0,13,13,13,,,,,,,,,,,,,,,,,,,,,,,,,,,,,,,,,,,,,,,,,,None,,533.295145499939,None,533.295145499939,None,2022-05-04-14:37:35.095030,533.3071988000302,533.6115594999865,533.3071988000302,None,None,533.3071988000302,None,534.1114248999627,None,,,,11014,0002,2022_May_04_1428,localizer,2021.1.3,60.02631555543143,
block_end,scenes,scenes011.bmp,,,,,0,14,14,14,,,,,,,,,,,,,,,,,,,,,,,,,,,,,,,,,,,,,,,,,,None,,534.1114248999627,None,534.1114248999627,None,2022-05-04-14:37:35.910019,534.1128805000335,534.4281494000461,534.1128805000335,None,None,534.1128805000335,None,534.9281029999954,None,,,,11014,0002,2022_May_04_1428,localizer,2021.1.3,60.02631555543143,
block_start,scrambled,scrambled026.bmp,,,,,0,15,15,15,,,,,,,,,,,,,,,,,,,,,,,,,,,,,,,,,,,,,,,,,,t,1.8010561000555754,534.9282442999538,None,534.9282442999538,None,2022-05-04-14:37:38.544189,536.7524281999795,537.0611544999992,536.7524281999795,None,None,536.7524281999795,None,537.5614559000358,None,,,,11014,0002,2022_May_04_1428,localizer,2021.1.3,60.02631555543143,
block,scrambled,scrambled077.bmp,,,,,0,16,16,16,,,,,,,,,,,,,,,,,,,,,,,,,,,,,,,,,,,,,,,,,,None,,537.5614559000358,None,537.5614559000358,None,2022-05-04-14:37:39.361068,537.5705980999628,537.8780449000187,537.5705980999628,None,None,537.5705980999628,None,538.3781240999931,None,,,,11014,0002,2022_May_04_1428,localizer,2021.1.3,60.02631555543143,
block,scrambled,scrambled010.bmp,,,,,0,17,17,17,,,,,,,,,,,,,,,,,,,,,,,,,,,,,,,,,,,,,,,,,,None,,538.3781240999931,None,538.3781240999931,None,2022-05-04-14:37:40.178396,538.3870532000437,538.6947792000137,538.3870532000437,None,None,538.3870532000437,None,539.1951732999412,None,,,,11014,0002,2022_May_04_1428,localizer,2021.1.3,60.02631555543143,
block,scrambled,scrambled047.bmp,,,,,0,18,18,18,,,,,,,,,,,,,,,,,,,,,,,,,,,,,,,,,,,,,,,,,,None,,539.1951732999412,None,539.1951732999412,None,2022-05-04-14:37:40.995086,539.1958530000411,539.5115227999631,539.1958530000411,None,None,539.1958530000411,None,539.9954012999776,None,,,,11014,0002,2022_May_04_1428,localizer,2021.1.3,60.02631555543143,
block,scrambled,scrambled023.bmp,,,,,0,19,19,19,,,,,,,,,,,,,,,,,,,,,,,,,,,,,,,,,,,,,,,,,,None,,539.9954012999776,None,539.9954012999776,None,2022-05-04-14:37:41.797941,539.9982121000066,540.3115676000016,539.9982121000066,539.9982121000066,None,539.9982121000066,539.9982121000066,540.7985793000087,None,,,,11014,0002,2022_May_04_1428,localizer,2021.1.3,60.02631555543143,
block,scrambled,scrambled001.bmp,,,,,0,20,20,20,,,,,,,,,,,,,,,,,,,,,,,,,,,,,,,,,,,,,,,,,,None,,540.7985793000087,None,540.7985793000087,None,2022-05-04-14:37:42.600202,540.8089494999731,541.1118498999858,540.8089494999731,540.8089494999731,None,540.8089494999731,540.8089494999731,541.6120851999847,None,,,,11014,0002,2022_May_04_1428,localizer,2021.1.3,60.02631555543143,
block,scrambled,scrambled050.bmp,,,,,0,21,21,21,,,,,,,,,,,,,,,,,,,,,,,,,,,,,,,,,,,,,,,,,,None,,541.6120851999847,None,541.6120851999847,None,2022-05-04-14:37:43.411557,541.6126387999393,541.9277297999943,541.6126387999393,None,None,541.6126387999393,None,542.427960099955,None,,,,11014,0002,2022_May_04_1428,localizer,2021.1.3,60.02631555543143,
block,scrambled,scrambled052.bmp,,,,,0,22,22,22,,,,,,,,,,,,,,,,,,,,,,,,,,,,,,,,,,,,,,,,,,None,,542.427960099955,None,542.427960099955,None,2022-05-04-14:37:44.227631,542.4365216000006,542.7450649000239,542.4365216000006,None,None,542.4365216000006,None,543.2455528999678,None,,,,11014,0002,2022_May_04_1428,localizer,2021.1.3,60.02631555543143,
block,scrambled,scrambled021.bmp,,,,,0,23,23,23,,,,,,,,,,,,,,,,,,,,,,,,,,,,,,,,,,,,,,,,,,None,,543.2455528999678,None,543.2455528999678,None,2022-05-04-14:37:45.046165,543.2463288999861,543.5615945999743,543.2463288999861,None,None,543.2463288999861,None,544.0612070000032,None,,,,11014,0002,2022_May_04_1428,localizer,2021.1.3,60.02631555543143,
block,scrambled,scrambled044.bmp,,,,,0,24,24,24,,,,,,,,,,,,,,,,,,,,,,,,,,,,,,,,,,,,,,,,,,None,,544.0612070000032,None,544.0612070000032,None,2022-05-04-14:37:45.859845,544.0718187999446,544.3783633999992,544.0718187999446,None,None,544.0718187999446,None,544.8790677999611,None,,,,11014,0002,2022_May_04_1428,localizer,2021.1.3,60.02631555543143,
block,scrambled,scrambled032.bmp,,,,,0,25,25,25,,,,,,,,,,,,,,,,,,,,,,,,,,,,,,,,,,,,,,,,,,None,,544.8790677999611,None,544.8790677999611,None,2022-05-04-14:37:46.678900,544.8869789999444,545.1953841999639,544.8869789999444,None,None,544.8869789999444,None,545.6953578999498,None,,,,11014,0002,2022_May_04_1428,localizer,2021.1.3,60.02631555543143,
block,scrambled,scrambled007.bmp,,,,,0,26,26,26,,,,,,,,,,,,,,,,,,,,,,,,,,,,,,,,,,,,,,,,,,None,,545.6953578999498,None,545.6953578999498,None,2022-05-04-14:37:47.494921,545.705880500027,546.0113385999575,545.705880500027,None,None,545.705880500027,None,546.512172999978,None,,,,11014,0002,2022_May_04_1428,localizer,2021.1.3,60.02631555543143,
block,scrambled,scrambled070.bmp,,,,,0,27,27,27,,,,,,,,,,,,,,,,,,,,,,,,,,,,,,,,,,,,,,,,,,None,,546.512172999978,None,546.512172999978,None,2022-05-04-14:37:48.312801,546.5225037999917,546.8286888999864,546.5225037999917,None,None,546.5225037999917,None,547.328942600009,None,,,,11014,0002,2022_May_04_1428,localizer,2021.1.3,60.02631555543143,
block,scrambled,scrambled020.bmp,,,,,0,28,28,28,,,,,,,,,,,,,,,,,,,,,,,,,,,,,,,,,,,,,,,,,,None,,547.328942600009,None,547.328942600009,None,2022-05-04-14:37:49.129571,547.3294178999495,547.6279050000012,547.3294178999495,None,None,547.3294178999495,None,548.1295853999443,None,,,,11014,0002,2022_May_04_1428,localizer,2021.1.3,60.02631555543143,
block_end,scrambled,scrambled073.bmp,,,,,0,29,29,29,,,,,,,,,,,,,,,,,,,,,,,,,,,,,,,,,,,,,,,,,,None,,548.1295853999443,None,548.1295853999443,None,2022-05-04-14:37:49.935210,548.1359201000305,548.4445900999708,548.1359201000305,548.1359201000305,None,548.1359201000305,548.1359201000305,548.9455241999356,None,,,,11014,0002,2022_May_04_1428,localizer,2021.1.3,60.02631555543143,
block_start,objects,objects029.bmp,,,,,0,30,30,30,,,,,,,,,,,,,,,,,,,,,,,,,,,,,,,,,,,,,,,,,,t,1.783532900037244,548.9458130999701,None,548.9458130999701,None,2022-05-04-14:37:52.544884,550.7554517999524,551.0615210999968,550.7554517999524,None,None,550.7554517999524,None,551.5624399999622,None,,,,11014,0002,2022_May_04_1428,localizer,2021.1.3,60.02631555543143,
block,objects,objects079.bmp,,,,,0,31,31,31,,,,,,,,,,,,,,,,,,,,,,,,,,,,,,,,,,,,,,,,,,None,,551.5624399999622,None,551.5624399999622,None,2022-05-04-14:37:53.363370,551.5630787999835,551.8779771999689,551.5630787999835,None,None,551.5630787999835,None,552.3631905000191,None,,,,11014,0002,2022_May_04_1428,localizer,2021.1.3,60.02631555543143,
block,objects,objects084.bmp,,,,,0,32,32,32,,,,,,,,,,,,,,,,,,,,,,,,,,,,,,,,,,,,,,,,,,None,,552.3631905000191,None,552.3631905000191,None,2022-05-04-14:37:54.168727,552.3692571000429,552.6810071000364,552.3692571000429,552.3692571000429,None,552.3692571000429,552.3692571000429,553.1796156999887,None,,,,11014,0002,2022_May_04_1428,localizer,2021.1.3,60.02631555543143,
block,objects,objects083.bmp,,,,,0,33,33,33,,,,,,,,,,,,,,,,,,,,,,,,,,,,,,,,,,,,,,,,,,None,,553.1796156999887,None,553.1796156999887,None,2022-05-04-14:37:54.981568,553.1948680999922,553.4952539999504,553.1948680999922,None,None,553.1948680999922,None,553.9952829000074,None,,,,11014,0002,2022_May_04_1428,localizer,2021.1.3,60.02631555543143,
block,objects,objects027.bmp,,,,,0,34,34,34,,,,,,,,,,,,,,,,,,,,,,,,,,,,,,,,,,,,,,,,,,None,,553.9952829000074,None,553.9952829000074,None,2022-05-04-14:37:55.794860,554.0062285000458,554.311333199963,554.0062285000458,None,None,554.0062285000458,None,554.8113321000244,None,,,,11014,0002,2022_May_04_1428,localizer,2021.1.3,60.02631555543143,
block,objects,objects044.bmp,,,,,0,35,35,35,,,,,,,,,,,,,,,,,,,,,,,,,,,,,,,,,,,,,,,,,,None,,554.8113321000244,None,554.8113321000244,None,2022-05-04-14:37:56.610982,554.8126821999904,555.112188900006,554.8126821999904,None,None,554.8126821999904,None,555.6124007999431,None,,,,11014,0002,2022_May_04_1428,localizer,2021.1.3,60.02631555543143,
block,objects,objects068.bmp,,,,,0,36,36,36,,,,,,,,,,,,,,,,,,,,,,,,,,,,,,,,,,,,,,,,,,None,,555.6124007999431,None,555.6124007999431,None,2022-05-04-14:37:57.415026,555.6152543999488,555.9295441999566,555.6152543999488,555.6152543999488,None,555.6152543999488,555.6152543999488,556.4290244000265,None,,,,11014,0002,2022_May_04_1428,localizer,2021.1.3,60.02631555543143,
block,objects,objects058.bmp,,,,,0,37,37,37,,,,,,,,,,,,,,,,,,,,,,,,,,,,,,,,,,,,,,,,,,None,,556.4290244000265,None,556.4290244000265,None,2022-05-04-14:37:58.229676,556.4305048999377,556.7452883999795,556.4305048999377,None,None,556.4305048999377,None,557.2453679999569,None,,,,11014,0002,2022_May_04_1428,localizer,2021.1.3,60.02631555543143,
block,objects,objects082.bmp,,,,,0,38,38,38,,,,,,,,,,,,,,,,,,,,,,,,,,,,,,,,,,,,,,,,,,None,,557.2453679999569,None,557.2453679999569,None,2022-05-04-14:37:59.045031,557.2564528000075,557.562010499998,557.2564528000075,None,None,557.2564528000075,None,558.0619192999554,None,,,,11014,0002,2022_May_04_1428,localizer,2021.1.3,60.02631555543143,
block,objects,objects073.bmp,,,,,0,39,39,39,,,,,,,,,,,,,,,,,,,,,,,,,,,,,,,,,,,,,,,,,,None,,558.0619192999554,None,558.0619192999554,None,2022-05-04-14:37:59.861449,558.0626628999598,558.3623662999598,558.0626628999598,None,None,558.0626628999598,None,558.8618006000295,None,,,,11014,0002,2022_May_04_1428,localizer,2021.1.3,60.02631555543143,
block,objects,objects001.bmp,,,,,0,40,40,40,,,,,,,,,,,,,,,,,,,,,,,,,,,,,,,,,,,,,,,,,,None,,558.8618006000295,None,558.8618006000295,None,2022-05-04-14:38:00.662962,558.8727959999815,559.1850914999377,558.8727959999815,558.8727959999815,None,558.8727959999815,558.8727959999815,559.6796790000051,None,,,,11014,0002,2022_May_04_1428,localizer,2021.1.3,60.02631555543143,
block,objects,objects066.bmp,,,,,0,41,41,41,,,,,,,,,,,,,,,,,,,,,,,,,,,,,,,,,,,,,,,,,,None,,559.6796790000051,None,559.6796790000051,None,2022-05-04-14:38:01.481344,559.6944071999751,559.9948708999436,559.6944071999751,None,None,559.6944071999751,None,560.494999899948,None,,,,11014,0002,2022_May_04_1428,localizer,2021.1.3,60.02631555543143,
block,objects,objects021.bmp,,,,,0,42,42,42,,,,,,,,,,,,,,,,,,,,,,,,,,,,,,,,,,,,,,,,,,None,,560.494999899948,None,560.494999899948,None,2022-05-04-14:38:02.294212,560.4999893000349,560.8117076000199,560.4999893000349,None,None,560.4999893000349,None,561.3114643999841,None,,,,11014,0002,2022_May_04_1428,localizer,2021.1.3,60.02631555543143,
block,objects,objects050.bmp,,,,,0,43,43,43,,,,,,,,,,,,,,,,,,,,,,,,,,,,,,,,,,,,,,,,,,None,,561.3114643999841,None,561.3114643999841,None,2022-05-04-14:38:03.110879,561.3191905999556,561.6325356999878,561.3191905999556,None,None,561.3191905999556,None,562.1290777000365,None,,,,11014,0002,2022_May_04_1428,localizer,2021.1.3,60.02631555543143,
block_end,objects,objects086.bmp,,,,,0,44,44,44,,,,,,,,,,,,,,,,,,,,,,,,,,,,,,,,,,,,,,,,,,None,,562.1290777000365,None,562.1290777000365,None,2022-05-04-14:38:03.929778,562.1397473999532,562.4447756999871,562.1397473999532,None,None,562.1397473999532,None,562.9348114999709,None,,,,11014,0002,2022_May_04_1428,localizer,2021.1.3,60.02631555543143,
null_block,null_block,null_block.bmp,,,,,0,45,45,45,,,,,,,,,,,,,,,,,,,,,,,,,,,,,,,,,,,,,,,,,,t,1.795350799919106,562.9341296999482,None,562.9341296999482,None,2022-05-04-14:38:06.544449,564.7448529999936,None,564.7448529999936,None,None,564.7448529999936,None,564.7482284000143,None,,,,11014,0002,2022_May_04_1428,localizer,2021.1.3,60.02631555543143,
block_start,faces,faces047.bmp,,,,,0,46,46,46,,,,,,,,,,,,,,,,,,,,,,,,,,,,,,,,,,,,,,,,,,t,1.9670454000588506,576.7624061999377,None,576.7624061999377,None,2022-05-04-14:38:20.546613,578.7598852999508,579.0611975999782,578.7598852999508,None,None,578.7598852999508,None,579.5612770999549,None,,,,11014,0002,2022_May_04_1428,localizer,2021.1.3,60.02631555543143,
block,faces,faces043.bmp,,,,,0,47,47,47,,,,,,,,,,,,,,,,,,,,,,,,,,,,,,,,,,,,,,,,,,None,,579.5612770999549,None,579.5612770999549,None,2022-05-04-14:38:21.361010,579.5686032000231,579.8782632999355,579.5686032000231,None,None,579.5686032000231,None,580.3800311999628,None,,,,11014,0002,2022_May_04_1428,localizer,2021.1.3,60.02631555543143,
block,faces,faces015.bmp,,,,,0,48,48,48,,,,,,,,,,,,,,,,,,,,,,,,,,,,,,,,,,,,,,,,,,None,,580.3800311999628,None,580.3800311999628,None,2022-05-04-14:38:22.180920,580.3822048000293,580.6948862000136,580.3822048000293,None,None,580.3822048000293,None,581.1947404000209,None,,,,11014,0002,2022_May_04_1428,localizer,2021.1.3,60.02631555543143,
block,faces,faces007.bmp,,,,,0,49,49,49,,,,,,,,,,,,,,,,,,,,,,,,,,,,,,,,,,,,,,,,,,None,,581.1947404000209,None,581.1947404000209,None,2022-05-04-14:38:22.994218,581.2037568000378,581.5114871000405,581.2037568000378,None,None,581.2037568000378,None,582.0114302000263,None,,,,11014,0002,2022_May_04_1428,localizer,2021.1.3,60.02631555543143,
block,faces,faces061.bmp,,,,,0,50,50,50,,,,,,,,,,,,,,,,,,,,,,,,,,,,,,,,,,,,,,,,,,None,,582.0114302000263,None,582.0114302000263,None,2022-05-04-14:38:23.811110,582.0136834000004,582.3281790999463,582.0136834000004,None,None,582.0136834000004,None,582.8127439999487,None,,,,11014,0002,2022_May_04_1428,localizer,2021.1.3,60.02631555543143,
block,faces,faces079.bmp,,,,,0,51,51,51,,,,,,,,,,,,,,,,,,,,,,,,,,,,,,,,,,,,,,,,,,None,,582.8127439999487,None,582.8127439999487,None,2022-05-04-14:38:24.615430,582.815767299966,583.1291794000426,582.815767299966,582.815767299966,None,582.815767299966,582.815767299966,583.6285200999816,None,,,,11014,0002,2022_May_04_1428,localizer,2021.1.3,60.02631555543143,
block,faces,faces002.bmp,,,,,0,52,52,52,,,,,,,,,,,,,,,,,,,,,,,,,,,,,,,,,,,,,,,,,,None,,583.6285200999816,None,583.6285200999816,None,2022-05-04-14:38:25.428261,583.6404471000424,583.9449012000114,583.6404471000424,None,None,583.6404471000424,None,584.4449292999459,None,,,,11014,0002,2022_May_04_1428,localizer,2021.1.3,60.02631555543143,
block,faces,faces066.bmp,,,,,0,53,53,53,,,,,,,,,,,,,,,,,,,,,,,,,,,,,,,,,,,,,,,,,,None,,584.4449292999459,None,584.4449292999459,None,2022-05-04-14:38:26.243471,584.446515699965,584.7615646999329,584.446515699965,None,None,584.446515699965,None,585.2618739000288,None,,,,11014,0002,2022_May_04_1428,localizer,2021.1.3,60.02631555543143,
block,faces,faces071.bmp,,,,,0,54,54,54,,,,,,,,,,,,,,,,,,,,,,,,,,,,,,,,,,,,,,,,,,None,,585.2618739000288,None,585.2618739000288,None,2022-05-04-14:38:27.061620,585.2712594999466,585.5803841999732,585.2712594999466,None,None,585.2712594999466,None,586.079748699977,None,,,,11014,0002,2022_May_04_1428,localizer,2021.1.3,60.02631555543143,
block,faces,faces029.bmp,,,,,0,55,55,55,,,,,,,,,,,,,,,,,,,,,,,,,,,,,,,,,,,,,,,,,,None,,586.079748699977,None,586.079748699977,None,2022-05-04-14:38:27.879308,586.090887999977,586.3948653000407,586.090887999977,None,None,586.090887999977,None,586.8951571000041,None,,,,11014,0002,2022_May_04_1428,localizer,2021.1.3,60.02631555543143,
block,faces,faces059.bmp,,,,,0,56,56,56,,,,,,,,,,,,,,,,,,,,,,,,,,,,,,,,,,,,,,,,,,None,,586.8951571000041,None,586.8951571000041,None,2022-05-04-14:38:28.694909,586.8961071999511,587.1966185999336,586.8961071999511,None,None,586.8961071999511,None,587.7118490000255,None,,,,11014,0002,2022_May_04_1428,localizer,2021.1.3,60.02631555543143,
block,faces,faces006.bmp,,,,,0,57,57,57,,,,,,,,,,,,,,,,,,,,,,,,,,,,,,,,,,,,,,,,,,None,,587.7118490000255,None,587.7118490000255,None,2022-05-04-14:38:29.511633,587.7130272999639,588.0348621000303,587.7130272999639,None,None,587.7130272999639,None,588.5128609999781,None,,,,11014,0002,2022_May_04_1428,localizer,2021.1.3,60.02631555543143,
block,faces,faces064.bmp,,,,,0,58,58,58,,,,,,,,,,,,,,,,,,,,,,,,,,,,,,,,,,,,,,,,,,None,,588.5128609999781,None,588.5128609999781,None,2022-05-04-14:38:30.315791,588.5282492999686,588.8282615999924,588.5282492999686,588.5282492999686,None,588.5282492999686,588.5282492999686,589.3286677000112,None,,,,11014,0002,2022_May_04_1428,localizer,2021.1.3,60.02631555543143,
block,faces,faces073.bmp,,,,,0,59,59,59,,,,,,,,,,,,,,,,,,,,,,,,,,,,,,,,,,,,,,,,,,None,,589.3286677000112,None,589.3286677000112,None,2022-05-04-14:38:31.128823,589.3386417999864,589.6453498000046,589.3386417999864,None,None,589.3386417999864,None,590.1449976999545,None,,,,11014,0002,2022_May_04_1428,localizer,2021.1.3,60.02631555543143,
block_end,faces,faces068.bmp,,,,,0,60,60,60,,,,,,,,,,,,,,,,,,,,,,,,,,,,,,,,,,,,,,,,,,None,,590.1449976999545,None,590.1449976999545,None,2022-05-04-14:38:31.944258,590.1555238999426,590.4615784999914,590.1555238999426,None,None,590.1555238999426,None,590.9628036999609,None,,,,11014,0002,2022_May_04_1428,localizer,2021.1.3,60.02631555543143,
block_start,scrambled,scrambled027.bmp,,,,,0,61,61,61,,,,,,,,,,,,,,,,,,,,,,,,,,,,,,,,,,,,,,,,,,t,1.7634360000956804,590.9659652999835,None,590.9659652999835,None,2022-05-04-14:38:34.544553,592.7464199999813,593.0615198999876,592.7464199999813,None,None,592.7464199999813,None,593.5619099000003,None,,,,11014,0002,2022_May_04_1428,localizer,2021.1.3,60.02631555543143,
block,scrambled,scrambled037.bmp,,,,,0,62,62,62,,,,,,,,,,,,,,,,,,,,,,,,,,,,,,,,,,,,,,,,,,None,,593.5619099000003,None,593.5619099000003,None,2022-05-04-14:38:35.361681,593.5627670999384,593.8618714000331,593.5627670999384,None,None,593.5627670999384,None,594.3643450999632,None,,,,11014,0002,2022_May_04_1428,localizer,2021.1.3,60.02631555543143,
block,scrambled,scrambled057.bmp,,,,,0,63,63,63,,,,,,,,,,,,,,,,,,,,,,,,,,,,,,,,,,,,,,,,,,None,,594.3643450999632,None,594.3643450999632,None,2022-05-04-14:38:36.169455,594.3822047000285,594.6951421999838,594.3822047000285,594.3822047000285,None,594.3822047000285,594.3822047000285,595.1785813000286,None,,,,11014,0002,2022_May_04_1428,localizer,2021.1.3,60.02631555543143,
block,scrambled,scrambled036.bmp,,,,,0,64,64,64,,,,,,,,,,,,,,,,,,,,,,,,,,,,,,,,,,,,,,,,,,None,,595.1785813000286,None,595.1785813000286,None,2022-05-04-14:38:36.978354,595.1878509999951,595.4949653999647,595.1878509999951,None,None,595.1878509999951,None,596.0015763999661,None,,,,11014,0002,2022_May_04_1428,localizer,2021.1.3,60.02631555543143,
block,scrambled,scrambled015.bmp,,,,,0,65,65,65,,,,,,,,,,,,,,,,,,,,,,,,,,,,,,,,,,,,,,,,,,None,,596.0015763999661,None,596.0015763999661,None,2022-05-04-14:38:37.808353,596.0099211999914,596.311539700022,596.0099211999914,None,None,596.0099211999914,None,596.8118545000441,None,,,,11014,0002,2022_May_04_1428,localizer,2021.1.3,60.02631555543143,
block,scrambled,scrambled071.bmp,,,,,0,66,66,66,,,,,,,,,,,,,,,,,,,,,,,,,,,,,,,,,,,,,,,,,,None,,596.8118545000441,None,596.8118545000441,None,2022-05-04-14:38:38.611637,596.8129721999867,597.112484900048,596.8129721999867,None,None,596.8129721999867,None,597.6125979999313,None,,,,11014,0002,2022_May_04_1428,localizer,2021.1.3,60.02631555543143,
block,scrambled,scrambled019.bmp,,,,,0,67,67,67,,,,,,,,,,,,,,,,,,,,,,,,,,,,,,,,,,,,,,,,,,None,,597.6125979999313,None,597.6125979999313,None,2022-05-04-14:38:39.414576,597.6154695999576,597.9294302000199,597.6154695999576,597.6154695999576,None,597.6154695999576,597.6154695999576,598.4283952000085,None,,,,11014,0002,2022_May_04_1428,localizer,2021.1.3,60.02631555543143,
block,scrambled,scrambled088.bmp,,,,,0,68,68,68,,,,,,,,,,,,,,,,,,,,,,,,,,,,,,,,,,,,,,,,,,None,,598.4283952000085,None,598.4283952000085,None,2022-05-04-14:38:40.228487,598.4294036999345,598.7292478999589,598.4294036999345,None,None,598.4294036999345,None,599.2287005999358,None,,,,11014,0002,2022_May_04_1428,localizer,2021.1.3,60.02631555543143,
block,scrambled,scrambled039.bmp,,,,,0,69,69,69,,,,,,,,,,,,,,,,,,,,,,,,,,,,,,,,,,,,,,,,,,None,,599.2287005999358,None,599.2287005999358,None,2022-05-04-14:38:41.029484,599.2294125999324,599.5284572000382,599.2294125999324,599.2294125999324,None,599.2294125999324,599.2294125999324,600.0450550999492,None,,,,11014,0002,2022_May_04_1428,localizer,2021.1.3,60.02631555543143,
block,scrambled,scrambled048.bmp,,,,,0,70,70,70,,,,,,,,,,,,,,,,,,,,,,,,,,,,,,,,,,,,,,,,,,None,,600.0450550999492,None,600.0450550999492,None,2022-05-04-14:38:41.844844,600.0540498000337,600.3619803000474,600.0540498000337,None,None,600.0540498000337,None,600.8618488999316,None,,,,11014,0002,2022_May_04_1428,localizer,2021.1.3,60.02631555543143,
block,scrambled,scrambled016.bmp,,,,,0,71,71,71,,,,,,,,,,,,,,,,,,,,,,,,,,,,,,,,,,,,,,,,,,None,,600.8618488999316,None,600.8618488999316,None,2022-05-04-14:38:42.661581,600.8706100999843,601.1785903000273,600.8706100999843,None,None,600.8706100999843,None,601.6789736999897,None,,,,11014,0002,2022_May_04_1428,localizer,2021.1.3,60.02631555543143,
block,scrambled,scrambled008.bmp,,,,,0,72,72,72,,,,,,,,,,,,,,,,,,,,,,,,,,,,,,,,,,,,,,,,,,None,,601.6789736999897,None,601.6789736999897,None,2022-05-04-14:38:43.478969,601.6899750999874,601.9954353999346,601.6899750999874,None,None,601.6899750999874,None,602.4949851999525,None,,,,11014,0002,2022_May_04_1428,localizer,2021.1.3,60.02631555543143,
block,scrambled,scrambled063.bmp,,,,,0,73,73,73,,,,,,,,,,,,,,,,,,,,,,,,,,,,,,,,,,,,,,,,,,None,,602.4949851999525,None,602.4949851999525,None,2022-05-04-14:38:44.294184,602.4968661000021,602.8118492999347,602.4968661000021,None,None,602.4968661000021,None,603.2959685000358,None,,,,11014,0002,2022_May_04_1428,localizer,2021.1.3,60.02631555543143,
block,scrambled,scrambled044.bmp,,,,,0,74,74,74,,,,,,,,,,,,,,,,,,,,,,,,,,,,,,,,,,,,,,,,,,None,,603.2959685000358,None,603.2959685000358,None,2022-05-04-14:38:45.098762,603.299098599935,603.611895399983,603.299098599935,603.299098599935,None,603.299098599935,603.299098599935,604.1119881999446,None,,,,11014,0002,2022_May_04_1428,localizer,2021.1.3,60.02631555543143,
block_end,scrambled,scrambled087.bmp,,,,,0,75,75,75,,,,,,,,,,,,,,,,,,,,,,,,,,,,,,,,,,,,,,,,,,None,,604.1119881999446,None,604.1119881999446,None,2022-05-04-14:38:45.911788,604.1207685000263,604.4285370999714,604.1207685000263,None,None,604.1207685000263,None,604.9291481000371,None,,,,11014,0002,2022_May_04_1428,localizer,2021.1.3,60.02631555543143,
block_start,objects,objects013.bmp,,,,,0,76,76,76,,,,,,,,,,,,,,,,,,,,,,,,,,,,,,,,,,,,,,,,,,t,1.8002083000028506,604.9290708999615,None,604.9290708999615,None,2022-05-04-14:38:48.543626,606.7465442999965,607.0457969999406,606.7465442999965,None,None,606.7465442999965,None,607.5617665999569,None,,,,11014,0002,2022_May_04_1428,localizer,2021.1.3,60.02631555543143,
block,objects,objects082.bmp,,,,,0,77,77,77,,,,,,,,,,,,,,,,,,,,,,,,,,,,,,,,,,,,,,,,,,None,,607.5617665999569,None,607.5617665999569,None,2022-05-04-14:38:49.361579,607.5630617999705,607.8623683999758,607.5630617999705,None,None,607.5630617999705,None,608.3642550999764,None,,,,11014,0002,2022_May_04_1428,localizer,2021.1.3,60.02631555543143,
block,objects,objects015.bmp,,,,,0,78,78,78,,,,,,,,,,,,,,,,,,,,,,,,,,,,,,,,,,,,,,,,,,None,,608.3642550999764,None,608.3642550999764,None,2022-05-04-14:38:50.169665,608.3824774000095,608.696607699967,608.3824774000095,608.3824774000095,None,608.3824774000095,608.3824774000095,609.1786739000352,None,,,,11014,0002,2022_May_04_1428,localizer,2021.1.3,60.02631555543143,
block,objects,objects077.bmp,,,,,0,79,79,79,,,,,,,,,,,,,,,,,,,,,,,,,,,,,,,,,,,,,,,,,,None,,609.1786739000352,None,609.1786739000352,None,2022-05-04-14:38:50.978711,609.1884630999994,609.4950897999806,609.1884630999994,None,None,609.1884630999994,None,609.9952780999708,None,,,,11014,0002,2022_May_04_1428,localizer,2021.1.3,60.02631555543143,
block,objects,objects060.bmp,,,,,0,80,80,80,,,,,,,,,,,,,,,,,,,,,,,,,,,,,,,,,,,,,,,,,,None,,609.9952780999708,None,609.9952780999708,None,2022-05-04-14:38:51.795094,609.9962439000374,610.3119220000226,609.9962439000374,None,None,609.9962439000374,None,610.8120503000216,None,,,,11014,0002,2022_May_04_1428,localizer,2021.1.3,60.02631555543143,
block,objects,objects043.bmp,,,,,0,81,81,81,,,,,,,,,,,,,,,,,,,,,,,,,,,,,,,,,,,,,,,,,,None,,610.8120503000216,None,610.8120503000216,None,2022-05-04-14:38:52.611868,610.8130012999754,611.1285902999807,610.8130012999754,None,None,610.8130012999754,None,611.6121752999723,None,,,,11014,0002,2022_May_04_1428,localizer,2021.1.3,60.02631555543143,
block,objects,objects020.bmp,,,,,0,82,82,82,,,,,,,,,,,,,,,,,,,,,,,,,,,,,,,,,,,,,,,,,,None,,611.6121752999723,None,611.6121752999723,None,2022-05-04-14:38:53.412994,611.6128753999947,611.9284598999657,611.6128753999947,611.6128753999947,None,611.6128753999947,611.6128753999947,612.4119327000342,None,,,,11014,0002,2022_May_04_1428,localizer,2021.1.3,60.02631555543143,
block,objects,objects088.bmp,,,,,0,83,83,83,,,,,,,,,,,,,,,,,,,,,,,,,,,,,,,,,,,,,,,,,,None,,612.4119327000342,None,612.4119327000342,None,2022-05-04-14:38:54.213752,612.4130377999973,612.7123517999426,612.4130377999973,612.4130377999973,None,612.4130377999973,612.4130377999973,613.2285122000146,None,,,,11014,0002,2022_May_04_1428,localizer,2021.1.3,60.02631555543143,
block,objects,objects006.bmp,,,,,0,84,84,84,,,,,,,,,,,,,,,,,,,,,,,,,,,,,,,,,,,,,,,,,,None,,613.2285122000146,None,613.2285122000146,None,2022-05-04-14:38:55.028339,613.237030099961,613.5452080999967,613.237030099961,None,None,613.237030099961,None,614.0450682999333,None,,,,11014,0002,2022_May_04_1428,localizer,2021.1.3,60.02631555543143,
block,objects,objects006.bmp,,,,,0,85,85,85,,,,,,,,,,,,,,,,,,,,,,,,,,,,,,,,,,,,,,,,,,None,,614.0450682999333,None,614.0450682999333,None,2022-05-04-14:38:55.845524,614.0461936999345,614.3453989999834,614.0461936999345,None,y,614.0461936999345,None,614.8456093000248,None,0.7183995998930186,,,11014,0002,2022_May_04_1428,localizer,2021.1.3,60.02631555543143,
block,objects,objects059.bmp,,,,,0,86,86,86,,,,,,,,,,,,,,,,,,,,,,,,,,,,,,,,,,,,,,,,,,None,,614.8456093000248,None,614.8456093000248,None,2022-05-04-14:38:56.654134,614.8570510999998,615.1618415999692,614.8570510999998,614.8570510999998,None,614.8570510999998,614.8570510999998,615.661945200013,None,,,,11014,0002,2022_May_04_1428,localizer,2021.1.3,60.02631555543143,
block,objects,objects027.bmp,,,,,0,87,87,87,,,,,,,,,,,,,,,,,,,,,,,,,,,,,,,,,,,,,,,,,,None,,615.661945200013,None,615.661945200013,None,2022-05-04-14:38:57.461458,615.6640011999989,615.9784145000158,615.6640011999989,None,None,615.6640011999989,None,616.4788216000422,None,,,,11014,0002,2022_May_04_1428,localizer,2021.1.3,60.02631555543143,
block,objects,objects047.bmp,,,,,0,88,88,88,,,,,,,,,,,,,,,,,,,,,,,,,,,,,,,,,,,,,,,,,,None,,616.4788216000422,None,616.4788216000422,None,2022-05-04-14:38:58.278656,616.4795755000087,616.7955324000213,616.4795755000087,None,None,616.4795755000087,None,617.2789593999739,None,,,,11014,0002,2022_May_04_1428,localizer,2021.1.3,60.02631555543143,
block,objects,objects001.bmp,,,,,0,89,89,89,,,,,,,,,,,,,,,,,,,,,,,,,,,,,,,,,,,,,,,,,,None,,617.2789593999739,None,617.2789593999739,None,2022-05-04-14:38:59.080986,617.2816472999984,617.5957713000244,617.2816472999984,617.2816472999984,None,617.2816472999984,617.2816472999984,618.094940099935,None,,,,11014,0002,2022_May_04_1428,localizer,2021.1.3,60.02631555543143,
block_end,objects,objects005.bmp,,,,,0,90,90,90,,,,,,,,,,,,,,,,,,,,,,,,,,,,,,,,,,,,,,,,,,None,,618.094940099935,None,618.094940099935,None,2022-05-04-14:38:59.894611,618.1039080000482,618.41216539999,618.1039080000482,None,None,618.1039080000482,None,618.9122351000085,None,,,,11014,0002,2022_May_04_1428,localizer,2021.1.3,60.02631555543143,
block_start,scenes,scenes078.bmp,,,,,0,91,91,91,,,,,,,,,,,,,,,,,,,,,,,,,,,,,,,,,,,,,,,,,,t,1.817407499998808,618.9120974999387,None,618.9120974999387,None,2022-05-04-14:39:02.548724,620.7623082000064,621.0619566999376,620.7623082000064,None,None,620.7623082000064,None,621.5635548999533,None,,,,11014,0002,2022_May_04_1428,localizer,2021.1.3,60.02631555543143,
block,scenes,scenes006.bmp,,,,,0,92,92,92,,,,,,,,,,,,,,,,,,,,,,,,,,,,,,,,,,,,,,,,,,None,,621.5635548999533,None,621.5635548999533,None,2022-05-04-14:39:03.365005,621.5725182000315,621.878503200016,621.5725182000315,None,None,621.5725182000315,None,622.3806080999318,None,,,,11014,0002,2022_May_04_1428,localizer,2021.1.3,60.02631555543143,
block,scenes,scenes090.bmp,,,,,0,93,93,93,,,,,,,,,,,,,,,,,,,,,,,,,,,,,,,,,,,,,,,,,,None,,622.3806080999318,None,622.3806080999318,None,2022-05-04-14:39:04.184447,622.3847958999686,622.6961291999323,622.3847958999686,None,None,622.3847958999686,None,623.1958038999699,None,,,,11014,0002,2022_May_04_1428,localizer,2021.1.3,60.02631555543143,
block,scenes,scenes074.bmp,,,,,0,94,94,94,,,,,,,,,,,,,,,,,,,,,,,,,,,,,,,,,,,,,,,,,,None,,623.1958038999699,None,623.1958038999699,None,2022-05-04-14:39:04.996854,623.2071490000235,623.5119664999656,623.2071490000235,None,None,623.2071490000235,None,624.012317300029,None,,,,11014,0002,2022_May_04_1428,localizer,2021.1.3,60.02631555543143,
block,scenes,scenes054.bmp,,,,,0,95,95,95,,,,,,,,,,,,,,,,,,,,,,,,,,,,,,,,,,,,,,,,,,None,,624.012317300029,None,624.012317300029,None,2022-05-04-14:39:05.812175,624.0131843000418,624.3127488000318,624.0131843000418,None,None,624.0131843000418,None,624.8285539999604,None,,,,11014,0002,2022_May_04_1428,localizer,2021.1.3,60.02631555543143,
block,scenes,scenes017.bmp,,,,,0,96,96,96,,,,,,,,,,,,,,,,,,,,,,,,,,,,,,,,,,,,,,,,,,None,,624.8285539999604,None,624.8285539999604,None,2022-05-04-14:39:06.628411,624.8298593999352,625.1517597000347,624.8298593999352,None,None,624.8298593999352,None,625.6303338999394,None,,,,11014,0002,2022_May_04_1428,localizer,2021.1.3,60.02631555543143,
block,scenes,scenes070.bmp,,,,,0,97,97,97,,,,,,,,,,,,,,,,,,,,,,,,,,,,,,,,,,,,,,,,,,None,,625.6303338999394,None,625.6303338999394,None,2022-05-04-14:39:07.436159,625.6364037999883,625.9454828000162,625.6364037999883,625.6364037999883,None,625.6364037999883,625.6364037999883,626.44484730002,None,,,,11014,0002,2022_May_04_1428,localizer,2021.1.3,60.02631555543143,
block,scenes,scenes038.bmp,,,,,0,98,98,98,,,,,,,,,,,,,,,,,,,,,,,,,,,,,,,,,,,,,,,,,,None,,626.44484730002,None,626.44484730002,None,2022-05-04-14:39:08.244667,626.4534893999808,626.7619946999475,626.4534893999808,None,None,626.4534893999808,None,627.2644588000373,None,,,,11014,0002,2022_May_04_1428,localizer,2021.1.3,60.02631555543143,
block,scenes,scenes068.bmp,,,,,0,99,99,99,,,,,,,,,,,,,,,,,,,,,,,,,,,,,,,,,,,,,,,,,,None,,627.2644588000373,None,627.2644588000373,None,2022-05-04-14:39:09.068509,627.2675219000084,627.5795043000253,627.2675219000084,None,None,627.2675219000084,None,628.0802214999683,None,,,,11014,0002,2022_May_04_1428,localizer,2021.1.3,60.02631555543143,
block,scenes,scenes020.bmp,,,,,0,100,100,100,,,,,,,,,,,,,,,,,,,,,,,,,,,,,,,,,,,,,,,,,,None,,628.0802214999683,None,628.0802214999683,None,2022-05-04-14:39:09.883094,628.0833146999357,628.3951680000173,628.0833146999357,None,None,628.0833146999357,None,628.8960155000211,None,,,,11014,0002,2022_May_04_1428,localizer,2021.1.3,60.02631555543143,
block,scenes,scenes045.bmp,,,,,0,101,101,101,,,,,,,,,,,,,,,,,,,,,,,,,,,,,,,,,,,,,,,,,,None,,628.8960155000211,None,628.8960155000211,None,2022-05-04-14:39:10.695846,628.9068568999646,629.2123973999405,628.9068568999646,None,None,628.9068568999646,None,629.7136135999579,None,,,,11014,0002,2022_May_04_1428,localizer,2021.1.3,60.02631555543143,
block,scenes,scenes059.bmp,,,,,0,102,102,102,,,,,,,,,,,,,,,,,,,,,,,,,,,,,,,,,,,,,,,,,,None,,629.7136135999579,None,629.7136135999579,None,2022-05-04-14:39:11.515440,629.7160778000252,630.0294343000278,629.7160778000252,None,None,629.7160778000252,None,630.5289258999517,None,,,,11014,0002,2022_May_04_1428,localizer,2021.1.3,60.02631555543143,
block,scenes,scenes072.bmp,,,,,0,103,103,103,,,,,,,,,,,,,,,,,,,,,,,,,,,,,,,,,,,,,,,,,,None,,630.5289258999517,None,630.5289258999517,None,2022-05-04-14:39:12.329295,630.5393712000223,630.8451821999624,630.5393712000223,None,None,630.5393712000223,None,631.3457052999408,None,,,,11014,0002,2022_May_04_1428,localizer,2021.1.3,60.02631555543143,
block,scenes,scenes085.bmp,,,,,0,104,104,104,,,,,,,,,,,,,,,,,,,,,,,,,,,,,,,,,,,,,,,,,,None,,631.3457052999408,None,631.3457052999408,None,2022-05-04-14:39:13.145727,631.3552115999628,631.6625459999777,631.3552115999628,None,None,631.3552115999628,None,632.1629155999515,None,,,,11014,0002,2022_May_04_1428,localizer,2021.1.3,60.02631555543143,
block_end,scenes,scenes031.bmp,,,,,0,105,105,105,,,,,,,,,,,,,,,,,,,,,,,,,,,,,,,,,,,,,,,,,,None,,632.1629155999515,None,632.1629155999515,None,2022-05-04-14:39:13.963782,632.1633021000307,632.4785012999782,632.1633021000307,None,None,632.1633021000307,None,632.9849157999968,None,,,,11014,0002,2022_May_04_1428,localizer,2021.1.3,60.02631555543143,
null_block,null_block,null_block.bmp,,,,,0,106,106,106,,,,,,,,,,,,,,,,,,,,,,,,,,,,,,,,,,,,,,,,,,t,1.7452077999478206,632.98404999997,None,632.98404999997,None,2022-05-04-14:39:16.544547,634.7451724999817,None,634.7451724999817,None,None,634.7451724999817,None,634.7483154999791,None,,,,11014,0002,2022_May_04_1428,localizer,2021.1.3,60.02631555543143,
block_start,faces,faces057.bmp,,,,,0,107,107,107,,,,,,,,,,,,,,,,,,,,,,,,,,,,,,,,,,,,,,,,,,t,1.9665416999487206,646.7627186999889,None,646.7627186999889,None,2022-05-04-14:39:30.546936,648.7588122000452,649.0626674999949,648.7588122000452,None,None,648.7588122000452,None,649.5623924999497,None,,,,11014,0002,2022_May_04_1428,localizer,2021.1.3,60.02631555543143,
block,faces,faces031.bmp,,,,,0,108,108,108,,,,,,,,,,,,,,,,,,,,,,,,,,,,,,,,,,,,,,,,,,None,,649.5623924999497,None,649.5623924999497,None,2022-05-04-14:39:31.362825,649.5629386999644,649.8622840000317,649.5629386999644,None,None,649.5629386999644,None,650.3627017000224,None,,,,11014,0002,2022_May_04_1428,localizer,2021.1.3,60.02631555543143,
block,faces,faces058.bmp,,,,,0,109,109,109,,,,,,,,,,,,,,,,,,,,,,,,,,,,,,,,,,,,,,,,,,None,,650.3627017000224,None,650.3627017000224,None,2022-05-04-14:39:32.165423,650.3776518999366,650.6789420000277,650.3776518999366,650.3776518999366,None,650.3776518999366,650.3776518999366,651.179584499984,None,,,,11014,0002,2022_May_04_1428,localizer,2021.1.3,60.02631555543143,
block,faces,faces039.bmp,,,,,0,110,110,110,,,,,,,,,,,,,,,,,,,,,,,,,,,,,,,,,,,,,,,,,,None,,651.179584499984,None,651.179584499984,None,2022-05-04-14:39:32.980505,651.1801151999971,651.4795820999425,651.1801151999971,None,None,651.1801151999971,None,651.9798400999978,None,,,,11014,0002,2022_May_04_1428,localizer,2021.1.3,60.02631555543143,
block,faces,faces085.bmp,,,,,0,111,111,111,,,,,,,,,,,,,,,,,,,,,,,,,,,,,,,,,,,,,,,,,,None,,651.9798400999978,None,651.9798400999978,None,2022-05-04-14:39:33.782753,651.9954143000068,652.2958036999917,651.9954143000068,651.9954143000068,None,651.9954143000068,651.9954143000068,652.7958434000145,None,,,,11014,0002,2022_May_04_1428,localizer,2021.1.3,60.02631555543143,
block,faces,faces016.bmp,,,,,0,112,112,112,,,,,,,,,,,,,,,,,,,,,,,,,,,,,,,,,,,,,,,,,,None,,652.7958434000145,None,652.7958434000145,None,2022-05-04-14:39:34.595996,652.7967751999386,653.0963249999331,652.7967751999386,None,None,652.7967751999386,None,653.6025531000457,None,,,,11014,0002,2022_May_04_1428,localizer,2021.1.3,60.02631555543143,
block,faces,faces004.bmp,,,,,0,113,113,113,,,,,,,,,,,,,,,,,,,,,,,,,,,,,,,,,,,,,,,,,,None,,653.6025531000457,None,653.6025531000457,None,2022-05-04-14:39:35.408368,653.6084754000185,653.9127562999493,653.6084754000185,None,None,653.6084754000185,None,654.4121229999698,None,,,,11014,0002,2022_May_04_1428,localizer,2021.1.3,60.02631555543143,
block,faces,faces047.bmp,,,,,0,114,114,114,,,,,,,,,,,,,,,,,,,,,,,,,,,,,,,,,,,,,,,,,,None,,654.4121229999698,None,654.4121229999698,None,2022-05-04-14:39:36.212066,654.4134200999979,654.728810200002,654.4134200999979,None,None,654.4134200999979,None,655.2125223000301,None,,,,11014,0002,2022_May_04_1428,localizer,2021.1.3,60.02631555543143,
block,faces,faces023.bmp,,,,,0,115,115,115,,,,,,,,,,,,,,,,,,,,,,,,,,,,,,,,,,,,,,,,,,None,,655.2125223000301,None,655.2125223000301,None,2022-05-04-14:39:37.014495,655.2563617000123,655.562027500011,655.2563617000123,655.2563617000123,None,655.2563617000123,655.2563617000123,656.0298459999728,None,,,,11014,0002,2022_May_04_1428,localizer,2021.1.3,60.02631555543143,
block,faces,faces014.bmp,,,,,0,116,116,116,,,,,,,,,,,,,,,,,,,,,,,,,,,,,,,,,,,,,,,,,,None,,656.0298459999728,None,656.0298459999728,None,2022-05-04-14:39:37.830960,656.0426833999809,656.3457673999947,656.0426833999809,None,None,656.0426833999809,None,656.8479150000028,None,,,,11014,0002,2022_May_04_1428,localizer,2021.1.3,60.02631555543143,
block,faces,faces051.bmp,,,,,0,117,117,117,,,,,,,,,,,,,,,,,,,,,,,,,,,,,,,,,,,,,,,,,,None,,656.8479150000028,None,656.8479150000028,None,2022-05-04-14:39:38.651880,656.8668158999644,657.1796009000391,656.8668158999644,None,None,656.8668158999644,None,657.6633421999402,None,,,,11014,0002,2022_May_04_1428,localizer,2021.1.3,60.02631555543143,
block,faces,faces064.bmp,,,,,0,118,118,118,,,,,,,,,,,,,,,,,,,,,,,,,,,,,,,,,,,,,,,,,,None,,657.6633421999402,None,657.6633421999402,None,2022-05-04-14:39:39.464166,657.664682899951,657.978667599964,657.664682899951,None,None,657.664682899951,None,658.4788722999626,None,,,,11014,0002,2022_May_04_1428,localizer,2021.1.3,60.02631555543143,
block,faces,faces037.bmp,,,,,0,119,119,119,,,,,,,,,,,,,,,,,,,,,,,,,,,,,,,,,,,,,,,,,,None,,658.4788722999626,None,658.4788722999626,None,2022-05-04-14:39:40.278570,658.4801029999508,658.7787031999324,658.4801029999508,None,None,658.4801029999508,None,659.2794813999906,None,,,,11014,0002,2022_May_04_1428,localizer,2021.1.3,60.02631555543143,
block,faces,faces038.bmp,,,,,0,120,120,120,,,,,,,,,,,,,,,,,,,,,,,,,,,,,,,,,,,,,,,,,,None,,659.2794813999906,None,659.2794813999906,None,2022-05-04-14:39:41.080765,659.280716600013,659.5957487999694,659.280716600013,659.280716600013,None,659.280716600013,659.280716600013,660.0956284999381,None,,,,11014,0002,2022_May_04_1428,localizer,2021.1.3,60.02631555543143,
block_end,faces,faces053.bmp,,,,,0,121,121,121,,,,,,,,,,,,,,,,,,,,,,,,,,,,,,,,,,,,,,,,,,None,,660.0956284999381,None,660.0956284999381,None,2022-05-04-14:39:41.895585,660.1052895999746,660.4122776000295,660.1052895999746,None,None,660.1052895999746,None,660.9122071000281,None,,,,11014,0002,2022_May_04_1428,localizer,2021.1.3,60.02631555543143,
block_start,scrambled,scrambled021.bmp,,,,,0,122,122,122,,,,,,,,,,,,,,,,,,,,,,,,,,,,,,,,,,,,,,,,,,t,1.8170623999321833,660.9123533000238,None,660.9123533000238,None,2022-05-04-14:39:44.544324,662.7464462999487,663.0463708000025,662.7464462999487,None,None,662.7464462999487,None,663.5621235999977,None,,,,11014,0002,2022_May_04_1428,localizer,2021.1.3,60.02631555543143,
block,scrambled,scrambled058.bmp,,,,,0,123,123,123,,,,,,,,,,,,,,,,,,,,,,,,,,,,,,,,,,,,,,,,,,None,,663.5621235999977,None,663.5621235999977,None,2022-05-04-14:39:45.362091,663.5708700999385,663.8787249999586,663.5708700999385,None,None,663.5708700999385,None,664.3789300999604,None,,,,11014,0002,2022_May_04_1428,localizer,2021.1.3,60.02631555543143,
block,scrambled,scrambled051.bmp,,,,,0,124,124,124,,,,,,,,,,,,,,,,,,,,,,,,,,,,,,,,,,,,,,,,,,None,,664.3789300999604,None,664.3789300999604,None,2022-05-04-14:39:46.178905,664.3802396999672,664.6791543000145,664.3802396999672,None,None,664.3802396999672,None,665.1955190000124,None,,,,11014,0002,2022_May_04_1428,localizer,2021.1.3,60.02631555543143,
block,scrambled,scrambled057.bmp,,,,,0,125,125,125,,,,,,,,,,,,,,,,,,,,,,,,,,,,,,,,,,,,,,,,,,None,,665.1955190000124,None,665.1955190000124,None,2022-05-04-14:39:46.995681,665.1969119999558,665.5020150999771,665.1969119999558,None,None,665.1969119999558,None,666.0123982999473,None,,,,11014,0002,2022_May_04_1428,localizer,2021.1.3,60.02631555543143,
block,scrambled,scrambled022.bmp,,,,,0,126,126,126,,,,,,,,,,,,,,,,,,,,,,,,,,,,,,,,,,,,,,,,,,None,,666.0123982999473,None,666.0123982999473,None,2022-05-04-14:39:47.812372,666.0221581000369,666.3290488999337,666.0221581000369,None,None,666.0221581000369,None,666.8288398000411,None,,,,11014,0002,2022_May_04_1428,localizer,2021.1.3,60.02631555543143,
block,scrambled,scrambled069.bmp,,,,,0,127,127,127,,,,,,,,,,,,,,,,,,,,,,,,,,,,,,,,,,,,,,,,,,None,,666.8288398000411,None,666.8288398000411,None,2022-05-04-14:39:48.628108,666.8374889999395,667.1487661999417,666.8374889999395,None,None,666.8374889999395,None,667.6460296000121,None,,,,11014,0002,2022_May_04_1428,localizer,2021.1.3,60.02631555543143,
block,scrambled,scrambled065.bmp,,,,,0,128,128,128,,,,,,,,,,,,,,,,,,,,,,,,,,,,,,,,,,,,,,,,,,None,,667.6460296000121,None,667.6460296000121,None,2022-05-04-14:39:49.446452,667.6466837000335,667.9528807000024,667.6466837000335,None,None,667.6466837000335,None,668.4623458999674,None,,,,11014,0002,2022_May_04_1428,localizer,2021.1.3,60.02631555543143,
block,scrambled,scrambled045.bmp,,,,,0,129,129,129,,,,,,,,,,,,,,,,,,,,,,,,,,,,,,,,,,,,,,,,,,None,,668.4623458999674,None,668.4623458999674,None,2022-05-04-14:39:50.262223,668.4719883999787,668.7797897999408,668.4719883999787,None,None,668.4719883999787,None,669.2791788000147,None,,,,11014,0002,2022_May_04_1428,localizer,2021.1.3,60.02631555543143,
block,scrambled,scrambled052.bmp,,,,,0,130,130,130,,,,,,,,,,,,,,,,,,,,,,,,,,,,,,,,,,,,,,,,,,None,,669.2791788000147,None,669.2791788000147,None,2022-05-04-14:39:51.079159,669.2800423000008,669.6023069999646,669.2800423000008,None,None,669.2800423000008,None,670.0790527000324,None,,,,11014,0002,2022_May_04_1428,localizer,2021.1.3,60.02631555543143,
block,scrambled,scrambled055.bmp,,,,,0,131,131,131,,,,,,,,,,,,,,,,,,,,,,,,,,,,,,,,,,,,,,,,,,None,,670.0790527000324,None,670.0790527000324,None,2022-05-04-14:39:51.880031,670.0889100999339,670.3958788999589,670.0889100999339,670.0889100999339,None,670.0889100999339,670.0889100999339,670.8958443999989,None,,,,11014,0002,2022_May_04_1428,localizer,2021.1.3,60.02631555543143,
block,scrambled,scrambled041.bmp,,,,,0,132,132,132,,,,,,,,,,,,,,,,,,,,,,,,,,,,,,,,,,,,,,,,,,None,,670.8958443999989,None,670.8958443999989,None,2022-05-04-14:39:52.696251,670.8966642000014,671.2124492999865,670.8966642000014,None,None,670.8966642000014,None,671.7124903000192,None,,,,11014,0002,2022_May_04_1428,localizer,2021.1.3,60.02631555543143,
block,scrambled,scrambled016.bmp,,,,,0,133,133,133,,,,,,,,,,,,,,,,,,,,,,,,,,,,,,,,,,,,,,,,,,None,,671.7124903000192,None,671.7124903000192,None,2022-05-04-14:39:53.512473,671.7135680000065,672.0137365999399,671.7135680000065,None,None,671.7135680000065,None,672.5187496999977,None,,,,11014,0002,2022_May_04_1428,localizer,2021.1.3,60.02631555543143,
block,scrambled,scrambled007.bmp,,,,,0,134,134,134,,,,,,,,,,,,,,,,,,,,,,,,,,,,,,,,,,,,,,,,,,None,,672.5187496999977,None,672.5187496999977,None,2022-05-04-14:39:54.326890,672.5284699000185,672.8297551999567,672.5284699000185,None,None,672.5284699000185,None,673.3294754999922,None,,,,11014,0002,2022_May_04_1428,localizer,2021.1.3,60.02631555543143,
block,scrambled,scrambled028.bmp,,,,,0,135,135,135,,,,,,,,,,,,,,,,,,,,,,,,,,,,,,,,,,,,,,,,,,None,,673.3294754999922,None,673.3294754999922,None,2022-05-04-14:39:55.129436,673.3394291000441,673.6456442000344,673.3394291000441,None,None,673.3394291000441,None,674.1459341999841,None,,,,11014,0002,2022_May_04_1428,localizer,2021.1.3,60.02631555543143,
block_end,scrambled,scrambled073.bmp,,,,,0,136,136,136,,,,,,,,,,,,,,,,,,,,,,,,,,,,,,,,,,,,,,,,,,None,,674.1459341999841,None,674.1459341999841,None,2022-05-04-14:39:55.945595,674.1469531999901,674.4625411999878,674.1469531999901,None,None,674.1469531999901,None,674.9459959000349,None,,,,11014,0002,2022_May_04_1428,localizer,2021.1.3,60.02631555543143,
block_start,objects,objects029.bmp,,,,,0,137,137,137,,,,,,,,,,,,,,,,,,,,,,,,,,,,,,,,,,,,,,,,,,t,1.7826044999528676,674.9458616999909,None,674.9458616999909,None,2022-05-04-14:39:58.544486,676.7467979999492,677.0690295000095,676.7467979999492,None,None,676.7467979999492,None,677.5620153999887,None,,,,11014,0002,2022_May_04_1428,localizer,2021.1.3,60.02631555543143,
block,objects,objects084.bmp,,,,,0,138,138,138,,,,,,,,,,,,,,,,,,,,,,,,,,,,,,,,,,,,,,,,,,None,,677.5620153999887,None,677.5620153999887,None,2022-05-04-14:39:59.361026,677.5640411999775,677.8788377000019,677.5640411999775,None,None,677.5640411999775,None,678.3789221000159,None,,,,11014,0002,2022_May_04_1428,localizer,2021.1.3,60.02631555543143,
block,objects,objects034.bmp,,,,,0,139,139,139,,,,,,,,,,,,,,,,,,,,,,,,,,,,,,,,,,,,,,,,,,None,,678.3789221000159,None,678.3789221000159,None,2022-05-04-14:40:00.178928,678.3801791999722,678.679897999973,678.3801791999722,None,None,678.3801791999722,None,679.1857566999504,None,,,,11014,0002,2022_May_04_1428,localizer,2021.1.3,60.02631555543143,
block,objects,objects058.bmp,,,,,0,140,140,140,,,,,,,,,,,,,,,,,,,,,,,,,,,,,,,,,,,,,,,,,,None,,679.1857566999504,None,679.1857566999504,None,2022-05-04-14:40:00.989743,679.1901503000408,679.4967516999459,679.1901503000408,None,None,679.1901503000408,None,679.9958032000111,None,,,,11014,0002,2022_May_04_1428,localizer,2021.1.3,60.02631555543143,
block,objects,objects049.bmp,,,,,0,141,141,141,,,,,,,,,,,,,,,,,,,,,,,,,,,,,,,,,,,,,,,,,,None,,679.9958032000111,None,679.9958032000111,None,2022-05-04-14:40:01.795439,679.9967492000433,680.2959076999687,679.9967492000433,None,None,679.9967492000433,None,680.8018686000257,None,,,,11014,0002,2022_May_04_1428,localizer,2021.1.3,60.02631555543143,
block,objects,objects075.bmp,,,,,0,142,142,142,,,,,,,,,,,,,,,,,,,,,,,,,,,,,,,,,,,,,,,,,,None,,680.8018686000257,None,680.8018686000257,None,2022-05-04-14:40:02.601896,680.8065187999746,681.11251180002,680.8065187999746,None,None,680.8065187999746,None,681.6126776999561,None,,,,11014,0002,2022_May_04_1428,localizer,2021.1.3,60.02631555543143,
block,objects,objects026.bmp,,,,,0,143,143,143,,,,,,,,,,,,,,,,,,,,,,,,,,,,,,,,,,,,,,,,,,None,,681.6126776999561,None,681.6126776999561,None,2022-05-04-14:40:03.412992,681.6217172000324,681.9292052999372,681.6217172000324,None,None,681.6217172000324,None,682.4293975999578,None,,,,11014,0002,2022_May_04_1428,localizer,2021.1.3,60.02631555543143,
block,objects,objects021.bmp,,,,,0,144,144,144,,,,,,,,,,,,,,,,,,,,,,,,,,,,,,,,,,,,,,,,,,None,,682.4293975999578,None,682.4293975999578,None,2022-05-04-14:40:04.229653,682.4300026999554,682.7288848999888,682.4300026999554,None,None,682.4300026999554,None,683.2293039999902,None,,,,11014,0002,2022_May_04_1428,localizer,2021.1.3,60.02631555543143,
block,objects,objects010.bmp,,,,,0,145,145,145,,,,,,,,,,,,,,,,,,,,,,,,,,,,,,,,,,,,,,,,,,None,,683.2293039999902,None,683.2293039999902,None,2022-05-04-14:40:05.030321,683.2299965999555,683.5292034000158,683.2299965999555,683.2299965999555,None,683.2299965999555,683.2299965999555,684.0292262000264,None,,,,11014,0002,2022_May_04_1428,localizer,2021.1.3,60.02631555543143,
block,objects,objects088.bmp,,,,,0,146,146,146,,,,,,,,,,,,,,,,,,,,,,,,,,,,,,,,,,,,,,,,,,None,,684.0292262000264,None,684.0292262000264,None,2022-05-04-14:40:05.830248,684.0300659999484,684.3289585999446,684.0300659999484,684.0300659999484,None,684.0300659999484,684.0300659999484,684.829419700033,None,,,,11014,0002,2022_May_04_1428,localizer,2021.1.3,60.02631555543143,
block,objects,objects006.bmp,,,,,0,147,147,147,,,,,,,,,,,,,,,,,,,,,,,,,,,,,,,,,,,,,,,,,,None,,684.829419700033,None,684.829419700033,None,2022-05-04-14:40:06.630547,684.8301725999918,685.1459406999638,684.8301725999918,684.8301725999918,None,684.8301725999918,684.8301725999918,685.6292895000195,None,,,,11014,0002,2022_May_04_1428,localizer,2021.1.3,60.02631555543143,
block,objects,objects062.bmp,,,,,0,148,148,148,,,,,,,,,,,,,,,,,,,,,,,,,,,,,,,,,,,,,,,,,,None,,685.6292895000195,None,685.6292895000195,None,2022-05-04-14:40:07.431245,685.6392259999411,685.9464077999583,685.6392259999411,685.6392259999411,None,685.6392259999411,685.6392259999411,686.4466310999821,None,,,,11014,0002,2022_May_04_1428,localizer,2021.1.3,60.02631555543143,
block,objects,objects038.bmp,,,,,0,149,149,149,,,,,,,,,,,,,,,,,,,,,,,,,,,,,,,,,,,,,,,,,,None,,686.4466310999821,None,686.4466310999821,None,2022-05-04-14:40:08.248038,686.4582507000305,686.7630877000047,686.4582507000305,None,None,686.4582507000305,None,687.2628191000083,None,,,,11014,0002,2022_May_04_1428,localizer,2021.1.3,60.02631555543143,
block,objects,objects046.bmp,,,,,0,150,150,150,,,,,,,,,,,,,,,,,,,,,,,,,,,,,,,,,,,,,,,,,,None,,687.2628191000083,None,687.2628191000083,None,2022-05-04-14:40:09.063051,687.2635618000058,687.5627840999514,687.2635618000058,None,None,687.2635618000058,None,688.0792541999369,None,,,,11014,0002,2022_May_04_1428,localizer,2021.1.3,60.02631555543143,
block_end,objects,objects060.bmp,,,,,0,151,151,151,,,,,,,,,,,,,,,,,,,,,,,,,,,,,,,,,,,,,,,,,,None,,688.0792541999369,None,688.0792541999369,None,2022-05-04-14:40:09.879291,688.0800721000414,688.3796795000089,688.0800721000414,None,None,688.0800721000414,None,688.8801093999762,None,,,,11014,0002,2022_May_04_1428,localizer,2021.1.3,60.02631555543143,
null_block,null_block,null_block.bmp,,,,,0,152,152,152,,,,,,,,,,,,,,,,,,,,,,,,,,,,,,,,,,,,,,,,,,t,1.848841300001368,688.8797735000262,None,688.8797735000262,None,2022-05-04-14:40:12.546652,690.7465361000038,None,690.7465361000038,None,None,690.7465361000038,None,690.7504190000473,None,,,,11014,0002,2022_May_04_1428,localizer,2021.1.3,60.02631555543143,
block_start,scenes,scenes055.bmp,,,,,0,153,153,153,,,,,,,,,,,,,,,,,,,,,,,,,,,,,,,,,,,,,,,,,,t,1.959175999974832,702.7690931999823,None,702.7690931999823,None,2022-05-04-14:40:26.547163,704.7479271999327,705.0478078000015,704.7479271999327,None,None,704.7479271999327,None,705.5626188000431,None,,,,11014,0002,2022_May_04_1428,localizer,2021.1.3,60.02631555543143,
block,scenes,scenes021.bmp,,,,,0,154,154,154,,,,,,,,,,,,,,,,,,,,,,,,,,,,,,,,,,,,,,,,,,None,,705.5626188000431,None,705.5626188000431,None,2022-05-04-14:40:27.362702,705.5746031999588,705.8798936000094,705.5746031999588,None,None,705.5746031999588,None,706.379202099936,None,,,,11014,0002,2022_May_04_1428,localizer,2021.1.3,60.02631555543143,
block,scenes,scenes010.bmp,,,,,0,155,155,155,,,,,,,,,,,,,,,,,,,,,,,,,,,,,,,,,,,,,,,,,,None,,706.379202099936,None,706.379202099936,None,2022-05-04-14:40:28.179289,706.3803523000097,706.6792185000377,706.3803523000097,None,None,706.3803523000097,None,707.1798793000169,None,,,,11014,0002,2022_May_04_1428,localizer,2021.1.3,60.02631555543143,
block,scenes,scenes044.bmp,,,,,0,156,156,156,,,,,,,,,,,,,,,,,,,,,,,,,,,,,,,,,,,,,,,,,,None,,707.1798793000169,None,707.1798793000169,None,2022-05-04-14:40:28.982951,707.1934410999529,707.4965865999693,707.1934410999529,707.1934410999529,None,707.1934410999529,707.1934410999529,707.9958766999887,None,,,,11014,0002,2022_May_04_1428,localizer,2021.1.3,60.02631555543143,
block,scenes,scenes085.bmp,,,,,0,157,157,157,,,,,,,,,,,,,,,,,,,,,,,,,,,,,,,,,,,,,,,,,,None,,707.9958766999887,None,707.9958766999887,None,2022-05-04-14:40:29.795656,707.997075399966,708.3125641000224,707.997075399966,None,None,707.997075399966,None,708.8127892999444,None,,,,11014,0002,2022_May_04_1428,localizer,2021.1.3,60.02631555543143,
block,scenes,scenes064.bmp,,,,,0,158,158,158,,,,,,,,,,,,,,,,,,,,,,,,,,,,,,,,,,,,,,,,,,None,,708.8127892999444,None,708.8127892999444,None,2022-05-04-14:40:30.612775,708.8212973999325,709.1295043999562,708.8212973999325,None,None,708.8212973999325,None,709.6292785999365,None,,,,11014,0002,2022_May_04_1428,localizer,2021.1.3,60.02631555543143,
block,scenes,scenes041.bmp,,,,,0,159,159,159,,,,,,,,,,,,,,,,,,,,,,,,,,,,,,,,,,,,,,,,,,None,,709.6292785999365,None,709.6292785999365,None,2022-05-04-14:40:31.429322,709.6302908000071,709.9462564999703,709.6302908000071,None,None,709.6302908000071,None,710.4462946999818,None,,,,11014,0002,2022_May_04_1428,localizer,2021.1.3,60.02631555543143,
block,scenes,scenes067.bmp,,,,,0,160,160,160,,,,,,,,,,,,,,,,,,,,,,,,,,,,,,,,,,,,,,,,,,None,,710.4462946999818,None,710.4462946999818,None,2022-05-04-14:40:32.247170,710.4470733000198,710.762646600022,710.4470733000198,None,None,710.4470733000198,None,711.2625743000069,None,,,,11014,0002,2022_May_04_1428,localizer,2021.1.3,60.02631555543143,
block,scenes,scenes025.bmp,,,,,0,161,161,161,,,,,,,,,,,,,,,,,,,,,,,,,,,,,,,,,,,,,,,,,,None,,711.2625743000069,None,711.2625743000069,None,2022-05-04-14:40:33.062678,711.2777125999564,711.5797677999362,711.2777125999564,None,None,711.2777125999564,None,712.0797374000074,None,,,,11014,0002,2022_May_04_1428,localizer,2021.1.3,60.02631555543143,
block,scenes,scenes020.bmp,,,,,0,162,162,162,,,,,,,,,,,,,,,,,,,,,,,,,,,,,,,,,,,,,,,,,,None,,712.0797374000074,None,712.0797374000074,None,2022-05-04-14:40:33.880041,712.0806111999555,712.379586199997,712.0806111999555,None,None,712.0806111999555,None,712.8798647999763,None,,,,11014,0002,2022_May_04_1428,localizer,2021.1.3,60.02631555543143,
block,scenes,scenes004.bmp,,,,,0,163,163,163,,,,,,,,,,,,,,,,,,,,,,,,,,,,,,,,,,,,,,,,,,None,,712.8798647999763,None,712.8798647999763,None,2022-05-04-14:40:34.682178,712.8828199999407,713.1959262000164,712.8828199999407,712.8828199999407,None,712.8828199999407,712.8828199999407,713.6962258000392,None,,,,11014,0002,2022_May_04_1428,localizer,2021.1.3,60.02631555543143,
block,scenes,scenes045.bmp,,,,,0,164,164,164,,,,,,,,,,,,,,,,,,,,,,,,,,,,,,,,,,,,,,,,,,None,,713.6962258000392,None,713.6962258000392,None,2022-05-04-14:40:35.496201,713.697029300034,714.0029142999556,713.697029300034,None,None,713.697029300034,None,714.499911099975,None,,,,11014,0002,2022_May_04_1428,localizer,2021.1.3,60.02631555543143,
block,scenes,scenes057.bmp,,,,,0,165,165,165,,,,,,,,,,,,,,,,,,,,,,,,,,,,,,,,,,,,,,,,,,None,,714.499911099975,None,714.499911099975,None,2022-05-04-14:40:36.310877,714.508627400035,714.8126299999421,714.508627400035,714.508627400035,None,714.508627400035,714.508627400035,715.3128299000207,None,,,,11014,0002,2022_May_04_1428,localizer,2021.1.3,60.02631555543143,
block,scenes,scenes051.bmp,,,,,0,166,166,166,,,,,,,,,,,,,,,,,,,,,,,,,,,,,,,,,,,,,,,,,,None,,715.3128299000207,None,715.3128299000207,None,2022-05-04-14:40:37.112940,715.3139074000064,715.6293286000146,715.3139074000064,None,None,715.3139074000064,None,716.1188368999399,None,,,,11014,0002,2022_May_04_1428,localizer,2021.1.3,60.02631555543143,
block_end,scenes,scenes082.bmp,,,,,0,167,167,167,,,,,,,,,,,,,,,,,,,,,,,,,,,,,,,,,,,,,,,,,,None,,716.1188368999399,None,716.1188368999399,None,2022-05-04-14:40:37.918936,716.1236547000008,716.4296169000445,716.1236547000008,None,None,716.1236547000008,None,716.9294635999947,None,,,,11014,0002,2022_May_04_1428,localizer,2021.1.3,60.02631555543143,
block_start,faces,faces055.bmp,,,,,0,168,168,168,,,,,,,,,,,,,,,,,,,,,,,,,,,,,,,,,,,,,,,,,,t,1.7991849000100046,716.9292945000343,None,716.9292945000343,None,2022-05-04-14:40:40.545505,718.7473881000187,719.0463849999942,718.7473881000187,None,None,718.7473881000187,None,719.54670769996,None,,,,11014,0002,2022_May_04_1428,localizer,2021.1.3,60.02631555543143,
block,faces,faces029.bmp,,,,,0,169,169,169,,,,,,,,,,,,,,,,,,,,,,,,,,,,,,,,,,,,,,,,,,None,,719.54670769996,None,719.54670769996,None,2022-05-04-14:40:41.349154,719.5487607000396,719.8627430000342,719.5487607000396,719.5487607000396,None,719.5487607000396,719.5487607000396,720.3624836999923,None,,,,11014,0002,2022_May_04_1428,localizer,2021.1.3,60.02631555543143,
block,faces,faces065.bmp,,,,,0,170,170,170,,,,,,,,,,,,,,,,,,,,,,,,,,,,,,,,,,,,,,,,,,None,,720.3624836999923,None,720.3624836999923,None,2022-05-04-14:40:42.162643,720.363913499983,720.6627807000186,720.363913499983,None,None,720.363913499983,None,721.1792060000123,None,,,,11014,0002,2022_May_04_1428,localizer,2021.1.3,60.02631555543143,
block,faces,faces043.bmp,,,,,0,171,171,171,,,,,,,,,,,,,,,,,,,,,,,,,,,,,,,,,,,,,,,,,,None,,721.1792060000123,None,721.1792060000123,None,2022-05-04-14:40:42.979581,721.1804297999479,721.4961830000393,721.1804297999479,None,None,721.1804297999479,None,721.9795427999459,None,,,,11014,0002,2022_May_04_1428,localizer,2021.1.3,60.02631555543143,
block,faces,faces043.bmp,,,,,0,172,172,172,,,,,,,,,,,,,,,,,,,,,,,,,,,,,,,,,,,,,,,,,,None,,721.9795427999459,None,721.9795427999459,None,2022-05-04-14:40:43.781667,721.9805814999854,722.2963960999623,721.9805814999854,721.9805814999854,None,721.9805814999854,721.9805814999854,722.7809286999516,None,,,,11014,0002,2022_May_04_1428,localizer,2021.1.3,60.02631555543143,
block,faces,faces069.bmp,,,,,0,173,173,173,,,,,,,,,,,,,,,,,,,,,,,,,,,,,,,,,,,,,,,,,,None,,722.7809286999516,None,722.7809286999516,None,2022-05-04-14:40:44.585115,722.7965309999418,723.0963425999507,722.7965309999418,722.7965309999418,None,722.7965309999418,722.7965309999418,723.5958547000307,None,,,,11014,0002,2022_May_04_1428,localizer,2021.1.3,60.02631555543143,
block,faces,faces035.bmp,,,,,0,174,174,174,,,,,,,,,,,,,,,,,,,,,,,,,,,,,,,,,,,,,,,,,,None,,723.5958547000307,None,723.5958547000307,None,2022-05-04-14:40:45.395717,723.5977775999345,723.9026259999955,723.5977775999345,None,None,723.5977775999345,None,724.4128295999951,None,,,,11014,0002,2022_May_04_1428,localizer,2021.1.3,60.02631555543143,
block,faces,faces010.bmp,,,,,0,175,175,175,,,,,,,,,,,,,,,,,,,,,,,,,,,,,,,,,,,,,,,,,,None,,724.4128295999951,None,724.4128295999951,None,2022-05-04-14:40:46.212521,724.4138758999761,724.7132196000312,724.4138758999761,None,None,724.4138758999761,None,725.2132021999685,None,,,,11014,0002,2022_May_04_1428,localizer,2021.1.3,60.02631555543143,
block,faces,faces076.bmp,,,,,0,176,176,176,,,,,,,,,,,,,,,,,,,,,,,,,,,,,,,,,,,,,,,,,,None,,725.2132021999685,None,725.2132021999685,None,2022-05-04-14:40:47.016498,725.2160347000463,725.5293531999923,725.2160347000463,725.2160347000463,None,725.2160347000463,725.2160347000463,726.0308699999703,None,,,,11014,0002,2022_May_04_1428,localizer,2021.1.3,60.02631555543143,
block,faces,faces013.bmp,,,,,0,177,177,177,,,,,,,,,,,,,,,,,,,,,,,,,,,,,,,,,,,,,,,,,,None,,726.0308699999703,None,726.0308699999703,None,2022-05-04-14:40:47.832967,726.0340358000249,726.3474819000112,726.0340358000249,None,None,726.0340358000249,None,726.8465072999941,None,,,,11014,0002,2022_May_04_1428,localizer,2021.1.3,60.02631555543143,
block,faces,faces004.bmp,,,,,0,178,178,178,,,,,,,,,,,,,,,,,,,,,,,,,,,,,,,,,,,,,,,,,,None,,726.8465072999941,None,726.8465072999941,None,2022-05-04-14:40:48.647202,726.84730090003,727.1626114000101,726.84730090003,None,None,726.84730090003,None,727.6525781999342,None,,,,11014,0002,2022_May_04_1428,localizer,2021.1.3,60.02631555543143,
block,faces,faces026.bmp,,,,,0,179,179,179,,,,,,,,,,,,,,,,,,,,,,,,,,,,,,,,,,,,,,,,,,None,,727.6525781999342,None,727.6525781999342,None,2022-05-04-14:40:49.458435,727.6586785999825,727.9623328000307,727.6586785999825,None,None,727.6586785999825,None,728.4632917999522,None,,,,11014,0002,2022_May_04_1428,localizer,2021.1.3,60.02631555543143,
block,faces,faces006.bmp,,,,,0,180,180,180,,,,,,,,,,,,,,,,,,,,,,,,,,,,,,,,,,,,,,,,,,None,,728.4632917999522,None,728.4632917999522,None,2022-05-04-14:40:50.263706,728.464265299961,728.7793596000411,728.464265299961,None,None,728.464265299961,None,729.279251599987,None,,,,11014,0002,2022_May_04_1428,localizer,2021.1.3,60.02631555543143,
block,faces,faces011.bmp,,,,,0,181,181,181,,,,,,,,,,,,,,,,,,,,,,,,,,,,,,,,,,,,,,,,,,None,,729.279251599987,None,729.279251599987,None,2022-05-04-14:40:51.079643,729.2835339000449,729.5961589999497,729.2835339000449,None,None,729.2835339000449,None,730.0961558999959,None,,,,11014,0002,2022_May_04_1428,localizer,2021.1.3,60.02631555543143,
block_end,faces,faces062.bmp,,,,,0,182,182,182,,,,,,,,,,,,,,,,,,,,,,,,,,,,,,,,,,,,,,,,,,None,,730.0961558999959,None,730.0961558999959,None,2022-05-04-14:40:51.896248,730.1065008000005,730.412671500002,730.1065008000005,None,None,730.1065008000005,None,730.9130633000284,None,,,,11014,0002,2022_May_04_1428,localizer,2021.1.3,60.02631555543143,
null_block,null_block,null_block.bmp,,,,,0,183,183,183,,,,,,,,,,,,,,,,,,,,,,,,,,,,,,,,,,,,,,,,,,t,1.8155763000249863,730.9128187999595,None,730.9128187999595,None,2022-05-04-14:40:54.547226,732.7469528000336,None,732.7469528000336,None,None,732.7469528000336,None,732.751859299955,None,,,,11014,0002,2022_May_04_1428,localizer,2021.1.3,60.02631555543143,
block_start,scrambled,scrambled057.bmp,,,,,0,184,184,184,,,,,,,,,,,,,,,,,,,,,,,,,,,,,,,,,,,,,,,,,,t,1.9647824000567198,744.7636614999501,None,744.7636614999501,None,2022-05-04-14:41:08.546833,746.7474809000269,747.0693485999946,746.7474809000269,None,None,746.7474809000269,None,747.5470267999451,None,,,,11014,0002,2022_May_04_1428,localizer,2021.1.3,60.02631555543143,
block,scrambled,scrambled036.bmp,,,,,0,185,185,185,,,,,,,,,,,,,,,,,,,,,,,,,,,,,,,,,,,,,,,,,,None,,747.5470267999451,None,747.5470267999451,None,2022-05-04-14:41:09.351198,747.55099899997,747.8637608999852,747.55099899997,747.55099899997,None,747.55099899997,747.55099899997,748.3633830999722,None,,,,11014,0002,2022_May_04_1428,localizer,2021.1.3,60.02631555543143,
block,scrambled,scrambled043.bmp,,,,,0,186,186,186,,,,,,,,,,,,,,,,,,,,,,,,,,,,,,,,,,,,,,,,,,None,,748.3633830999722,None,748.3633830999722,None,2022-05-04-14:41:10.163911,748.3639158000005,748.6796868999954,748.3639158000005,None,None,748.3639158000005,None,749.163219999941,None,,,,11014,0002,2022_May_04_1428,localizer,2021.1.3,60.02631555543143,
block,scrambled,scrambled034.bmp,,,,,0,187,187,187,,,,,,,,,,,,,,,,,,,,,,,,,,,,,,,,,,,,,,,,,,None,,749.163219999941,None,749.163219999941,None,2022-05-04-14:41:10.964918,749.1748266000068,749.4803248000098,749.1748266000068,749.1748266000068,None,749.1748266000068,749.1748266000068,749.9805110999848,None,,,,11014,0002,2022_May_04_1428,localizer,2021.1.3,60.02631555543143,
block,scrambled,scrambled078.bmp,,,,,0,188,188,188,,,,,,,,,,,,,,,,,,,,,,,,,,,,,,,,,,,,,,,,,,None,,749.9805110999848,None,749.9805110999848,None,2022-05-04-14:41:11.782188,749.9827549000038,750.2964253999526,749.9827549000038,None,None,749.9827549000038,None,750.7828994999406,None,,,,11014,0002,2022_May_04_1428,localizer,2021.1.3,60.02631555543143,
block,scrambled,scrambled071.bmp,,,,,0,189,189,189,,,,,,,,,,,,,,,,,,,,,,,,,,,,,,,,,,,,,,,,,,None,,750.7828994999406,None,750.7828994999406,None,2022-05-04-14:41:12.584146,750.7903139999835,751.0961989000207,750.7903139999835,750.7903139999835,None,750.7903139999835,750.7903139999835,751.5962314999895,None,,,,11014,0002,2022_May_04_1428,localizer,2021.1.3,60.02631555543143,
block,scrambled,scrambled067.bmp,,,,,0,190,190,190,,,,,,,,,,,,,,,,,,,,,,,,,,,,,,,,,,,,,,,,,,None,,751.5962314999895,None,751.5962314999895,None,2022-05-04-14:41:13.396100,751.6050919999834,751.9193448999431,751.6050919999834,None,None,751.6050919999834,None,752.4132843999657,None,,,,11014,0002,2022_May_04_1428,localizer,2021.1.3,60.02631555543143,
block,scrambled,scrambled075.bmp,,,,,0,191,191,191,,,,,,,,,,,,,,,,,,,,,,,,,,,,,,,,,,,,,,,,,,None,,752.4132843999657,None,752.4132843999657,None,2022-05-04-14:41:14.213531,752.423281299998,752.7293996999506,752.423281299998,None,None,752.423281299998,None,753.2301605999935,None,,,,11014,0002,2022_May_04_1428,localizer,2021.1.3,60.02631555543143,
block,scrambled,scrambled087.bmp,,,,,0,192,192,192,,,,,,,,,,,,,,,,,,,,,,,,,,,,,,,,,,,,,,,,,,None,,753.2301605999935,None,753.2301605999935,None,2022-05-04-14:41:15.030341,753.230734599987,753.5462302999804,753.230734599987,None,None,753.230734599987,None,754.0305525999981,None,,,,11014,0002,2022_May_04_1428,localizer,2021.1.3,60.02631555543143,
block,scrambled,scrambled070.bmp,,,,,0,193,193,193,,,,,,,,,,,,,,,,,,,,,,,,,,,,,,,,,,,,,,,,,,None,,754.0305525999981,None,754.0305525999981,None,2022-05-04-14:41:15.833738,754.0336249000393,754.34687759995,754.0336249000393,754.0336249000393,None,754.0336249000393,754.0336249000393,754.8464304999914,None,,,,11014,0002,2022_May_04_1428,localizer,2021.1.3,60.02631555543143,
block,scrambled,scrambled070.bmp,,,,,0,194,194,194,,,,,,,,,,,,,,,,,,,,,,,,,,,,,,,,,,,,,,,,,,None,,754.8464304999914,None,754.8464304999914,None,2022-05-04-14:41:16.647336,754.8472272999352,755.1631109999726,754.8472272999352,None,y,754.8472272999352,None,755.6467689999379,None,0.5757370999781415,,,11014,0002,2022_May_04_1428,localizer,2021.1.3,60.02631555543143,
block,scrambled,scrambled002.bmp,,,,,0,195,195,195,,,,,,,,,,,,,,,,,,,,,,,,,,,,,,,,,,,,,,,,,,None,,755.6467689999379,None,755.6467689999379,None,2022-05-04-14:41:17.450333,755.6497166999616,755.962966299965,755.6497166999616,755.6497166999616,None,755.6497166999616,755.6497166999616,756.4627830000361,None,,,,11014,0002,2022_May_04_1428,localizer,2021.1.3,60.02631555543143,
block,scrambled,scrambled049.bmp,,,,,0,196,196,196,,,,,,,,,,,,,,,,,,,,,,,,,,,,,,,,,,,,,,,,,,None,,756.4627830000361,None,756.4627830000361,None,2022-05-04-14:41:18.263503,756.4640096999938,756.779436300043,756.4640096999938,None,None,756.4640096999938,None,757.2632801000261,None,,,,11014,0002,2022_May_04_1428,localizer,2021.1.3,60.02631555543143,
block,scrambled,scrambled019.bmp,,,,,0,197,197,197,,,,,,,,,,,,,,,,,,,,,,,,,,,,,,,,,,,,,,,,,,None,,757.2632801000261,None,757.2632801000261,None,2022-05-04-14:41:19.065724,757.2647746000439,757.5798921999522,757.2647746000439,757.2647746000439,None,757.2647746000439,757.2647746000439,758.086316200043,None,,,,11014,0002,2022_May_04_1428,localizer,2021.1.3,60.02631555543143,
block_end,scrambled,scrambled028.bmp,,,,,0,198,198,198,,,,,,,,,,,,,,,,,,,,,,,,,,,,,,,,,,,,,,,,,,None,,758.086316200043,None,758.086316200043,None,2022-05-04-14:41:19.895133,758.0931874000235,758.3964269999415,758.0931874000235,None,None,758.0931874000235,None,758.8962894000113,None,,,,11014,0002,2022_May_04_1428,localizer,2021.1.3,60.02631555543143,
block_start,faces,faces044.bmp,,,,,0,199,199,199,,,,,,,,,,,,,,,,,,,,,,,,,,,,,,,,,,,,,,,,,,t,1.832162999897264,758.8965476000449,None,758.8965476000449,None,2022-05-04-14:41:22.545916,760.7475778999506,761.0631724999985,760.7475778999506,None,None,760.7475778999506,None,761.5477996000088,None,,,,11014,0002,2022_May_04_1428,localizer,2021.1.3,60.02631555543143,
block,faces,faces012.bmp,,,,,0,200,200,200,,,,,,,,,,,,,,,,,,,,,,,,,,,,,,,,,,,,,,,,,,None,,761.5477996000088,None,761.5477996000088,None,2022-05-04-14:41:23.352987,761.5622364999726,761.863534700009,761.5622364999726,761.5622364999726,None,761.5622364999726,761.5622364999726,762.36351300003,None,,,,11014,0002,2022_May_04_1428,localizer,2021.1.3,60.02631555543143,
block,faces,faces022.bmp,,,,,0,201,201,201,,,,,,,,,,,,,,,,,,,,,,,,,,,,,,,,,,,,,,,,,,None,,762.36351300003,None,762.36351300003,None,2022-05-04-14:41:24.163782,762.3640820999863,762.6653357000323,762.3640820999863,None,None,762.3640820999863,None,763.1653387000085,None,,,,11014,0002,2022_May_04_1428,localizer,2021.1.3,60.02631555543143,
block,faces,faces010.bmp,,,,,0,202,202,202,,,,,,,,,,,,,,,,,,,,,,,,,,,,,,,,,,,,,,,,,,None,,763.1653387000085,None,763.1653387000085,None,2022-05-04-14:41:24.971935,763.1719908999512,763.4797872999916,763.1719908999512,763.1719908999512,None,763.1719908999512,763.1719908999512,763.9794458000222,None,,,,11014,0002,2022_May_04_1428,localizer,2021.1.3,60.02631555543143,
block,faces,faces062.bmp,,,,,0,203,203,203,,,,,,,,,,,,,,,,,,,,,,,,,,,,,,,,,,,,,,,,,,None,,763.9794458000222,None,763.9794458000222,None,2022-05-04-14:41:25.779380,763.9812638999429,764.2965752000455,763.9812638999429,None,None,763.9812638999429,None,764.7961592999752,None,,,,11014,0002,2022_May_04_1428,localizer,2021.1.3,60.02631555543143,
block,faces,faces040.bmp,,,,,0,204,204,204,,,,,,,,,,,,,,,,,,,,,,,,,,,,,,,,,,,,,,,,,,None,,764.7961592999752,None,764.7961592999752,None,2022-05-04-14:41:26.596188,764.7975627999986,765.1132635000395,764.7975627999986,None,None,764.7975627999986,None,765.5966735999798,None,,,,11014,0002,2022_May_04_1428,localizer,2021.1.3,60.02631555543143,
block,faces,faces056.bmp,,,,,0,205,205,205,,,,,,,,,,,,,,,,,,,,,,,,,,,,,,,,,,,,,,,,,,None,,765.5966735999798,None,765.5966735999798,None,2022-05-04-14:41:27.398372,765.5983548000222,765.9195699000265,765.5983548000222,765.5983548000222,None,765.5983548000222,765.5983548000222,766.412828399986,None,,,,11014,0002,2022_May_04_1428,localizer,2021.1.3,60.02631555543143,
block,faces,faces068.bmp,,,,,0,206,206,206,,,,,,,,,,,,,,,,,,,,,,,,,,,,,,,,,,,,,,,,,,None,,766.412828399986,None,766.412828399986,None,2022-05-04-14:41:28.213029,766.4142976000439,766.7134235999547,766.4142976000439,None,None,766.4142976000439,None,767.2300487999571,None,,,,11014,0002,2022_May_04_1428,localizer,2021.1.3,60.02631555543143,
block,faces,faces087.bmp,,,,,0,207,207,207,,,,,,,,,,,,,,,,,,,,,,,,,,,,,,,,,,,,,,,,,,None,,767.2300487999571,None,767.2300487999571,None,2022-05-04-14:41:29.030303,767.2428343000356,767.5465788999572,767.2428343000356,None,None,767.2428343000356,None,768.0462936999509,None,,,,11014,0002,2022_May_04_1428,localizer,2021.1.3,60.02631555543143,
block,faces,faces074.bmp,,,,,0,208,208,208,,,,,,,,,,,,,,,,,,,,,,,,,,,,,,,,,,,,,,,,,,None,,768.0462936999509,None,768.0462936999509,None,2022-05-04-14:41:29.845372,768.0479548999574,768.3635383000365,768.0479548999574,None,None,768.0479548999574,None,768.8634596999734,None,,,,11014,0002,2022_May_04_1428,localizer,2021.1.3,60.02631555543143,
block,faces,faces049.bmp,,,,,0,209,209,209,,,,,,,,,,,,,,,,,,,,,,,,,,,,,,,,,,,,,,,,,,None,,768.8634596999734,None,768.8634596999734,None,2022-05-04-14:41:30.663764,768.8735726999585,769.1805168000283,768.8735726999585,None,None,768.8735726999585,None,769.6811446999898,None,,,,11014,0002,2022_May_04_1428,localizer,2021.1.3,60.02631555543143,
block,faces,faces004.bmp,,,,,0,210,210,210,,,,,,,,,,,,,,,,,,,,,,,,,,,,,,,,,,,,,,,,,,None,,769.6811446999898,None,769.6811446999898,None,2022-05-04-14:41:31.483298,769.6841048999922,769.9963647000259,769.6841048999922,None,None,769.6841048999922,None,770.4965971000026,None,,,,11014,0002,2022_May_04_1428,localizer,2021.1.3,60.02631555543143,
block,faces,faces039.bmp,,,,,0,211,211,211,,,,,,,,,,,,,,,,,,,,,,,,,,,,,,,,,,,,,,,,,,None,,770.4965971000026,None,770.4965971000026,None,2022-05-04-14:41:32.297167,770.4975693000015,770.8131819999544,770.4975693000015,None,None,770.4975693000015,None,771.3132137000327,None,,,,11014,0002,2022_May_04_1428,localizer,2021.1.3,60.02631555543143,
block,faces,faces055.bmp,,,,,0,212,212,212,,,,,,,,,,,,,,,,,,,,,,,,,,,,,,,,,,,,,,,,,,None,,771.3132137000327,None,771.3132137000327,None,2022-05-04-14:41:33.113482,771.3143517000135,771.6294363000197,771.3143517000135,None,None,771.3143517000135,None,772.1138024000218,None,,,,11014,0002,2022_May_04_1428,localizer,2021.1.3,60.02631555543143,
block_end,faces,faces086.bmp,,,,,0,213,213,213,,,,,,,,,,,,,,,,,,,,,,,,,,,,,,,,,,,,,,,,,,None,,772.1138024000218,None,772.1138024000218,None,2022-05-04-14:41:33.917110,772.1166525000008,772.4293069000123,772.1166525000008,772.1166525000008,None,772.1166525000008,772.1166525000008,772.9197911000344,None,,,,11014,0002,2022_May_04_1428,localizer,2021.1.3,60.02631555543143,
block_start,objects,objects021.bmp,,,,,0,214,214,214,,,,,,,,,,,,,,,,,,,,,,,,,,,,,,,,,,,,,,,,,,t,1.8107983000809327,772.9174780000467,None,772.9174780000467,None,2022-05-04-14:41:36.547365,774.7476127999835,775.0633497999515,774.7476127999835,None,None,774.7476127999835,None,775.5479065000079,None,,,,11014,0002,2022_May_04_1428,localizer,2021.1.3,60.02631555543143,
block,objects,objects046.bmp,,,,,0,215,215,215,,,,,,,,,,,,,,,,,,,,,,,,,,,,,,,,,,,,,,,,,,None,,775.5479065000079,None,775.5479065000079,None,2022-05-04-14:41:37.353153,775.5530578000471,775.8632111999905,775.5530578000471,775.5530578000471,None,775.5530578000471,775.5530578000471,776.3626909999409,None,,,,11014,0002,2022_May_04_1428,localizer,2021.1.3,60.02631555543143,
block,objects,objects060.bmp,,,,,0,216,216,216,,,,,,,,,,,,,,,,,,,,,,,,,,,,,,,,,,,,,,,,,,None,,776.3626909999409,None,776.3626909999409,None,2022-05-04-14:41:38.162893,776.3651505999733,776.6796851999825,776.3651505999733,None,None,776.3651505999733,None,777.1643558999756,None,,,,11014,0002,2022_May_04_1428,localizer,2021.1.3,60.02631555543143,
block,objects,objects043.bmp,,,,,0,217,217,217,,,,,,,,,,,,,,,,,,,,,,,,,,,,,,,,,,,,,,,,,,None,,777.1643558999756,None,777.1643558999756,None,2022-05-04-14:41:38.967340,777.168190700002,777.4800279999617,777.168190700002,777.168190700002,None,777.168190700002,777.168190700002,777.9700162999331,None,,,,11014,0002,2022_May_04_1428,localizer,2021.1.3,60.02631555543143,
block,objects,objects041.bmp,,,,,0,218,218,218,,,,,,,,,,,,,,,,,,,,,,,,,,,,,,,,,,,,,,,,,,None,,777.9700162999331,None,777.9700162999331,None,2022-05-04-14:41:39.776415,777.9836244999897,778.2967096000211,777.9836244999897,777.9836244999897,None,777.9836244999897,777.9836244999897,778.7793916000053,None,,,,11014,0002,2022_May_04_1428,localizer,2021.1.3,60.02631555543143,
block,objects,objects062.bmp,,,,,0,219,219,219,,,,,,,,,,,,,,,,,,,,,,,,,,,,,,,,,,,,,,,,,,None,,778.7793916000053,None,778.7793916000053,None,2022-05-04-14:41:40.579387,778.7812714000465,779.0865446999669,778.7812714000465,None,None,778.7812714000465,None,779.5961460000369,None,,,,11014,0002,2022_May_04_1428,localizer,2021.1.3,60.02631555543143,
block,objects,objects056.bmp,,,,,0,220,220,220,,,,,,,,,,,,,,,,,,,,,,,,,,,,,,,,,,,,,,,,,,None,,779.5961460000369,None,779.5961460000369,None,2022-05-04-14:41:41.395254,779.603753900039,779.912590199965,779.603753900039,None,None,779.603753900039,None,780.4132978999521,None,,,,11014,0002,2022_May_04_1428,localizer,2021.1.3,60.02631555543143,
block,objects,objects073.bmp,,,,,0,221,221,221,,,,,,,,,,,,,,,,,,,,,,,,,,,,,,,,,,,,,,,,,,None,,780.4132978999521,None,780.4132978999521,None,2022-05-04-14:41:42.213591,780.4142091999529,780.729944700026,780.4142091999529,None,None,780.4142091999529,None,781.2133706999709,None,,,,11014,0002,2022_May_04_1428,localizer,2021.1.3,60.02631555543143,
block,objects,objects010.bmp,,,,,0,222,222,222,,,,,,,,,,,,,,,,,,,,,,,,,,,,,,,,,,,,,,,,,,None,,781.2133706999709,None,781.2133706999709,None,2022-05-04-14:41:43.015674,781.2143843999365,781.5299858000362,781.2143843999365,781.2143843999365,None,781.2143843999365,781.2143843999365,782.0295917000155,None,,,,11014,0002,2022_May_04_1428,localizer,2021.1.3,60.02631555543143,
block,objects,objects082.bmp,,,,,0,223,223,223,,,,,,,,,,,,,,,,,,,,,,,,,,,,,,,,,,,,,,,,,,None,,782.0295917000155,None,782.0295917000155,None,2022-05-04-14:41:43.830186,782.0310255000368,782.3464537999826,782.0310255000368,None,None,782.0310255000368,None,782.8308605999453,None,,,,11014,0002,2022_May_04_1428,localizer,2021.1.3,60.02631555543143,
block,objects,objects038.bmp,,,,,0,224,224,224,,,,,,,,,,,,,,,,,,,,,,,,,,,,,,,,,,,,,,,,,,None,,782.8308605999453,None,782.8308605999453,None,2022-05-04-14:41:44.634139,782.83385429997,783.1472740999889,782.83385429997,782.83385429997,None,782.83385429997,782.83385429997,783.6465051000239,None,,,,11014,0002,2022_May_04_1428,localizer,2021.1.3,60.02631555543143,
block,objects,objects005.bmp,,,,,0,225,225,225,,,,,,,,,,,,,,,,,,,,,,,,,,,,,,,,,,,,,,,,,,None,,783.6465051000239,None,783.6465051000239,None,2022-05-04-14:41:45.447533,783.6474519999465,783.9467462999746,783.6474519999465,None,None,783.6474519999465,None,784.446994199953,None,,,,11014,0002,2022_May_04_1428,localizer,2021.1.3,60.02631555543143,
block,objects,objects079.bmp,,,,,0,226,226,226,,,,,,,,,,,,,,,,,,,,,,,,,,,,,,,,,,,,,,,,,,None,,784.446994199953,None,784.446994199953,None,2022-05-04-14:41:46.249425,784.4483912000433,784.7693065999774,784.4483912000433,784.4483912000433,None,784.4483912000433,784.4483912000433,785.2627650999464,None,,,,11014,0002,2022_May_04_1428,localizer,2021.1.3,60.02631555543143,
block,objects,objects040.bmp,,,,,0,227,227,227,,,,,,,,,,,,,,,,,,,,,,,,,,,,,,,,,,,,,,,,,,None,,785.2627650999464,None,785.2627650999464,None,2022-05-04-14:41:47.063043,785.2716404999373,785.5803459000308,785.2716404999373,None,None,785.2716404999373,None,786.0799250000389,None,,,,11014,0002,2022_May_04_1428,localizer,2021.1.3,60.02631555543143,
block_end,objects,objects020.bmp,,,,,0,228,228,228,,,,,,,,,,,,,,,,,,,,,,,,,,,,,,,,,,,,,,,,,,None,,786.0799250000389,None,786.0799250000389,None,2022-05-04-14:41:47.880177,786.0807957999641,786.3964424999431,786.0807957999641,None,None,786.0807957999641,None,786.8798413000302,None,,,,11014,0002,2022_May_04_1428,localizer,2021.1.3,60.02631555543143,
block_start,scenes,scenes015.bmp,,,,,0,229,229,229,,,,,,,,,,,,,,,,,,,,,,,,,,,,,,,,,,,,,,,,,,t,1.8492090000072494,786.8794374000281,None,786.8794374000281,None,2022-05-04-14:41:50.546955,788.7618611999787,789.0631388999755,788.7618611999787,None,None,788.7618611999787,None,789.5640382000245,None,,,,11014,0002,2022_May_04_1428,localizer,2021.1.3,60.02631555543143,
block,scenes,scenes071.bmp,,,,,0,230,230,230,,,,,,,,,,,,,,,,,,,,,,,,,,,,,,,,,,,,,,,,,,None,,789.5640382000245,None,789.5640382000245,None,2022-05-04-14:41:51.366182,789.5668328000465,789.8798778000055,789.5668328000465,None,None,789.5668328000465,None,790.3805949999485,None,,,,11014,0002,2022_May_04_1428,localizer,2021.1.3,60.02631555543143,
block,scenes,scenes009.bmp,,,,,0,231,231,231,,,,,,,,,,,,,,,,,,,,,,,,,,,,,,,,,,,,,,,,,,None,,790.3805949999485,None,790.3805949999485,None,2022-05-04-14:41:52.181888,790.391300200019,790.6964841999579,790.391300200019,None,None,790.391300200019,None,791.1971614999463,None,,,,11014,0002,2022_May_04_1428,localizer,2021.1.3,60.02631555543143,
block,scenes,scenes072.bmp,,,,,0,232,232,232,,,,,,,,,,,,,,,,,,,,,,,,,,,,,,,,,,,,,,,,,,None,,791.1971614999463,None,791.1971614999463,None,2022-05-04-14:41:52.998543,791.1980186000001,791.5134973999811,791.1980186000001,None,None,791.1980186000001,None,792.0132283999817,None,,,,11014,0002,2022_May_04_1428,localizer,2021.1.3,60.02631555543143,
block,scenes,scenes035.bmp,,,,,0,233,233,233,,,,,,,,,,,,,,,,,,,,,,,,,,,,,,,,,,,,,,,,,,None,,792.0132283999817,None,792.0132283999817,None,2022-05-04-14:41:53.813479,792.018190999981,792.3299227999523,792.018190999981,None,None,792.018190999981,None,792.8305000999942,None,,,,11014,0002,2022_May_04_1428,localizer,2021.1.3,60.02631555543143,
block,scenes,scenes068.bmp,,,,,0,234,234,234,,,,,,,,,,,,,,,,,,,,,,,,,,,,,,,,,,,,,,,,,,None,,792.8305000999942,None,792.8305000999942,None,2022-05-04-14:41:54.631881,792.8310196000384,793.1300351000391,792.8310196000384,None,None,792.8310196000384,None,793.6301591000054,None,,,,11014,0002,2022_May_04_1428,localizer,2021.1.3,60.02631555543143,
block,scenes,scenes004.bmp,,,,,0,235,235,235,,,,,,,,,,,,,,,,,,,,,,,,,,,,,,,,,,,,,,,,,,None,,793.6301591000054,None,793.6301591000054,None,2022-05-04-14:41:55.432854,793.6321618999355,793.9467310999753,793.6321618999355,793.6321618999355,None,793.6321618999355,793.6321618999355,794.446699200035,None,,,,11014,0002,2022_May_04_1428,localizer,2021.1.3,60.02631555543143,
block,scenes,scenes011.bmp,,,,,0,236,236,236,,,,,,,,,,,,,,,,,,,,,,,,,,,,,,,,,,,,,,,,,,None,,794.446699200035,None,794.446699200035,None,2022-05-04-14:41:56.247525,794.4476721000392,794.746484400006,794.4476721000392,None,None,794.4476721000392,None,795.2467548000393,None,,,,11014,0002,2022_May_04_1428,localizer,2021.1.3,60.02631555543143,
block,scenes,scenes034.bmp,,,,,0,237,237,237,,,,,,,,,,,,,,,,,,,,,,,,,,,,,,,,,,,,,,,,,,None,,795.2467548000393,None,795.2467548000393,None,2022-05-04-14:41:57.049417,795.2485887999646,795.5635112000164,795.2485887999646,795.2485887999646,None,795.2485887999646,795.2485887999646,796.0631291999714,None,,,,11014,0002,2022_May_04_1428,localizer,2021.1.3,60.02631555543143,
block,scenes,scenes046.bmp,,,,,0,238,238,238,,,,,,,,,,,,,,,,,,,,,,,,,,,,,,,,,,,,,,,,,,None,,796.0631291999714,None,796.0631291999714,None,2022-05-04-14:41:57.863447,796.0713531000074,796.3804763000226,796.0713531000074,None,None,796.0713531000074,None,796.8799402999691,None,,,,11014,0002,2022_May_04_1428,localizer,2021.1.3,60.02631555543143,
block,scenes,scenes091.bmp,,,,,0,239,239,239,,,,,,,,,,,,,,,,,,,,,,,,,,,,,,,,,,,,,,,,,,None,,796.8799402999691,None,796.8799402999691,None,2022-05-04-14:41:58.680257,796.8809661000269,797.1801758999936,796.8809661000269,None,None,796.8809661000269,None,797.6802201999351,None,,,,11014,0002,2022_May_04_1428,localizer,2021.1.3,60.02631555543143,
block,scenes,scenes025.bmp,,,,,0,240,240,240,,,,,,,,,,,,,,,,,,,,,,,,,,,,,,,,,,,,,,,,,,None,,797.6802201999351,None,797.6802201999351,None,2022-05-04-14:41:59.481532,797.681172200013,797.9803798999637,797.681172200013,797.681172200013,None,797.681172200013,797.681172200013,798.4802740000421,None,,,,11014,0002,2022_May_04_1428,localizer,2021.1.3,60.02631555543143,
block,scenes,scenes022.bmp,,,,,0,241,241,241,,,,,,,,,,,,,,,,,,,,,,,,,,,,,,,,,,,,,,,,,,None,,798.4802740000421,None,798.4802740000421,None,2022-05-04-14:42:00.282580,798.4949610000476,798.7988460999914,798.4949610000476,798.4949610000476,None,798.4949610000476,798.4949610000476,799.2964634999632,None,,,,11014,0002,2022_May_04_1428,localizer,2021.1.3,60.02631555543143,
block,scenes,scenes073.bmp,,,,,0,242,242,242,,,,,,,,,,,,,,,,,,,,,,,,,,,,,,,,,,,,,,,,,,None,,799.2964634999632,None,799.2964634999632,None,2022-05-04-14:42:01.095568,799.3069070000201,799.6123383999802,799.3069070000201,None,None,799.3069070000201,None,800.1145895999623,None,,,,11014,0002,2022_May_04_1428,localizer,2021.1.3,60.02631555543143,
block_end,scenes,scenes084.bmp,,,,,0,243,243,243,,,,,,,,,,,,,,,,,,,,,,,,,,,,,,,,,,,,,,,,,,None,,800.1145895999623,None,800.1145895999623,None,2022-05-04-14:42:01.916645,800.1239842999494,800.430495699984,800.1239842999494,None,None,800.1239842999494,None,800.9303231000201,None,,,,11014,0002,2022_May_04_1428,localizer,2021.1.3,60.02631555543143,
,,,,,,,,,,,,,,,,,,,,,,,,,,,,,,,,,,,,,,,,,,,,,,,,,,,,,,,,,,,,,,,,,,,,,800.9300159999402,None,,,,,,,
