block_type,condition,img_name,Button.thisRepN,Button.thisTrialN,Button.thisN,Button.thisIndex,trials.thisRepN,trials.thisTrialN,trials.thisN,trials.thisIndex,Ready_experimenter_text.started,Ready_experimenter_text.stopped,Ready_experimenter_resp.keys,Ready_experimenter_resp.rt,Ready_experimenter_resp.started,Ready_experimenter_resp.stopped,Alignment_background.started,Alignment_background.stopped,Alignment_image.started,Alignment_image.stopped,Alignment_resp.keys,Alignment_resp.rt,Alignment_resp.started,Alignment_resp.stopped,Button_text.started,Button_text.stopped,Index_text.started,Index_text.stopped,Index_resp.keys,Index_resp.rt,Index_resp.started,Index_resp.stopped,Middle_text.started,Middle_text.stopped,Middle_resp.keys,Middle_resp.rt,Middle_resp.started,Middle_resp.stopped,Repeat_text.started,Repeat_text.stopped,Repeat_resp.keys,Repeat_resp.corr,Repeat_resp.rt,Repeat_resp.started,Repeat_resp.stopped,instruction_text.started,instruction_text.stopped,key_resp.keys,key_resp.rt,key_resp.started,key_resp.stopped,scanner_t.keys,scanner_t.rt,scanner_t.started,scanner_t.stopped,fixation_wait_for_t.started,fixation_wait_for_t.stopped,real_timestamp_trial_start,image.started,image.stopped,fixation.started,fixation.stopped,repeat_response.keys,repeat_response.started,repeat_response.stopped,fixation_null.started,fixation_null.stopped,repeat_response.rt,end_text.started,end_text.stopped,participant,run,date,expName,psychopyVersion,frameRate,
,,,,,,,,,,,13.161035500001162,None,return,428.5776620001998,13.161035500001162,None,,,,,,,,,,,,,,,,,,,,,,,,,,,,,,,,,,,,,,,,,,,,,,,,,,,,,,,22010,0002,2022_Jul_13_1359,localizer,2021.1.3,59.96052197094224,
,,,,,,,,,,,,,,,,,441.7863078999799,None,441.7863078999799,None,return,0.8209144999273121,441.7863078999799,None,,,,,,,,,,,,,,,,,,,,,,,,,,,,,,,,,,,,,,,,,,,,,,,22010,0002,2022_Jul_13_1359,localizer,2021.1.3,59.96052197094224,
,,,0,0,0,0,,,,,,,,,,,,,,,,,,,442.62996139982715,None,443.6362222000025,None,y,8.01029619993642,443.6362222000025,None,451.6633584999945,None,b,2.42913920013234,451.6633584999945,None,454.1134949999396,None,n,0,1.6138266001362354,454.1134949999396,None,,,,,,,,,,,,,,,,,,,,,,,,,,22010,0002,2022_Jul_13_1359,localizer,2021.1.3,59.96052197094224,
,,,,,,,,,,,,,,,,,,,,,,,,,,,,,,,,,,,,,,,,,,,,,,455.7469560999889,None,y,31.829457300016657,455.7469560999889,None,,,,,,,,,,,,,,,,,,,,22010,0002,2022_Jul_13_1359,localizer,2021.1.3,59.96052197094224,
block_start,scenes,scenes040.bmp,,,,,0,0,0,0,,,,,,,,,,,,,,,,,,,,,,,,,,,,,,,,,,,,,,,,,,t,15.403724499978125,487.62762509984896,None,487.62762509984896,None,2022-07-13-14:08:11.152915,503.0491620998364,503.363114599837,503.0491620998364,None,None,503.0491620998364,None,503.86388523988427,None,,,,22010,0002,2022_Jul_13_1359,localizer,2021.1.3,59.96052197094224,
block,scenes,scenes061.bmp,,,,,0,1,1,1,,,,,,,,,,,,,,,,,,,,,,,,,,,,,,,,,,,,,,,,,,None,,503.86388523988427,None,503.86388523988427,None,2022-07-13-14:08:11.970965,503.8652247998398,504.18030779995024,503.8652247998398,None,None,503.8652247998398,None,504.6809912397992,None,,,,22010,0002,2022_Jul_13_1359,localizer,2021.1.3,59.96052197094224,
block,scenes,scenes019.bmp,,,,,0,2,2,2,,,,,,,,,,,,,,,,,,,,,,,,,,,,,,,,,,,,,,,,,,None,,504.6809912397992,None,504.6809912397992,None,2022-07-13-14:08:12.788040,504.6818555998616,504.9970574998297,504.6818555998616,None,None,504.6818555998616,None,505.4969315398019,None,,,,22010,0002,2022_Jul_13_1359,localizer,2021.1.3,59.96052197094224,
block,scenes,scenes076.bmp,,,,,0,3,3,3,,,,,,,,,,,,,,,,,,,,,,,,,,,,,,,,,,,,,,,,,,None,,505.4969315398019,None,505.4969315398019,None,2022-07-13-14:08:13.603049,505.5064427999314,505.81366569991224,505.5064427999314,None,None,505.5064427999314,None,506.3138035397977,None,,,,22010,0002,2022_Jul_13_1359,localizer,2021.1.3,59.96052197094224,
block,scenes,scenes027.bmp,,,,,0,4,4,4,,,,,,,,,,,,,,,,,,,,,,,,,,,,,,,,,,,,,,,,,,None,,506.3138035397977,None,506.3138035397977,None,2022-07-13-14:08:14.419667,506.3145267998334,506.6136425998993,506.3145267998334,None,None,506.3145267998334,None,507.1138409398962,None,,,,22010,0002,2022_Jul_13_1359,localizer,2021.1.3,59.96052197094224,
block,scenes,scenes041.bmp,,,,,0,5,5,5,,,,,,,,,,,,,,,,,,,,,,,,,,,,,,,,,,,,,,,,,,None,,507.1138409398962,None,507.1138409398962,None,2022-07-13-14:08:15.221771,507.1152875998523,507.4304984000046,507.1152875998523,507.1152875998523,None,507.1152875998523,507.1152875998523,507.9304518398829,None,,,,22010,0002,2022_Jul_13_1359,localizer,2021.1.3,59.96052197094224,
block,scenes,scenes003.bmp,,,,,0,6,6,6,,,,,,,,,,,,,,,,,,,,,,,,,,,,,,,,,,,,,,,,,,None,,507.9304518398829,None,507.9304518398829,None,2022-07-13-14:08:16.036315,507.9313697000034,508.247045799857,507.9313697000034,None,None,507.9313697000034,None,508.7306556398515,None,,,,22010,0002,2022_Jul_13_1359,localizer,2021.1.3,59.96052197094224,
block,scenes,scenes025.bmp,,,,,0,7,7,7,,,,,,,,,,,,,,,,,,,,,,,,,,,,,,,,,,,,,,,,,,None,,508.7306556398515,None,508.7306556398515,None,2022-07-13-14:08:16.838714,508.7481213998981,509.0635640998371,508.7481213998981,508.7481213998981,None,508.7481213998981,508.7481213998981,509.54715024000035,None,,,,22010,0002,2022_Jul_13_1359,localizer,2021.1.3,59.96052197094224,
block,scenes,scenes067.bmp,,,,,0,8,8,8,,,,,,,,,,,,,,,,,,,,,,,,,,,,,,,,,,,,,,,,,,None,,509.54715024000035,None,509.54715024000035,None,2022-07-13-14:08:17.653013,509.5478004999459,509.8533781999722,509.5478004999459,None,None,509.5478004999459,None,510.349070840003,None,,,,22010,0002,2022_Jul_13_1359,localizer,2021.1.3,59.96052197094224,
block,scenes,scenes052.bmp,,,,,0,9,9,9,,,,,,,,,,,,,,,,,,,,,,,,,,,,,,,,,,,,,,,,,,None,,510.349070840003,None,510.349070840003,None,2022-07-13-14:08:18.460901,510.364506599959,510.68033599993214,510.364506599959,510.364506599959,None,510.364506599959,510.364506599959,511.16341583984905,None,,,,22010,0002,2022_Jul_13_1359,localizer,2021.1.3,59.96052197094224,
block,scenes,scenes068.bmp,,,,,0,10,10,10,,,,,,,,,,,,,,,,,,,,,,,,,,,,,,,,,,,,,,,,,,None,,511.16341583984905,None,511.16341583984905,None,2022-07-13-14:08:19.268810,511.1647327998653,511.46796359983273,511.1647327998653,None,None,511.1647327998653,None,511.98018633988687,None,,,,22010,0002,2022_Jul_13_1359,localizer,2021.1.3,59.96052197094224,
block,scenes,scenes066.bmp,,,,,0,11,11,11,,,,,,,,,,,,,,,,,,,,,,,,,,,,,,,,,,,,,,,,,,None,,511.98018633988687,None,511.98018633988687,None,2022-07-13-14:08:20.086057,511.98875849996693,512.297108199913,511.98875849996693,None,None,511.98875849996693,None,512.7992265398614,None,,,,22010,0002,2022_Jul_13_1359,localizer,2021.1.3,59.96052197094224,
block,scenes,scenes055.bmp,,,,,0,12,12,12,,,,,,,,,,,,,,,,,,,,,,,,,,,,,,,,,,,,,,,,,,None,,512.7992265398614,None,512.7992265398614,None,2022-07-13-14:08:20.909137,512.8038156998809,513.1135915999766,512.8038156998809,None,None,512.8038156998809,None,513.6140518399886,None,,,,22010,0002,2022_Jul_13_1359,localizer,2021.1.3,59.96052197094224,
block,scenes,scenes035.bmp,,,,,0,13,13,13,,,,,,,,,,,,,,,,,,,,,,,,,,,,,,,,,,,,,,,,,,None,,513.6140518399886,None,513.6140518399886,None,2022-07-13-14:08:21.720116,513.6249830999877,513.9300910998136,513.6249830999877,None,None,513.6249830999877,None,514.4304702397901,None,,,,22010,0002,2022_Jul_13_1359,localizer,2021.1.3,59.96052197094224,
block_end,scenes,scenes089.bmp,,,,,0,14,14,14,,,,,,,,,,,,,,,,,,,,,,,,,,,,,,,,,,,,,,,,,,None,,514.4304702397901,None,514.4304702397901,None,2022-07-13-14:08:22.535717,514.44339569984,514.7469909999054,514.44339569984,None,None,514.44339569984,None,515.2479620398487,None,,,,22010,0002,2022_Jul_13_1359,localizer,2021.1.3,59.96052197094224,
block_start,scrambled,scrambled041.bmp,,,,,0,15,15,15,,,,,,,,,,,,,,,,,,,,,,,,,,,,,,,,,,,,,,,,,,t,1.7835361999459565,515.247820599936,None,515.247820599936,None,2022-07-13-14:08:25.158867,517.067560599884,517.3803906999528,517.067560599884,None,None,517.067560599884,None,517.8649207399692,None,,,,22010,0002,2022_Jul_13_1359,localizer,2021.1.3,59.96052197094224,
block,scrambled,scrambled073.bmp,,,,,0,16,16,16,,,,,,,,,,,,,,,,,,,,,,,,,,,,,,,,,,,,,,,,,,None,,517.8649207399692,None,517.8649207399692,None,2022-07-13-14:08:25.972796,517.8746601999737,518.1805249999743,517.8746601999737,None,None,517.8746601999737,None,518.6806794399861,None,,,,22010,0002,2022_Jul_13_1359,localizer,2021.1.3,59.96052197094224,
block,scrambled,scrambled055.bmp,,,,,0,17,17,17,,,,,,,,,,,,,,,,,,,,,,,,,,,,,,,,,,,,,,,,,,None,,518.6806794399861,None,518.6806794399861,None,2022-07-13-14:08:26.786540,518.6906619998626,518.997029799968,518.6906619998626,None,None,518.6906619998626,None,519.4970931398682,None,,,,22010,0002,2022_Jul_13_1359,localizer,2021.1.3,59.96052197094224,
block,scrambled,scrambled011.bmp,,,,,0,18,18,18,,,,,,,,,,,,,,,,,,,,,,,,,,,,,,,,,,,,,,,,,,None,,519.4970931398682,None,519.4970931398682,None,2022-07-13-14:08:27.602960,519.4979894999415,519.7970614999067,519.4979894999415,None,None,519.4979894999415,None,520.297240539873,None,,,,22010,0002,2022_Jul_13_1359,localizer,2021.1.3,59.96052197094224,
block,scrambled,scrambled059.bmp,,,,,0,19,19,19,,,,,,,,,,,,,,,,,,,,,,,,,,,,,,,,,,,,,,,,,,None,,520.297240539873,None,520.297240539873,None,2022-07-13-14:08:28.404104,520.2978962999769,520.6139002998825,520.2978962999769,520.2978962999769,None,520.2978962999769,520.2978962999769,521.1022913399618,None,,,,22010,0002,2022_Jul_13_1359,localizer,2021.1.3,59.96052197094224,
block,scrambled,scrambled007.bmp,,,,,0,20,20,20,,,,,,,,,,,,,,,,,,,,,,,,,,,,,,,,,,,,,,,,,,None,,521.1022913399618,None,521.1022913399618,None,2022-07-13-14:08:29.210158,521.113520699786,521.4139285997953,521.113520699786,521.113520699786,None,521.113520699786,521.113520699786,521.9140507399104,None,,,,22010,0002,2022_Jul_13_1359,localizer,2021.1.3,59.96052197094224,
block,scrambled,scrambled008.bmp,,,,,0,21,21,21,,,,,,,,,,,,,,,,,,,,,,,,,,,,,,,,,,,,,,,,,,None,,521.9140507399104,None,521.9140507399104,None,2022-07-13-14:08:30.020132,521.924851299962,522.23048989987,521.924851299962,None,None,521.924851299962,None,522.7306174397934,None,,,,22010,0002,2022_Jul_13_1359,localizer,2021.1.3,59.96052197094224,
block,scrambled,scrambled024.bmp,,,,,0,22,22,22,,,,,,,,,,,,,,,,,,,,,,,,,,,,,,,,,,,,,,,,,,None,,522.7306174397934,None,522.7306174397934,None,2022-07-13-14:08:30.836571,522.7314142999239,523.0307292998768,522.7314142999239,None,None,522.7314142999239,None,523.5308937399648,None,,,,22010,0002,2022_Jul_13_1359,localizer,2021.1.3,59.96052197094224,
block,scrambled,scrambled004.bmp,,,,,0,23,23,23,,,,,,,,,,,,,,,,,,,,,,,,,,,,,,,,,,,,,,,,,,None,,523.5308937399648,None,523.5308937399648,None,2022-07-13-14:08:31.638956,523.5331081999466,523.8473892000038,523.5331081999466,523.5331081999466,None,523.5331081999466,523.5331081999466,524.3483157399576,None,,,,22010,0002,2022_Jul_13_1359,localizer,2021.1.3,59.96052197094224,
block,scrambled,scrambled087.bmp,,,,,0,24,24,24,,,,,,,,,,,,,,,,,,,,,,,,,,,,,,,,,,,,,,,,,,None,,524.3483157399576,None,524.3483157399576,None,2022-07-13-14:08:32.455662,524.3507373998873,524.6642195999157,524.3507373998873,None,None,524.3507373998873,None,525.163620840013,None,,,,22010,0002,2022_Jul_13_1359,localizer,2021.1.3,59.96052197094224,
block,scrambled,scrambled012.bmp,,,,,0,25,25,25,,,,,,,,,,,,,,,,,,,,,,,,,,,,,,,,,,,,,,,,,,None,,525.163620840013,None,525.163620840013,None,2022-07-13-14:08:33.269489,525.1728091000114,525.480087999953,525.1728091000114,None,None,525.1728091000114,None,525.9803237400017,None,,,,22010,0002,2022_Jul_13_1359,localizer,2021.1.3,59.96052197094224,
block,scrambled,scrambled057.bmp,,,,,0,26,26,26,,,,,,,,,,,,,,,,,,,,,,,,,,,,,,,,,,,,,,,,,,None,,525.9803237400017,None,525.9803237400017,None,2022-07-13-14:08:34.086192,525.988823399879,526.2971051000059,525.988823399879,None,None,525.988823399879,None,526.7971487398725,None,,,,22010,0002,2022_Jul_13_1359,localizer,2021.1.3,59.96052197094224,
block,scrambled,scrambled023.bmp,,,,,0,27,27,27,,,,,,,,,,,,,,,,,,,,,,,,,,,,,,,,,,,,,,,,,,None,,526.7971487398725,None,526.7971487398725,None,2022-07-13-14:08:34.903690,526.7980729998089,527.1137428998481,526.7980729998089,None,None,526.7980729998089,None,527.613763039885,None,,,,22010,0002,2022_Jul_13_1359,localizer,2021.1.3,59.96052197094224,
block,scrambled,scrambled081.bmp,,,,,0,28,28,28,,,,,,,,,,,,,,,,,,,,,,,,,,,,,,,,,,,,,,,,,,None,,527.613763039885,None,527.613763039885,None,2022-07-13-14:08:35.719630,527.6144404998049,527.914324299898,527.6144404998049,None,None,527.6144404998049,None,528.4148501399438,None,,,,22010,0002,2022_Jul_13_1359,localizer,2021.1.3,59.96052197094224,
block_end,scrambled,scrambled013.bmp,,,,,0,29,29,29,,,,,,,,,,,,,,,,,,,,,,,,,,,,,,,,,,,,,,,,,,None,,528.4148501399438,None,528.4148501399438,None,2022-07-13-14:08:36.524875,528.4268848998472,528.7303794999607,528.4268848998472,528.4268848998472,None,528.4268848998472,528.4268848998472,529.2324518397916,None,,,,22010,0002,2022_Jul_13_1359,localizer,2021.1.3,59.96052197094224,
null_block,null_block,null_block.bmp,,,,,0,30,30,30,,,,,,,,,,,,,,,,,,,,,,,,,,,,,,,,,,,,,,,,,,t,1.7980878001544625,529.2332236999646,None,529.2332236999646,None,2022-07-13-14:08:39.156978,531.049146239832,None,531.049146239832,None,None,531.049146239832,None,531.0580622998532,None,,,,22010,0002,2022_Jul_13_1359,localizer,2021.1.3,59.96052197094224,
block_start,faces,faces051.bmp,,,,,0,31,31,31,,,,,,,,,,,,,,,,,,,,,,,,,,,,,,,,,,,,,,,,,,t,1.9677605999168009,543.0634586999658,None,543.0634586999658,None,2022-07-13-14:08:53.154323,545.0479341999162,545.3473916999064,545.0479341999162,None,None,545.0479341999162,None,545.8637474399991,None,,,,22010,0002,2022_Jul_13_1359,localizer,2021.1.3,59.96052197094224,
block,faces,faces057.bmp,,,,,0,32,32,32,,,,,,,,,,,,,,,,,,,,,,,,,,,,,,,,,,,,,,,,,,None,,545.8637474399991,None,545.8637474399991,None,2022-07-13-14:08:53.969615,545.8649196999613,546.1644766998943,545.8649196999613,None,None,545.8649196999613,None,546.6641412400174,None,,,,22010,0002,2022_Jul_13_1359,localizer,2021.1.3,59.96052197094224,
block,faces,faces058.bmp,,,,,0,33,33,33,,,,,,,,,,,,,,,,,,,,,,,,,,,,,,,,,,,,,,,,,,None,,546.6641412400174,None,546.6641412400174,None,2022-07-13-14:08:54.771637,546.6755180999171,546.9803670998663,546.6755180999171,546.6755180999171,None,546.6755180999171,546.6755180999171,547.4845024398062,None,,,,22010,0002,2022_Jul_13_1359,localizer,2021.1.3,59.96052197094224,
block,faces,faces077.bmp,,,,,0,34,34,34,,,,,,,,,,,,,,,,,,,,,,,,,,,,,,,,,,,,,,,,,,None,,547.4845024398062,None,547.4845024398062,None,2022-07-13-14:08:55.593452,547.4878399998415,547.7972434000112,547.4878399998415,None,None,547.4878399998415,None,548.297519939905,None,,,,22010,0002,2022_Jul_13_1359,localizer,2021.1.3,59.96052197094224,
block,faces,faces016.bmp,,,,,0,35,35,35,,,,,,,,,,,,,,,,,,,,,,,,,,,,,,,,,,,,,,,,,,None,,548.297519939905,None,548.297519939905,None,2022-07-13-14:08:56.403573,548.3094019999262,548.6142282998189,548.3094019999262,None,None,548.3094019999262,None,549.1158731400035,None,,,,22010,0002,2022_Jul_13_1359,localizer,2021.1.3,59.96052197094224,
block,faces,faces011.bmp,,,,,0,36,36,36,,,,,,,,,,,,,,,,,,,,,,,,,,,,,,,,,,,,,,,,,,None,,549.1158731400035,None,549.1158731400035,None,2022-07-13-14:08:57.225729,549.1202304998878,549.436885099858,549.1202304998878,None,None,549.1202304998878,None,549.9306960398796,None,,,,22010,0002,2022_Jul_13_1359,localizer,2021.1.3,59.96052197094224,
block,faces,faces046.bmp,,,,,0,37,37,37,,,,,,,,,,,,,,,,,,,,,,,,,,,,,,,,,,,,,,,,,,None,,549.9306960398796,None,549.9306960398796,None,2022-07-13-14:08:58.036774,549.9312906998675,550.2305932999589,549.9312906998675,None,None,549.9312906998675,None,550.7325785399414,None,,,,22010,0002,2022_Jul_13_1359,localizer,2021.1.3,59.96052197094224,
block,faces,faces025.bmp,,,,,0,38,38,38,,,,,,,,,,,,,,,,,,,,,,,,,,,,,,,,,,,,,,,,,,None,,550.7325785399414,None,550.7325785399414,None,2022-07-13-14:08:58.844583,550.7502445999999,551.063952999888,550.7502445999999,550.7502445999999,None,550.7502445999999,550.7502445999999,551.5472459399141,None,,,,22010,0002,2022_Jul_13_1359,localizer,2021.1.3,59.96052197094224,
block,faces,faces001.bmp,,,,,0,39,39,39,,,,,,,,,,,,,,,,,,,,,,,,,,,,,,,,,,,,,,,,,,None,,551.5472459399141,None,551.5472459399141,None,2022-07-13-14:08:59.653421,551.557012999896,551.8638736999128,551.557012999896,None,None,551.557012999896,None,552.3637708399444,None,,,,22010,0002,2022_Jul_13_1359,localizer,2021.1.3,59.96052197094224,
block,faces,faces022.bmp,,,,,0,40,40,40,,,,,,,,,,,,,,,,,,,,,,,,,,,,,,,,,,,,,,,,,,None,,552.3637708399444,None,552.3637708399444,None,2022-07-13-14:09:00.469636,552.3648434998468,552.6646936999168,552.3648434998468,None,None,552.3648434998468,None,553.1639325399417,None,,,,22010,0002,2022_Jul_13_1359,localizer,2021.1.3,59.96052197094224,
block,faces,faces032.bmp,,,,,0,41,41,41,,,,,,,,,,,,,,,,,,,,,,,,,,,,,,,,,,,,,,,,,,None,,553.1639325399417,None,553.1639325399417,None,2022-07-13-14:09:01.271793,553.1752255999018,553.4822308998555,553.1752255999018,553.1752255999018,None,553.1752255999018,553.1752255999018,553.9802242398262,None,,,,22010,0002,2022_Jul_13_1359,localizer,2021.1.3,59.96052197094224,
block,faces,faces037.bmp,,,,,0,42,42,42,,,,,,,,,,,,,,,,,,,,,,,,,,,,,,,,,,,,,,,,,,None,,553.9802242398262,None,553.9802242398262,None,2022-07-13-14:09:02.086096,553.9817522999365,554.2973850998096,553.9817522999365,None,None,553.9817522999365,None,554.7810861398,None,,,,22010,0002,2022_Jul_13_1359,localizer,2021.1.3,59.96052197094224,
block,faces,faces012.bmp,,,,,0,43,43,43,,,,,,,,,,,,,,,,,,,,,,,,,,,,,,,,,,,,,,,,,,None,,554.7810861398,None,554.7810861398,None,2022-07-13-14:09:02.890132,554.7953746998683,555.0971047999337,554.7953746998683,554.7953746998683,None,554.7953746998683,554.7953746998683,555.5972584399394,None,,,,22010,0002,2022_Jul_13_1359,localizer,2021.1.3,59.96052197094224,
block,faces,faces055.bmp,,,,,0,44,44,44,,,,,,,,,,,,,,,,,,,,,,,,,,,,,,,,,,,,,,,,,,None,,555.5972584399394,None,555.5972584399394,None,2022-07-13-14:09:03.703367,555.6035960000008,555.9143809999805,555.6035960000008,None,None,555.6035960000008,None,556.4138944400008,None,,,,22010,0002,2022_Jul_13_1359,localizer,2021.1.3,59.96052197094224,
block_end,faces,faces040.bmp,,,,,0,45,45,45,,,,,,,,,,,,,,,,,,,,,,,,,,,,,,,,,,,,,,,,,,None,,556.4138944400008,None,556.4138944400008,None,2022-07-13-14:09:04.519760,556.4239389998838,556.7306343999226,556.4239389998838,None,None,556.4239389998838,None,557.2307737399358,None,,,,22010,0002,2022_Jul_13_1359,localizer,2021.1.3,59.96052197094224,
block_start,objects,objects076.bmp,,,,,0,46,46,46,,,,,,,,,,,,,,,,,,,,,,,,,,,,,,,,,,,,,,,,,,t,1.8004495999775827,557.2306766998954,None,557.2306766998954,None,2022-07-13-14:09:07.151376,559.0566166997887,559.3643723998684,559.0566166997887,None,None,559.0566166997887,None,559.8640373399946,None,,,,22010,0002,2022_Jul_13_1359,localizer,2021.1.3,59.96052197094224,
block,objects,objects009.bmp,,,,,0,47,47,47,,,,,,,,,,,,,,,,,,,,,,,,,,,,,,,,,,,,,,,,,,None,,559.8640373399946,None,559.8640373399946,None,2022-07-13-14:09:07.969900,559.8647659998387,560.1641124999151,559.8647659998387,None,None,559.8647659998387,None,560.6650344398338,None,,,,22010,0002,2022_Jul_13_1359,localizer,2021.1.3,59.96052197094224,
block,objects,objects006.bmp,,,,,0,48,48,48,,,,,,,,,,,,,,,,,,,,,,,,,,,,,,,,,,,,,,,,,,None,,560.6650344398338,None,560.6650344398338,None,2022-07-13-14:09:08.773875,560.6680036999751,560.9802939000074,560.6680036999751,560.6680036999751,None,560.6680036999751,560.6680036999751,561.4804404398426,None,,,,22010,0002,2022_Jul_13_1359,localizer,2021.1.3,59.96052197094224,
block,objects,objects043.bmp,,,,,0,49,49,49,,,,,,,,,,,,,,,,,,,,,,,,,,,,,,,,,,,,,,,,,,None,,561.4804404398426,None,561.4804404398426,None,2022-07-13-14:09:09.586313,561.4817615000065,561.7974266000092,561.4817615000065,None,None,561.4817615000065,None,562.2810641398653,None,,,,22010,0002,2022_Jul_13_1359,localizer,2021.1.3,59.96052197094224,
block,objects,objects047.bmp,,,,,0,50,50,50,,,,,,,,,,,,,,,,,,,,,,,,,,,,,,,,,,,,,,,,,,None,,562.2810641398653,None,562.2810641398653,None,2022-07-13-14:09:10.389320,562.2947530997917,562.6036657998338,562.2947530997917,562.2947530997917,None,562.2947530997917,562.2947530997917,563.0972467399667,None,,,,22010,0002,2022_Jul_13_1359,localizer,2021.1.3,59.96052197094224,
block,objects,objects085.bmp,,,,,0,51,51,51,,,,,,,,,,,,,,,,,,,,,,,,,,,,,,,,,,,,,,,,,,None,,563.0972467399667,None,563.0972467399667,None,2022-07-13-14:09:11.203312,563.0979111997876,563.3972602998838,563.0979111997876,None,None,563.0979111997876,None,563.8977118399459,None,,,,22010,0002,2022_Jul_13_1359,localizer,2021.1.3,59.96052197094224,
block,objects,objects046.bmp,,,,,0,52,52,52,,,,,,,,,,,,,,,,,,,,,,,,,,,,,,,,,,,,,,,,,,None,,563.8977118399459,None,563.8977118399459,None,2022-07-13-14:09:12.007757,563.9017669998575,564.2138853999786,563.9017669998575,563.9017669998575,None,563.9017669998575,563.9017669998575,564.7153183398302,None,,,,22010,0002,2022_Jul_13_1359,localizer,2021.1.3,59.96052197094224,
block,objects,objects013.bmp,,,,,0,53,53,53,,,,,,,,,,,,,,,,,,,,,,,,,,,,,,,,,,,,,,,,,,None,,564.7153183398302,None,564.7153183398302,None,2022-07-13-14:09:12.822164,564.7275740997866,565.0322433998808,564.7275740997866,None,None,564.7275740997866,None,565.5303618399892,None,,,,22010,0002,2022_Jul_13_1359,localizer,2021.1.3,59.96052197094224,
block,objects,objects034.bmp,,,,,0,54,54,54,,,,,,,,,,,,,,,,,,,,,,,,,,,,,,,,,,,,,,,,,,None,,565.5303618399892,None,565.5303618399892,None,2022-07-13-14:09:13.636232,565.5387935999315,565.8470214998815,565.5387935999315,None,None,565.5387935999315,None,566.3475145399104,None,,,,22010,0002,2022_Jul_13_1359,localizer,2021.1.3,59.96052197094224,
block,objects,objects079.bmp,,,,,0,55,55,55,,,,,,,,,,,,,,,,,,,,,,,,,,,,,,,,,,,,,,,,,,None,,566.3475145399104,None,566.3475145399104,None,2022-07-13-14:09:14.453284,566.3482791997958,566.647444000002,566.3482791997958,None,None,566.3482791997958,None,567.1480707400012,None,,,,22010,0002,2022_Jul_13_1359,localizer,2021.1.3,59.96052197094224,
block,objects,objects079.bmp,,,,,0,56,56,56,,,,,,,,,,,,,,,,,,,,,,,,,,,,,,,,,,,,,,,,,,None,,567.1480707400012,None,567.1480707400012,None,2022-07-13-14:09:15.256894,567.1511362998281,567.4704956999049,567.1511362998281,567.1511362998281,None,567.1511362998281,567.1511362998281,567.9640978399664,None,,,,22010,0002,2022_Jul_13_1359,localizer,2021.1.3,59.96052197094224,
block,objects,objects010.bmp,,,,,0,57,57,57,,,,,,,,,,,,,,,,,,,,,,,,,,,,,,,,,,,,,,,,,,None,,567.9640978399664,None,567.9640978399664,None,2022-07-13-14:09:16.069958,567.96482559992,568.2644787000027,567.96482559992,None,y,567.96482559992,None,568.7651755399536,None,0.06126149999909103,,,22010,0002,2022_Jul_13_1359,localizer,2021.1.3,59.96052197094224,
block,objects,objects084.bmp,,,,,0,58,58,58,,,,,,,,,,,,,,,,,,,,,,,,,,,,,,,,,,,,,,,,,,None,,568.7651755399536,None,568.7651755399536,None,2022-07-13-14:09:16.876176,568.782094999915,569.0972014998551,568.782094999915,568.782094999915,None,568.782094999915,568.782094999915,569.5813482398632,None,,,,22010,0002,2022_Jul_13_1359,localizer,2021.1.3,59.96052197094224,
block,objects,objects083.bmp,,,,,0,59,59,59,,,,,,,,,,,,,,,,,,,,,,,,,,,,,,,,,,,,,,,,,,None,,569.5813482398632,None,569.5813482398632,None,2022-07-13-14:09:17.688196,569.5820364998654,569.8976932999212,569.5820364998654,None,None,569.5820364998654,None,570.3813719399739,None,,,,22010,0002,2022_Jul_13_1359,localizer,2021.1.3,59.96052197094224,
block_end,objects,objects064.bmp,,,,,0,60,60,60,,,,,,,,,,,,,,,,,,,,,,,,,,,,,,,,,,,,,,,,,,None,,570.3813719399739,None,570.3813719399739,None,2022-07-13-14:09:18.490282,570.384529999923,570.6981241998728,570.384529999923,570.384529999923,None,570.384529999923,570.384529999923,571.1978232399094,None,,,,22010,0002,2022_Jul_13_1359,localizer,2021.1.3,59.96052197094224,
null_block,null_block,null_block.bmp,,,,,0,61,61,61,,,,,,,,,,,,,,,,,,,,,,,,,,,,,,,,,,,,,,,,,,t,1.8338814000599086,571.1972523999866,None,571.1972523999866,None,2022-07-13-14:09:21.152057,573.0471851399168,None,573.0471851399168,None,None,573.0471851399168,None,573.048586799996,None,,,,22010,0002,2022_Jul_13_1359,localizer,2021.1.3,59.96052197094224,
block_start,objects,objects036.bmp,,,,,0,62,62,62,,,,,,,,,,,,,,,,,,,,,,,,,,,,,,,,,,,,,,,,,,t,1.9841269000899047,585.0471339998767,None,585.0471339998767,None,2022-07-13-14:09:35.154573,587.0581406999845,587.3637241998222,587.0581406999845,None,None,587.0581406999845,None,587.8652008398901,None,,,,22010,0002,2022_Jul_13_1359,localizer,2021.1.3,59.96052197094224,
block,objects,objects060.bmp,,,,,0,63,63,63,,,,,,,,,,,,,,,,,,,,,,,,,,,,,,,,,,,,,,,,,,None,,587.8652008398901,None,587.8652008398901,None,2022-07-13-14:09:35.972229,587.8675436999183,588.1811951999553,587.8675436999183,None,None,587.8675436999183,None,588.6705264399759,None,,,,22010,0002,2022_Jul_13_1359,localizer,2021.1.3,59.96052197094224,
block,objects,objects065.bmp,,,,,0,64,64,64,,,,,,,,,,,,,,,,,,,,,,,,,,,,,,,,,,,,,,,,,,None,,588.6705264399759,None,588.6705264399759,None,2022-07-13-14:09:36.784265,588.6914499998093,588.9973410998937,588.6914499998093,None,None,588.6914499998093,None,589.4820373400114,None,,,,22010,0002,2022_Jul_13_1359,localizer,2021.1.3,59.96052197094224,
block,objects,objects021.bmp,,,,,0,65,65,65,,,,,,,,,,,,,,,,,,,,,,,,,,,,,,,,,,,,,,,,,,None,,589.4820373400114,None,589.4820373400114,None,2022-07-13-14:09:37.589070,589.4946182998829,589.797989099985,589.4946182998829,None,None,589.4946182998829,None,590.2979229399468,None,,,,22010,0002,2022_Jul_13_1359,localizer,2021.1.3,59.96052197094224,
block,objects,objects070.bmp,,,,,0,66,66,66,,,,,,,,,,,,,,,,,,,,,,,,,,,,,,,,,,,,,,,,,,None,,590.2979229399468,None,590.2979229399468,None,2022-07-13-14:09:38.404801,590.3087306998204,590.6138820999768,590.3087306998204,None,None,590.3087306998204,None,591.1153701398987,None,,,,22010,0002,2022_Jul_13_1359,localizer,2021.1.3,59.96052197094224,
block,objects,objects033.bmp,,,,,0,67,67,67,,,,,,,,,,,,,,,,,,,,,,,,,,,,,,,,,,,,,,,,,,None,,591.1153701398987,None,591.1153701398987,None,2022-07-13-14:09:39.222352,591.1176813999191,591.4316823999397,591.1176813999191,None,None,591.1176813999191,None,591.9306765398476,None,,,,22010,0002,2022_Jul_13_1359,localizer,2021.1.3,59.96052197094224,
block,objects,objects014.bmp,,,,,0,68,68,68,,,,,,,,,,,,,,,,,,,,,,,,,,,,,,,,,,,,,,,,,,None,,591.9306765398476,None,591.9306765398476,None,2022-07-13-14:09:40.035549,591.9353627997916,592.2474449998699,591.9353627997916,None,None,591.9353627997916,None,592.7473677398636,None,,,,22010,0002,2022_Jul_13_1359,localizer,2021.1.3,59.96052197094224,
block,objects,objects084.bmp,,,,,0,69,69,69,,,,,,,,,,,,,,,,,,,,,,,,,,,,,,,,,,,,,,,,,,None,,592.7473677398636,None,592.7473677398636,None,2022-07-13-14:09:40.852661,592.7485464999918,593.064156399807,592.7485464999918,None,None,592.7485464999918,None,593.548647839995,None,,,,22010,0002,2022_Jul_13_1359,localizer,2021.1.3,59.96052197094224,
block,objects,objects078.bmp,,,,,0,70,70,70,,,,,,,,,,,,,,,,,,,,,,,,,,,,,,,,,,,,,,,,,,None,,593.548647839995,None,593.548647839995,None,2022-07-13-14:09:41.658720,593.5641040999908,593.8641146998852,593.5641040999908,593.5641040999908,None,593.5641040999908,593.5641040999908,594.3643651399295,None,,,,22010,0002,2022_Jul_13_1359,localizer,2021.1.3,59.96052197094224,
block,objects,objects063.bmp,,,,,0,71,71,71,,,,,,,,,,,,,,,,,,,,,,,,,,,,,,,,,,,,,,,,,,None,,594.3643651399295,None,594.3643651399295,None,2022-07-13-14:09:42.470314,594.3650503999088,594.6806532999035,594.3650503999088,None,None,594.3650503999088,None,595.1650381399784,None,,,,22010,0002,2022_Jul_13_1359,localizer,2021.1.3,59.96052197094224,
block,objects,objects080.bmp,,,,,0,72,72,72,,,,,,,,,,,,,,,,,,,,,,,,,,,,,,,,,,,,,,,,,,None,,595.1650381399784,None,595.1650381399784,None,2022-07-13-14:09:43.273884,595.1791821999941,595.4806396998465,595.1791821999941,595.1791821999941,None,595.1791821999941,595.1791821999941,595.9806907400023,None,,,,22010,0002,2022_Jul_13_1359,localizer,2021.1.3,59.96052197094224,
block,objects,objects085.bmp,,,,,0,73,73,73,,,,,,,,,,,,,,,,,,,,,,,,,,,,,,,,,,,,,,,,,,None,,595.9806907400023,None,595.9806907400023,None,2022-07-13-14:09:44.085564,595.9822287999559,596.2974030999467,595.9822287999559,None,None,595.9822287999559,None,596.7971773398574,None,,,,22010,0002,2022_Jul_13_1359,localizer,2021.1.3,59.96052197094224,
block,objects,objects053.bmp,,,,,0,74,74,74,,,,,,,,,,,,,,,,,,,,,,,,,,,,,,,,,,,,,,,,,,None,,596.7971773398574,None,596.7971773398574,None,2022-07-13-14:09:44.901982,596.7986915998627,597.1140423999168,596.7986915998627,None,None,596.7986915998627,None,597.6142657398711,None,,,,22010,0002,2022_Jul_13_1359,localizer,2021.1.3,59.96052197094224,
block,objects,objects052.bmp,,,,,0,75,75,75,,,,,,,,,,,,,,,,,,,,,,,,,,,,,,,,,,,,,,,,,,None,,597.6142657398711,None,597.6142657398711,None,2022-07-13-14:09:45.720330,597.6151659998577,597.9302900999319,597.6151659998577,None,None,597.6151659998577,None,598.4149239398073,None,,,,22010,0002,2022_Jul_13_1359,localizer,2021.1.3,59.96052197094224,
block_end,objects,objects012.bmp,,,,,0,76,76,76,,,,,,,,,,,,,,,,,,,,,,,,,,,,,,,,,,,,,,,,,,None,,598.4149239398073,None,598.4149239398073,None,2022-07-13-14:09:46.524767,598.419064299902,598.7316071998794,598.419064299902,598.419064299902,None,598.419064299902,598.419064299902,599.2306177399121,None,,,,22010,0002,2022_Jul_13_1359,localizer,2021.1.3,59.96052197094224,
block_start,scrambled,scrambled019.bmp,,,,,0,77,77,77,,,,,,,,,,,,,,,,,,,,,,,,,,,,,,,,,,,,,,,,,,t,1.8006651001051068,599.2307606998365,None,599.2307606998365,None,2022-07-13-14:09:49.152454,601.0567291998304,601.3642036998644,601.0567291998304,None,None,601.0567291998304,None,601.8643377399537,None,,,,22010,0002,2022_Jul_13_1359,localizer,2021.1.3,59.96052197094224,
block,scrambled,scrambled066.bmp,,,,,0,78,78,78,,,,,,,,,,,,,,,,,,,,,,,,,,,,,,,,,,,,,,,,,,None,,601.8643377399537,None,601.8643377399537,None,2022-07-13-14:09:49.969236,601.8656885998789,602.1647012999747,601.8656885998789,None,None,601.8656885998789,None,602.680742739886,None,,,,22010,0002,2022_Jul_13_1359,localizer,2021.1.3,59.96052197094224,
block,scrambled,scrambled066.bmp,,,,,0,79,79,79,,,,,,,,,,,,,,,,,,,,,,,,,,,,,,,,,,,,,,,,,,None,,602.680742739886,None,602.680742739886,None,2022-07-13-14:09:50.786864,602.6816918998957,602.9810693999752,602.6816918998957,None,None,602.6816918998957,None,603.4808500399347,None,,,,22010,0002,2022_Jul_13_1359,localizer,2021.1.3,59.96052197094224,
block,scrambled,scrambled027.bmp,,,,,0,80,80,80,,,,,,,,,,,,,,,,,,,,,,,,,,,,,,,,,,,,,,,,,,None,,603.4808500399347,None,603.4808500399347,None,2022-07-13-14:09:51.586981,603.4901532998774,603.7999618998729,603.4901532998774,603.4901532998774,None,603.4901532998774,603.4901532998774,604.2977665399201,None,,,,22010,0002,2022_Jul_13_1359,localizer,2021.1.3,59.96052197094224,
block,scrambled,scrambled026.bmp,,,,,0,81,81,81,,,,,,,,,,,,,,,,,,,,,,,,,,,,,,,,,,,,,,,,,,None,,604.2977665399201,None,604.2977665399201,None,2022-07-13-14:09:52.403629,604.3077070999425,604.6140923998319,604.3077070999425,None,None,604.3077070999425,None,605.1034940399229,None,,,,22010,0002,2022_Jul_13_1359,localizer,2021.1.3,59.96052197094224,
block,scrambled,scrambled014.bmp,,,,,0,82,82,82,,,,,,,,,,,,,,,,,,,,,,,,,,,,,,,,,,,,,,,,,,None,,605.1034940399229,None,605.1034940399229,None,2022-07-13-14:09:53.209366,605.107981499983,605.4140682998113,605.107981499983,None,None,605.107981499983,None,605.9147156399674,None,,,,22010,0002,2022_Jul_13_1359,localizer,2021.1.3,59.96052197094224,
block,scrambled,scrambled056.bmp,,,,,0,83,83,83,,,,,,,,,,,,,,,,,,,,,,,,,,,,,,,,,,,,,,,,,,None,,605.9147156399674,None,605.9147156399674,None,2022-07-13-14:09:54.021601,605.9253562998492,606.2307869999204,605.9253562998492,None,None,605.9253562998492,None,606.7310874398797,None,,,,22010,0002,2022_Jul_13_1359,localizer,2021.1.3,59.96052197094224,
block,scrambled,scrambled075.bmp,,,,,0,84,84,84,,,,,,,,,,,,,,,,,,,,,,,,,,,,,,,,,,,,,,,,,,None,,606.7310874398797,None,606.7310874398797,None,2022-07-13-14:09:54.836948,606.7420415999368,607.047257799888,606.7420415999368,None,None,606.7420415999368,None,607.5470954398158,None,,,,22010,0002,2022_Jul_13_1359,localizer,2021.1.3,59.96052197094224,
block,scrambled,scrambled084.bmp,,,,,0,85,85,85,,,,,,,,,,,,,,,,,,,,,,,,,,,,,,,,,,,,,,,,,,None,,607.5470954398158,None,607.5470954398158,None,2022-07-13-14:09:55.651976,607.556705399882,607.8641718998551,607.556705399882,None,None,607.556705399882,None,608.3647926398087,None,,,,22010,0002,2022_Jul_13_1359,localizer,2021.1.3,59.96052197094224,
block,scrambled,scrambled035.bmp,,,,,0,86,86,86,,,,,,,,,,,,,,,,,,,,,,,,,,,,,,,,,,,,,,,,,,None,,608.3647926398087,None,608.3647926398087,None,2022-07-13-14:09:56.472396,608.3662319998257,608.6848426999059,608.3662319998257,None,None,608.3662319998257,None,609.1655129398684,None,,,,22010,0002,2022_Jul_13_1359,localizer,2021.1.3,59.96052197094224,
block,scrambled,scrambled011.bmp,,,,,0,87,87,87,,,,,,,,,,,,,,,,,,,,,,,,,,,,,,,,,,,,,,,,,,None,,609.1655129398684,None,609.1655129398684,None,2022-07-13-14:09:57.277362,609.1708666998893,609.480521999998,609.1708666998893,609.1708666998893,None,609.1708666998893,609.1708666998893,609.9806087398435,None,,,,22010,0002,2022_Jul_13_1359,localizer,2021.1.3,59.96052197094224,
block,scrambled,scrambled063.bmp,,,,,0,88,88,88,,,,,,,,,,,,,,,,,,,,,,,,,,,,,,,,,,,,,,,,,,None,,609.9806087398435,None,609.9806087398435,None,2022-07-13-14:09:58.085483,609.989499299787,610.2974673998542,609.989499299787,None,None,609.989499299787,None,610.7981528399512,None,,,,22010,0002,2022_Jul_13_1359,localizer,2021.1.3,59.96052197094224,
block,scrambled,scrambled057.bmp,,,,,0,89,89,89,,,,,,,,,,,,,,,,,,,,,,,,,,,,,,,,,,,,,,,,,,None,,610.7981528399512,None,610.7981528399512,None,2022-07-13-14:09:58.905004,610.7989328999538,611.0973010999151,610.7989328999538,None,None,610.7989328999538,None,611.5981524399947,None,,,,22010,0002,2022_Jul_13_1359,localizer,2021.1.3,59.96052197094224,
block,scrambled,scrambled018.bmp,,,,,0,90,90,90,,,,,,,,,,,,,,,,,,,,,,,,,,,,,,,,,,,,,,,,,,None,,611.5981524399947,None,611.5981524399947,None,2022-07-13-14:09:59.706993,611.6012150999159,611.913832299877,611.6012150999159,611.6012150999159,None,611.6012150999159,611.6012150999159,612.4036149398423,None,,,,22010,0002,2022_Jul_13_1359,localizer,2021.1.3,59.96052197094224,
block_end,scrambled,scrambled043.bmp,,,,,0,91,91,91,,,,,,,,,,,,,,,,,,,,,,,,,,,,,,,,,,,,,,,,,,None,,612.4036149398423,None,612.4036149398423,None,2022-07-13-14:10:00.518430,612.4106399999,612.714160699863,612.4106399999,612.4106399999,None,612.4106399999,612.4106399999,613.2140668399632,None,,,,22010,0002,2022_Jul_13_1359,localizer,2021.1.3,59.96052197094224,
block_start,faces,faces006.bmp,,,,,0,92,92,92,,,,,,,,,,,,,,,,,,,,,,,,,,,,,,,,,,,,,,,,,,t,1.817326300079003,613.2138047998305,None,613.2138047998305,None,2022-07-13-14:10:03.152460,615.0483831998426,615.3640209999867,615.0483831998426,None,None,615.0483831998426,None,615.8487203400116,None,,,,22010,0002,2022_Jul_13_1359,localizer,2021.1.3,59.96052197094224,
block,faces,faces086.bmp,,,,,0,93,93,93,,,,,,,,,,,,,,,,,,,,,,,,,,,,,,,,,,,,,,,,,,None,,615.8487203400116,None,615.8487203400116,None,2022-07-13-14:10:03.959595,615.8537047000136,616.1643094997853,615.8537047000136,615.8537047000136,None,615.8537047000136,615.8537047000136,616.664313139813,None,,,,22010,0002,2022_Jul_13_1359,localizer,2021.1.3,59.96052197094224,
block,faces,faces083.bmp,,,,,0,94,94,94,,,,,,,,,,,,,,,,,,,,,,,,,,,,,,,,,,,,,,,,,,None,,616.664313139813,None,616.664313139813,None,2022-07-13-14:10:04.770495,616.6651473999955,616.9809071999043,616.6651473999955,None,None,616.6651473999955,None,617.4642520399764,None,,,,22010,0002,2022_Jul_13_1359,localizer,2021.1.3,59.96052197094224,
block,faces,faces030.bmp,,,,,0,95,95,95,,,,,,,,,,,,,,,,,,,,,,,,,,,,,,,,,,,,,,,,,,None,,617.4642520399764,None,617.4642520399764,None,2022-07-13-14:10:05.571148,617.4655575999059,617.7810841999017,617.4655575999059,617.4655575999059,None,617.4655575999059,617.4655575999059,618.2805818398017,None,,,,22010,0002,2022_Jul_13_1359,localizer,2021.1.3,59.96052197094224,
block,faces,faces053.bmp,,,,,0,96,96,96,,,,,,,,,,,,,,,,,,,,,,,,,,,,,,,,,,,,,,,,,,None,,618.2805818398017,None,618.2805818398017,None,2022-07-13-14:10:06.385458,618.2890313998796,618.5974848999176,618.2890313998796,None,None,618.2890313998796,None,619.1045442400034,None,,,,22010,0002,2022_Jul_13_1359,localizer,2021.1.3,59.96052197094224,
block,faces,faces036.bmp,,,,,0,97,97,97,,,,,,,,,,,,,,,,,,,,,,,,,,,,,,,,,,,,,,,,,,None,,619.1045442400034,None,619.1045442400034,None,2022-07-13-14:10:07.216339,619.1111269998364,619.4145329999737,619.1111269998364,None,None,619.1111269998364,None,619.9145568399224,None,,,,22010,0002,2022_Jul_13_1359,localizer,2021.1.3,59.96052197094224,
block,faces,faces063.bmp,,,,,0,98,98,98,,,,,,,,,,,,,,,,,,,,,,,,,,,,,,,,,,,,,,,,,,None,,619.9145568399224,None,619.9145568399224,None,2022-07-13-14:10:08.020418,619.9263811998535,620.2314458999317,619.9263811998535,None,None,619.9263811998535,None,620.7315203398,None,,,,22010,0002,2022_Jul_13_1359,localizer,2021.1.3,59.96052197094224,
block,faces,faces071.bmp,,,,,0,99,99,99,,,,,,,,,,,,,,,,,,,,,,,,,,,,,,,,,,,,,,,,,,None,,620.7315203398,None,620.7315203398,None,2022-07-13-14:10:08.838574,620.7324398998171,621.0474509999622,620.7324398998171,None,None,620.7324398998171,None,621.5477208399213,None,,,,22010,0002,2022_Jul_13_1359,localizer,2021.1.3,59.96052197094224,
block,faces,faces068.bmp,,,,,0,100,100,100,,,,,,,,,,,,,,,,,,,,,,,,,,,,,,,,,,,,,,,,,,None,,621.5477208399213,None,621.5477208399213,None,2022-07-13-14:10:09.653585,621.5485548998695,621.847648399882,621.5485548998695,None,None,621.5485548998695,None,622.3487501400057,None,,,,22010,0002,2022_Jul_13_1359,localizer,2021.1.3,59.96052197094224,
block,faces,faces033.bmp,,,,,0,101,101,101,,,,,,,,,,,,,,,,,,,,,,,,,,,,,,,,,,,,,,,,,,None,,622.3487501400057,None,622.3487501400057,None,2022-07-13-14:10:10.458782,622.3529643998481,622.6646251999773,622.3529643998481,622.3529643998481,None,622.3529643998481,622.3529643998481,623.1644088399596,None,,,,22010,0002,2022_Jul_13_1359,localizer,2021.1.3,59.96052197094224,
block,faces,faces014.bmp,,,,,0,102,102,102,,,,,,,,,,,,,,,,,,,,,,,,,,,,,,,,,,,,,,,,,,None,,623.1644088399596,None,623.1644088399596,None,2022-07-13-14:10:11.270714,623.174252799945,623.4806946997996,623.174252799945,None,None,623.174252799945,None,623.9810808398295,None,,,,22010,0002,2022_Jul_13_1359,localizer,2021.1.3,59.96052197094224,
block,faces,faces039.bmp,,,,,0,103,103,103,,,,,,,,,,,,,,,,,,,,,,,,,,,,,,,,,,,,,,,,,,None,,623.9810808398295,None,623.9810808398295,None,2022-07-13-14:10:12.086943,623.9921209998429,624.2980321999639,623.9921209998429,None,None,623.9921209998429,None,624.7976927398238,None,,,,22010,0002,2022_Jul_13_1359,localizer,2021.1.3,59.96052197094224,
block,faces,faces052.bmp,,,,,0,104,104,104,,,,,,,,,,,,,,,,,,,,,,,,,,,,,,,,,,,,,,,,,,None,,624.7976927398238,None,624.7976927398238,None,2022-07-13-14:10:12.903979,624.7985006999224,625.1140028999653,624.7985006999224,None,None,624.7985006999224,None,625.5975224398542,None,,,,22010,0002,2022_Jul_13_1359,localizer,2021.1.3,59.96052197094224,
block,faces,faces067.bmp,,,,,0,105,105,105,,,,,,,,,,,,,,,,,,,,,,,,,,,,,,,,,,,,,,,,,,None,,625.5975224398542,None,625.5975224398542,None,2022-07-13-14:10:13.705384,625.5988080999814,625.8979692999274,625.5988080999814,625.5988080999814,None,625.5988080999814,625.5988080999814,626.3982019398361,None,,,,22010,0002,2022_Jul_13_1359,localizer,2021.1.3,59.96052197094224,
block_end,faces,faces018.bmp,,,,,0,106,106,106,,,,,,,,,,,,,,,,,,,,,,,,,,,,,,,,,,,,,,,,,,None,,626.3982019398361,None,626.3982019398361,None,2022-07-13-14:10:14.507048,626.4010399999097,626.7147368998267,626.4010399999097,626.4010399999097,None,626.4010399999097,626.4010399999097,627.2142975399736,None,,,,22010,0002,2022_Jul_13_1359,localizer,2021.1.3,59.96052197094224,
block_start,scenes,scenes023.bmp,,,,,0,107,107,107,,,,,,,,,,,,,,,,,,,,,,,,,,,,,,,,,,,,,,,,,,t,1.8156779001001269,627.2142467999365,None,627.2142467999365,None,2022-07-13-14:10:17.152722,629.0486507997848,629.3480884998571,629.0486507997848,None,None,629.0486507997848,None,629.848261740012,None,,,,22010,0002,2022_Jul_13_1359,localizer,2021.1.3,59.96052197094224,
block,scenes,scenes063.bmp,,,,,0,108,108,108,,,,,,,,,,,,,,,,,,,,,,,,,,,,,,,,,,,,,,,,,,None,,629.848261740012,None,629.848261740012,None,2022-07-13-14:10:17.957084,629.8630193998106,630.1641827998683,629.8630193998106,629.8630193998106,None,629.8630193998106,629.8630193998106,630.6648529399652,None,,,,22010,0002,2022_Jul_13_1359,localizer,2021.1.3,59.96052197094224,
block,scenes,scenes017.bmp,,,,,0,109,109,109,,,,,,,,,,,,,,,,,,,,,,,,,,,,,,,,,,,,,,,,,,None,,630.6648529399652,None,630.6648529399652,None,2022-07-13-14:10:18.771707,630.6765828998759,630.9814470999409,630.6765828998759,None,None,630.6765828998759,None,631.4809001399669,None,,,,22010,0002,2022_Jul_13_1359,localizer,2021.1.3,59.96052197094224,
block,scenes,scenes009.bmp,,,,,0,110,110,110,,,,,,,,,,,,,,,,,,,,,,,,,,,,,,,,,,,,,,,,,,None,,631.4809001399669,None,631.4809001399669,None,2022-07-13-14:10:19.585774,631.4892657999881,631.7979364998173,631.4892657999881,None,None,631.4892657999881,None,632.2977590399794,None,,,,22010,0002,2022_Jul_13_1359,localizer,2021.1.3,59.96052197094224,
block,scenes,scenes004.bmp,,,,,0,111,111,111,,,,,,,,,,,,,,,,,,,,,,,,,,,,,,,,,,,,,,,,,,None,,632.2977590399794,None,632.2977590399794,None,2022-07-13-14:10:20.403618,632.3136775998864,632.6143688999582,632.3136775998864,None,None,632.3136775998864,None,633.1142753399442,None,,,,22010,0002,2022_Jul_13_1359,localizer,2021.1.3,59.96052197094224,
block,scenes,scenes008.bmp,,,,,0,112,112,112,,,,,,,,,,,,,,,,,,,,,,,,,,,,,,,,,,,,,,,,,,None,,633.1142753399442,None,633.1142753399442,None,2022-07-13-14:10:21.220147,633.1154741998762,633.4309783999342,633.1154741998762,None,None,633.1154741998762,None,633.9145275398157,None,,,,22010,0002,2022_Jul_13_1359,localizer,2021.1.3,59.96052197094224,
block,scenes,scenes002.bmp,,,,,0,113,113,113,,,,,,,,,,,,,,,,,,,,,,,,,,,,,,,,,,,,,,,,,,None,,633.9145275398157,None,633.9145275398157,None,2022-07-13-14:10:22.021631,633.925415799953,634.2312397998758,633.925415799953,633.925415799953,None,633.925415799953,633.925415799953,634.7307899398263,None,,,,22010,0002,2022_Jul_13_1359,localizer,2021.1.3,59.96052197094224,
block,scenes,scenes019.bmp,,,,,0,114,114,114,,,,,,,,,,,,,,,,,,,,,,,,,,,,,,,,,,,,,,,,,,None,,634.7307899398263,None,634.7307899398263,None,2022-07-13-14:10:22.836658,634.7317789997905,635.030924399849,634.7317789997905,None,None,634.7317789997905,None,635.5316348399035,None,,,,22010,0002,2022_Jul_13_1359,localizer,2021.1.3,59.96052197094224,
block,scenes,scenes020.bmp,,,,,0,115,115,115,,,,,,,,,,,,,,,,,,,,,,,,,,,,,,,,,,,,,,,,,,None,,635.5316348399035,None,635.5316348399035,None,2022-07-13-14:10:23.640484,635.5450573000126,635.8477168998215,635.5450573000126,635.5450573000126,None,635.5450573000126,635.5450573000126,636.347567839967,None,,,,22010,0002,2022_Jul_13_1359,localizer,2021.1.3,59.96052197094224,
block,scenes,scenes032.bmp,,,,,0,116,116,116,,,,,,,,,,,,,,,,,,,,,,,,,,,,,,,,,,,,,,,,,,None,,636.347567839967,None,636.347567839967,None,2022-07-13-14:10:24.453434,636.3581814998761,636.6638382999226,636.3581814998761,None,None,636.3581814998761,None,637.1644760400056,None,,,,22010,0002,2022_Jul_13_1359,localizer,2021.1.3,59.96052197094224,
block,scenes,scenes087.bmp,,,,,0,117,117,117,,,,,,,,,,,,,,,,,,,,,,,,,,,,,,,,,,,,,,,,,,None,,637.1644760400056,None,637.1644760400056,None,2022-07-13-14:10:25.270551,637.1649503000081,637.4644729997963,637.1649503000081,None,None,637.1649503000081,None,637.9642342398408,None,,,,22010,0002,2022_Jul_13_1359,localizer,2021.1.3,59.96052197094224,
block,scenes,scenes052.bmp,,,,,0,118,118,118,,,,,,,,,,,,,,,,,,,,,,,,,,,,,,,,,,,,,,,,,,None,,637.9642342398408,None,637.9642342398408,None,2022-07-13-14:10:26.071102,637.9655445998069,638.2809484999161,637.9655445998069,637.9655445998069,None,637.9655445998069,637.9655445998069,638.7655152398627,None,,,,22010,0002,2022_Jul_13_1359,localizer,2021.1.3,59.96052197094224,
block,scenes,scenes029.bmp,,,,,0,119,119,119,,,,,,,,,,,,,,,,,,,,,,,,,,,,,,,,,,,,,,,,,,None,,638.7655152398627,None,638.7655152398627,None,2022-07-13-14:10:26.876351,638.7829290998634,639.0977995998692,638.7829290998634,638.7829290998634,None,638.7829290998634,638.7829290998634,639.5802340399939,None,,,,22010,0002,2022_Jul_13_1359,localizer,2021.1.3,59.96052197094224,
block,scenes,scenes062.bmp,,,,,0,120,120,120,,,,,,,,,,,,,,,,,,,,,,,,,,,,,,,,,,,,,,,,,,None,,639.5802340399939,None,639.5802340399939,None,2022-07-13-14:10:27.685097,639.5826754998416,639.8807659999002,639.5826754998416,None,None,639.5826754998416,None,640.39811644,None,,,,22010,0002,2022_Jul_13_1359,localizer,2021.1.3,59.96052197094224,
block_end,scenes,scenes064.bmp,,,,,0,121,121,121,,,,,,,,,,,,,,,,,,,,,,,,,,,,,,,,,,,,,,,,,,None,,640.39811644,None,640.39811644,None,2022-07-13-14:10:28.505167,640.4101016998757,640.7146408997942,640.4101016998757,None,None,640.4101016998757,None,641.2143287399783,None,,,,22010,0002,2022_Jul_13_1359,localizer,2021.1.3,59.96052197094224,
null_block,null_block,null_block.bmp,,,,,0,122,122,122,,,,,,,,,,,,,,,,,,,,,,,,,,,,,,,,,,,,,,,,,,t,1.8156342001166195,641.2143275998533,None,641.2143275998533,None,2022-07-13-14:10:31.153811,643.0479477399028,None,643.0479477399028,None,None,643.0479477399028,None,643.0515995000023,None,,,,22010,0002,2022_Jul_13_1359,localizer,2021.1.3,59.96052197094224,
block_start,scenes,scenes004.bmp,,,,,0,123,123,123,,,,,,,,,,,,,,,,,,,,,,,,,,,,,,,,,,,,,,,,,,t,1.9656883999705315,655.0643802999984,None,655.0643802999984,None,2022-07-13-14:10:45.158914,657.0519325998612,657.3642392999027,657.0519325998612,None,None,657.0519325998612,None,657.865618339926,None,,,,22010,0002,2022_Jul_13_1359,localizer,2021.1.3,59.96052197094224,
block,scenes,scenes083.bmp,,,,,0,124,124,124,,,,,,,,,,,,,,,,,,,,,,,,,,,,,,,,,,,,,,,,,,None,,657.865618339926,None,657.865618339926,None,2022-07-13-14:10:45.972464,657.8781377999112,658.1809854998719,657.8781377999112,None,None,657.8781377999112,None,658.6816524399444,None,,,,22010,0002,2022_Jul_13_1359,localizer,2021.1.3,59.96052197094224,
block,scenes,scenes048.bmp,,,,,0,125,125,125,,,,,,,,,,,,,,,,,,,,,,,,,,,,,,,,,,,,,,,,,,None,,658.6816524399444,None,658.6816524399444,None,2022-07-13-14:10:46.789386,658.6831834998447,658.9976380998269,658.6831834998447,None,None,658.6831834998447,None,659.4880381398368,None,,,,22010,0002,2022_Jul_13_1359,localizer,2021.1.3,59.96052197094224,
block,scenes,scenes063.bmp,,,,,0,126,126,126,,,,,,,,,,,,,,,,,,,,,,,,,,,,,,,,,,,,,,,,,,None,,659.4880381398368,None,659.4880381398368,None,2022-07-13-14:10:47.599883,659.4946529997978,659.7975419999566,659.4946529997978,None,None,659.4946529997978,None,660.298435240006,None,,,,22010,0002,2022_Jul_13_1359,localizer,2021.1.3,59.96052197094224,
block,scenes,scenes039.bmp,,,,,0,127,127,127,,,,,,,,,,,,,,,,,,,,,,,,,,,,,,,,,,,,,,,,,,None,,660.298435240006,None,660.298435240006,None,2022-07-13-14:10:48.406351,660.300517699914,660.6149573000148,660.300517699914,None,None,660.300517699914,None,661.114318739809,None,,,,22010,0002,2022_Jul_13_1359,localizer,2021.1.3,59.96052197094224,
block,scenes,scenes013.bmp,,,,,0,128,128,128,,,,,,,,,,,,,,,,,,,,,,,,,,,,,,,,,,,,,,,,,,None,,661.114318739809,None,661.114318739809,None,2022-07-13-14:10:49.219192,661.1189443999901,661.431190499803,661.1189443999901,None,None,661.1189443999901,None,661.931324840011,None,,,,22010,0002,2022_Jul_13_1359,localizer,2021.1.3,59.96052197094224,
block,scenes,scenes030.bmp,,,,,0,129,129,129,,,,,,,,,,,,,,,,,,,,,,,,,,,,,,,,,,,,,,,,,,None,,661.931324840011,None,661.931324840011,None,2022-07-13-14:10:50.037413,661.9420446997974,662.2477028998546,661.9420446997974,None,None,661.9420446997974,None,662.7478398398496,None,,,,22010,0002,2022_Jul_13_1359,localizer,2021.1.3,59.96052197094224,
block,scenes,scenes059.bmp,,,,,0,130,130,130,,,,,,,,,,,,,,,,,,,,,,,,,,,,,,,,,,,,,,,,,,None,,662.7478398398496,None,662.7478398398496,None,2022-07-13-14:10:50.854031,662.7588809998706,663.064325099811,662.7588809998706,None,None,662.7588809998706,None,663.5655378398485,None,,,,22010,0002,2022_Jul_13_1359,localizer,2021.1.3,59.96052197094224,
block,scenes,scenes058.bmp,,,,,0,131,131,131,,,,,,,,,,,,,,,,,,,,,,,,,,,,,,,,,,,,,,,,,,None,,663.5655378398485,None,663.5655378398485,None,2022-07-13-14:10:51.672384,663.5782695999369,663.8810588999186,663.5782695999369,None,None,663.5782695999369,None,664.3810467398259,None,,,,22010,0002,2022_Jul_13_1359,localizer,2021.1.3,59.96052197094224,
block,scenes,scenes058.bmp,,,,,0,132,132,132,,,,,,,,,,,,,,,,,,,,,,,,,,,,,,,,,,,,,,,,,,None,,664.3810467398259,None,664.3810467398259,None,2022-07-13-14:10:52.486912,664.3819887000136,664.6977436000016,664.3819887000136,None,None,664.3819887000136,None,665.1810062399134,None,,,,22010,0002,2022_Jul_13_1359,localizer,2021.1.3,59.96052197094224,
block,scenes,scenes026.bmp,,,,,0,133,133,133,,,,,,,,,,,,,,,,,,,,,,,,,,,,,,,,,,,,,,,,,,None,,665.1810062399134,None,665.1810062399134,None,2022-07-13-14:10:53.288868,665.1931280000135,665.4995230999775,665.1931280000135,665.1931280000135,y,665.1931280000135,665.1931280000135,665.998883139994,None,0.4827048999723047,,,22010,0002,2022_Jul_13_1359,localizer,2021.1.3,59.96052197094224,
block,scenes,scenes038.bmp,,,,,0,134,134,134,,,,,,,,,,,,,,,,,,,,,,,,,,,,,,,,,,,,,,,,,,None,,665.998883139994,None,665.998883139994,None,2022-07-13-14:10:54.106706,666.00123970001,666.3149501997977,666.00123970001,None,None,666.00123970001,None,666.8155555398669,None,,,,22010,0002,2022_Jul_13_1359,localizer,2021.1.3,59.96052197094224,
block,scenes,scenes054.bmp,,,,,0,135,135,135,,,,,,,,,,,,,,,,,,,,,,,,,,,,,,,,,,,,,,,,,,None,,666.8155555398669,None,666.8155555398669,None,2022-07-13-14:10:54.921428,666.8246928998269,667.1310990999918,666.8246928998269,None,None,666.8246928998269,None,667.6313376398291,None,,,,22010,0002,2022_Jul_13_1359,localizer,2021.1.3,59.96052197094224,
block,scenes,scenes057.bmp,,,,,0,136,136,136,,,,,,,,,,,,,,,,,,,,,,,,,,,,,,,,,,,,,,,,,,None,,667.6313376398291,None,667.6313376398291,None,2022-07-13-14:10:55.737231,667.6420612998772,667.947823499795,667.6420612998772,None,None,667.6420612998772,None,668.4475138398818,None,,,,22010,0002,2022_Jul_13_1359,localizer,2021.1.3,59.96052197094224,
block_end,scenes,scenes067.bmp,,,,,0,137,137,137,,,,,,,,,,,,,,,,,,,,,,,,,,,,,,,,,,,,,,,,,,None,,668.4475138398818,None,668.4475138398818,None,2022-07-13-14:10:56.553384,668.4485480999574,668.7477338998578,668.4485480999574,None,None,668.4485480999574,None,669.2478529398329,None,,,,22010,0002,2022_Jul_13_1359,localizer,2021.1.3,59.96052197094224,
block_start,objects,objects046.bmp,,,,,0,138,138,138,,,,,,,,,,,,,,,,,,,,,,,,,,,,,,,,,,,,,,,,,,t,1.7825786999892443,669.2477796999738,None,669.2477796999738,None,2022-07-13-14:10:59.153669,671.0486655000132,671.3478478000034,671.0486655000132,None,None,671.0486655000132,None,671.8480307398829,None,,,,22010,0002,2022_Jul_13_1359,localizer,2021.1.3,59.96052197094224,
block,objects,objects043.bmp,,,,,0,139,139,139,,,,,,,,,,,,,,,,,,,,,,,,,,,,,,,,,,,,,,,,,,None,,671.8480307398829,None,671.8480307398829,None,2022-07-13-14:10:59.955890,671.8497581998818,672.1644725999795,671.8497581998818,671.8497581998818,None,671.8497581998818,671.8497581998818,672.6647610398475,None,,,,22010,0002,2022_Jul_13_1359,localizer,2021.1.3,59.96052197094224,
block,objects,objects012.bmp,,,,,0,140,140,140,,,,,,,,,,,,,,,,,,,,,,,,,,,,,,,,,,,,,,,,,,None,,672.6647610398475,None,672.6647610398475,None,2022-07-13-14:11:00.770621,672.6653461998794,672.9647322997916,672.6653461998794,None,None,672.6653461998794,None,673.4657489398494,None,,,,22010,0002,2022_Jul_13_1359,localizer,2021.1.3,59.96052197094224,
block,objects,objects007.bmp,,,,,0,141,141,141,,,,,,,,,,,,,,,,,,,,,,,,,,,,,,,,,,,,,,,,,,None,,673.4657489398494,None,673.4657489398494,None,2022-07-13-14:11:01.576562,673.4826475998852,673.7979940997902,673.4826475998852,673.4826475998852,None,673.4826475998852,673.4826475998852,674.2811171398032,None,,,,22010,0002,2022_Jul_13_1359,localizer,2021.1.3,59.96052197094224,
block,objects,objects016.bmp,,,,,0,142,142,142,,,,,,,,,,,,,,,,,,,,,,,,,,,,,,,,,,,,,,,,,,None,,674.2811171398032,None,674.2811171398032,None,2022-07-13-14:11:02.385940,674.2813175998162,674.5809927999508,674.2813175998162,None,None,674.2813175998162,None,675.0813044399954,None,,,,22010,0002,2022_Jul_13_1359,localizer,2021.1.3,59.96052197094224,
block,objects,objects013.bmp,,,,,0,143,143,143,,,,,,,,,,,,,,,,,,,,,,,,,,,,,,,,,,,,,,,,,,None,,675.0813044399954,None,675.0813044399954,None,2022-07-13-14:11:03.189162,675.0825592998881,675.382291499991,675.0825592998881,675.0825592998881,None,675.0825592998881,675.0825592998881,675.8818526397924,None,,,,22010,0002,2022_Jul_13_1359,localizer,2021.1.3,59.96052197094224,
block,objects,objects080.bmp,,,,,0,144,144,144,,,,,,,,,,,,,,,,,,,,,,,,,,,,,,,,,,,,,,,,,,None,,675.8818526397924,None,675.8818526397924,None,2022-07-13-14:11:03.990699,675.8849578998052,676.1977411999833,675.8849578998052,675.8849578998052,None,675.8849578998052,675.8849578998052,676.6976107398048,None,,,,22010,0002,2022_Jul_13_1359,localizer,2021.1.3,59.96052197094224,
block,objects,objects024.bmp,,,,,0,145,145,145,,,,,,,,,,,,,,,,,,,,,,,,,,,,,,,,,,,,,,,,,,None,,676.6976107398048,None,676.6976107398048,None,2022-07-13-14:11:04.803465,676.7067787998822,677.0143585999031,676.7067787998822,None,None,676.7067787998822,None,677.503894139966,None,,,,22010,0002,2022_Jul_13_1359,localizer,2021.1.3,59.96052197094224,
block,objects,objects076.bmp,,,,,0,146,146,146,,,,,,,,,,,,,,,,,,,,,,,,,,,,,,,,,,,,,,,,,,None,,677.503894139966,None,677.503894139966,None,2022-07-13-14:11:05.612808,677.5072427999694,677.8167806998827,677.5072427999694,None,None,677.5072427999694,None,678.315749839833,None,,,,22010,0002,2022_Jul_13_1359,localizer,2021.1.3,59.96052197094224,
block,objects,objects050.bmp,,,,,0,147,147,147,,,,,,,,,,,,,,,,,,,,,,,,,,,,,,,,,,,,,,,,,,None,,678.315749839833,None,678.315749839833,None,2022-07-13-14:11:06.422778,678.318028899841,678.6317276000045,678.318028899841,None,None,678.318028899841,None,679.1317825398407,None,,,,22010,0002,2022_Jul_13_1359,localizer,2021.1.3,59.96052197094224,
block,objects,objects056.bmp,,,,,0,148,148,148,,,,,,,,,,,,,,,,,,,,,,,,,,,,,,,,,,,,,,,,,,None,,679.1317825398407,None,679.1317825398407,None,2022-07-13-14:11:07.238636,679.1427970000077,679.4474559999071,679.1427970000077,None,None,679.1427970000077,None,679.9479914397932,None,,,,22010,0002,2022_Jul_13_1359,localizer,2021.1.3,59.96052197094224,
block,objects,objects025.bmp,,,,,0,149,149,149,,,,,,,,,,,,,,,,,,,,,,,,,,,,,,,,,,,,,,,,,,None,,679.9479914397932,None,679.9479914397932,None,2022-07-13-14:11:08.053865,679.9589402999263,680.2647006998304,679.9589402999263,None,None,679.9589402999263,None,680.7648274399805,None,,,,22010,0002,2022_Jul_13_1359,localizer,2021.1.3,59.96052197094224,
block,objects,objects059.bmp,,,,,0,150,150,150,,,,,,,,,,,,,,,,,,,,,,,,,,,,,,,,,,,,,,,,,,None,,680.7648274399805,None,680.7648274399805,None,2022-07-13-14:11:08.870766,680.7655483998824,681.0708207997959,680.7655483998824,None,None,680.7655483998824,None,681.5657966399565,None,,,,22010,0002,2022_Jul_13_1359,localizer,2021.1.3,59.96052197094224,
block,objects,objects001.bmp,,,,,0,151,151,151,,,,,,,,,,,,,,,,,,,,,,,,,,,,,,,,,,,,,,,,,,None,,681.5657966399565,None,681.5657966399565,None,2022-07-13-14:11:09.676614,681.5819342997856,681.8816845999099,681.5819342997856,681.5819342997856,None,681.5819342997856,681.5819342997856,682.3810096398927,None,,,,22010,0002,2022_Jul_13_1359,localizer,2021.1.3,59.96052197094224,
block_end,objects,objects083.bmp,,,,,0,152,152,152,,,,,,,,,,,,,,,,,,,,,,,,,,,,,,,,,,,,,,,,,,None,,682.3810096398927,None,682.3810096398927,None,2022-07-13-14:11:10.487434,682.3822130998597,682.697874299949,682.3822130998597,None,None,682.3822130998597,None,683.1814883399754,None,,,,22010,0002,2022_Jul_13_1359,localizer,2021.1.3,59.96052197094224,
block_start,scrambled,scrambled080.bmp,,,,,0,153,153,153,,,,,,,,,,,,,,,,,,,,,,,,,,,,,,,,,,,,,,,,,,t,1.8492105000186712,683.1812310998794,None,683.1812310998794,None,2022-07-13-14:11:13.153912,685.0490472998936,685.3654830998275,685.0490472998936,None,None,685.0490472998936,None,685.864509239979,None,,,,22010,0002,2022_Jul_13_1359,localizer,2021.1.3,59.96052197094224,
block,scrambled,scrambled043.bmp,,,,,0,154,154,154,,,,,,,,,,,,,,,,,,,,,,,,,,,,,,,,,,,,,,,,,,None,,685.864509239979,None,685.864509239979,None,2022-07-13-14:11:13.969360,685.8661753998604,686.1814183997922,685.8661753998604,None,None,685.8661753998604,None,686.6814573399722,None,,,,22010,0002,2022_Jul_13_1359,localizer,2021.1.3,59.96052197094224,
block,scrambled,scrambled028.bmp,,,,,0,155,155,155,,,,,,,,,,,,,,,,,,,,,,,,,,,,,,,,,,,,,,,,,,None,,686.6814573399722,None,686.6814573399722,None,2022-07-13-14:11:14.787417,686.6914913998917,686.9983661000151,686.6914913998917,None,None,686.6914913998917,None,687.4977118398062,None,,,,22010,0002,2022_Jul_13_1359,localizer,2021.1.3,59.96052197094224,
block,scrambled,scrambled058.bmp,,,,,0,156,156,156,,,,,,,,,,,,,,,,,,,,,,,,,,,,,,,,,,,,,,,,,,None,,687.4977118398062,None,687.4977118398062,None,2022-07-13-14:11:15.603729,687.4990009998437,687.8147263999563,687.4990009998437,None,None,687.4990009998437,None,688.2983766397927,None,,,,22010,0002,2022_Jul_13_1359,localizer,2021.1.3,59.96052197094224,
block,scrambled,scrambled001.bmp,,,,,0,157,157,157,,,,,,,,,,,,,,,,,,,,,,,,,,,,,,,,,,,,,,,,,,None,,688.2983766397927,None,688.2983766397927,None,2022-07-13-14:11:16.407414,688.3014757998753,688.6152671999298,688.3014757998753,688.3014757998753,None,688.3014757998753,688.3014757998753,689.1145401398651,None,,,,22010,0002,2022_Jul_13_1359,localizer,2021.1.3,59.96052197094224,
block,scrambled,scrambled009.bmp,,,,,0,158,158,158,,,,,,,,,,,,,,,,,,,,,,,,,,,,,,,,,,,,,,,,,,None,,689.1145401398651,None,689.1145401398651,None,2022-07-13-14:11:17.220407,689.1230193998199,689.4311849998776,689.1230193998199,None,None,689.1230193998199,None,689.9311200398486,None,,,,22010,0002,2022_Jul_13_1359,localizer,2021.1.3,59.96052197094224,
block,scrambled,scrambled031.bmp,,,,,0,159,159,159,,,,,,,,,,,,,,,,,,,,,,,,,,,,,,,,,,,,,,,,,,None,,689.9311200398486,None,689.9311200398486,None,2022-07-13-14:11:18.036993,689.9321605998557,690.2313312999904,689.9321605998557,None,None,689.9321605998557,None,690.731828339817,None,,,,22010,0002,2022_Jul_13_1359,localizer,2021.1.3,59.96052197094224,
block,scrambled,scrambled024.bmp,,,,,0,160,160,160,,,,,,,,,,,,,,,,,,,,,,,,,,,,,,,,,,,,,,,,,,None,,690.731828339817,None,690.731828339817,None,2022-07-13-14:11:18.840890,690.7348513999023,691.0482121999376,690.7348513999023,690.7348513999023,None,690.7348513999023,690.7348513999023,691.5479509399272,None,,,,22010,0002,2022_Jul_13_1359,localizer,2021.1.3,59.96052197094224,
block,scrambled,scrambled034.bmp,,,,,0,161,161,161,,,,,,,,,,,,,,,,,,,,,,,,,,,,,,,,,,,,,,,,,,None,,691.5479509399272,None,691.5479509399272,None,2022-07-13-14:11:19.653722,691.5572275999002,691.8641131999902,691.5572275999002,None,None,691.5572275999002,None,692.3654143400024,None,,,,22010,0002,2022_Jul_13_1359,localizer,2021.1.3,59.96052197094224,
block,scrambled,scrambled084.bmp,,,,,0,162,162,162,,,,,,,,,,,,,,,,,,,,,,,,,,,,,,,,,,,,,,,,,,None,,692.3654143400024,None,692.3654143400024,None,2022-07-13-14:11:20.473241,692.3682675999589,692.6821016999893,692.3682675999589,None,None,692.3682675999589,None,693.1823596399743,None,,,,22010,0002,2022_Jul_13_1359,localizer,2021.1.3,59.96052197094224,
block,scrambled,scrambled048.bmp,,,,,0,163,163,163,,,,,,,,,,,,,,,,,,,,,,,,,,,,,,,,,,,,,,,,,,None,,693.1823596399743,None,693.1823596399743,None,2022-07-13-14:11:21.289370,693.1846169999335,693.4861987999175,693.1846169999335,None,None,693.1846169999335,None,694.0040213400032,None,,,,22010,0002,2022_Jul_13_1359,localizer,2021.1.3,59.96052197094224,
block,scrambled,scrambled074.bmp,,,,,0,164,164,164,,,,,,,,,,,,,,,,,,,,,,,,,,,,,,,,,,,,,,,,,,None,,694.0040213400032,None,694.0040213400032,None,2022-07-13-14:11:22.117774,694.0210227000061,694.3317691998091,694.0210227000061,None,None,694.0210227000061,None,694.8146235399879,None,,,,22010,0002,2022_Jul_13_1359,localizer,2021.1.3,59.96052197094224,
block,scrambled,scrambled082.bmp,,,,,0,165,165,165,,,,,,,,,,,,,,,,,,,,,,,,,,,,,,,,,,,,,,,,,,None,,694.8146235399879,None,694.8146235399879,None,2022-07-13-14:11:22.920592,694.8156047000084,695.1314224998932,694.8156047000084,None,None,694.8156047000084,None,695.6148227399215,None,,,,22010,0002,2022_Jul_13_1359,localizer,2021.1.3,59.96052197094224,
block,scrambled,scrambled085.bmp,,,,,0,166,166,166,,,,,,,,,,,,,,,,,,,,,,,,,,,,,,,,,,,,,,,,,,None,,695.6148227399215,None,695.6148227399215,None,2022-07-13-14:11:23.722682,695.6271120999008,695.9309078999795,695.6271120999008,695.6271120999008,None,695.6271120999008,695.6271120999008,696.4315062399953,None,,,,22010,0002,2022_Jul_13_1359,localizer,2021.1.3,59.96052197094224,
block_end,scrambled,scrambled068.bmp,,,,,0,167,167,167,,,,,,,,,,,,,,,,,,,,,,,,,,,,,,,,,,,,,,,,,,None,,696.4315062399953,None,696.4315062399953,None,2022-07-13-14:11:24.537370,696.4420001998078,696.7480151997879,696.4420001998078,None,None,696.4420001998078,None,697.2482122398912,None,,,,22010,0002,2022_Jul_13_1359,localizer,2021.1.3,59.96052197094224,
block_start,faces,faces003.bmp,,,,,0,168,168,168,,,,,,,,,,,,,,,,,,,,,,,,,,,,,,,,,,,,,,,,,,t,1.782183500006795,697.2481348998845,None,697.2481348998845,None,2022-07-13-14:11:27.154163,699.0488730999641,699.3480710999575,699.0488730999641,None,None,699.0488730999641,None,699.848185739899,None,,,,22010,0002,2022_Jul_13_1359,localizer,2021.1.3,59.96052197094224,
block,faces,faces008.bmp,,,,,0,169,169,169,,,,,,,,,,,,,,,,,,,,,,,,,,,,,,,,,,,,,,,,,,None,,699.848185739899,None,699.848185739899,None,2022-07-13-14:11:27.955279,699.8612879000138,700.165336499922,699.8612879000138,699.8612879000138,None,699.8612879000138,699.8612879000138,700.6649728398304,None,,,,22010,0002,2022_Jul_13_1359,localizer,2021.1.3,59.96052197094224,
block,faces,faces019.bmp,,,,,0,170,170,170,,,,,,,,,,,,,,,,,,,,,,,,,,,,,,,,,,,,,,,,,,None,,700.6649728398304,None,700.6649728398304,None,2022-07-13-14:11:28.771048,700.6819079997949,700.9821180999279,700.6819079997949,None,None,700.6819079997949,None,701.4812957399524,None,,,,22010,0002,2022_Jul_13_1359,localizer,2021.1.3,59.96052197094224,
block,faces,faces042.bmp,,,,,0,171,171,171,,,,,,,,,,,,,,,,,,,,,,,,,,,,,,,,,,,,,,,,,,None,,701.4812957399524,None,701.4812957399524,None,2022-07-13-14:11:29.587263,701.4826275999658,701.7820505998097,701.4826275999658,None,None,701.4826275999658,None,702.2817714400123,None,,,,22010,0002,2022_Jul_13_1359,localizer,2021.1.3,59.96052197094224,
block,faces,faces045.bmp,,,,,0,172,172,172,,,,,,,,,,,,,,,,,,,,,,,,,,,,,,,,,,,,,,,,,,None,,702.2817714400123,None,702.2817714400123,None,2022-07-13-14:11:30.390601,702.2846981999464,702.597889999859,702.2846981999464,702.2846981999464,None,702.2846981999464,702.2846981999464,703.0979681398719,None,,,,22010,0002,2022_Jul_13_1359,localizer,2021.1.3,59.96052197094224,
block,faces,faces081.bmp,,,,,0,173,173,173,,,,,,,,,,,,,,,,,,,,,,,,,,,,,,,,,,,,,,,,,,None,,703.0979681398719,None,703.0979681398719,None,2022-07-13-14:11:31.203835,703.1087181000039,703.4148034998216,703.1087181000039,None,None,703.1087181000039,None,703.9147484399844,None,,,,22010,0002,2022_Jul_13_1359,localizer,2021.1.3,59.96052197094224,
block,faces,faces012.bmp,,,,,0,174,174,174,,,,,,,,,,,,,,,,,,,,,,,,,,,,,,,,,,,,,,,,,,None,,703.9147484399844,None,703.9147484399844,None,2022-07-13-14:11:32.020613,703.9155814999249,704.231396399904,703.9155814999249,None,None,703.9155814999249,None,704.7147299400065,None,,,,22010,0002,2022_Jul_13_1359,localizer,2021.1.3,59.96052197094224,
block,faces,faces048.bmp,,,,,0,175,175,175,,,,,,,,,,,,,,,,,,,,,,,,,,,,,,,,,,,,,,,,,,None,,704.7147299400065,None,704.7147299400065,None,2022-07-13-14:11:32.822589,704.7161693999078,705.0317404998932,704.7161693999078,704.7161693999078,None,704.7161693999078,704.7161693999078,705.5312358398921,None,,,,22010,0002,2022_Jul_13_1359,localizer,2021.1.3,59.96052197094224,
block,faces,faces056.bmp,,,,,0,176,176,176,,,,,,,,,,,,,,,,,,,,,,,,,,,,,,,,,,,,,,,,,,None,,705.5312358398921,None,705.5312358398921,None,2022-07-13-14:11:33.637205,705.5375300999731,705.8479175998364,705.5375300999731,None,None,705.5375300999731,None,706.3377034398261,None,,,,22010,0002,2022_Jul_13_1359,localizer,2021.1.3,59.96052197094224,
block,faces,faces021.bmp,,,,,0,177,177,177,,,,,,,,,,,,,,,,,,,,,,,,,,,,,,,,,,,,,,,,,,None,,706.3377034398261,None,706.3377034398261,None,2022-07-13-14:11:34.450544,706.3573827999644,706.6645368000027,706.3573827999644,None,None,706.3573827999644,None,707.1485667398199,None,,,,22010,0002,2022_Jul_13_1359,localizer,2021.1.3,59.96052197094224,
block,faces,faces062.bmp,,,,,0,178,178,178,,,,,,,,,,,,,,,,,,,,,,,,,,,,,,,,,,,,,,,,,,None,,707.1485667398199,None,707.1485667398199,None,2022-07-13-14:11:35.254600,707.1602130997926,707.4646448998246,707.1602130997926,None,None,707.1602130997926,None,707.964711039979,None,,,,22010,0002,2022_Jul_13_1359,localizer,2021.1.3,59.96052197094224,
block,faces,faces038.bmp,,,,,0,179,179,179,,,,,,,,,,,,,,,,,,,,,,,,,,,,,,,,,,,,,,,,,,None,,707.964711039979,None,707.964711039979,None,2022-07-13-14:11:36.070576,707.9813657999039,708.2877607999835,707.9813657999039,None,None,707.9813657999039,None,708.7810817399993,None,,,,22010,0002,2022_Jul_13_1359,localizer,2021.1.3,59.96052197094224,
block,faces,faces047.bmp,,,,,0,180,180,180,,,,,,,,,,,,,,,,,,,,,,,,,,,,,,,,,,,,,,,,,,None,,708.7810817399993,None,708.7810817399993,None,2022-07-13-14:11:36.887063,708.7946204999462,709.0981657998636,708.7946204999462,None,None,708.7946204999462,None,709.5991099399514,None,,,,22010,0002,2022_Jul_13_1359,localizer,2021.1.3,59.96052197094224,
block,faces,faces068.bmp,,,,,0,181,181,181,,,,,,,,,,,,,,,,,,,,,,,,,,,,,,,,,,,,,,,,,,None,,709.5991099399514,None,709.5991099399514,None,2022-07-13-14:11:37.706137,709.6015511997975,709.9152245998848,709.6015511997975,None,None,709.6015511997975,None,710.4147736399434,None,,,,22010,0002,2022_Jul_13_1359,localizer,2021.1.3,59.96052197094224,
block_end,faces,faces089.bmp,,,,,0,182,182,182,,,,,,,,,,,,,,,,,,,,,,,,,,,,,,,,,,,,,,,,,,None,,710.4147736399434,None,710.4147736399434,None,2022-07-13-14:11:38.520632,710.4155464000069,710.7152102999389,710.4155464000069,None,None,710.4155464000069,None,711.2156799397897,None,,,,22010,0002,2022_Jul_13_1359,localizer,2021.1.3,59.96052197094224,
block_start,objects,objects064.bmp,,,,,0,183,183,183,,,,,,,,,,,,,,,,,,,,,,,,,,,,,,,,,,,,,,,,,,t,1.8137005001772195,711.2161432998255,None,711.2161432998255,None,2022-07-13-14:11:41.154469,713.049017299898,713.348279299913,713.049017299898,None,None,713.049017299898,None,713.8482600398827,None,,,,22010,0002,2022_Jul_13_1359,localizer,2021.1.3,59.96052197094224,
block,objects,objects082.bmp,,,,,0,184,184,184,,,,,,,,,,,,,,,,,,,,,,,,,,,,,,,,,,,,,,,,,,None,,713.8482600398827,None,713.8482600398827,None,2022-07-13-14:11:41.957319,713.85106359981,714.1650111000054,713.85106359981,713.85106359981,None,713.85106359981,713.85106359981,714.664399039885,None,,,,22010,0002,2022_Jul_13_1359,localizer,2021.1.3,59.96052197094224,
block,objects,objects066.bmp,,,,,0,185,185,185,,,,,,,,,,,,,,,,,,,,,,,,,,,,,,,,,,,,,,,,,,None,,714.664399039885,None,714.664399039885,None,2022-07-13-14:11:42.770186,714.6655649999157,714.9811129998416,714.6655649999157,None,None,714.6655649999157,None,715.4663020399864,None,,,,22010,0002,2022_Jul_13_1359,localizer,2021.1.3,59.96052197094224,
block,objects,objects033.bmp,,,,,0,186,186,186,,,,,,,,,,,,,,,,,,,,,,,,,,,,,,,,,,,,,,,,,,None,,715.4663020399864,None,715.4663020399864,None,2022-07-13-14:11:43.574812,715.4750946999993,715.781532399822,715.4750946999993,715.4750946999993,None,715.4750946999993,715.4750946999993,716.2814446398522,None,,,,22010,0002,2022_Jul_13_1359,localizer,2021.1.3,59.96052197094224,
block,objects,objects047.bmp,,,,,0,187,187,187,,,,,,,,,,,,,,,,,,,,,,,,,,,,,,,,,,,,,,,,,,None,,716.2814446398522,None,716.2814446398522,None,2022-07-13-14:11:44.387310,716.2822356999386,716.5813980000094,716.2822356999386,None,None,716.2822356999386,None,717.0876538399141,None,,,,22010,0002,2022_Jul_13_1359,localizer,2021.1.3,59.96052197094224,
block,objects,objects034.bmp,,,,,0,188,188,188,,,,,,,,,,,,,,,,,,,,,,,,,,,,,,,,,,,,,,,,,,None,,717.0876538399141,None,717.0876538399141,None,2022-07-13-14:11:45.197516,717.092166399816,717.3978717999998,717.092166399816,None,None,717.092166399816,None,717.89881793987,None,,,,22010,0002,2022_Jul_13_1359,localizer,2021.1.3,59.96052197094224,
block,objects,objects056.bmp,,,,,0,189,189,189,,,,,,,,,,,,,,,,,,,,,,,,,,,,,,,,,,,,,,,,,,None,,717.89881793987,None,717.89881793987,None,2022-07-13-14:11:46.006865,717.9013659998309,718.2150926999748,717.9013659998309,None,None,717.9013659998309,None,718.7142306398134,None,,,,22010,0002,2022_Jul_13_1359,localizer,2021.1.3,59.96052197094224,
block,objects,objects053.bmp,,,,,0,190,190,190,,,,,,,,,,,,,,,,,,,,,,,,,,,,,,,,,,,,,,,,,,None,,718.7142306398134,None,718.7142306398134,None,2022-07-13-14:11:46.820372,718.7156862998381,719.031110699987,718.7156862998381,None,None,718.7156862998381,None,719.5310309398453,None,,,,22010,0002,2022_Jul_13_1359,localizer,2021.1.3,59.96052197094224,
block,objects,objects040.bmp,,,,,0,191,191,191,,,,,,,,,,,,,,,,,,,,,,,,,,,,,,,,,,,,,,,,,,None,,719.5310309398453,None,719.5310309398453,None,2022-07-13-14:11:47.635905,719.5393195999786,719.848275499884,719.5393195999786,None,None,719.5393195999786,None,720.347660939861,None,,,,22010,0002,2022_Jul_13_1359,localizer,2021.1.3,59.96052197094224,
block,objects,objects073.bmp,,,,,0,192,192,192,,,,,,,,,,,,,,,,,,,,,,,,,,,,,,,,,,,,,,,,,,None,,720.347660939861,None,720.347660939861,None,2022-07-13-14:11:48.452534,720.3487279999536,720.6644187998027,720.3487279999536,None,None,720.3487279999536,None,721.1485642399173,None,,,,22010,0002,2022_Jul_13_1359,localizer,2021.1.3,59.96052197094224,
block,objects,objects013.bmp,,,,,0,193,193,193,,,,,,,,,,,,,,,,,,,,,,,,,,,,,,,,,,,,,,,,,,None,,721.1485642399173,None,721.1485642399173,None,2022-07-13-14:11:49.256534,721.1493052998558,721.4644001999404,721.1493052998558,721.1493052998558,None,721.1493052998558,721.1493052998558,721.9485605398193,None,,,,22010,0002,2022_Jul_13_1359,localizer,2021.1.3,59.96052197094224,
block,objects,objects035.bmp,,,,,0,194,194,194,,,,,,,,,,,,,,,,,,,,,,,,,,,,,,,,,,,,,,,,,,None,,721.9485605398193,None,721.9485605398193,None,2022-07-13-14:11:50.057586,721.9619153998792,722.2646706998348,721.9619153998792,721.9619153998792,None,721.9619153998792,721.9619153998792,722.764600139996,None,,,,22010,0002,2022_Jul_13_1359,localizer,2021.1.3,59.96052197094224,
block,objects,objects063.bmp,,,,,0,195,195,195,,,,,,,,,,,,,,,,,,,,,,,,,,,,,,,,,,,,,,,,,,None,,722.764600139996,None,722.764600139996,None,2022-07-13-14:11:50.870707,722.7659047998022,723.0660776000004,722.7659047998022,None,None,722.7659047998022,None,723.5814144399017,None,,,,22010,0002,2022_Jul_13_1359,localizer,2021.1.3,59.96052197094224,
block,objects,objects084.bmp,,,,,0,196,196,196,,,,,,,,,,,,,,,,,,,,,,,,,,,,,,,,,,,,,,,,,,None,,723.5814144399017,None,723.5814144399017,None,2022-07-13-14:11:51.687649,723.5822863997892,723.8812998000067,723.5822863997892,None,None,723.5822863997892,None,724.3816657398827,None,,,,22010,0002,2022_Jul_13_1359,localizer,2021.1.3,59.96052197094224,
block_end,objects,objects030.bmp,,,,,0,197,197,197,,,,,,,,,,,,,,,,,,,,,,,,,,,,,,,,,,,,,,,,,,None,,724.3816657398827,None,724.3816657398827,None,2022-07-13-14:11:52.489524,724.3834096998908,724.6980576999485,724.3834096998908,724.3834096998908,None,724.3834096998908,724.3834096998908,725.1982231398113,None,,,,22010,0002,2022_Jul_13_1359,localizer,2021.1.3,59.96052197094224,
block_start,scrambled,scrambled052.bmp,,,,,0,198,198,198,,,,,,,,,,,,,,,,,,,,,,,,,,,,,,,,,,,,,,,,,,t,1.8318352000787854,725.1982133998536,None,725.1982133998536,None,2022-07-13-14:11:55.158284,727.0539451998193,727.3646075997967,727.0539451998193,None,None,727.0539451998193,None,727.8645992399659,None,,,,22010,0002,2022_Jul_13_1359,localizer,2021.1.3,59.96052197094224,
block,scrambled,scrambled058.bmp,,,,,0,199,199,199,,,,,,,,,,,,,,,,,,,,,,,,,,,,,,,,,,,,,,,,,,None,,727.8645992399659,None,727.8645992399659,None,2022-07-13-14:11:55.970468,727.8654551999643,728.1646812998224,727.8654551999643,None,None,727.8654551999643,None,728.6658914398402,None,,,,22010,0002,2022_Jul_13_1359,localizer,2021.1.3,59.96052197094224,
block,scrambled,scrambled007.bmp,,,,,0,200,200,200,,,,,,,,,,,,,,,,,,,,,,,,,,,,,,,,,,,,,,,,,,None,,728.6658914398402,None,728.6658914398402,None,2022-07-13-14:11:56.774916,728.6702273997944,728.9814015999436,728.6702273997944,728.6702273997944,None,728.6702273997944,728.6702273997944,729.481066539837,None,,,,22010,0002,2022_Jul_13_1359,localizer,2021.1.3,59.96052197094224,
block,scrambled,scrambled047.bmp,,,,,0,201,201,201,,,,,,,,,,,,,,,,,,,,,,,,,,,,,,,,,,,,,,,,,,None,,729.481066539837,None,729.481066539837,None,2022-07-13-14:11:57.586932,729.4823849999812,729.7820115999784,729.4823849999812,None,None,729.4823849999812,None,730.2814007398672,None,,,,22010,0002,2022_Jul_13_1359,localizer,2021.1.3,59.96052197094224,
block,scrambled,scrambled064.bmp,,,,,0,202,202,202,,,,,,,,,,,,,,,,,,,,,,,,,,,,,,,,,,,,,,,,,,None,,730.2814007398672,None,730.2814007398672,None,2022-07-13-14:11:58.389258,730.2934866999276,730.6043521999381,730.2934866999276,730.2934866999276,None,730.2934866999276,730.2934866999276,731.0976281398441,None,,,,22010,0002,2022_Jul_13_1359,localizer,2021.1.3,59.96052197094224,
block,scrambled,scrambled024.bmp,,,,,0,203,203,203,,,,,,,,,,,,,,,,,,,,,,,,,,,,,,,,,,,,,,,,,,None,,731.0976281398441,None,731.0976281398441,None,2022-07-13-14:11:59.202502,731.0991430999711,731.41471549985,731.0991430999711,None,None,731.0991430999711,None,731.9154091400094,None,,,,22010,0002,2022_Jul_13_1359,localizer,2021.1.3,59.96052197094224,
block,scrambled,scrambled071.bmp,,,,,0,204,204,204,,,,,,,,,,,,,,,,,,,,,,,,,,,,,,,,,,,,,,,,,,None,,731.9154091400094,None,731.9154091400094,None,2022-07-13-14:12:00.021472,731.9198354999535,732.2313208999112,731.9198354999535,None,y,731.9198354999535,None,732.732561539812,None,0.7209765000734478,,,22010,0002,2022_Jul_13_1359,localizer,2021.1.3,59.96052197094224,
block,scrambled,scrambled030.bmp,,,,,0,205,205,205,,,,,,,,,,,,,,,,,,,,,,,,,,,,,,,,,,,,,,,,,,None,,732.732561539812,None,732.732561539812,None,2022-07-13-14:12:00.840495,732.74123519985,733.0478238000069,732.74123519985,None,None,732.74123519985,None,733.5491830398794,None,,,,22010,0002,2022_Jul_13_1359,localizer,2021.1.3,59.96052197094224,
block,scrambled,scrambled014.bmp,,,,,0,206,206,206,,,,,,,,,,,,,,,,,,,,,,,,,,,,,,,,,,,,,,,,,,None,,733.5491830398794,None,733.5491830398794,None,2022-07-13-14:12:01.656218,733.551492099883,733.8647904999088,733.551492099883,None,None,733.551492099883,None,734.3646509400103,None,,,,22010,0002,2022_Jul_13_1359,localizer,2021.1.3,59.96052197094224,
block,scrambled,scrambled025.bmp,,,,,0,207,207,207,,,,,,,,,,,,,,,,,,,,,,,,,,,,,,,,,,,,,,,,,,None,,734.3646509400103,None,734.3646509400103,None,2022-07-13-14:12:02.470520,734.3657584998291,734.6815500999801,734.3657584998291,None,None,734.3657584998291,None,735.1658535399008,None,,,,22010,0002,2022_Jul_13_1359,localizer,2021.1.3,59.96052197094224,
block,scrambled,scrambled002.bmp,,,,,0,208,208,208,,,,,,,,,,,,,,,,,,,,,,,,,,,,,,,,,,,,,,,,,,None,,735.1658535399008,None,735.1658535399008,None,2022-07-13-14:12:03.276766,735.1712946998887,735.481373099843,735.1712946998887,735.1712946998887,None,735.1712946998887,735.1712946998887,735.9813405398279,None,,,,22010,0002,2022_Jul_13_1359,localizer,2021.1.3,59.96052197094224,
block,scrambled,scrambled051.bmp,,,,,0,209,209,209,,,,,,,,,,,,,,,,,,,,,,,,,,,,,,,,,,,,,,,,,,None,,735.9813405398279,None,735.9813405398279,None,2022-07-13-14:12:04.087209,735.9908521999605,736.2979587998707,735.9908521999605,None,None,735.9908521999605,None,736.7987629398237,None,,,,22010,0002,2022_Jul_13_1359,localizer,2021.1.3,59.96052197094224,
block,scrambled,scrambled079.bmp,,,,,0,210,210,210,,,,,,,,,,,,,,,,,,,,,,,,,,,,,,,,,,,,,,,,,,None,,736.7987629398237,None,736.7987629398237,None,2022-07-13-14:12:04.906715,736.800892099971,737.114819200011,736.800892099971,None,None,736.800892099971,None,737.6150613398756,None,,,,22010,0002,2022_Jul_13_1359,localizer,2021.1.3,59.96052197094224,
block,scrambled,scrambled057.bmp,,,,,0,211,211,211,,,,,,,,,,,,,,,,,,,,,,,,,,,,,,,,,,,,,,,,,,None,,737.6150613398756,None,737.6150613398756,None,2022-07-13-14:12:05.721046,737.6157634998672,737.9315562997945,737.6157634998672,None,None,737.6157634998672,None,738.4150379399769,None,,,,22010,0002,2022_Jul_13_1359,localizer,2021.1.3,59.96052197094224,
block_end,scrambled,scrambled041.bmp,,,,,0,212,212,212,,,,,,,,,,,,,,,,,,,,,,,,,,,,,,,,,,,,,,,,,,None,,738.4150379399769,None,738.4150379399769,None,2022-07-13-14:12:06.523872,738.4179533999413,738.7167677998077,738.4179533999413,738.4179533999413,None,738.4179533999413,738.4179533999413,739.2315213398076,None,,,,22010,0002,2022_Jul_13_1359,localizer,2021.1.3,59.96052197094224,
block_start,scenes,scenes041.bmp,,,,,0,213,213,213,,,,,,,,,,,,,,,,,,,,,,,,,,,,,,,,,,,,,,,,,,t,1.7986693000420928,739.2314649999607,None,739.2314649999607,None,2022-07-13-14:12:09.154418,741.0488465998787,741.3479281999171,741.0488465998787,None,None,741.0488465998787,None,741.8482463398948,None,,,,22010,0002,2022_Jul_13_1359,localizer,2021.1.3,59.96052197094224,
block,scenes,scenes023.bmp,,,,,0,214,214,214,,,,,,,,,,,,,,,,,,,,,,,,,,,,,,,,,,,,,,,,,,None,,741.8482463398948,None,741.8482463398948,None,2022-07-13-14:12:09.956107,741.8495779999066,742.1649656998925,741.8495779999066,741.8495779999066,None,741.8495779999066,741.8495779999066,742.664702139981,None,,,,22010,0002,2022_Jul_13_1359,localizer,2021.1.3,59.96052197094224,
block,scenes,scenes079.bmp,,,,,0,215,215,215,,,,,,,,,,,,,,,,,,,,,,,,,,,,,,,,,,,,,,,,,,None,,742.664702139981,None,742.664702139981,None,2022-07-13-14:12:10.771184,742.6656145998277,742.9711260998156,742.6656145998277,None,None,742.6656145998277,None,743.4647086399607,None,,,,22010,0002,2022_Jul_13_1359,localizer,2021.1.3,59.96052197094224,
block,scenes,scenes088.bmp,,,,,0,216,216,216,,,,,,,,,,,,,,,,,,,,,,,,,,,,,,,,,,,,,,,,,,None,,743.4647086399607,None,743.4647086399607,None,2022-07-13-14:12:11.571511,743.4660770997871,743.7650888999924,743.4660770997871,743.4660770997871,None,743.4660770997871,743.4660770997871,744.2814693399239,None,,,,22010,0002,2022_Jul_13_1359,localizer,2021.1.3,59.96052197094224,
block,scenes,scenes086.bmp,,,,,0,217,217,217,,,,,,,,,,,,,,,,,,,,,,,,,,,,,,,,,,,,,,,,,,None,,744.2814693399239,None,744.2814693399239,None,2022-07-13-14:12:12.387336,744.2821946998592,744.5815680997912,744.2821946998592,None,None,744.2821946998592,None,745.081431739917,None,,,,22010,0002,2022_Jul_13_1359,localizer,2021.1.3,59.96052197094224,
block,scenes,scenes044.bmp,,,,,0,218,218,218,,,,,,,,,,,,,,,,,,,,,,,,,,,,,,,,,,,,,,,,,,None,,745.081431739917,None,745.081431739917,None,2022-07-13-14:12:13.189522,745.0936213999521,745.3981987999287,745.0936213999521,745.0936213999521,None,745.0936213999521,745.0936213999521,745.899322539987,None,,,,22010,0002,2022_Jul_13_1359,localizer,2021.1.3,59.96052197094224,
block,scenes,scenes003.bmp,,,,,0,219,219,219,,,,,,,,,,,,,,,,,,,,,,,,,,,,,,,,,,,,,,,,,,None,,745.899322539987,None,745.899322539987,None,2022-07-13-14:12:14.007231,745.9017019998282,746.2156773000024,745.9017019998282,None,None,745.9017019998282,None,746.7150537399109,None,,,,22010,0002,2022_Jul_13_1359,localizer,2021.1.3,59.96052197094224,
block,scenes,scenes008.bmp,,,,,0,220,220,220,,,,,,,,,,,,,,,,,,,,,,,,,,,,,,,,,,,,,,,,,,None,,746.7150537399109,None,746.7150537399109,None,2022-07-13-14:12:14.821146,746.715818699915,747.0150802999269,746.715818699915,None,None,746.715818699915,None,747.5313612399157,None,,,,22010,0002,2022_Jul_13_1359,localizer,2021.1.3,59.96052197094224,
block,scenes,scenes047.bmp,,,,,0,221,221,221,,,,,,,,,,,,,,,,,,,,,,,,,,,,,,,,,,,,,,,,,,None,,747.5313612399157,None,747.5313612399157,None,2022-07-13-14:12:15.637466,747.5321947999764,747.8315969998948,747.5321947999764,None,None,747.5321947999764,None,748.3317726398352,None,,,,22010,0002,2022_Jul_13_1359,localizer,2021.1.3,59.96052197094224,
block,scenes,scenes015.bmp,,,,,0,222,222,222,,,,,,,,,,,,,,,,,,,,,,,,,,,,,,,,,,,,,,,,,,None,,748.3317726398352,None,748.3317726398352,None,2022-07-13-14:12:16.439764,748.3455252000131,748.6483985998202,748.3455252000131,748.3455252000131,None,748.3455252000131,748.3455252000131,749.1501409399323,None,,,,22010,0002,2022_Jul_13_1359,localizer,2021.1.3,59.96052197094224,
block,scenes,scenes048.bmp,,,,,0,223,223,223,,,,,,,,,,,,,,,,,,,,,,,,,,,,,,,,,,,,,,,,,,None,,749.1501409399323,None,749.1501409399323,None,2022-07-13-14:12:17.259149,749.1541559000034,749.4646788998507,749.1541559000034,None,None,749.1541559000034,None,749.9654249399434,None,,,,22010,0002,2022_Jul_13_1359,localizer,2021.1.3,59.96052197094224,
block,scenes,scenes030.bmp,,,,,0,224,224,224,,,,,,,,,,,,,,,,,,,,,,,,,,,,,,,,,,,,,,,,,,None,,749.9654249399434,None,749.9654249399434,None,2022-07-13-14:12:18.073178,749.9669806999154,750.282187699806,749.9669806999154,None,None,749.9669806999154,None,750.7822789398022,None,,,,22010,0002,2022_Jul_13_1359,localizer,2021.1.3,59.96052197094224,
block,scenes,scenes076.bmp,,,,,0,225,225,225,,,,,,,,,,,,,,,,,,,,,,,,,,,,,,,,,,,,,,,,,,None,,750.7822789398022,None,750.7822789398022,None,2022-07-13-14:12:18.889320,750.7829886998516,751.0811526000034,750.7829886998516,None,None,750.7829886998516,None,751.5984102398622,None,,,,22010,0002,2022_Jul_13_1359,localizer,2021.1.3,59.96052197094224,
block,scenes,scenes055.bmp,,,,,0,226,226,226,,,,,,,,,,,,,,,,,,,,,,,,,,,,,,,,,,,,,,,,,,None,,751.5984102398622,None,751.5984102398622,None,2022-07-13-14:12:19.704491,751.5991406999528,751.8983712999616,751.5991406999528,None,None,751.5991406999528,None,752.4044551399536,None,,,,22010,0002,2022_Jul_13_1359,localizer,2021.1.3,59.96052197094224,
block_end,scenes,scenes081.bmp,,,,,0,227,227,227,,,,,,,,,,,,,,,,,,,,,,,,,,,,,,,,,,,,,,,,,,None,,752.4044551399536,None,752.4044551399536,None,2022-07-13-14:12:20.518193,752.4105693998281,752.7147837998345,752.4105693998281,None,None,752.4105693998281,None,753.2149206399451,None,,,,22010,0002,2022_Jul_13_1359,localizer,2021.1.3,59.96052197094224,
null_block,null_block,null_block.bmp,,,,,0,228,228,228,,,,,,,,,,,,,,,,,,,,,,,,,,,,,,,,,,,,,,,,,,t,1.814942100085318,753.2148517998867,None,753.2148517998867,None,2022-07-13-14:12:23.155556,755.0487200398463,None,755.0487200398463,None,None,755.0487200398463,None,755.05318789999,None,,,,22010,0002,2022_Jul_13_1359,localizer,2021.1.3,59.96052197094224,
block_start,faces,faces059.bmp,,,,,0,229,229,229,,,,,,,,,,,,,,,,,,,,,,,,,,,,,,,,,,,,,,,,,,t,1.9636165001429617,767.0651811999269,None,767.0651811999269,None,2022-07-13-14:12:37.155036,769.049369999906,769.3482802999206,769.049369999906,None,None,769.049369999906,None,769.8651685399934,None,,,,22010,0002,2022_Jul_13_1359,localizer,2021.1.3,59.96052197094224,
block,faces,faces080.bmp,,,,,0,230,230,230,,,,,,,,,,,,,,,,,,,,,,,,,,,,,,,,,,,,,,,,,,None,,769.8651685399934,None,769.8651685399934,None,2022-07-13-14:12:37.971034,769.8671470999252,770.1817901998293,769.8671470999252,None,None,769.8671470999252,None,770.6817979400046,None,,,,22010,0002,2022_Jul_13_1359,localizer,2021.1.3,59.96052197094224,
block,faces,faces039.bmp,,,,,0,231,231,231,,,,,,,,,,,,,,,,,,,,,,,,,,,,,,,,,,,,,,,,,,None,,770.6817979400046,None,770.6817979400046,None,2022-07-13-14:12:38.787661,770.683083599899,770.9981336998753,770.683083599899,None,None,770.683083599899,None,771.4983488400001,None,,,,22010,0002,2022_Jul_13_1359,localizer,2021.1.3,59.96052197094224,
block,faces,faces025.bmp,,,,,0,232,232,232,,,,,,,,,,,,,,,,,,,,,,,,,,,,,,,,,,,,,,,,,,None,,771.4983488400001,None,771.4983488400001,None,2022-07-13-14:12:39.604589,771.4991456000134,771.8147657997906,771.4991456000134,None,None,771.4991456000134,None,772.3147704398259,None,,,,22010,0002,2022_Jul_13_1359,localizer,2021.1.3,59.96052197094224,
block,faces,faces087.bmp,,,,,0,233,233,233,,,,,,,,,,,,,,,,,,,,,,,,,,,,,,,,,,,,,,,,,,None,,772.3147704398259,None,772.3147704398259,None,2022-07-13-14:12:40.420640,772.3225258998573,772.631561699789,772.3225258998573,None,None,772.3225258998573,None,773.1213198399171,None,,,,22010,0002,2022_Jul_13_1359,localizer,2021.1.3,59.96052197094224,
block,faces,faces013.bmp,,,,,0,234,234,234,,,,,,,,,,,,,,,,,,,,,,,,,,,,,,,,,,,,,,,,,,None,,773.1213198399171,None,773.1213198399171,None,2022-07-13-14:12:41.233011,773.1276023997925,773.4320106999949,773.1276023997925,None,None,773.1276023997925,None,773.9318492398131,None,,,,22010,0002,2022_Jul_13_1359,localizer,2021.1.3,59.96052197094224,
block,faces,faces013.bmp,,,,,0,235,235,235,,,,,,,,,,,,,,,,,,,,,,,,,,,,,,,,,,,,,,,,,,None,,773.9318492398131,None,773.9318492398131,None,2022-07-13-14:12:42.038170,773.9323916998692,774.2317603998818,773.9323916998692,None,y,773.9323916998692,None,774.7314780398272,None,0.6291326999198645,,,22010,0002,2022_Jul_13_1359,localizer,2021.1.3,59.96052197094224,
block,faces,faces077.bmp,,,,,0,236,236,236,,,,,,,,,,,,,,,,,,,,,,,,,,,,,,,,,,,,,,,,,,None,,774.7314780398272,None,774.7314780398272,None,2022-07-13-14:12:42.838344,774.7323865999933,775.0317217998672,774.7323865999933,774.7323865999933,None,774.7323865999933,774.7323865999933,775.5314623398706,None,,,,22010,0002,2022_Jul_13_1359,localizer,2021.1.3,59.96052197094224,
block,faces,faces044.bmp,,,,,0,237,237,237,,,,,,,,,,,,,,,,,,,,,,,,,,,,,,,,,,,,,,,,,,None,,775.5314623398706,None,775.5314623398706,None,2022-07-13-14:12:43.639327,775.5426330999471,775.8484738999978,775.5426330999471,775.5426330999471,None,775.5426330999471,775.5426330999471,776.3484174399171,None,,,,22010,0002,2022_Jul_13_1359,localizer,2021.1.3,59.96052197094224,
block,faces,faces003.bmp,,,,,0,238,238,238,,,,,,,,,,,,,,,,,,,,,,,,,,,,,,,,,,,,,,,,,,None,,776.3484174399171,None,776.3484174399171,None,2022-07-13-14:12:44.454282,776.3492741999216,776.6484077998903,776.3492741999216,None,None,776.3492741999216,None,777.1484463398344,None,,,,22010,0002,2022_Jul_13_1359,localizer,2021.1.3,59.96052197094224,
block,faces,faces022.bmp,,,,,0,239,239,239,,,,,,,,,,,,,,,,,,,,,,,,,,,,,,,,,,,,,,,,,,None,,777.1484463398344,None,777.1484463398344,None,2022-07-13-14:12:45.256537,777.1504863000009,777.4652024998795,777.1504863000009,777.1504863000009,None,777.1504863000009,777.1504863000009,777.9652648400049,None,,,,22010,0002,2022_Jul_13_1359,localizer,2021.1.3,59.96052197094224,
block,faces,faces085.bmp,,,,,0,240,240,240,,,,,,,,,,,,,,,,,,,,,,,,,,,,,,,,,,,,,,,,,,None,,777.9652648400049,None,777.9652648400049,None,2022-07-13-14:12:46.071128,777.9750738998409,778.2817194999661,777.9750738998409,None,None,777.9750738998409,None,778.7828351398464,None,,,,22010,0002,2022_Jul_13_1359,localizer,2021.1.3,59.96052197094224,
block,faces,faces081.bmp,,,,,0,241,241,241,,,,,,,,,,,,,,,,,,,,,,,,,,,,,,,,,,,,,,,,,,None,,778.7828351398464,None,778.7828351398464,None,2022-07-13-14:12:46.887942,778.7827619998716,779.0983874998055,778.7827619998716,None,None,778.7827619998716,None,779.5828213397879,None,,,,22010,0002,2022_Jul_13_1359,localizer,2021.1.3,59.96052197094224,
block,faces,faces060.bmp,,,,,0,242,242,242,,,,,,,,,,,,,,,,,,,,,,,,,,,,,,,,,,,,,,,,,,None,,779.5828213397879,None,779.5828213397879,None,2022-07-13-14:12:47.693857,779.5881854998879,779.8982818999793,779.5881854998879,779.5881854998879,None,779.5881854998879,779.5881854998879,780.398151139915,None,,,,22010,0002,2022_Jul_13_1359,localizer,2021.1.3,59.96052197094224,
block_end,faces,faces052.bmp,,,,,0,243,243,243,,,,,,,,,,,,,,,,,,,,,,,,,,,,,,,,,,,,,,,,,,None,,780.398151139915,None,780.398151139915,None,2022-07-13-14:12:48.504291,780.3994257999584,780.7147469997872,780.3994257999584,None,None,780.3994257999584,None,781.1985500398557,None,,,,22010,0002,2022_Jul_13_1359,localizer,2021.1.3,59.96052197094224,
,,,,,,,,,,,,,,,,,,,,,,,,,,,,,,,,,,,,,,,,,,,,,,,,,,,,,,,,,,,,,,,,,,,,,781.1998644999694,None,,,,,,,
