block_type,condition,img_name,Button.thisRepN,Button.thisTrialN,Button.thisN,Button.thisIndex,trials.thisRepN,trials.thisTrialN,trials.thisN,trials.thisIndex,Ready_experimenter_text.started,Ready_experimenter_text.stopped,Ready_experimenter_resp.keys,Ready_experimenter_resp.rt,Ready_experimenter_resp.started,Ready_experimenter_resp.stopped,Alignment_background.started,Alignment_background.stopped,Alignment_image.started,Alignment_image.stopped,Alignment_resp.keys,Alignment_resp.rt,Alignment_resp.started,Alignment_resp.stopped,Button_text.started,Button_text.stopped,Index_text.started,Index_text.stopped,Index_resp.keys,Index_resp.rt,Index_resp.started,Index_resp.stopped,Middle_text.started,Middle_text.stopped,Middle_resp.keys,Middle_resp.rt,Middle_resp.started,Middle_resp.stopped,Repeat_text.started,Repeat_text.stopped,Repeat_resp.keys,Repeat_resp.corr,Repeat_resp.rt,Repeat_resp.started,Repeat_resp.stopped,instruction_text.started,instruction_text.stopped,key_resp.keys,key_resp.rt,key_resp.started,key_resp.stopped,scanner_t.keys,scanner_t.rt,scanner_t.started,scanner_t.stopped,fixation_wait_for_t.started,fixation_wait_for_t.stopped,real_timestamp_trial_start,image.started,image.stopped,fixation.started,fixation.stopped,repeat_response.keys,repeat_response.started,repeat_response.stopped,fixation_null.started,fixation_null.stopped,repeat_response.rt,end_text.started,end_text.stopped,participant,run,date,expName,psychopyVersion,frameRate,
,,,,,,,,,,,13.383560399990529,None,return,416.2250716999406,13.383560399990529,None,,,,,,,,,,,,,,,,,,,,,,,,,,,,,,,,,,,,,,,,,,,,,,,,,,,,,,,11011,0002,2022_Mar_03_1422,localizer,2021.1.3,60.00409229628445,
,,,,,,,,,,,,,,,,,429.64895689999685,None,429.64895689999685,None,return,1.8023727999534458,429.64895689999685,None,,,,,,,,,,,,,,,,,,,,,,,,,,,,,,,,,,,,,,,,,,,,,,,11011,0002,2022_Mar_03_1422,localizer,2021.1.3,60.00409229628445,
,,,0,0,0,0,,,,,,,,,,,,,,,,,,,431.46438280004077,None,432.4854219999397,None,y,1.124635799904354,432.4854219999397,None,433.6304574999958,None,b,0.8227099999785423,433.6304574999958,None,434.4806149000069,None,n,0,24.323774000047706,434.4806149000069,None,,,,,,,,,,,,,,,,,,,,,,,,,,11011,0002,2022_Mar_03_1422,localizer,2021.1.3,60.00409229628445,
,,,,,,,,,,,,,,,,,,,,,,,,,,,,,,,,,,,,,,,,,,,,,,458.83127309998963,None,y,7.307838500011712,458.83127309998963,None,,,,,,,,,,,,,,,,,,,,11011,0002,2022_Mar_03_1422,localizer,2021.1.3,60.00409229628445,
block_start,objects,objects033.bmp,,,,,0,0,0,0,,,,,,,,,,,,,,,,,,,,,,,,,,,,,,,,,,,,,,,,,,t,16.72196019999683,466.18908589996863,None,466.18908589996863,None,2022-03-03-14:30:43.904431,482.93272189993877,483.2470134999603,482.93272189993877,None,None,482.93272189993877,None,483.747126570018,None,,,,11011,0002,2022_Mar_03_1422,localizer,2021.1.3,60.00409229628445,
block,objects,objects083.bmp,,,,,0,1,1,1,,,,,,,,,,,,,,,,,,,,,,,,,,,,,,,,,,,,,,,,,,None,,483.747126570018,None,483.747126570018,None,2022-03-03-14:30:44.721810,483.76015390001703,484.0635697999969,483.76015390001703,None,None,483.76015390001703,None,484.56360556993167,None,,,,11011,0002,2022_Mar_03_1422,localizer,2021.1.3,60.00409229628445,
block,objects,objects077.bmp,,,,,0,2,2,2,,,,,,,,,,,,,,,,,,,,,,,,,,,,,,,,,,,,,,,,,,None,,484.56360556993167,None,484.56360556993167,None,2022-03-03-14:30:45.537320,484.56447500002105,484.8801902999403,484.56447500002105,None,None,484.56447500002105,None,485.38030266999266,None,,,,11011,0002,2022_Mar_03_1422,localizer,2021.1.3,60.00409229628445,
block,objects,objects082.bmp,,,,,0,3,3,3,,,,,,,,,,,,,,,,,,,,,,,,,,,,,,,,,,,,,,,,,,None,,485.38030266999266,None,485.38030266999266,None,2022-03-03-14:30:46.353990,485.38116919994354,485.68017399997916,485.38116919994354,None,None,485.38116919994354,None,486.18051966994534,None,,,,11011,0002,2022_Mar_03_1422,localizer,2021.1.3,60.00409229628445,
block,objects,objects076.bmp,,,,,0,4,4,4,,,,,,,,,,,,,,,,,,,,,,,,,,,,,,,,,,,,,,,,,,None,,486.18051966994534,None,486.18051966994534,None,2022-03-03-14:30:47.156193,486.18160609994084,486.4968562000431,486.18160609994084,486.18160609994084,None,486.18160609994084,486.18160609994084,486.9968929699855,None,,,,11011,0002,2022_Mar_03_1422,localizer,2021.1.3,60.00409229628445,
block,objects,objects040.bmp,,,,,0,5,5,5,,,,,,,,,,,,,,,,,,,,,,,,,,,,,,,,,,,,,,,,,,None,,486.9968929699855,None,486.9968929699855,None,2022-03-03-14:30:47.970838,487.0061739999801,487.3136783000082,487.0061739999801,None,None,487.0061739999801,None,487.81357536993454,None,,,,11011,0002,2022_Mar_03_1422,localizer,2021.1.3,60.00409229628445,
block,objects,objects087.bmp,,,,,0,6,6,6,,,,,,,,,,,,,,,,,,,,,,,,,,,,,,,,,,,,,,,,,,None,,487.81357536993454,None,487.81357536993454,None,2022-03-03-14:30:48.787308,487.8216773000313,488.13060179993045,487.8216773000313,None,None,487.8216773000313,None,488.6310652699787,None,,,,11011,0002,2022_Mar_03_1422,localizer,2021.1.3,60.00409229628445,
block,objects,objects044.bmp,,,,,0,7,7,7,,,,,,,,,,,,,,,,,,,,,,,,,,,,,,,,,,,,,,,,,,None,,488.6310652699787,None,488.6310652699787,None,2022-03-03-14:30:49.605717,488.6416481999913,488.9467564999359,488.6416481999913,None,None,488.6416481999913,None,489.4469902699813,None,,,,11011,0002,2022_Mar_03_1422,localizer,2021.1.3,60.00409229628445,
block,objects,objects063.bmp,,,,,0,8,8,8,,,,,,,,,,,,,,,,,,,,,,,,,,,,,,,,,,,,,,,,,,None,,489.4469902699813,None,489.4469902699813,None,2022-03-03-14:30:50.420681,489.45516909996513,489.7640624999767,489.45516909996513,None,None,489.45516909996513,None,490.26346837000455,None,,,,11011,0002,2022_Mar_03_1422,localizer,2021.1.3,60.00409229628445,
block,objects,objects009.bmp,,,,,0,9,9,9,,,,,,,,,,,,,,,,,,,,,,,,,,,,,,,,,,,,,,,,,,None,,490.26346837000455,None,490.26346837000455,None,2022-03-03-14:30:51.237161,490.26714440004434,490.5799777000211,490.26714440004434,None,None,490.26714440004434,None,491.0805572700221,None,,,,11011,0002,2022_Mar_03_1422,localizer,2021.1.3,60.00409229628445,
block,objects,objects034.bmp,,,,,0,10,10,10,,,,,,,,,,,,,,,,,,,,,,,,,,,,,,,,,,,,,,,,,,None,,491.0805572700221,None,491.0805572700221,None,2022-03-03-14:30:52.054241,491.08116800000425,491.3808015999384,491.08116800000425,None,None,491.08116800000425,None,491.8865741700167,None,,,,11011,0002,2022_Mar_03_1422,localizer,2021.1.3,60.00409229628445,
block,objects,objects007.bmp,,,,,0,11,11,11,,,,,,,,,,,,,,,,,,,,,,,,,,,,,,,,,,,,,,,,,,None,,491.8865741700167,None,491.8865741700167,None,2022-03-03-14:30:52.863074,491.88962669996545,492.1970668999711,491.88962669996545,None,None,491.88962669996545,None,492.6978850700427,None,,,,11011,0002,2022_Mar_03_1422,localizer,2021.1.3,60.00409229628445,
block,objects,objects031.bmp,,,,,0,12,12,12,,,,,,,,,,,,,,,,,,,,,,,,,,,,,,,,,,,,,,,,,,None,,492.6978850700427,None,492.6978850700427,None,2022-03-03-14:30:53.672749,492.69851150002796,492.997977299965,492.69851150002796,None,None,492.69851150002796,None,493.4980281700147,None,,,,11011,0002,2022_Mar_03_1422,localizer,2021.1.3,60.00409229628445,
block,objects,objects003.bmp,,,,,0,13,13,13,,,,,,,,,,,,,,,,,,,,,,,,,,,,,,,,,,,,,,,,,,None,,493.4980281700147,None,493.4980281700147,None,2022-03-03-14:30:54.474890,493.50118769996334,493.8144386999775,493.50118769996334,493.50118769996334,None,493.50118769996334,493.50118769996334,494.31461616994346,None,,,,11011,0002,2022_Mar_03_1422,localizer,2021.1.3,60.00409229628445,
block_end,objects,objects055.bmp,,,,,0,14,14,14,,,,,,,,,,,,,,,,,,,,,,,,,,,,,,,,,,,,,,,,,,None,,494.31461616994346,None,494.31461616994346,None,2022-03-03-14:30:55.289487,494.3262082999572,494.63028249994386,494.3262082999572,None,None,494.3262082999572,None,495.13046666996087,None,,,,11011,0002,2022_Mar_03_1422,localizer,2021.1.3,60.00409229628445,
null_block,null_block,null_block.bmp,,,,,0,15,15,15,,,,,,,,,,,,,,,,,,,,,,,,,,,,,,,,,,,,,,,,,,t,1.7797994000138715,495.1304675999563,None,495.1304675999563,None,2022-03-03-14:30:57.904251,496.93056876996997,None,496.93056876996997,None,None,496.93056876996997,None,496.9340907000005,None,,,,11011,0002,2022_Mar_03_1422,localizer,2021.1.3,60.00409229628445,
block_start,scenes,scenes037.bmp,,,,,0,16,16,16,,,,,,,,,,,,,,,,,,,,,,,,,,,,,,,,,,,,,,,,,,t,1.9631859000073746,508.9469650000101,None,508.9469650000101,None,2022-03-03-14:31:11.904777,510.9401862999657,511.24704990000464,510.9401862999657,None,None,510.9401862999657,None,511.74844357003457,None,,,,11011,0002,2022_Mar_03_1422,localizer,2021.1.3,60.00409229628445,
block,scenes,scenes057.bmp,,,,,0,17,17,17,,,,,,,,,,,,,,,,,,,,,,,,,,,,,,,,,,,,,,,,,,None,,511.74844357003457,None,511.74844357003457,None,2022-03-03-14:31:12.724667,511.76267069997266,512.0634818000253,511.76267069997266,None,None,511.76267069997266,None,512.5634914699942,None,,,,11011,0002,2022_Mar_03_1422,localizer,2021.1.3,60.00409229628445,
block,scenes,scenes038.bmp,,,,,0,18,18,18,,,,,,,,,,,,,,,,,,,,,,,,,,,,,,,,,,,,,,,,,,None,,512.5634914699942,None,512.5634914699942,None,2022-03-03-14:31:13.537184,512.5648819999769,512.8804407999851,512.5648819999769,None,None,512.5648819999769,None,513.3704094699817,None,,,,11011,0002,2022_Mar_03_1422,localizer,2021.1.3,60.00409229628445,
block,scenes,scenes068.bmp,,,,,0,19,19,19,,,,,,,,,,,,,,,,,,,,,,,,,,,,,,,,,,,,,,,,,,None,,513.3704094699817,None,513.3704094699817,None,2022-03-03-14:31:14.351896,513.3908833999885,513.6968475999311,513.3908833999885,None,None,513.3908833999885,None,514.180405970011,None,,,,11011,0002,2022_Mar_03_1422,localizer,2021.1.3,60.00409229628445,
block,scenes,scenes084.bmp,,,,,0,20,20,20,,,,,,,,,,,,,,,,,,,,,,,,,,,,,,,,,,,,,,,,,,None,,514.180405970011,None,514.180405970011,None,2022-03-03-14:31:15.154347,514.1900399000151,514.4971801999491,514.1900399000151,None,None,514.1900399000151,None,514.9974347700365,None,,,,11011,0002,2022_Mar_03_1422,localizer,2021.1.3,60.00409229628445,
block,scenes,scenes054.bmp,,,,,0,21,21,21,,,,,,,,,,,,,,,,,,,,,,,,,,,,,,,,,,,,,,,,,,None,,514.9974347700365,None,514.9974347700365,None,2022-03-03-14:31:15.971099,514.9980223999592,515.3131645999383,514.9980223999592,None,None,514.9980223999592,None,515.7973325700034,None,,,,11011,0002,2022_Mar_03_1422,localizer,2021.1.3,60.00409229628445,
block,scenes,scenes023.bmp,,,,,0,22,22,22,,,,,,,,,,,,,,,,,,,,,,,,,,,,,,,,,,,,,,,,,,None,,515.7973325700034,None,515.7973325700034,None,2022-03-03-14:31:16.773014,515.7986000999808,516.1137439999729,515.7986000999808,515.7986000999808,None,515.7986000999808,515.7986000999808,516.6139663699316,None,,,,11011,0002,2022_Mar_03_1422,localizer,2021.1.3,60.00409229628445,
block,scenes,scenes063.bmp,,,,,0,23,23,23,,,,,,,,,,,,,,,,,,,,,,,,,,,,,,,,,,,,,,,,,,None,,516.6139663699316,None,516.6139663699316,None,2022-03-03-14:31:17.587891,516.6147284000181,516.9138266999507,516.6147284000181,None,None,516.6147284000181,None,517.4303854699713,None,,,,11011,0002,2022_Mar_03_1422,localizer,2021.1.3,60.00409229628445,
block,scenes,scenes064.bmp,,,,,0,24,24,24,,,,,,,,,,,,,,,,,,,,,,,,,,,,,,,,,,,,,,,,,,None,,517.4303854699713,None,517.4303854699713,None,2022-03-03-14:31:18.404327,517.4313628999516,517.7307994000148,517.4313628999516,None,None,517.4313628999516,None,518.2304749700008,None,,,,11011,0002,2022_Mar_03_1422,localizer,2021.1.3,60.00409229628445,
block,scenes,scenes069.bmp,,,,,0,25,25,25,,,,,,,,,,,,,,,,,,,,,,,,,,,,,,,,,,,,,,,,,,None,,518.2304749700008,None,518.2304749700008,None,2022-03-03-14:31:19.206256,518.2317479000194,518.5471017999807,518.2317479000194,518.2317479000194,None,518.2317479000194,518.2317479000194,519.0473318699981,None,,,,11011,0002,2022_Mar_03_1422,localizer,2021.1.3,60.00409229628445,
block,scenes,scenes081.bmp,,,,,0,26,26,26,,,,,,,,,,,,,,,,,,,,,,,,,,,,,,,,,,,,,,,,,,None,,519.0473318699981,None,519.0473318699981,None,2022-03-03-14:31:20.021398,519.048076899955,519.3508837999543,519.048076899955,None,None,519.048076899955,None,519.8472832700238,None,,,,11011,0002,2022_Mar_03_1422,localizer,2021.1.3,60.00409229628445,
block,scenes,scenes077.bmp,,,,,0,27,27,27,,,,,,,,,,,,,,,,,,,,,,,,,,,,,,,,,,,,,,,,,,None,,519.8472832700238,None,519.8472832700238,None,2022-03-03-14:31:20.822974,519.8574938999955,520.1636958000017,519.8574938999955,519.8574938999955,None,519.8574938999955,519.8574938999955,520.6640216699336,None,,,,11011,0002,2022_Mar_03_1422,localizer,2021.1.3,60.00409229628445,
block,scenes,scenes036.bmp,,,,,0,28,28,28,,,,,,,,,,,,,,,,,,,,,,,,,,,,,,,,,,,,,,,,,,None,,520.6640216699336,None,520.6640216699336,None,2022-03-03-14:31:21.637956,520.6738218000391,520.9808103999821,520.6738218000391,None,None,520.6738218000391,None,521.4811406699475,None,,,,11011,0002,2022_Mar_03_1422,localizer,2021.1.3,60.00409229628445,
block,scenes,scenes083.bmp,,,,,0,29,29,29,,,,,,,,,,,,,,,,,,,,,,,,,,,,,,,,,,,,,,,,,,None,,521.4811406699475,None,521.4811406699475,None,2022-03-03-14:31:22.456021,521.4916242000181,521.7971556000412,521.4916242000181,None,None,521.4916242000181,None,522.2971160699847,None,,,,11011,0002,2022_Mar_03_1422,localizer,2021.1.3,60.00409229628445,
block_end,scenes,scenes086.bmp,,,,,0,30,30,30,,,,,,,,,,,,,,,,,,,,,,,,,,,,,,,,,,,,,,,,,,None,,522.2971160699847,None,522.2971160699847,None,2022-03-03-14:31:23.270810,522.2981859999709,522.6136927999323,522.2981859999709,None,None,522.2981859999709,None,523.0976860699477,None,,,,11011,0002,2022_Mar_03_1422,localizer,2021.1.3,60.00409229628445,
block_start,scrambled,scrambled046.bmp,,,,,0,31,31,31,,,,,,,,,,,,,,,,,,,,,,,,,,,,,,,,,,,,,,,,,,t,1.8127800000365824,523.0973909000168,None,523.0973909000168,None,2022-03-03-14:31:25.903341,524.9404325999785,525.2472532000393,524.9404325999785,None,None,524.9404325999785,None,525.7476419699844,None,,,,11011,0002,2022_Mar_03_1422,localizer,2021.1.3,60.00409229628445,
block,scrambled,scrambled012.bmp,,,,,0,32,32,32,,,,,,,,,,,,,,,,,,,,,,,,,,,,,,,,,,,,,,,,,,None,,525.7476419699844,None,525.7476419699844,None,2022-03-03-14:31:26.721328,525.7481952999951,526.0637340999674,525.7481952999951,None,None,525.7481952999951,None,526.5485696699936,None,,,,11011,0002,2022_Mar_03_1422,localizer,2021.1.3,60.00409229628445,
block,scrambled,scrambled058.bmp,,,,,0,33,33,33,,,,,,,,,,,,,,,,,,,,,,,,,,,,,,,,,,,,,,,,,,None,,526.5485696699936,None,526.5485696699936,None,2022-03-03-14:31:27.526408,526.5631917000283,526.863771699951,526.5631917000283,526.5631917000283,None,526.5631917000283,526.5631917000283,527.3677510699956,None,,,,11011,0002,2022_Mar_03_1422,localizer,2021.1.3,60.00409229628445,
block,scrambled,scrambled021.bmp,,,,,0,34,34,34,,,,,,,,,,,,,,,,,,,,,,,,,,,,,,,,,,,,,,,,,,None,,527.3677510699956,None,527.3677510699956,None,2022-03-03-14:31:28.350482,527.3756713999901,527.6803073999472,527.3756713999901,None,None,527.3756713999901,None,528.1803214699496,None,,,,11011,0002,2022_Mar_03_1422,localizer,2021.1.3,60.00409229628445,
block,scrambled,scrambled047.bmp,,,,,0,35,35,35,,,,,,,,,,,,,,,,,,,,,,,,,,,,,,,,,,,,,,,,,,None,,528.1803214699496,None,528.1803214699496,None,2022-03-03-14:31:29.153943,528.1816531999502,528.4971461000387,528.1816531999502,None,None,528.1816531999502,None,528.981884170021,None,,,,11011,0002,2022_Mar_03_1422,localizer,2021.1.3,60.00409229628445,
block,scrambled,scrambled025.bmp,,,,,0,36,36,36,,,,,,,,,,,,,,,,,,,,,,,,,,,,,,,,,,,,,,,,,,None,,528.981884170021,None,528.981884170021,None,2022-03-03-14:31:29.960545,528.9983835000312,529.3139420000371,528.9983835000312,528.9983835000312,None,528.9983835000312,528.9983835000312,529.7974723700202,None,,,,11011,0002,2022_Mar_03_1422,localizer,2021.1.3,60.00409229628445,
block,scrambled,scrambled060.bmp,,,,,0,37,37,37,,,,,,,,,,,,,,,,,,,,,,,,,,,,,,,,,,,,,,,,,,None,,529.7974723700202,None,529.7974723700202,None,2022-03-03-14:31:30.771137,529.7980880000396,530.0973265999928,529.7980880000396,None,None,529.7980880000396,None,530.5974658700172,None,,,,11011,0002,2022_Mar_03_1422,localizer,2021.1.3,60.00409229628445,
block,scrambled,scrambled004.bmp,,,,,0,38,38,38,,,,,,,,,,,,,,,,,,,,,,,,,,,,,,,,,,,,,,,,,,None,,530.5974658700172,None,530.5974658700172,None,2022-03-03-14:31:31.573358,530.5989092999371,530.9139367999742,530.5989092999371,530.5989092999371,None,530.5989092999371,530.5989092999371,531.4140010700096,None,,,,11011,0002,2022_Mar_03_1422,localizer,2021.1.3,60.00409229628445,
block,scrambled,scrambled082.bmp,,,,,0,39,39,39,,,,,,,,,,,,,,,,,,,,,,,,,,,,,,,,,,,,,,,,,,None,,531.4140010700096,None,531.4140010700096,None,2022-03-03-14:31:32.387699,531.4149014999857,531.7139325999888,531.4149014999857,None,None,531.4149014999857,None,532.213961669989,None,,,,11011,0002,2022_Mar_03_1422,localizer,2021.1.3,60.00409229628445,
block,scrambled,scrambled043.bmp,,,,,0,40,40,40,,,,,,,,,,,,,,,,,,,,,,,,,,,,,,,,,,,,,,,,,,None,,532.213961669989,None,532.213961669989,None,2022-03-03-14:31:33.189896,532.2153812999604,532.5308871000307,532.2153812999604,532.2153812999604,None,532.2153812999604,532.2153812999604,533.0144363700413,None,,,,11011,0002,2022_Mar_03_1422,localizer,2021.1.3,60.00409229628445,
block,scrambled,scrambled077.bmp,,,,,0,41,41,41,,,,,,,,,,,,,,,,,,,,,,,,,,,,,,,,,,,,,,,,,,None,,533.0144363700413,None,533.0144363700413,None,2022-03-03-14:31:33.990250,533.0169752000365,533.3306799000129,533.0169752000365,533.0169752000365,None,533.0169752000365,533.0169752000365,533.8312927700347,None,,,,11011,0002,2022_Mar_03_1422,localizer,2021.1.3,60.00409229628445,
block,scrambled,scrambled048.bmp,,,,,0,42,42,42,,,,,,,,,,,,,,,,,,,,,,,,,,,,,,,,,,,,,,,,,,None,,533.8312927700347,None,533.8312927700347,None,2022-03-03-14:31:34.805971,533.8709391000448,534.1802000999451,533.8709391000448,None,None,533.8709391000448,None,534.6471669699997,None,,,,11011,0002,2022_Mar_03_1422,localizer,2021.1.3,60.00409229628445,
block,scrambled,scrambled042.bmp,,,,,0,43,43,43,,,,,,,,,,,,,,,,,,,,,,,,,,,,,,,,,,,,,,,,,,None,,534.6471669699997,None,534.6471669699997,None,2022-03-03-14:31:35.621358,534.6479529000353,534.9638823999558,534.6479529000353,None,None,534.6479529000353,None,535.4479560700013,None,,,,11011,0002,2022_Mar_03_1422,localizer,2021.1.3,60.00409229628445,
block,scrambled,scrambled051.bmp,,,,,0,44,44,44,,,,,,,,,,,,,,,,,,,,,,,,,,,,,,,,,,,,,,,,,,None,,535.4479560700013,None,535.4479560700013,None,2022-03-03-14:31:36.424730,535.4508216000395,535.7642658000113,535.4508216000395,535.4508216000395,None,535.4508216000395,535.4508216000395,536.2645937699592,None,,,,11011,0002,2022_Mar_03_1422,localizer,2021.1.3,60.00409229628445,
block_end,scrambled,scrambled020.bmp,,,,,0,45,45,45,,,,,,,,,,,,,,,,,,,,,,,,,,,,,,,,,,,,,,,,,,None,,536.2645937699592,None,536.2645937699592,None,2022-03-03-14:31:37.239486,536.2762311999686,536.5804247999331,536.2762311999686,None,None,536.2762311999686,None,537.0804422699614,None,,,,11011,0002,2022_Mar_03_1422,localizer,2021.1.3,60.00409229628445,
block_start,faces,faces075.bmp,,,,,0,46,46,46,,,,,,,,,,,,,,,,,,,,,,,,,,,,,,,,,,,,,,,,,,t,1.829901299905032,537.0803321000421,None,537.0803321000421,None,2022-03-03-14:31:39.906986,538.9455899000168,539.2472611999838,538.9455899000168,None,None,538.9455899000168,None,539.7477827700088,None,,,,11011,0002,2022_Mar_03_1422,localizer,2021.1.3,60.00409229628445,
block,faces,faces075.bmp,,,,,0,47,47,47,,,,,,,,,,,,,,,,,,,,,,,,,,,,,,,,,,,,,,,,,,None,,539.7477827700088,None,539.7477827700088,None,2022-03-03-14:31:40.722666,539.7487582999747,540.0636852999451,539.7487582999747,None,y,539.7487582999747,None,540.5641836700263,None,0.4021627000765875,,,11011,0002,2022_Mar_03_1422,localizer,2021.1.3,60.00409229628445,
block,faces,faces062.bmp,,,,,0,48,48,48,,,,,,,,,,,,,,,,,,,,,,,,,,,,,,,,,,,,,,,,,,None,,540.5641836700263,None,540.5641836700263,None,2022-03-03-14:31:41.538260,540.5649849999463,540.8641616000095,540.5649849999463,None,None,540.5649849999463,None,541.3805072700372,None,,,,11011,0002,2022_Mar_03_1422,localizer,2021.1.3,60.00409229628445,
block,faces,faces072.bmp,,,,,0,49,49,49,,,,,,,,,,,,,,,,,,,,,,,,,,,,,,,,,,,,,,,,,,None,,541.3805072700372,None,541.3805072700372,None,2022-03-03-14:31:42.354206,541.3898745999904,541.6974234000081,541.3898745999904,None,None,541.3898745999904,None,542.197438970022,None,,,,11011,0002,2022_Mar_03_1422,localizer,2021.1.3,60.00409229628445,
block,faces,faces019.bmp,,,,,0,50,50,50,,,,,,,,,,,,,,,,,,,,,,,,,,,,,,,,,,,,,,,,,,None,,542.197438970022,None,542.197438970022,None,2022-03-03-14:31:43.171127,542.1981682999758,542.4975644999649,542.1981682999758,None,None,542.1981682999758,None,542.9971855700016,None,,,,11011,0002,2022_Mar_03_1422,localizer,2021.1.3,60.00409229628445,
block,faces,faces040.bmp,,,,,0,51,51,51,,,,,,,,,,,,,,,,,,,,,,,,,,,,,,,,,,,,,,,,,,None,,542.9971855700016,None,542.9971855700016,None,2022-03-03-14:31:43.971883,542.9982687999727,543.2973218000261,542.9982687999727,542.9982687999727,None,542.9982687999727,542.9982687999727,543.797524969955,None,,,,11011,0002,2022_Mar_03_1422,localizer,2021.1.3,60.00409229628445,
block,faces,faces029.bmp,,,,,0,52,52,52,,,,,,,,,,,,,,,,,,,,,,,,,,,,,,,,,,,,,,,,,,None,,543.797524969955,None,543.797524969955,None,2022-03-03-14:31:44.773212,543.8103649000404,544.113904900034,543.8103649000404,543.8103649000404,None,543.8103649000404,543.8103649000404,544.6141496699304,None,,,,11011,0002,2022_Mar_03_1422,localizer,2021.1.3,60.00409229628445,
block,faces,faces057.bmp,,,,,0,53,53,53,,,,,,,,,,,,,,,,,,,,,,,,,,,,,,,,,,,,,,,,,,None,,544.6141496699304,None,544.6141496699304,None,2022-03-03-14:31:45.588047,544.6253056999994,544.9309740000172,544.6253056999994,None,None,544.6253056999994,None,545.4310022700113,None,,,,11011,0002,2022_Mar_03_1422,localizer,2021.1.3,60.00409229628445,
block,faces,faces053.bmp,,,,,0,54,54,54,,,,,,,,,,,,,,,,,,,,,,,,,,,,,,,,,,,,,,,,,,None,,545.4310022700113,None,545.4310022700113,None,2022-03-03-14:31:46.404688,545.441801100038,545.7472400999395,545.441801100038,None,None,545.441801100038,None,546.2476195699303,None,,,,11011,0002,2022_Mar_03_1422,localizer,2021.1.3,60.00409229628445,
block,faces,faces046.bmp,,,,,0,55,55,55,,,,,,,,,,,,,,,,,,,,,,,,,,,,,,,,,,,,,,,,,,None,,546.2476195699303,None,546.2476195699303,None,2022-03-03-14:31:47.221537,546.2593319000443,546.5640963999322,546.2593319000443,None,None,546.2593319000443,None,547.0704326699954,None,,,,11011,0002,2022_Mar_03_1422,localizer,2021.1.3,60.00409229628445,
block,faces,faces054.bmp,,,,,0,56,56,56,,,,,,,,,,,,,,,,,,,,,,,,,,,,,,,,,,,,,,,,,,None,,547.0704326699954,None,547.0704326699954,None,2022-03-03-14:31:48.051987,547.079976500012,547.3843149000313,547.079976500012,None,None,547.079976500012,None,547.881812869967,None,,,,11011,0002,2022_Mar_03_1422,localizer,2021.1.3,60.00409229628445,
block,faces,faces010.bmp,,,,,0,57,57,57,,,,,,,,,,,,,,,,,,,,,,,,,,,,,,,,,,,,,,,,,,None,,547.881812869967,None,547.881812869967,None,2022-03-03-14:31:48.856028,547.8828199999407,548.1973996999441,547.8828199999407,None,None,547.8828199999407,None,548.6974240700249,None,,,,11011,0002,2022_Mar_03_1422,localizer,2021.1.3,60.00409229628445,
block,faces,faces031.bmp,,,,,0,58,58,58,,,,,,,,,,,,,,,,,,,,,,,,,,,,,,,,,,,,,,,,,,None,,548.6974240700249,None,548.6974240700249,None,2022-03-03-14:31:49.671121,548.705806999933,549.0145142000401,548.705806999933,None,None,548.705806999933,None,549.514194269944,None,,,,11011,0002,2022_Mar_03_1422,localizer,2021.1.3,60.00409229628445,
block,faces,faces025.bmp,,,,,0,59,59,59,,,,,,,,,,,,,,,,,,,,,,,,,,,,,,,,,,,,,,,,,,None,,549.514194269944,None,549.514194269944,None,2022-03-03-14:31:50.487854,549.5148766000057,549.8137336999644,549.5148766000057,None,None,549.5148766000057,None,550.3141349700047,None,,,,11011,0002,2022_Mar_03_1422,localizer,2021.1.3,60.00409229628445,
block_end,faces,faces089.bmp,,,,,0,60,60,60,,,,,,,,,,,,,,,,,,,,,,,,,,,,,,,,,,,,,,,,,,None,,550.3141349700047,None,550.3141349700047,None,2022-03-03-14:31:51.289825,550.3153066999512,550.6306548999855,550.3153066999512,550.3153066999512,None,550.3153066999512,550.3153066999512,551.1145890700166,None,,,,11011,0002,2022_Mar_03_1422,localizer,2021.1.3,60.00409229628445,
block_start,objects,objects046.bmp,,,,,0,61,61,61,,,,,,,,,,,,,,,,,,,,,,,,,,,,,,,,,,,,,,,,,,t,1.795705599943176,551.114446099964,None,551.114446099964,None,2022-03-03-14:31:53.903079,552.9377752,553.2474439999787,552.9377752,None,None,552.9377752,None,553.7475102700294,None,,,,11011,0002,2022_Mar_03_1422,localizer,2021.1.3,60.00409229628445,
block,objects,objects065.bmp,,,,,0,62,62,62,,,,,,,,,,,,,,,,,,,,,,,,,,,,,,,,,,,,,,,,,,None,,553.7475102700294,None,553.7475102700294,None,2022-03-03-14:31:54.721386,553.7572223999305,554.0646065999754,553.7572223999305,None,None,553.7572223999305,None,554.5646507699742,None,,,,11011,0002,2022_Mar_03_1422,localizer,2021.1.3,60.00409229628445,
block,objects,objects056.bmp,,,,,0,63,63,63,,,,,,,,,,,,,,,,,,,,,,,,,,,,,,,,,,,,,,,,,,None,,554.5646507699742,None,554.5646507699742,None,2022-03-03-14:31:55.539314,554.5752205000026,554.8812140999362,554.5752205000026,None,None,554.5752205000026,None,555.3805784699973,None,,,,11011,0002,2022_Mar_03_1422,localizer,2021.1.3,60.00409229628445,
block,objects,objects028.bmp,,,,,0,64,64,64,,,,,,,,,,,,,,,,,,,,,,,,,,,,,,,,,,,,,,,,,,None,,555.3805784699973,None,555.3805784699973,None,2022-03-03-14:31:56.354540,555.3890352000017,555.6973271999741,555.3890352000017,None,None,555.3890352000017,None,556.1975082699676,None,,,,11011,0002,2022_Mar_03_1422,localizer,2021.1.3,60.00409229628445,
block,objects,objects015.bmp,,,,,0,65,65,65,,,,,,,,,,,,,,,,,,,,,,,,,,,,,,,,,,,,,,,,,,None,,556.1975082699676,None,556.1975082699676,None,2022-03-03-14:31:57.171915,556.1984351000283,556.5139668999473,556.1984351000283,None,None,556.1984351000283,None,557.0139219699661,None,,,,11011,0002,2022_Mar_03_1422,localizer,2021.1.3,60.00409229628445,
block,objects,objects044.bmp,,,,,0,66,66,66,,,,,,,,,,,,,,,,,,,,,,,,,,,,,,,,,,,,,,,,,,None,,557.0139219699661,None,557.0139219699661,None,2022-03-03-14:31:57.987618,557.0149235000135,557.318803000031,557.0149235000135,None,None,557.0149235000135,None,557.8153919700301,None,,,,11011,0002,2022_Mar_03_1422,localizer,2021.1.3,60.00409229628445,
block,objects,objects052.bmp,,,,,0,67,67,67,,,,,,,,,,,,,,,,,,,,,,,,,,,,,,,,,,,,,,,,,,None,,557.8153919700301,None,557.8153919700301,None,2022-03-03-14:31:58.792244,557.8194646999473,558.1306878000032,557.8194646999473,557.8194646999473,None,557.8194646999473,557.8194646999473,558.6314843700268,None,,,,11011,0002,2022_Mar_03_1422,localizer,2021.1.3,60.00409229628445,
block,objects,objects048.bmp,,,,,0,68,68,68,,,,,,,,,,,,,,,,,,,,,,,,,,,,,,,,,,,,,,,,,,None,,558.6314843700268,None,558.6314843700268,None,2022-03-03-14:31:59.605359,558.6320172999986,558.9466203999473,558.6320172999986,None,None,558.6320172999986,None,559.4475192699349,None,,,,11011,0002,2022_Mar_03_1422,localizer,2021.1.3,60.00409229628445,
block,objects,objects062.bmp,,,,,0,69,69,69,,,,,,,,,,,,,,,,,,,,,,,,,,,,,,,,,,,,,,,,,,None,,559.4475192699349,None,559.4475192699349,None,2022-03-03-14:32:00.421930,559.4585706000216,559.7642085000407,559.4585706000216,None,None,559.4585706000216,None,560.2642053700285,None,,,,11011,0002,2022_Mar_03_1422,localizer,2021.1.3,60.00409229628445,
block,objects,objects076.bmp,,,,,0,70,70,70,,,,,,,,,,,,,,,,,,,,,,,,,,,,,,,,,,,,,,,,,,None,,560.2642053700285,None,560.2642053700285,None,2022-03-03-14:32:01.237898,560.2647710000165,560.5645345000084,560.2647710000165,None,None,560.2647710000165,None,561.0639472699725,None,,,,11011,0002,2022_Mar_03_1422,localizer,2021.1.3,60.00409229628445,
block,objects,objects059.bmp,,,,,0,71,71,71,,,,,,,,,,,,,,,,,,,,,,,,,,,,,,,,,,,,,,,,,,None,,561.0639472699725,None,561.0639472699725,None,2022-03-03-14:32:02.037645,561.0647154999897,561.3707415999379,561.0647154999897,561.0647154999897,None,561.0647154999897,561.0647154999897,561.864858669974,None,,,,11011,0002,2022_Mar_03_1422,localizer,2021.1.3,60.00409229628445,
block,objects,objects070.bmp,,,,,0,72,72,72,,,,,,,,,,,,,,,,,,,,,,,,,,,,,,,,,,,,,,,,,,None,,561.864858669974,None,561.864858669974,None,2022-03-03-14:32:02.841746,561.8679884000449,562.1813861000119,561.8679884000449,561.8679884000449,None,561.8679884000449,561.8679884000449,562.6813999700128,None,,,,11011,0002,2022_Mar_03_1422,localizer,2021.1.3,60.00409229628445,
block,objects,objects002.bmp,,,,,0,73,73,73,,,,,,,,,,,,,,,,,,,,,,,,,,,,,,,,,,,,,,,,,,None,,562.6813999700128,None,562.6813999700128,None,2022-03-03-14:32:03.656081,562.6925496000331,562.9972718999488,562.6925496000331,None,None,562.6925496000331,None,563.4996616699966,None,,,,11011,0002,2022_Mar_03_1422,localizer,2021.1.3,60.00409229628445,
block,objects,objects024.bmp,,,,,0,74,74,74,,,,,,,,,,,,,,,,,,,,,,,,,,,,,,,,,,,,,,,,,,None,,563.4996616699966,None,563.4996616699966,None,2022-03-03-14:32:04.476524,563.5027797999792,563.8143990000244,563.5027797999792,None,None,563.5027797999792,None,564.3142486699392,None,,,,11011,0002,2022_Mar_03_1422,localizer,2021.1.3,60.00409229628445,
block_end,objects,objects001.bmp,,,,,0,75,75,75,,,,,,,,,,,,,,,,,,,,,,,,,,,,,,,,,,,,,,,,,,None,,564.3142486699392,None,564.3142486699392,None,2022-03-03-14:32:05.288169,564.3149467000039,564.6304772000294,564.3149467000039,None,None,564.3149467000039,None,565.1140555700288,None,,,,11011,0002,2022_Mar_03_1422,localizer,2021.1.3,60.00409229628445,
block_start,scrambled,scrambled037.bmp,,,,,0,76,76,76,,,,,,,,,,,,,,,,,,,,,,,,,,,,,,,,,,,,,,,,,,t,1.7963047999655828,565.1138809999684,None,565.1138809999684,None,2022-03-03-14:32:07.907072,566.9344358999515,567.24746949994,566.9344358999515,None,None,566.9344358999515,None,567.7471010699403,None,,,,11011,0002,2022_Mar_03_1422,localizer,2021.1.3,60.00409229628445,
block,scrambled,scrambled020.bmp,,,,,0,77,77,77,,,,,,,,,,,,,,,,,,,,,,,,,,,,,,,,,,,,,,,,,,None,,567.7471010699403,None,567.7471010699403,None,2022-03-03-14:32:08.720801,567.7484515999677,568.0638041000348,567.7484515999677,None,None,567.7484515999677,None,568.5642295700266,None,,,,11011,0002,2022_Mar_03_1422,localizer,2021.1.3,60.00409229628445,
block,scrambled,scrambled065.bmp,,,,,0,78,78,78,,,,,,,,,,,,,,,,,,,,,,,,,,,,,,,,,,,,,,,,,,None,,568.5642295700266,None,568.5642295700266,None,2022-03-03-14:32:09.537925,568.5733569000149,568.8808876000112,568.5733569000149,None,None,568.5733569000149,None,569.3808867700166,None,,,,11011,0002,2022_Mar_03_1422,localizer,2021.1.3,60.00409229628445,
block,scrambled,scrambled054.bmp,,,,,0,79,79,79,,,,,,,,,,,,,,,,,,,,,,,,,,,,,,,,,,,,,,,,,,None,,569.3808867700166,None,569.3808867700166,None,2022-03-03-14:32:10.354580,569.3816339999903,569.6808206000132,569.3816339999903,None,None,569.3816339999903,None,570.181135369977,None,,,,11011,0002,2022_Mar_03_1422,localizer,2021.1.3,60.00409229628445,
block,scrambled,scrambled010.bmp,,,,,0,80,80,80,,,,,,,,,,,,,,,,,,,,,,,,,,,,,,,,,,,,,,,,,,None,,570.181135369977,None,570.181135369977,None,2022-03-03-14:32:11.156820,570.193688099971,570.4973367999773,570.193688099971,570.193688099971,None,570.193688099971,570.193688099971,570.9975046699867,None,,,,11011,0002,2022_Mar_03_1422,localizer,2021.1.3,60.00409229628445,
block,scrambled,scrambled046.bmp,,,,,0,81,81,81,,,,,,,,,,,,,,,,,,,,,,,,,,,,,,,,,,,,,,,,,,None,,570.9975046699867,None,570.9975046699867,None,2022-03-03-14:32:11.971206,570.9981856000377,571.3139560000272,570.9981856000377,None,None,570.9981856000377,None,571.7976737700403,None,,,,11011,0002,2022_Mar_03_1422,localizer,2021.1.3,60.00409229628445,
block,scrambled,scrambled060.bmp,,,,,0,82,82,82,,,,,,,,,,,,,,,,,,,,,,,,,,,,,,,,,,,,,,,,,,None,,571.7976737700403,None,571.7976737700403,None,2022-03-03-14:32:12.773558,571.798945199931,572.098707200028,571.798945199931,571.798945199931,None,571.798945199931,571.798945199931,572.6144362700172,None,,,,11011,0002,2022_Mar_03_1422,localizer,2021.1.3,60.00409229628445,
block,scrambled,scrambled007.bmp,,,,,0,83,83,83,,,,,,,,,,,,,,,,,,,,,,,,,,,,,,,,,,,,,,,,,,None,,572.6144362700172,None,572.6144362700172,None,2022-03-03-14:32:13.588127,572.6150329000084,572.9143032999709,572.6150329000084,None,None,572.6150329000084,None,573.4161137700314,None,,,,11011,0002,2022_Mar_03_1422,localizer,2021.1.3,60.00409229628445,
block,scrambled,scrambled035.bmp,,,,,0,84,84,84,,,,,,,,,,,,,,,,,,,,,,,,,,,,,,,,,,,,,,,,,,None,,573.4161137700314,None,573.4161137700314,None,2022-03-03-14:32:14.392837,573.4190427999711,573.7307799999835,573.4190427999711,573.4190427999711,None,573.4190427999711,573.4190427999711,574.2308829699643,None,,,,11011,0002,2022_Mar_03_1422,localizer,2021.1.3,60.00409229628445,
block,scrambled,scrambled073.bmp,,,,,0,85,85,85,,,,,,,,,,,,,,,,,,,,,,,,,,,,,,,,,,,,,,,,,,None,,574.2308829699643,None,574.2308829699643,None,2022-03-03-14:32:15.204580,574.2316500999732,574.5306680999929,574.2316500999732,None,None,574.2316500999732,None,575.031012969953,None,,,,11011,0002,2022_Mar_03_1422,localizer,2021.1.3,60.00409229628445,
block,scrambled,scrambled083.bmp,,,,,0,86,86,86,,,,,,,,,,,,,,,,,,,,,,,,,,,,,,,,,,,,,,,,,,None,,575.031012969953,None,575.031012969953,None,2022-03-03-14:32:16.006703,575.0320347000379,575.3539718999527,575.0320347000379,575.0320347000379,None,575.0320347000379,575.0320347000379,575.8475843699882,None,,,,11011,0002,2022_Mar_03_1422,localizer,2021.1.3,60.00409229628445,
block,scrambled,scrambled068.bmp,,,,,0,87,87,87,,,,,,,,,,,,,,,,,,,,,,,,,,,,,,,,,,,,,,,,,,None,,575.8475843699882,None,575.8475843699882,None,2022-03-03-14:32:16.821169,575.8485640999861,576.1476182999322,575.8485640999861,None,None,575.8485640999861,None,576.6476673699683,None,,,,11011,0002,2022_Mar_03_1422,localizer,2021.1.3,60.00409229628445,
block,scrambled,scrambled053.bmp,,,,,0,88,88,88,,,,,,,,,,,,,,,,,,,,,,,,,,,,,,,,,,,,,,,,,,None,,576.6476673699683,None,576.6476673699683,None,2022-03-03-14:32:17.622361,576.6574703999795,576.9644978999859,576.6574703999795,576.6574703999795,None,576.6574703999795,576.6574703999795,577.46461526996,None,,,,11011,0002,2022_Mar_03_1422,localizer,2021.1.3,60.00409229628445,
block,scrambled,scrambled087.bmp,,,,,0,89,89,89,,,,,,,,,,,,,,,,,,,,,,,,,,,,,,,,,,,,,,,,,,None,,577.46461526996,None,577.46461526996,None,2022-03-03-14:32:18.438292,577.4651946999365,577.7648979999358,577.4651946999365,None,None,577.4651946999365,None,578.2645227700007,None,,,,11011,0002,2022_Mar_03_1422,localizer,2021.1.3,60.00409229628445,
block_end,scrambled,scrambled002.bmp,,,,,0,90,90,90,,,,,,,,,,,,,,,,,,,,,,,,,,,,,,,,,,,,,,,,,,None,,578.2645227700007,None,578.2645227700007,None,2022-03-03-14:32:19.240428,578.2661404999672,578.5809783999575,578.2661404999672,578.2661404999672,None,578.2661404999672,578.2661404999672,579.0811979700113,None,,,,11011,0002,2022_Mar_03_1422,localizer,2021.1.3,60.00409229628445,
block_start,scenes,scenes050.bmp,,,,,0,91,91,91,,,,,,,,,,,,,,,,,,,,,,,,,,,,,,,,,,,,,,,,,,t,1.829241400002502,579.0809229000006,None,579.0809229000006,None,2022-03-03-14:32:21.903710,580.9318898000056,581.23102810001,580.9318898000056,None,None,580.9318898000056,None,581.7315769700101,None,,,,11011,0002,2022_Mar_03_1422,localizer,2021.1.3,60.00409229628445,
block,scenes,scenes012.bmp,,,,,0,92,92,92,,,,,,,,,,,,,,,,,,,,,,,,,,,,,,,,,,,,,,,,,,None,,581.7315769700101,None,581.7315769700101,None,2022-03-03-14:32:22.708450,581.7451545000076,582.0475231000455,581.7451545000076,581.7451545000076,None,581.7451545000076,581.7451545000076,582.5482494700002,None,,,,11011,0002,2022_Mar_03_1422,localizer,2021.1.3,60.00409229628445,
block,scenes,scenes080.bmp,,,,,0,93,93,93,,,,,,,,,,,,,,,,,,,,,,,,,,,,,,,,,,,,,,,,,,None,,582.5482494700002,None,582.5482494700002,None,2022-03-03-14:32:23.523005,582.559882099973,582.8705148999579,582.559882099973,None,None,582.559882099973,None,583.3656980699627,None,,,,11011,0002,2022_Mar_03_1422,localizer,2021.1.3,60.00409229628445,
block,scenes,scenes065.bmp,,,,,0,94,94,94,,,,,,,,,,,,,,,,,,,,,,,,,,,,,,,,,,,,,,,,,,None,,583.3656980699627,None,583.3656980699627,None,2022-03-03-14:32:24.338378,583.3768315999769,583.6806029999861,583.3768315999769,None,None,583.3768315999769,None,584.1810512700351,None,,,,11011,0002,2022_Mar_03_1422,localizer,2021.1.3,60.00409229628445,
block,scenes,scenes068.bmp,,,,,0,95,95,95,,,,,,,,,,,,,,,,,,,,,,,,,,,,,,,,,,,,,,,,,,None,,584.1810512700351,None,584.1810512700351,None,2022-03-03-14:32:25.154880,584.1818192999344,584.4809034999926,584.1818192999344,None,None,584.1818192999344,None,584.9809352700133,None,,,,11011,0002,2022_Mar_03_1422,localizer,2021.1.3,60.00409229628445,
block,scenes,scenes016.bmp,,,,,0,96,96,96,,,,,,,,,,,,,,,,,,,,,,,,,,,,,,,,,,,,,,,,,,None,,584.9809352700133,None,584.9809352700133,None,2022-03-03-14:32:25.955876,584.9817525999388,585.2809165000217,584.9817525999388,584.9817525999388,None,584.9817525999388,584.9817525999388,585.7811157700373,None,,,,11011,0002,2022_Mar_03_1422,localizer,2021.1.3,60.00409229628445,
block,scenes,scenes004.bmp,,,,,0,97,97,97,,,,,,,,,,,,,,,,,,,,,,,,,,,,,,,,,,,,,,,,,,None,,585.7811157700373,None,585.7811157700373,None,2022-03-03-14:32:26.757017,585.7991663999856,586.1140900000464,585.7991663999856,585.7991663999856,None,585.7991663999856,585.7991663999856,586.5977013699478,None,,,,11011,0002,2022_Mar_03_1422,localizer,2021.1.3,60.00409229628445,
block,scenes,scenes003.bmp,,,,,0,98,98,98,,,,,,,,,,,,,,,,,,,,,,,,,,,,,,,,,,,,,,,,,,None,,586.5977013699478,None,586.5977013699478,None,2022-03-03-14:32:27.571395,586.5985936999787,586.914132899954,586.5985936999787,None,None,586.5985936999787,None,587.3976923700423,None,,,,11011,0002,2022_Mar_03_1422,localizer,2021.1.3,60.00409229628445,
block,scenes,scenes003.bmp,,,,,0,99,99,99,,,,,,,,,,,,,,,,,,,,,,,,,,,,,,,,,,,,,,,,,,None,,587.3976923700423,None,587.3976923700423,None,2022-03-03-14:32:28.372392,587.3985279999906,587.6980395000428,587.3985279999906,587.3985279999906,y,587.3985279999906,587.3985279999906,588.1977195699467,None,0.6842291000066325,,,11011,0002,2022_Mar_03_1422,localizer,2021.1.3,60.00409229628445,
block,scenes,scenes076.bmp,,,,,0,100,100,100,,,,,,,,,,,,,,,,,,,,,,,,,,,,,,,,,,,,,,,,,,None,,588.1977195699467,None,588.1977195699467,None,2022-03-03-14:32:29.173311,588.2086666999385,588.5145947999554,588.2086666999385,588.2086666999385,None,588.2086666999385,588.2086666999385,589.0145949699684,None,,,,11011,0002,2022_Mar_03_1422,localizer,2021.1.3,60.00409229628445,
block,scenes,scenes038.bmp,,,,,0,101,101,101,,,,,,,,,,,,,,,,,,,,,,,,,,,,,,,,,,,,,,,,,,None,,589.0145949699684,None,589.0145949699684,None,2022-03-03-14:32:29.988268,589.0153973000124,589.3145314999856,589.0153973000124,None,None,589.0153973000124,None,589.830885069957,None,,,,11011,0002,2022_Mar_03_1422,localizer,2021.1.3,60.00409229628445,
block,scenes,scenes047.bmp,,,,,0,102,102,102,,,,,,,,,,,,,,,,,,,,,,,,,,,,,,,,,,,,,,,,,,None,,589.830885069957,None,589.830885069957,None,2022-03-03-14:32:30.804582,589.8317917999811,590.1309199000243,589.8317917999811,None,None,589.8317917999811,None,590.6322892699857,None,,,,11011,0002,2022_Mar_03_1422,localizer,2021.1.3,60.00409229628445,
block,scenes,scenes088.bmp,,,,,0,103,103,103,,,,,,,,,,,,,,,,,,,,,,,,,,,,,,,,,,,,,,,,,,None,,590.6322892699857,None,590.6322892699857,None,2022-03-03-14:32:31.610187,590.648442100035,590.9474861000199,590.648442100035,590.648442100035,None,590.648442100035,590.648442100035,591.4498060700018,None,,,,11011,0002,2022_Mar_03_1422,localizer,2021.1.3,60.00409229628445,
block,scenes,scenes025.bmp,,,,,0,104,104,104,,,,,,,,,,,,,,,,,,,,,,,,,,,,,,,,,,,,,,,,,,None,,591.4498060700018,None,591.4498060700018,None,2022-03-03-14:32:32.425070,591.4581408000086,591.7641936000437,591.4581408000086,None,None,591.4581408000086,None,592.2644155699993,None,,,,11011,0002,2022_Mar_03_1422,localizer,2021.1.3,60.00409229628445,
block_end,scenes,scenes032.bmp,,,,,0,105,105,105,,,,,,,,,,,,,,,,,,,,,,,,,,,,,,,,,,,,,,,,,,None,,592.2644155699993,None,592.2644155699993,None,2022-03-03-14:32:33.238258,592.2650561999762,592.564335300005,592.2650561999762,None,None,592.2650561999762,None,593.0642333699391,None,,,,11011,0002,2022_Mar_03_1422,localizer,2021.1.3,60.00409229628445,
null_block,null_block,null_block.bmp,,,,,0,106,106,106,,,,,,,,,,,,,,,,,,,,,,,,,,,,,,,,,,,,,,,,,,t,1.84610069997143,593.0640061999438,None,593.0640061999438,None,2022-03-03-14:32:35.907800,594.9331076699775,None,594.9331076699775,None,None,594.9331076699775,None,594.9396375999786,None,,,,11011,0002,2022_Mar_03_1422,localizer,2021.1.3,60.00409229628445,
block_start,faces,faces044.bmp,,,,,0,107,107,107,,,,,,,,,,,,,,,,,,,,,,,,,,,,,,,,,,,,,,,,,,t,1.95995079993736,606.9500726000406,None,606.9500726000406,None,2022-03-03-14:32:49.908476,608.9344084999757,609.2478015000233,608.9344084999757,None,None,608.9344084999757,None,609.7474997699494,None,,,,11011,0002,2022_Mar_03_1422,localizer,2021.1.3,60.00409229628445,
block,faces,faces041.bmp,,,,,0,108,108,108,,,,,,,,,,,,,,,,,,,,,,,,,,,,,,,,,,,,,,,,,,None,,609.7474997699494,None,609.7474997699494,None,2022-03-03-14:32:50.721201,609.7568708999315,610.0644169000443,609.7568708999315,None,None,609.7568708999315,None,610.5645656700246,None,,,,11011,0002,2022_Mar_03_1422,localizer,2021.1.3,60.00409229628445,
block,faces,faces020.bmp,,,,,0,109,109,109,,,,,,,,,,,,,,,,,,,,,,,,,,,,,,,,,,,,,,,,,,None,,610.5645656700246,None,610.5645656700246,None,2022-03-03-14:32:51.538489,610.5756113999523,610.8811071999371,610.5756113999523,None,None,610.5756113999523,None,611.3811482700287,None,,,,11011,0002,2022_Mar_03_1422,localizer,2021.1.3,60.00409229628445,
block,faces,faces072.bmp,,,,,0,110,110,110,,,,,,,,,,,,,,,,,,,,,,,,,,,,,,,,,,,,,,,,,,None,,611.3811482700287,None,611.3811482700287,None,2022-03-03-14:32:52.354381,611.385775999981,611.6978693000274,611.385775999981,None,None,611.385775999981,None,612.1975016700337,None,,,,11011,0002,2022_Mar_03_1422,localizer,2021.1.3,60.00409229628445,
block,faces,faces029.bmp,,,,,0,111,111,111,,,,,,,,,,,,,,,,,,,,,,,,,,,,,,,,,,,,,,,,,,None,,612.1975016700337,None,612.1975016700337,None,2022-03-03-14:32:53.171206,612.1985847000033,612.5141553999856,612.1985847000033,None,None,612.1985847000033,None,612.9999706700212,None,,,,11011,0002,2022_Mar_03_1422,localizer,2021.1.3,60.00409229628445,
block,faces,faces038.bmp,,,,,0,112,112,112,,,,,,,,,,,,,,,,,,,,,,,,,,,,,,,,,,,,,,,,,,None,,612.9999706700212,None,612.9999706700212,None,2022-03-03-14:32:53.979800,613.0257199000334,613.3310225999448,613.0257199000334,613.0257199000334,None,613.0257199000334,613.0257199000334,613.8145259699552,None,,,,11011,0002,2022_Mar_03_1422,localizer,2021.1.3,60.00409229628445,
block,faces,faces021.bmp,,,,,0,113,113,113,,,,,,,,,,,,,,,,,,,,,,,,,,,,,,,,,,,,,,,,,,None,,613.8145259699552,None,613.8145259699552,None,2022-03-03-14:32:54.788457,613.8264069999568,614.1309572999598,613.8264069999568,None,None,613.8264069999568,None,614.6313389699674,None,,,,11011,0002,2022_Mar_03_1422,localizer,2021.1.3,60.00409229628445,
block,faces,faces007.bmp,,,,,0,114,114,114,,,,,,,,,,,,,,,,,,,,,,,,,,,,,,,,,,,,,,,,,,None,,614.6313389699674,None,614.6313389699674,None,2022-03-03-14:32:55.605037,614.6320638000034,614.9312445999822,614.6320638000034,None,None,614.6320638000034,None,615.4476215700154,None,,,,11011,0002,2022_Mar_03_1422,localizer,2021.1.3,60.00409229628445,
block,faces,faces087.bmp,,,,,0,115,115,115,,,,,,,,,,,,,,,,,,,,,,,,,,,,,,,,,,,,,,,,,,None,,615.4476215700154,None,615.4476215700154,None,2022-03-03-14:32:56.421330,615.4584434999852,615.7644841000438,615.4584434999852,None,None,615.4584434999852,None,616.2645052699838,None,,,,11011,0002,2022_Mar_03_1422,localizer,2021.1.3,60.00409229628445,
block,faces,faces055.bmp,,,,,0,116,116,116,,,,,,,,,,,,,,,,,,,,,,,,,,,,,,,,,,,,,,,,,,None,,616.2645052699838,None,616.2645052699838,None,2022-03-03-14:32:57.238206,616.2745964999776,616.5818476999411,616.2745964999776,None,None,616.2745964999776,None,617.0819049700397,None,,,,11011,0002,2022_Mar_03_1422,localizer,2021.1.3,60.00409229628445,
block,faces,faces030.bmp,,,,,0,117,117,117,,,,,,,,,,,,,,,,,,,,,,,,,,,,,,,,,,,,,,,,,,None,,617.0819049700397,None,617.0819049700397,None,2022-03-03-14:32:58.056790,617.0841081000399,617.3974452000111,617.0841081000399,None,None,617.0841081000399,None,617.897700269986,None,,,,11011,0002,2022_Mar_03_1422,localizer,2021.1.3,60.00409229628445,
block,faces,faces022.bmp,,,,,0,118,118,118,,,,,,,,,,,,,,,,,,,,,,,,,,,,,,,,,,,,,,,,,,None,,617.897700269986,None,617.897700269986,None,2022-03-03-14:32:58.871652,617.9087563999929,618.2143672000384,617.9087563999929,None,None,617.9087563999929,None,618.7145915700123,None,,,,11011,0002,2022_Mar_03_1422,localizer,2021.1.3,60.00409229628445,
block,faces,faces059.bmp,,,,,0,119,119,119,,,,,,,,,,,,,,,,,,,,,,,,,,,,,,,,,,,,,,,,,,None,,618.7145915700123,None,618.7145915700123,None,2022-03-03-14:32:59.688522,618.725612899987,619.0307545999531,618.725612899987,None,None,618.725612899987,None,619.5312955700094,None,,,,11011,0002,2022_Mar_03_1422,localizer,2021.1.3,60.00409229628445,
block,faces,faces082.bmp,,,,,0,120,120,120,,,,,,,,,,,,,,,,,,,,,,,,,,,,,,,,,,,,,,,,,,None,,619.5312955700094,None,619.5312955700094,None,2022-03-03-14:33:00.505213,619.5319317999529,619.8311011999613,619.5319317999529,None,None,619.5319317999529,None,620.3311178699835,None,,,,11011,0002,2022_Mar_03_1422,localizer,2021.1.3,60.00409229628445,
block_end,faces,faces048.bmp,,,,,0,121,121,121,,,,,,,,,,,,,,,,,,,,,,,,,,,,,,,,,,,,,,,,,,None,,620.3311178699835,None,620.3311178699835,None,2022-03-03-14:33:01.306813,620.3338349999394,620.6477055000141,620.3338349999394,620.3338349999394,None,620.3338349999394,620.3338349999394,621.1487478699303,None,,,,11011,0002,2022_Mar_03_1422,localizer,2021.1.3,60.00409229628445,
block_start,objects,objects032.bmp,,,,,0,122,122,122,,,,,,,,,,,,,,,,,,,,,,,,,,,,,,,,,,,,,,,,,,t,1.7617045999504626,621.1483902999898,None,621.1483902999898,None,2022-03-03-14:33:03.906694,622.9437464999501,623.2477452999447,622.9437464999501,None,None,622.9437464999501,None,623.7478677699576,None,,,,11011,0002,2022_Mar_03_1422,localizer,2021.1.3,60.00409229628445,
block,objects,objects043.bmp,,,,,0,123,123,123,,,,,,,,,,,,,,,,,,,,,,,,,,,,,,,,,,,,,,,,,,None,,623.7478677699576,None,623.7478677699576,None,2022-03-03-14:33:04.721569,623.7577584999381,624.0645052000182,623.7577584999381,None,None,623.7577584999381,None,624.5645470699994,None,,,,11011,0002,2022_Mar_03_1422,localizer,2021.1.3,60.00409229628445,
block,objects,objects088.bmp,,,,,0,124,124,124,,,,,,,,,,,,,,,,,,,,,,,,,,,,,,,,,,,,,,,,,,None,,624.5645470699994,None,624.5645470699994,None,2022-03-03-14:33:05.538250,624.5656779999845,624.8645841999678,624.5656779999845,None,None,624.5656779999845,None,625.3812767699594,None,,,,11011,0002,2022_Mar_03_1422,localizer,2021.1.3,60.00409229628445,
block,objects,objects014.bmp,,,,,0,125,125,125,,,,,,,,,,,,,,,,,,,,,,,,,,,,,,,,,,,,,,,,,,None,,625.3812767699594,None,625.3812767699594,None,2022-03-03-14:33:06.354255,625.3856380999787,625.6980840000324,625.3856380999787,None,None,625.3856380999787,None,626.1975227699616,None,,,,11011,0002,2022_Mar_03_1422,localizer,2021.1.3,60.00409229628445,
block,objects,objects066.bmp,,,,,0,126,126,126,,,,,,,,,,,,,,,,,,,,,,,,,,,,,,,,,,,,,,,,,,None,,626.1975227699616,None,626.1975227699616,None,2022-03-03-14:33:07.171226,626.2060409999685,626.5145316999406,626.2060409999685,None,None,626.2060409999685,None,627.0153315699893,None,,,,11011,0002,2022_Mar_03_1422,localizer,2021.1.3,60.00409229628445,
block,objects,objects078.bmp,,,,,0,127,127,127,,,,,,,,,,,,,,,,,,,,,,,,,,,,,,,,,,,,,,,,,,None,,627.0153315699893,None,627.0153315699893,None,2022-03-03-14:33:07.990020,627.0169945999514,627.3157511999598,627.0169945999514,None,None,627.0169945999514,None,627.8311347699957,None,,,,11011,0002,2022_Mar_03_1422,localizer,2021.1.3,60.00409229628445,
block,objects,objects048.bmp,,,,,0,128,128,128,,,,,,,,,,,,,,,,,,,,,,,,,,,,,,,,,,,,,,,,,,None,,627.8311347699957,None,627.8311347699957,None,2022-03-03-14:33:08.804837,627.831946499995,628.1309471999994,627.831946499995,None,None,627.831946499995,None,628.6311264699791,None,,,,11011,0002,2022_Mar_03_1422,localizer,2021.1.3,60.00409229628445,
block,objects,objects079.bmp,,,,,0,129,129,129,,,,,,,,,,,,,,,,,,,,,,,,,,,,,,,,,,,,,,,,,,None,,628.6311264699791,None,628.6311264699791,None,2022-03-03-14:33:09.605826,628.6422691999469,628.9474859000184,628.6422691999469,628.6422691999469,None,628.6422691999469,628.6422691999469,629.4511418700451,None,,,,11011,0002,2022_Mar_03_1422,localizer,2021.1.3,60.00409229628445,
block,objects,objects017.bmp,,,,,0,130,130,130,,,,,,,,,,,,,,,,,,,,,,,,,,,,,,,,,,,,,,,,,,None,,629.4511418700451,None,629.4511418700451,None,2022-03-03-14:33:10.428607,629.4552702000365,629.7651361000026,629.4552702000365,None,None,629.4552702000365,None,630.2653138699709,None,,,,11011,0002,2022_Mar_03_1422,localizer,2021.1.3,60.00409229628445,
block,objects,objects031.bmp,,,,,0,131,131,131,,,,,,,,,,,,,,,,,,,,,,,,,,,,,,,,,,,,,,,,,,None,,630.2653138699709,None,630.2653138699709,None,2022-03-03-14:33:11.240174,630.2656879000133,630.5809417000273,630.2656879000133,None,None,630.2656879000133,None,631.0807765699458,None,,,,11011,0002,2022_Mar_03_1422,localizer,2021.1.3,60.00409229628445,
block,objects,objects012.bmp,,,,,0,132,132,132,,,,,,,,,,,,,,,,,,,,,,,,,,,,,,,,,,,,,,,,,,None,,631.0807765699458,None,631.0807765699458,None,2022-03-03-14:33:12.054482,631.082106799935,631.3807882999536,631.082106799935,None,None,631.082106799935,None,631.881802170002,None,,,,11011,0002,2022_Mar_03_1422,localizer,2021.1.3,60.00409229628445,
block,objects,objects006.bmp,,,,,0,133,133,133,,,,,,,,,,,,,,,,,,,,,,,,,,,,,,,,,,,,,,,,,,None,,631.881802170002,None,631.881802170002,None,2022-03-03-14:33:12.858685,631.8847621999448,632.1976214000024,631.8847621999448,631.8847621999448,None,631.8847621999448,631.8847621999448,632.6991699699313,None,,,,11011,0002,2022_Mar_03_1422,localizer,2021.1.3,60.00409229628445,
block,objects,objects068.bmp,,,,,0,134,134,134,,,,,,,,,,,,,,,,,,,,,,,,,,,,,,,,,,,,,,,,,,None,,632.6991699699313,None,632.6991699699313,None,2022-03-03-14:33:13.675799,632.7017976000207,633.0147182999644,632.7017976000207,None,None,632.7017976000207,None,633.5158503699815,None,,,,11011,0002,2022_Mar_03_1422,localizer,2021.1.3,60.00409229628445,
block,objects,objects008.bmp,,,,,0,135,135,135,,,,,,,,,,,,,,,,,,,,,,,,,,,,,,,,,,,,,,,,,,None,,633.5158503699815,None,633.5158503699815,None,2022-03-03-14:33:14.493588,633.5306435000384,633.8312027000356,633.5306435000384,None,None,633.5306435000384,None,634.3312392699765,None,,,,11011,0002,2022_Mar_03_1422,localizer,2021.1.3,60.00409229628445,
block_end,objects,objects037.bmp,,,,,0,136,136,136,,,,,,,,,,,,,,,,,,,,,,,,,,,,,,,,,,,,,,,,,,None,,634.3312392699765,None,634.3312392699765,None,2022-03-03-14:33:15.304912,634.3404292999767,634.6486029999796,634.3404292999767,None,None,634.3404292999767,None,635.1485525699566,None,,,,11011,0002,2022_Mar_03_1422,localizer,2021.1.3,60.00409229628445,
null_block,null_block,null_block.bmp,,,,,0,137,137,137,,,,,,,,,,,,,,,,,,,,,,,,,,,,,,,,,,,,,,,,,,t,1.7615970999468118,635.1484971999889,None,635.1484971999889,None,2022-03-03-14:33:17.903928,636.9312236699509,None,636.9312236699509,None,None,636.9312236699509,None,636.9335474999389,None,,,,11011,0002,2022_Mar_03_1422,localizer,2021.1.3,60.00409229628445,
block_start,faces,faces086.bmp,,,,,0,138,138,138,,,,,,,,,,,,,,,,,,,,,,,,,,,,,,,,,,,,,,,,,,t,1.9611604999518022,648.9480295999674,None,648.9480295999674,None,2022-03-03-14:33:31.910209,650.9456479999935,651.2477830999997,650.9456479999935,None,None,650.9456479999935,None,651.7379235700239,None,,,,11011,0002,2022_Mar_03_1422,localizer,2021.1.3,60.00409229628445,
block,faces,faces057.bmp,,,,,0,139,139,139,,,,,,,,,,,,,,,,,,,,,,,,,,,,,,,,,,,,,,,,,,None,,651.7379235700239,None,651.7379235700239,None,2022-03-03-14:33:32.715508,651.742291099974,652.0478755999357,651.742291099974,None,None,651.742291099974,None,652.5480116699357,None,,,,11011,0002,2022_Mar_03_1422,localizer,2021.1.3,60.00409229628445,
block,faces,faces063.bmp,,,,,0,140,140,140,,,,,,,,,,,,,,,,,,,,,,,,,,,,,,,,,,,,,,,,,,None,,652.5480116699357,None,652.5480116699357,None,2022-03-03-14:33:33.522236,652.5488409999525,652.8480668000411,652.5488409999525,None,None,652.5488409999525,None,653.3492272700416,None,,,,11011,0002,2022_Mar_03_1422,localizer,2021.1.3,60.00409229628445,
block,faces,faces002.bmp,,,,,0,141,141,141,,,,,,,,,,,,,,,,,,,,,,,,,,,,,,,,,,,,,,,,,,None,,653.3492272700416,None,653.3492272700416,None,2022-03-03-14:33:34.326905,653.3530285999877,653.6644616000121,653.3530285999877,653.3530285999877,None,653.3530285999877,653.3530285999877,654.1654630699661,None,,,,11011,0002,2022_Mar_03_1422,localizer,2021.1.3,60.00409229628445,
block,faces,faces013.bmp,,,,,0,142,142,142,,,,,,,,,,,,,,,,,,,,,,,,,,,,,,,,,,,,,,,,,,None,,654.1654630699661,None,654.1654630699661,None,2022-03-03-14:33:35.140339,654.1772002000362,654.4816120000323,654.1772002000362,None,None,654.1772002000362,None,654.981807070016,None,,,,11011,0002,2022_Mar_03_1422,localizer,2021.1.3,60.00409229628445,
block,faces,faces047.bmp,,,,,0,143,143,143,,,,,,,,,,,,,,,,,,,,,,,,,,,,,,,,,,,,,,,,,,None,,654.981807070016,None,654.981807070016,None,2022-03-03-14:33:35.955535,654.9824031000026,655.2816036000149,654.9824031000026,None,None,654.9824031000026,None,655.7814370700391,None,,,,11011,0002,2022_Mar_03_1422,localizer,2021.1.3,60.00409229628445,
block,faces,faces035.bmp,,,,,0,144,144,144,,,,,,,,,,,,,,,,,,,,,,,,,,,,,,,,,,,,,,,,,,None,,655.7814370700391,None,655.7814370700391,None,2022-03-03-14:33:36.756139,655.7897234000266,656.0978892999701,655.7897234000266,655.7897234000266,None,655.7897234000266,655.7897234000266,656.5987246699399,None,,,,11011,0002,2022_Mar_03_1422,localizer,2021.1.3,60.00409229628445,
block,faces,faces065.bmp,,,,,0,145,145,145,,,,,,,,,,,,,,,,,,,,,,,,,,,,,,,,,,,,,,,,,,None,,656.5987246699399,None,656.5987246699399,None,2022-03-03-14:33:37.573599,656.5992260000203,656.9146148000145,656.5992260000203,None,None,656.5992260000203,None,657.4016347700265,None,,,,11011,0002,2022_Mar_03_1422,localizer,2021.1.3,60.00409229628445,
block,faces,faces077.bmp,,,,,0,146,146,146,,,,,,,,,,,,,,,,,,,,,,,,,,,,,,,,,,,,,,,,,,None,,657.4016347700265,None,657.4016347700265,None,2022-03-03-14:33:38.386374,657.4229482000228,657.7320993000176,657.4229482000228,657.4229482000228,None,657.4229482000228,657.4229482000228,658.2146868700395,None,,,,11011,0002,2022_Mar_03_1422,localizer,2021.1.3,60.00409229628445,
block,faces,faces018.bmp,,,,,0,147,147,147,,,,,,,,,,,,,,,,,,,,,,,,,,,,,,,,,,,,,,,,,,None,,658.2146868700395,None,658.2146868700395,None,2022-03-03-14:33:39.188392,658.2154382000444,658.5145180999534,658.2154382000444,None,None,658.2154382000444,None,659.0149767699652,None,,,,11011,0002,2022_Mar_03_1422,localizer,2021.1.3,60.00409229628445,
block,faces,faces004.bmp,,,,,0,148,148,148,,,,,,,,,,,,,,,,,,,,,,,,,,,,,,,,,,,,,,,,,,None,,659.0149767699652,None,659.0149767699652,None,2022-03-03-14:33:39.991859,659.0176964999409,659.3313302999595,659.0176964999409,659.0176964999409,None,659.0176964999409,659.0176964999409,659.8314058699646,None,,,,11011,0002,2022_Mar_03_1422,localizer,2021.1.3,60.00409229628445,
block,faces,faces006.bmp,,,,,0,149,149,149,,,,,,,,,,,,,,,,,,,,,,,,,,,,,,,,,,,,,,,,,,None,,659.8314058699646,None,659.8314058699646,None,2022-03-03-14:33:40.805365,659.8322848000098,660.131325299968,659.8322848000098,None,None,659.8322848000098,None,660.6316377700307,None,,,,11011,0002,2022_Mar_03_1422,localizer,2021.1.3,60.00409229628445,
block,faces,faces064.bmp,,,,,0,150,150,150,,,,,,,,,,,,,,,,,,,,,,,,,,,,,,,,,,,,,,,,,,None,,660.6316377700307,None,660.6316377700307,None,2022-03-03-14:33:41.608454,660.634264399996,660.9479067999637,660.634264399996,660.634264399996,None,660.634264399996,660.634264399996,661.4477045699489,None,,,,11011,0002,2022_Mar_03_1422,localizer,2021.1.3,60.00409229628445,
block,faces,faces053.bmp,,,,,0,151,151,151,,,,,,,,,,,,,,,,,,,,,,,,,,,,,,,,,,,,,,,,,,None,,661.4477045699489,None,661.4477045699489,None,2022-03-03-14:33:42.421231,661.4491137999576,661.764504199964,661.4491137999576,None,None,661.4491137999576,None,662.2649149699603,None,,,,11011,0002,2022_Mar_03_1422,localizer,2021.1.3,60.00409229628445,
block_end,faces,faces068.bmp,,,,,0,152,152,152,,,,,,,,,,,,,,,,,,,,,,,,,,,,,,,,,,,,,,,,,,None,,662.2649149699603,None,662.2649149699603,None,2022-03-03-14:33:43.238618,662.2655893999618,662.5648104000138,662.2655893999618,None,None,662.2655893999618,None,663.0648077700055,None,,,,11011,0002,2022_Mar_03_1422,localizer,2021.1.3,60.00409229628445,
block_start,scenes,scenes070.bmp,,,,,0,153,153,153,,,,,,,,,,,,,,,,,,,,,,,,,,,,,,,,,,,,,,,,,,t,1.8445183000294492,663.0644664999563,None,663.0644664999563,None,2022-03-03-14:33:45.904170,664.9325684999349,665.2319513999391,664.9325684999349,None,None,664.9325684999349,None,665.7328546699603,None,,,,11011,0002,2022_Mar_03_1422,localizer,2021.1.3,60.00409229628445,
block,scenes,scenes075.bmp,,,,,0,154,154,154,,,,,,,,,,,,,,,,,,,,,,,,,,,,,,,,,,,,,,,,,,None,,665.7328546699603,None,665.7328546699603,None,2022-03-03-14:33:46.710719,665.7485887999646,666.0480362999951,665.7485887999646,665.7485887999646,None,665.7485887999646,665.7485887999646,666.5481835699641,None,,,,11011,0002,2022_Mar_03_1422,localizer,2021.1.3,60.00409229628445,
block,scenes,scenes012.bmp,,,,,0,155,155,155,,,,,,,,,,,,,,,,,,,,,,,,,,,,,,,,,,,,,,,,,,None,,666.5481835699641,None,666.5481835699641,None,2022-03-03-14:33:47.521888,666.5489494999638,666.8647004000377,666.5489494999638,None,None,666.5489494999638,None,667.3480704699643,None,,,,11011,0002,2022_Mar_03_1422,localizer,2021.1.3,60.00409229628445,
block,scenes,scenes050.bmp,,,,,0,156,156,156,,,,,,,,,,,,,,,,,,,,,,,,,,,,,,,,,,,,,,,,,,None,,667.3480704699643,None,667.3480704699643,None,2022-03-03-14:33:48.322781,667.3489132999675,667.6487533999607,667.3489132999675,667.3489132999675,None,667.3489132999675,667.3489132999675,668.1645353700035,None,,,,11011,0002,2022_Mar_03_1422,localizer,2021.1.3,60.00409229628445,
block,scenes,scenes087.bmp,,,,,0,157,157,157,,,,,,,,,,,,,,,,,,,,,,,,,,,,,,,,,,,,,,,,,,None,,668.1645353700035,None,668.1645353700035,None,2022-03-03-14:33:49.138244,668.1657367999433,668.4813053000253,668.1657367999433,None,None,668.1657367999433,None,668.9670910699526,None,,,,11011,0002,2022_Mar_03_1422,localizer,2021.1.3,60.00409229628445,
block,scenes,scenes037.bmp,,,,,0,158,158,158,,,,,,,,,,,,,,,,,,,,,,,,,,,,,,,,,,,,,,,,,,None,,668.9670910699526,None,668.9670910699526,None,2022-03-03-14:33:49.944312,668.9708360999357,669.2817240000004,668.9708360999357,668.9708360999357,None,668.9708360999357,668.9708360999357,669.7822234699736,None,,,,11011,0002,2022_Mar_03_1422,localizer,2021.1.3,60.00409229628445,
block,scenes,scenes064.bmp,,,,,0,159,159,159,,,,,,,,,,,,,,,,,,,,,,,,,,,,,,,,,,,,,,,,,,None,,669.7822234699736,None,669.7822234699736,None,2022-03-03-14:33:50.757086,669.784114500042,670.0983589999378,669.784114500042,None,None,669.784114500042,None,670.5982013700298,None,,,,11011,0002,2022_Mar_03_1422,localizer,2021.1.3,60.00409229628445,
block,scenes,scenes027.bmp,,,,,0,160,160,160,,,,,,,,,,,,,,,,,,,,,,,,,,,,,,,,,,,,,,,,,,None,,670.5982013700298,None,670.5982013700298,None,2022-03-03-14:33:51.571929,670.5989610999823,670.89806269994,670.5989610999823,None,None,670.5989610999823,None,671.3985432700022,None,,,,11011,0002,2022_Mar_03_1422,localizer,2021.1.3,60.00409229628445,
block,scenes,scenes080.bmp,,,,,0,161,161,161,,,,,,,,,,,,,,,,,,,,,,,,,,,,,,,,,,,,,,,,,,None,,671.3985432700022,None,671.3985432700022,None,2022-03-03-14:33:52.374144,671.4012067000149,671.7150238000322,671.4012067000149,671.4012067000149,None,671.4012067000149,671.4012067000149,672.2153968699743,None,,,,11011,0002,2022_Mar_03_1422,localizer,2021.1.3,60.00409229628445,
block,scenes,scenes090.bmp,,,,,0,162,162,162,,,,,,,,,,,,,,,,,,,,,,,,,,,,,,,,,,,,,,,,,,None,,672.2153968699743,None,672.2153968699743,None,2022-03-03-14:33:53.190275,672.2172580999322,672.5319455999415,672.2172580999322,None,None,672.2172580999322,None,673.0321387700271,None,,,,11011,0002,2022_Mar_03_1422,localizer,2021.1.3,60.00409229628445,
block,scenes,scenes004.bmp,,,,,0,163,163,163,,,,,,,,,,,,,,,,,,,,,,,,,,,,,,,,,,,,,,,,,,None,,673.0321387700271,None,673.0321387700271,None,2022-03-03-14:33:54.006810,673.0334737999365,673.3487030999968,673.0334737999365,None,None,673.0334737999365,None,673.8485250699334,None,,,,11011,0002,2022_Mar_03_1422,localizer,2021.1.3,60.00409229628445,
block,scenes,scenes082.bmp,,,,,0,164,164,164,,,,,,,,,,,,,,,,,,,,,,,,,,,,,,,,,,,,,,,,,,None,,673.8485250699334,None,673.8485250699334,None,2022-03-03-14:33:54.824076,673.861126099946,674.1651841000421,673.861126099946,None,None,673.861126099946,None,674.6654840700096,None,,,,11011,0002,2022_Mar_03_1422,localizer,2021.1.3,60.00409229628445,
block,scenes,scenes036.bmp,,,,,0,165,165,165,,,,,,,,,,,,,,,,,,,,,,,,,,,,,,,,,,,,,,,,,,None,,674.6654840700096,None,674.6654840700096,None,2022-03-03-14:33:55.641129,674.6682584999362,674.980998700019,674.6682584999362,None,None,674.6682584999362,None,675.4812535699923,None,,,,11011,0002,2022_Mar_03_1422,localizer,2021.1.3,60.00409229628445,
block,scenes,scenes014.bmp,,,,,0,166,166,166,,,,,,,,,,,,,,,,,,,,,,,,,,,,,,,,,,,,,,,,,,None,,675.4812535699923,None,675.4812535699923,None,2022-03-03-14:33:56.455200,675.4822434999514,675.7817248000065,675.4822434999514,None,None,675.4822434999514,None,676.28226277004,None,,,,11011,0002,2022_Mar_03_1422,localizer,2021.1.3,60.00409229628445,
block_end,scenes,scenes055.bmp,,,,,0,167,167,167,,,,,,,,,,,,,,,,,,,,,,,,,,,,,,,,,,,,,,,,,,None,,676.28226277004,None,676.28226277004,None,2022-03-03-14:33:57.259128,676.2854000999359,676.5988603000296,676.2854000999359,676.2854000999359,None,676.2854000999359,676.2854000999359,677.0983264699346,None,,,,11011,0002,2022_Mar_03_1422,localizer,2021.1.3,60.00409229628445,
block_start,scrambled,scrambled043.bmp,,,,,0,168,168,168,,,,,,,,,,,,,,,,,,,,,,,,,,,,,,,,,,,,,,,,,,t,1.8105425999965519,677.0983455999522,None,677.0983455999522,None,2022-03-03-14:33:59.904389,678.9323479000013,679.2313121999614,678.9323479000013,None,None,678.9323479000013,None,679.7315805700375,None,,,,11011,0002,2022_Mar_03_1422,localizer,2021.1.3,60.00409229628445,
block,scrambled,scrambled061.bmp,,,,,0,169,169,169,,,,,,,,,,,,,,,,,,,,,,,,,,,,,,,,,,,,,,,,,,None,,679.7315805700375,None,679.7315805700375,None,2022-03-03-14:34:00.707282,679.743589199963,680.0481095999712,679.743589199963,679.743589199963,None,679.743589199963,679.743589199963,680.548283570027,None,,,,11011,0002,2022_Mar_03_1422,localizer,2021.1.3,60.00409229628445,
block,scrambled,scrambled069.bmp,,,,,0,170,170,170,,,,,,,,,,,,,,,,,,,,,,,,,,,,,,,,,,,,,,,,,,None,,680.548283570027,None,680.548283570027,None,2022-03-03-14:34:01.521987,680.5581113999942,680.8649340999546,680.5581113999942,None,None,680.5581113999942,None,681.3654707699782,None,,,,11011,0002,2022_Mar_03_1422,localizer,2021.1.3,60.00409229628445,
block,scrambled,scrambled060.bmp,,,,,0,171,171,171,,,,,,,,,,,,,,,,,,,,,,,,,,,,,,,,,,,,,,,,,,None,,681.3654707699782,None,681.3654707699782,None,2022-03-03-14:34:02.340337,681.3674436999718,681.6822325999383,681.3674436999718,None,None,681.3674436999718,None,682.1821579699638,None,,,,11011,0002,2022_Mar_03_1422,localizer,2021.1.3,60.00409229628445,
block,scrambled,scrambled046.bmp,,,,,0,172,172,172,,,,,,,,,,,,,,,,,,,,,,,,,,,,,,,,,,,,,,,,,,None,,682.1821579699638,None,682.1821579699638,None,2022-03-03-14:34:03.156927,682.1839400000172,682.4988942999626,682.1839400000172,None,None,682.1839400000172,None,682.9989750700072,None,,,,11011,0002,2022_Mar_03_1422,localizer,2021.1.3,60.00409229628445,
block,scrambled,scrambled068.bmp,,,,,0,173,173,173,,,,,,,,,,,,,,,,,,,,,,,,,,,,,,,,,,,,,,,,,,None,,682.9989750700072,None,682.9989750700072,None,2022-03-03-14:34:03.973862,683.001063899952,683.3154649999924,683.001063899952,None,None,683.001063899952,None,683.8161809699843,None,,,,11011,0002,2022_Mar_03_1422,localizer,2021.1.3,60.00409229628445,
block,scrambled,scrambled068.bmp,,,,,0,174,174,174,,,,,,,,,,,,,,,,,,,,,,,,,,,,,,,,,,,,,,,,,,None,,683.8161809699843,None,683.8161809699843,None,2022-03-03-14:34:04.791951,683.8191649999935,684.1319044999545,683.8191649999935,None,y,683.8191649999935,None,684.6313293700107,None,0.44575900002382696,,,11011,0002,2022_Mar_03_1422,localizer,2021.1.3,60.00409229628445,
block,scrambled,scrambled005.bmp,,,,,0,175,175,175,,,,,,,,,,,,,,,,,,,,,,,,,,,,,,,,,,,,,,,,,,None,,684.6313293700107,None,684.6313293700107,None,2022-03-03-14:34:05.605039,684.632612699992,684.9518698999891,684.632612699992,None,None,684.632612699992,None,685.448207269935,None,,,,11011,0002,2022_Mar_03_1422,localizer,2021.1.3,60.00409229628445,
block,scrambled,scrambled006.bmp,,,,,0,176,176,176,,,,,,,,,,,,,,,,,,,,,,,,,,,,,,,,,,,,,,,,,,None,,685.448207269935,None,685.448207269935,None,2022-03-03-14:34:06.421916,685.4538980999496,685.7647666999837,685.4538980999496,None,None,685.4538980999496,None,686.2653796700063,None,,,,11011,0002,2022_Mar_03_1422,localizer,2021.1.3,60.00409229628445,
block,scrambled,scrambled048.bmp,,,,,0,177,177,177,,,,,,,,,,,,,,,,,,,,,,,,,,,,,,,,,,,,,,,,,,None,,686.2653796700063,None,686.2653796700063,None,2022-03-03-14:34:07.240260,686.2657345000189,686.5646018999396,686.2657345000189,None,None,686.2657345000189,None,687.0650048699929,None,,,,11011,0002,2022_Mar_03_1422,localizer,2021.1.3,60.00409229628445,
block,scrambled,scrambled023.bmp,,,,,0,178,178,178,,,,,,,,,,,,,,,,,,,,,,,,,,,,,,,,,,,,,,,,,,None,,687.0650048699929,None,687.0650048699929,None,2022-03-03-14:34:08.040707,687.077128999983,687.382743199938,687.077128999983,687.077128999983,None,687.077128999983,687.077128999983,687.8822994699469,None,,,,11011,0002,2022_Mar_03_1422,localizer,2021.1.3,60.00409229628445,
block,scrambled,scrambled035.bmp,,,,,0,179,179,179,,,,,,,,,,,,,,,,,,,,,,,,,,,,,,,,,,,,,,,,,,None,,687.8822994699469,None,687.8822994699469,None,2022-03-03-14:34:08.857173,687.8845376999816,688.1978671000106,687.8845376999816,None,None,687.8845376999816,None,688.6984541699524,None,,,,11011,0002,2022_Mar_03_1422,localizer,2021.1.3,60.00409229628445,
block,scrambled,scrambled084.bmp,,,,,0,180,180,180,,,,,,,,,,,,,,,,,,,,,,,,,,,,,,,,,,,,,,,,,,None,,688.6984541699524,None,688.6984541699524,None,2022-03-03-14:34:09.672112,688.6990414999891,688.9985808000201,688.6990414999891,None,None,688.6990414999891,None,689.5146271699807,None,,,,11011,0002,2022_Mar_03_1422,localizer,2021.1.3,60.00409229628445,
block,scrambled,scrambled017.bmp,,,,,0,181,181,181,,,,,,,,,,,,,,,,,,,,,,,,,,,,,,,,,,,,,,,,,,None,,689.5146271699807,None,689.5146271699807,None,2022-03-03-14:34:10.488338,689.5157391999383,689.8150606999407,689.5157391999383,None,None,689.5157391999383,None,690.3149188700365,None,,,,11011,0002,2022_Mar_03_1422,localizer,2021.1.3,60.00409229628445,
block_end,scrambled,scrambled051.bmp,,,,,0,182,182,182,,,,,,,,,,,,,,,,,,,,,,,,,,,,,,,,,,,,,,,,,,None,,690.3149188700365,None,690.3149188700365,None,2022-03-03-14:34:11.290641,690.3176083000144,690.6173093999969,690.3176083000144,690.3176083000144,None,690.3176083000144,690.3176083000144,691.1315469700378,None,,,,11011,0002,2022_Mar_03_1422,localizer,2021.1.3,60.00409229628445,
block_start,faces,faces079.bmp,,,,,0,183,183,183,,,,,,,,,,,,,,,,,,,,,,,,,,,,,,,,,,,,,,,,,,t,1.7777832999126986,691.1311491000233,None,691.1311491000233,None,2022-03-03-14:34:13.904291,692.9402696000179,693.2483067000285,692.9402696000179,None,None,692.9402696000179,None,693.7483092699433,None,,,,11011,0002,2022_Mar_03_1422,localizer,2021.1.3,60.00409229628445,
block,faces,faces075.bmp,,,,,0,184,184,184,,,,,,,,,,,,,,,,,,,,,,,,,,,,,,,,,,,,,,,,,,None,,693.7483092699433,None,693.7483092699433,None,2022-03-03-14:34:14.722165,693.7489809000399,694.0481506999349,693.7489809000399,None,None,693.7489809000399,None,694.5485108700116,None,,,,11011,0002,2022_Mar_03_1422,localizer,2021.1.3,60.00409229628445,
block,faces,faces081.bmp,,,,,0,185,185,185,,,,,,,,,,,,,,,,,,,,,,,,,,,,,,,,,,,,,,,,,,None,,694.5485108700116,None,694.5485108700116,None,2022-03-03-14:34:15.524416,694.562805900001,694.8651274000295,694.562805900001,694.562805900001,None,694.562805900001,694.562805900001,695.3655579699437,None,,,,11011,0002,2022_Mar_03_1422,localizer,2021.1.3,60.00409229628445,
block,faces,faces085.bmp,,,,,0,186,186,186,,,,,,,,,,,,,,,,,,,,,,,,,,,,,,,,,,,,,,,,,,None,,695.3655579699437,None,695.3655579699437,None,2022-03-03-14:34:16.340255,695.3767101999838,695.6819176999852,695.3767101999838,None,None,695.3767101999838,None,696.1817116699415,None,,,,11011,0002,2022_Mar_03_1422,localizer,2021.1.3,60.00409229628445,
block,faces,faces060.bmp,,,,,0,187,187,187,,,,,,,,,,,,,,,,,,,,,,,,,,,,,,,,,,,,,,,,,,None,,696.1817116699415,None,696.1817116699415,None,2022-03-03-14:34:17.155460,696.1915305999573,696.4983081000391,696.1915305999573,None,None,696.1915305999573,None,696.9878064699471,None,,,,11011,0002,2022_Mar_03_1422,localizer,2021.1.3,60.00409229628445,
block,faces,faces042.bmp,,,,,0,188,188,188,,,,,,,,,,,,,,,,,,,,,,,,,,,,,,,,,,,,,,,,,,None,,696.9878064699471,None,696.9878064699471,None,2022-03-03-14:34:17.970364,696.9945831999648,697.2979710999643,696.9945831999648,None,None,696.9945831999648,None,697.798375170026,None,,,,11011,0002,2022_Mar_03_1422,localizer,2021.1.3,60.00409229628445,
block,faces,faces034.bmp,,,,,0,189,189,189,,,,,,,,,,,,,,,,,,,,,,,,,,,,,,,,,,,,,,,,,,None,,697.798375170026,None,697.798375170026,None,2022-03-03-14:34:18.772717,697.809338000021,698.1153799999738,697.809338000021,None,None,697.809338000021,None,698.6161296699895,None,,,,11011,0002,2022_Mar_03_1422,localizer,2021.1.3,60.00409229628445,
block,faces,faces051.bmp,,,,,0,190,190,190,,,,,,,,,,,,,,,,,,,,,,,,,,,,,,,,,,,,,,,,,,None,,698.6161296699895,None,698.6161296699895,None,2022-03-03-14:34:19.590992,698.6304002000252,698.931409999961,698.6304002000252,None,None,698.6304002000252,None,699.4384269699688,None,,,,11011,0002,2022_Mar_03_1422,localizer,2021.1.3,60.00409229628445,
block,faces,faces021.bmp,,,,,0,191,191,191,,,,,,,,,,,,,,,,,,,,,,,,,,,,,,,,,,,,,,,,,,None,,699.4384269699688,None,699.4384269699688,None,2022-03-03-14:34:20.419923,699.4478847000282,699.7489769000094,699.4478847000282,None,None,699.4478847000282,None,700.2480294700247,None,,,,11011,0002,2022_Mar_03_1422,localizer,2021.1.3,60.00409229628445,
block,faces,faces010.bmp,,,,,0,192,192,192,,,,,,,,,,,,,,,,,,,,,,,,,,,,,,,,,,,,,,,,,,None,,700.2480294700247,None,700.2480294700247,None,2022-03-03-14:34:21.220658,700.2491260999814,700.5647193000186,700.2491260999814,None,None,700.2491260999814,None,701.0483158700401,None,,,,11011,0002,2022_Mar_03_1422,localizer,2021.1.3,60.00409229628445,
block,faces,faces017.bmp,,,,,0,193,193,193,,,,,,,,,,,,,,,,,,,,,,,,,,,,,,,,,,,,,,,,,,None,,701.0483158700401,None,701.0483158700401,None,2022-03-03-14:34:22.023023,701.0593642999884,701.3650154999923,701.0593642999884,701.0593642999884,None,701.0593642999884,701.0593642999884,701.865281769936,None,,,,11011,0002,2022_Mar_03_1422,localizer,2021.1.3,60.00409229628445,
block,faces,faces007.bmp,,,,,0,194,194,194,,,,,,,,,,,,,,,,,,,,,,,,,,,,,,,,,,,,,,,,,,None,,701.865281769936,None,701.865281769936,None,2022-03-03-14:34:22.839192,701.8661000999855,702.1812720999587,701.8661000999855,None,None,701.8661000999855,None,702.6817038699985,None,,,,11011,0002,2022_Mar_03_1422,localizer,2021.1.3,60.00409229628445,
block,faces,faces056.bmp,,,,,0,195,195,195,,,,,,,,,,,,,,,,,,,,,,,,,,,,,,,,,,,,,,,,,,None,,702.6817038699985,None,702.6817038699985,None,2022-03-03-14:34:23.655418,702.6916533999611,702.998627300025,702.6916533999611,None,None,702.6916533999611,None,703.4996706699487,None,,,,11011,0002,2022_Mar_03_1422,localizer,2021.1.3,60.00409229628445,
block,faces,faces057.bmp,,,,,0,196,196,196,,,,,,,,,,,,,,,,,,,,,,,,,,,,,,,,,,,,,,,,,,None,,703.4996706699487,None,703.4996706699487,None,2022-03-03-14:34:24.475522,703.5018358000088,703.8147680000402,703.5018358000088,None,None,703.5018358000088,None,704.3156637700042,None,,,,11011,0002,2022_Mar_03_1422,localizer,2021.1.3,60.00409229628445,
block_end,faces,faces045.bmp,,,,,0,197,197,197,,,,,,,,,,,,,,,,,,,,,,,,,,,,,,,,,,,,,,,,,,None,,704.3156637700042,None,704.3156637700042,None,2022-03-03-14:34:25.290549,704.327929000021,704.6320745999692,704.327929000021,None,None,704.327929000021,None,705.1328803699464,None,,,,11011,0002,2022_Mar_03_1422,localizer,2021.1.3,60.00409229628445,
block_start,scenes,scenes024.bmp,,,,,0,198,198,198,,,,,,,,,,,,,,,,,,,,,,,,,,,,,,,,,,,,,,,,,,t,1.7760521000018343,705.1328808999388,None,705.1328808999388,None,2022-03-03-14:34:27.905025,706.9324759000447,707.2318271000404,706.9324759000447,None,None,706.9324759000447,None,707.733031870029,None,,,,11011,0002,2022_Mar_03_1422,localizer,2021.1.3,60.00409229628445,
block,scenes,scenes057.bmp,,,,,0,199,199,199,,,,,,,,,,,,,,,,,,,,,,,,,,,,,,,,,,,,,,,,,,None,,707.733031870029,None,707.733031870029,None,2022-03-03-14:34:28.710859,707.7372214000206,708.049489099998,707.7372214000206,707.7372214000206,None,707.7372214000206,707.7372214000206,708.5485295700375,None,,,,11011,0002,2022_Mar_03_1422,localizer,2021.1.3,60.00409229628445,
block,scenes,scenes087.bmp,,,,,0,200,200,200,,,,,,,,,,,,,,,,,,,,,,,,,,,,,,,,,,,,,,,,,,None,,708.5485295700375,None,708.5485295700375,None,2022-03-03-14:34:29.522218,708.5492764000082,708.8489064000314,708.5492764000082,None,None,708.5492764000082,None,709.3491750699934,None,,,,11011,0002,2022_Mar_03_1422,localizer,2021.1.3,60.00409229628445,
block,scenes,scenes074.bmp,,,,,0,201,201,201,,,,,,,,,,,,,,,,,,,,,,,,,,,,,,,,,,,,,,,,,,None,,709.3491750699934,None,709.3491750699934,None,2022-03-03-14:34:30.325943,709.3635025999974,709.6655704999575,709.3635025999974,709.3635025999974,None,709.3635025999974,709.3635025999974,710.1652260700241,None,,,,11011,0002,2022_Mar_03_1422,localizer,2021.1.3,60.00409229628445,
block,scenes,scenes006.bmp,,,,,0,202,202,202,,,,,,,,,,,,,,,,,,,,,,,,,,,,,,,,,,,,,,,,,,None,,710.1652260700241,None,710.1652260700241,None,2022-03-03-14:34:31.138934,710.174780100002,710.4817964000395,710.174780100002,None,None,710.174780100002,None,710.9815219699406,None,,,,11011,0002,2022_Mar_03_1422,localizer,2021.1.3,60.00409229628445,
block,scenes,scenes034.bmp,,,,,0,203,203,203,,,,,,,,,,,,,,,,,,,,,,,,,,,,,,,,,,,,,,,,,,None,,710.9815219699406,None,710.9815219699406,None,2022-03-03-14:34:31.955244,710.9896905999631,711.2984983000206,710.9896905999631,None,None,710.9896905999631,None,711.799026669981,None,,,,11011,0002,2022_Mar_03_1422,localizer,2021.1.3,60.00409229628445,
block,scenes,scenes051.bmp,,,,,0,204,204,204,,,,,,,,,,,,,,,,,,,,,,,,,,,,,,,,,,,,,,,,,,None,,711.799026669981,None,711.799026669981,None,2022-03-03-14:34:32.773907,711.8123992999317,712.1149613000453,711.8123992999317,None,None,711.8123992999317,None,712.6157871699427,None,,,,11011,0002,2022_Mar_03_1422,localizer,2021.1.3,60.00409229628445,
block,scenes,scenes015.bmp,,,,,0,205,205,205,,,,,,,,,,,,,,,,,,,,,,,,,,,,,,,,,,,,,,,,,,None,,712.6157871699427,None,712.6157871699427,None,2022-03-03-14:34:33.590487,712.6172856999328,712.9323665000265,712.6172856999328,None,None,712.6172856999328,None,713.4329927700339,None,,,,11011,0002,2022_Mar_03_1422,localizer,2021.1.3,60.00409229628445,
block,scenes,scenes035.bmp,,,,,0,206,206,206,,,,,,,,,,,,,,,,,,,,,,,,,,,,,,,,,,,,,,,,,,None,,713.4329927700339,None,713.4329927700339,None,2022-03-03-14:34:34.407866,713.4458514000289,713.7490118000424,713.4458514000289,None,None,713.4458514000289,None,714.2489075699589,None,,,,11011,0002,2022_Mar_03_1422,localizer,2021.1.3,60.00409229628445,
block,scenes,scenes002.bmp,,,,,0,207,207,207,,,,,,,,,,,,,,,,,,,,,,,,,,,,,,,,,,,,,,,,,,None,,714.2489075699589,None,714.2489075699589,None,2022-03-03-14:34:35.223829,714.2566492999904,714.5647982000373,714.2566492999904,None,None,714.2566492999904,None,715.0651694699657,None,,,,11011,0002,2022_Mar_03_1422,localizer,2021.1.3,60.00409229628445,
block,scenes,scenes091.bmp,,,,,0,208,208,208,,,,,,,,,,,,,,,,,,,,,,,,,,,,,,,,,,,,,,,,,,None,,715.0651694699657,None,715.0651694699657,None,2022-03-03-14:34:36.039109,715.0759352999739,715.3815785000334,715.0759352999739,None,None,715.0759352999739,None,715.8818515700289,None,,,,11011,0002,2022_Mar_03_1422,localizer,2021.1.3,60.00409229628445,
block,scenes,scenes014.bmp,,,,,0,209,209,209,,,,,,,,,,,,,,,,,,,,,,,,,,,,,,,,,,,,,,,,,,None,,715.8818515700289,None,715.8818515700289,None,2022-03-03-14:34:36.855695,715.8825494999764,716.1983140000375,715.8825494999764,None,None,715.8825494999764,None,716.6819075700362,None,,,,11011,0002,2022_Mar_03_1422,localizer,2021.1.3,60.00409229628445,
block,scenes,scenes004.bmp,,,,,0,210,210,210,,,,,,,,,,,,,,,,,,,,,,,,,,,,,,,,,,,,,,,,,,None,,716.6819075700362,None,716.6819075700362,None,2022-03-03-14:34:37.657628,716.6830796999857,716.9822595999576,716.6830796999857,716.6830796999857,None,716.6830796999857,716.6830796999857,717.4984632699518,None,,,,11011,0002,2022_Mar_03_1422,localizer,2021.1.3,60.00409229628445,
block,scenes,scenes013.bmp,,,,,0,211,211,211,,,,,,,,,,,,,,,,,,,,,,,,,,,,,,,,,,,,,,,,,,None,,717.4984632699518,None,717.4984632699518,None,2022-03-03-14:34:38.471184,717.5064635999734,717.8150772999506,717.5064635999734,None,None,717.5064635999734,None,718.3153832699638,None,,,,11011,0002,2022_Mar_03_1422,localizer,2021.1.3,60.00409229628445,
block_end,scenes,scenes059.bmp,,,,,0,212,212,212,,,,,,,,,,,,,,,,,,,,,,,,,,,,,,,,,,,,,,,,,,None,,718.3153832699638,None,718.3153832699638,None,2022-03-03-14:34:39.289314,718.315871699946,718.6149989999831,718.315871699946,None,None,718.315871699946,None,719.1148928700015,None,,,,11011,0002,2022_Mar_03_1422,localizer,2021.1.3,60.00409229628445,
block_start,objects,objects029.bmp,,,,,0,213,213,213,,,,,,,,,,,,,,,,,,,,,,,,,,,,,,,,,,,,,,,,,,t,1.794276100001298,719.1147741000168,None,719.1147741000168,None,2022-03-03-14:34:41.905656,720.9325754999882,721.2316730000312,720.9325754999882,None,None,720.9325754999882,None,721.7316249700264,None,,,,11011,0002,2022_Mar_03_1422,localizer,2021.1.3,60.00409229628445,
block,objects,objects053.bmp,,,,,0,214,214,214,,,,,,,,,,,,,,,,,,,,,,,,,,,,,,,,,,,,,,,,,,None,,721.7316249700264,None,721.7316249700264,None,2022-03-03-14:34:42.706334,721.7322901999578,722.0316497000167,721.7322901999578,721.7322901999578,None,721.7322901999578,721.7322901999578,722.53187266998,None,,,,11011,0002,2022_Mar_03_1422,localizer,2021.1.3,60.00409229628445,
block,objects,objects043.bmp,,,,,0,215,215,215,,,,,,,,,,,,,,,,,,,,,,,,,,,,,,,,,,,,,,,,,,None,,722.53187266998,None,722.53187266998,None,2022-03-03-14:34:43.507576,722.5345637999708,722.848444400006,722.5345637999708,722.5345637999708,None,722.5345637999708,722.5345637999708,723.3485042700079,None,,,,11011,0002,2022_Mar_03_1422,localizer,2021.1.3,60.00409229628445,
block,objects,objects083.bmp,,,,,0,216,216,216,,,,,,,,,,,,,,,,,,,,,,,,,,,,,,,,,,,,,,,,,,None,,723.3485042700079,None,723.3485042700079,None,2022-03-03-14:34:44.322221,723.3492178999586,723.6484244000167,723.3492178999586,None,None,723.3492178999586,None,724.1498129700078,None,,,,11011,0002,2022_Mar_03_1422,localizer,2021.1.3,60.00409229628445,
block,objects,objects007.bmp,,,,,0,217,217,217,,,,,,,,,,,,,,,,,,,,,,,,,,,,,,,,,,,,,,,,,,None,,724.1498129700078,None,724.1498129700078,None,2022-03-03-14:34:45.127496,724.1537823999533,724.4657015999546,724.1537823999533,724.1537823999533,None,724.1537823999533,724.1537823999533,724.965686269966,None,,,,11011,0002,2022_Mar_03_1422,localizer,2021.1.3,60.00409229628445,
block,objects,objects067.bmp,,,,,0,218,218,218,,,,,,,,,,,,,,,,,,,,,,,,,,,,,,,,,,,,,,,,,,None,,724.965686269966,None,724.965686269966,None,2022-03-03-14:34:45.940571,724.9772817000048,725.2816916999873,724.9772817000048,None,None,724.9772817000048,None,725.781950169988,None,,,,11011,0002,2022_Mar_03_1422,localizer,2021.1.3,60.00409229628445,
block,objects,objects052.bmp,,,,,0,219,219,219,,,,,,,,,,,,,,,,,,,,,,,,,,,,,,,,,,,,,,,,,,None,,725.781950169988,None,725.781950169988,None,2022-03-03-14:34:46.755677,725.782672900008,726.081802599947,725.782672900008,None,None,725.782672900008,None,726.5823366699508,None,,,,11011,0002,2022_Mar_03_1422,localizer,2021.1.3,60.00409229628445,
block,objects,objects085.bmp,,,,,0,220,220,220,,,,,,,,,,,,,,,,,,,,,,,,,,,,,,,,,,,,,,,,,,None,,726.5823366699508,None,726.5823366699508,None,2022-03-03-14:34:47.559122,726.5852497000014,726.8981678000418,726.5852497000014,726.5852497000014,None,726.5852497000014,726.5852497000014,727.3989899700275,None,,,,11011,0002,2022_Mar_03_1422,localizer,2021.1.3,60.00409229628445,
block,objects,objects060.bmp,,,,,0,221,221,221,,,,,,,,,,,,,,,,,,,,,,,,,,,,,,,,,,,,,,,,,,None,,727.3989899700275,None,727.3989899700275,None,2022-03-03-14:34:48.373688,727.4002540999791,727.7156449999893,727.4002540999791,None,None,727.4002540999791,None,728.2154108699644,None,,,,11011,0002,2022_Mar_03_1422,localizer,2021.1.3,60.00409229628445,
block,objects,objects040.bmp,,,,,0,222,222,222,,,,,,,,,,,,,,,,,,,,,,,,,,,,,,,,,,,,,,,,,,None,,728.2154108699644,None,728.2154108699644,None,2022-03-03-14:34:49.189117,728.2160656999331,728.5154045999516,728.2160656999331,None,None,728.2160656999331,None,729.0159768700134,None,,,,11011,0002,2022_Mar_03_1422,localizer,2021.1.3,60.00409229628445,
block,objects,objects069.bmp,,,,,0,223,223,223,,,,,,,,,,,,,,,,,,,,,,,,,,,,,,,,,,,,,,,,,,None,,729.0159768700134,None,729.0159768700134,None,2022-03-03-14:34:49.991690,729.0260922999587,729.3315655000042,729.0260922999587,729.0260922999587,None,729.0260922999587,729.0260922999587,729.8330433699768,None,,,,11011,0002,2022_Mar_03_1422,localizer,2021.1.3,60.00409229628445,
block,objects,objects074.bmp,,,,,0,224,224,224,,,,,,,,,,,,,,,,,,,,,,,,,,,,,,,,,,,,,,,,,,None,,729.8330433699768,None,729.8330433699768,None,2022-03-03-14:34:50.809730,729.846715599997,730.1548695999663,729.846715599997,None,None,729.846715599997,None,730.6487842699746,None,,,,11011,0002,2022_Mar_03_1422,localizer,2021.1.3,60.00409229628445,
block,objects,objects065.bmp,,,,,0,225,225,225,,,,,,,,,,,,,,,,,,,,,,,,,,,,,,,,,,,,,,,,,,None,,730.6487842699746,None,730.6487842699746,None,2022-03-03-14:34:51.623606,730.6493953999598,730.9485994999995,730.6493953999598,None,None,730.6493953999598,None,731.4650798700052,None,,,,11011,0002,2022_Mar_03_1422,localizer,2021.1.3,60.00409229628445,
block,objects,objects028.bmp,,,,,0,226,226,226,,,,,,,,,,,,,,,,,,,,,,,,,,,,,,,,,,,,,,,,,,None,,731.4650798700052,None,731.4650798700052,None,2022-03-03-14:34:52.437864,731.4661223000148,731.7650702999672,731.4661223000148,None,None,731.4661223000148,None,732.2651246700436,None,,,,11011,0002,2022_Mar_03_1422,localizer,2021.1.3,60.00409229628445,
block_end,objects,objects028.bmp,,,,,0,227,227,227,,,,,,,,,,,,,,,,,,,,,,,,,,,,,,,,,,,,,,,,,,None,,732.2651246700436,None,732.2651246700436,None,2022-03-03-14:34:53.240830,732.2661592999939,732.5816334999399,732.2661592999939,732.2661592999939,y,732.2661592999939,732.2661592999939,733.0652322699782,None,0.7427450999384746,,,11011,0002,2022_Mar_03_1422,localizer,2021.1.3,60.00409229628445,
block_start,scrambled,scrambled070.bmp,,,,,0,228,228,228,,,,,,,,,,,,,,,,,,,,,,,,,,,,,,,,,,,,,,,,,,t,1.84438639995642,733.0648714000126,None,733.0648714000126,None,2022-03-03-14:34:55.914117,734.9523142999969,735.2647887000348,734.9523142999969,None,None,734.9523142999969,None,735.7497535699979,None,,,,11011,0002,2022_Mar_03_1422,localizer,2021.1.3,60.00409229628445,
block,scrambled,scrambled009.bmp,,,,,0,229,229,229,,,,,,,,,,,,,,,,,,,,,,,,,,,,,,,,,,,,,,,,,,None,,735.7497535699979,None,735.7497535699979,None,2022-03-03-14:34:56.724445,735.7620158999925,736.0649784000125,735.7620158999925,None,None,735.7620158999925,None,736.5651118699927,None,,,,11011,0002,2022_Mar_03_1422,localizer,2021.1.3,60.00409229628445,
block,scrambled,scrambled046.bmp,,,,,0,230,230,230,,,,,,,,,,,,,,,,,,,,,,,,,,,,,,,,,,,,,,,,,,None,,736.5651118699927,None,736.5651118699927,None,2022-03-03-14:34:57.538820,736.5658609999809,736.8651260000188,736.5658609999809,None,None,736.5658609999809,None,737.365227569989,None,,,,11011,0002,2022_Mar_03_1422,localizer,2021.1.3,60.00409229628445,
block,scrambled,scrambled043.bmp,,,,,0,231,231,231,,,,,,,,,,,,,,,,,,,,,,,,,,,,,,,,,,,,,,,,,,None,,737.365227569989,None,737.365227569989,None,2022-03-03-14:34:58.340936,737.366213100031,737.6657104999758,737.366213100031,737.366213100031,None,737.366213100031,737.366213100031,738.1657534699655,None,,,,11011,0002,2022_Mar_03_1422,localizer,2021.1.3,60.00409229628445,
block,scrambled,scrambled025.bmp,,,,,0,232,232,232,,,,,,,,,,,,,,,,,,,,,,,,,,,,,,,,,,,,,,,,,,None,,738.1657534699655,None,738.1657534699655,None,2022-03-03-14:34:59.143449,738.1694678999484,738.4824431999587,738.1694678999484,738.1694678999484,None,738.1694678999484,738.1694678999484,738.9825647699647,None,,,,11011,0002,2022_Mar_03_1422,localizer,2021.1.3,60.00409229628445,
block,scrambled,scrambled056.bmp,,,,,0,233,233,233,,,,,,,,,,,,,,,,,,,,,,,,,,,,,,,,,,,,,,,,,,None,,738.9825647699647,None,738.9825647699647,None,2022-03-03-14:34:59.957263,738.984153599944,739.2985602000263,738.984153599944,None,None,738.984153599944,None,739.7985549699981,None,,,,11011,0002,2022_Mar_03_1422,localizer,2021.1.3,60.00409229628445,
block,scrambled,scrambled024.bmp,,,,,0,234,234,234,,,,,,,,,,,,,,,,,,,,,,,,,,,,,,,,,,,,,,,,,,None,,739.7985549699981,None,739.7985549699981,None,2022-03-03-14:35:00.772268,739.8078541000141,740.1150705999462,739.8078541000141,None,None,739.8078541000141,None,740.6150912699989,None,,,,11011,0002,2022_Mar_03_1422,localizer,2021.1.3,60.00409229628445,
block,scrambled,scrambled069.bmp,,,,,0,235,235,235,,,,,,,,,,,,,,,,,,,,,,,,,,,,,,,,,,,,,,,,,,None,,740.6150912699989,None,740.6150912699989,None,2022-03-03-14:35:01.588805,740.6160700999899,740.931893800036,740.6160700999899,None,None,740.6160700999899,None,741.4215011699591,None,,,,11011,0002,2022_Mar_03_1422,localizer,2021.1.3,60.00409229628445,
block,scrambled,scrambled034.bmp,,,,,0,236,236,236,,,,,,,,,,,,,,,,,,,,,,,,,,,,,,,,,,,,,,,,,,None,,741.4215011699591,None,741.4215011699591,None,2022-03-03-14:35:02.403170,741.427539999946,741.7317165000131,741.427539999946,None,None,741.427539999946,None,742.2319983699592,None,,,,11011,0002,2022_Mar_03_1422,localizer,2021.1.3,60.00409229628445,
block,scrambled,scrambled007.bmp,,,,,0,237,237,237,,,,,,,,,,,,,,,,,,,,,,,,,,,,,,,,,,,,,,,,,,None,,742.2319983699592,None,742.2319983699592,None,2022-03-03-14:35:03.205931,742.2327175999526,742.5480942999711,742.2327175999526,None,None,742.2327175999526,None,743.0318417699775,None,,,,11011,0002,2022_Mar_03_1422,localizer,2021.1.3,60.00409229628445,
block,scrambled,scrambled060.bmp,,,,,0,238,238,238,,,,,,,,,,,,,,,,,,,,,,,,,,,,,,,,,,,,,,,,,,None,,743.0318417699775,None,743.0318417699775,None,2022-03-03-14:35:04.007550,743.0329712999519,743.3482246999629,743.0329712999519,743.0329712999519,None,743.0329712999519,743.0329712999519,743.8482920700219,None,,,,11011,0002,2022_Mar_03_1422,localizer,2021.1.3,60.00409229628445,
block,scrambled,scrambled044.bmp,,,,,0,239,239,239,,,,,,,,,,,,,,,,,,,,,,,,,,,,,,,,,,,,,,,,,,None,,743.8482920700219,None,743.8482920700219,None,2022-03-03-14:35:04.821094,743.8565230999375,744.1653198000276,743.8565230999375,None,None,743.8565230999375,None,744.6649277699646,None,,,,11011,0002,2022_Mar_03_1422,localizer,2021.1.3,60.00409229628445,
block,scrambled,scrambled004.bmp,,,,,0,240,240,240,,,,,,,,,,,,,,,,,,,,,,,,,,,,,,,,,,,,,,,,,,None,,744.6649277699646,None,744.6649277699646,None,2022-03-03-14:35:05.638869,744.6660565999337,744.9652379000327,744.6660565999337,None,y,744.6660565999337,None,745.4818928699708,None,0.10976979997940361,,,11011,0002,2022_Mar_03_1422,localizer,2021.1.3,60.00409229628445,
block,scrambled,scrambled026.bmp,,,,,0,241,241,241,,,,,,,,,,,,,,,,,,,,,,,,,,,,,,,,,,,,,,,,,,None,,745.4818928699708,None,745.4818928699708,None,2022-03-03-14:35:06.455860,745.4825621999335,745.7984064000193,745.4825621999335,None,None,745.4825621999335,None,746.2823061700212,None,,,,11011,0002,2022_Mar_03_1422,localizer,2021.1.3,60.00409229628445,
block_end,scrambled,scrambled030.bmp,,,,,0,242,242,242,,,,,,,,,,,,,,,,,,,,,,,,,,,,,,,,,,,,,,,,,,None,,746.2823061700212,None,746.2823061700212,None,2022-03-03-14:35:07.257261,746.284206100041,746.5982904999983,746.284206100041,746.284206100041,None,746.284206100041,746.284206100041,747.0992052699905,None,,,,11011,0002,2022_Mar_03_1422,localizer,2021.1.3,60.00409229628445,
null_block,null_block,null_block.bmp,,,,,0,243,243,243,,,,,,,,,,,,,,,,,,,,,,,,,,,,,,,,,,,,,,,,,,t,1.8096529999747872,747.0993363000453,None,747.0993363000453,None,2022-03-03-14:35:09.904227,748.9321289699758,None,748.9321289699758,None,None,748.9321289699758,None,748.9339839000022,None,,,,11011,0002,2022_Mar_03_1422,localizer,2021.1.3,60.00409229628445,
,,,,,,,,,,,,,,,,,,,,,,,,,,,,,,,,,,,,,,,,,,,,,,,,,,,,,,,,,,,,,,,,,,,,,760.9547628000146,None,,,,,,,
