block_type,condition,img_name,Button.thisRepN,Button.thisTrialN,Button.thisN,Button.thisIndex,trials.thisRepN,trials.thisTrialN,trials.thisN,trials.thisIndex,Ready_experimenter_text.started,Ready_experimenter_text.stopped,Ready_experimenter_resp.keys,Ready_experimenter_resp.rt,Ready_experimenter_resp.started,Ready_experimenter_resp.stopped,Alignment_background.started,Alignment_background.stopped,Alignment_image.started,Alignment_image.stopped,Alignment_resp.keys,Alignment_resp.rt,Alignment_resp.started,Alignment_resp.stopped,Button_text.started,Button_text.stopped,Index_text.started,Index_text.stopped,Index_resp.keys,Index_resp.rt,Index_resp.started,Index_resp.stopped,Middle_text.started,Middle_text.stopped,Middle_resp.keys,Middle_resp.rt,Middle_resp.started,Middle_resp.stopped,Repeat_text.started,Repeat_text.stopped,Repeat_resp.keys,Repeat_resp.corr,Repeat_resp.rt,Repeat_resp.started,Repeat_resp.stopped,instruction_text.started,instruction_text.stopped,key_resp.keys,key_resp.rt,key_resp.started,key_resp.stopped,scanner_t.keys,scanner_t.rt,scanner_t.started,scanner_t.stopped,fixation_wait_for_t.started,fixation_wait_for_t.stopped,real_timestamp_trial_start,image.started,image.stopped,fixation.started,fixation.stopped,repeat_response.keys,repeat_response.started,repeat_response.stopped,fixation_null.started,fixation_null.stopped,repeat_response.rt,end_text.started,end_text.stopped,participant,run,date,expName,psychopyVersion,frameRate,
,,,,,,,,,,,10.45276049990207,None,return,107.65954370005056,10.45276049990207,None,,,,,,,,,,,,,,,,,,,,,,,,,,,,,,,,,,,,,,,,,,,,,,,,,,,,,,,12007,0001,2021_Oct_29_1135,localizer,2021.1.3,60.01395933926182,
,,,,,,,,,,,,,,,,,118.16143959993497,None,118.16143959993497,None,return,12.55133940000087,118.16143959993497,None,,,,,,,,,,,,,,,,,,,,,,,,,,,,,,,,,,,,,,,,,,,,,,,12007,0001,2021_Oct_29_1135,localizer,2021.1.3,60.01395933926182,
,,,0,0,0,0,,,,,,,,,,,,,,,,,,,130.7404132001102,None,131.75819890014827,None,y,5.9459108998999,131.75819890014827,None,137.7415736000985,None,b,1.5977072999812663,137.7415736000985,None,139.3529230998829,None,n,0,45.365701199974865,139.3529230998829,None,,,,,,,,,,,,,,,,,,,,,,,,,,12007,0001,2021_Oct_29_1135,localizer,2021.1.3,60.01395933926182,
,,,,,,,,,,,,,,,,,,,,,,,,,,,,,,,,,,,,,,,,,,,,,,184.73698669997975,None,y,10.043216200079769,184.73698669997975,None,,,,,,,,,,,,,,,,,,,,12007,0001,2021_Oct_29_1135,localizer,2021.1.3,60.01395933926182,
block_start,scenes,scenes084.bmp,,,,,0,0,0,0,,,,,,,,,,,,,,,,,,,,,,,,,,,,,,,,,,,,,,,,,,t,23.4445340000093,194.9395921002142,None,194.9395921002142,None,2021-10-29-11:39:09.108038,218.41575729986653,218.71902550011873,218.41575729986653,None,None,218.41575729986653,None,219.22026498983615,None,,,,12007,0001,2021_Oct_29_1135,localizer,2021.1.3,60.01395933926182,
block,scenes,scenes092.bmp,,,,,0,1,1,1,,,,,,,,,,,,,,,,,,,,,,,,,,,,,,,,,,,,,,,,,,None,,219.22026498983615,None,219.22026498983615,None,2021-10-29-11:39:09.930757,219.23538970015943,219.53576519992203,219.23538970015943,None,None,219.23538970015943,None,220.0365028897766,None,,,,12007,0001,2021_Oct_29_1135,localizer,2021.1.3,60.01395933926182,
block,scenes,scenes034.bmp,,,,,0,2,2,2,,,,,,,,,,,,,,,,,,,,,,,,,,,,,,,,,,,,,,,,,,None,,220.0365028897766,None,220.0365028897766,None,2021-10-29-11:39:10.743876,220.0496184998192,220.35245019989088,220.0496184998192,None,None,220.0496184998192,None,220.85239078984597,None,,,,12007,0001,2021_Oct_29_1135,localizer,2021.1.3,60.01395933926182,
block,scenes,scenes076.bmp,,,,,0,3,3,3,,,,,,,,,,,,,,,,,,,,,,,,,,,,,,,,,,,,,,,,,,None,,220.85239078984597,None,220.85239078984597,None,2021-10-29-11:39:11.557788,220.86241320008412,221.16964139975607,220.86241320008412,None,None,220.86241320008412,None,221.66938468995505,None,,,,12007,0001,2021_Oct_29_1135,localizer,2021.1.3,60.01395933926182,
block,scenes,scenes015.bmp,,,,,0,4,4,4,,,,,,,,,,,,,,,,,,,,,,,,,,,,,,,,,,,,,,,,,,None,,221.66938468995505,None,221.66938468995505,None,2021-10-29-11:39:12.375734,221.68239399977028,221.9863228998147,221.68239399977028,None,None,221.68239399977028,None,222.4857012899127,None,,,,12007,0001,2021_Oct_29_1135,localizer,2021.1.3,60.01395933926182,
block,scenes,scenes027.bmp,,,,,0,5,5,5,,,,,,,,,,,,,,,,,,,,,,,,,,,,,,,,,,,,,,,,,,None,,222.4857012899127,None,222.4857012899127,None,2021-10-29-11:39:13.192028,222.4960296000354,222.80262070009485,222.4960296000354,None,None,222.4960296000354,None,223.29236588994974,None,,,,12007,0001,2021_Oct_29_1135,localizer,2021.1.3,60.01395933926182,
block,scenes,scenes081.bmp,,,,,0,6,6,6,,,,,,,,,,,,,,,,,,,,,,,,,,,,,,,,,,,,,,,,,,None,,223.29236588994974,None,223.29236588994974,None,2021-10-29-11:39:14.002635,223.30777060007676,223.61910150013864,223.30777060007676,None,None,223.30777060007676,None,224.10262168985793,None,,,,12007,0001,2021_Oct_29_1135,localizer,2021.1.3,60.01395933926182,
block,scenes,scenes038.bmp,,,,,0,7,7,7,,,,,,,,,,,,,,,,,,,,,,,,,,,,,,,,,,,,,,,,,,None,,224.10262168985793,None,224.10262168985793,None,2021-10-29-11:39:14.808951,224.11270679999143,224.41899929987267,224.11270679999143,None,None,224.11270679999143,None,224.91941888998264,None,,,,12007,0001,2021_Oct_29_1135,localizer,2021.1.3,60.01395933926182,
block,scenes,scenes080.bmp,,,,,0,8,8,8,,,,,,,,,,,,,,,,,,,,,,,,,,,,,,,,,,,,,,,,,,None,,224.91941888998264,None,224.91941888998264,None,2021-10-29-11:39:15.625957,224.9309093998745,225.23579629976302,224.9309093998745,None,None,224.9309093998745,None,225.7359406901058,None,,,,12007,0001,2021_Oct_29_1135,localizer,2021.1.3,60.01395933926182,
block,scenes,scenes053.bmp,,,,,0,9,9,9,,,,,,,,,,,,,,,,,,,,,,,,,,,,,,,,,,,,,,,,,,None,,225.7359406901058,None,225.7359406901058,None,2021-10-29-11:39:16.441277,225.7455485998653,226.05276370001957,225.7455485998653,None,None,225.7455485998653,None,226.55254438980484,None,,,,12007,0001,2021_Oct_29_1135,localizer,2021.1.3,60.01395933926182,
block,scenes,scenes045.bmp,,,,,0,10,10,10,,,,,,,,,,,,,,,,,,,,,,,,,,,,,,,,,,,,,,,,,,None,,226.55254438980484,None,226.55254438980484,None,2021-10-29-11:39:17.258881,226.56215990008786,226.86903649987653,226.56215990008786,None,None,226.56215990008786,None,227.3693374897819,None,,,,12007,0001,2021_Oct_29_1135,localizer,2021.1.3,60.01395933926182,
block,scenes,scenes052.bmp,,,,,0,11,11,11,,,,,,,,,,,,,,,,,,,,,,,,,,,,,,,,,,,,,,,,,,None,,227.3693374897819,None,227.3693374897819,None,2021-10-29-11:39:18.075676,227.37742049992085,227.68649329990149,227.37742049992085,None,None,227.37742049992085,None,228.18662529014983,None,,,,12007,0001,2021_Oct_29_1135,localizer,2021.1.3,60.01395933926182,
block,scenes,scenes035.bmp,,,,,0,12,12,12,,,,,,,,,,,,,,,,,,,,,,,,,,,,,,,,,,,,,,,,,,None,,228.18662529014983,None,228.18662529014983,None,2021-10-29-11:39:18.893800,228.19813740020618,228.50405280012637,228.19813740020618,None,None,228.19813740020618,None,229.00372519013473,None,,,,12007,0001,2021_Oct_29_1135,localizer,2021.1.3,60.01395933926182,
block,scenes,scenes018.bmp,,,,,0,13,13,13,,,,,,,,,,,,,,,,,,,,,,,,,,,,,,,,,,,,,,,,,,None,,229.00372519013473,None,229.00372519013473,None,2021-10-29-11:39:19.712187,229.01762000005692,229.31889590015635,229.01762000005692,None,None,229.01762000005692,None,229.81980899018237,None,,,,12007,0001,2021_Oct_29_1135,localizer,2021.1.3,60.01395933926182,
block_end,scenes,scenes059.bmp,,,,,0,14,14,14,,,,,,,,,,,,,,,,,,,,,,,,,,,,,,,,,,,,,,,,,,None,,229.81980899018237,None,229.81980899018237,None,2021-10-29-11:39:20.527052,229.83147819992155,230.13588699977845,229.83147819992155,None,None,229.83147819992155,None,230.63587098983118,None,,,,12007,0001,2021_Oct_29_1135,localizer,2021.1.3,60.01395933926182,
block_start,scrambled,scrambled053.bmp,,,,,0,15,15,15,,,,,,,,,,,,,,,,,,,,,,,,,,,,,,,,,,,,,,,,,,t,1.7483136001974344,230.63575620017946,None,230.63575620017946,None,2021-10-29-11:39:23.109778,232.41612799977884,232.7192044002004,232.41612799977884,None,None,232.41612799977884,None,233.2195267900359,None,,,,12007,0001,2021_Oct_29_1135,localizer,2021.1.3,60.01395933926182,
block,scrambled,scrambled004.bmp,,,,,0,16,16,16,,,,,,,,,,,,,,,,,,,,,,,,,,,,,,,,,,,,,,,,,,None,,233.2195267900359,None,233.2195267900359,None,2021-10-29-11:39:23.926075,233.228878099937,233.53574390010908,233.228878099937,None,None,233.228878099937,None,234.03598428978586,None,,,,12007,0001,2021_Oct_29_1135,localizer,2021.1.3,60.01395933926182,
block,scrambled,scrambled041.bmp,,,,,0,17,17,17,,,,,,,,,,,,,,,,,,,,,,,,,,,,,,,,,,,,,,,,,,None,,234.03598428978586,None,234.03598428978586,None,2021-10-29-11:39:24.742339,234.04706759983674,234.35244699986652,234.04706759983674,None,None,234.04706759983674,None,234.85269499006682,None,,,,12007,0001,2021_Oct_29_1135,localizer,2021.1.3,60.01395933926182,
block,scrambled,scrambled019.bmp,,,,,0,18,18,18,,,,,,,,,,,,,,,,,,,,,,,,,,,,,,,,,,,,,,,,,,None,,234.85269499006682,None,234.85269499006682,None,2021-10-29-11:39:25.559282,234.86401969986036,235.16910760011524,234.86401969986036,None,None,234.86401969986036,None,235.6713172900025,None,,,,12007,0001,2021_Oct_29_1135,localizer,2021.1.3,60.01395933926182,
block,scrambled,scrambled017.bmp,,,,,0,19,19,19,,,,,,,,,,,,,,,,,,,,,,,,,,,,,,,,,,,,,,,,,,None,,235.6713172900025,None,235.6713172900025,None,2021-10-29-11:39:26.380652,235.68429870018736,235.98581370012835,235.68429870018736,None,None,235.68429870018736,None,236.48586938991212,None,,,,12007,0001,2021_Oct_29_1135,localizer,2021.1.3,60.01395933926182,
block,scrambled,scrambled049.bmp,,,,,0,20,20,20,,,,,,,,,,,,,,,,,,,,,,,,,,,,,,,,,,,,,,,,,,None,,236.48586938991212,None,236.48586938991212,None,2021-10-29-11:39:27.192234,236.49632359994575,236.80231150006875,236.49632359994575,None,None,236.49632359994575,None,237.30176348979586,None,,,,12007,0001,2021_Oct_29_1135,localizer,2021.1.3,60.01395933926182,
block,scrambled,scrambled052.bmp,,,,,0,21,21,21,,,,,,,,,,,,,,,,,,,,,,,,,,,,,,,,,,,,,,,,,,None,,237.30176348979586,None,237.30176348979586,None,2021-10-29-11:39:28.008293,237.31043729977682,237.61911770002916,237.31043729977682,None,None,237.31043729977682,None,238.1198979899753,None,,,,12007,0001,2021_Oct_29_1135,localizer,2021.1.3,60.01395933926182,
block,scrambled,scrambled079.bmp,,,,,0,22,22,22,,,,,,,,,,,,,,,,,,,,,,,,,,,,,,,,,,,,,,,,,,None,,238.1198979899753,None,238.1198979899753,None,2021-10-29-11:39:28.827445,238.13145059999079,238.4360838998109,238.13145059999079,None,None,238.13145059999079,None,238.93628869014793,None,,,,12007,0001,2021_Oct_29_1135,localizer,2021.1.3,60.01395933926182,
block,scrambled,scrambled027.bmp,,,,,0,23,23,23,,,,,,,,,,,,,,,,,,,,,,,,,,,,,,,,,,,,,,,,,,None,,238.93628869014793,None,238.93628869014793,None,2021-10-29-11:39:29.643653,238.94712710008025,239.2559707998298,238.94712710008025,None,None,238.94712710008025,None,239.75323749003002,None,,,,12007,0001,2021_Oct_29_1135,localizer,2021.1.3,60.01395933926182,
block,scrambled,scrambled071.bmp,,,,,0,24,24,24,,,,,,,,,,,,,,,,,,,,,,,,,,,,,,,,,,,,,,,,,,None,,239.75323749003002,None,239.75323749003002,None,2021-10-29-11:39:30.460593,239.7648427998647,240.06920150015503,239.7648427998647,None,None,239.7648427998647,None,240.56948219002226,None,,,,12007,0001,2021_Oct_29_1135,localizer,2021.1.3,60.01395933926182,
block,scrambled,scrambled042.bmp,,,,,0,25,25,25,,,,,,,,,,,,,,,,,,,,,,,,,,,,,,,,,,,,,,,,,,None,,240.56948219002226,None,240.56948219002226,None,2021-10-29-11:39:31.276041,240.57910609990358,240.8860006001778,240.57910609990358,None,y,240.57910609990358,None,241.38594599016943,None,0.044622700195759535,,,12007,0001,2021_Oct_29_1135,localizer,2021.1.3,60.01395933926182,
block,scrambled,scrambled043.bmp,,,,,0,26,26,26,,,,,,,,,,,,,,,,,,,,,,,,,,,,,,,,,,,,,,,,,,None,,241.38594599016943,None,241.38594599016943,None,2021-10-29-11:39:32.092325,241.39628389989957,241.70240279985592,241.39628389989957,None,None,241.39628389989957,None,242.2027637897525,None,,,,12007,0001,2021_Oct_29_1135,localizer,2021.1.3,60.01395933926182,
block,scrambled,scrambled076.bmp,,,,,0,27,27,27,,,,,,,,,,,,,,,,,,,,,,,,,,,,,,,,,,,,,,,,,,None,,242.2027637897525,None,242.2027637897525,None,2021-10-29-11:39:32.909331,242.21357750007883,242.5191557998769,242.21357750007883,None,None,242.21357750007883,None,243.019337989809,None,,,,12007,0001,2021_Oct_29_1135,localizer,2021.1.3,60.01395933926182,
block,scrambled,scrambled064.bmp,,,,,0,28,28,28,,,,,,,,,,,,,,,,,,,,,,,,,,,,,,,,,,,,,,,,,,None,,243.019337989809,None,243.019337989809,None,2021-10-29-11:39:33.725719,243.02916490007192,243.33568120002747,243.02916490007192,None,None,243.02916490007192,None,243.83616888984108,None,,,,12007,0001,2021_Oct_29_1135,localizer,2021.1.3,60.01395933926182,
block_end,scrambled,scrambled050.bmp,,,,,0,29,29,29,,,,,,,,,,,,,,,,,,,,,,,,,,,,,,,,,,,,,,,,,,None,,243.83616888984108,None,243.83616888984108,None,2021-10-29-11:39:34.542527,243.84696559980512,244.15238290000707,243.84696559980512,None,None,243.84696559980512,None,244.65343269002625,None,,,,12007,0001,2021_Oct_29_1135,localizer,2021.1.3,60.01395933926182,
block_start,faces,faces024.bmp,,,,,0,30,30,30,,,,,,,,,,,,,,,,,,,,,,,,,,,,,,,,,,,,,,,,,,t,1.7308391998521984,244.65304940007627,None,244.65304940007627,None,2021-10-29-11:39:37.109189,246.41123059997335,246.71907379990444,246.41123059997335,None,None,246.41123059997335,None,247.20917299012655,None,,,,12007,0001,2021_Oct_29_1135,localizer,2021.1.3,60.01395933926182,
block,faces,faces068.bmp,,,,,0,31,31,31,,,,,,,,,,,,,,,,,,,,,,,,,,,,,,,,,,,,,,,,,,None,,247.20917299012655,None,247.20917299012655,None,2021-10-29-11:39:37.919467,247.2270570001565,247.5359996999614,247.2270570001565,None,None,247.2270570001565,None,248.01943848975935,None,,,,12007,0001,2021_Oct_29_1135,localizer,2021.1.3,60.01395933926182,
block,faces,faces031.bmp,,,,,0,32,32,32,,,,,,,,,,,,,,,,,,,,,,,,,,,,,,,,,,,,,,,,,,None,,248.01943848975935,None,248.01943848975935,None,2021-10-29-11:39:38.725833,248.02996690012515,248.3356869998388,248.02996690012515,None,None,248.02996690012515,None,248.83631659015083,None,,,,12007,0001,2021_Oct_29_1135,localizer,2021.1.3,60.01395933926182,
block,faces,faces071.bmp,,,,,0,33,33,33,,,,,,,,,,,,,,,,,,,,,,,,,,,,,,,,,,,,,,,,,,None,,248.83631659015083,None,248.83631659015083,None,2021-10-29-11:39:39.543707,248.84812870016322,249.15208580018952,248.84812870016322,None,None,248.84812870016322,None,249.65246538999492,None,,,,12007,0001,2021_Oct_29_1135,localizer,2021.1.3,60.01395933926182,
block,faces,faces071.bmp,,,,,0,34,34,34,,,,,,,,,,,,,,,,,,,,,,,,,,,,,,,,,,,,,,,,,,None,,249.65246538999492,None,249.65246538999492,None,2021-10-29-11:39:40.358870,249.65338899986818,249.95251889992505,249.65338899986818,None,None,249.65338899986818,None,250.45240738983267,None,,,,12007,0001,2021_Oct_29_1135,localizer,2021.1.3,60.01395933926182,
block,faces,faces011.bmp,,,,,0,35,35,35,,,,,,,,,,,,,,,,,,,,,,,,,,,,,,,,,,,,,,,,,,None,,250.45240738983267,None,250.45240738983267,None,2021-10-29-11:39:41.160806,250.4609655002132,250.77217839984223,250.4609655002132,250.4609655002132,y,250.4609655002132,250.4609655002132,251.26900748996997,None,0.0800986997783184,,,12007,0001,2021_Oct_29_1135,localizer,2021.1.3,60.01395933926182,
block,faces,faces027.bmp,,,,,0,36,36,36,,,,,,,,,,,,,,,,,,,,,,,,,,,,,,,,,,,,,,,,,,None,,251.26900748996997,None,251.26900748996997,None,2021-10-29-11:39:41.974418,251.27887579984963,251.58577329991385,251.27887579984963,None,None,251.27887579984963,None,252.08639948996716,None,,,,12007,0001,2021_Oct_29_1135,localizer,2021.1.3,60.01395933926182,
block,faces,faces087.bmp,,,,,0,37,37,37,,,,,,,,,,,,,,,,,,,,,,,,,,,,,,,,,,,,,,,,,,None,,252.08639948996716,None,252.08639948996716,None,2021-10-29-11:39:42.793799,252.0997631000355,252.4030693997629,252.0997631000355,None,None,252.0997631000355,None,252.90288848984056,None,,,,12007,0001,2021_Oct_29_1135,localizer,2021.1.3,60.01395933926182,
block,faces,faces086.bmp,,,,,0,38,38,38,,,,,,,,,,,,,,,,,,,,,,,,,,,,,,,,,,,,,,,,,,None,,252.90288848984056,None,252.90288848984056,None,2021-10-29-11:39:43.609294,252.91384280007333,253.21897409996018,252.91384280007333,None,None,252.91384280007333,None,253.71987038985827,None,,,,12007,0001,2021_Oct_29_1135,localizer,2021.1.3,60.01395933926182,
block,faces,faces025.bmp,,,,,0,39,39,39,,,,,,,,,,,,,,,,,,,,,,,,,,,,,,,,,,,,,,,,,,None,,253.71987038985827,None,253.71987038985827,None,2021-10-29-11:39:44.427256,253.72950709983706,254.03579929983243,253.72950709983706,None,None,253.72950709983706,None,254.53716258979404,None,,,,12007,0001,2021_Oct_29_1135,localizer,2021.1.3,60.01395933926182,
block,faces,faces076.bmp,,,,,0,40,40,40,,,,,,,,,,,,,,,,,,,,,,,,,,,,,,,,,,,,,,,,,,None,,254.53716258979404,None,254.53716258979404,None,2021-10-29-11:39:45.245714,254.55160749983042,254.85255930013955,254.55160749983042,None,None,254.55160749983042,None,255.35389888980427,None,,,,12007,0001,2021_Oct_29_1135,localizer,2021.1.3,60.01395933926182,
block,faces,faces049.bmp,,,,,0,41,41,41,,,,,,,,,,,,,,,,,,,,,,,,,,,,,,,,,,,,,,,,,,None,,255.35389888980427,None,255.35389888980427,None,2021-10-29-11:39:46.062320,255.36885030008852,255.66919140005484,255.36885030008852,None,None,255.36885030008852,None,256.1694227898959,None,,,,12007,0001,2021_Oct_29_1135,localizer,2021.1.3,60.01395933926182,
block,faces,faces039.bmp,,,,,0,42,42,42,,,,,,,,,,,,,,,,,,,,,,,,,,,,,,,,,,,,,,,,,,None,,256.1694227898959,None,256.1694227898959,None,2021-10-29-11:39:46.875842,256.18129239976406,256.48879289999604,256.18129239976406,None,None,256.18129239976406,None,256.98570309015923,None,,,,12007,0001,2021_Oct_29_1135,localizer,2021.1.3,60.01395933926182,
block,faces,faces089.bmp,,,,,0,43,43,43,,,,,,,,,,,,,,,,,,,,,,,,,,,,,,,,,,,,,,,,,,None,,256.98570309015923,None,256.98570309015923,None,2021-10-29-11:39:47.692123,256.99482640018687,257.30279560014606,256.99482640018687,None,None,256.99482640018687,None,257.7907164901961,None,,,,12007,0001,2021_Oct_29_1135,localizer,2021.1.3,60.01395933926182,
block_end,faces,faces019.bmp,,,,,0,44,44,44,,,,,,,,,,,,,,,,,,,,,,,,,,,,,,,,,,,,,,,,,,None,,257.7907164901961,None,257.7907164901961,None,2021-10-29-11:39:48.499056,257.8103201999329,258.11915059993044,257.8103201999329,None,None,257.8103201999329,None,258.60483918986284,None,,,,12007,0001,2021_Oct_29_1135,localizer,2021.1.3,60.01395933926182,
block_start,objects,objects029.bmp,,,,,0,45,45,45,,,,,,,,,,,,,,,,,,,,,,,,,,,,,,,,,,,,,,,,,,t,1.777224199846387,258.6055964999832,None,258.6055964999832,None,2021-10-29-11:39:51.107944,260.4097593999468,260.71940220007673,260.4097593999468,None,None,260.4097593999468,None,261.2195461899508,None,,,,12007,0001,2021_Oct_29_1135,localizer,2021.1.3,60.01395933926182,
block,objects,objects028.bmp,,,,,0,46,46,46,,,,,,,,,,,,,,,,,,,,,,,,,,,,,,,,,,,,,,,,,,None,,261.2195461899508,None,261.2195461899508,None,2021-10-29-11:39:51.926730,261.23018989991397,261.53597470000386,261.23018989991397,None,None,261.23018989991397,None,262.03736029001885,None,,,,12007,0001,2021_Oct_29_1135,localizer,2021.1.3,60.01395933926182,
block,objects,objects018.bmp,,,,,0,47,47,47,,,,,,,,,,,,,,,,,,,,,,,,,,,,,,,,,,,,,,,,,,None,,262.03736029001885,None,262.03736029001885,None,2021-10-29-11:39:52.747915,262.05322579992935,262.35259270016104,262.05322579992935,None,None,262.05322579992935,None,262.852948090015,None,,,,12007,0001,2021_Oct_29_1135,localizer,2021.1.3,60.01395933926182,
block,objects,objects069.bmp,,,,,0,48,48,48,,,,,,,,,,,,,,,,,,,,,,,,,,,,,,,,,,,,,,,,,,None,,262.852948090015,None,262.852948090015,None,2021-10-29-11:39:53.559592,262.86605340009555,263.1695543001406,262.86605340009555,None,None,262.86605340009555,None,263.6695609897841,None,,,,12007,0001,2021_Oct_29_1135,localizer,2021.1.3,60.01395933926182,
block,objects,objects007.bmp,,,,,0,49,49,49,,,,,,,,,,,,,,,,,,,,,,,,,,,,,,,,,,,,,,,,,,None,,263.6695609897841,None,263.6695609897841,None,2021-10-29-11:39:54.376003,263.67932910006493,263.9859667997807,263.67932910006493,None,None,263.67932910006493,None,264.48618128984236,None,,,,12007,0001,2021_Oct_29_1135,localizer,2021.1.3,60.01395933926182,
block,objects,objects052.bmp,,,,,0,50,50,50,,,,,,,,,,,,,,,,,,,,,,,,,,,,,,,,,,,,,,,,,,None,,264.48618128984236,None,264.48618128984236,None,2021-10-29-11:39:55.192621,264.49708880018443,264.80253250012174,264.49708880018443,None,None,264.49708880018443,None,265.29084448977375,None,,,,12007,0001,2021_Oct_29_1135,localizer,2021.1.3,60.01395933926182,
block,objects,objects023.bmp,,,,,0,51,51,51,,,,,,,,,,,,,,,,,,,,,,,,,,,,,,,,,,,,,,,,,,None,,265.29084448977375,None,265.29084448977375,None,2021-10-29-11:39:56.001215,265.3070777999237,265.61926489975303,265.3070777999237,None,None,265.3070777999237,None,266.10282368999907,None,,,,12007,0001,2021_Oct_29_1135,localizer,2021.1.3,60.01395933926182,
block,objects,objects048.bmp,,,,,0,52,52,52,,,,,,,,,,,,,,,,,,,,,,,,,,,,,,,,,,,,,,,,,,None,,266.10282368999907,None,266.10282368999907,None,2021-10-29-11:39:56.809790,266.114866099786,266.41920100012794,266.114866099786,None,None,266.114866099786,None,266.91998378974387,None,,,,12007,0001,2021_Oct_29_1135,localizer,2021.1.3,60.01395933926182,
block,objects,objects043.bmp,,,,,0,53,53,53,,,,,,,,,,,,,,,,,,,,,,,,,,,,,,,,,,,,,,,,,,None,,266.91998378974387,None,266.91998378974387,None,2021-10-29-11:39:57.627427,266.9315491998568,267.23560529993847,266.9315491998568,None,None,266.9315491998568,None,267.73619459006005,None,,,,12007,0001,2021_Oct_29_1135,localizer,2021.1.3,60.01395933926182,
block,objects,objects050.bmp,,,,,0,54,54,54,,,,,,,,,,,,,,,,,,,,,,,,,,,,,,,,,,,,,,,,,,None,,267.73619459006005,None,267.73619459006005,None,2021-10-29-11:39:58.442642,267.74597219983116,268.052605799865,267.74597219983116,None,None,267.74597219983116,None,268.5528040900361,None,,,,12007,0001,2021_Oct_29_1135,localizer,2021.1.3,60.01395933926182,
block,objects,objects075.bmp,,,,,0,55,55,55,,,,,,,,,,,,,,,,,,,,,,,,,,,,,,,,,,,,,,,,,,None,,268.5528040900361,None,268.5528040900361,None,2021-10-29-11:39:59.259480,268.5637869001366,268.8694016998634,268.5637869001366,None,None,268.5637869001366,None,269.3599550900515,None,,,,12007,0001,2021_Oct_29_1135,localizer,2021.1.3,60.01395933926182,
block,objects,objects066.bmp,,,,,0,56,56,56,,,,,,,,,,,,,,,,,,,,,,,,,,,,,,,,,,,,,,,,,,None,,269.3599550900515,None,269.3599550900515,None,2021-10-29-11:40:00.070404,269.37296070018783,269.68600049987435,269.37296070018783,None,None,269.37296070018783,None,270.1695481901523,None,,,,12007,0001,2021_Oct_29_1135,localizer,2021.1.3,60.01395933926182,
block,objects,objects074.bmp,,,,,0,57,57,57,,,,,,,,,,,,,,,,,,,,,,,,,,,,,,,,,,,,,,,,,,None,,270.1695481901523,None,270.1695481901523,None,2021-10-29-11:40:00.875984,270.18050270015374,270.48601550003514,270.18050270015374,None,None,270.18050270015374,None,270.9882385897916,None,,,,12007,0001,2021_Oct_29_1135,localizer,2021.1.3,60.01395933926182,
block,objects,objects026.bmp,,,,,0,58,58,58,,,,,,,,,,,,,,,,,,,,,,,,,,,,,,,,,,,,,,,,,,None,,270.9882385897916,None,270.9882385897916,None,2021-10-29-11:40:01.698674,270.9956730999984,271.30358689976856,270.9956730999984,None,None,270.9956730999984,None,271.802667790046,None,,,,12007,0001,2021_Oct_29_1135,localizer,2021.1.3,60.01395933926182,
block_end,objects,objects010.bmp,,,,,0,59,59,59,,,,,,,,,,,,,,,,,,,,,,,,,,,,,,,,,,,,,,,,,,None,,271.802667790046,None,271.802667790046,None,2021-10-29-11:40:02.509380,271.8121187998913,272.1194489998743,271.8121187998913,None,None,271.8121187998913,None,272.6206097900402,None,,,,12007,0001,2021_Oct_29_1135,localizer,2021.1.3,60.01395933926182,
null_block,null_block,null_block.bmp,,,,,0,60,60,60,,,,,,,,,,,,,,,,,,,,,,,,,,,,,,,,,,,,,,,,,,t,1.762255699839443,272.62057540006936,None,272.62057540006936,None,2021-10-29-11:40:05.108142,274.41945727998393,None,274.41945727998393,None,None,274.41945727998393,None,274.4155298997648,None,,,,12007,0001,2021_Oct_29_1135,localizer,2021.1.3,60.01395933926182,
null_block,null_block,null_block.bmp,,,,,0,61,61,61,,,,,,,,,,,,,,,,,,,,,,,,,,,,,,,,,,,,,,,,,,t,1.9636897998861969,286.41924099996686,None,286.41924099996686,None,2021-10-29-11:40:19.110670,288.402999689756,None,288.402999689756,None,None,288.402999689756,None,288.4066901002079,None,,,,12007,0001,2021_Oct_29_1135,localizer,2021.1.3,60.01395933926182,
block_start,scenes,scenes025.bmp,,,,,0,62,62,62,,,,,,,,,,,,,,,,,,,,,,,,,,,,,,,,,,,,,,,,,,t,1.9602633998729289,300.42267839983106,None,300.42267839983106,None,2021-10-29-11:40:33.109957,302.4165174998343,302.71949629997835,302.4165174998343,None,None,302.4165174998343,None,303.219073790079,None,,,,12007,0001,2021_Oct_29_1135,localizer,2021.1.3,60.01395933926182,
block,scenes,scenes050.bmp,,,,,0,63,63,63,,,,,,,,,,,,,,,,,,,,,,,,,,,,,,,,,,,,,,,,,,None,,303.219073790079,None,303.219073790079,None,2021-10-29-11:40:33.925624,303.2283109999262,303.53600959992036,303.2283109999262,None,None,303.2283109999262,None,304.03679839004764,None,,,,12007,0001,2021_Oct_29_1135,localizer,2021.1.3,60.01395933926182,
block,scenes,scenes006.bmp,,,,,0,64,64,64,,,,,,,,,,,,,,,,,,,,,,,,,,,,,,,,,,,,,,,,,,None,,304.03679839004764,None,304.03679839004764,None,2021-10-29-11:40:34.744356,304.04951869975775,304.3526425999589,304.04951869975775,None,None,304.04951869975775,None,304.85286458996126,None,,,,12007,0001,2021_Oct_29_1135,localizer,2021.1.3,60.01395933926182,
block,scenes,scenes035.bmp,,,,,0,65,65,65,,,,,,,,,,,,,,,,,,,,,,,,,,,,,,,,,,,,,,,,,,None,,304.85286458996126,None,304.85286458996126,None,2021-10-29-11:40:35.559605,304.8537558000535,305.1528925001621,304.8537558000535,None,None,304.8537558000535,None,305.6532520898152,None,,,,12007,0001,2021_Oct_29_1135,localizer,2021.1.3,60.01395933926182,
block,scenes,scenes026.bmp,,,,,0,66,66,66,,,,,,,,,,,,,,,,,,,,,,,,,,,,,,,,,,,,,,,,,,None,,305.6532520898152,None,305.6532520898152,None,2021-10-29-11:40:36.362793,305.66902300016955,305.97046159999445,305.66902300016955,305.66902300016955,None,305.66902300016955,305.66902300016955,306.4705856898334,None,,,,12007,0001,2021_Oct_29_1135,localizer,2021.1.3,60.01395933926182,
block,scenes,scenes065.bmp,,,,,0,67,67,67,,,,,,,,,,,,,,,,,,,,,,,,,,,,,,,,,,,,,,,,,,None,,306.4705856898334,None,306.4705856898334,None,2021-10-29-11:40:37.178956,306.4861558000557,306.78602080000564,306.4861558000557,None,None,306.4861558000557,None,307.28573078983464,None,,,,12007,0001,2021_Oct_29_1135,localizer,2021.1.3,60.01395933926182,
block,scenes,scenes090.bmp,,,,,0,68,68,68,,,,,,,,,,,,,,,,,,,,,,,,,,,,,,,,,,,,,,,,,,None,,307.28573078983464,None,307.28573078983464,None,2021-10-29-11:40:37.991294,307.295262100175,307.6025010999292,307.295262100175,None,None,307.295262100175,None,308.10256518977695,None,,,,12007,0001,2021_Oct_29_1135,localizer,2021.1.3,60.01395933926182,
block,scenes,scenes047.bmp,,,,,0,69,69,69,,,,,,,,,,,,,,,,,,,,,,,,,,,,,,,,,,,,,,,,,,None,,308.10256518977695,None,308.10256518977695,None,2021-10-29-11:40:38.809043,308.1114356000908,308.4187981998548,308.1114356000908,None,None,308.1114356000908,None,308.9198283901904,None,,,,12007,0001,2021_Oct_29_1135,localizer,2021.1.3,60.01395933926182,
block,scenes,scenes005.bmp,,,,,0,70,70,70,,,,,,,,,,,,,,,,,,,,,,,,,,,,,,,,,,,,,,,,,,None,,308.9198283901904,None,308.9198283901904,None,2021-10-29-11:40:39.627614,308.93069479987025,309.23610970005393,308.93069479987025,None,None,308.93069479987025,None,309.7365103899036,None,,,,12007,0001,2021_Oct_29_1135,localizer,2021.1.3,60.01395933926182,
block,scenes,scenes027.bmp,,,,,0,71,71,71,,,,,,,,,,,,,,,,,,,,,,,,,,,,,,,,,,,,,,,,,,None,,309.7365103899036,None,309.7365103899036,None,2021-10-29-11:40:40.444065,309.73752659978345,310.037442300003,309.73752659978345,None,None,309.73752659978345,None,310.5529232900124,None,,,,12007,0001,2021_Oct_29_1135,localizer,2021.1.3,60.01395933926182,
block,scenes,scenes015.bmp,,,,,0,72,72,72,,,,,,,,,,,,,,,,,,,,,,,,,,,,,,,,,,,,,,,,,,None,,310.5529232900124,None,310.5529232900124,None,2021-10-29-11:40:41.259488,310.55371499992907,310.8690455001779,310.55371499992907,None,None,310.55371499992907,None,311.35428589018994,None,,,,12007,0001,2021_Oct_29_1135,localizer,2021.1.3,60.01395933926182,
block,scenes,scenes078.bmp,,,,,0,73,73,73,,,,,,,,,,,,,,,,,,,,,,,,,,,,,,,,,,,,,,,,,,None,,311.35428589018994,None,311.35428589018994,None,2021-10-29-11:40:42.064868,311.3739474997856,311.68596700020134,311.3739474997856,311.3739474997856,None,311.3739474997856,311.3739474997856,312.16966438987293,None,,,,12007,0001,2021_Oct_29_1135,localizer,2021.1.3,60.01395933926182,
block,scenes,scenes067.bmp,,,,,0,74,74,74,,,,,,,,,,,,,,,,,,,,,,,,,,,,,,,,,,,,,,,,,,None,,312.16966438987293,None,312.16966438987293,None,2021-10-29-11:40:42.876232,312.1807574001141,312.4858645000495,312.1807574001141,None,y,312.1807574001141,None,312.9868897897657,None,0.05990870017558336,,,12007,0001,2021_Oct_29_1135,localizer,2021.1.3,60.01395933926182,
block,scenes,scenes071.bmp,,,,,0,75,75,75,,,,,,,,,,,,,,,,,,,,,,,,,,,,,,,,,,,,,,,,,,None,,312.9868897897657,None,312.9868897897657,None,2021-10-29-11:40:43.694491,312.9985429998487,313.3029045998119,312.9985429998487,None,None,312.9985429998487,None,313.8032999899704,None,,,,12007,0001,2021_Oct_29_1135,localizer,2021.1.3,60.01395933926182,
block_end,scenes,scenes056.bmp,,,,,0,76,76,76,,,,,,,,,,,,,,,,,,,,,,,,,,,,,,,,,,,,,,,,,,None,,313.8032999899704,None,313.8032999899704,None,2021-10-29-11:40:44.510848,313.8140831999481,314.11941300006583,313.8140831999481,None,None,313.8140831999481,None,314.619029889768,None,,,,12007,0001,2021_Oct_29_1135,localizer,2021.1.3,60.01395933926182,
block_start,faces,faces082.bmp,,,,,0,77,77,77,,,,,,,,,,,,,,,,,,,,,,,,,,,,,,,,,,,,,,,,,,t,1.7637875997461379,314.6190261999145,None,314.6190261999145,None,2021-10-29-11:40:47.109474,316.4157484997995,316.71930570015684,316.4157484997995,None,None,316.4157484997995,None,317.21984458989465,None,,,,12007,0001,2021_Oct_29_1135,localizer,2021.1.3,60.01395933926182,
block,faces,faces060.bmp,,,,,0,78,78,78,,,,,,,,,,,,,,,,,,,,,,,,,,,,,,,,,,,,,,,,,,None,,317.21984458989465,None,317.21984458989465,None,2021-10-29-11:40:47.926424,317.2308042999357,317.5360960001126,317.2308042999357,None,None,317.2308042999357,None,318.0364923900459,None,,,,12007,0001,2021_Oct_29_1135,localizer,2021.1.3,60.01395933926182,
block,faces,faces026.bmp,,,,,0,79,79,79,,,,,,,,,,,,,,,,,,,,,,,,,,,,,,,,,,,,,,,,,,None,,318.0364923900459,None,318.0364923900459,None,2021-10-29-11:40:48.743089,318.0782925998792,318.3860089997761,318.0782925998792,None,None,318.0782925998792,None,318.8537206900772,None,,,,12007,0001,2021_Oct_29_1135,localizer,2021.1.3,60.01395933926182,
block,faces,faces027.bmp,,,,,0,80,80,80,,,,,,,,,,,,,,,,,,,,,,,,,,,,,,,,,,,,,,,,,,None,,318.8537206900772,None,318.8537206900772,None,2021-10-29-11:40:49.561295,318.85569110000506,319.170194900129,318.85569110000506,None,y,318.85569110000506,None,319.66948398989626,None,0.7001255000941455,,,12007,0001,2021_Oct_29_1135,localizer,2021.1.3,60.01395933926182,
block,faces,faces073.bmp,,,,,0,81,81,81,,,,,,,,,,,,,,,,,,,,,,,,,,,,,,,,,,,,,,,,,,None,,319.66948398989626,None,319.66948398989626,None,2021-10-29-11:40:50.376073,319.6784411999397,319.9860804998316,319.6784411999397,None,None,319.6784411999397,None,320.48530999007636,None,,,,12007,0001,2021_Oct_29_1135,localizer,2021.1.3,60.01395933926182,
block,faces,faces031.bmp,,,,,0,82,82,82,,,,,,,,,,,,,,,,,,,,,,,,,,,,,,,,,,,,,,,,,,None,,320.48530999007636,None,320.48530999007636,None,2021-10-29-11:40:51.191061,320.4875215999782,320.8024149998091,320.4875215999782,None,y,320.4875215999782,None,321.30212678988465,None,0.6295481002889574,,,12007,0001,2021_Oct_29_1135,localizer,2021.1.3,60.01395933926182,
block,faces,faces034.bmp,,,,,0,83,83,83,,,,,,,,,,,,,,,,,,,,,,,,,,,,,,,,,,,,,,,,,,None,,321.30212678988465,None,321.30212678988465,None,2021-10-29-11:40:52.007877,321.30662309983745,321.61896499991417,321.30662309983745,None,y,321.30662309983745,None,322.10957679008135,None,0.7225499004125595,,,12007,0001,2021_Oct_29_1135,localizer,2021.1.3,60.01395933926182,
block,faces,faces066.bmp,,,,,0,84,84,84,,,,,,,,,,,,,,,,,,,,,,,,,,,,,,,,,,,,,,,,,,None,,322.10957679008135,None,322.10957679008135,None,2021-10-29-11:40:52.821009,322.12682869983837,322.4360512997955,322.12682869983837,None,y,322.12682869983837,None,322.9261307897512,None,0.6938868002034724,,,12007,0001,2021_Oct_29_1135,localizer,2021.1.3,60.01395933926182,
block,faces,faces032.bmp,,,,,0,85,85,85,,,,,,,,,,,,,,,,,,,,,,,,,,,,,,,,,,,,,,,,,,None,,322.9261307897512,None,322.9261307897512,None,2021-10-29-11:40:53.640435,322.9462763001211,323.2526386999525,322.9462763001211,None,None,322.9462763001211,None,323.7361134900246,None,,,,12007,0001,2021_Oct_29_1135,localizer,2021.1.3,60.01395933926182,
block,faces,faces039.bmp,,,,,0,86,86,86,,,,,,,,,,,,,,,,,,,,,,,,,,,,,,,,,,,,,,,,,,None,,323.7361134900246,None,323.7361134900246,None,2021-10-29-11:40:54.442716,323.7371673998423,324.0527427000925,323.7371673998423,None,None,323.7371673998423,None,324.5524754900951,None,,,,12007,0001,2021_Oct_29_1135,localizer,2021.1.3,60.01395933926182,
block,faces,faces011.bmp,,,,,0,87,87,87,,,,,,,,,,,,,,,,,,,,,,,,,,,,,,,,,,,,,,,,,,None,,324.5524754900951,None,324.5524754900951,None,2021-10-29-11:40:55.257948,324.5543784000911,324.86922150012106,324.5543784000911,None,y,324.5543784000911,None,325.3689816900995,None,0.15742790000513196,,,12007,0001,2021_Oct_29_1135,localizer,2021.1.3,60.01395933926182,
block,faces,faces020.bmp,,,,,0,88,88,88,,,,,,,,,,,,,,,,,,,,,,,,,,,,,,,,,,,,,,,,,,None,,325.3689816900995,None,325.3689816900995,None,2021-10-29-11:40:56.075614,325.37846140004694,325.6865435000509,325.37846140004694,None,None,325.37846140004694,None,326.1857152897399,None,,,,12007,0001,2021_Oct_29_1135,localizer,2021.1.3,60.01395933926182,
block,faces,faces006.bmp,,,,,0,89,89,89,,,,,,,,,,,,,,,,,,,,,,,,,,,,,,,,,,,,,,,,,,None,,326.1857152897399,None,326.1857152897399,None,2021-10-29-11:40:56.891315,326.1897340998985,326.50272679980844,326.1897340998985,None,None,326.1897340998985,None,327.00300579001197,None,,,,12007,0001,2021_Oct_29_1135,localizer,2021.1.3,60.01395933926182,
block,faces,faces017.bmp,,,,,0,90,90,90,,,,,,,,,,,,,,,,,,,,,,,,,,,,,,,,,,,,,,,,,,None,,327.00300579001197,None,327.00300579001197,None,2021-10-29-11:40:57.709617,327.01290359999985,327.3196725999005,327.01290359999985,None,None,327.01290359999985,None,327.81965218991974,None,,,,12007,0001,2021_Oct_29_1135,localizer,2021.1.3,60.01395933926182,
block_end,faces,faces087.bmp,,,,,0,91,91,91,,,,,,,,,,,,,,,,,,,,,,,,,,,,,,,,,,,,,,,,,,None,,327.81965218991974,None,327.81965218991974,None,2021-10-29-11:40:58.532437,327.8290045000613,328.1359012001194,327.8290045000613,None,None,327.8290045000613,None,328.6366789899301,None,,,,12007,0001,2021_Oct_29_1135,localizer,2021.1.3,60.01395933926182,
block_start,objects,objects041.bmp,,,,,0,92,92,92,,,,,,,,,,,,,,,,,,,,,,,,,,,,,,,,,,,,,,,,,,t,1.746826299931854,328.6361373998225,None,328.6361373998225,None,2021-10-29-11:41:01.108363,330.4114128998481,330.7198883998208,330.4114128998481,None,None,330.4114128998481,None,331.21996538988316,None,,,,12007,0001,2021_Oct_29_1135,localizer,2021.1.3,60.01395933926182,
block,objects,objects059.bmp,,,,,0,93,93,93,,,,,,,,,,,,,,,,,,,,,,,,,,,,,,,,,,,,,,,,,,None,,331.21996538988316,None,331.21996538988316,None,2021-10-29-11:41:01.926794,331.23086629994214,331.5362220001407,331.23086629994214,None,None,331.23086629994214,None,332.0362870897632,None,,,,12007,0001,2021_Oct_29_1135,localizer,2021.1.3,60.01395933926182,
block,objects,objects069.bmp,,,,,0,94,94,94,,,,,,,,,,,,,,,,,,,,,,,,,,,,,,,,,,,,,,,,,,None,,332.0362870897632,None,332.0362870897632,None,2021-10-29-11:41:02.742925,332.03723759995773,332.3359798002057,332.03723759995773,None,y,332.03723759995773,None,332.8363504898269,None,0.5964640998281538,,,12007,0001,2021_Oct_29_1135,localizer,2021.1.3,60.01395933926182,
block,objects,objects008.bmp,,,,,0,95,95,95,,,,,,,,,,,,,,,,,,,,,,,,,,,,,,,,,,,,,,,,,,None,,332.8363504898269,None,332.8363504898269,None,2021-10-29-11:41:03.544972,332.84795049997047,333.15286129992455,332.84795049997047,332.84795049997047,None,332.84795049997047,332.84795049997047,333.65941768973136,None,,,,12007,0001,2021_Oct_29_1135,localizer,2021.1.3,60.01395933926182,
block,objects,objects045.bmp,,,,,0,96,96,96,,,,,,,,,,,,,,,,,,,,,,,,,,,,,,,,,,,,,,,,,,None,,333.65941768973136,None,333.65941768973136,None,2021-10-29-11:41:04.373379,333.6701430999674,333.9697857000865,333.6701430999674,None,None,333.6701430999674,None,334.469703889871,None,,,,12007,0001,2021_Oct_29_1135,localizer,2021.1.3,60.01395933926182,
block,objects,objects052.bmp,,,,,0,97,97,97,,,,,,,,,,,,,,,,,,,,,,,,,,,,,,,,,,,,,,,,,,None,,334.469703889871,None,334.469703889871,None,2021-10-29-11:41:05.176336,334.4705115999095,334.7697423999198,334.4705115999095,None,y,334.4705115999095,None,335.2706309901085,None,0.6061252001672983,,,12007,0001,2021_Oct_29_1135,localizer,2021.1.3,60.01395933926182,
block,objects,objects020.bmp,,,,,0,98,98,98,,,,,,,,,,,,,,,,,,,,,,,,,,,,,,,,,,,,,,,,,,None,,335.2706309901085,None,335.2706309901085,None,2021-10-29-11:41:05.978083,335.2796491999179,335.58624840015545,335.2796491999179,335.2796491999179,None,335.2796491999179,335.2796491999179,336.08726498992183,None,,,,12007,0001,2021_Oct_29_1135,localizer,2021.1.3,60.01395933926182,
block,objects,objects026.bmp,,,,,0,99,99,99,,,,,,,,,,,,,,,,,,,,,,,,,,,,,,,,,,,,,,,,,,None,,336.08726498992183,None,336.08726498992183,None,2021-10-29-11:41:06.794095,336.08778559975326,336.39175300020725,336.08778559975326,None,y,336.08778559975326,None,336.9032464897726,None,0.5159592004492879,,,12007,0001,2021_Oct_29_1135,localizer,2021.1.3,60.01395933926182,
block,objects,objects064.bmp,,,,,0,100,100,100,,,,,,,,,,,,,,,,,,,,,,,,,,,,,,,,,,,,,,,,,,None,,336.9032464897726,None,336.9032464897726,None,2021-10-29-11:41:07.610110,336.9125149999745,337.2201171000488,336.9125149999745,None,None,336.9125149999745,None,337.7206423901487,None,,,,12007,0001,2021_Oct_29_1135,localizer,2021.1.3,60.01395933926182,
block,objects,objects028.bmp,,,,,0,101,101,101,,,,,,,,,,,,,,,,,,,,,,,,,,,,,,,,,,,,,,,,,,None,,337.7206423901487,None,337.7206423901487,None,2021-10-29-11:41:08.426236,337.72039620019495,338.0207660999149,337.72039620019495,None,y,337.72039620019495,None,338.5198516901117,None,0.5370845999568701,,,12007,0001,2021_Oct_29_1135,localizer,2021.1.3,60.01395933926182,
block,objects,objects024.bmp,,,,,0,102,102,102,,,,,,,,,,,,,,,,,,,,,,,,,,,,,,,,,,,,,,,,,,None,,338.5198516901117,None,338.5198516901117,None,2021-10-29-11:41:09.227496,338.52984690014273,338.83608559984714,338.52984690014273,338.52984690014273,None,338.52984690014273,338.52984690014273,339.33627359005624,None,,,,12007,0001,2021_Oct_29_1135,localizer,2021.1.3,60.01395933926182,
block,objects,objects043.bmp,,,,,0,103,103,103,,,,,,,,,,,,,,,,,,,,,,,,,,,,,,,,,,,,,,,,,,None,,339.33627359005624,None,339.33627359005624,None,2021-10-29-11:41:10.041924,339.3378015998751,339.65282130008563,339.3378015998751,None,y,339.3378015998751,None,340.1526796901133,None,0.7208378999494016,,,12007,0001,2021_Oct_29_1135,localizer,2021.1.3,60.01395933926182,
block,objects,objects065.bmp,,,,,0,104,104,104,,,,,,,,,,,,,,,,,,,,,,,,,,,,,,,,,,,,,,,,,,None,,340.1526796901133,None,340.1526796901133,None,2021-10-29-11:41:10.858289,340.16323469998315,340.46923140017316,340.16323469998315,None,None,340.16323469998315,None,340.970919489814,None,,,,12007,0001,2021_Oct_29_1135,localizer,2021.1.3,60.01395933926182,
block,objects,objects085.bmp,,,,,0,105,105,105,,,,,,,,,,,,,,,,,,,,,,,,,,,,,,,,,,,,,,,,,,None,,340.970919489814,None,340.970919489814,None,2021-10-29-11:41:11.679303,340.9832429001108,341.2929155998863,340.9832429001108,None,None,340.9832429001108,None,341.78677979013884,None,,,,12007,0001,2021_Oct_29_1135,localizer,2021.1.3,60.01395933926182,
block_end,objects,objects074.bmp,,,,,0,106,106,106,,,,,,,,,,,,,,,,,,,,,,,,,,,,,,,,,,,,,,,,,,None,,341.78677979013884,None,341.78677979013884,None,2021-10-29-11:41:12.493638,341.78726270003244,342.08657620009035,341.78726270003244,None,y,341.78726270003244,None,342.58648638981396,None,0.5865017999894917,,,12007,0001,2021_Oct_29_1135,localizer,2021.1.3,60.01395933926182,
block_start,scrambled,scrambled036.bmp,,,,,0,107,107,107,,,,,,,,,,,,,,,,,,,,,,,,,,,,,,,,,,,,,,,,,,t,1.792904700152576,342.58989039994776,None,342.58989039994776,None,2021-10-29-11:41:15.108120,344.41088949982077,344.7203345000744,344.41088949982077,None,None,344.41088949982077,None,345.22045388999396,None,,,,12007,0001,2021_Oct_29_1135,localizer,2021.1.3,60.01395933926182,
block,scrambled,scrambled049.bmp,,,,,0,108,108,108,,,,,,,,,,,,,,,,,,,,,,,,,,,,,,,,,,,,,,,,,,None,,345.22045388999396,None,345.22045388999396,None,2021-10-29-11:41:15.926974,345.2218408999033,345.53633200004697,345.2218408999033,None,None,345.2218408999033,None,346.0366706898902,None,,,,12007,0001,2021_Oct_29_1135,localizer,2021.1.3,60.01395933926182,
block,scrambled,scrambled043.bmp,,,,,0,109,109,109,,,,,,,,,,,,,,,,,,,,,,,,,,,,,,,,,,,,,,,,,,None,,346.0366706898902,None,346.0366706898902,None,2021-10-29-11:41:16.743548,346.03728860011324,346.3527266997844,346.03728860011324,None,y,346.03728860011324,None,346.8363451901358,None,0.5572302001528442,,,12007,0001,2021_Oct_29_1135,localizer,2021.1.3,60.01395933926182,
block,scrambled,scrambled043.bmp,,,,,0,110,110,110,,,,,,,,,,,,,,,,,,,,,,,,,,,,,,,,,,,,,,,,,,None,,346.8363451901358,None,346.8363451901358,None,2021-10-29-11:41:17.544029,346.8371951999143,347.13633769983426,346.8371951999143,346.8371951999143,y,346.8371951999143,346.8371951999143,347.636378589971,None,0.5134509997442365,,,12007,0001,2021_Oct_29_1135,localizer,2021.1.3,60.01395933926182,
block,scrambled,scrambled020.bmp,,,,,0,111,111,111,,,,,,,,,,,,,,,,,,,,,,,,,,,,,,,,,,,,,,,,,,None,,347.636378589971,None,347.636378589971,None,2021-10-29-11:41:18.345255,347.6483974000439,347.952998300083,347.6483974000439,347.6483974000439,None,347.6483974000439,347.6483974000439,348.45313689014876,None,,,,12007,0001,2021_Oct_29_1135,localizer,2021.1.3,60.01395933926182,
block,scrambled,scrambled013.bmp,,,,,0,112,112,112,,,,,,,,,,,,,,,,,,,,,,,,,,,,,,,,,,,,,,,,,,None,,348.45313689014876,None,348.45313689014876,None,2021-10-29-11:41:19.159867,348.46174360020086,348.76964619988576,348.46174360020086,None,None,348.46174360020086,None,349.2702698898036,None,,,,12007,0001,2021_Oct_29_1135,localizer,2021.1.3,60.01395933926182,
block,scrambled,scrambled007.bmp,,,,,0,113,113,113,,,,,,,,,,,,,,,,,,,,,,,,,,,,,,,,,,,,,,,,,,None,,349.2702698898036,None,349.2702698898036,None,2021-10-29-11:41:19.975969,349.27885100012645,349.58637070003897,349.27885100012645,None,y,349.27885100012645,None,350.0870391898323,None,0.5686439001001418,,,12007,0001,2021_Oct_29_1135,localizer,2021.1.3,60.01395933926182,
block,scrambled,scrambled047.bmp,,,,,0,114,114,114,,,,,,,,,,,,,,,,,,,,,,,,,,,,,,,,,,,,,,,,,,None,,350.0870391898323,None,350.0870391898323,None,2021-10-29-11:41:20.793706,350.0963865998201,350.40272470004857,350.0963865998201,None,y,350.0963865998201,None,350.9030136898626,None,0.34518019994720817,,,12007,0001,2021_Oct_29_1135,localizer,2021.1.3,60.01395933926182,
block,scrambled,scrambled072.bmp,,,,,0,115,115,115,,,,,,,,,,,,,,,,,,,,,,,,,,,,,,,,,,,,,,,,,,None,,350.9030136898626,None,350.9030136898626,None,2021-10-29-11:41:21.608789,350.9119677999988,351.2196367001161,350.9119677999988,None,None,350.9119677999988,None,351.7201823899057,None,,,,12007,0001,2021_Oct_29_1135,localizer,2021.1.3,60.01395933926182,
block,scrambled,scrambled071.bmp,,,,,0,116,116,116,,,,,,,,,,,,,,,,,,,,,,,,,,,,,,,,,,,,,,,,,,None,,351.7201823899057,None,351.7201823899057,None,2021-10-29-11:41:22.426856,351.720697700046,352.02021199977025,351.720697700046,None,None,351.720697700046,None,352.52118729003706,None,,,,12007,0001,2021_Oct_29_1135,localizer,2021.1.3,60.01395933926182,
block,scrambled,scrambled069.bmp,,,,,0,117,117,117,,,,,,,,,,,,,,,,,,,,,,,,,,,,,,,,,,,,,,,,,,None,,352.52118729003706,None,352.52118729003706,None,2021-10-29-11:41:23.231019,352.5349023998715,352.83615069976076,352.5349023998715,352.5349023998715,None,352.5349023998715,352.5349023998715,353.3364053898957,None,,,,12007,0001,2021_Oct_29_1135,localizer,2021.1.3,60.01395933926182,
block,scrambled,scrambled039.bmp,,,,,0,118,118,118,,,,,,,,,,,,,,,,,,,,,,,,,,,,,,,,,,,,,,,,,,None,,353.3364053898957,None,353.3364053898957,None,2021-10-29-11:41:24.043086,353.3455316000618,353.65383489988744,353.3455316000618,None,None,353.3455316000618,None,354.1537689901423,None,,,,12007,0001,2021_Oct_29_1135,localizer,2021.1.3,60.01395933926182,
block,scrambled,scrambled001.bmp,,,,,0,119,119,119,,,,,,,,,,,,,,,,,,,,,,,,,,,,,,,,,,,,,,,,,,None,,354.1537689901423,None,354.1537689901423,None,2021-10-29-11:41:24.860426,354.16465360019356,354.47030609985813,354.16465360019356,None,y,354.16465360019356,None,354.9703379901592,None,0.39690429996699095,,,12007,0001,2021_Oct_29_1135,localizer,2021.1.3,60.01395933926182,
block,scrambled,scrambled068.bmp,,,,,0,120,120,120,,,,,,,,,,,,,,,,,,,,,,,,,,,,,,,,,,,,,,,,,,None,,354.9703379901592,None,354.9703379901592,None,2021-10-29-11:41:25.677289,354.98061339976266,355.2870303001255,354.98061339976266,None,None,354.98061339976266,None,355.78715718998575,None,,,,12007,0001,2021_Oct_29_1135,localizer,2021.1.3,60.01395933926182,
block_end,scrambled,scrambled078.bmp,,,,,0,121,121,121,,,,,,,,,,,,,,,,,,,,,,,,,,,,,,,,,,,,,,,,,,None,,355.78715718998575,None,355.78715718998575,None,2021-10-29-11:41:26.493987,355.7978305001743,356.10314439982176,355.7978305001743,None,y,355.7978305001743,None,356.6033974899445,None,0.28677969984710217,,,12007,0001,2021_Oct_29_1135,localizer,2021.1.3,60.01395933926182,
null_block,null_block,null_block.bmp,,,,,0,122,122,122,,,,,,,,,,,,,,,,,,,,,,,,,,,,,,,,,,,,,,,,,,t,1.7796299997717142,356.6031871000305,None,356.6031871000305,None,2021-10-29-11:41:29.108437,358.40354768973776,None,358.40354768973776,None,None,358.40354768973776,None,358.4037708998658,None,,,,12007,0001,2021_Oct_29_1135,localizer,2021.1.3,60.01395933926182,
block_start,scrambled,scrambled020.bmp,,,,,0,123,123,123,,,,,,,,,,,,,,,,,,,,,,,,,,,,,,,,,,,,,,,,,,t,1.9794850000180304,370.4034072998911,None,370.4034072998911,None,2021-10-29-11:41:43.110827,372.4041101997718,372.7036232999526,372.4041101997718,None,None,372.4041101997718,None,373.2037394898478,None,,,,12007,0001,2021_Oct_29_1135,localizer,2021.1.3,60.01395933926182,
block,scrambled,scrambled076.bmp,,,,,0,124,124,124,,,,,,,,,,,,,,,,,,,,,,,,,,,,,,,,,,,,,,,,,,None,,373.2037394898478,None,373.2037394898478,None,2021-10-29-11:41:43.912463,373.20427019987255,373.51956989988685,373.20427019987255,373.20427019987255,None,373.20427019987255,373.20427019987255,374.01984398993665,None,,,,12007,0001,2021_Oct_29_1135,localizer,2021.1.3,60.01395933926182,
block,scrambled,scrambled013.bmp,,,,,0,125,125,125,,,,,,,,,,,,,,,,,,,,,,,,,,,,,,,,,,,,,,,,,,None,,374.01984398993665,None,374.01984398993665,None,2021-10-29-11:41:44.726769,374.0208306000568,374.3196080001071,374.0208306000568,None,y,374.0208306000568,None,374.8200708897319,None,0.09179610013961792,,,12007,0001,2021_Oct_29_1135,localizer,2021.1.3,60.01395933926182,
block,scrambled,scrambled058.bmp,,,,,0,126,126,126,,,,,,,,,,,,,,,,,,,,,,,,,,,,,,,,,,,,,,,,,,None,,374.8200708897319,None,374.8200708897319,None,2021-10-29-11:41:45.527781,374.8558895997703,375.17001080000773,374.8558895997703,374.8558895997703,None,374.8558895997703,374.8558895997703,375.6367524899077,None,,,,12007,0001,2021_Oct_29_1135,localizer,2021.1.3,60.01395933926182,
block,scrambled,scrambled044.bmp,,,,,0,127,127,127,,,,,,,,,,,,,,,,,,,,,,,,,,,,,,,,,,,,,,,,,,None,,375.6367524899077,None,375.6367524899077,None,2021-10-29-11:41:46.343330,375.6467121997848,375.95299049979076,375.6467121997848,None,None,375.6467121997848,None,376.45271818987095,None,,,,12007,0001,2021_Oct_29_1135,localizer,2021.1.3,60.01395933926182,
block,scrambled,scrambled014.bmp,,,,,0,128,128,128,,,,,,,,,,,,,,,,,,,,,,,,,,,,,,,,,,,,,,,,,,None,,376.45271818987095,None,376.45271818987095,None,2021-10-29-11:41:47.158467,376.46087120007724,376.77034150017425,376.46087120007724,None,None,376.46087120007724,None,377.277107090177,None,,,,12007,0001,2021_Oct_29_1135,localizer,2021.1.3,60.01395933926182,
block,scrambled,scrambled029.bmp,,,,,0,129,129,129,,,,,,,,,,,,,,,,,,,,,,,,,,,,,,,,,,,,,,,,,,None,,377.277107090177,None,377.277107090177,None,2021-10-29-11:41:47.987780,377.28814869979396,377.603079599794,377.28814869979396,None,None,377.28814869979396,None,378.08658648976126,None,,,,12007,0001,2021_Oct_29_1135,localizer,2021.1.3,60.01395933926182,
block,scrambled,scrambled069.bmp,,,,,0,130,130,130,,,,,,,,,,,,,,,,,,,,,,,,,,,,,,,,,,,,,,,,,,None,,378.08658648976126,None,378.08658648976126,None,2021-10-29-11:41:48.793335,378.0873638000339,378.4030905999243,378.0873638000339,None,None,378.0873638000339,None,378.8868895899039,None,,,,12007,0001,2021_Oct_29_1135,localizer,2021.1.3,60.01395933926182,
block,scrambled,scrambled070.bmp,,,,,0,131,131,131,,,,,,,,,,,,,,,,,,,,,,,,,,,,,,,,,,,,,,,,,,None,,378.8868895899039,None,378.8868895899039,None,2021-10-29-11:41:49.595814,378.898994400166,379.20943479985,378.898994400166,378.898994400166,y,378.898994400166,378.898994400166,379.70461079007947,None,0.6796182999387383,,,12007,0001,2021_Oct_29_1135,localizer,2021.1.3,60.01395933926182,
block,scrambled,scrambled031.bmp,,,,,0,132,132,132,,,,,,,,,,,,,,,,,,,,,,,,,,,,,,,,,,,,,,,,,,None,,379.70461079007947,None,379.70461079007947,None,2021-10-29-11:41:50.413421,379.7189206001349,380.0203873999417,379.7189206001349,None,None,379.7189206001349,None,380.5198184898589,None,,,,12007,0001,2021_Oct_29_1135,localizer,2021.1.3,60.01395933926182,
block,scrambled,scrambled019.bmp,,,,,0,133,133,133,,,,,,,,,,,,,,,,,,,,,,,,,,,,,,,,,,,,,,,,,,None,,380.5198184898589,None,380.5198184898589,None,2021-10-29-11:41:51.225595,380.52158410008997,380.8366268998943,380.52158410008997,None,y,380.52158410008997,None,381.336425790051,None,0.6069919001311064,,,12007,0001,2021_Oct_29_1135,localizer,2021.1.3,60.01395933926182,
block,scrambled,scrambled080.bmp,,,,,0,134,134,134,,,,,,,,,,,,,,,,,,,,,,,,,,,,,,,,,,,,,,,,,,None,,381.336425790051,None,381.336425790051,None,2021-10-29-11:41:52.042565,381.3410682999529,381.6535069998354,381.3410682999529,None,None,381.3410682999529,None,382.1537740900647,None,,,,12007,0001,2021_Oct_29_1135,localizer,2021.1.3,60.01395933926182,
block,scrambled,scrambled026.bmp,,,,,0,135,135,135,,,,,,,,,,,,,,,,,,,,,,,,,,,,,,,,,,,,,,,,,,None,,382.1537740900647,None,382.1537740900647,None,2021-10-29-11:41:52.860524,382.1631705998443,382.46974689979106,382.1631705998443,None,y,382.1631705998443,None,382.9709792900365,None,0.15137729980051517,,,12007,0001,2021_Oct_29_1135,localizer,2021.1.3,60.01395933926182,
block,scrambled,scrambled085.bmp,,,,,0,136,136,136,,,,,,,,,,,,,,,,,,,,,,,,,,,,,,,,,,,,,,,,,,None,,382.9709792900365,None,382.9709792900365,None,2021-10-29-11:41:53.677910,382.982032999862,383.2862893999554,382.982032999862,None,y,382.982032999862,None,383.78699909006247,None,0.6885230001062155,,,12007,0001,2021_Oct_29_1135,localizer,2021.1.3,60.01395933926182,
block_end,scrambled,scrambled033.bmp,,,,,0,137,137,137,,,,,,,,,,,,,,,,,,,,,,,,,,,,,,,,,,,,,,,,,,None,,383.78699909006247,None,383.78699909006247,None,2021-10-29-11:41:54.493738,383.79680139990523,384.10559279983863,383.79680139990523,None,None,383.79680139990523,None,384.603365589818,None,,,,12007,0001,2021_Oct_29_1135,localizer,2021.1.3,60.01395933926182,
block_start,faces,faces081.bmp,,,,,0,138,138,138,,,,,,,,,,,,,,,,,,,,,,,,,,,,,,,,,,,,,,,,,,t,1.7798711000941694,384.6032722000964,None,384.6032722000964,None,2021-10-29-11:41:57.118647,386.426582199987,386.7364459000528,386.426582199987,None,None,386.426582199987,None,387.2200932898093,None,,,,12007,0001,2021_Oct_29_1135,localizer,2021.1.3,60.01395933926182,
block,faces,faces006.bmp,,,,,0,139,139,139,,,,,,,,,,,,,,,,,,,,,,,,,,,,,,,,,,,,,,,,,,None,,387.2200932898093,None,387.2200932898093,None,2021-10-29-11:41:57.926934,387.2209971998818,387.52107409993187,387.2209971998818,None,None,387.2209971998818,None,388.0238169901539,None,,,,12007,0001,2021_Oct_29_1135,localizer,2021.1.3,60.01395933926182,
block,faces,faces018.bmp,,,,,0,140,140,140,,,,,,,,,,,,,,,,,,,,,,,,,,,,,,,,,,,,,,,,,,None,,388.0238169901539,None,388.0238169901539,None,2021-10-29-11:41:58.738479,388.04361669998616,388.3531475001946,388.04361669998616,388.04361669998616,None,388.04361669998616,388.04361669998616,388.8370707900729,None,,,,12007,0001,2021_Oct_29_1135,localizer,2021.1.3,60.01395933926182,
block,faces,faces069.bmp,,,,,0,141,141,141,,,,,,,,,,,,,,,,,,,,,,,,,,,,,,,,,,,,,,,,,,None,,388.8370707900729,None,388.8370707900729,None,2021-10-29-11:41:59.543841,388.848300000187,389.15366799989715,388.848300000187,None,None,388.848300000187,None,389.6535217901226,None,,,,12007,0001,2021_Oct_29_1135,localizer,2021.1.3,60.01395933926182,
block,faces,faces056.bmp,,,,,0,142,142,142,,,,,,,,,,,,,,,,,,,,,,,,,,,,,,,,,,,,,,,,,,None,,389.6535217901226,None,389.6535217901226,None,2021-10-29-11:42:00.360870,389.6633772999048,389.9738481999375,389.6633772999048,None,None,389.6633772999048,None,390.4701177901123,None,,,,12007,0001,2021_Oct_29_1135,localizer,2021.1.3,60.01395933926182,
block,faces,faces021.bmp,,,,,0,143,143,143,,,,,,,,,,,,,,,,,,,,,,,,,,,,,,,,,,,,,,,,,,None,,390.4701177901123,None,390.4701177901123,None,2021-10-29-11:42:01.176896,390.48152300016955,390.78668490005657,390.48152300016955,None,None,390.48152300016955,None,391.29405179009774,None,,,,12007,0001,2021_Oct_29_1135,localizer,2021.1.3,60.01395933926182,
block,faces,faces042.bmp,,,,,0,144,144,144,,,,,,,,,,,,,,,,,,,,,,,,,,,,,,,,,,,,,,,,,,None,,391.29405179009774,None,391.29405179009774,None,2021-10-29-11:42:02.004671,391.3094191001728,391.62010330008343,391.3094191001728,None,None,391.3094191001728,None,392.103554590093,None,,,,12007,0001,2021_Oct_29_1135,localizer,2021.1.3,60.01395933926182,
block,faces,faces059.bmp,,,,,0,145,145,145,,,,,,,,,,,,,,,,,,,,,,,,,,,,,,,,,,,,,,,,,,None,,392.103554590093,None,392.103554590093,None,2021-10-29-11:42:02.810337,392.1126182000153,392.41992399981245,392.1126182000153,None,None,392.1126182000153,None,392.9201299901586,None,,,,12007,0001,2021_Oct_29_1135,localizer,2021.1.3,60.01395933926182,
block,faces,faces089.bmp,,,,,0,146,146,146,,,,,,,,,,,,,,,,,,,,,,,,,,,,,,,,,,,,,,,,,,None,,392.9201299901586,None,392.9201299901586,None,2021-10-29-11:42:03.626917,392.9210029998794,393.21999019989744,392.9210029998794,None,y,392.9210029998794,None,393.7201429898385,None,0.5526525001041591,,,12007,0001,2021_Oct_29_1135,localizer,2021.1.3,60.01395933926182,
block,faces,faces017.bmp,,,,,0,147,147,147,,,,,,,,,,,,,,,,,,,,,,,,,,,,,,,,,,,,,,,,,,None,,393.7201429898385,None,393.7201429898385,None,2021-10-29-11:42:04.429141,393.7209081999026,394.0201201001182,393.7209081999026,393.7209081999026,y,393.7209081999026,393.7209081999026,394.5202269898262,None,0.6075419001281261,,,12007,0001,2021_Oct_29_1135,localizer,2021.1.3,60.01395933926182,
block,faces,faces039.bmp,,,,,0,148,148,148,,,,,,,,,,,,,,,,,,,,,,,,,,,,,,,,,,,,,,,,,,None,,394.5202269898262,None,394.5202269898262,None,2021-10-29-11:42:05.229016,394.5208934000693,394.82006729999557,394.5208934000693,394.5208934000693,y,394.5208934000693,394.5208934000693,395.31996728987434,None,0.4798039998859167,,,12007,0001,2021_Oct_29_1135,localizer,2021.1.3,60.01395933926182,
block,faces,faces052.bmp,,,,,0,149,149,149,,,,,,,,,,,,,,,,,,,,,,,,,,,,,,,,,,,,,,,,,,None,,395.31996728987434,None,395.31996728987434,None,2021-10-29-11:42:06.026768,395.33034989982843,395.636526199989,395.33034989982843,395.33034989982843,None,395.33034989982843,395.33034989982843,396.1368620898109,None,,,,12007,0001,2021_Oct_29_1135,localizer,2021.1.3,60.01395933926182,
block,faces,faces078.bmp,,,,,0,150,150,150,,,,,,,,,,,,,,,,,,,,,,,,,,,,,,,,,,,,,,,,,,None,,396.1368620898109,None,396.1368620898109,None,2021-10-29-11:42:06.843655,396.1477147000842,396.4597265999764,396.1477147000842,None,None,396.1477147000842,None,396.95308668999934,None,,,,12007,0001,2021_Oct_29_1135,localizer,2021.1.3,60.01395933926182,
block,faces,faces009.bmp,,,,,0,151,151,151,,,,,,,,,,,,,,,,,,,,,,,,,,,,,,,,,,,,,,,,,,None,,396.95308668999934,None,396.95308668999934,None,2021-10-29-11:42:07.658890,396.9618294998072,397.26946899993345,396.9618294998072,None,None,396.9618294998072,None,397.76994539001026,None,,,,12007,0001,2021_Oct_29_1135,localizer,2021.1.3,60.01395933926182,
block_end,faces,faces035.bmp,,,,,0,152,152,152,,,,,,,,,,,,,,,,,,,,,,,,,,,,,,,,,,,,,,,,,,None,,397.76994539001026,None,397.76994539001026,None,2021-10-29-11:42:08.481684,397.7906240997836,398.10333119984716,397.7906240997836,None,None,397.7906240997836,None,398.5871258899104,None,,,,12007,0001,2021_Oct_29_1135,localizer,2021.1.3,60.01395933926182,
block_start,scenes,scenes042.bmp,,,,,0,153,153,153,,,,,,,,,,,,,,,,,,,,,,,,,,,,,,,,,,,,,,,,,,t,1.7949381000362337,398.586949700024,None,398.586949700024,None,2021-10-29-11:42:11.111042,400.41733760014176,400.71990410005674,400.41733760014176,None,None,400.41733760014176,None,401.2213024901692,None,,,,12007,0001,2021_Oct_29_1135,localizer,2021.1.3,60.01395933926182,
block,scenes,scenes070.bmp,,,,,0,154,154,154,,,,,,,,,,,,,,,,,,,,,,,,,,,,,,,,,,,,,,,,,,None,,401.2213024901692,None,401.2213024901692,None,2021-10-29-11:42:11.929020,401.233562100213,401.53736279997975,401.233562100213,None,None,401.233562100213,None,402.0394672899973,None,,,,12007,0001,2021_Oct_29_1135,localizer,2021.1.3,60.01395933926182,
block,scenes,scenes084.bmp,,,,,0,155,155,155,,,,,,,,,,,,,,,,,,,,,,,,,,,,,,,,,,,,,,,,,,None,,402.0394672899973,None,402.0394672899973,None,2021-10-29-11:42:12.749227,402.04254119982943,402.3540699998848,402.04254119982943,None,y,402.04254119982943,None,402.8540543899406,None,0.6571638998575509,,,12007,0001,2021_Oct_29_1135,localizer,2021.1.3,60.01395933926182,
block,scenes,scenes038.bmp,,,,,0,156,156,156,,,,,,,,,,,,,,,,,,,,,,,,,,,,,,,,,,,,,,,,,,None,,402.8540543899406,None,402.8540543899406,None,2021-10-29-11:42:13.561010,402.85503340000287,403.17030749982223,402.85503340000287,None,y,402.85503340000287,None,403.6701524899807,None,0.4817504002712667,,,12007,0001,2021_Oct_29_1135,localizer,2021.1.3,60.01395933926182,
block,scenes,scenes021.bmp,,,,,0,157,157,157,,,,,,,,,,,,,,,,,,,,,,,,,,,,,,,,,,,,,,,,,,None,,403.6701524899807,None,403.6701524899807,None,2021-10-29-11:42:14.377590,403.6813688999973,403.986322700046,403.6813688999973,None,None,403.6813688999973,None,404.48686779006385,None,,,,12007,0001,2021_Oct_29_1135,localizer,2021.1.3,60.01395933926182,
block,scenes,scenes011.bmp,,,,,0,158,158,158,,,,,,,,,,,,,,,,,,,,,,,,,,,,,,,,,,,,,,,,,,None,,404.48686779006385,None,404.48686779006385,None,2021-10-29-11:42:15.193685,404.49614869989455,404.80307530006394,404.49614869989455,None,y,404.49614869989455,None,405.29302948988044,None,0.35935650020837784,,,12007,0001,2021_Oct_29_1135,localizer,2021.1.3,60.01395933926182,
block,scenes,scenes053.bmp,,,,,0,159,159,159,,,,,,,,,,,,,,,,,,,,,,,,,,,,,,,,,,,,,,,,,,None,,405.29302948988044,None,405.29302948988044,None,2021-10-29-11:42:16.006515,405.29849690012634,405.6033598999493,405.29849690012634,None,None,405.29849690012634,None,406.10396418995225,None,,,,12007,0001,2021_Oct_29_1135,localizer,2021.1.3,60.01395933926182,
block,scenes,scenes014.bmp,,,,,0,160,160,160,,,,,,,,,,,,,,,,,,,,,,,,,,,,,,,,,,,,,,,,,,None,,406.10396418995225,None,406.10396418995225,None,2021-10-29-11:42:16.810979,406.1166257997975,406.42016700003296,406.1166257997975,None,None,406.1166257997975,None,406.9213466899935,None,,,,12007,0001,2021_Oct_29_1135,localizer,2021.1.3,60.01395933926182,
block,scenes,scenes080.bmp,,,,,0,161,161,161,,,,,,,,,,,,,,,,,,,,,,,,,,,,,,,,,,,,,,,,,,None,,406.9213466899935,None,406.9213466899935,None,2021-10-29-11:42:17.629576,406.9235923998058,407.23627879982814,406.9235923998058,None,y,406.9235923998058,None,407.73749059014955,None,0.6453058999031782,,,12007,0001,2021_Oct_29_1135,localizer,2021.1.3,60.01395933926182,
block,scenes,scenes080.bmp,,,,,0,162,162,162,,,,,,,,,,,,,,,,,,,,,,,,,,,,,,,,,,,,,,,,,,None,,407.73749059014955,None,407.73749059014955,None,2021-10-29-11:42:18.444289,407.7382592000067,408.05327240005136,407.7382592000067,None,y,407.7382592000067,None,408.5535902897362,None,0.49436110025271773,,,12007,0001,2021_Oct_29_1135,localizer,2021.1.3,60.01395933926182,
block,scenes,scenes071.bmp,,,,,0,163,163,163,,,,,,,,,,,,,,,,,,,,,,,,,,,,,,,,,,,,,,,,,,None,,408.5535902897362,None,408.5535902897362,None,2021-10-29-11:42:19.260951,408.5544548998587,408.8699384997599,408.5544548998587,None,None,408.5544548998587,None,409.35411609006115,None,,,,12007,0001,2021_Oct_29_1135,localizer,2021.1.3,60.01395933926182,
block,scenes,scenes017.bmp,,,,,0,164,164,164,,,,,,,,,,,,,,,,,,,,,,,,,,,,,,,,,,,,,,,,,,None,,409.35411609006115,None,409.35411609006115,None,2021-10-29-11:42:20.063929,409.3687513000332,409.67013909993693,409.3687513000332,409.3687513000332,y,409.3687513000332,409.3687513000332,410.17055538990536,None,0.2408424997702241,,,12007,0001,2021_Oct_29_1135,localizer,2021.1.3,60.01395933926182,
block,scenes,scenes031.bmp,,,,,0,165,165,165,,,,,,,,,,,,,,,,,,,,,,,,,,,,,,,,,,,,,,,,,,None,,410.17055538990536,None,410.17055538990536,None,2021-10-29-11:42:20.877491,410.1814381000586,410.4867980000563,410.1814381000586,None,None,410.1814381000586,None,410.98659578985536,None,,,,12007,0001,2021_Oct_29_1135,localizer,2021.1.3,60.01395933926182,
block,scenes,scenes012.bmp,,,,,0,166,166,166,,,,,,,,,,,,,,,,,,,,,,,,,,,,,,,,,,,,,,,,,,None,,410.98659578985536,None,410.98659578985536,None,2021-10-29-11:42:21.693436,410.9962260997854,411.30322939995676,410.9962260997854,None,None,410.9962260997854,None,411.7947675901931,None,,,,12007,0001,2021_Oct_29_1135,localizer,2021.1.3,60.01395933926182,
block_end,scenes,scenes006.bmp,,,,,0,167,167,167,,,,,,,,,,,,,,,,,,,,,,,,,,,,,,,,,,,,,,,,,,None,,411.7947675901931,None,411.7947675901931,None,2021-10-29-11:42:22.507641,411.7987048998475,412.1033205999993,411.7987048998475,None,None,411.7987048998475,None,412.60424009007403,None,,,,12007,0001,2021_Oct_29_1135,localizer,2021.1.3,60.01395933926182,
block_start,objects,objects045.bmp,,,,,0,168,168,168,,,,,,,,,,,,,,,,,,,,,,,,,,,,,,,,,,,,,,,,,,t,1.7777757998555899,412.6040604999289,None,412.6040604999289,None,2021-10-29-11:42:25.112827,414.40744999982417,414.7207868001424,414.40744999982417,None,y,414.40744999982417,None,415.22037219018677,None,0.6802388997748494,,,12007,0001,2021_Oct_29_1135,localizer,2021.1.3,60.01395933926182,
block,objects,objects061.bmp,,,,,0,169,169,169,,,,,,,,,,,,,,,,,,,,,,,,,,,,,,,,,,,,,,,,,,None,,415.22037219018677,None,415.22037219018677,None,2021-10-29-11:42:25.927217,415.23049549991265,415.5381453000009,415.23049549991265,None,None,415.23049549991265,None,416.03705048975536,None,,,,12007,0001,2021_Oct_29_1135,localizer,2021.1.3,60.01395933926182,
block,objects,objects060.bmp,,,,,0,170,170,170,,,,,,,,,,,,,,,,,,,,,,,,,,,,,,,,,,,,,,,,,,None,,416.03705048975536,None,416.03705048975536,None,2021-10-29-11:42:26.744104,416.04685090016574,416.35351279983297,416.04685090016574,None,None,416.04685090016574,None,416.8538244901691,None,,,,12007,0001,2021_Oct_29_1135,localizer,2021.1.3,60.01395933926182,
block,objects,objects055.bmp,,,,,0,171,171,171,,,,,,,,,,,,,,,,,,,,,,,,,,,,,,,,,,,,,,,,,,None,,416.8538244901691,None,416.8538244901691,None,2021-10-29-11:42:27.560668,416.8646335997619,417.1700769001618,416.8646335997619,None,None,416.8646335997619,None,417.67078228988686,None,,,,12007,0001,2021_Oct_29_1135,localizer,2021.1.3,60.01395933926182,
block,objects,objects065.bmp,,,,,0,172,172,172,,,,,,,,,,,,,,,,,,,,,,,,,,,,,,,,,,,,,,,,,,None,,417.67078228988686,None,417.67078228988686,None,2021-10-29-11:42:28.377627,417.67217499995604,417.9866534997709,417.67217499995604,None,y,417.67217499995604,None,418.4868244900834,None,0.608865300193429,,,12007,0001,2021_Oct_29_1135,localizer,2021.1.3,60.01395933926182,
block,objects,objects049.bmp,,,,,0,173,173,173,,,,,,,,,,,,,,,,,,,,,,,,,,,,,,,,,,,,,,,,,,None,,418.4868244900834,None,418.4868244900834,None,2021-10-29-11:42:29.193685,418.49575119977817,418.8033439000137,418.49575119977817,None,None,418.49575119977817,None,419.30335628981703,None,,,,12007,0001,2021_Oct_29_1135,localizer,2021.1.3,60.01395933926182,
block,objects,objects079.bmp,,,,,0,174,174,174,,,,,,,,,,,,,,,,,,,,,,,,,,,,,,,,,,,,,,,,,,None,,419.30335628981703,None,419.30335628981703,None,2021-10-29-11:42:30.010218,419.31141889980063,419.62044729990885,419.31141889980063,None,None,419.31141889980063,None,420.1203079898376,None,,,,12007,0001,2021_Oct_29_1135,localizer,2021.1.3,60.01395933926182,
block,objects,objects039.bmp,,,,,0,175,175,175,,,,,,,,,,,,,,,,,,,,,,,,,,,,,,,,,,,,,,,,,,None,,420.1203079898376,None,420.1203079898376,None,2021-10-29-11:42:30.827169,420.129868700169,420.4432824999094,420.129868700169,None,None,420.129868700169,None,420.9365530898329,None,,,,12007,0001,2021_Oct_29_1135,localizer,2021.1.3,60.01395933926182,
block,objects,objects073.bmp,,,,,0,176,176,176,,,,,,,,,,,,,,,,,,,,,,,,,,,,,,,,,,,,,,,,,,None,,420.9365530898329,None,420.9365530898329,None,2021-10-29-11:42:31.643698,420.9448890001513,421.253739700187,420.9448890001513,None,None,420.9448890001513,None,421.75367029006594,None,,,,12007,0001,2021_Oct_29_1135,localizer,2021.1.3,60.01395933926182,
block,objects,objects003.bmp,,,,,0,177,177,177,,,,,,,,,,,,,,,,,,,,,,,,,,,,,,,,,,,,,,,,,,None,,421.75367029006594,None,421.75367029006594,None,2021-10-29-11:42:32.460748,421.7636919999495,422.0697336997837,421.7636919999495,None,None,421.7636919999495,None,422.57035259013065,None,,,,12007,0001,2021_Oct_29_1135,localizer,2021.1.3,60.01395933926182,
block,objects,objects057.bmp,,,,,0,178,178,178,,,,,,,,,,,,,,,,,,,,,,,,,,,,,,,,,,,,,,,,,,None,,422.57035259013065,None,422.57035259013065,None,2021-10-29-11:42:33.277122,422.5803380999714,422.88674890017137,422.5803380999714,None,None,422.5803380999714,None,423.38721599006095,None,,,,12007,0001,2021_Oct_29_1135,localizer,2021.1.3,60.01395933926182,
block,objects,objects087.bmp,,,,,0,179,179,179,,,,,,,,,,,,,,,,,,,,,,,,,,,,,,,,,,,,,,,,,,None,,423.38721599006095,None,423.38721599006095,None,2021-10-29-11:42:34.094281,423.39788160007447,423.7047784999013,423.39788160007447,None,None,423.39788160007447,None,424.2047655898612,None,,,,12007,0001,2021_Oct_29_1135,localizer,2021.1.3,60.01395933926182,
block,objects,objects005.bmp,,,,,0,180,180,180,,,,,,,,,,,,,,,,,,,,,,,,,,,,,,,,,,,,,,,,,,None,,424.2047655898612,None,424.2047655898612,None,2021-10-29-11:42:34.912616,424.2180745000951,424.52035149978474,424.2180745000951,None,None,424.2180745000951,None,425.02046729014256,None,,,,12007,0001,2021_Oct_29_1135,localizer,2021.1.3,60.01395933926182,
block,objects,objects058.bmp,,,,,0,181,181,181,,,,,,,,,,,,,,,,,,,,,,,,,,,,,,,,,,,,,,,,,,None,,425.02046729014256,None,425.02046729014256,None,2021-10-29-11:42:35.727561,425.02781220013276,425.3370310999453,425.02781220013276,None,None,425.02781220013276,None,425.83725828998723,None,,,,12007,0001,2021_Oct_29_1135,localizer,2021.1.3,60.01395933926182,
block_end,objects,objects025.bmp,,,,,0,182,182,182,,,,,,,,,,,,,,,,,,,,,,,,,,,,,,,,,,,,,,,,,,None,,425.83725828998723,None,425.83725828998723,None,2021-10-29-11:42:36.544315,425.8443955001421,426.1535332999192,425.8443955001421,None,None,425.8443955001421,None,426.65374638973736,None,,,,12007,0001,2021_Oct_29_1135,localizer,2021.1.3,60.01395933926182,
null_block,null_block,null_block.bmp,,,,,0,183,183,183,,,,,,,,,,,,,,,,,,,,,,,,,,,,,,,,,,,,,,,,,,t,1.7281434000469744,426.65364289982244,None,426.65364289982244,None,2021-10-29-11:42:39.110098,428.4040202898439,None,428.4040202898439,None,None,428.4040202898439,None,428.40660639991984,None,,,,12007,0001,2021_Oct_29_1135,localizer,2021.1.3,60.01395933926182,
block_start,objects,objects063.bmp,,,,,0,184,184,184,,,,,,,,,,,,,,,,,,,,,,,,,,,,,,,,,,,,,,,,,,t,1.975914899725467,440.40575810009614,None,440.40575810009614,None,2021-10-29-11:42:53.113210,442.4159360001795,442.72038989979774,442.4159360001795,None,None,442.4159360001795,None,443.2204449898098,None,,,,12007,0001,2021_Oct_29_1135,localizer,2021.1.3,60.01395933926182,
block,objects,objects046.bmp,,,,,0,185,185,185,,,,,,,,,,,,,,,,,,,,,,,,,,,,,,,,,,,,,,,,,,None,,443.2204449898098,None,443.2204449898098,None,2021-10-29-11:42:53.927366,443.2308308999054,443.53692839993164,443.2308308999054,None,None,443.2308308999054,None,444.038200790016,None,,,,12007,0001,2021_Oct_29_1135,localizer,2021.1.3,60.01395933926182,
block,objects,objects049.bmp,,,,,0,186,186,186,,,,,,,,,,,,,,,,,,,,,,,,,,,,,,,,,,,,,,,,,,None,,444.038200790016,None,444.038200790016,None,2021-10-29-11:42:54.746861,444.04087790008634,444.35373149998486,444.04087790008634,None,y,444.04087790008634,None,444.85326358997264,None,0.5997207001782954,,,12007,0001,2021_Oct_29_1135,localizer,2021.1.3,60.01395933926182,
block,objects,objects005.bmp,,,,,0,187,187,187,,,,,,,,,,,,,,,,,,,,,,,,,,,,,,,,,,,,,,,,,,None,,444.85326358997264,None,444.85326358997264,None,2021-10-29-11:42:55.560193,444.8545098998584,445.1540196998976,444.8545098998584,None,y,444.8545098998584,None,445.6540055898484,None,0.5039923000149429,,,12007,0001,2021_Oct_29_1135,localizer,2021.1.3,60.01395933926182,
block,objects,objects031.bmp,,,,,0,188,188,188,,,,,,,,,,,,,,,,,,,,,,,,,,,,,,,,,,,,,,,,,,None,,445.6540055898484,None,445.6540055898484,None,2021-10-29-11:42:56.363054,445.6657825000584,445.97091689985245,445.6657825000584,445.6657825000584,None,445.6657825000584,445.6657825000584,446.47007289011964,None,,,,12007,0001,2021_Oct_29_1135,localizer,2021.1.3,60.01395933926182,
block,objects,objects031.bmp,,,,,0,189,189,189,,,,,,,,,,,,,,,,,,,,,,,,,,,,,,,,,,,,,,,,,,None,,446.47007289011964,None,446.47007289011964,None,2021-10-29-11:42:57.177011,446.4714576997794,446.78658419987187,446.4714576997794,None,y,446.4714576997794,None,447.2724734898191,None,0.5111504998058081,,,12007,0001,2021_Oct_29_1135,localizer,2021.1.3,60.01395933926182,
block,objects,objects009.bmp,,,,,0,190,190,190,,,,,,,,,,,,,,,,,,,,,,,,,,,,,,,,,,,,,,,,,,None,,447.2724734898191,None,447.2724734898191,None,2021-10-29-11:42:57.985153,447.29030499979854,447.60328650008887,447.29030499979854,447.29030499979854,y,447.29030499979854,447.29030499979854,448.0872001898941,None,0.20219730027019978,,,12007,0001,2021_Oct_29_1135,localizer,2021.1.3,60.01395933926182,
block,objects,objects020.bmp,,,,,0,191,191,191,,,,,,,,,,,,,,,,,,,,,,,,,,,,,,,,,,,,,,,,,,None,,448.0872001898941,None,448.0872001898941,None,2021-10-29-11:42:58.794352,448.0878630001098,448.3871292998083,448.0878630001098,None,None,448.0878630001098,None,448.88732148981654,None,,,,12007,0001,2021_Oct_29_1135,localizer,2021.1.3,60.01395933926182,
block,objects,objects052.bmp,,,,,0,192,192,192,,,,,,,,,,,,,,,,,,,,,,,,,,,,,,,,,,,,,,,,,,None,,448.88732148981654,None,448.88732148981654,None,2021-10-29-11:42:59.596458,448.89011019980535,449.20341229997575,448.89011019980535,448.89011019980535,y,448.89011019980535,448.89011019980535,449.70410219016486,None,0.5085974000394344,,,12007,0001,2021_Oct_29_1135,localizer,2021.1.3,60.01395933926182,
block,objects,objects013.bmp,,,,,0,193,193,193,,,,,,,,,,,,,,,,,,,,,,,,,,,,,,,,,,,,,,,,,,None,,449.70410219016486,None,449.70410219016486,None,2021-10-29-11:43:00.411039,449.7144741998054,450.02012459980324,449.7144741998054,None,y,449.7144741998054,None,450.522604790004,None,0.4339363998733461,,,12007,0001,2021_Oct_29_1135,localizer,2021.1.3,60.01395933926182,
block,objects,objects034.bmp,,,,,0,194,194,194,,,,,,,,,,,,,,,,,,,,,,,,,,,,,,,,,,,,,,,,,,None,,450.522604790004,None,450.522604790004,None,2021-10-29-11:43:01.233511,450.5378886000253,450.83710630005226,450.5378886000253,None,None,450.5378886000253,None,451.3410926898476,None,,,,12007,0001,2021_Oct_29_1135,localizer,2021.1.3,60.01395933926182,
block,objects,objects075.bmp,,,,,0,195,195,195,,,,,,,,,,,,,,,,,,,,,,,,,,,,,,,,,,,,,,,,,,None,,451.3410926898476,None,451.3410926898476,None,2021-10-29-11:43:02.050021,451.3474252000451,451.653618699871,451.3474252000451,None,y,451.3474252000451,None,452.1539378901478,None,0.652023300062865,,,12007,0001,2021_Oct_29_1135,localizer,2021.1.3,60.01395933926182,
block,objects,objects070.bmp,,,,,0,196,196,196,,,,,,,,,,,,,,,,,,,,,,,,,,,,,,,,,,,,,,,,,,None,,452.1539378901478,None,452.1539378901478,None,2021-10-29-11:43:02.860884,452.16433219984174,452.4701529000886,452.16433219984174,None,None,452.16433219984174,None,452.97163269012236,None,,,,12007,0001,2021_Oct_29_1135,localizer,2021.1.3,60.01395933926182,
block,objects,objects068.bmp,,,,,0,197,197,197,,,,,,,,,,,,,,,,,,,,,,,,,,,,,,,,,,,,,,,,,,None,,452.97163269012236,None,452.97163269012236,None,2021-10-29-11:43:03.680559,452.985800600145,453.28669970016927,452.985800600145,None,None,452.985800600145,None,453.7874873899389,None,,,,12007,0001,2021_Oct_29_1135,localizer,2021.1.3,60.01395933926182,
block_end,objects,objects044.bmp,,,,,0,198,198,198,,,,,,,,,,,,,,,,,,,,,,,,,,,,,,,,,,,,,,,,,,None,,453.7874873899389,None,453.7874873899389,None,2021-10-29-11:43:04.494640,453.7980991001241,454.1038572001271,453.7980991001241,None,None,453.7980991001241,None,454.6099514900241,None,,,,12007,0001,2021_Oct_29_1135,localizer,2021.1.3,60.01395933926182,
block_start,scenes,scenes050.bmp,,,,,0,199,199,199,,,,,,,,,,,,,,,,,,,,,,,,,,,,,,,,,,,,,,,,,,t,1.773826299700886,454.60793549986556,None,454.60793549986556,None,2021-10-29-11:43:07.112650,456.40721049997956,456.7201907001436,456.40721049997956,None,None,456.40721049997956,None,457.2205861899536,None,,,,12007,0001,2021_Oct_29_1135,localizer,2021.1.3,60.01395933926182,
block,scenes,scenes026.bmp,,,,,0,200,200,200,,,,,,,,,,,,,,,,,,,,,,,,,,,,,,,,,,,,,,,,,,None,,457.2205861899536,None,457.2205861899536,None,2021-10-29-11:43:07.928109,457.221413299907,457.52053879993036,457.221413299907,None,None,457.221413299907,None,458.0216828900855,None,,,,12007,0001,2021_Oct_29_1135,localizer,2021.1.3,60.01395933926182,
block,scenes,scenes023.bmp,,,,,0,201,201,201,,,,,,,,,,,,,,,,,,,,,,,,,,,,,,,,,,,,,,,,,,None,,458.0216828900855,None,458.0216828900855,None,2021-10-29-11:43:08.733613,458.03918469976634,458.35342440009117,458.03918469976634,458.03918469976634,None,458.03918469976634,458.03918469976634,458.83705649008044,None,,,,12007,0001,2021_Oct_29_1135,localizer,2021.1.3,60.01395933926182,
block,scenes,scenes053.bmp,,,,,0,202,202,202,,,,,,,,,,,,,,,,,,,,,,,,,,,,,,,,,,,,,,,,,,None,,458.83705649008044,None,458.83705649008044,None,2021-10-29-11:43:09.544020,458.8378964997828,459.13707160018384,458.8378964997828,None,y,458.8378964997828,None,459.63724878984505,None,0.4695620001293719,,,12007,0001,2021_Oct_29_1135,localizer,2021.1.3,60.01395933926182,
block,scenes,scenes076.bmp,,,,,0,203,203,203,,,,,,,,,,,,,,,,,,,,,,,,,,,,,,,,,,,,,,,,,,None,,459.63724878984505,None,459.63724878984505,None,2021-10-29-11:43:10.346202,459.638463600073,459.95384689979255,459.638463600073,459.638463600073,y,459.638463600073,459.638463600073,460.4382658898365,None,0.5199846001341939,,,12007,0001,2021_Oct_29_1135,localizer,2021.1.3,60.01395933926182,
block,scenes,scenes015.bmp,,,,,0,204,204,204,,,,,,,,,,,,,,,,,,,,,,,,,,,,,,,,,,,,,,,,,,None,,460.4382658898365,None,460.4382658898365,None,2021-10-29-11:43:11.147558,460.440713299904,460.7535795997828,460.440713299904,460.440713299904,y,460.440713299904,460.440713299904,461.25394158991986,None,0.46192909963428974,,,12007,0001,2021_Oct_29_1135,localizer,2021.1.3,60.01395933926182,
block,scenes,scenes033.bmp,,,,,0,205,205,205,,,,,,,,,,,,,,,,,,,,,,,,,,,,,,,,,,,,,,,,,,None,,461.25394158991986,None,461.25394158991986,None,2021-10-29-11:43:11.961118,461.2642518999055,461.57058419985697,461.2642518999055,None,None,461.2642518999055,None,462.07056928980165,None,,,,12007,0001,2021_Oct_29_1135,localizer,2021.1.3,60.01395933926182,
block,scenes,scenes034.bmp,,,,,0,206,206,206,,,,,,,,,,,,,,,,,,,,,,,,,,,,,,,,,,,,,,,,,,None,,462.07056928980165,None,462.07056928980165,None,2021-10-29-11:43:12.777639,462.07131979987025,462.38633470004424,462.07131979987025,None,None,462.07131979987025,None,462.8716647899244,None,,,,12007,0001,2021_Oct_29_1135,localizer,2021.1.3,60.01395933926182,
block,scenes,scenes004.bmp,,,,,0,207,207,207,,,,,,,,,,,,,,,,,,,,,,,,,,,,,,,,,,,,,,,,,,None,,462.8716647899244,None,462.8716647899244,None,2021-10-29-11:43:13.581917,462.8890585000627,463.2037072000094,462.8890585000627,462.8890585000627,None,462.8890585000627,462.8890585000627,463.68729839003646,None,,,,12007,0001,2021_Oct_29_1135,localizer,2021.1.3,60.01395933926182,
block,scenes,scenes056.bmp,,,,,0,208,208,208,,,,,,,,,,,,,,,,,,,,,,,,,,,,,,,,,,,,,,,,,,None,,463.68729839003646,None,463.68729839003646,None,2021-10-29-11:43:14.394442,463.687981700059,463.98700609989464,463.687981700059,None,None,463.687981700059,None,464.50391109003687,None,,,,12007,0001,2021_Oct_29_1135,localizer,2021.1.3,60.01395933926182,
block,scenes,scenes012.bmp,,,,,0,209,209,209,,,,,,,,,,,,,,,,,,,,,,,,,,,,,,,,,,,,,,,,,,None,,464.50391109003687,None,464.50391109003687,None,2021-10-29-11:43:15.211095,464.5046137999743,464.80361949978396,464.5046137999743,None,None,464.5046137999743,None,465.32036338974723,None,,,,12007,0001,2021_Oct_29_1135,localizer,2021.1.3,60.01395933926182,
block,scenes,scenes064.bmp,,,,,0,210,210,210,,,,,,,,,,,,,,,,,,,,,,,,,,,,,,,,,,,,,,,,,,None,,465.32036338974723,None,465.32036338974723,None,2021-10-29-11:43:16.027329,465.3286668001674,465.6371830999851,465.3286668001674,None,None,465.3286668001674,None,466.13737788978034,None,,,,12007,0001,2021_Oct_29_1135,localizer,2021.1.3,60.01395933926182,
block,scenes,scenes055.bmp,,,,,0,211,211,211,,,,,,,,,,,,,,,,,,,,,,,,,,,,,,,,,,,,,,,,,,None,,466.13737788978034,None,466.13737788978034,None,2021-10-29-11:43:16.844342,466.1501621999778,466.4539207997732,466.1501621999778,None,None,466.1501621999778,None,466.9542553899344,None,,,,12007,0001,2021_Oct_29_1135,localizer,2021.1.3,60.01395933926182,
block,scenes,scenes088.bmp,,,,,0,212,212,212,,,,,,,,,,,,,,,,,,,,,,,,,,,,,,,,,,,,,,,,,,None,,466.9542553899344,None,466.9542553899344,None,2021-10-29-11:43:17.662097,466.9639535001479,467.27010519988835,466.9639535001479,None,None,466.9639535001479,None,467.77059489018285,None,,,,12007,0001,2021_Oct_29_1135,localizer,2021.1.3,60.01395933926182,
block_end,scenes,scenes092.bmp,,,,,0,213,213,213,,,,,,,,,,,,,,,,,,,,,,,,,,,,,,,,,,,,,,,,,,None,,467.77059489018285,None,467.77059489018285,None,2021-10-29-11:43:18.477791,467.7713319999166,468.07016000011936,467.7713319999166,None,None,467.7713319999166,None,468.5705800898839,None,,,,12007,0001,2021_Oct_29_1135,localizer,2021.1.3,60.01395933926182,
block_start,faces,faces025.bmp,,,,,0,214,214,214,,,,,,,,,,,,,,,,,,,,,,,,,,,,,,,,,,,,,,,,,,t,1.8113269000314176,468.57044020015746,None,468.57044020015746,None,2021-10-29-11:43:21.115049,470.4096738998778,470.72068550018594,470.4096738998778,None,y,470.4096738998778,None,471.2207316900138,None,0.5899644000455737,,,12007,0001,2021_Oct_29_1135,localizer,2021.1.3,60.01395933926182,
block,faces,faces084.bmp,,,,,0,215,215,215,,,,,,,,,,,,,,,,,,,,,,,,,,,,,,,,,,,,,,,,,,None,,471.2207316900138,None,471.2207316900138,None,2021-10-29-11:43:21.927705,471.2315731998533,471.53759919991717,471.2315731998533,None,None,471.2315731998533,None,472.0377596900333,None,,,,12007,0001,2021_Oct_29_1135,localizer,2021.1.3,60.01395933926182,
block,faces,faces024.bmp,,,,,0,216,216,216,,,,,,,,,,,,,,,,,,,,,,,,,,,,,,,,,,,,,,,,,,None,,472.0377596900333,None,472.0377596900333,None,2021-10-29-11:43:22.745733,472.0384968998842,472.35341330012307,472.0384968998842,None,y,472.0384968998842,None,472.8399296900723,None,0.4500500997528434,,,12007,0001,2021_Oct_29_1135,localizer,2021.1.3,60.01395933926182,
block,faces,faces072.bmp,,,,,0,217,217,217,,,,,,,,,,,,,,,,,,,,,,,,,,,,,,,,,,,,,,,,,,None,,472.8399296900723,None,472.8399296900723,None,2021-10-29-11:43:23.552948,472.8587350999005,473.17024559993297,472.8587350999005,472.8587350999005,None,472.8587350999005,472.8587350999005,473.65410368978047,None,,,,12007,0001,2021_Oct_29_1135,localizer,2021.1.3,60.01395933926182,
block,faces,faces065.bmp,,,,,0,218,218,218,,,,,,,,,,,,,,,,,,,,,,,,,,,,,,,,,,,,,,,,,,None,,473.65410368978047,None,473.65410368978047,None,2021-10-29-11:43:24.361723,473.6675927997567,473.9701318000443,473.6675927997567,None,y,473.6675927997567,None,474.4704757900443,None,0.7086951998062432,,,12007,0001,2021_Oct_29_1135,localizer,2021.1.3,60.01395933926182,
block,faces,faces016.bmp,,,,,0,219,219,219,,,,,,,,,,,,,,,,,,,,,,,,,,,,,,,,,,,,,,,,,,None,,474.4704757900443,None,474.4704757900443,None,2021-10-29-11:43:25.177679,474.48231260012835,474.7872683000751,474.48231260012835,None,y,474.48231260012835,None,475.2868980899919,None,0.46405010018497705,,,12007,0001,2021_Oct_29_1135,localizer,2021.1.3,60.01395933926182,
block,faces,faces029.bmp,,,,,0,220,220,220,,,,,,,,,,,,,,,,,,,,,,,,,,,,,,,,,,,,,,,,,,None,,475.2868980899919,None,475.2868980899919,None,2021-10-29-11:43:25.994379,475.29799439990893,475.6034686998464,475.29799439990893,None,None,475.29799439990893,None,476.10410339008087,None,,,,12007,0001,2021_Oct_29_1135,localizer,2021.1.3,60.01395933926182,
block,faces,faces053.bmp,,,,,0,221,221,221,,,,,,,,,,,,,,,,,,,,,,,,,,,,,,,,,,,,,,,,,,None,,476.10410339008087,None,476.10410339008087,None,2021-10-29-11:43:26.811136,476.11491179978475,476.42064590007067,476.11491179978475,None,None,476.11491179978475,None,476.92082078983077,None,,,,12007,0001,2021_Oct_29_1135,localizer,2021.1.3,60.01395933926182,
block,faces,faces071.bmp,,,,,0,222,222,222,,,,,,,,,,,,,,,,,,,,,,,,,,,,,,,,,,,,,,,,,,None,,476.92082078983077,None,476.92082078983077,None,2021-10-29-11:43:27.628275,476.9215004998259,477.2207435001619,476.9215004998259,None,y,476.9215004998259,None,477.7217845897656,None,0.6001515998505056,,,12007,0001,2021_Oct_29_1135,localizer,2021.1.3,60.01395933926182,
block,faces,faces081.bmp,,,,,0,223,223,223,,,,,,,,,,,,,,,,,,,,,,,,,,,,,,,,,,,,,,,,,,None,,477.7217845897656,None,477.7217845897656,None,2021-10-29-11:43:28.431901,477.7260664999485,478.03652400011197,477.7260664999485,477.7260664999485,y,477.7260664999485,477.7260664999485,478.5368578899186,None,0.6554724001325667,,,12007,0001,2021_Oct_29_1135,localizer,2021.1.3,60.01395933926182,
block,faces,faces069.bmp,,,,,0,224,224,224,,,,,,,,,,,,,,,,,,,,,,,,,,,,,,,,,,,,,,,,,,None,,478.5368578899186,None,478.5368578899186,None,2021-10-29-11:43:29.243843,478.53817409975454,478.8366952999495,478.53817409975454,None,y,478.53817409975454,None,479.3373429900501,None,0.6152063002809882,,,12007,0001,2021_Oct_29_1135,localizer,2021.1.3,60.01395933926182,
block,faces,faces009.bmp,,,,,0,225,225,225,,,,,,,,,,,,,,,,,,,,,,,,,,,,,,,,,,,,,,,,,,None,,479.3373429900501,None,479.3373429900501,None,2021-10-29-11:43:30.045325,479.33805610006675,479.6370403999463,479.33805610006675,479.33805610006675,y,479.33805610006675,479.33805610006675,480.13742008986884,None,0.6555636003613472,,,12007,0001,2021_Oct_29_1135,localizer,2021.1.3,60.01395933926182,
block,faces,faces073.bmp,,,,,0,226,226,226,,,,,,,,,,,,,,,,,,,,,,,,,,,,,,,,,,,,,,,,,,None,,480.13742008986884,None,480.13742008986884,None,2021-10-29-11:43:30.846398,480.1387010999024,480.45369429979473,480.1387010999024,480.1387010999024,y,480.1387010999024,480.1387010999024,480.9542407900561,None,0.5437572002410889,,,12007,0001,2021_Oct_29_1135,localizer,2021.1.3,60.01395933926182,
block,faces,faces057.bmp,,,,,0,227,227,227,,,,,,,,,,,,,,,,,,,,,,,,,,,,,,,,,,,,,,,,,,None,,480.9542407900561,None,480.9542407900561,None,2021-10-29-11:43:31.661288,480.96698659984395,481.27663350012153,480.96698659984395,None,None,480.96698659984395,None,481.76048699016684,None,,,,12007,0001,2021_Oct_29_1135,localizer,2021.1.3,60.01395933926182,
block_end,faces,faces059.bmp,,,,,0,228,228,228,,,,,,,,,,,,,,,,,,,,,,,,,,,,,,,,,,,,,,,,,,None,,481.76048699016684,None,481.76048699016684,None,2021-10-29-11:43:32.471416,481.7642141999677,482.0708268000744,481.7642141999677,None,y,481.7642141999677,None,482.57361649018713,None,0.5933218998834491,,,12007,0001,2021_Oct_29_1135,localizer,2021.1.3,60.01395933926182,
block_start,scrambled,scrambled069.bmp,,,,,0,229,229,229,,,,,,,,,,,,,,,,,,,,,,,,,,,,,,,,,,,,,,,,,,t,1.8074814002029598,482.5742696002126,None,482.5742696002126,None,2021-10-29-11:43:35.110731,484.40461929980665,484.7040682998486,484.40461929980665,None,None,484.40461929980665,None,485.20406098985114,None,,,,12007,0001,2021_Oct_29_1135,localizer,2021.1.3,60.01395933926182,
block,scrambled,scrambled015.bmp,,,,,0,230,230,230,,,,,,,,,,,,,,,,,,,,,,,,,,,,,,,,,,,,,,,,,,None,,485.20406098985114,None,485.20406098985114,None,2021-10-29-11:43:35.913065,485.21595870004967,485.5206081001088,485.21595870004967,485.21595870004967,y,485.21595870004967,485.21595870004967,486.0208282898646,None,0.6615474000573158,,,12007,0001,2021_Oct_29_1135,localizer,2021.1.3,60.01395933926182,
block,scrambled,scrambled084.bmp,,,,,0,231,231,231,,,,,,,,,,,,,,,,,,,,,,,,,,,,,,,,,,,,,,,,,,None,,486.0208282898646,None,486.0208282898646,None,2021-10-29-11:43:36.728032,486.0297161000781,486.3370341998525,486.0297161000781,None,None,486.0297161000781,None,486.8371627898421,None,,,,12007,0001,2021_Oct_29_1135,localizer,2021.1.3,60.01395933926182,
block,scrambled,scrambled037.bmp,,,,,0,232,232,232,,,,,,,,,,,,,,,,,,,,,,,,,,,,,,,,,,,,,,,,,,None,,486.8371627898421,None,486.8371627898421,None,2021-10-29-11:43:37.543818,486.8465887000784,487.1538990000263,486.8465887000784,None,None,486.8465887000784,None,487.65408139019274,None,,,,12007,0001,2021_Oct_29_1135,localizer,2021.1.3,60.01395933926182,
block,scrambled,scrambled027.bmp,,,,,0,233,233,233,,,,,,,,,,,,,,,,,,,,,,,,,,,,,,,,,,,,,,,,,,None,,487.65408139019274,None,487.65408139019274,None,2021-10-29-11:43:38.361282,487.65478539979085,487.9541095001623,487.65478539979085,None,None,487.65478539979085,None,488.45416028979236,None,,,,12007,0001,2021_Oct_29_1135,localizer,2021.1.3,60.01395933926182,
block,scrambled,scrambled050.bmp,,,,,0,234,234,234,,,,,,,,,,,,,,,,,,,,,,,,,,,,,,,,,,,,,,,,,,None,,488.45416028979236,None,488.45416028979236,None,2021-10-29-11:43:39.163348,488.45594279980287,488.7775917998515,488.45594279980287,488.45594279980287,None,488.45594279980287,488.45594279980287,489.2550907898229,None,,,,12007,0001,2021_Oct_29_1135,localizer,2021.1.3,60.01395933926182,
block,scrambled,scrambled017.bmp,,,,,0,235,235,235,,,,,,,,,,,,,,,,,,,,,,,,,,,,,,,,,,,,,,,,,,None,,489.2550907898229,None,489.2550907898229,None,2021-10-29-11:43:39.965208,489.2593096997589,489.5703207999468,489.2593096997589,489.2593096997589,y,489.2593096997589,489.2593096997589,490.0707666901406,None,0.7373262997716665,,,12007,0001,2021_Oct_29_1135,localizer,2021.1.3,60.01395933926182,
block,scrambled,scrambled041.bmp,,,,,0,236,236,236,,,,,,,,,,,,,,,,,,,,,,,,,,,,,,,,,,,,,,,,,,None,,490.0707666901406,None,490.0707666901406,None,2021-10-29-11:43:40.777977,490.0713038998656,490.3717311997898,490.0713038998656,None,None,490.0713038998656,None,490.8870309898164,None,,,,12007,0001,2021_Oct_29_1135,localizer,2021.1.3,60.01395933926182,
block,scrambled,scrambled019.bmp,,,,,0,237,237,237,,,,,,,,,,,,,,,,,,,,,,,,,,,,,,,,,,,,,,,,,,None,,490.8870309898164,None,490.8870309898164,None,2021-10-29-11:43:41.594246,490.88774990011007,491.1870685000904,490.88774990011007,None,y,490.88774990011007,None,491.6874865898397,None,0.34872170025482774,,,12007,0001,2021_Oct_29_1135,localizer,2021.1.3,60.01395933926182,
block,scrambled,scrambled070.bmp,,,,,0,238,238,238,,,,,,,,,,,,,,,,,,,,,,,,,,,,,,,,,,,,,,,,,,None,,491.6874865898397,None,491.6874865898397,None,2021-10-29-11:43:42.396478,491.6886371001601,492.0039502000436,491.6886371001601,491.6886371001601,y,491.6886371001601,491.6886371001601,492.5039027900901,None,0.7458255998790264,,,12007,0001,2021_Oct_29_1135,localizer,2021.1.3,60.01395933926182,
block,scrambled,scrambled075.bmp,,,,,0,239,239,239,,,,,,,,,,,,,,,,,,,,,,,,,,,,,,,,,,,,,,,,,,None,,492.5039027900901,None,492.5039027900901,None,2021-10-29-11:43:43.210802,492.5130640999414,492.8205955000594,492.5130640999414,None,None,492.5130640999414,None,493.3205272899475,None,,,,12007,0001,2021_Oct_29_1135,localizer,2021.1.3,60.01395933926182,
block,scrambled,scrambled057.bmp,,,,,0,240,240,240,,,,,,,,,,,,,,,,,,,,,,,,,,,,,,,,,,,,,,,,,,None,,493.3205272899475,None,493.3205272899475,None,2021-10-29-11:43:44.027529,493.3299491000362,493.6373240998946,493.3299491000362,None,None,493.3299491000362,None,494.1370222898666,None,,,,12007,0001,2021_Oct_29_1135,localizer,2021.1.3,60.01395933926182,
block,scrambled,scrambled001.bmp,,,,,0,241,241,241,,,,,,,,,,,,,,,,,,,,,,,,,,,,,,,,,,,,,,,,,,None,,494.1370222898666,None,494.1370222898666,None,2021-10-29-11:43:44.844024,494.13816819991916,494.43871189979836,494.13816819991916,None,y,494.13816819991916,None,494.9379705897998,None,0.29727450013160706,,,12007,0001,2021_Oct_29_1135,localizer,2021.1.3,60.01395933926182,
block,scrambled,scrambled008.bmp,,,,,0,242,242,242,,,,,,,,,,,,,,,,,,,,,,,,,,,,,,,,,,,,,,,,,,None,,494.9379705897998,None,494.9379705897998,None,2021-10-29-11:43:45.648059,494.9512299001217,495.25424510007724,494.9512299001217,494.9512299001217,None,494.9512299001217,494.9512299001217,495.7547033898998,None,,,,12007,0001,2021_Oct_29_1135,localizer,2021.1.3,60.01395933926182,
block_end,scrambled,scrambled030.bmp,,,,,0,243,243,243,,,,,,,,,,,,,,,,,,,,,,,,,,,,,,,,,,,,,,,,,,None,,495.7547033898998,None,495.7547033898998,None,2021-10-29-11:43:46.462892,495.76498549990356,496.0705756000243,495.76498549990356,None,None,495.76498549990356,None,496.57138638985344,None,,,,12007,0001,2021_Oct_29_1135,localizer,2021.1.3,60.01395933926182,
,,,,,,,,,,,,,,,,,,,,,,,,,,,,,,,,,,,,,,,,,,,,,,,,,,,,,,,,,,,,,,,,,,,,,496.5706373997964,None,,,,,,,
