block_type,condition,img_name,Button.thisRepN,Button.thisTrialN,Button.thisN,Button.thisIndex,trials.thisRepN,trials.thisTrialN,trials.thisN,trials.thisIndex,Ready_experimenter_text.started,Ready_experimenter_text.stopped,Ready_experimenter_resp.keys,Ready_experimenter_resp.rt,Ready_experimenter_resp.started,Ready_experimenter_resp.stopped,Alignment_background.started,Alignment_background.stopped,Alignment_image.started,Alignment_image.stopped,Alignment_resp.keys,Alignment_resp.rt,Alignment_resp.started,Alignment_resp.stopped,Button_text.started,Button_text.stopped,Index_text.started,Index_text.stopped,Index_resp.keys,Index_resp.rt,Index_resp.started,Index_resp.stopped,Middle_text.started,Middle_text.stopped,Middle_resp.keys,Middle_resp.rt,Middle_resp.started,Middle_resp.stopped,Repeat_text.started,Repeat_text.stopped,Repeat_resp.keys,Repeat_resp.corr,Repeat_resp.rt,Repeat_resp.started,Repeat_resp.stopped,instruction_text.started,instruction_text.stopped,key_resp.keys,key_resp.rt,key_resp.started,key_resp.stopped,scanner_t.keys,scanner_t.rt,scanner_t.started,scanner_t.stopped,fixation_wait_for_t.started,fixation_wait_for_t.stopped,real_timestamp_trial_start,image.started,image.stopped,fixation.started,fixation.stopped,repeat_response.keys,repeat_response.started,repeat_response.stopped,fixation_null.started,fixation_null.stopped,repeat_response.rt,end_text.started,end_text.stopped,participant,run,date,expName,psychopyVersion,frameRate,
,,,,,,,,,,,14.915607899893075,None,return,481.92634900007397,14.915607899893075,None,,,,,,,,,,,,,,,,,,,,,,,,,,,,,,,,,,,,,,,,,,,,,,,,,,,,,,,12013,0002,2022_Mar_09_1504,localizer,2021.1.3,58.29883987547219,
,,,,,,,,,,,,,,,,,496.8912569999229,None,496.8912569999229,None,return,0.8833624999970198,496.8912569999229,None,,,,,,,,,,,,,,,,,,,,,,,,,,,,,,,,,,,,,,,,,,,,,,,12013,0002,2022_Mar_09_1504,localizer,2021.1.3,58.29883987547219,
,,,0,0,0,0,,,,,,,,,,,,,,,,,,,497.78840940003283,None,498.7951114999596,None,y,1.675887799821794,498.7951114999596,None,500.49192010005936,None,b,0.7616663000080734,500.49192010005936,None,501.2727750998456,None,n,0,19.925503300037235,501.2727750998456,None,,,,,,,,,,,,,,,,,,,,,,,,,,12013,0002,2022_Mar_09_1504,localizer,2021.1.3,58.29883987547219,
,,,,,,,,,,,,,,,,,,,,,,,,,,,,,,,,,,,,,,,,,,,,,,521.2220081000123,None,y,5.217868200037628,521.2220081000123,None,,,,,,,,,,,,,,,,,,,,12013,0002,2022_Mar_09_1504,localizer,2021.1.3,58.29883987547219,
block_start,scrambled,scrambled035.bmp,,,,,0,0,0,0,,,,,,,,,,,,,,,,,,,,,,,,,,,,,,,,,,,,,,,,,,t,15.52544920006767,526.4984136999119,None,526.4984136999119,None,2022-03-09-15:12:59.082398,542.0491889000405,542.3552738998551,542.0491889000405,None,None,542.0491889000405,None,542.8550075598993,None,,,,12013,0002,2022_Mar_09_1504,localizer,2021.1.3,58.29883987547219,
block,scrambled,scrambled073.bmp,,,,,0,1,1,1,,,,,,,,,,,,,,,,,,,,,,,,,,,,,,,,,,,,,,,,,,None,,542.8550075598993,None,542.8550075598993,None,2022-03-09-15:12:59.901975,542.8578973000403,543.1719541999046,542.8578973000403,None,None,542.8578973000403,None,543.6715034599416,None,,,,12013,0002,2022_Mar_09_1504,localizer,2021.1.3,58.29883987547219,
block,scrambled,scrambled068.bmp,,,,,0,2,2,2,,,,,,,,,,,,,,,,,,,,,,,,,,,,,,,,,,,,,,,,,,None,,543.6715034599416,None,543.6715034599416,None,2022-03-09-15:13:00.716501,543.6730754999444,543.9881871999241,543.6730754999444,None,None,543.6730754999444,None,544.4766562598758,None,,,,12013,0002,2022_Mar_09_1504,localizer,2021.1.3,58.29883987547219,
block,scrambled,scrambled042.bmp,,,,,0,3,3,3,,,,,,,,,,,,,,,,,,,,,,,,,,,,,,,,,,,,,,,,,,None,,544.4766562598758,None,544.4766562598758,None,2022-03-09-15:13:01.525975,544.4890250000171,544.7889064999763,544.4890250000171,None,None,544.4890250000171,None,545.2893332600594,None,,,,12013,0002,2022_Mar_09_1504,localizer,2021.1.3,58.29883987547219,
block,scrambled,scrambled004.bmp,,,,,0,4,4,4,,,,,,,,,,,,,,,,,,,,,,,,,,,,,,,,,,,,,,,,,,None,,545.2893332600594,None,545.2893332600594,None,2022-03-09-15:13:02.336504,545.2901884000748,545.5896562999114,545.2901884000748,None,None,545.2901884000748,None,546.1048895599321,None,,,,12013,0002,2022_Mar_09_1504,localizer,2021.1.3,58.29883987547219,
block,scrambled,scrambled076.bmp,,,,,0,5,5,5,,,,,,,,,,,,,,,,,,,,,,,,,,,,,,,,,,,,,,,,,,None,,546.1048895599321,None,546.1048895599321,None,2022-03-09-15:13:03.149843,546.1140310000628,546.4220837000757,546.1140310000628,None,None,546.1140310000628,None,546.9215838598553,None,,,,12013,0002,2022_Mar_09_1504,localizer,2021.1.3,58.29883987547219,
block,scrambled,scrambled087.bmp,,,,,0,6,6,6,,,,,,,,,,,,,,,,,,,,,,,,,,,,,,,,,,,,,,,,,,None,,546.9215838598553,None,546.9215838598553,None,2022-03-09-15:13:03.967575,546.923328399891,547.2388293999247,546.923328399891,None,None,546.923328399891,None,547.7383190599736,None,,,,12013,0002,2022_Mar_09_1504,localizer,2021.1.3,58.29883987547219,
block,scrambled,scrambled058.bmp,,,,,0,7,7,7,,,,,,,,,,,,,,,,,,,,,,,,,,,,,,,,,,,,,,,,,,None,,547.7383190599736,None,547.7383190599736,None,2022-03-09-15:13:04.783314,547.7417088998482,548.0398039000574,547.7417088998482,None,None,547.7417088998482,None,548.555523360055,None,,,,12013,0002,2022_Mar_09_1504,localizer,2021.1.3,58.29883987547219,
block,scrambled,scrambled064.bmp,,,,,0,8,8,8,,,,,,,,,,,,,,,,,,,,,,,,,,,,,,,,,,,,,,,,,,None,,548.555523360055,None,548.555523360055,None,2022-03-09-15:13:05.601508,548.5565806999803,548.85602499987,548.5565806999803,None,None,548.5565806999803,None,549.3716700599995,None,,,,12013,0002,2022_Mar_09_1504,localizer,2021.1.3,58.29883987547219,
block,scrambled,scrambled008.bmp,,,,,0,9,9,9,,,,,,,,,,,,,,,,,,,,,,,,,,,,,,,,,,,,,,,,,,None,,549.3716700599995,None,549.3716700599995,None,2022-03-09-15:13:06.417660,549.3732580998912,549.6889003000688,549.3732580998912,None,None,549.3732580998912,None,550.1885567599908,None,,,,12013,0002,2022_Mar_09_1504,localizer,2021.1.3,58.29883987547219,
block,scrambled,scrambled040.bmp,,,,,0,10,10,10,,,,,,,,,,,,,,,,,,,,,,,,,,,,,,,,,,,,,,,,,,None,,550.1885567599908,None,550.1885567599908,None,2022-03-09-15:13:07.234621,550.1897352000233,550.5054059999529,550.1897352000233,None,None,550.1897352000233,None,551.0051443599165,None,,,,12013,0002,2022_Mar_09_1504,localizer,2021.1.3,58.29883987547219,
block,scrambled,scrambled084.bmp,,,,,0,11,11,11,,,,,,,,,,,,,,,,,,,,,,,,,,,,,,,,,,,,,,,,,,None,,551.0051443599165,None,551.0051443599165,None,2022-03-09-15:13:08.051297,551.0064045998733,551.3286230999511,551.0064045998733,None,None,551.0064045998733,None,551.8072494600434,None,,,,12013,0002,2022_Mar_09_1504,localizer,2021.1.3,58.29883987547219,
block,scrambled,scrambled085.bmp,,,,,0,12,12,12,,,,,,,,,,,,,,,,,,,,,,,,,,,,,,,,,,,,,,,,,,None,,551.8072494600434,None,551.8072494600434,None,2022-03-09-15:13:08.861029,551.8222004999407,552.1240290999413,551.8222004999407,551.8222004999407,None,551.8222004999407,551.8222004999407,552.6217781600077,None,,,,12013,0002,2022_Mar_09_1504,localizer,2021.1.3,58.29883987547219,
block,scrambled,scrambled072.bmp,,,,,0,13,13,13,,,,,,,,,,,,,,,,,,,,,,,,,,,,,,,,,,,,,,,,,,None,,552.6217781600077,None,552.6217781600077,None,2022-03-09-15:13:09.669502,552.6229717999231,552.9388339000288,552.6229717999231,None,None,552.6229717999231,None,553.43862176002,None,,,,12013,0002,2022_Mar_09_1504,localizer,2021.1.3,58.29883987547219,
block_end,scrambled,scrambled014.bmp,,,,,0,14,14,14,,,,,,,,,,,,,,,,,,,,,,,,,,,,,,,,,,,,,,,,,,None,,553.43862176002,None,553.43862176002,None,2022-03-09-15:13:10.484608,553.4397799998987,553.7397403998766,553.4397799998987,None,None,553.4397799998987,None,554.2553454599343,None,,,,12013,0002,2022_Mar_09_1504,localizer,2021.1.3,58.29883987547219,
block_start,objects,objects063.bmp,,,,,0,15,15,15,,,,,,,,,,,,,,,,,,,,,,,,,,,,,,,,,,,,,,,,,,t,1.7680508000776172,554.2557055999059,None,554.2557055999059,None,2022-03-09-15:13:13.099962,556.0628357999958,556.3723824999761,556.0628357999958,None,None,556.0628357999958,None,556.8718750599306,None,,,,12013,0002,2022_Mar_09_1504,localizer,2021.1.3,58.29883987547219,
block,objects,objects019.bmp,,,,,0,16,16,16,,,,,,,,,,,,,,,,,,,,,,,,,,,,,,,,,,,,,,,,,,None,,556.8718750599306,None,556.8718750599306,None,2022-03-09-15:13:13.918862,556.8852963999379,557.1888941000216,556.8852963999379,None,None,556.8852963999379,None,557.6768093599472,None,,,,12013,0002,2022_Mar_09_1504,localizer,2021.1.3,58.29883987547219,
block,objects,objects068.bmp,,,,,0,17,17,17,,,,,,,,,,,,,,,,,,,,,,,,,,,,,,,,,,,,,,,,,,None,,557.6768093599472,None,557.6768093599472,None,2022-03-09-15:13:14.724827,557.6828749999404,557.9889300998766,557.6828749999404,None,None,557.6828749999404,None,558.4882907598745,None,,,,12013,0002,2022_Mar_09_1504,localizer,2021.1.3,58.29883987547219,
block,objects,objects035.bmp,,,,,0,18,18,18,,,,,,,,,,,,,,,,,,,,,,,,,,,,,,,,,,,,,,,,,,None,,558.4882907598745,None,558.4882907598745,None,2022-03-09-15:13:15.534015,558.4982978000771,558.8055048999377,558.4982978000771,None,None,558.4982978000771,None,559.3052717600018,None,,,,12013,0002,2022_Mar_09_1504,localizer,2021.1.3,58.29883987547219,
block,objects,objects061.bmp,,,,,0,19,19,19,,,,,,,,,,,,,,,,,,,,,,,,,,,,,,,,,,,,,,,,,,None,,559.3052717600018,None,559.3052717600018,None,2022-03-09-15:13:16.351278,559.3066411998589,559.6224005999975,559.3066411998589,None,None,559.3066411998589,None,560.1215468599927,None,,,,12013,0002,2022_Mar_09_1504,localizer,2021.1.3,58.29883987547219,
block,objects,objects075.bmp,,,,,0,20,20,20,,,,,,,,,,,,,,,,,,,,,,,,,,,,,,,,,,,,,,,,,,None,,560.1215468599927,None,560.1215468599927,None,2022-03-09-15:13:17.166542,560.1233403000515,560.4388440998737,560.1233403000515,None,None,560.1233403000515,None,560.9385777599178,None,,,,12013,0002,2022_Mar_09_1504,localizer,2021.1.3,58.29883987547219,
block,objects,objects022.bmp,,,,,0,21,21,21,,,,,,,,,,,,,,,,,,,,,,,,,,,,,,,,,,,,,,,,,,None,,560.9385777599178,None,560.9385777599178,None,2022-03-09-15:13:17.984474,560.9402308999561,561.2555998000316,560.9402308999561,None,None,560.9402308999561,None,561.74028866007,None,,,,12013,0002,2022_Mar_09_1504,localizer,2021.1.3,58.29883987547219,
block,objects,objects051.bmp,,,,,0,22,22,22,,,,,,,,,,,,,,,,,,,,,,,,,,,,,,,,,,,,,,,,,,None,,561.74028866007,None,561.74028866007,None,2022-03-09-15:13:18.789442,561.7574829999357,562.0721915999893,561.7574829999357,561.7574829999357,None,561.7574829999357,561.7574829999357,562.5556609599386,None,,,,12013,0002,2022_Mar_09_1504,localizer,2021.1.3,58.29883987547219,
block,objects,objects054.bmp,,,,,0,23,23,23,,,,,,,,,,,,,,,,,,,,,,,,,,,,,,,,,,,,,,,,,,None,,562.5556609599386,None,562.5556609599386,None,2022-03-09-15:13:19.601650,562.5565750000533,562.872214499861,562.5565750000533,None,None,562.5565750000533,None,563.371915660007,None,,,,12013,0002,2022_Mar_09_1504,localizer,2021.1.3,58.29883987547219,
block,objects,objects084.bmp,,,,,0,24,24,24,,,,,,,,,,,,,,,,,,,,,,,,,,,,,,,,,,,,,,,,,,None,,563.371915660007,None,563.371915660007,None,2022-03-09-15:13:20.417914,563.3826681000646,563.6891975000035,563.3826681000646,None,None,563.3826681000646,None,564.1881971600466,None,,,,12013,0002,2022_Mar_09_1504,localizer,2021.1.3,58.29883987547219,
block,objects,objects020.bmp,,,,,0,25,25,25,,,,,,,,,,,,,,,,,,,,,,,,,,,,,,,,,,,,,,,,,,None,,564.1881971600466,None,564.1881971600466,None,2022-03-09-15:13:21.233196,564.1962810000405,564.5055545000359,564.1962810000405,None,None,564.1962810000405,None,565.005222059926,None,,,,12013,0002,2022_Mar_09_1504,localizer,2021.1.3,58.29883987547219,
block,objects,objects048.bmp,,,,,0,26,26,26,,,,,,,,,,,,,,,,,,,,,,,,,,,,,,,,,,,,,,,,,,None,,565.005222059926,None,565.005222059926,None,2022-03-09-15:13:22.051215,565.0146212999243,565.3224134999327,565.0146212999243,None,None,565.0146212999243,None,565.8222169600427,None,,,,12013,0002,2022_Mar_09_1504,localizer,2021.1.3,58.29883987547219,
block,objects,objects077.bmp,,,,,0,27,27,27,,,,,,,,,,,,,,,,,,,,,,,,,,,,,,,,,,,,,,,,,,None,,565.8222169600427,None,565.8222169600427,None,2022-03-09-15:13:22.868348,565.8322930999566,566.1387004000135,565.8322930999566,None,None,565.8322930999566,None,566.6283912599553,None,,,,12013,0002,2022_Mar_09_1504,localizer,2021.1.3,58.29883987547219,
block,objects,objects059.bmp,,,,,0,28,28,28,,,,,,,,,,,,,,,,,,,,,,,,,,,,,,,,,,,,,,,,,,None,,566.6283912599553,None,566.6283912599553,None,2022-03-09-15:13:23.681260,566.6364273999352,566.9391083999071,566.6364273999352,None,None,566.6364273999352,None,567.4383612600155,None,,,,12013,0002,2022_Mar_09_1504,localizer,2021.1.3,58.29883987547219,
block_end,objects,objects053.bmp,,,,,0,29,29,29,,,,,,,,,,,,,,,,,,,,,,,,,,,,,,,,,,,,,,,,,,None,,567.4383612600155,None,567.4383612600155,None,2022-03-09-15:13:24.483902,567.439917099895,567.7555032998789,567.439917099895,None,None,567.439917099895,None,568.2396315600723,None,,,,12013,0002,2022_Mar_09_1504,localizer,2021.1.3,58.29883987547219,
block_start,faces,faces085.bmp,,,,,0,30,30,30,,,,,,,,,,,,,,,,,,,,,,,,,,,,,,,,,,,,,,,,,,t,1.7848529999610037,568.2389036999084,None,568.2389036999084,None,2022-03-09-15:13:27.100327,570.064062600024,570.3723502999637,570.064062600024,None,None,570.064062600024,None,570.8720235600136,None,,,,12013,0002,2022_Mar_09_1504,localizer,2021.1.3,58.29883987547219,
block,faces,faces060.bmp,,,,,0,31,31,31,,,,,,,,,,,,,,,,,,,,,,,,,,,,,,,,,,,,,,,,,,None,,570.8720235600136,None,570.8720235600136,None,2022-03-09-15:13:27.918014,570.8733520999085,571.1737174000591,570.8733520999085,None,None,570.8733520999085,None,571.6732667599805,None,,,,12013,0002,2022_Mar_09_1504,localizer,2021.1.3,58.29883987547219,
block,faces,faces026.bmp,,,,,0,32,32,32,,,,,,,,,,,,,,,,,,,,,,,,,,,,,,,,,,,,,,,,,,None,,571.6732667599805,None,571.6732667599805,None,2022-03-09-15:13:28.724226,571.7187107999343,572.0221356998663,571.7187107999343,571.7187107999343,None,571.7187107999343,571.7187107999343,572.4881801599637,None,,,,12013,0002,2022_Mar_09_1504,localizer,2021.1.3,58.29883987547219,
block,faces,faces076.bmp,,,,,0,33,33,33,,,,,,,,,,,,,,,,,,,,,,,,,,,,,,,,,,,,,,,,,,None,,572.4881801599637,None,572.4881801599637,None,2022-03-09-15:13:29.539221,572.498664899962,572.8056373998988,572.498664899962,None,None,572.498664899962,None,573.3066298599821,None,,,,12013,0002,2022_Mar_09_1504,localizer,2021.1.3,58.29883987547219,
block,faces,faces014.bmp,,,,,0,34,34,34,,,,,,,,,,,,,,,,,,,,,,,,,,,,,,,,,,,,,,,,,,None,,573.3066298599821,None,573.3066298599821,None,2022-03-09-15:13:30.353785,573.3197341999039,573.6225463999435,573.3197341999039,None,None,573.3197341999039,None,574.1215112599544,None,,,,12013,0002,2022_Mar_09_1504,localizer,2021.1.3,58.29883987547219,
block,faces,faces081.bmp,,,,,0,35,35,35,,,,,,,,,,,,,,,,,,,,,,,,,,,,,,,,,,,,,,,,,,None,,574.1215112599544,None,574.1215112599544,None,2022-03-09-15:13:31.166518,574.1237838999368,574.4392921000253,574.1237838999368,None,None,574.1237838999368,None,574.9387608600315,None,,,,12013,0002,2022_Mar_09_1504,localizer,2021.1.3,58.29883987547219,
block,faces,faces071.bmp,,,,,0,36,36,36,,,,,,,,,,,,,,,,,,,,,,,,,,,,,,,,,,,,,,,,,,None,,574.9387608600315,None,574.9387608600315,None,2022-03-09-15:13:31.985054,574.9398451999296,575.2555827000178,574.9398451999296,None,None,574.9398451999296,None,575.7555225600023,None,,,,12013,0002,2022_Mar_09_1504,localizer,2021.1.3,58.29883987547219,
block,faces,faces073.bmp,,,,,0,37,37,37,,,,,,,,,,,,,,,,,,,,,,,,,,,,,,,,,,,,,,,,,,None,,575.7555225600023,None,575.7555225600023,None,2022-03-09-15:13:32.801511,575.756574699888,576.0722860000096,575.756574699888,None,None,575.756574699888,None,576.555698559992,None,,,,12013,0002,2022_Mar_09_1504,localizer,2021.1.3,58.29883987547219,
block,faces,faces083.bmp,,,,,0,38,38,38,,,,,,,,,,,,,,,,,,,,,,,,,,,,,,,,,,,,,,,,,,None,,576.555698559992,None,576.555698559992,None,2022-03-09-15:13:33.603765,576.5574536998756,576.872694700025,576.5574536998756,576.5574536998756,None,576.5574536998756,576.5574536998756,577.3566370600835,None,,,,12013,0002,2022_Mar_09_1504,localizer,2021.1.3,58.29883987547219,
block,faces,faces050.bmp,,,,,0,39,39,39,,,,,,,,,,,,,,,,,,,,,,,,,,,,,,,,,,,,,,,,,,None,,577.3566370600835,None,577.3566370600835,None,2022-03-09-15:13:34.407591,577.3620893000625,577.6722510999534,577.3620893000625,577.3620893000625,None,577.3620893000625,577.3620893000625,578.1721453600563,None,,,,12013,0002,2022_Mar_09_1504,localizer,2021.1.3,58.29883987547219,
block,faces,faces075.bmp,,,,,0,40,40,40,,,,,,,,,,,,,,,,,,,,,,,,,,,,,,,,,,,,,,,,,,None,,578.1721453600563,None,578.1721453600563,None,2022-03-09-15:13:35.218138,578.1823243999388,578.4895128000062,578.1823243999388,None,None,578.1823243999388,None,578.9891389600467,None,,,,12013,0002,2022_Mar_09_1504,localizer,2021.1.3,58.29883987547219,
block,faces,faces018.bmp,,,,,0,41,41,41,,,,,,,,,,,,,,,,,,,,,,,,,,,,,,,,,,,,,,,,,,None,,578.9891389600467,None,578.9891389600467,None,2022-03-09-15:13:36.035015,578.9900469998829,579.3058678999078,578.9900469998829,None,None,578.9900469998829,None,579.7901366598904,None,,,,12013,0002,2022_Mar_09_1504,localizer,2021.1.3,58.29883987547219,
block,faces,faces029.bmp,,,,,0,42,42,42,,,,,,,,,,,,,,,,,,,,,,,,,,,,,,,,,,,,,,,,,,None,,579.7901366598904,None,579.7901366598904,None,2022-03-09-15:13:36.841095,579.7958064000122,580.1054916998837,579.7958064000122,579.7958064000122,None,579.7958064000122,579.7958064000122,580.60576205994,None,,,,12013,0002,2022_Mar_09_1504,localizer,2021.1.3,58.29883987547219,
block,faces,faces061.bmp,,,,,0,43,43,43,,,,,,,,,,,,,,,,,,,,,,,,,,,,,,,,,,,,,,,,,,None,,580.60576205994,None,580.60576205994,None,2022-03-09-15:13:37.651717,580.6067580999807,580.9227165998891,580.6067580999807,None,None,580.6067580999807,None,581.4223045598716,None,,,,12013,0002,2022_Mar_09_1504,localizer,2021.1.3,58.29883987547219,
block_end,faces,faces017.bmp,,,,,0,44,44,44,,,,,,,,,,,,,,,,,,,,,,,,,,,,,,,,,,,,,,,,,,None,,581.4223045598716,None,581.4223045598716,None,2022-03-09-15:13:38.468523,581.4234543999191,581.7389670000412,581.4234543999191,None,None,581.4234543999191,None,582.2391171598807,None,,,,12013,0002,2022_Mar_09_1504,localizer,2021.1.3,58.29883987547219,
null_block,null_block,null_block.bmp,,,,,0,45,45,45,,,,,,,,,,,,,,,,,,,,,,,,,,,,,,,,,,,,,,,,,,t,1.7846205001696944,582.2391623000149,None,582.2391623000149,None,2022-03-09-15:13:41.084726,584.038729659887,None,584.038729659887,None,None,584.038729659887,None,584.0418376999442,None,,,,12013,0002,2022_Mar_09_1504,localizer,2021.1.3,58.29883987547219,
block_start,scenes,scenes033.bmp,,,,,0,46,46,46,,,,,,,,,,,,,,,,,,,,,,,,,,,,,,,,,,,,,,,,,,t,1.9819310000166297,596.0418719998561,None,596.0418719998561,None,2022-03-09-15:13:55.086934,598.0416856000666,598.3563220999204,598.0416856000666,None,None,598.0416856000666,None,598.8559449600522,None,,,,12013,0002,2022_Mar_09_1504,localizer,2021.1.3,58.29883987547219,
block,scenes,scenes072.bmp,,,,,0,47,47,47,,,,,,,,,,,,,,,,,,,,,,,,,,,,,,,,,,,,,,,,,,None,,598.8559449600522,None,598.8559449600522,None,2022-03-09-15:13:55.902133,598.8570411000401,599.1725665000267,598.8570411000401,None,None,598.8570411000401,None,599.6568133599591,None,,,,12013,0002,2022_Mar_09_1504,localizer,2021.1.3,58.29883987547219,
block,scenes,scenes089.bmp,,,,,0,48,48,48,,,,,,,,,,,,,,,,,,,,,,,,,,,,,,,,,,,,,,,,,,None,,599.6568133599591,None,599.6568133599591,None,2022-03-09-15:13:56.706775,599.6724030999467,599.9724188998807,599.6724030999467,599.6724030999467,None,599.6724030999467,599.6724030999467,600.472086159885,None,,,,12013,0002,2022_Mar_09_1504,localizer,2021.1.3,58.29883987547219,
block,scenes,scenes037.bmp,,,,,0,49,49,49,,,,,,,,,,,,,,,,,,,,,,,,,,,,,,,,,,,,,,,,,,None,,600.472086159885,None,600.472086159885,None,2022-03-09-15:13:57.518074,600.4824910999741,600.7900785999373,600.4824910999741,None,None,600.4824910999741,None,601.2901193598751,None,,,,12013,0002,2022_Mar_09_1504,localizer,2021.1.3,58.29883987547219,
block,scenes,scenes048.bmp,,,,,0,50,50,50,,,,,,,,,,,,,,,,,,,,,,,,,,,,,,,,,,,,,,,,,,None,,601.2901193598751,None,601.2901193598751,None,2022-03-09-15:13:58.337257,601.292761299992,601.6066829999909,601.292761299992,None,None,601.292761299992,None,602.0928637598641,None,,,,12013,0002,2022_Mar_09_1504,localizer,2021.1.3,58.29883987547219,
block,scenes,scenes003.bmp,,,,,0,51,51,51,,,,,,,,,,,,,,,,,,,,,,,,,,,,,,,,,,,,,,,,,,None,,602.0928637598641,None,602.0928637598641,None,2022-03-09-15:13:59.142814,602.1088441999163,602.422679600073,602.1088441999163,602.1088441999163,None,602.1088441999163,602.1088441999163,602.9059256600682,None,,,,12013,0002,2022_Mar_09_1504,localizer,2021.1.3,58.29883987547219,
block,scenes,scenes003.bmp,,,,,0,52,52,52,,,,,,,,,,,,,,,,,,,,,,,,,,,,,,,,,,,,,,,,,,None,,602.9059256600682,None,602.9059256600682,None,2022-03-09-15:13:59.951887,602.9071671999991,603.2225530999713,602.9071671999991,None,y,602.9071671999991,None,603.7220815600828,None,0.45725729991681874,,,12013,0002,2022_Mar_09_1504,localizer,2021.1.3,58.29883987547219,
block,scenes,scenes053.bmp,,,,,0,53,53,53,,,,,,,,,,,,,,,,,,,,,,,,,,,,,,,,,,,,,,,,,,None,,603.7220815600828,None,603.7220815600828,None,2022-03-09-15:14:00.768072,603.7236715999898,604.0389842998702,603.7236715999898,None,None,603.7236715999898,None,604.5388226598967,None,,,,12013,0002,2022_Mar_09_1504,localizer,2021.1.3,58.29883987547219,
block,scenes,scenes063.bmp,,,,,0,54,54,54,,,,,,,,,,,,,,,,,,,,,,,,,,,,,,,,,,,,,,,,,,None,,604.5388226598967,None,604.5388226598967,None,2022-03-09-15:14:01.584818,604.5489143999293,604.8558827999514,604.5489143999293,None,None,604.5489143999293,None,605.3554449599702,None,,,,12013,0002,2022_Mar_09_1504,localizer,2021.1.3,58.29883987547219,
block,scenes,scenes068.bmp,,,,,0,55,55,55,,,,,,,,,,,,,,,,,,,,,,,,,,,,,,,,,,,,,,,,,,None,,605.3554449599702,None,605.3554449599702,None,2022-03-09-15:14:02.401534,605.3659991999157,605.6725148998667,605.3659991999157,None,None,605.3659991999157,None,606.1723557600286,None,,,,12013,0002,2022_Mar_09_1504,localizer,2021.1.3,58.29883987547219,
block,scenes,scenes071.bmp,,,,,0,56,56,56,,,,,,,,,,,,,,,,,,,,,,,,,,,,,,,,,,,,,,,,,,None,,606.1723557600286,None,606.1723557600286,None,2022-03-09-15:14:03.218568,606.1830390999094,606.4893984999508,606.1830390999094,None,None,606.1830390999094,None,606.9889177599922,None,,,,12013,0002,2022_Mar_09_1504,localizer,2021.1.3,58.29883987547219,
block,scenes,scenes009.bmp,,,,,0,57,57,57,,,,,,,,,,,,,,,,,,,,,,,,,,,,,,,,,,,,,,,,,,None,,606.9889177599922,None,606.9889177599922,None,2022-03-09-15:14:04.033813,606.9912105000112,607.3060467999894,606.9912105000112,None,None,606.9912105000112,None,607.8056336600799,None,,,,12013,0002,2022_Mar_09_1504,localizer,2021.1.3,58.29883987547219,
block,scenes,scenes075.bmp,,,,,0,58,58,58,,,,,,,,,,,,,,,,,,,,,,,,,,,,,,,,,,,,,,,,,,None,,607.8056336600799,None,607.8056336600799,None,2022-03-09-15:14:04.851622,607.8161714999005,608.1224696999416,607.8161714999005,None,None,607.8161714999005,None,608.6223509599455,None,,,,12013,0002,2022_Mar_09_1504,localizer,2021.1.3,58.29883987547219,
block,scenes,scenes090.bmp,,,,,0,59,59,59,,,,,,,,,,,,,,,,,,,,,,,,,,,,,,,,,,,,,,,,,,None,,608.6223509599455,None,608.6223509599455,None,2022-03-09-15:14:05.668525,608.6328910999,608.9391709999181,608.6328910999,None,None,608.6328910999,None,609.4403002598789,None,,,,12013,0002,2022_Mar_09_1504,localizer,2021.1.3,58.29883987547219,
block_end,scenes,scenes079.bmp,,,,,0,60,60,60,,,,,,,,,,,,,,,,,,,,,,,,,,,,,,,,,,,,,,,,,,None,,609.4403002598789,None,609.4403002598789,None,2022-03-09-15:14:06.488341,609.4542133000214,609.7559887999669,609.4542133000214,None,None,609.4542133000214,None,610.2554535599426,None,,,,12013,0002,2022_Mar_09_1504,localizer,2021.1.3,58.29883987547219,
block_start,scrambled,scrambled062.bmp,,,,,0,61,61,61,,,,,,,,,,,,,,,,,,,,,,,,,,,,,,,,,,,,,,,,,,t,1.767819699831307,610.2559270998463,None,610.2559270998463,None,2022-03-09-15:14:09.085090,612.0401059000287,612.3561027999967,612.0401059000287,None,None,612.0401059000287,None,612.8391903600656,None,,,,12013,0002,2022_Mar_09_1504,localizer,2021.1.3,58.29883987547219,
block,scrambled,scrambled030.bmp,,,,,0,62,62,62,,,,,,,,,,,,,,,,,,,,,,,,,,,,,,,,,,,,,,,,,,None,,612.8391903600656,None,612.8391903600656,None,2022-03-09-15:14:09.887393,612.841319900006,613.1566447999794,612.841319900006,612.841319900006,None,612.841319900006,612.841319900006,613.6562792599667,None,,,,12013,0002,2022_Mar_09_1504,localizer,2021.1.3,58.29883987547219,
block,scrambled,scrambled030.bmp,,,,,0,63,63,63,,,,,,,,,,,,,,,,,,,,,,,,,,,,,,,,,,,,,,,,,,None,,613.6562792599667,None,613.6562792599667,None,2022-03-09-15:14:10.703255,613.6576253999956,613.9734318999108,613.6576253999956,None,y,613.6576253999956,None,614.4730089599267,None,0.4080173000693321,,,12013,0002,2022_Mar_09_1504,localizer,2021.1.3,58.29883987547219,
block,scrambled,scrambled045.bmp,,,,,0,64,64,64,,,,,,,,,,,,,,,,,,,,,,,,,,,,,,,,,,,,,,,,,,None,,614.4730089599267,None,614.4730089599267,None,2022-03-09-15:14:11.520981,614.4860747000203,614.7893004000653,614.4860747000203,None,None,614.4860747000203,None,615.2891026599333,None,,,,12013,0002,2022_Mar_09_1504,localizer,2021.1.3,58.29883987547219,
block,scrambled,scrambled073.bmp,,,,,0,65,65,65,,,,,,,,,,,,,,,,,,,,,,,,,,,,,,,,,,,,,,,,,,None,,615.2891026599333,None,615.2891026599333,None,2022-03-09-15:14:12.335304,615.2902267999016,615.6060265998822,615.2902267999016,None,None,615.2902267999016,None,616.0897003599908,None,,,,12013,0002,2022_Mar_09_1504,localizer,2021.1.3,58.29883987547219,
block,scrambled,scrambled006.bmp,,,,,0,66,66,66,,,,,,,,,,,,,,,,,,,,,,,,,,,,,,,,,,,,,,,,,,None,,616.0897003599908,None,616.0897003599908,None,2022-03-09-15:14:13.138624,616.1034063999541,616.4061559999827,616.1034063999541,616.1034063999541,None,616.1034063999541,616.1034063999541,616.9055711600464,None,,,,12013,0002,2022_Mar_09_1504,localizer,2021.1.3,58.29883987547219,
block,scrambled,scrambled005.bmp,,,,,0,67,67,67,,,,,,,,,,,,,,,,,,,,,,,,,,,,,,,,,,,,,,,,,,None,,616.9055711600464,None,616.9055711600464,None,2022-03-09-15:14:13.951800,616.9069302999415,617.2064255999867,616.9069302999415,None,None,616.9069302999415,None,617.7222179599572,None,,,,12013,0002,2022_Mar_09_1504,localizer,2021.1.3,58.29883987547219,
block,scrambled,scrambled015.bmp,,,,,0,68,68,68,,,,,,,,,,,,,,,,,,,,,,,,,,,,,,,,,,,,,,,,,,None,,617.7222179599572,None,617.7222179599572,None,2022-03-09-15:14:14.768214,617.7260189000517,618.0237934999168,617.7260189000517,None,None,617.7260189000517,None,618.5396190599073,None,,,,12013,0002,2022_Mar_09_1504,localizer,2021.1.3,58.29883987547219,
block,scrambled,scrambled018.bmp,,,,,0,69,69,69,,,,,,,,,,,,,,,,,,,,,,,,,,,,,,,,,,,,,,,,,,None,,618.5396190599073,None,618.5396190599073,None,2022-03-09-15:14:15.586559,618.5507300000172,618.8559954999946,618.5507300000172,None,None,618.5507300000172,None,619.3555516599678,None,,,,12013,0002,2022_Mar_09_1504,localizer,2021.1.3,58.29883987547219,
block,scrambled,scrambled066.bmp,,,,,0,70,70,70,,,,,,,,,,,,,,,,,,,,,,,,,,,,,,,,,,,,,,,,,,None,,619.3555516599678,None,619.3555516599678,None,2022-03-09-15:14:16.401741,619.3568287999369,619.6729003998917,619.3568287999369,None,None,619.3568287999369,None,620.1560460600537,None,,,,12013,0002,2022_Mar_09_1504,localizer,2021.1.3,58.29883987547219,
block,scrambled,scrambled078.bmp,,,,,0,71,71,71,,,,,,,,,,,,,,,,,,,,,,,,,,,,,,,,,,,,,,,,,,None,,620.1560460600537,None,620.1560460600537,None,2022-03-09-15:14:17.204025,620.1691910000518,620.472473999951,620.1691910000518,620.1691910000518,None,620.1691910000518,620.1691910000518,620.9723076600582,None,,,,12013,0002,2022_Mar_09_1504,localizer,2021.1.3,58.29883987547219,
block,scrambled,scrambled057.bmp,,,,,0,72,72,72,,,,,,,,,,,,,,,,,,,,,,,,,,,,,,,,,,,,,,,,,,None,,620.9723076600582,None,620.9723076600582,None,2022-03-09-15:14:18.018507,620.9825013999362,621.2892245999537,620.9825013999362,None,None,620.9825013999362,None,621.7889162599109,None,,,,12013,0002,2022_Mar_09_1504,localizer,2021.1.3,58.29883987547219,
block,scrambled,scrambled041.bmp,,,,,0,73,73,73,,,,,,,,,,,,,,,,,,,,,,,,,,,,,,,,,,,,,,,,,,None,,621.7889162599109,None,621.7889162599109,None,2022-03-09-15:14:18.834905,621.7988372999243,622.1057871999219,621.7988372999243,None,None,621.7988372999243,None,622.6058645599056,None,,,,12013,0002,2022_Mar_09_1504,localizer,2021.1.3,58.29883987547219,
block,scrambled,scrambled027.bmp,,,,,0,74,74,74,,,,,,,,,,,,,,,,,,,,,,,,,,,,,,,,,,,,,,,,,,None,,622.6058645599056,None,622.6058645599056,None,2022-03-09-15:14:19.652063,622.616816099966,622.9233337999322,622.616816099966,None,None,622.616816099966,None,623.4235701599624,None,,,,12013,0002,2022_Mar_09_1504,localizer,2021.1.3,58.29883987547219,
block_end,scrambled,scrambled077.bmp,,,,,0,75,75,75,,,,,,,,,,,,,,,,,,,,,,,,,,,,,,,,,,,,,,,,,,None,,623.4235701599624,None,623.4235701599624,None,2022-03-09-15:14:20.471706,623.4379203999415,623.7393614000175,623.4379203999415,None,None,623.4379203999415,None,624.2402599599678,None,,,,12013,0002,2022_Mar_09_1504,localizer,2021.1.3,58.29883987547219,
block_start,faces,faces057.bmp,,,,,0,76,76,76,,,,,,,,,,,,,,,,,,,,,,,,,,,,,,,,,,,,,,,,,,t,1.7830004000570625,624.2407444999553,None,624.2407444999553,None,2022-03-09-15:14:23.085086,626.0407415998634,626.356032700045,626.0407415998634,None,None,626.0407415998634,None,626.8403180599213,None,,,,12013,0002,2022_Mar_09_1504,localizer,2021.1.3,58.29883987547219,
block,faces,faces010.bmp,,,,,0,77,77,77,,,,,,,,,,,,,,,,,,,,,,,,,,,,,,,,,,,,,,,,,,None,,626.8403180599213,None,626.8403180599213,None,2022-03-09-15:14:23.889456,626.8524668999016,627.1558902000543,626.8524668999016,626.8524668999016,None,626.8524668999016,626.8524668999016,627.6559544600547,None,,,,12013,0002,2022_Mar_09_1504,localizer,2021.1.3,58.29883987547219,
block,faces,faces022.bmp,,,,,0,78,78,78,,,,,,,,,,,,,,,,,,,,,,,,,,,,,,,,,,,,,,,,,,None,,627.6559544600547,None,627.6559544600547,None,2022-03-09-15:14:24.702108,627.6572122999933,627.9729962998535,627.6572122999933,None,None,627.6572122999933,None,628.4726839600131,None,,,,12013,0002,2022_Mar_09_1504,localizer,2021.1.3,58.29883987547219,
block,faces,faces068.bmp,,,,,0,79,79,79,,,,,,,,,,,,,,,,,,,,,,,,,,,,,,,,,,,,,,,,,,None,,628.4726839600131,None,628.4726839600131,None,2022-03-09-15:14:25.518667,628.4850556999445,628.7894504000433,628.4850556999445,None,None,628.4850556999445,None,629.2891106599942,None,,,,12013,0002,2022_Mar_09_1504,localizer,2021.1.3,58.29883987547219,
block,faces,faces032.bmp,,,,,0,80,80,80,,,,,,,,,,,,,,,,,,,,,,,,,,,,,,,,,,,,,,,,,,None,,629.2891106599942,None,629.2891106599942,None,2022-03-09-15:14:26.335099,629.2993477999698,629.6060820999555,629.2993477999698,None,None,629.2993477999698,None,630.1064901600126,None,,,,12013,0002,2022_Mar_09_1504,localizer,2021.1.3,58.29883987547219,
block,faces,faces038.bmp,,,,,0,81,81,81,,,,,,,,,,,,,,,,,,,,,,,,,,,,,,,,,,,,,,,,,,None,,630.1064901600126,None,630.1064901600126,None,2022-03-09-15:14:27.153446,630.107513200026,630.4227565000765,630.107513200026,None,None,630.107513200026,None,630.9225479598623,None,,,,12013,0002,2022_Mar_09_1504,localizer,2021.1.3,58.29883987547219,
block,faces,faces055.bmp,,,,,0,82,82,82,,,,,,,,,,,,,,,,,,,,,,,,,,,,,,,,,,,,,,,,,,None,,630.9225479598623,None,630.9225479598623,None,2022-03-09-15:14:27.968756,630.9330328998622,631.2394667998888,630.9330328998622,None,None,630.9330328998622,None,631.7389587600716,None,,,,12013,0002,2022_Mar_09_1504,localizer,2021.1.3,58.29883987547219,
block,faces,faces067.bmp,,,,,0,83,83,83,,,,,,,,,,,,,,,,,,,,,,,,,,,,,,,,,,,,,,,,,,None,,631.7389587600716,None,631.7389587600716,None,2022-03-09-15:14:28.785540,631.7405564999208,632.0557045000605,631.7405564999208,None,None,631.7405564999208,None,632.5555410600733,None,,,,12013,0002,2022_Mar_09_1504,localizer,2021.1.3,58.29883987547219,
block,faces,faces060.bmp,,,,,0,84,84,84,,,,,,,,,,,,,,,,,,,,,,,,,,,,,,,,,,,,,,,,,,None,,632.5555410600733,None,632.5555410600733,None,2022-03-09-15:14:29.601533,632.5572219998576,632.8727539998945,632.5572219998576,None,None,632.5572219998576,None,633.3725027599372,None,,,,12013,0002,2022_Mar_09_1504,localizer,2021.1.3,58.29883987547219,
block,faces,faces039.bmp,,,,,0,85,85,85,,,,,,,,,,,,,,,,,,,,,,,,,,,,,,,,,,,,,,,,,,None,,633.3725027599372,None,633.3725027599372,None,2022-03-09-15:14:30.418693,633.3736483000685,633.6894857999869,633.3736483000685,None,None,633.3736483000685,None,634.1745643600822,None,,,,12013,0002,2022_Mar_09_1504,localizer,2021.1.3,58.29883987547219,
block,faces,faces077.bmp,,,,,0,86,86,86,,,,,,,,,,,,,,,,,,,,,,,,,,,,,,,,,,,,,,,,,,None,,634.1745643600822,None,634.1745643600822,None,2022-03-09-15:14:31.226551,634.1969500000123,634.5061341999099,634.1969500000123,634.1969500000123,None,634.1969500000123,634.1969500000123,634.9894380598795,None,,,,12013,0002,2022_Mar_09_1504,localizer,2021.1.3,58.29883987547219,
block,faces,faces019.bmp,,,,,0,87,87,87,,,,,,,,,,,,,,,,,,,,,,,,,,,,,,,,,,,,,,,,,,None,,634.9894380598795,None,634.9894380598795,None,2022-03-09-15:14:32.035423,635.0055738999508,635.3060339000076,635.0055738999508,None,None,635.0055738999508,None,635.8057314598933,None,,,,12013,0002,2022_Mar_09_1504,localizer,2021.1.3,58.29883987547219,
block,faces,faces001.bmp,,,,,0,88,88,88,,,,,,,,,,,,,,,,,,,,,,,,,,,,,,,,,,,,,,,,,,None,,635.8057314598933,None,635.8057314598933,None,2022-03-09-15:14:32.851723,635.8168537998572,636.1227315000724,635.8168537998572,None,None,635.8168537998572,None,636.6231692600064,None,,,,12013,0002,2022_Mar_09_1504,localizer,2021.1.3,58.29883987547219,
block,faces,faces061.bmp,,,,,0,89,89,89,,,,,,,,,,,,,,,,,,,,,,,,,,,,,,,,,,,,,,,,,,None,,636.6231692600064,None,636.6231692600064,None,2022-03-09-15:14:33.670145,636.6244115000591,636.939785500057,636.6244115000591,None,None,636.6244115000591,None,637.4237752600108,None,,,,12013,0002,2022_Mar_09_1504,localizer,2021.1.3,58.29883987547219,
block_end,faces,faces016.bmp,,,,,0,90,90,90,,,,,,,,,,,,,,,,,,,,,,,,,,,,,,,,,,,,,,,,,,None,,637.4237752600108,None,637.4237752600108,None,2022-03-09-15:14:34.473776,637.4413117000367,637.7567071998492,637.4413117000367,637.4413117000367,None,637.4413117000367,637.4413117000367,638.2403355600778,None,,,,12013,0002,2022_Mar_09_1504,localizer,2021.1.3,58.29883987547219,
block_start,scenes,scenes065.bmp,,,,,0,91,91,91,,,,,,,,,,,,,,,,,,,,,,,,,,,,,,,,,,,,,,,,,,t,1.7820546999573708,638.2408576000016,None,638.2408576000016,None,2022-03-09-15:14:37.084732,640.0477879999671,640.356164299883,640.0477879999671,None,None,640.0477879999671,None,640.8557876599021,None,,,,12013,0002,2022_Mar_09_1504,localizer,2021.1.3,58.29883987547219,
block,scenes,scenes054.bmp,,,,,0,92,92,92,,,,,,,,,,,,,,,,,,,,,,,,,,,,,,,,,,,,,,,,,,None,,640.8557876599021,None,640.8557876599021,None,2022-03-09-15:14:37.901775,640.8570425999351,641.1730104000308,640.8570425999351,None,None,640.8570425999351,None,641.6722186600324,None,,,,12013,0002,2022_Mar_09_1504,localizer,2021.1.3,58.29883987547219,
block,scenes,scenes005.bmp,,,,,0,93,93,93,,,,,,,,,,,,,,,,,,,,,,,,,,,,,,,,,,,,,,,,,,None,,641.6722186600324,None,641.6722186600324,None,2022-03-09-15:14:38.718210,641.6738847000524,641.9892855000217,641.6738847000524,None,None,641.6738847000524,None,642.4894776599482,None,,,,12013,0002,2022_Mar_09_1504,localizer,2021.1.3,58.29883987547219,
block,scenes,scenes078.bmp,,,,,0,94,94,94,,,,,,,,,,,,,,,,,,,,,,,,,,,,,,,,,,,,,,,,,,None,,642.4894776599482,None,642.4894776599482,None,2022-03-09-15:14:39.535460,642.4989175999071,642.8061643999536,642.4989175999071,None,None,642.4989175999071,None,643.3058852599003,None,,,,12013,0002,2022_Mar_09_1504,localizer,2021.1.3,58.29883987547219,
block,scenes,scenes079.bmp,,,,,0,95,95,95,,,,,,,,,,,,,,,,,,,,,,,,,,,,,,,,,,,,,,,,,,None,,643.3058852599003,None,643.3058852599003,None,2022-03-09-15:14:40.352116,643.307036299957,643.6229534000158,643.307036299957,None,None,643.307036299957,None,644.1070728599094,None,,,,12013,0002,2022_Mar_09_1504,localizer,2021.1.3,58.29883987547219,
block,scenes,scenes048.bmp,,,,,0,96,96,96,,,,,,,,,,,,,,,,,,,,,,,,,,,,,,,,,,,,,,,,,,None,,644.1070728599094,None,644.1070728599094,None,2022-03-09-15:14:41.158013,644.1127375999931,644.4232743000612,644.1127375999931,644.1127375999931,None,644.1127375999931,644.1127375999931,644.9530232599005,None,,,,12013,0002,2022_Mar_09_1504,localizer,2021.1.3,58.29883987547219,
block,scenes,scenes012.bmp,,,,,0,97,97,97,,,,,,,,,,,,,,,,,,,,,,,,,,,,,,,,,,,,,,,,,,None,,644.9530232599005,None,644.9530232599005,None,2022-03-09-15:14:41.999017,644.9569200999103,645.2725476999767,644.9569200999103,None,None,644.9569200999103,None,645.772847060021,None,,,,12013,0002,2022_Mar_09_1504,localizer,2021.1.3,58.29883987547219,
block,scenes,scenes053.bmp,,,,,0,98,98,98,,,,,,,,,,,,,,,,,,,,,,,,,,,,,,,,,,,,,,,,,,None,,645.772847060021,None,645.772847060021,None,2022-03-09-15:14:42.819093,645.7737622000277,646.0891629999969,645.7737622000277,None,None,645.7737622000277,None,646.5891480598599,None,,,,12013,0002,2022_Mar_09_1504,localizer,2021.1.3,58.29883987547219,
block,scenes,scenes049.bmp,,,,,0,99,99,99,,,,,,,,,,,,,,,,,,,,,,,,,,,,,,,,,,,,,,,,,,None,,646.5891480598599,None,646.5891480598599,None,2022-03-09-15:14:43.635137,646.5902954000048,646.9060343999881,646.5902954000048,None,None,646.5902954000048,None,647.4058724598959,None,,,,12013,0002,2022_Mar_09_1504,localizer,2021.1.3,58.29883987547219,
block,scenes,scenes039.bmp,,,,,0,100,100,100,,,,,,,,,,,,,,,,,,,,,,,,,,,,,,,,,,,,,,,,,,None,,647.4058724598959,None,647.4058724598959,None,2022-03-09-15:14:44.451862,647.4162600999698,647.7228433999699,647.4162600999698,None,None,647.4162600999698,None,648.2225313600153,None,,,,12013,0002,2022_Mar_09_1504,localizer,2021.1.3,58.29883987547219,
block,scenes,scenes060.bmp,,,,,0,101,101,101,,,,,,,,,,,,,,,,,,,,,,,,,,,,,,,,,,,,,,,,,,None,,648.2225313600153,None,648.2225313600153,None,2022-03-09-15:14:45.268521,648.2337601999752,648.539618599927,648.2337601999752,None,None,648.2337601999752,None,649.0390622598585,None,,,,12013,0002,2022_Mar_09_1504,localizer,2021.1.3,58.29883987547219,
block,scenes,scenes068.bmp,,,,,0,102,102,102,,,,,,,,,,,,,,,,,,,,,,,,,,,,,,,,,,,,,,,,,,None,,649.0390622598585,None,649.0390622598585,None,2022-03-09-15:14:46.085057,649.0402652998455,649.3562864998821,649.0402652998455,None,None,649.0402652998455,None,649.8397062599194,None,,,,12013,0002,2022_Mar_09_1504,localizer,2021.1.3,58.29883987547219,
block,scenes,scenes044.bmp,,,,,0,103,103,103,,,,,,,,,,,,,,,,,,,,,,,,,,,,,,,,,,,,,,,,,,None,,649.8397062599194,None,649.8397062599194,None,2022-03-09-15:14:46.888818,649.8429502998479,650.1561048000585,649.8429502998479,649.8429502998479,None,649.8429502998479,649.8429502998479,650.6558953599539,None,,,,12013,0002,2022_Mar_09_1504,localizer,2021.1.3,58.29883987547219,
block,scenes,scenes016.bmp,,,,,0,104,104,104,,,,,,,,,,,,,,,,,,,,,,,,,,,,,,,,,,,,,,,,,,None,,650.6558953599539,None,650.6558953599539,None,2022-03-09-15:14:47.702093,650.6572016000282,650.9729036998469,650.6572016000282,None,None,650.6572016000282,None,651.4727347599343,None,,,,12013,0002,2022_Mar_09_1504,localizer,2021.1.3,58.29883987547219,
block_end,scenes,scenes089.bmp,,,,,0,105,105,105,,,,,,,,,,,,,,,,,,,,,,,,,,,,,,,,,,,,,,,,,,None,,651.4727347599343,None,651.4727347599343,None,2022-03-09-15:14:48.518938,651.474063300062,651.7894607998896,651.474063300062,None,None,651.474063300062,None,652.2896789600142,None,,,,12013,0002,2022_Mar_09_1504,localizer,2021.1.3,58.29883987547219,
null_block,null_block,null_block.bmp,,,,,0,106,106,106,,,,,,,,,,,,,,,,,,,,,,,,,,,,,,,,,,,,,,,,,,t,1.7324524000287056,652.290182299912,None,652.290182299912,None,2022-03-09-15:14:51.084384,654.0393072598614,None,654.0393072598614,None,None,654.0393072598614,None,654.0421311999671,None,,,,12013,0002,2022_Mar_09_1504,localizer,2021.1.3,58.29883987547219,
block_start,objects,objects047.bmp,,,,,0,107,107,107,,,,,,,,,,,,,,,,,,,,,,,,,,,,,,,,,,,,,,,,,,t,1.9669608999975026,666.0561214999761,None,666.0561214999761,None,2022-03-09-15:15:05.085965,668.0407803000417,668.3402909999713,668.0407803000417,None,None,668.0407803000417,None,668.8398573600222,None,,,,12013,0002,2022_Mar_09_1504,localizer,2021.1.3,58.29883987547219,
block,objects,objects021.bmp,,,,,0,108,108,108,,,,,,,,,,,,,,,,,,,,,,,,,,,,,,,,,,,,,,,,,,None,,668.8398573600222,None,668.8398573600222,None,2022-03-09-15:15:05.888822,668.8548983999062,669.1563089999836,668.8548983999062,668.8548983999062,None,668.8548983999062,668.8548983999062,669.6561215600465,None,,,,12013,0002,2022_Mar_09_1504,localizer,2021.1.3,58.29883987547219,
block,objects,objects023.bmp,,,,,0,109,109,109,,,,,,,,,,,,,,,,,,,,,,,,,,,,,,,,,,,,,,,,,,None,,669.6561215600465,None,669.6561215600465,None,2022-03-09-15:15:06.702106,669.6571527998894,669.9731542000081,669.6571527998894,None,None,669.6571527998894,None,670.456513459934,None,,,,12013,0002,2022_Mar_09_1504,localizer,2021.1.3,58.29883987547219,
block,objects,objects059.bmp,,,,,0,110,110,110,,,,,,,,,,,,,,,,,,,,,,,,,,,,,,,,,,,,,,,,,,None,,670.456513459934,None,670.456513459934,None,2022-03-09-15:15:07.505485,670.4599468000233,670.7609693999402,670.4599468000233,670.4599468000233,None,670.4599468000233,670.4599468000233,671.2731366598979,None,,,,12013,0002,2022_Mar_09_1504,localizer,2021.1.3,58.29883987547219,
block,objects,objects084.bmp,,,,,0,111,111,111,,,,,,,,,,,,,,,,,,,,,,,,,,,,,,,,,,,,,,,,,,None,,671.2731366598979,None,671.2731366598979,None,2022-03-09-15:15:08.318146,671.2774954000488,671.5893116998486,671.2774954000488,None,None,671.2774954000488,None,672.0892434598878,None,,,,12013,0002,2022_Mar_09_1504,localizer,2021.1.3,58.29883987547219,
block,objects,objects010.bmp,,,,,0,112,112,112,,,,,,,,,,,,,,,,,,,,,,,,,,,,,,,,,,,,,,,,,,None,,672.0892434598878,None,672.0892434598878,None,2022-03-09-15:15:09.135238,672.0905323000625,672.4063989999704,672.0905323000625,None,None,672.0905323000625,None,672.9060060599819,None,,,,12013,0002,2022_Mar_09_1504,localizer,2021.1.3,58.29883987547219,
block,objects,objects006.bmp,,,,,0,113,113,113,,,,,,,,,,,,,,,,,,,,,,,,,,,,,,,,,,,,,,,,,,None,,672.9060060599819,None,672.9060060599819,None,2022-03-09-15:15:09.952231,672.9167627000716,673.223646099912,672.9167627000716,None,None,672.9167627000716,None,673.7226428600494,None,,,,12013,0002,2022_Mar_09_1504,localizer,2021.1.3,58.29883987547219,
block,objects,objects070.bmp,,,,,0,114,114,114,,,,,,,,,,,,,,,,,,,,,,,,,,,,,,,,,,,,,,,,,,None,,673.7226428600494,None,673.7226428600494,None,2022-03-09-15:15:10.768634,673.7327296999283,674.0421734000556,673.7327296999283,None,None,673.7327296999283,None,674.5393239598721,None,,,,12013,0002,2022_Mar_09_1504,localizer,2021.1.3,58.29883987547219,
block,objects,objects037.bmp,,,,,0,115,115,115,,,,,,,,,,,,,,,,,,,,,,,,,,,,,,,,,,,,,,,,,,None,,674.5393239598721,None,674.5393239598721,None,2022-03-09-15:15:11.585314,674.5405089999549,674.8563556999434,674.5405089999549,None,None,674.5405089999549,None,675.3561235600151,None,,,,12013,0002,2022_Mar_09_1504,localizer,2021.1.3,58.29883987547219,
block,objects,objects008.bmp,,,,,0,116,116,116,,,,,,,,,,,,,,,,,,,,,,,,,,,,,,,,,,,,,,,,,,None,,675.3561235600151,None,675.3561235600151,None,2022-03-09-15:15:12.402110,675.3571989999618,675.679384799907,675.3571989999618,None,None,675.3571989999618,None,676.17217116002,None,,,,12013,0002,2022_Mar_09_1504,localizer,2021.1.3,58.29883987547219,
block,objects,objects064.bmp,,,,,0,117,117,117,,,,,,,,,,,,,,,,,,,,,,,,,,,,,,,,,,,,,,,,,,None,,676.17217116002,None,676.17217116002,None,2022-03-09-15:15:13.218164,676.174355499912,676.4894826998934,676.174355499912,None,None,676.174355499912,None,676.9893879600801,None,,,,12013,0002,2022_Mar_09_1504,localizer,2021.1.3,58.29883987547219,
block,objects,objects020.bmp,,,,,0,118,118,118,,,,,,,,,,,,,,,,,,,,,,,,,,,,,,,,,,,,,,,,,,None,,676.9893879600801,None,676.9893879600801,None,2022-03-09-15:15:14.035605,676.9904926999006,677.3064953000285,676.9904926999006,None,None,676.9904926999006,None,677.7895932599437,None,,,,12013,0002,2022_Mar_09_1504,localizer,2021.1.3,58.29883987547219,
block,objects,objects030.bmp,,,,,0,119,119,119,,,,,,,,,,,,,,,,,,,,,,,,,,,,,,,,,,,,,,,,,,None,,677.7895932599437,None,677.7895932599437,None,2022-03-09-15:15:14.837573,677.7926747999154,678.1062793999445,677.7926747999154,677.7926747999154,None,677.7926747999154,677.7926747999154,678.6059469600674,None,,,,12013,0002,2022_Mar_09_1504,localizer,2021.1.3,58.29883987547219,
block,objects,objects039.bmp,,,,,0,120,120,120,,,,,,,,,,,,,,,,,,,,,,,,,,,,,,,,,,,,,,,,,,None,,678.6059469600674,None,678.6059469600674,None,2022-03-09-15:15:15.651935,678.6163908999879,678.923147500027,678.6163908999879,None,None,678.6163908999879,None,679.4118746599648,None,,,,12013,0002,2022_Mar_09_1504,localizer,2021.1.3,58.29883987547219,
block_end,objects,objects061.bmp,,,,,0,121,121,121,,,,,,,,,,,,,,,,,,,,,,,,,,,,,,,,,,,,,,,,,,None,,679.4118746599648,None,679.4118746599648,None,2022-03-09-15:15:16.461911,679.4156263999175,679.7230735998601,679.4156263999175,None,None,679.4156263999175,None,680.2225555599667,None,,,,12013,0002,2022_Mar_09_1504,localizer,2021.1.3,58.29883987547219,
block_start,objects,objects084.bmp,,,,,0,122,122,122,,,,,,,,,,,,,,,,,,,,,,,,,,,,,,,,,,,,,,,,,,t,1.7997788998764008,680.2229426000267,None,680.2229426000267,None,2022-03-09-15:15:19.084216,682.0406742000487,682.3569302998949,682.0406742000487,None,None,682.0406742000487,None,682.8558316600044,None,,,,12013,0002,2022_Mar_09_1504,localizer,2021.1.3,58.29883987547219,
block,objects,objects042.bmp,,,,,0,123,123,123,,,,,,,,,,,,,,,,,,,,,,,,,,,,,,,,,,,,,,,,,,None,,682.8558316600044,None,682.8558316600044,None,2022-03-09-15:15:19.901824,682.857198700076,683.1727559999563,682.857198700076,None,None,682.857198700076,None,683.6562679599971,None,,,,12013,0002,2022_Mar_09_1504,localizer,2021.1.3,58.29883987547219,
block,objects,objects007.bmp,,,,,0,124,124,124,,,,,,,,,,,,,,,,,,,,,,,,,,,,,,,,,,,,,,,,,,None,,683.6562679599971,None,683.6562679599971,None,2022-03-09-15:15:20.704249,683.6991924999747,684.0136929999571,683.6991924999747,683.6991924999747,None,683.6991924999747,683.6991924999747,684.4733623600565,None,,,,12013,0002,2022_Mar_09_1504,localizer,2021.1.3,58.29883987547219,
block,objects,objects080.bmp,,,,,0,125,125,125,,,,,,,,,,,,,,,,,,,,,,,,,,,,,,,,,,,,,,,,,,None,,684.4733623600565,None,684.4733623600565,None,2022-03-09-15:15:21.520321,684.4755575000308,684.7895479998551,684.4755575000308,None,None,684.4755575000308,None,685.289425460063,None,,,,12013,0002,2022_Mar_09_1504,localizer,2021.1.3,58.29883987547219,
block,objects,objects037.bmp,,,,,0,126,126,126,,,,,,,,,,,,,,,,,,,,,,,,,,,,,,,,,,,,,,,,,,None,,685.289425460063,None,685.289425460063,None,2022-03-09-15:15:22.335413,685.2943513998762,685.6064905000385,685.2943513998762,None,None,685.2943513998762,None,686.1073405599687,None,,,,12013,0002,2022_Mar_09_1504,localizer,2021.1.3,58.29883987547219,
block,objects,objects040.bmp,,,,,0,127,127,127,,,,,,,,,,,,,,,,,,,,,,,,,,,,,,,,,,,,,,,,,,None,,686.1073405599687,None,686.1073405599687,None,2022-03-09-15:15:23.155487,686.121616399847,686.4229317998979,686.121616399847,None,None,686.121616399847,None,686.9234382600058,None,,,,12013,0002,2022_Mar_09_1504,localizer,2021.1.3,58.29883987547219,
block,objects,objects017.bmp,,,,,0,128,128,128,,,,,,,,,,,,,,,,,,,,,,,,,,,,,,,,,,,,,,,,,,None,,686.9234382600058,None,686.9234382600058,None,2022-03-09-15:15:23.970413,686.9353887999896,687.2400766999926,686.9353887999896,None,None,686.9353887999896,None,687.7398216600064,None,,,,12013,0002,2022_Mar_09_1504,localizer,2021.1.3,58.29883987547219,
block,objects,objects061.bmp,,,,,0,129,129,129,,,,,,,,,,,,,,,,,,,,,,,,,,,,,,,,,,,,,,,,,,None,,687.7398216600064,None,687.7398216600064,None,2022-03-09-15:15:24.785845,687.740698199952,688.0561738000251,687.740698199952,None,None,687.740698199952,None,688.5557501599193,None,,,,12013,0002,2022_Mar_09_1504,localizer,2021.1.3,58.29883987547219,
block,objects,objects045.bmp,,,,,0,130,130,130,,,,,,,,,,,,,,,,,,,,,,,,,,,,,,,,,,,,,,,,,,None,,688.5557501599193,None,688.5557501599193,None,2022-03-09-15:15:25.601743,688.5645981000271,688.8731376999058,688.5645981000271,None,None,688.5645981000271,None,689.3729661599733,None,,,,12013,0002,2022_Mar_09_1504,localizer,2021.1.3,58.29883987547219,
block,objects,objects064.bmp,,,,,0,131,131,131,,,,,,,,,,,,,,,,,,,,,,,,,,,,,,,,,,,,,,,,,,None,,689.3729661599733,None,689.3729661599733,None,2022-03-09-15:15:26.418953,689.3740316000767,689.6898674999829,689.3740316000767,None,None,689.3740316000767,None,690.1895922600758,None,,,,12013,0002,2022_Mar_09_1504,localizer,2021.1.3,58.29883987547219,
block,objects,objects023.bmp,,,,,0,132,132,132,,,,,,,,,,,,,,,,,,,,,,,,,,,,,,,,,,,,,,,,,,None,,690.1895922600758,None,690.1895922600758,None,2022-03-09-15:15:27.235577,690.1906836999115,690.5061774998903,690.1906836999115,None,None,690.1906836999115,None,691.0060437600129,None,,,,12013,0002,2022_Mar_09_1504,localizer,2021.1.3,58.29883987547219,
block,objects,objects081.bmp,,,,,0,133,133,133,,,,,,,,,,,,,,,,,,,,,,,,,,,,,,,,,,,,,,,,,,None,,691.0060437600129,None,691.0060437600129,None,2022-03-09-15:15:28.052032,691.007260199869,691.3232257000636,691.007260199869,None,None,691.007260199869,None,691.8224995598663,None,,,,12013,0002,2022_Mar_09_1504,localizer,2021.1.3,58.29883987547219,
block,objects,objects003.bmp,,,,,0,134,134,134,,,,,,,,,,,,,,,,,,,,,,,,,,,,,,,,,,,,,,,,,,None,,691.8224995598663,None,691.8224995598663,None,2022-03-09-15:15:28.868493,691.8317519000266,692.1395980999805,691.8317519000266,None,None,691.8317519000266,None,692.6395861598663,None,,,,12013,0002,2022_Mar_09_1504,localizer,2021.1.3,58.29883987547219,
block,objects,objects027.bmp,,,,,0,135,135,135,,,,,,,,,,,,,,,,,,,,,,,,,,,,,,,,,,,,,,,,,,None,,692.6395861598663,None,692.6395861598663,None,2022-03-09-15:15:29.685773,692.6498137000017,692.957663499983,692.6498137000017,None,None,692.6498137000017,None,693.4561500599608,None,,,,12013,0002,2022_Mar_09_1504,localizer,2021.1.3,58.29883987547219,
block_end,objects,objects075.bmp,,,,,0,136,136,136,,,,,,,,,,,,,,,,,,,,,,,,,,,,,,,,,,,,,,,,,,None,,693.4561500599608,None,693.4561500599608,None,2022-03-09-15:15:30.502140,693.4575968999416,693.7727147999685,693.4575968999416,None,None,693.4575968999416,None,694.2723247598857,None,,,,12013,0002,2022_Mar_09_1504,localizer,2021.1.3,58.29883987547219,
null_block,null_block,null_block.bmp,,,,,0,137,137,137,,,,,,,,,,,,,,,,,,,,,,,,,,,,,,,,,,,,,,,,,,t,1.750345200067386,694.2725436000619,None,694.2725436000619,None,2022-03-09-15:15:33.083408,696.0392091599293,None,696.0392091599293,None,None,696.0392091599293,None,696.0409232999664,None,,,,12013,0002,2022_Mar_09_1504,localizer,2021.1.3,58.29883987547219,
block_start,scenes,scenes045.bmp,,,,,0,138,138,138,,,,,,,,,,,,,,,,,,,,,,,,,,,,,,,,,,,,,,,,,,t,1.9659931999631226,708.0567075000145,None,708.0567075000145,None,2022-03-09-15:15:47.085675,710.0409015999176,710.3564392998815,710.0409015999176,None,None,710.0409015999176,None,710.8564214600716,None,,,,12013,0002,2022_Mar_09_1504,localizer,2021.1.3,58.29883987547219,
block,scenes,scenes009.bmp,,,,,0,139,139,139,,,,,,,,,,,,,,,,,,,,,,,,,,,,,,,,,,,,,,,,,,None,,710.8564214600716,None,710.8564214600716,None,2022-03-09-15:15:47.902389,710.8575017000549,711.1731400999706,710.8575017000549,None,None,710.8575017000549,None,711.6568993599154,None,,,,12013,0002,2022_Mar_09_1504,localizer,2021.1.3,58.29883987547219,
block,scenes,scenes034.bmp,,,,,0,140,140,140,,,,,,,,,,,,,,,,,,,,,,,,,,,,,,,,,,,,,,,,,,None,,711.6568993599154,None,711.6568993599154,None,2022-03-09-15:15:48.706068,711.6729220000561,711.9737930998672,711.6729220000561,711.6729220000561,None,711.6729220000561,711.6729220000561,712.4736509599257,None,,,,12013,0002,2022_Mar_09_1504,localizer,2021.1.3,58.29883987547219,
block,scenes,scenes082.bmp,,,,,0,141,141,141,,,,,,,,,,,,,,,,,,,,,,,,,,,,,,,,,,,,,,,,,,None,,712.4736509599257,None,712.4736509599257,None,2022-03-09-15:15:49.520624,712.4843359000515,712.7898291999009,712.4843359000515,None,None,712.4843359000515,None,713.2896248599515,None,,,,12013,0002,2022_Mar_09_1504,localizer,2021.1.3,58.29883987547219,
block,scenes,scenes080.bmp,,,,,0,142,142,142,,,,,,,,,,,,,,,,,,,,,,,,,,,,,,,,,,,,,,,,,,None,,713.2896248599515,None,713.2896248599515,None,2022-03-09-15:15:50.335612,713.2909570999909,713.5901339000557,713.2909570999909,None,None,713.2909570999909,None,714.1062983599492,None,,,,12013,0002,2022_Mar_09_1504,localizer,2021.1.3,58.29883987547219,
block,scenes,scenes091.bmp,,,,,0,143,143,143,,,,,,,,,,,,,,,,,,,,,,,,,,,,,,,,,,,,,,,,,,None,,714.1062983599492,None,714.1062983599492,None,2022-03-09-15:15:51.152287,714.1168155998457,714.4236647998914,714.1168155998457,None,None,714.1168155998457,None,714.926261559967,None,,,,12013,0002,2022_Mar_09_1504,localizer,2021.1.3,58.29883987547219,
block,scenes,scenes083.bmp,,,,,0,144,144,144,,,,,,,,,,,,,,,,,,,,,,,,,,,,,,,,,,,,,,,,,,None,,714.926261559967,None,714.926261559967,None,2022-03-09-15:15:51.974455,714.9395442998502,715.2400684000459,714.9395442998502,None,None,714.9395442998502,None,715.7397723599803,None,,,,12013,0002,2022_Mar_09_1504,localizer,2021.1.3,58.29883987547219,
block,scenes,scenes030.bmp,,,,,0,145,145,145,,,,,,,,,,,,,,,,,,,,,,,,,,,,,,,,,,,,,,,,,,None,,715.7397723599803,None,715.7397723599803,None,2022-03-09-15:15:52.785791,715.7408266998827,716.0567180998623,715.7408266998827,None,None,715.7408266998827,None,716.5562531600241,None,,,,12013,0002,2022_Mar_09_1504,localizer,2021.1.3,58.29883987547219,
block,scenes,scenes006.bmp,,,,,0,146,146,146,,,,,,,,,,,,,,,,,,,,,,,,,,,,,,,,,,,,,,,,,,None,,716.5562531600241,None,716.5562531600241,None,2022-03-09-15:15:53.602244,716.5661579000298,716.8732894998975,716.5661579000298,None,None,716.5661579000298,None,717.3730749598705,None,,,,12013,0002,2022_Mar_09_1504,localizer,2021.1.3,58.29883987547219,
block,scenes,scenes067.bmp,,,,,0,147,147,147,,,,,,,,,,,,,,,,,,,,,,,,,,,,,,,,,,,,,,,,,,None,,717.3730749598705,None,717.3730749598705,None,2022-03-09-15:15:54.419061,717.3741687000729,717.6898806998506,717.3741687000729,None,None,717.3741687000729,None,718.1731967599131,None,,,,12013,0002,2022_Mar_09_1504,localizer,2021.1.3,58.29883987547219,
block,scenes,scenes013.bmp,,,,,0,148,148,148,,,,,,,,,,,,,,,,,,,,,,,,,,,,,,,,,,,,,,,,,,None,,718.1731967599131,None,718.1731967599131,None,2022-03-09-15:15:55.221383,718.1870534999762,718.4898582999595,718.1870534999762,718.1870534999762,None,718.1870534999762,718.1870534999762,718.9892807599623,None,,,,12013,0002,2022_Mar_09_1504,localizer,2021.1.3,58.29883987547219,
block,scenes,scenes086.bmp,,,,,0,149,149,149,,,,,,,,,,,,,,,,,,,,,,,,,,,,,,,,,,,,,,,,,,None,,718.9892807599623,None,718.9892807599623,None,2022-03-09-15:15:56.035270,718.9995289000217,719.3067727000453,718.9995289000217,None,None,718.9995289000217,None,719.8067564600148,None,,,,12013,0002,2022_Mar_09_1504,localizer,2021.1.3,58.29883987547219,
block,scenes,scenes071.bmp,,,,,0,150,150,150,,,,,,,,,,,,,,,,,,,,,,,,,,,,,,,,,,,,,,,,,,None,,719.8067564600148,None,719.8067564600148,None,2022-03-09-15:15:56.853920,719.8076346998569,720.1236381998751,719.8076346998569,None,None,719.8076346998569,None,720.6230018598959,None,,,,12013,0002,2022_Mar_09_1504,localizer,2021.1.3,58.29883987547219,
block,scenes,scenes073.bmp,,,,,0,151,151,151,,,,,,,,,,,,,,,,,,,,,,,,,,,,,,,,,,,,,,,,,,None,,720.6230018598959,None,720.6230018598959,None,2022-03-09-15:15:57.668992,720.6251872000284,720.9398680999875,720.6251872000284,None,None,720.6251872000284,None,721.4396077600774,None,,,,12013,0002,2022_Mar_09_1504,localizer,2021.1.3,58.29883987547219,
block_end,scenes,scenes055.bmp,,,,,0,152,152,152,,,,,,,,,,,,,,,,,,,,,,,,,,,,,,,,,,,,,,,,,,None,,721.4396077600774,None,721.4396077600774,None,2022-03-09-15:15:58.485597,721.4508519000374,721.7564693999011,721.4508519000374,None,None,721.4508519000374,None,722.2561600600835,None,,,,12013,0002,2022_Mar_09_1504,localizer,2021.1.3,58.29883987547219,
block_start,faces,faces077.bmp,,,,,0,153,153,153,,,,,,,,,,,,,,,,,,,,,,,,,,,,,,,,,,,,,,,,,,t,1.7663137998897582,722.2563459998928,None,722.2563459998928,None,2022-03-09-15:16:01.084326,724.0413806999568,724.3563168998808,724.0413806999568,None,None,724.0413806999568,None,724.8567813599017,None,,,,12013,0002,2022_Mar_09_1504,localizer,2021.1.3,58.29883987547219,
block,faces,faces078.bmp,,,,,0,154,154,154,,,,,,,,,,,,,,,,,,,,,,,,,,,,,,,,,,,,,,,,,,None,,724.8567813599017,None,724.8567813599017,None,2022-03-09-15:16:01.903777,724.8579686998855,725.1732896000613,724.8579686998855,None,None,724.8579686998855,None,725.6570760599803,None,,,,12013,0002,2022_Mar_09_1504,localizer,2021.1.3,58.29883987547219,
block,faces,faces078.bmp,,,,,0,155,155,155,,,,,,,,,,,,,,,,,,,,,,,,,,,,,,,,,,,,,,,,,,None,,725.6570760599803,None,725.6570760599803,None,2022-03-09-15:16:02.706231,725.6606872999109,725.9738888998982,725.6606872999109,725.6606872999109,y,725.6606872999109,725.6606872999109,726.4736942599062,None,0.42673050006851554,,,12013,0002,2022_Mar_09_1504,localizer,2021.1.3,58.29883987547219,
block,faces,faces015.bmp,,,,,0,156,156,156,,,,,,,,,,,,,,,,,,,,,,,,,,,,,,,,,,,,,,,,,,None,,726.4736942599062,None,726.4736942599062,None,2022-03-09-15:16:03.520651,726.4756038999185,726.7906611000653,726.4756038999185,None,None,726.4756038999185,None,727.2902992599644,None,,,,12013,0002,2022_Mar_09_1504,localizer,2021.1.3,58.29883987547219,
block,faces,faces040.bmp,,,,,0,157,157,157,,,,,,,,,,,,,,,,,,,,,,,,,,,,,,,,,,,,,,,,,,None,,727.2902992599644,None,727.2902992599644,None,2022-03-09-15:16:04.338269,727.2933848998509,727.6073246998712,727.2933848998509,None,None,727.2933848998509,None,728.1063157600817,None,,,,12013,0002,2022_Mar_09_1504,localizer,2021.1.3,58.29883987547219,
block,faces,faces023.bmp,,,,,0,158,158,158,,,,,,,,,,,,,,,,,,,,,,,,,,,,,,,,,,,,,,,,,,None,,728.1063157600817,None,728.1063157600817,None,2022-03-09-15:16:05.152304,728.1075905999169,728.423412400065,728.1075905999169,None,None,728.1075905999169,None,728.9230950599537,None,,,,12013,0002,2022_Mar_09_1504,localizer,2021.1.3,58.29883987547219,
block,faces,faces028.bmp,,,,,0,159,159,159,,,,,,,,,,,,,,,,,,,,,,,,,,,,,,,,,,,,,,,,,,None,,728.9230950599537,None,728.9230950599537,None,2022-03-09-15:16:05.969307,728.9242614998948,729.2399315000512,728.9242614998948,None,None,728.9242614998948,None,729.7242740598973,None,,,,12013,0002,2022_Mar_09_1504,localizer,2021.1.3,58.29883987547219,
block,faces,faces084.bmp,,,,,0,160,160,160,,,,,,,,,,,,,,,,,,,,,,,,,,,,,,,,,,,,,,,,,,None,,729.7242740598973,None,729.7242740598973,None,2022-03-09-15:16:06.774218,729.7408695998602,730.0568144000135,729.7408695998602,729.7408695998602,None,729.7408695998602,729.7408695998602,730.5451172598638,None,,,,12013,0002,2022_Mar_09_1504,localizer,2021.1.3,58.29883987547219,
block,faces,faces089.bmp,,,,,0,161,161,161,,,,,,,,,,,,,,,,,,,,,,,,,,,,,,,,,,,,,,,,,,None,,730.5451172598638,None,730.5451172598638,None,2022-03-09-15:16:07.595094,730.560297299875,730.8732139999047,730.560297299875,None,None,730.560297299875,None,731.3564996599686,None,,,,12013,0002,2022_Mar_09_1504,localizer,2021.1.3,58.29883987547219,
block,faces,faces083.bmp,,,,,0,162,162,162,,,,,,,,,,,,,,,,,,,,,,,,,,,,,,,,,,,,,,,,,,None,,731.3564996599686,None,731.3564996599686,None,2022-03-09-15:16:08.402670,731.3577399998903,731.6734452999663,731.3577399998903,None,None,731.3577399998903,None,732.1730238598772,None,,,,12013,0002,2022_Mar_09_1504,localizer,2021.1.3,58.29883987547219,
block,faces,faces017.bmp,,,,,0,163,163,163,,,,,,,,,,,,,,,,,,,,,,,,,,,,,,,,,,,,,,,,,,None,,732.1730238598772,None,732.1730238598772,None,2022-03-09-15:16:09.219012,732.1744504999369,732.4900537999347,732.1744504999369,None,None,732.1744504999369,None,732.9901473600418,None,,,,12013,0002,2022_Mar_09_1504,localizer,2021.1.3,58.29883987547219,
block,faces,faces041.bmp,,,,,0,164,164,164,,,,,,,,,,,,,,,,,,,,,,,,,,,,,,,,,,,,,,,,,,None,,732.9901473600418,None,732.9901473600418,None,2022-03-09-15:16:10.036137,732.9965017000213,733.3066008999012,732.9965017000213,None,None,732.9965017000213,None,733.8062524599023,None,,,,12013,0002,2022_Mar_09_1504,localizer,2021.1.3,58.29883987547219,
block,faces,faces051.bmp,,,,,0,165,165,165,,,,,,,,,,,,,,,,,,,,,,,,,,,,,,,,,,,,,,,,,,None,,733.8062524599023,None,733.8062524599023,None,2022-03-09-15:16:10.852243,733.8179210999515,734.1236691998783,733.8179210999515,None,None,733.8179210999515,None,734.6228789600078,None,,,,12013,0002,2022_Mar_09_1504,localizer,2021.1.3,58.29883987547219,
block,faces,faces074.bmp,,,,,0,166,166,166,,,,,,,,,,,,,,,,,,,,,,,,,,,,,,,,,,,,,,,,,,None,,734.6228789600078,None,734.6228789600078,None,2022-03-09-15:16:11.668869,734.6241993000731,734.9400047999807,734.6241993000731,None,None,734.6241993000731,None,735.4236409600359,None,,,,12013,0002,2022_Mar_09_1504,localizer,2021.1.3,58.29883987547219,
block_end,faces,faces057.bmp,,,,,0,167,167,167,,,,,,,,,,,,,,,,,,,,,,,,,,,,,,,,,,,,,,,,,,None,,735.4236409600359,None,735.4236409600359,None,2022-03-09-15:16:12.472593,735.4271098000463,735.7404054999352,735.4271098000463,735.4271098000463,None,735.4271098000463,735.4271098000463,736.2397898599971,None,,,,12013,0002,2022_Mar_09_1504,localizer,2021.1.3,58.29883987547219,
block_start,scrambled,scrambled085.bmp,,,,,0,168,168,168,,,,,,,,,,,,,,,,,,,,,,,,,,,,,,,,,,,,,,,,,,t,1.782478699926287,736.2400507999118,None,736.2400507999118,None,2022-03-09-15:16:15.084640,738.0413362998515,738.356666599866,738.0413362998515,None,None,738.0413362998515,None,738.856191059947,None,,,,12013,0002,2022_Mar_09_1504,localizer,2021.1.3,58.29883987547219,
block,scrambled,scrambled032.bmp,,,,,0,169,169,169,,,,,,,,,,,,,,,,,,,,,,,,,,,,,,,,,,,,,,,,,,None,,738.856191059947,None,738.856191059947,None,2022-03-09-15:16:15.902776,738.8667532999534,739.1731672999449,738.8667532999534,None,None,738.8667532999534,None,739.6730237599928,None,,,,12013,0002,2022_Mar_09_1504,localizer,2021.1.3,58.29883987547219,
block,scrambled,scrambled050.bmp,,,,,0,170,170,170,,,,,,,,,,,,,,,,,,,,,,,,,,,,,,,,,,,,,,,,,,None,,739.6730237599928,None,739.6730237599928,None,2022-03-09-15:16:16.719014,739.6834594998509,739.9900557000656,739.6834594998509,None,None,739.6834594998509,None,740.4908309598919,None,,,,12013,0002,2022_Mar_09_1504,localizer,2021.1.3,58.29883987547219,
block,scrambled,scrambled021.bmp,,,,,0,171,171,171,,,,,,,,,,,,,,,,,,,,,,,,,,,,,,,,,,,,,,,,,,None,,740.4908309598919,None,740.4908309598919,None,2022-03-09-15:16:17.536824,740.4910643000621,740.8068260999862,740.4910643000621,None,None,740.4910643000621,None,741.2934882600326,None,,,,12013,0002,2022_Mar_09_1504,localizer,2021.1.3,58.29883987547219,
block,scrambled,scrambled019.bmp,,,,,0,172,172,172,,,,,,,,,,,,,,,,,,,,,,,,,,,,,,,,,,,,,,,,,,None,,741.2934882600326,None,741.2934882600326,None,2022-03-09-15:16:18.350364,741.3028750999365,741.6067784999032,741.3028750999365,741.3028750999365,None,741.3028750999365,741.3028750999365,742.1071663600393,None,,,,12013,0002,2022_Mar_09_1504,localizer,2021.1.3,58.29883987547219,
block,scrambled,scrambled022.bmp,,,,,0,173,173,173,,,,,,,,,,,,,,,,,,,,,,,,,,,,,,,,,,,,,,,,,,None,,742.1071663600393,None,742.1071663600393,None,2022-03-09-15:16:19.154116,742.1093200000469,742.4241297000553,742.1093200000469,None,None,742.1093200000469,None,742.9085557599552,None,,,,12013,0002,2022_Mar_09_1504,localizer,2021.1.3,58.29883987547219,
block,scrambled,scrambled011.bmp,,,,,0,174,174,174,,,,,,,,,,,,,,,,,,,,,,,,,,,,,,,,,,,,,,,,,,None,,742.9085557599552,None,742.9085557599552,None,2022-03-09-15:16:19.960562,742.9161749999039,743.2241173000075,742.9161749999039,742.9161749999039,None,742.9161749999039,742.9161749999039,743.7238298600074,None,,,,12013,0002,2022_Mar_09_1504,localizer,2021.1.3,58.29883987547219,
block,scrambled,scrambled023.bmp,,,,,0,175,175,175,,,,,,,,,,,,,,,,,,,,,,,,,,,,,,,,,,,,,,,,,,None,,743.7238298600074,None,743.7238298600074,None,2022-03-09-15:16:20.770806,743.7260207000654,744.0399301999714,743.7260207000654,None,None,743.7260207000654,None,744.539560960047,None,,,,12013,0002,2022_Mar_09_1504,localizer,2021.1.3,58.29883987547219,
block,scrambled,scrambled039.bmp,,,,,0,176,176,176,,,,,,,,,,,,,,,,,,,,,,,,,,,,,,,,,,,,,,,,,,None,,744.539560960047,None,744.539560960047,None,2022-03-09-15:16:21.585554,744.5409627000336,744.8567347999196,744.5409627000336,None,None,744.5409627000336,None,745.3562111599837,None,,,,12013,0002,2022_Mar_09_1504,localizer,2021.1.3,58.29883987547219,
block,scrambled,scrambled010.bmp,,,,,0,177,177,177,,,,,,,,,,,,,,,,,,,,,,,,,,,,,,,,,,,,,,,,,,None,,745.3562111599837,None,745.3562111599837,None,2022-03-09-15:16:22.402199,745.3575998998713,745.6573550000321,745.3575998998713,None,None,745.3575998998713,None,746.1729424599558,None,,,,12013,0002,2022_Mar_09_1504,localizer,2021.1.3,58.29883987547219,
block,scrambled,scrambled013.bmp,,,,,0,178,178,178,,,,,,,,,,,,,,,,,,,,,,,,,,,,,,,,,,,,,,,,,,None,,746.1729424599558,None,746.1729424599558,None,2022-03-09-15:16:23.218930,746.1837687999941,746.4909399999306,746.1837687999941,None,None,746.1837687999941,None,746.9897200599313,None,,,,12013,0002,2022_Mar_09_1504,localizer,2021.1.3,58.29883987547219,
block,scrambled,scrambled036.bmp,,,,,0,179,179,179,,,,,,,,,,,,,,,,,,,,,,,,,,,,,,,,,,,,,,,,,,None,,746.9897200599313,None,746.9897200599313,None,2022-03-09-15:16:24.042678,746.9997020999435,747.307528699981,746.9997020999435,None,None,746.9997020999435,None,747.8074797600508,None,,,,12013,0002,2022_Mar_09_1504,localizer,2021.1.3,58.29883987547219,
block,scrambled,scrambled044.bmp,,,,,0,180,180,180,,,,,,,,,,,,,,,,,,,,,,,,,,,,,,,,,,,,,,,,,,None,,747.8074797600508,None,747.8074797600508,None,2022-03-09-15:16:24.854640,747.8084730000701,748.1234325000551,747.8084730000701,None,None,747.8084730000701,None,748.6230622598902,None,,,,12013,0002,2022_Mar_09_1504,localizer,2021.1.3,58.29883987547219,
block,scrambled,scrambled027.bmp,,,,,0,181,181,181,,,,,,,,,,,,,,,,,,,,,,,,,,,,,,,,,,,,,,,,,,None,,748.6230622598902,None,748.6230622598902,None,2022-03-09-15:16:25.669052,748.6242845000234,748.9401400999632,748.6242845000234,None,None,748.6242845000234,None,749.423458560044,None,,,,12013,0002,2022_Mar_09_1504,localizer,2021.1.3,58.29883987547219,
block_end,scrambled,scrambled040.bmp,,,,,0,182,182,182,,,,,,,,,,,,,,,,,,,,,,,,,,,,,,,,,,,,,,,,,,None,,749.423458560044,None,749.423458560044,None,2022-03-09-15:16:26.472556,749.4266659999266,749.7404507999308,749.4266659999266,749.4266659999266,None,749.4266659999266,749.4266659999266,750.2410602598917,None,,,,12013,0002,2022_Mar_09_1504,localizer,2021.1.3,58.29883987547219,
block_start,scenes,scenes056.bmp,,,,,0,183,183,183,,,,,,,,,,,,,,,,,,,,,,,,,,,,,,,,,,,,,,,,,,t,1.781163200037554,750.24138640007,None,750.24138640007,None,2022-03-09-15:16:29.090508,752.0566292998847,752.3566850000061,752.0566292998847,None,None,752.0566292998847,None,752.8566886600107,None,,,,12013,0002,2022_Mar_09_1504,localizer,2021.1.3,58.29883987547219,
block,scenes,scenes015.bmp,,,,,0,184,184,184,,,,,,,,,,,,,,,,,,,,,,,,,,,,,,,,,,,,,,,,,,None,,752.8566886600107,None,752.8566886600107,None,2022-03-09-15:16:29.902885,752.8700494999066,753.1742360000499,752.8700494999066,None,None,752.8700494999066,None,753.6739592600148,None,,,,12013,0002,2022_Mar_09_1504,localizer,2021.1.3,58.29883987547219,
block,scenes,scenes076.bmp,,,,,0,185,185,185,,,,,,,,,,,,,,,,,,,,,,,,,,,,,,,,,,,,,,,,,,None,,753.6739592600148,None,753.6739592600148,None,2022-03-09-15:16:30.721133,753.6750439999159,753.9900865999516,753.6750439999159,None,None,753.6750439999159,None,754.489590959996,None,,,,12013,0002,2022_Mar_09_1504,localizer,2021.1.3,58.29883987547219,
block,scenes,scenes012.bmp,,,,,0,186,186,186,,,,,,,,,,,,,,,,,,,,,,,,,,,,,,,,,,,,,,,,,,None,,754.489590959996,None,754.489590959996,None,2022-03-09-15:16:31.535584,754.4910090998746,754.8069144000765,754.4910090998746,None,None,754.4910090998746,None,755.2903756600805,None,,,,12013,0002,2022_Mar_09_1504,localizer,2021.1.3,58.29883987547219,
block,scenes,scenes070.bmp,,,,,0,187,187,187,,,,,,,,,,,,,,,,,,,,,,,,,,,,,,,,,,,,,,,,,,None,,755.2903756600805,None,755.2903756600805,None,2022-03-09-15:16:32.339349,755.2937846998684,755.6077298999298,755.2937846998684,755.2937846998684,None,755.2937846998684,755.2937846998684,756.0928623600863,None,,,,12013,0002,2022_Mar_09_1504,localizer,2021.1.3,58.29883987547219,
block,scenes,scenes030.bmp,,,,,0,188,188,188,,,,,,,,,,,,,,,,,,,,,,,,,,,,,,,,,,,,,,,,,,None,,756.0928623600863,None,756.0928623600863,None,2022-03-09-15:16:33.144863,756.1008869998623,756.4075207000133,756.1008869998623,756.1008869998623,None,756.1008869998623,756.1008869998623,756.9071716600098,None,,,,12013,0002,2022_Mar_09_1504,localizer,2021.1.3,58.29883987547219,
block,scenes,scenes036.bmp,,,,,0,189,189,189,,,,,,,,,,,,,,,,,,,,,,,,,,,,,,,,,,,,,,,,,,None,,756.9071716600098,None,756.9071716600098,None,2022-03-09-15:16:33.954148,756.9192134998739,757.2233410000335,756.9192134998739,None,None,756.9192134998739,None,757.7232273599599,None,,,,12013,0002,2022_Mar_09_1504,localizer,2021.1.3,58.29883987547219,
block,scenes,scenes035.bmp,,,,,0,190,190,190,,,,,,,,,,,,,,,,,,,,,,,,,,,,,,,,,,,,,,,,,,None,,757.7232273599599,None,757.7232273599599,None,2022-03-09-15:16:34.769222,757.7297491999343,758.040496399859,757.7297491999343,None,None,757.7297491999343,None,758.5397780599538,None,,,,12013,0002,2022_Mar_09_1504,localizer,2021.1.3,58.29883987547219,
block,scenes,scenes002.bmp,,,,,0,191,191,191,,,,,,,,,,,,,,,,,,,,,,,,,,,,,,,,,,,,,,,,,,None,,758.5397780599538,None,758.5397780599538,None,2022-03-09-15:16:35.585434,758.5414142999798,758.8568988000043,758.5414142999798,None,None,758.5414142999798,None,759.356413159892,None,,,,12013,0002,2022_Mar_09_1504,localizer,2021.1.3,58.29883987547219,
block,scenes,scenes059.bmp,,,,,0,192,192,192,,,,,,,,,,,,,,,,,,,,,,,,,,,,,,,,,,,,,,,,,,None,,759.356413159892,None,759.356413159892,None,2022-03-09-15:16:36.402610,759.3577034999616,759.6736735000741,759.3577034999616,None,None,759.3577034999616,None,760.1571054599714,None,,,,12013,0002,2022_Mar_09_1504,localizer,2021.1.3,58.29883987547219,
block,scenes,scenes029.bmp,,,,,0,193,193,193,,,,,,,,,,,,,,,,,,,,,,,,,,,,,,,,,,,,,,,,,,None,,760.1571054599714,None,760.1571054599714,None,2022-03-09-15:16:37.206075,760.1606737000402,760.4740122999065,760.1606737000402,760.1606737000402,None,760.1606737000402,760.1606737000402,760.9732608598657,None,,,,12013,0002,2022_Mar_09_1504,localizer,2021.1.3,58.29883987547219,
block,scenes,scenes085.bmp,,,,,0,194,194,194,,,,,,,,,,,,,,,,,,,,,,,,,,,,,,,,,,,,,,,,,,None,,760.9732608598657,None,760.9732608598657,None,2022-03-09-15:16:38.019248,760.9834213999566,761.2907519999426,760.9834213999566,None,None,760.9834213999566,None,761.7891496600583,None,,,,12013,0002,2022_Mar_09_1504,localizer,2021.1.3,58.29883987547219,
block,scenes,scenes022.bmp,,,,,0,195,195,195,,,,,,,,,,,,,,,,,,,,,,,,,,,,,,,,,,,,,,,,,,None,,761.7891496600583,None,761.7891496600583,None,2022-03-09-15:16:38.834900,761.7954668998718,762.1065586998593,761.7954668998718,None,None,761.7954668998718,None,762.6066937599331,None,,,,12013,0002,2022_Mar_09_1504,localizer,2021.1.3,58.29883987547219,
block,scenes,scenes033.bmp,,,,,0,196,196,196,,,,,,,,,,,,,,,,,,,,,,,,,,,,,,,,,,,,,,,,,,None,,762.6066937599331,None,762.6066937599331,None,2022-03-09-15:16:39.652676,762.6078603998758,762.9233476000372,762.6078603998758,None,None,762.6078603998758,None,763.406931660045,None,,,,12013,0002,2022_Mar_09_1504,localizer,2021.1.3,58.29883987547219,
block_end,scenes,scenes038.bmp,,,,,0,197,197,197,,,,,,,,,,,,,,,,,,,,,,,,,,,,,,,,,,,,,,,,,,None,,763.406931660045,None,763.406931660045,None,2022-03-09-15:16:40.455908,763.4210057999007,763.7241831000429,763.4210057999007,763.4210057999007,None,763.4210057999007,763.4210057999007,764.2233530598693,None,,,,12013,0002,2022_Mar_09_1504,localizer,2021.1.3,58.29883987547219,
block_start,objects,objects027.bmp,,,,,0,198,198,198,,,,,,,,,,,,,,,,,,,,,,,,,,,,,,,,,,,,,,,,,,t,1.7989661998581141,764.2235256000422,None,764.2235256000422,None,2022-03-09-15:16:43.087662,766.0433664999437,766.357749799965,766.0433664999437,None,None,766.0433664999437,None,766.8571480600164,None,,,,12013,0002,2022_Mar_09_1504,localizer,2021.1.3,58.29883987547219,
block,objects,objects043.bmp,,,,,0,199,199,199,,,,,,,,,,,,,,,,,,,,,,,,,,,,,,,,,,,,,,,,,,None,,766.8571480600164,None,766.8571480600164,None,2022-03-09-15:16:43.904099,766.8582834999543,767.1739413999021,766.8582834999543,None,None,766.8582834999543,None,767.6735667599365,None,,,,12013,0002,2022_Mar_09_1504,localizer,2021.1.3,58.29883987547219,
block,objects,objects010.bmp,,,,,0,200,200,200,,,,,,,,,,,,,,,,,,,,,,,,,,,,,,,,,,,,,,,,,,None,,767.6735667599365,None,767.6735667599365,None,2022-03-09-15:16:44.720752,767.6744955000468,767.9899826999754,767.6744955000468,None,None,767.6744955000468,None,768.4905967599713,None,,,,12013,0002,2022_Mar_09_1504,localizer,2021.1.3,58.29883987547219,
block,objects,objects026.bmp,,,,,0,201,201,201,,,,,,,,,,,,,,,,,,,,,,,,,,,,,,,,,,,,,,,,,,None,,768.4905967599713,None,768.4905967599713,None,2022-03-09-15:16:45.537753,768.4913991000503,768.7910610998515,768.4913991000503,None,None,768.4913991000503,None,769.3071344598662,None,,,,12013,0002,2022_Mar_09_1504,localizer,2021.1.3,58.29883987547219,
block,objects,objects002.bmp,,,,,0,202,202,202,,,,,,,,,,,,,,,,,,,,,,,,,,,,,,,,,,,,,,,,,,None,,769.3071344598662,None,769.3071344598662,None,2022-03-09-15:16:46.354131,769.3080012998544,769.623683199985,769.3080012998544,None,None,769.3080012998544,None,770.1073128598742,None,,,,12013,0002,2022_Mar_09_1504,localizer,2021.1.3,58.29883987547219,
block,objects,objects041.bmp,,,,,0,203,203,203,,,,,,,,,,,,,,,,,,,,,,,,,,,,,,,,,,,,,,,,,,None,,770.1073128598742,None,770.1073128598742,None,2022-03-09-15:16:47.156284,770.1220837999135,770.423336799955,770.1220837999135,770.1220837999135,None,770.1220837999135,770.1220837999135,770.9242185600102,None,,,,12013,0002,2022_Mar_09_1504,localizer,2021.1.3,58.29883987547219,
block,objects,objects063.bmp,,,,,0,204,204,204,,,,,,,,,,,,,,,,,,,,,,,,,,,,,,,,,,,,,,,,,,None,,770.9242185600102,None,770.9242185600102,None,2022-03-09-15:16:47.972588,770.9270514999516,771.2402031000238,770.9270514999516,None,None,770.9270514999516,None,771.7399168600328,None,,,,12013,0002,2022_Mar_09_1504,localizer,2021.1.3,58.29883987547219,
block,objects,objects063.bmp,,,,,0,205,205,205,,,,,,,,,,,,,,,,,,,,,,,,,,,,,,,,,,,,,,,,,,None,,771.7399168600328,None,771.7399168600328,None,2022-03-09-15:16:48.786148,771.7410643000621,772.0435881998856,771.7410643000621,None,y,771.7410643000621,None,772.556198160071,None,0.6763687999919057,,,12013,0002,2022_Mar_09_1504,localizer,2021.1.3,58.29883987547219,
block,objects,objects051.bmp,,,,,0,206,206,206,,,,,,,,,,,,,,,,,,,,,,,,,,,,,,,,,,,,,,,,,,None,,772.556198160071,None,772.556198160071,None,2022-03-09-15:16:49.602419,772.5577960999217,772.8737244999502,772.5577960999217,None,None,772.5577960999217,None,773.3573862599675,None,,,,12013,0002,2022_Mar_09_1504,localizer,2021.1.3,58.29883987547219,
block,objects,objects047.bmp,,,,,0,207,207,207,,,,,,,,,,,,,,,,,,,,,,,,,,,,,,,,,,,,,,,,,,None,,773.3573862599675,None,773.3573862599675,None,2022-03-09-15:16:50.406412,773.3607359000016,773.6774957000744,773.3607359000016,773.3607359000016,None,773.3607359000016,773.3607359000016,774.1729081600439,None,,,,12013,0002,2022_Mar_09_1504,localizer,2021.1.3,58.29883987547219,
block,objects,objects028.bmp,,,,,0,208,208,208,,,,,,,,,,,,,,,,,,,,,,,,,,,,,,,,,,,,,,,,,,None,,774.1729081600439,None,774.1729081600439,None,2022-03-09-15:16:51.219215,774.1817878000438,774.4907259999309,774.1817878000438,None,None,774.1817878000438,None,774.9900333598722,None,,,,12013,0002,2022_Mar_09_1504,localizer,2021.1.3,58.29883987547219,
block,objects,objects040.bmp,,,,,0,209,209,209,,,,,,,,,,,,,,,,,,,,,,,,,,,,,,,,,,,,,,,,,,None,,774.9900333598722,None,774.9900333598722,None,2022-03-09-15:16:52.037219,774.9914373999927,775.3082508998923,774.9914373999927,None,None,774.9914373999927,None,775.8067031599581,None,,,,12013,0002,2022_Mar_09_1504,localizer,2021.1.3,58.29883987547219,
block,objects,objects019.bmp,,,,,0,210,210,210,,,,,,,,,,,,,,,,,,,,,,,,,,,,,,,,,,,,,,,,,,None,,775.8067031599581,None,775.8067031599581,None,2022-03-09-15:16:52.852898,775.8078419000376,776.1073360000737,775.8078419000376,None,None,775.8078419000376,None,776.6234218600672,None,,,,12013,0002,2022_Mar_09_1504,localizer,2021.1.3,58.29883987547219,
block,objects,objects024.bmp,,,,,0,211,211,211,,,,,,,,,,,,,,,,,,,,,,,,,,,,,,,,,,,,,,,,,,None,,776.6234218600672,None,776.6234218600672,None,2022-03-09-15:16:53.669412,776.6340932999738,776.9404341999907,776.6340932999738,None,None,776.6340932999738,None,777.4396426599939,None,,,,12013,0002,2022_Mar_09_1504,localizer,2021.1.3,58.29883987547219,
block_end,objects,objects006.bmp,,,,,0,212,212,212,,,,,,,,,,,,,,,,,,,,,,,,,,,,,,,,,,,,,,,,,,None,,777.4396426599939,None,777.4396426599939,None,2022-03-09-15:16:54.485633,777.4412110999692,777.7406864999793,777.4412110999692,None,None,777.4412110999692,None,778.2407029600814,None,,,,12013,0002,2022_Mar_09_1504,localizer,2021.1.3,58.29883987547219,
block_start,scrambled,scrambled027.bmp,,,,,0,213,213,213,,,,,,,,,,,,,,,,,,,,,,,,,,,,,,,,,,,,,,,,,,t,1.7801445999648422,778.241312299855,None,778.241312299855,None,2022-03-09-15:16:57.085180,780.0414394999389,780.3407686999999,780.0414394999389,None,None,780.0414394999389,None,780.8567875599489,None,,,,12013,0002,2022_Mar_09_1504,localizer,2021.1.3,58.29883987547219,
block,scrambled,scrambled006.bmp,,,,,0,214,214,214,,,,,,,,,,,,,,,,,,,,,,,,,,,,,,,,,,,,,,,,,,None,,780.8567875599489,None,780.8567875599489,None,2022-03-09-15:16:57.902437,780.8578339999076,781.1735253999941,780.8578339999076,None,None,780.8578339999076,None,781.6730838598684,None,,,,12013,0002,2022_Mar_09_1504,localizer,2021.1.3,58.29883987547219,
block,scrambled,scrambled021.bmp,,,,,0,215,215,215,,,,,,,,,,,,,,,,,,,,,,,,,,,,,,,,,,,,,,,,,,None,,781.6730838598684,None,781.6730838598684,None,2022-03-09-15:16:58.719073,781.6745543000288,781.9965069000609,781.6745543000288,None,None,781.6745543000288,None,782.4900977598969,None,,,,12013,0002,2022_Mar_09_1504,localizer,2021.1.3,58.29883987547219,
block,scrambled,scrambled033.bmp,,,,,0,216,216,216,,,,,,,,,,,,,,,,,,,,,,,,,,,,,,,,,,,,,,,,,,None,,782.4900977598969,None,782.4900977598969,None,2022-03-09-15:16:59.535691,782.4993725998793,782.8076855998952,782.4993725998793,None,None,782.4993725998793,None,783.3067060598638,None,,,,12013,0002,2022_Mar_09_1504,localizer,2021.1.3,58.29883987547219,
block,scrambled,scrambled024.bmp,,,,,0,217,217,217,,,,,,,,,,,,,,,,,,,,,,,,,,,,,,,,,,,,,,,,,,None,,783.3067060598638,None,783.3067060598638,None,2022-03-09-15:17:00.352507,783.3081197999418,783.6237127999775,783.3081197999418,None,None,783.3081197999418,None,784.1229426599108,None,,,,12013,0002,2022_Mar_09_1504,localizer,2021.1.3,58.29883987547219,
block,scrambled,scrambled083.bmp,,,,,0,218,218,218,,,,,,,,,,,,,,,,,,,,,,,,,,,,,,,,,,,,,,,,,,None,,784.1229426599108,None,784.1229426599108,None,2022-03-09-15:17:01.168935,784.1326327000279,784.440088900039,784.1326327000279,None,None,784.1326327000279,None,784.9403281599749,None,,,,12013,0002,2022_Mar_09_1504,localizer,2021.1.3,58.29883987547219,
block,scrambled,scrambled068.bmp,,,,,0,219,219,219,,,,,,,,,,,,,,,,,,,,,,,,,,,,,,,,,,,,,,,,,,None,,784.9403281599749,None,784.9403281599749,None,2022-03-09-15:17:01.987161,784.9413641998544,785.256968599977,784.9413641998544,None,None,784.9413641998544,None,785.7564534599893,None,,,,12013,0002,2022_Mar_09_1504,localizer,2021.1.3,58.29883987547219,
block,scrambled,scrambled019.bmp,,,,,0,220,220,220,,,,,,,,,,,,,,,,,,,,,,,,,,,,,,,,,,,,,,,,,,None,,785.7564534599893,None,785.7564534599893,None,2022-03-09-15:17:02.802442,785.7578187000472,786.0733455999289,785.7578187000472,None,None,785.7578187000472,None,786.5730052598752,None,,,,12013,0002,2022_Mar_09_1504,localizer,2021.1.3,58.29883987547219,
block,scrambled,scrambled018.bmp,,,,,0,221,221,221,,,,,,,,,,,,,,,,,,,,,,,,,,,,,,,,,,,,,,,,,,None,,786.5730052598752,None,786.5730052598752,None,2022-03-09-15:17:03.618818,786.5746808999684,786.87441639998,786.5746808999684,None,None,786.5746808999684,None,787.3903255599085,None,,,,12013,0002,2022_Mar_09_1504,localizer,2021.1.3,58.29883987547219,
block,scrambled,scrambled086.bmp,,,,,0,222,222,222,,,,,,,,,,,,,,,,,,,,,,,,,,,,,,,,,,,,,,,,,,None,,787.3903255599085,None,787.3903255599085,None,2022-03-09-15:17:04.436356,787.4016414000653,787.7069838999305,787.4016414000653,None,None,787.4016414000653,None,788.2067952599842,None,,,,12013,0002,2022_Mar_09_1504,localizer,2021.1.3,58.29883987547219,
block,scrambled,scrambled074.bmp,,,,,0,223,223,223,,,,,,,,,,,,,,,,,,,,,,,,,,,,,,,,,,,,,,,,,,None,,788.2067952599842,None,788.2067952599842,None,2022-03-09-15:17:05.252783,788.2178370999172,788.5233507999219,788.2178370999172,None,None,788.2178370999172,None,789.0232206600718,None,,,,12013,0002,2022_Mar_09_1504,localizer,2021.1.3,58.29883987547219,
block,scrambled,scrambled076.bmp,,,,,0,224,224,224,,,,,,,,,,,,,,,,,,,,,,,,,,,,,,,,,,,,,,,,,,None,,789.0232206600718,None,789.0232206600718,None,2022-03-09-15:17:06.068957,789.0252398999874,789.340334400069,789.0252398999874,None,None,789.0252398999874,None,789.8400502599776,None,,,,12013,0002,2022_Mar_09_1504,localizer,2021.1.3,58.29883987547219,
block,scrambled,scrambled029.bmp,,,,,0,225,225,225,,,,,,,,,,,,,,,,,,,,,,,,,,,,,,,,,,,,,,,,,,None,,789.8400502599776,None,789.8400502599776,None,2022-03-09-15:17:06.886059,789.841272899881,790.1446185999084,789.841272899881,None,None,789.841272899881,None,790.6566881599371,None,,,,12013,0002,2022_Mar_09_1504,localizer,2021.1.3,58.29883987547219,
block,scrambled,scrambled084.bmp,,,,,0,226,226,226,,,,,,,,,,,,,,,,,,,,,,,,,,,,,,,,,,,,,,,,,,None,,790.6566881599371,None,790.6566881599371,None,2022-03-09-15:17:07.702658,790.6579108999576,790.9737211999018,790.6579108999576,None,None,790.6579108999576,None,791.473304160079,None,,,,12013,0002,2022_Mar_09_1504,localizer,2021.1.3,58.29883987547219,
block_end,scrambled,scrambled011.bmp,,,,,0,227,227,227,,,,,,,,,,,,,,,,,,,,,,,,,,,,,,,,,,,,,,,,,,None,,791.473304160079,None,791.473304160079,None,2022-03-09-15:17:08.519294,791.4744636998512,791.7903183000162,791.4744636998512,None,None,791.4744636998512,None,792.2734643599484,None,,,,12013,0002,2022_Mar_09_1504,localizer,2021.1.3,58.29883987547219,
block_start,faces,faces073.bmp,,,,,0,228,228,228,,,,,,,,,,,,,,,,,,,,,,,,,,,,,,,,,,,,,,,,,,t,1.7477057999931276,792.2738071999047,None,792.2738071999047,None,2022-03-09-15:17:11.085221,794.0412059000228,794.3571039000526,794.0412059000228,None,None,794.0412059000228,None,794.8565422600601,None,,,,12013,0002,2022_Mar_09_1504,localizer,2021.1.3,58.29883987547219,
block,faces,faces020.bmp,,,,,0,229,229,229,,,,,,,,,,,,,,,,,,,,,,,,,,,,,,,,,,,,,,,,,,None,,794.8565422600601,None,794.8565422600601,None,2022-03-09-15:17:11.902559,794.8579202999827,795.1733862999827,794.8579202999827,None,None,794.8579202999827,None,795.6730628599413,None,,,,12013,0002,2022_Mar_09_1504,localizer,2021.1.3,58.29883987547219,
block,faces,faces018.bmp,,,,,0,230,230,230,,,,,,,,,,,,,,,,,,,,,,,,,,,,,,,,,,,,,,,,,,None,,795.6730628599413,None,795.6730628599413,None,2022-03-09-15:17:12.719051,795.674728400074,795.9968109000474,795.674728400074,None,None,795.674728400074,None,796.4740295600146,None,,,,12013,0002,2022_Mar_09_1504,localizer,2021.1.3,58.29883987547219,
block,faces,faces032.bmp,,,,,0,231,231,231,,,,,,,,,,,,,,,,,,,,,,,,,,,,,,,,,,,,,,,,,,None,,796.4740295600146,None,796.4740295600146,None,2022-03-09-15:17:13.523999,796.4784645000473,796.7903147998732,796.4784645000473,796.4784645000473,None,796.4784645000473,796.4784645000473,797.290092260018,None,,,,12013,0002,2022_Mar_09_1504,localizer,2021.1.3,58.29883987547219,
block,faces,faces001.bmp,,,,,0,232,232,232,,,,,,,,,,,,,,,,,,,,,,,,,,,,,,,,,,,,,,,,,,None,,797.290092260018,None,797.290092260018,None,2022-03-09-15:17:14.336081,797.2913269000128,797.606938400073,797.2913269000128,None,None,797.2913269000128,None,798.1068065598607,None,,,,12013,0002,2022_Mar_09_1504,localizer,2021.1.3,58.29883987547219,
block,faces,faces045.bmp,,,,,0,233,233,233,,,,,,,,,,,,,,,,,,,,,,,,,,,,,,,,,,,,,,,,,,None,,798.1068065598607,None,798.1068065598607,None,2022-03-09-15:17:15.152808,798.1172288998496,798.4238270998467,798.1172288998496,None,None,798.1172288998496,None,798.9233111600857,None,,,,12013,0002,2022_Mar_09_1504,localizer,2021.1.3,58.29883987547219,
block,faces,faces009.bmp,,,,,0,234,234,234,,,,,,,,,,,,,,,,,,,,,,,,,,,,,,,,,,,,,,,,,,None,,798.9233111600857,None,798.9233111600857,None,2022-03-09-15:17:15.969300,798.9330583999399,799.2408739998937,798.9330583999399,None,None,798.9330583999399,None,799.7414265600033,None,,,,12013,0002,2022_Mar_09_1504,localizer,2021.1.3,58.29883987547219,
block,faces,faces088.bmp,,,,,0,235,235,235,,,,,,,,,,,,,,,,,,,,,,,,,,,,,,,,,,,,,,,,,,None,,799.7414265600033,None,799.7414265600033,None,2022-03-09-15:17:16.788572,799.7440893000457,800.0573831000365,799.7440893000457,None,None,799.7440893000457,None,800.5570717599709,None,,,,12013,0002,2022_Mar_09_1504,localizer,2021.1.3,58.29883987547219,
block,faces,faces005.bmp,,,,,0,236,236,236,,,,,,,,,,,,,,,,,,,,,,,,,,,,,,,,,,,,,,,,,,None,,800.5570717599709,None,800.5570717599709,None,2022-03-09-15:17:17.603151,800.5693767999765,800.8739672999363,800.5693767999765,None,None,800.5693767999765,None,801.3736046600621,None,,,,12013,0002,2022_Mar_09_1504,localizer,2021.1.3,58.29883987547219,
block,faces,faces079.bmp,,,,,0,237,237,237,,,,,,,,,,,,,,,,,,,,,,,,,,,,,,,,,,,,,,,,,,None,,801.3736046600621,None,801.3736046600621,None,2022-03-09-15:17:18.419783,801.3850401998498,801.6905461000279,801.3850401998498,None,None,801.3850401998498,None,802.1903499599081,None,,,,12013,0002,2022_Mar_09_1504,localizer,2021.1.3,58.29883987547219,
block,faces,faces010.bmp,,,,,0,238,238,238,,,,,,,,,,,,,,,,,,,,,,,,,,,,,,,,,,,,,,,,,,None,,802.1903499599081,None,802.1903499599081,None,2022-03-09-15:17:19.236661,802.1912948000245,802.4905796998646,802.1912948000245,None,None,802.1912948000245,None,803.0063364600297,None,,,,12013,0002,2022_Mar_09_1504,localizer,2021.1.3,58.29883987547219,
block,faces,faces061.bmp,,,,,0,239,239,239,,,,,,,,,,,,,,,,,,,,,,,,,,,,,,,,,,,,,,,,,,None,,803.0063364600297,None,803.0063364600297,None,2022-03-09-15:17:20.052330,803.008691499941,803.3237538000103,803.008691499941,None,None,803.008691499941,None,803.8231028599199,None,,,,12013,0002,2022_Mar_09_1504,localizer,2021.1.3,58.29883987547219,
block,faces,faces051.bmp,,,,,0,240,240,240,,,,,,,,,,,,,,,,,,,,,,,,,,,,,,,,,,,,,,,,,,None,,803.8231028599199,None,803.8231028599199,None,2022-03-09-15:17:20.869104,803.8249490999151,804.1404538999777,803.8249490999151,None,None,803.8249490999151,None,804.6239754598588,None,,,,12013,0002,2022_Mar_09_1504,localizer,2021.1.3,58.29883987547219,
block,faces,faces060.bmp,,,,,0,241,241,241,,,,,,,,,,,,,,,,,,,,,,,,,,,,,,,,,,,,,,,,,,None,,804.6239754598588,None,804.6239754598588,None,2022-03-09-15:17:21.672957,804.6273966999725,804.9403029000387,804.6273966999725,804.6273966999725,None,804.6273966999725,804.6273966999725,805.4404145599343,None,,,,12013,0002,2022_Mar_09_1504,localizer,2021.1.3,58.29883987547219,
block_end,faces,faces025.bmp,,,,,0,242,242,242,,,,,,,,,,,,,,,,,,,,,,,,,,,,,,,,,,,,,,,,,,None,,805.4404145599343,None,805.4404145599343,None,2022-03-09-15:17:22.487584,805.4415855999105,805.7569621999282,805.4415855999105,None,None,805.4415855999105,None,806.2568138599396,None,,,,12013,0002,2022_Mar_09_1504,localizer,2021.1.3,58.29883987547219,
null_block,null_block,null_block.bmp,,,,,0,243,243,243,,,,,,,,,,,,,,,,,,,,,,,,,,,,,,,,,,,,,,,,,,t,1.7644020000007004,806.2570847999305,None,806.2570847999305,None,2022-03-09-15:17:25.086002,808.0400146598928,None,808.0400146598928,None,None,808.0400146598928,None,808.0427608999889,None,,,,12013,0002,2022_Mar_09_1504,localizer,2021.1.3,58.29883987547219,
,,,,,,,,,,,,,,,,,,,,,,,,,,,,,,,,,,,,,,,,,,,,,,,,,,,,,,,,,,,,,,,,,,,,,820.0576956998557,None,,,,,,,
