block_type,condition,img_name,Button.thisRepN,Button.thisTrialN,Button.thisN,Button.thisIndex,trials.thisRepN,trials.thisTrialN,trials.thisN,trials.thisIndex,Ready_experimenter_text.started,Ready_experimenter_text.stopped,Ready_experimenter_resp.keys,Ready_experimenter_resp.rt,Ready_experimenter_resp.started,Ready_experimenter_resp.stopped,Alignment_background.started,Alignment_background.stopped,Alignment_image.started,Alignment_image.stopped,Alignment_resp.keys,Alignment_resp.rt,Alignment_resp.started,Alignment_resp.stopped,Button_text.started,Button_text.stopped,Index_text.started,Index_text.stopped,Index_resp.keys,Index_resp.rt,Index_resp.started,Index_resp.stopped,Middle_text.started,Middle_text.stopped,Middle_resp.keys,Middle_resp.rt,Middle_resp.started,Middle_resp.stopped,Repeat_text.started,Repeat_text.stopped,Repeat_resp.keys,Repeat_resp.corr,Repeat_resp.rt,Repeat_resp.started,Repeat_resp.stopped,instruction_text.started,instruction_text.stopped,key_resp.keys,key_resp.rt,key_resp.started,key_resp.stopped,scanner_t.keys,scanner_t.rt,scanner_t.started,scanner_t.stopped,fixation_wait_for_t.started,fixation_wait_for_t.stopped,real_timestamp_trial_start,image.started,image.stopped,fixation.started,fixation.stopped,repeat_response.keys,repeat_response.started,repeat_response.stopped,fixation_null.started,fixation_null.stopped,repeat_response.rt,end_text.started,end_text.stopped,participant,run,date,expName,psychopyVersion,frameRate,
,,,,,,,,,,,9.668385099997977,None,return,50.89200890000211,9.668385099997977,None,,,,,,,,,,,,,,,,,,,,,,,,,,,,,,,,,,,,,,,,,,,,,,,,,,,,,,,21013,0001,2022_Oct_04_1315,localizer,2021.1.3,59.982353189994434,
,,,,,,,,,,,,,,,,,60.60989469999913,None,60.60989469999913,None,return,4.581084899997222,60.60989469999913,None,,,,,,,,,,,,,,,,,,,,,,,,,,,,,,,,,,,,,,,,,,,,,,,21013,0001,2022_Oct_04_1315,localizer,2021.1.3,59.982353189994434,
,,,0,0,0,0,,,,,,,,,,,,,,,,,,,65.22802270000102,None,66.23995780000405,None,y,2.5853249999927357,66.23995780000405,None,68.85149610000371,None,b,1.1689596999931382,68.85149610000371,None,70.05765030000475,None,n,0,1.541162000008626,70.05765030000475,None,,,,,,,,,,,,,,,,,,,,,,,,,,21013,0001,2022_Oct_04_1315,localizer,2021.1.3,59.982353189994434,
,,,,,,,,,,,,,,,,,,,,,,,,,,,,,,,,,,,,,,,,,,,,,,71.6254415000003,None,y,35.415957499993965,71.6254415000003,None,,,,,,,,,,,,,,,,,,,,21013,0001,2022_Oct_04_1315,localizer,2021.1.3,59.982353189994434,
null_block,null_block,null_block.bmp,,,,,0,0,0,0,,,,,,,,,,,,,,,,,,,,,,,,,,,,,,,,,,,,,,,,,,t,19.190432899995358,107.13587209999969,None,107.13587209999969,None,2022-10-04-13:17:40.416184,126.36958110000415,None,126.36958110000415,None,None,126.36958110000415,None,126.36950250000518,None,,,,21013,0001,2022_Oct_04_1315,localizer,2021.1.3,59.982353189994434,
block_start,scenes,scenes076.bmp,,,,,0,1,1,1,,,,,,,,,,,,,,,,,,,,,,,,,,,,,,,,,,,,,,,,,,t,1.9562948999955552,138.37013310000475,None,138.37013310000475,None,2022-10-04-13:17:54.415046,140.3640635000047,140.66843760000484,140.3640635000047,None,None,140.3640635000047,None,141.1697924000022,None,,,,21013,0001,2022_Oct_04_1315,localizer,2021.1.3,59.982353189994434,
block,scenes,scenes005.bmp,,,,,0,2,2,2,,,,,,,,,,,,,,,,,,,,,,,,,,,,,,,,,,,,,,,,,,None,,141.1697924000022,None,141.1697924000022,None,2022-10-04-13:17:55.236919,141.18735160000506,141.50232200000028,141.18735160000506,None,None,141.18735160000506,None,141.98621590000258,None,,,,21013,0001,2022_Oct_04_1315,localizer,2021.1.3,59.982353189994434,
block,scenes,scenes057.bmp,,,,,0,3,3,3,,,,,,,,,,,,,,,,,,,,,,,,,,,,,,,,,,,,,,,,,,None,,141.98621590000258,None,141.98621590000258,None,2022-10-04-13:17:56.050185,141.99991880000744,142.30317400000058,141.99991880000744,None,None,141.99991880000744,None,142.80302410000732,None,,,,21013,0001,2022_Oct_04_1315,localizer,2021.1.3,59.982353189994434,
block,scenes,scenes066.bmp,,,,,0,4,4,4,,,,,,,,,,,,,,,,,,,,,,,,,,,,,,,,,,,,,,,,,,None,,142.80302410000732,None,142.80302410000732,None,2022-10-04-13:17:56.866361,142.81921800000418,143.1194334000029,142.81921800000418,None,None,142.81921800000418,None,143.61959450000577,None,,,,21013,0001,2022_Oct_04_1315,localizer,2021.1.3,59.982353189994434,
block,scenes,scenes033.bmp,,,,,0,5,5,5,,,,,,,,,,,,,,,,,,,,,,,,,,,,,,,,,,,,,,,,,,None,,143.61959450000577,None,143.61959450000577,None,2022-10-04-13:17:57.683923,143.63376430000062,143.93510440000682,143.63376430000062,None,None,143.63376430000062,None,144.43960870000447,None,,,,21013,0001,2022_Oct_04_1315,localizer,2021.1.3,59.982353189994434,
block,scenes,scenes017.bmp,,,,,0,6,6,6,,,,,,,,,,,,,,,,,,,,,,,,,,,,,,,,,,,,,,,,,,None,,144.43960870000447,None,144.43960870000447,None,2022-10-04-13:17:58.504749,144.45294220000505,144.75195360000362,144.45294220000505,None,None,144.45294220000505,None,145.25362670000905,None,,,,21013,0001,2022_Oct_04_1315,localizer,2021.1.3,59.982353189994434,
block,scenes,scenes070.bmp,,,,,0,7,7,7,,,,,,,,,,,,,,,,,,,,,,,,,,,,,,,,,,,,,,,,,,None,,145.25362670000905,None,145.25362670000905,None,2022-10-04-13:17:59.318843,145.2740599000099,145.58460940000077,145.2740599000099,None,None,145.2740599000099,None,146.06811540000345,None,,,,21013,0001,2022_Oct_04_1315,localizer,2021.1.3,59.982353189994434,
block,scenes,scenes045.bmp,,,,,0,8,8,8,,,,,,,,,,,,,,,,,,,,,,,,,,,,,,,,,,,,,,,,,,None,,146.06811540000345,None,146.06811540000345,None,2022-10-04-13:18:00.130277,146.07727220001107,146.38469869999972,146.07727220001107,None,None,146.07727220001107,None,146.88707480000303,None,,,,21013,0001,2022_Oct_04_1315,localizer,2021.1.3,59.982353189994434,
block,scenes,scenes018.bmp,,,,,0,9,9,9,,,,,,,,,,,,,,,,,,,,,,,,,,,,,,,,,,,,,,,,,,None,,146.88707480000303,None,146.88707480000303,None,2022-10-04-13:18:00.954181,146.90359149999858,147.21866040000168,146.90359149999858,None,None,146.90359149999858,None,147.70232270000125,None,,,,21013,0001,2022_Oct_04_1315,localizer,2021.1.3,59.982353189994434,
block,scenes,scenes073.bmp,,,,,0,10,10,10,,,,,,,,,,,,,,,,,,,,,,,,,,,,,,,,,,,,,,,,,,None,,147.70232270000125,None,147.70232270000125,None,2022-10-04-13:18:01.765666,147.71430600000895,148.0180653999996,147.71430600000895,None,None,147.71430600000895,None,148.51969240000327,None,,,,21013,0001,2022_Oct_04_1315,localizer,2021.1.3,59.982353189994434,
block,scenes,scenes088.bmp,,,,,0,11,11,11,,,,,,,,,,,,,,,,,,,,,,,,,,,,,,,,,,,,,,,,,,None,,148.51969240000327,None,148.51969240000327,None,2022-10-04-13:18:02.582970,148.53288660000544,148.83691610000096,148.53288660000544,None,None,148.53288660000544,None,149.33530440000905,None,,,,21013,0001,2022_Oct_04_1315,localizer,2021.1.3,59.982353189994434,
block,scenes,scenes004.bmp,,,,,0,12,12,12,,,,,,,,,,,,,,,,,,,,,,,,,,,,,,,,,,,,,,,,,,None,,149.33530440000905,None,149.33530440000905,None,2022-10-04-13:18:03.397666,149.35212090000277,149.65791439999884,149.35212090000277,None,None,149.35212090000277,None,150.1514968000105,None,,,,21013,0001,2022_Oct_04_1315,localizer,2021.1.3,59.982353189994434,
block,scenes,scenes009.bmp,,,,,0,13,13,13,,,,,,,,,,,,,,,,,,,,,,,,,,,,,,,,,,,,,,,,,,None,,150.1514968000105,None,150.1514968000105,None,2022-10-04-13:18:04.213920,150.156478600009,150.4698361000046,150.156478600009,None,None,150.156478600009,None,150.96914670000697,None,,,,21013,0001,2022_Oct_04_1315,localizer,2021.1.3,59.982353189994434,
block,scenes,scenes049.bmp,,,,,0,14,14,14,,,,,,,,,,,,,,,,,,,,,,,,,,,,,,,,,,,,,,,,,,None,,150.96914670000697,None,150.96914670000697,None,2022-10-04-13:18:05.032292,150.98077760000888,151.2873605000059,150.98077760000888,None,None,150.98077760000888,None,151.78511120000476,None,,,,21013,0001,2022_Oct_04_1315,localizer,2021.1.3,59.982353189994434,
block_end,scenes,scenes020.bmp,,,,,0,15,15,15,,,,,,,,,,,,,,,,,,,,,,,,,,,,,,,,,,,,,,,,,,None,,151.78511120000476,None,151.78511120000476,None,2022-10-04-13:18:05.847275,151.795243200002,152.10188830000698,151.795243200002,None,None,151.795243200002,None,152.6023626000082,None,,,,21013,0001,2022_Oct_04_1315,localizer,2021.1.3,59.982353189994434,
block_start,scrambled,scrambled070.bmp,,,,,0,16,16,16,,,,,,,,,,,,,,,,,,,,,,,,,,,,,,,,,,,,,,,,,,t,1.7241914000042016,152.6023833000072,None,152.6023833000072,None,2022-10-04-13:18:08.412773,154.36136120000447,154.66863960000046,154.36136120000447,None,None,154.36136120000447,None,155.15778290000017,None,,,,21013,0001,2022_Oct_04_1315,localizer,2021.1.3,59.982353189994434,
block,scrambled,scrambled082.bmp,,,,,0,17,17,17,,,,,,,,,,,,,,,,,,,,,,,,,,,,,,,,,,,,,,,,,,None,,155.15778290000017,None,155.15778290000017,None,2022-10-04-13:18:09.223859,155.1678435000067,155.46852780001063,155.1678435000067,None,None,155.1678435000067,None,155.968754800006,None,,,,21013,0001,2022_Oct_04_1315,localizer,2021.1.3,59.982353189994434,
block,scrambled,scrambled063.bmp,,,,,0,18,18,18,,,,,,,,,,,,,,,,,,,,,,,,,,,,,,,,,,,,,,,,,,None,,155.968754800006,None,155.968754800006,None,2022-10-04-13:18:10.031916,155.97983110000496,156.28531479999947,155.97983110000496,None,None,155.97983110000496,None,156.78525050000317,None,,,,21013,0001,2022_Oct_04_1315,localizer,2021.1.3,59.982353189994434,
block,scrambled,scrambled023.bmp,,,,,0,19,19,19,,,,,,,,,,,,,,,,,,,,,,,,,,,,,,,,,,,,,,,,,,None,,156.78525050000317,None,156.78525050000317,None,2022-10-04-13:18:10.847409,156.79650350000884,157.10212750000937,156.79650350000884,None,None,156.79650350000884,None,157.6023171999972,None,,,,21013,0001,2022_Oct_04_1315,localizer,2021.1.3,59.982353189994434,
block,scrambled,scrambled001.bmp,,,,,0,20,20,20,,,,,,,,,,,,,,,,,,,,,,,,,,,,,,,,,,,,,,,,,,None,,157.6023171999972,None,157.6023171999972,None,2022-10-04-13:18:11.665468,157.61350420000963,157.91872010000225,157.61350420000963,None,None,157.61350420000963,None,158.41828310000565,None,,,,21013,0001,2022_Oct_04_1315,localizer,2021.1.3,59.982353189994434,
block,scrambled,scrambled061.bmp,,,,,0,21,21,21,,,,,,,,,,,,,,,,,,,,,,,,,,,,,,,,,,,,,,,,,,None,,158.41828310000565,None,158.41828310000565,None,2022-10-04-13:18:12.480447,158.427571799999,158.73631630001182,158.427571799999,None,None,158.427571799999,None,159.2364301000038,None,,,,21013,0001,2022_Oct_04_1315,localizer,2021.1.3,59.982353189994434,
block,scrambled,scrambled022.bmp,,,,,0,22,22,22,,,,,,,,,,,,,,,,,,,,,,,,,,,,,,,,,,,,,,,,,,None,,159.2364301000038,None,159.2364301000038,None,2022-10-04-13:18:13.300678,159.25029480000376,159.55124700001033,159.25029480000376,None,None,159.25029480000376,None,160.05208630001144,None,,,,21013,0001,2022_Oct_04_1315,localizer,2021.1.3,59.982353189994434,
block,scrambled,scrambled040.bmp,,,,,0,23,23,23,,,,,,,,,,,,,,,,,,,,,,,,,,,,,,,,,,,,,,,,,,None,,160.05208630001144,None,160.05208630001144,None,2022-10-04-13:18:14.114244,160.0630885999999,160.36872740001127,160.0630885999999,None,None,160.0630885999999,None,160.86884560000763,None,,,,21013,0001,2022_Oct_04_1315,localizer,2021.1.3,59.982353189994434,
block,scrambled,scrambled031.bmp,,,,,0,24,24,24,,,,,,,,,,,,,,,,,,,,,,,,,,,,,,,,,,,,,,,,,,None,,160.86884560000763,None,160.86884560000763,None,2022-10-04-13:18:14.931000,160.88047960000404,161.1854008000082,160.88047960000404,None,None,160.88047960000404,None,161.68549770000246,None,,,,21013,0001,2022_Oct_04_1315,localizer,2021.1.3,59.982353189994434,
block,scrambled,scrambled024.bmp,,,,,0,25,25,25,,,,,,,,,,,,,,,,,,,,,,,,,,,,,,,,,,,,,,,,,,None,,161.68549770000246,None,161.68549770000246,None,2022-10-04-13:18:15.747656,161.69543140000314,162.0024068000057,161.69543140000314,None,None,161.69543140000314,None,162.50178600000655,None,,,,21013,0001,2022_Oct_04_1315,localizer,2021.1.3,59.982353189994434,
block,scrambled,scrambled051.bmp,,,,,0,26,26,26,,,,,,,,,,,,,,,,,,,,,,,,,,,,,,,,,,,,,,,,,,None,,162.50178600000655,None,162.50178600000655,None,2022-10-04-13:18:16.563948,162.511138700007,162.81840280001052,162.511138700007,None,None,162.511138700007,None,163.31836600000534,None,,,,21013,0001,2022_Oct_04_1315,localizer,2021.1.3,59.982353189994434,
block,scrambled,scrambled007.bmp,,,,,0,27,27,27,,,,,,,,,,,,,,,,,,,,,,,,,,,,,,,,,,,,,,,,,,None,,163.31836600000534,None,163.31836600000534,None,2022-10-04-13:18:17.380548,163.32672250000178,163.6357743999979,163.32672250000178,None,None,163.32672250000178,None,164.13500700000296,None,,,,21013,0001,2022_Oct_04_1315,localizer,2021.1.3,59.982353189994434,
block,scrambled,scrambled055.bmp,,,,,0,28,28,28,,,,,,,,,,,,,,,,,,,,,,,,,,,,,,,,,,,,,,,,,,None,,164.13500700000296,None,164.13500700000296,None,2022-10-04-13:18:18.197171,164.14453890000004,164.4514077000058,164.14453890000004,None,None,164.14453890000004,None,164.9524888,None,,,,21013,0001,2022_Oct_04_1315,localizer,2021.1.3,59.982353189994434,
block,scrambled,scrambled088.bmp,,,,,0,29,29,29,,,,,,,,,,,,,,,,,,,,,,,,,,,,,,,,,,,,,,,,,,None,,164.9524888,None,164.9524888,None,2022-10-04-13:18:19.015636,164.9640677999996,165.27457490000234,164.9640677999996,None,None,164.9640677999996,None,165.76988170000405,None,,,,21013,0001,2022_Oct_04_1315,localizer,2021.1.3,59.982353189994434,
block_end,scrambled,scrambled012.bmp,,,,,0,30,30,30,,,,,,,,,,,,,,,,,,,,,,,,,,,,,,,,,,,,,,,,,,None,,165.76988170000405,None,165.76988170000405,None,2022-10-04-13:18:19.834093,165.7839066000015,166.0849817999988,165.7839066000015,None,None,165.7839066000015,None,166.58538100001024,None,,,,21013,0001,2022_Oct_04_1315,localizer,2021.1.3,59.982353189994434,
block_start,objects,objects047.bmp,,,,,0,31,31,31,,,,,,,,,,,,,,,,,,,,,,,,,,,,,,,,,,,,,,,,,,t,1.7409500000067055,166.58533790000365,None,166.58533790000365,None,2022-10-04-13:18:22.417438,168.36719710000034,168.66858579999825,168.36719710000034,None,None,168.36719710000034,None,169.16865410000756,None,,,,21013,0001,2022_Oct_04_1315,localizer,2021.1.3,59.982353189994434,
block,objects,objects030.bmp,,,,,0,32,32,32,,,,,,,,,,,,,,,,,,,,,,,,,,,,,,,,,,,,,,,,,,None,,169.16865410000756,None,169.16865410000756,None,2022-10-04-13:18:23.231036,169.1796461000049,169.48530060000485,169.1796461000049,None,None,169.1796461000049,None,169.98507649999956,None,,,,21013,0001,2022_Oct_04_1315,localizer,2021.1.3,59.982353189994434,
block,objects,objects072.bmp,,,,,0,33,33,33,,,,,,,,,,,,,,,,,,,,,,,,,,,,,,,,,,,,,,,,,,None,,169.98507649999956,None,169.98507649999956,None,2022-10-04-13:18:24.047430,169.99470999999903,170.30192270000407,169.99470999999903,None,None,169.99470999999903,None,170.80316380000878,None,,,,21013,0001,2022_Oct_04_1315,localizer,2021.1.3,59.982353189994434,
block,objects,objects012.bmp,,,,,0,34,34,34,,,,,,,,,,,,,,,,,,,,,,,,,,,,,,,,,,,,,,,,,,None,,170.80316380000878,None,170.80316380000878,None,2022-10-04-13:18:24.868212,170.81789890000073,171.11864720001176,170.81789890000073,None,None,170.81789890000073,None,171.61873800000322,None,,,,21013,0001,2022_Oct_04_1315,localizer,2021.1.3,59.982353189994434,
block,objects,objects023.bmp,,,,,0,35,35,35,,,,,,,,,,,,,,,,,,,,,,,,,,,,,,,,,,,,,,,,,,None,,171.61873800000322,None,171.61873800000322,None,2022-10-04-13:18:25.681895,171.62988480000058,171.9355926999997,171.62988480000058,None,None,171.62988480000058,None,172.43537580000557,None,,,,21013,0001,2022_Oct_04_1315,localizer,2021.1.3,59.982353189994434,
block,objects,objects033.bmp,,,,,0,36,36,36,,,,,,,,,,,,,,,,,,,,,,,,,,,,,,,,,,,,,,,,,,None,,172.43537580000557,None,172.43537580000557,None,2022-10-04-13:18:26.497410,172.43897110001126,172.75192490000336,172.43897110001126,None,None,172.43897110001126,None,173.25213849999855,None,,,,21013,0001,2022_Oct_04_1315,localizer,2021.1.3,59.982353189994434,
block,objects,objects052.bmp,,,,,0,37,37,37,,,,,,,,,,,,,,,,,,,,,,,,,,,,,,,,,,,,,,,,,,None,,173.25213849999855,None,173.25213849999855,None,2022-10-04-13:18:27.314982,173.26286750000145,173.5685855000047,173.26286750000145,None,None,173.26286750000145,None,174.0579877000113,None,,,,21013,0001,2022_Oct_04_1315,localizer,2021.1.3,59.982353189994434,
block,objects,objects008.bmp,,,,,0,38,38,38,,,,,,,,,,,,,,,,,,,,,,,,,,,,,,,,,,,,,,,,,,None,,174.0579877000113,None,174.0579877000113,None,2022-10-04-13:18:28.129054,174.07906420000654,174.38481190000311,174.07906420000654,None,None,174.07906420000654,None,174.8683914999987,None,,,,21013,0001,2022_Oct_04_1315,localizer,2021.1.3,59.982353189994434,
block,objects,objects065.bmp,,,,,0,39,39,39,,,,,,,,,,,,,,,,,,,,,,,,,,,,,,,,,,,,,,,,,,None,,174.8683914999987,None,174.8683914999987,None,2022-10-04-13:18:28.930549,174.87796399999934,175.18534890000592,174.87796399999934,None,None,174.87796399999934,None,175.6866043000031,None,,,,21013,0001,2022_Oct_04_1315,localizer,2021.1.3,59.982353189994434,
block,objects,objects086.bmp,,,,,0,40,40,40,,,,,,,,,,,,,,,,,,,,,,,,,,,,,,,,,,,,,,,,,,None,,175.6866043000031,None,175.6866043000031,None,2022-10-04-13:18:29.750910,175.69556560000638,176.0018878000119,175.69556560000638,None,None,175.69556560000638,None,176.50186539999996,None,,,,21013,0001,2022_Oct_04_1315,localizer,2021.1.3,59.982353189994434,
block,objects,objects032.bmp,,,,,0,41,41,41,,,,,,,,,,,,,,,,,,,,,,,,,,,,,,,,,,,,,,,,,,None,,176.50186539999996,None,176.50186539999996,None,2022-10-04-13:18:30.564022,176.51168080000207,176.81908159999875,176.51168080000207,None,None,176.51168080000207,None,177.3184155000039,None,,,,21013,0001,2022_Oct_04_1315,localizer,2021.1.3,59.982353189994434,
block,objects,objects036.bmp,,,,,0,42,42,42,,,,,,,,,,,,,,,,,,,,,,,,,,,,,,,,,,,,,,,,,,None,,177.3184155000039,None,177.3184155000039,None,2022-10-04-13:18:31.380580,177.326805100005,177.63501940001152,177.326805100005,None,None,177.326805100005,None,178.13532700000943,None,,,,21013,0001,2022_Oct_04_1315,localizer,2021.1.3,59.982353189994434,
block,objects,objects080.bmp,,,,,0,43,43,43,,,,,,,,,,,,,,,,,,,,,,,,,,,,,,,,,,,,,,,,,,None,,178.13532700000943,None,178.13532700000943,None,2022-10-04-13:18:32.197729,178.1454703000054,178.4519435000111,178.1454703000054,None,None,178.1454703000054,None,178.95219020001096,None,,,,21013,0001,2022_Oct_04_1315,localizer,2021.1.3,59.982353189994434,
block,objects,objects056.bmp,,,,,0,44,44,44,,,,,,,,,,,,,,,,,,,,,,,,,,,,,,,,,,,,,,,,,,None,,178.95219020001096,None,178.95219020001096,None,2022-10-04-13:18:33.014709,178.96199100000376,179.2682988000015,178.96199100000376,None,None,178.96199100000376,None,179.76877140000434,None,,,,21013,0001,2022_Oct_04_1315,localizer,2021.1.3,59.982353189994434,
block_end,objects,objects010.bmp,,,,,0,45,45,45,,,,,,,,,,,,,,,,,,,,,,,,,,,,,,,,,,,,,,,,,,None,,179.76877140000434,None,179.76877140000434,None,2022-10-04-13:18:33.830926,179.77798170001188,180.08495430000767,179.77798170001188,None,None,179.77798170001188,None,180.58508820000716,None,,,,21013,0001,2022_Oct_04_1315,localizer,2021.1.3,59.982353189994434,
block_start,faces,faces028.bmp,,,,,0,46,46,46,,,,,,,,,,,,,,,,,,,,,,,,,,,,,,,,,,,,,,,,,,t,1.7414777999947546,180.58507340001233,None,180.58507340001233,None,2022-10-04-13:18:36.412947,182.36150140000973,182.66886130000057,182.36150140000973,None,None,182.36150140000973,None,183.16887610000995,None,,,,21013,0001,2022_Oct_04_1315,localizer,2021.1.3,59.982353189994434,
block,faces,faces048.bmp,,,,,0,47,47,47,,,,,,,,,,,,,,,,,,,,,,,,,,,,,,,,,,,,,,,,,,None,,183.16887610000995,None,183.16887610000995,None,2022-10-04-13:18:37.231223,183.18174080000608,183.4852791000012,183.18174080000608,None,None,183.18174080000608,None,183.98596450000915,None,,,,21013,0001,2022_Oct_04_1315,localizer,2021.1.3,59.982353189994434,
block,faces,faces015.bmp,,,,,0,48,48,48,,,,,,,,,,,,,,,,,,,,,,,,,,,,,,,,,,,,,,,,,,None,,183.98596450000915,None,183.98596450000915,None,2022-10-04-13:18:38.049096,184.00363960000686,184.31838840000273,184.00363960000686,None,None,184.00363960000686,None,184.80264790000948,None,,,,21013,0001,2022_Oct_04_1315,localizer,2021.1.3,59.982353189994434,
block,faces,faces071.bmp,,,,,0,49,49,49,,,,,,,,,,,,,,,,,,,,,,,,,,,,,,,,,,,,,,,,,,None,,184.80264790000948,None,184.80264790000948,None,2022-10-04-13:18:38.866961,184.8150183000107,185.1226902000053,184.8150183000107,None,None,184.8150183000107,None,185.61934760000295,None,,,,21013,0001,2022_Oct_04_1315,localizer,2021.1.3,59.982353189994434,
block,faces,faces025.bmp,,,,,0,50,50,50,,,,,,,,,,,,,,,,,,,,,,,,,,,,,,,,,,,,,,,,,,None,,185.61934760000295,None,185.61934760000295,None,2022-10-04-13:18:39.682716,185.63125750000472,185.93510580000293,185.63125750000472,None,None,185.63125750000472,None,186.43537479999796,None,,,,21013,0001,2022_Oct_04_1315,localizer,2021.1.3,59.982353189994434,
block,faces,faces036.bmp,,,,,0,51,51,51,,,,,,,,,,,,,,,,,,,,,,,,,,,,,,,,,,,,,,,,,,None,,186.43537479999796,None,186.43537479999796,None,2022-10-04-13:18:40.497533,186.4453274000116,186.75193420000141,186.4453274000116,None,None,186.4453274000116,None,187.25206550001022,None,,,,21013,0001,2022_Oct_04_1315,localizer,2021.1.3,59.982353189994434,
block,faces,faces029.bmp,,,,,0,52,52,52,,,,,,,,,,,,,,,,,,,,,,,,,,,,,,,,,,,,,,,,,,None,,187.25206550001022,None,187.25206550001022,None,2022-10-04-13:18:41.314261,187.2630807000096,187.56875980000768,187.2630807000096,None,None,187.2630807000096,None,188.06888620000828,None,,,,21013,0001,2022_Oct_04_1315,localizer,2021.1.3,59.982353189994434,
block,faces,faces059.bmp,,,,,0,53,53,53,,,,,,,,,,,,,,,,,,,,,,,,,,,,,,,,,,,,,,,,,,None,,188.06888620000828,None,188.06888620000828,None,2022-10-04-13:18:42.131287,188.0798242000019,188.38545750000048,188.0798242000019,None,None,188.0798242000019,None,188.87481560000597,None,,,,21013,0001,2022_Oct_04_1315,localizer,2021.1.3,59.982353189994434,
block,faces,faces057.bmp,,,,,0,54,54,54,,,,,,,,,,,,,,,,,,,,,,,,,,,,,,,,,,,,,,,,,,None,,188.87481560000597,None,188.87481560000597,None,2022-10-04-13:18:42.944950,188.89546410000185,189.20198320000782,188.89546410000185,None,None,188.89546410000185,None,189.6855233000082,None,,,,21013,0001,2022_Oct_04_1315,localizer,2021.1.3,59.982353189994434,
block,faces,faces067.bmp,,,,,0,55,55,55,,,,,,,,,,,,,,,,,,,,,,,,,,,,,,,,,,,,,,,,,,None,,189.6855233000082,None,189.6855233000082,None,2022-10-04-13:18:43.747999,189.6967408000055,190.00211760000093,189.6967408000055,None,None,189.6967408000055,None,190.50200839999744,None,,,,21013,0001,2022_Oct_04_1315,localizer,2021.1.3,59.982353189994434,
block,faces,faces072.bmp,,,,,0,56,56,56,,,,,,,,,,,,,,,,,,,,,,,,,,,,,,,,,,,,,,,,,,None,,190.50200839999744,None,190.50200839999744,None,2022-10-04-13:18:44.564405,190.51348620001227,190.81856840000546,190.51348620001227,None,None,190.51348620001227,None,191.31905080001016,None,,,,21013,0001,2022_Oct_04_1315,localizer,2021.1.3,59.982353189994434,
block,faces,faces053.bmp,,,,,0,57,57,57,,,,,,,,,,,,,,,,,,,,,,,,,,,,,,,,,,,,,,,,,,None,,191.31905080001016,None,191.31905080001016,None,2022-10-04-13:18:45.381379,191.32987620000495,191.6351910000085,191.32987620000495,None,None,191.32987620000495,None,192.13539280000114,None,,,,21013,0001,2022_Oct_04_1315,localizer,2021.1.3,59.982353189994434,
block,faces,faces020.bmp,,,,,0,58,58,58,,,,,,,,,,,,,,,,,,,,,,,,,,,,,,,,,,,,,,,,,,None,,192.13539280000114,None,192.13539280000114,None,2022-10-04-13:18:46.197557,192.14527930000622,192.45215120000648,192.14527930000622,None,None,192.14527930000622,None,192.95225339999743,None,,,,21013,0001,2022_Oct_04_1315,localizer,2021.1.3,59.982353189994434,
block,faces,faces024.bmp,,,,,0,59,59,59,,,,,,,,,,,,,,,,,,,,,,,,,,,,,,,,,,,,,,,,,,None,,192.95225339999743,None,192.95225339999743,None,2022-10-04-13:18:47.014409,192.96423480000522,193.26894400001038,192.96423480000522,None,None,192.96423480000522,None,193.76934530000872,None,,,,21013,0001,2022_Oct_04_1315,localizer,2021.1.3,59.982353189994434,
block_end,faces,faces024.bmp,,,,,0,60,60,60,,,,,,,,,,,,,,,,,,,,,,,,,,,,,,,,,,,,,,,,,,None,,193.76934530000872,None,193.76934530000872,None,2022-10-04-13:18:47.832690,193.7713303000055,194.0848934000096,193.7713303000055,None,y,193.7713303000055,None,194.58526010000642,None,0.687795100006042,,,21013,0001,2022_Oct_04_1315,localizer,2021.1.3,59.982353189994434,
block_start,scenes,scenes084.bmp,,,,,0,61,61,61,,,,,,,,,,,,,,,,,,,,,,,,,,,,,,,,,,,,,,,,,,t,1.741092900003423,194.5851771000016,None,194.5851771000016,None,2022-10-04-13:18:50.414864,196.36350289999973,196.6687399000075,196.36350289999973,None,None,196.36350289999973,None,197.16876880000783,None,,,,21013,0001,2022_Oct_04_1315,localizer,2021.1.3,59.982353189994434,
block,scenes,scenes045.bmp,,,,,0,62,62,62,,,,,,,,,,,,,,,,,,,,,,,,,,,,,,,,,,,,,,,,,,None,,197.16876880000783,None,197.16876880000783,None,2022-10-04-13:18:51.230931,197.16965979999804,197.46859680001216,197.16965979999804,None,None,197.16965979999804,None,197.96997109999793,None,,,,21013,0001,2022_Oct_04_1315,localizer,2021.1.3,59.982353189994434,
block,scenes,scenes046.bmp,,,,,0,63,63,63,,,,,,,,,,,,,,,,,,,,,,,,,,,,,,,,,,,,,,,,,,None,,197.96997109999793,None,197.96997109999793,None,2022-10-04-13:18:52.038101,197.98756780000986,198.30193880001025,197.98756780000986,197.98756780000986,None,197.98756780000986,197.98756780000986,198.78573590000306,None,,,,21013,0001,2022_Oct_04_1315,localizer,2021.1.3,59.982353189994434,
block,scenes,scenes009.bmp,,,,,0,64,64,64,,,,,,,,,,,,,,,,,,,,,,,,,,,,,,,,,,,,,,,,,,None,,198.78573590000306,None,198.78573590000306,None,2022-10-04-13:18:52.848420,198.7863503000117,199.08579180001107,198.7863503000117,None,None,198.7863503000117,None,199.58609819999984,None,,,,21013,0001,2022_Oct_04_1315,localizer,2021.1.3,59.982353189994434,
block,scenes,scenes062.bmp,,,,,0,65,65,65,,,,,,,,,,,,,,,,,,,,,,,,,,,,,,,,,,,,,,,,,,None,,199.58609819999984,None,199.58609819999984,None,2022-10-04-13:18:53.650326,199.59941999999864,199.90188460001082,199.59941999999864,199.59941999999864,None,199.59941999999864,199.59941999999864,200.4021837000022,None,,,,21013,0001,2022_Oct_04_1315,localizer,2021.1.3,59.982353189994434,
block,scenes,scenes072.bmp,,,,,0,66,66,66,,,,,,,,,,,,,,,,,,,,,,,,,,,,,,,,,,,,,,,,,,None,,200.4021837000022,None,200.4021837000022,None,2022-10-04-13:18:54.464351,200.41216870000062,200.71848870000395,200.41216870000062,None,None,200.41216870000062,None,201.21870440000058,None,,,,21013,0001,2022_Oct_04_1315,localizer,2021.1.3,59.982353189994434,
block,scenes,scenes002.bmp,,,,,0,67,67,67,,,,,,,,,,,,,,,,,,,,,,,,,,,,,,,,,,,,,,,,,,None,,201.21870440000058,None,201.21870440000058,None,2022-10-04-13:18:55.280901,201.22792000000481,201.53545080000185,201.22792000000481,None,None,201.22792000000481,None,202.02505860000238,None,,,,21013,0001,2022_Oct_04_1315,localizer,2021.1.3,59.982353189994434,
block,scenes,scenes054.bmp,,,,,0,68,68,68,,,,,,,,,,,,,,,,,,,,,,,,,,,,,,,,,,,,,,,,,,None,,202.02505860000238,None,202.02505860000238,None,2022-10-04-13:18:56.093539,202.0437779000058,202.35191720000876,202.0437779000058,None,None,202.0437779000058,None,202.83549229999917,None,,,,21013,0001,2022_Oct_04_1315,localizer,2021.1.3,59.982353189994434,
block,scenes,scenes064.bmp,,,,,0,69,69,69,,,,,,,,,,,,,,,,,,,,,,,,,,,,,,,,,,,,,,,,,,None,,202.83549229999917,None,202.83549229999917,None,2022-10-04-13:18:56.897655,202.8440588000085,203.15237020001223,202.8440588000085,None,None,202.8440588000085,None,203.65239310001053,None,,,,21013,0001,2022_Oct_04_1315,localizer,2021.1.3,59.982353189994434,
block,scenes,scenes020.bmp,,,,,0,70,70,70,,,,,,,,,,,,,,,,,,,,,,,,,,,,,,,,,,,,,,,,,,None,,203.65239310001053,None,203.65239310001053,None,2022-10-04-13:18:57.716126,203.65339450001193,203.95202609999978,203.65339450001193,None,None,203.65339450001193,None,204.46899770000746,None,,,,21013,0001,2022_Oct_04_1315,localizer,2021.1.3,59.982353189994434,
block,scenes,scenes073.bmp,,,,,0,71,71,71,,,,,,,,,,,,,,,,,,,,,,,,,,,,,,,,,,,,,,,,,,None,,204.46899770000746,None,204.46899770000746,None,2022-10-04-13:18:58.531384,204.4707444000087,204.78557590000855,204.4707444000087,None,None,204.4707444000087,None,205.2861728999982,None,,,,21013,0001,2022_Oct_04_1315,localizer,2021.1.3,59.982353189994434,
block,scenes,scenes050.bmp,,,,,0,72,72,72,,,,,,,,,,,,,,,,,,,,,,,,,,,,,,,,,,,,,,,,,,None,,205.2861728999982,None,205.2861728999982,None,2022-10-04-13:18:59.349470,205.2983391000016,205.6021679000114,205.2983391000016,None,None,205.2983391000016,None,206.10264720000706,None,,,,21013,0001,2022_Oct_04_1315,localizer,2021.1.3,59.982353189994434,
block,scenes,scenes066.bmp,,,,,0,73,73,73,,,,,,,,,,,,,,,,,,,,,,,,,,,,,,,,,,,,,,,,,,None,,206.10264720000706,None,206.10264720000706,None,2022-10-04-13:19:00.165991,206.10468790000596,206.41933200000494,206.10468790000596,None,None,206.10468790000596,None,206.91945539999725,None,,,,21013,0001,2022_Oct_04_1315,localizer,2021.1.3,59.982353189994434,
block,scenes,scenes027.bmp,,,,,0,74,74,74,,,,,,,,,,,,,,,,,,,,,,,,,,,,,,,,,,,,,,,,,,None,,206.91945539999725,None,206.91945539999725,None,2022-10-04-13:19:00.982777,206.93116190000728,207.23543359999894,206.93116190000728,None,None,206.93116190000728,None,207.73549240000867,None,,,,21013,0001,2022_Oct_04_1315,localizer,2021.1.3,59.982353189994434,
block_end,scenes,scenes080.bmp,,,,,0,75,75,75,,,,,,,,,,,,,,,,,,,,,,,,,,,,,,,,,,,,,,,,,,None,,207.73549240000867,None,207.73549240000867,None,2022-10-04-13:19:01.797774,207.74506070000643,208.05197970000154,207.74506070000643,None,None,207.74506070000643,None,208.55273819999857,None,,,,21013,0001,2022_Oct_04_1315,localizer,2021.1.3,59.982353189994434,
null_block,null_block,null_block.bmp,,,,,0,76,76,76,,,,,,,,,,,,,,,,,,,,,,,,,,,,,,,,,,,,,,,,,,t,1.7724599999928614,208.55285010000807,None,208.55285010000807,None,2022-10-04-13:19:04.412546,210.35210560000124,None,210.35210560000124,None,None,210.35210560000124,None,210.35201560000132,None,,,,21013,0001,2022_Oct_04_1315,localizer,2021.1.3,59.982353189994434,
block_start,objects,objects002.bmp,,,,,0,77,77,77,,,,,,,,,,,,,,,,,,,,,,,,,,,,,,,,,,,,,,,,,,t,1.9728409000090323,222.3525445999985,None,222.3525445999985,None,2022-10-04-13:19:18.416342,224.36423510000168,224.66899660001218,224.36423510000168,None,None,224.36423510000168,None,225.1690122999993,None,,,,21013,0001,2022_Oct_04_1315,localizer,2021.1.3,59.982353189994434,
block,objects,objects053.bmp,,,,,0,78,78,78,,,,,,,,,,,,,,,,,,,,,,,,,,,,,,,,,,,,,,,,,,None,,225.1690122999993,None,225.1690122999993,None,2022-10-04-13:19:19.231395,225.17908430000534,225.48580390001007,225.17908430000534,None,None,225.17908430000534,None,225.98626869999717,None,,,,21013,0001,2022_Oct_04_1315,localizer,2021.1.3,59.982353189994434,
block,objects,objects083.bmp,,,,,0,79,79,79,,,,,,,,,,,,,,,,,,,,,,,,,,,,,,,,,,,,,,,,,,None,,225.98626869999717,None,225.98626869999717,None,2022-10-04-13:19:20.049612,225.99797670000407,226.30240650000633,225.99797670000407,None,None,225.99797670000407,None,226.80250960000413,None,,,,21013,0001,2022_Oct_04_1315,localizer,2021.1.3,59.982353189994434,
block,objects,objects080.bmp,,,,,0,80,80,80,,,,,,,,,,,,,,,,,,,,,,,,,,,,,,,,,,,,,,,,,,None,,226.80250960000413,None,226.80250960000413,None,2022-10-04-13:19:20.864886,226.803247200005,227.10247600000002,226.803247200005,None,None,226.803247200005,None,227.60236889999797,None,,,,21013,0001,2022_Oct_04_1315,localizer,2021.1.3,59.982353189994434,
block,objects,objects043.bmp,,,,,0,81,81,81,,,,,,,,,,,,,,,,,,,,,,,,,,,,,,,,,,,,,,,,,,None,,227.60236889999797,None,227.60236889999797,None,2022-10-04-13:19:21.666522,227.6149521000043,227.91925320000155,227.6149521000043,227.6149521000043,None,227.6149521000043,227.6149521000043,228.41892219999718,None,,,,21013,0001,2022_Oct_04_1315,localizer,2021.1.3,59.982353189994434,
block,objects,objects030.bmp,,,,,0,82,82,82,,,,,,,,,,,,,,,,,,,,,,,,,,,,,,,,,,,,,,,,,,None,,228.41892219999718,None,228.41892219999718,None,2022-10-04-13:19:22.481335,228.41963140000007,228.7188288000034,228.41963140000007,None,None,228.41963140000007,None,229.2190465000007,None,,,,21013,0001,2022_Oct_04_1315,localizer,2021.1.3,59.982353189994434,
block,objects,objects030.bmp,,,,,0,83,83,83,,,,,,,,,,,,,,,,,,,,,,,,,,,,,,,,,,,,,,,,,,None,,229.2190465000007,None,229.2190465000007,None,2022-10-04-13:19:23.283179,229.2199496000103,229.518934000007,229.2199496000103,229.2199496000103,y,229.2199496000103,229.2199496000103,230.01916790001124,None,0.6922420000046259,,,21013,0001,2022_Oct_04_1315,localizer,2021.1.3,59.982353189994434,
block,objects,objects011.bmp,,,,,0,84,84,84,,,,,,,,,,,,,,,,,,,,,,,,,,,,,,,,,,,,,,,,,,None,,230.01916790001124,None,230.01916790001124,None,2022-10-04-13:19:24.083507,230.03016080000089,230.33563380000123,230.03016080000089,230.03016080000089,None,230.03016080000089,230.03016080000089,230.8358987000087,None,,,,21013,0001,2022_Oct_04_1315,localizer,2021.1.3,59.982353189994434,
block,objects,objects014.bmp,,,,,0,85,85,85,,,,,,,,,,,,,,,,,,,,,,,,,,,,,,,,,,,,,,,,,,None,,230.8358987000087,None,230.8358987000087,None,2022-10-04-13:19:24.898254,230.84674960000848,231.152840499999,230.84674960000848,None,None,230.84674960000848,None,231.65302890000603,None,,,,21013,0001,2022_Oct_04_1315,localizer,2021.1.3,59.982353189994434,
block,objects,objects056.bmp,,,,,0,86,86,86,,,,,,,,,,,,,,,,,,,,,,,,,,,,,,,,,,,,,,,,,,None,,231.65302890000603,None,231.65302890000603,None,2022-10-04-13:19:25.716366,231.6551666000014,231.96950269999797,231.6551666000014,None,None,231.6551666000014,None,232.46910850000714,None,,,,21013,0001,2022_Oct_04_1315,localizer,2021.1.3,59.982353189994434,
block,objects,objects044.bmp,,,,,0,87,87,87,,,,,,,,,,,,,,,,,,,,,,,,,,,,,,,,,,,,,,,,,,None,,232.46910850000714,None,232.46910850000714,None,2022-10-04-13:19:26.531496,232.47829410000122,232.7855228999979,232.47829410000122,None,None,232.47829410000122,None,233.27518910000654,None,,,,21013,0001,2022_Oct_04_1315,localizer,2021.1.3,59.982353189994434,
block,objects,objects037.bmp,,,,,0,88,88,88,,,,,,,,,,,,,,,,,,,,,,,,,,,,,,,,,,,,,,,,,,None,,233.27518910000654,None,233.27518910000654,None,2022-10-04-13:19:27.344327,233.2940813000023,233.60220190000837,233.2940813000023,None,None,233.2940813000023,None,234.08597910000972,None,,,,21013,0001,2022_Oct_04_1315,localizer,2021.1.3,59.982353189994434,
block,objects,objects075.bmp,,,,,0,89,89,89,,,,,,,,,,,,,,,,,,,,,,,,,,,,,,,,,,,,,,,,,,None,,234.08597910000972,None,234.08597910000972,None,2022-10-04-13:19:28.148135,234.09685220000392,234.4022597000003,234.09685220000392,None,None,234.09685220000392,None,234.90353870000254,None,,,,21013,0001,2022_Oct_04_1315,localizer,2021.1.3,59.982353189994434,
block,objects,objects015.bmp,,,,,0,90,90,90,,,,,,,,,,,,,,,,,,,,,,,,,,,,,,,,,,,,,,,,,,None,,234.90353870000254,None,234.90353870000254,None,2022-10-04-13:19:28.967659,234.91612940000778,235.2183076000074,234.91612940000778,None,None,234.91612940000778,None,235.71878600001074,None,,,,21013,0001,2022_Oct_04_1315,localizer,2021.1.3,59.982353189994434,
block_end,objects,objects046.bmp,,,,,0,91,91,91,,,,,,,,,,,,,,,,,,,,,,,,,,,,,,,,,,,,,,,,,,None,,235.71878600001074,None,235.71878600001074,None,2022-10-04-13:19:29.781173,235.72855770000024,236.03587350000453,235.72855770000024,None,None,235.72855770000024,None,236.53555460000499,None,,,,21013,0001,2022_Oct_04_1315,localizer,2021.1.3,59.982353189994434,
block_start,scrambled,scrambled084.bmp,,,,,0,92,92,92,,,,,,,,,,,,,,,,,,,,,,,,,,,,,,,,,,,,,,,,,,t,1.78982299999916,236.53564929999993,None,236.53564929999993,None,2022-10-04-13:19:32.414602,238.36069290000887,238.66904230001091,238.36069290000887,None,None,238.36069290000887,None,239.16954529999785,None,,,,21013,0001,2022_Oct_04_1315,localizer,2021.1.3,59.982353189994434,
block,scrambled,scrambled039.bmp,,,,,0,93,93,93,,,,,,,,,,,,,,,,,,,,,,,,,,,,,,,,,,,,,,,,,,None,,239.16954529999785,None,239.16954529999785,None,2022-10-04-13:19:33.232697,239.18036310000753,239.4855213000119,239.18036310000753,None,None,239.18036310000753,None,239.98582339999703,None,,,,21013,0001,2022_Oct_04_1315,localizer,2021.1.3,59.982353189994434,
block,scrambled,scrambled025.bmp,,,,,0,94,94,94,,,,,,,,,,,,,,,,,,,,,,,,,,,,,,,,,,,,,,,,,,None,,239.98582339999703,None,239.98582339999703,None,2022-10-04-13:19:34.047982,239.99573260000034,240.30225800001062,239.99573260000034,None,None,239.99573260000034,None,240.80240780000022,None,,,,21013,0001,2022_Oct_04_1315,localizer,2021.1.3,59.982353189994434,
block,scrambled,scrambled064.bmp,,,,,0,95,95,95,,,,,,,,,,,,,,,,,,,,,,,,,,,,,,,,,,,,,,,,,,None,,240.80240780000022,None,240.80240780000022,None,2022-10-04-13:19:34.864460,240.8120123000117,241.11926669999957,240.8120123000117,None,None,240.8120123000117,None,241.61997510000802,None,,,,21013,0001,2022_Oct_04_1315,localizer,2021.1.3,59.982353189994434,
block,scrambled,scrambled061.bmp,,,,,0,96,96,96,,,,,,,,,,,,,,,,,,,,,,,,,,,,,,,,,,,,,,,,,,None,,241.61997510000802,None,241.61997510000802,None,2022-10-04-13:19:35.683490,241.6221430000005,241.9361812999996,241.6221430000005,None,None,241.6221430000005,None,242.4233542999995,None,,,,21013,0001,2022_Oct_04_1315,localizer,2021.1.3,59.982353189994434,
block,scrambled,scrambled030.bmp,,,,,0,97,97,97,,,,,,,,,,,,,,,,,,,,,,,,,,,,,,,,,,,,,,,,,,None,,242.4233542999995,None,242.4233542999995,None,2022-10-04-13:19:36.493514,242.44335200000205,242.75216240000736,242.44335200000205,242.44335200000205,None,242.44335200000205,242.44335200000205,243.23684860000358,None,,,,21013,0001,2022_Oct_04_1315,localizer,2021.1.3,59.982353189994434,
block,scrambled,scrambled048.bmp,,,,,0,98,98,98,,,,,,,,,,,,,,,,,,,,,,,,,,,,,,,,,,,,,,,,,,None,,243.23684860000358,None,243.23684860000358,None,2022-10-04-13:19:37.300277,243.24988090000988,243.55235969999922,243.24988090000988,None,None,243.24988090000988,None,244.05217200000916,None,,,,21013,0001,2022_Oct_04_1315,localizer,2021.1.3,59.982353189994434,
block,scrambled,scrambled071.bmp,,,,,0,99,99,99,,,,,,,,,,,,,,,,,,,,,,,,,,,,,,,,,,,,,,,,,,None,,244.05217200000916,None,244.05217200000916,None,2022-10-04-13:19:38.114337,244.06075810000766,244.36872790000052,244.06075810000766,None,None,244.06075810000766,None,244.8692101000037,None,,,,21013,0001,2022_Oct_04_1315,localizer,2021.1.3,59.982353189994434,
block,scrambled,scrambled047.bmp,,,,,0,100,100,100,,,,,,,,,,,,,,,,,,,,,,,,,,,,,,,,,,,,,,,,,,None,,244.8692101000037,None,244.8692101000037,None,2022-10-04-13:19:38.931368,244.87896600000386,245.1855407000112,244.87896600000386,None,None,244.87896600000386,None,245.6860684999978,None,,,,21013,0001,2022_Oct_04_1315,localizer,2021.1.3,59.982353189994434,
block,scrambled,scrambled011.bmp,,,,,0,101,101,101,,,,,,,,,,,,,,,,,,,,,,,,,,,,,,,,,,,,,,,,,,None,,245.6860684999978,None,245.6860684999978,None,2022-10-04-13:19:39.749221,245.69815180001024,246.00262160001148,245.69815180001024,None,None,245.69815180001024,None,246.50277309999947,None,,,,21013,0001,2022_Oct_04_1315,localizer,2021.1.3,59.982353189994434,
block,scrambled,scrambled075.bmp,,,,,0,102,102,102,,,,,,,,,,,,,,,,,,,,,,,,,,,,,,,,,,,,,,,,,,None,,246.50277309999947,None,246.50277309999947,None,2022-10-04-13:19:40.565802,246.5146461000113,246.81882280000718,246.5146461000113,None,None,246.5146461000113,None,247.31902649999975,None,,,,21013,0001,2022_Oct_04_1315,localizer,2021.1.3,59.982353189994434,
block,scrambled,scrambled012.bmp,,,,,0,103,103,103,,,,,,,,,,,,,,,,,,,,,,,,,,,,,,,,,,,,,,,,,,None,,247.31902649999975,None,247.31902649999975,None,2022-10-04-13:19:41.381188,247.32004659999802,247.61886940000113,247.32004659999802,None,None,247.32004659999802,None,248.1193228000033,None,,,,21013,0001,2022_Oct_04_1315,localizer,2021.1.3,59.982353189994434,
block,scrambled,scrambled014.bmp,,,,,0,104,104,104,,,,,,,,,,,,,,,,,,,,,,,,,,,,,,,,,,,,,,,,,,None,,248.1193228000033,None,248.1193228000033,None,2022-10-04-13:19:42.183661,248.13262250000844,248.4356875000085,248.13262250000844,248.13262250000844,None,248.13262250000844,248.13262250000844,248.93590670000268,None,,,,21013,0001,2022_Oct_04_1315,localizer,2021.1.3,59.982353189994434,
block,scrambled,scrambled008.bmp,,,,,0,105,105,105,,,,,,,,,,,,,,,,,,,,,,,,,,,,,,,,,,,,,,,,,,None,,248.93590670000268,None,248.93590670000268,None,2022-10-04-13:19:42.998194,248.94580630000564,249.25232910001068,248.94580630000564,None,None,248.94580630000564,None,249.75250890001044,None,,,,21013,0001,2022_Oct_04_1315,localizer,2021.1.3,59.982353189994434,
block_end,scrambled,scrambled007.bmp,,,,,0,106,106,106,,,,,,,,,,,,,,,,,,,,,,,,,,,,,,,,,,,,,,,,,,None,,249.75250890001044,None,249.75250890001044,None,2022-10-04-13:19:43.814669,249.7532821000059,250.06890500000736,249.7532821000059,None,None,249.7532821000059,None,250.55296610000224,None,,,,21013,0001,2022_Oct_04_1315,localizer,2021.1.3,59.982353189994434,
block_start,faces,faces063.bmp,,,,,0,107,107,107,,,,,,,,,,,,,,,,,,,,,,,,,,,,,,,,,,,,,,,,,,t,1.7723891000059666,250.55288290001045,None,250.55288290001045,None,2022-10-04-13:19:46.414220,252.3630087000056,252.66876330001105,252.3630087000056,None,None,252.3630087000056,None,253.1706684000077,None,,,,21013,0001,2022_Oct_04_1315,localizer,2021.1.3,59.982353189994434,
block,faces,faces087.bmp,,,,,0,108,108,108,,,,,,,,,,,,,,,,,,,,,,,,,,,,,,,,,,,,,,,,,,None,,253.1706684000077,None,253.1706684000077,None,2022-10-04-13:19:47.236218,253.18787700000394,253.502433200003,253.18787700000394,None,None,253.18787700000394,None,253.98568989999913,None,,,,21013,0001,2022_Oct_04_1315,localizer,2021.1.3,59.982353189994434,
block,faces,faces012.bmp,,,,,0,109,109,109,,,,,,,,,,,,,,,,,,,,,,,,,,,,,,,,,,,,,,,,,,None,,253.98568989999913,None,253.98568989999913,None,2022-10-04-13:19:48.047858,253.9916072000051,254.3020581000019,253.9916072000051,None,None,253.9916072000051,None,254.80231920000952,None,,,,21013,0001,2022_Oct_04_1315,localizer,2021.1.3,59.982353189994434,
block,faces,faces044.bmp,,,,,0,110,110,110,,,,,,,,,,,,,,,,,,,,,,,,,,,,,,,,,,,,,,,,,,None,,254.80231920000952,None,254.80231920000952,None,2022-10-04-13:19:48.864700,254.80822089999856,255.11891150000156,254.80822089999856,None,None,254.80822089999856,None,255.61972100000858,None,,,,21013,0001,2022_Oct_04_1315,localizer,2021.1.3,59.982353189994434,
block,faces,faces003.bmp,,,,,0,111,111,111,,,,,,,,,,,,,,,,,,,,,,,,,,,,,,,,,,,,,,,,,,None,,255.61972100000858,None,255.61972100000858,None,2022-10-04-13:19:49.682871,255.63211620000948,255.9356368000008,255.63211620000948,None,None,255.63211620000948,None,256.43618970000387,None,,,,21013,0001,2022_Oct_04_1315,localizer,2021.1.3,59.982353189994434,
block,faces,faces018.bmp,,,,,0,112,112,112,,,,,,,,,,,,,,,,,,,,,,,,,,,,,,,,,,,,,,,,,,None,,256.43618970000387,None,256.43618970000387,None,2022-10-04-13:19:50.499342,256.4471205000009,256.75224990000424,256.4471205000009,None,None,256.4471205000009,None,257.2531303999989,None,,,,21013,0001,2022_Oct_04_1315,localizer,2021.1.3,59.982353189994434,
block,faces,faces034.bmp,,,,,0,113,113,113,,,,,,,,,,,,,,,,,,,,,,,,,,,,,,,,,,,,,,,,,,None,,257.2531303999989,None,257.2531303999989,None,2022-10-04-13:19:51.317162,257.26599179999903,257.5690831000102,257.26599179999903,None,None,257.26599179999903,None,258.0696637000059,None,,,,21013,0001,2022_Oct_04_1315,localizer,2021.1.3,59.982353189994434,
block,faces,faces073.bmp,,,,,0,114,114,114,,,,,,,,,,,,,,,,,,,,,,,,,,,,,,,,,,,,,,,,,,None,,258.0696637000059,None,258.0696637000059,None,2022-10-04-13:19:52.132990,258.0804147000017,258.38567400000466,258.0804147000017,None,None,258.0804147000017,None,258.8861335000096,None,,,,21013,0001,2022_Oct_04_1315,localizer,2021.1.3,59.982353189994434,
block,faces,faces078.bmp,,,,,0,115,115,115,,,,,,,,,,,,,,,,,,,,,,,,,,,,,,,,,,,,,,,,,,None,,258.8861335000096,None,258.8861335000096,None,2022-10-04-13:19:52.948332,258.8970813000051,259.20280840000487,258.8970813000051,None,None,258.8970813000051,None,259.7028174999999,None,,,,21013,0001,2022_Oct_04_1315,localizer,2021.1.3,59.982353189994434,
block,faces,faces065.bmp,,,,,0,116,116,116,,,,,,,,,,,,,,,,,,,,,,,,,,,,,,,,,,,,,,,,,,None,,259.7028174999999,None,259.7028174999999,None,2022-10-04-13:19:53.766149,259.721606600011,260.03583760000765,259.721606600011,None,None,259.721606600011,None,260.5193220000059,None,,,,21013,0001,2022_Oct_04_1315,localizer,2021.1.3,59.982353189994434,
block,faces,faces011.bmp,,,,,0,117,117,117,,,,,,,,,,,,,,,,,,,,,,,,,,,,,,,,,,,,,,,,,,None,,260.5193220000059,None,260.5193220000059,None,2022-10-04-13:19:54.581481,260.53041310000117,260.83560320000106,260.53041310000117,None,None,260.53041310000117,None,261.33552610000913,None,,,,21013,0001,2022_Oct_04_1315,localizer,2021.1.3,59.982353189994434,
block,faces,faces042.bmp,,,,,0,118,118,118,,,,,,,,,,,,,,,,,,,,,,,,,,,,,,,,,,,,,,,,,,None,,261.33552610000913,None,261.33552610000913,None,2022-10-04-13:19:55.397868,261.34062280000944,261.65234080000664,261.34062280000944,None,None,261.34062280000944,None,262.15290500000845,None,,,,21013,0001,2022_Oct_04_1315,localizer,2021.1.3,59.982353189994434,
block,faces,faces066.bmp,,,,,0,119,119,119,,,,,,,,,,,,,,,,,,,,,,,,,,,,,,,,,,,,,,,,,,None,,262.15290500000845,None,262.15290500000845,None,2022-10-04-13:19:56.215061,262.16385530000844,262.4697106000094,262.16385530000844,None,None,262.16385530000844,None,262.96943840000165,None,,,,21013,0001,2022_Oct_04_1315,localizer,2021.1.3,59.982353189994434,
block,faces,faces062.bmp,,,,,0,120,120,120,,,,,,,,,,,,,,,,,,,,,,,,,,,,,,,,,,,,,,,,,,None,,262.96943840000165,None,262.96943840000165,None,2022-10-04-13:19:57.031596,262.98056570001063,263.2862715000083,262.98056570001063,None,None,262.98056570001063,None,263.7863256999975,None,,,,21013,0001,2022_Oct_04_1315,localizer,2021.1.3,59.982353189994434,
block_end,faces,faces043.bmp,,,,,0,121,121,121,,,,,,,,,,,,,,,,,,,,,,,,,,,,,,,,,,,,,,,,,,None,,263.7863256999975,None,263.7863256999975,None,2022-10-04-13:19:57.848855,263.79907020000974,264.1024650000036,263.79907020000974,None,None,263.79907020000974,None,264.6030985000092,None,,,,21013,0001,2022_Oct_04_1315,localizer,2021.1.3,59.982353189994434,
block_start,scenes,scenes077.bmp,,,,,0,122,122,122,,,,,,,,,,,,,,,,,,,,,,,,,,,,,,,,,,,,,,,,,,t,1.7224340999964625,264.602910600006,None,264.602910600006,None,2022-10-04-13:20:00.414721,266.3589922000101,266.66951180000615,266.3589922000101,None,None,266.3589922000101,None,267.16957370001035,None,,,,21013,0001,2022_Oct_04_1315,localizer,2021.1.3,59.982353189994434,
block,scenes,scenes067.bmp,,,,,0,123,123,123,,,,,,,,,,,,,,,,,,,,,,,,,,,,,,,,,,,,,,,,,,None,,267.16957370001035,None,267.16957370001035,None,2022-10-04-13:20:01.231710,267.180471700005,267.4858830000012,267.180471700005,None,None,267.180471700005,None,267.9866558000052,None,,,,21013,0001,2022_Oct_04_1315,localizer,2021.1.3,59.982353189994434,
block,scenes,scenes029.bmp,,,,,0,124,124,124,,,,,,,,,,,,,,,,,,,,,,,,,,,,,,,,,,,,,,,,,,None,,267.9866558000052,None,267.9866558000052,None,2022-10-04-13:20:02.049991,267.9984124000039,268.3019057000056,267.9984124000039,None,None,267.9984124000039,None,268.80315279999775,None,,,,21013,0001,2022_Oct_04_1315,localizer,2021.1.3,59.982353189994434,
block,scenes,scenes025.bmp,,,,,0,125,125,125,,,,,,,,,,,,,,,,,,,,,,,,,,,,,,,,,,,,,,,,,,None,,268.80315279999775,None,268.80315279999775,None,2022-10-04-13:20:02.866304,268.8207825999998,269.1209416000056,268.8207825999998,None,None,268.8207825999998,None,269.6204233000011,None,,,,21013,0001,2022_Oct_04_1315,localizer,2021.1.3,59.982353189994434,
block,scenes,scenes046.bmp,,,,,0,126,126,126,,,,,,,,,,,,,,,,,,,,,,,,,,,,,,,,,,,,,,,,,,None,,269.6204233000011,None,269.6204233000011,None,2022-10-04-13:20:03.684726,269.6227121999982,269.9361922000098,269.6227121999982,None,None,269.6227121999982,None,270.4357170999996,None,,,,21013,0001,2022_Oct_04_1315,localizer,2021.1.3,59.982353189994434,
block,scenes,scenes046.bmp,,,,,0,127,127,127,,,,,,,,,,,,,,,,,,,,,,,,,,,,,,,,,,,,,,,,,,None,,270.4357170999996,None,270.4357170999996,None,2022-10-04-13:20:04.497466,270.4368198000011,270.7358219000016,270.4368198000011,None,y,270.4368198000011,None,271.2524587000065,None,0.7451877999992575,,,21013,0001,2022_Oct_04_1315,localizer,2021.1.3,59.982353189994434,
block,scenes,scenes064.bmp,,,,,0,128,128,128,,,,,,,,,,,,,,,,,,,,,,,,,,,,,,,,,,,,,,,,,,None,,271.2524587000065,None,271.2524587000065,None,2022-10-04-13:20:05.314626,271.25338130000455,271.5529976000107,271.25338130000455,None,None,271.25338130000455,None,272.05307610001034,None,,,,21013,0001,2022_Oct_04_1315,localizer,2021.1.3,59.982353189994434,
block,scenes,scenes069.bmp,,,,,0,129,129,129,,,,,,,,,,,,,,,,,,,,,,,,,,,,,,,,,,,,,,,,,,None,,272.05307610001034,None,272.05307610001034,None,2022-10-04-13:20:06.118387,272.06606779999856,272.3690889999998,272.06606779999856,272.06606779999856,None,272.06606779999856,272.06606779999856,272.8700679000016,None,,,,21013,0001,2022_Oct_04_1315,localizer,2021.1.3,59.982353189994434,
block,scenes,scenes066.bmp,,,,,0,130,130,130,,,,,,,,,,,,,,,,,,,,,,,,,,,,,,,,,,,,,,,,,,None,,272.8700679000016,None,272.8700679000016,None,2022-10-04-13:20:06.934318,272.8723939000047,273.1865034000075,272.8723939000047,None,None,272.8723939000047,None,273.68669040000384,None,,,,21013,0001,2022_Oct_04_1315,localizer,2021.1.3,59.982353189994434,
block,scenes,scenes007.bmp,,,,,0,131,131,131,,,,,,,,,,,,,,,,,,,,,,,,,,,,,,,,,,,,,,,,,,None,,273.68669040000384,None,273.68669040000384,None,2022-10-04-13:20:07.749836,273.7041193000041,274.0254744000122,273.7041193000041,None,None,273.7041193000041,None,274.5038858000029,None,,,,21013,0001,2022_Oct_04_1315,localizer,2021.1.3,59.982353189994434,
block,scenes,scenes016.bmp,,,,,0,132,132,132,,,,,,,,,,,,,,,,,,,,,,,,,,,,,,,,,,,,,,,,,,None,,274.5038858000029,None,274.5038858000029,None,2022-10-04-13:20:08.568043,274.5226188000088,274.83622430000105,274.5226188000088,None,None,274.5226188000088,None,275.3190833000102,None,,,,21013,0001,2022_Oct_04_1315,localizer,2021.1.3,59.982353189994434,
block,scenes,scenes042.bmp,,,,,0,133,133,133,,,,,,,,,,,,,,,,,,,,,,,,,,,,,,,,,,,,,,,,,,None,,275.3190833000102,None,275.3190833000102,None,2022-10-04-13:20:09.381251,275.32749780001177,275.63601370000106,275.32749780001177,None,None,275.32749780001177,None,276.13608950000923,None,,,,21013,0001,2022_Oct_04_1315,localizer,2021.1.3,59.982353189994434,
block,scenes,scenes087.bmp,,,,,0,134,134,134,,,,,,,,,,,,,,,,,,,,,,,,,,,,,,,,,,,,,,,,,,None,,276.13608950000923,None,276.13608950000923,None,2022-10-04-13:20:10.198248,276.1461498999997,276.45262640000146,276.1461498999997,None,None,276.1461498999997,None,276.95268300000896,None,,,,21013,0001,2022_Oct_04_1315,localizer,2021.1.3,59.982353189994434,
block,scenes,scenes074.bmp,,,,,0,135,135,135,,,,,,,,,,,,,,,,,,,,,,,,,,,,,,,,,,,,,,,,,,None,,276.95268300000896,None,276.95268300000896,None,2022-10-04-13:20:11.014843,276.96193309999944,277.2695526000025,276.96193309999944,None,None,276.96193309999944,None,277.76954890000195,None,,,,21013,0001,2022_Oct_04_1315,localizer,2021.1.3,59.982353189994434,
block_end,scenes,scenes080.bmp,,,,,0,136,136,136,,,,,,,,,,,,,,,,,,,,,,,,,,,,,,,,,,,,,,,,,,None,,277.76954890000195,None,277.76954890000195,None,2022-10-04-13:20:11.831668,277.77028170000995,278.0694197000121,277.77028170000995,None,None,277.77028170000995,None,278.5700381000046,None,,,,21013,0001,2022_Oct_04_1315,localizer,2021.1.3,59.982353189994434,
block_start,faces,faces033.bmp,,,,,0,137,137,137,,,,,,,,,,,,,,,,,,,,,,,,,,,,,,,,,,,,,,,,,,t,1.755064199998742,278.5701929000061,None,278.5701929000061,None,2022-10-04-13:20:14.413663,280.3687040000077,280.6694833000074,280.3687040000077,None,None,280.3687040000077,None,281.16961650000155,None,,,,21013,0001,2022_Oct_04_1315,localizer,2021.1.3,59.982353189994434,
block,faces,faces074.bmp,,,,,0,138,138,138,,,,,,,,,,,,,,,,,,,,,,,,,,,,,,,,,,,,,,,,,,None,,281.16961650000155,None,281.16961650000155,None,2022-10-04-13:20:15.231814,281.1816622000042,281.4865443000017,281.1816622000042,None,None,281.1816622000042,None,281.98724260000597,None,,,,21013,0001,2022_Oct_04_1315,localizer,2021.1.3,59.982353189994434,
block,faces,faces039.bmp,,,,,0,139,139,139,,,,,,,,,,,,,,,,,,,,,,,,,,,,,,,,,,,,,,,,,,None,,281.98724260000597,None,281.98724260000597,None,2022-10-04-13:20:16.053286,281.9995471000002,282.3025701000006,281.9995471000002,None,None,281.9995471000002,None,282.8025990000009,None,,,,21013,0001,2022_Oct_04_1315,localizer,2021.1.3,59.982353189994434,
block,faces,faces023.bmp,,,,,0,140,140,140,,,,,,,,,,,,,,,,,,,,,,,,,,,,,,,,,,,,,,,,,,None,,282.8025990000009,None,282.8025990000009,None,2022-10-04-13:20:16.864985,282.8078333000012,283.11928470000566,282.8078333000012,None,None,282.8078333000012,None,283.6192251000015,None,,,,21013,0001,2022_Oct_04_1315,localizer,2021.1.3,59.982353189994434,
block,faces,faces083.bmp,,,,,0,141,141,141,,,,,,,,,,,,,,,,,,,,,,,,,,,,,,,,,,,,,,,,,,None,,283.6192251000015,None,283.6192251000015,None,2022-10-04-13:20:17.681390,283.6280459000118,283.93571370000427,283.6280459000118,None,None,283.6280459000118,None,284.43594190000874,None,,,,21013,0001,2022_Oct_04_1315,localizer,2021.1.3,59.982353189994434,
block,faces,faces061.bmp,,,,,0,142,142,142,,,,,,,,,,,,,,,,,,,,,,,,,,,,,,,,,,,,,,,,,,None,,284.43594190000874,None,284.43594190000874,None,2022-10-04-13:20:18.498602,284.4467799999984,284.7525403000036,284.4467799999984,None,None,284.4467799999984,None,285.25256620001016,None,,,,21013,0001,2022_Oct_04_1315,localizer,2021.1.3,59.982353189994434,
block,faces,faces060.bmp,,,,,0,143,143,143,,,,,,,,,,,,,,,,,,,,,,,,,,,,,,,,,,,,,,,,,,None,,285.25256620001016,None,285.25256620001016,None,2022-10-04-13:20:19.314730,285.2617690000043,285.56900170000154,285.2617690000043,None,None,285.2617690000043,None,286.0698687000098,None,,,,21013,0001,2022_Oct_04_1315,localizer,2021.1.3,59.982353189994434,
block,faces,faces080.bmp,,,,,0,144,144,144,,,,,,,,,,,,,,,,,,,,,,,,,,,,,,,,,,,,,,,,,,None,,286.0698687000098,None,286.0698687000098,None,2022-10-04-13:20:20.133021,286.0812130000122,286.38586439999926,286.0812130000122,None,None,286.0812130000122,None,286.8859384000083,None,,,,21013,0001,2022_Oct_04_1315,localizer,2021.1.3,59.982353189994434,
block,faces,faces040.bmp,,,,,0,145,145,145,,,,,,,,,,,,,,,,,,,,,,,,,,,,,,,,,,,,,,,,,,None,,286.8859384000083,None,286.8859384000083,None,2022-10-04-13:20:20.948779,286.89690180000616,287.20313100000203,286.89690180000616,None,None,286.89690180000616,None,287.70317780000767,None,,,,21013,0001,2022_Oct_04_1315,localizer,2021.1.3,59.982353189994434,
block,faces,faces036.bmp,,,,,0,146,146,146,,,,,,,,,,,,,,,,,,,,,,,,,,,,,,,,,,,,,,,,,,None,,287.70317780000767,None,287.70317780000767,None,2022-10-04-13:20:21.766348,287.7039252000104,288.0037975000014,287.7039252000104,None,None,287.7039252000104,None,288.51922810000394,None,,,,21013,0001,2022_Oct_04_1315,localizer,2021.1.3,59.982353189994434,
block,faces,faces064.bmp,,,,,0,147,147,147,,,,,,,,,,,,,,,,,,,,,,,,,,,,,,,,,,,,,,,,,,None,,288.51922810000394,None,288.51922810000394,None,2022-10-04-13:20:22.581395,288.52716630000214,288.83605570001237,288.52716630000214,None,None,288.52716630000214,None,289.33580970000037,None,,,,21013,0001,2022_Oct_04_1315,localizer,2021.1.3,59.982353189994434,
block,faces,faces020.bmp,,,,,0,148,148,148,,,,,,,,,,,,,,,,,,,,,,,,,,,,,,,,,,,,,,,,,,None,,289.33580970000037,None,289.33580970000037,None,2022-10-04-13:20:23.396980,289.3374240000121,289.65296550000494,289.3374240000121,None,None,289.3374240000121,None,290.1526551999981,None,,,,21013,0001,2022_Oct_04_1315,localizer,2021.1.3,59.982353189994434,
block,faces,faces063.bmp,,,,,0,149,149,149,,,,,,,,,,,,,,,,,,,,,,,,,,,,,,,,,,,,,,,,,,None,,290.1526551999981,None,290.1526551999981,None,2022-10-04-13:20:24.214831,290.15374500000325,290.46901210000215,290.15374500000325,None,None,290.15374500000325,None,290.96947160000707,None,,,,21013,0001,2022_Oct_04_1315,localizer,2021.1.3,59.982353189994434,
block,faces,faces030.bmp,,,,,0,150,150,150,,,,,,,,,,,,,,,,,,,,,,,,,,,,,,,,,,,,,,,,,,None,,290.96947160000707,None,290.96947160000707,None,2022-10-04-13:20:25.031632,290.98108320000756,291.2857636000117,290.98108320000756,None,None,290.98108320000756,None,291.78604550000307,None,,,,21013,0001,2022_Oct_04_1315,localizer,2021.1.3,59.982353189994434,
block_end,faces,faces050.bmp,,,,,0,151,151,151,,,,,,,,,,,,,,,,,,,,,,,,,,,,,,,,,,,,,,,,,,None,,291.78604550000307,None,291.78604550000307,None,2022-10-04-13:20:25.848244,291.79518230000394,292.10256740001205,291.79518230000394,None,None,291.79518230000394,None,292.60276400000873,None,,,,21013,0001,2022_Oct_04_1315,localizer,2021.1.3,59.982353189994434,
block_start,scrambled,scrambled025.bmp,,,,,0,152,152,152,,,,,,,,,,,,,,,,,,,,,,,,,,,,,,,,,,,,,,,,,,t,1.7227616000018315,292.6026145000069,None,292.6026145000069,None,2022-10-04-13:20:28.413735,294.35370910000347,294.66917020000983,294.35370910000347,None,None,294.35370910000347,None,295.1527803000048,None,,,,21013,0001,2022_Oct_04_1315,localizer,2021.1.3,59.982353189994434,
block,scrambled,scrambled005.bmp,,,,,0,153,153,153,,,,,,,,,,,,,,,,,,,,,,,,,,,,,,,,,,,,,,,,,,None,,295.1527803000048,None,295.1527803000048,None,2022-10-04-13:20:29.215939,295.16386830000556,295.4693627000088,295.16386830000556,295.16386830000556,None,295.16386830000556,295.16386830000556,295.96930239999926,None,,,,21013,0001,2022_Oct_04_1315,localizer,2021.1.3,59.982353189994434,
block,scrambled,scrambled020.bmp,,,,,0,154,154,154,,,,,,,,,,,,,,,,,,,,,,,,,,,,,,,,,,,,,,,,,,None,,295.96930239999926,None,295.96930239999926,None,2022-10-04-13:20:30.031463,295.9788087000052,296.2860573000071,295.9788087000052,None,None,295.9788087000052,None,296.78590040000415,None,,,,21013,0001,2022_Oct_04_1315,localizer,2021.1.3,59.982353189994434,
block,scrambled,scrambled036.bmp,,,,,0,155,155,155,,,,,,,,,,,,,,,,,,,,,,,,,,,,,,,,,,,,,,,,,,None,,296.78590040000415,None,296.78590040000415,None,2022-10-04-13:20:30.848090,296.7940543000004,297.1094582000078,296.7940543000004,None,None,296.7940543000004,None,297.60274700001025,None,,,,21013,0001,2022_Oct_04_1315,localizer,2021.1.3,59.982353189994434,
block,scrambled,scrambled071.bmp,,,,,0,156,156,156,,,,,,,,,,,,,,,,,,,,,,,,,,,,,,,,,,,,,,,,,,None,,297.60274700001025,None,297.60274700001025,None,2022-10-04-13:20:31.664909,297.6036166000122,297.91937850000977,297.6036166000122,None,None,297.6036166000122,None,298.4028136999972,None,,,,21013,0001,2022_Oct_04_1315,localizer,2021.1.3,59.982353189994434,
block,scrambled,scrambled029.bmp,,,,,0,157,157,157,,,,,,,,,,,,,,,,,,,,,,,,,,,,,,,,,,,,,,,,,,None,,298.4028136999972,None,298.4028136999972,None,2022-10-04-13:20:32.467162,298.4100449000107,298.71958790000645,298.4100449000107,298.4100449000107,None,298.4100449000107,298.4100449000107,299.2195059000063,None,,,,21013,0001,2022_Oct_04_1315,localizer,2021.1.3,59.982353189994434,
block,scrambled,scrambled014.bmp,,,,,0,158,158,158,,,,,,,,,,,,,,,,,,,,,,,,,,,,,,,,,,,,,,,,,,None,,299.2195059000063,None,299.2195059000063,None,2022-10-04-13:20:33.281668,299.2202079999988,299.5192801000085,299.2202079999988,None,None,299.2202079999988,None,300.01960389999874,None,,,,21013,0001,2022_Oct_04_1315,localizer,2021.1.3,59.982353189994434,
block,scrambled,scrambled044.bmp,,,,,0,159,159,159,,,,,,,,,,,,,,,,,,,,,,,,,,,,,,,,,,,,,,,,,,None,,300.01960389999874,None,300.01960389999874,None,2022-10-04-13:20:34.083591,300.0315330000012,300.33617490000324,300.0315330000012,300.0315330000012,None,300.0315330000012,300.0315330000012,300.8358731000029,None,,,,21013,0001,2022_Oct_04_1315,localizer,2021.1.3,59.982353189994434,
block,scrambled,scrambled066.bmp,,,,,0,160,160,160,,,,,,,,,,,,,,,,,,,,,,,,,,,,,,,,,,,,,,,,,,None,,300.8358731000029,None,300.8358731000029,None,2022-10-04-13:20:34.898038,300.8446597000002,301.1526062000048,300.8446597000002,None,None,300.8446597000002,None,301.65264530001,None,,,,21013,0001,2022_Oct_04_1315,localizer,2021.1.3,59.982353189994434,
block,scrambled,scrambled087.bmp,,,,,0,161,161,161,,,,,,,,,,,,,,,,,,,,,,,,,,,,,,,,,,,,,,,,,,None,,301.65264530001,None,301.65264530001,None,2022-10-04-13:20:35.715358,301.6621859000006,301.9694843000034,301.6621859000006,None,None,301.6621859000006,None,302.46958889999803,None,,,,21013,0001,2022_Oct_04_1315,localizer,2021.1.3,59.982353189994434,
block,scrambled,scrambled064.bmp,,,,,0,162,162,162,,,,,,,,,,,,,,,,,,,,,,,,,,,,,,,,,,,,,,,,,,None,,302.46958889999803,None,302.46958889999803,None,2022-10-04-13:20:36.531782,302.470358400009,302.78625309999916,302.470358400009,None,None,302.470358400009,None,303.2694839000018,None,,,,21013,0001,2022_Oct_04_1315,localizer,2021.1.3,59.982353189994434,
block,scrambled,scrambled068.bmp,,,,,0,163,163,163,,,,,,,,,,,,,,,,,,,,,,,,,,,,,,,,,,,,,,,,,,None,,303.2694839000018,None,303.2694839000018,None,2022-10-04-13:20:37.333640,303.2806574999995,303.5860748999985,303.2806574999995,303.2806574999995,None,303.2806574999995,303.2806574999995,304.0860105000014,None,,,,21013,0001,2022_Oct_04_1315,localizer,2021.1.3,59.982353189994434,
block,scrambled,scrambled080.bmp,,,,,0,164,164,164,,,,,,,,,,,,,,,,,,,,,,,,,,,,,,,,,,,,,,,,,,None,,304.0860105000014,None,304.0860105000014,None,2022-10-04-13:20:38.147660,304.0936214000103,304.4032647999993,304.0936214000103,None,None,304.0936214000103,None,304.9033539000069,None,,,,21013,0001,2022_Oct_04_1315,localizer,2021.1.3,59.982353189994434,
block,scrambled,scrambled054.bmp,,,,,0,165,165,165,,,,,,,,,,,,,,,,,,,,,,,,,,,,,,,,,,,,,,,,,,None,,304.9033539000069,None,304.9033539000069,None,2022-10-04-13:20:38.966686,304.9142023000022,305.219842800012,304.9142023000022,None,None,304.9142023000022,None,305.71951639999895,None,,,,21013,0001,2022_Oct_04_1315,localizer,2021.1.3,59.982353189994434,
block_end,scrambled,scrambled004.bmp,,,,,0,166,166,166,,,,,,,,,,,,,,,,,,,,,,,,,,,,,,,,,,,,,,,,,,None,,305.71951639999895,None,305.71951639999895,None,2022-10-04-13:20:39.781680,305.72847909999837,306.03689970000414,305.72847909999837,None,None,305.72847909999837,None,306.53619370001104,None,,,,21013,0001,2022_Oct_04_1315,localizer,2021.1.3,59.982353189994434,
block_start,objects,objects038.bmp,,,,,0,167,167,167,,,,,,,,,,,,,,,,,,,,,,,,,,,,,,,,,,,,,,,,,,t,1.78903210000135,306.53623480000533,None,306.53623480000533,None,2022-10-04-13:20:42.417704,308.3671577000059,308.66948950001097,308.3671577000059,None,None,308.3671577000059,None,309.16969020000977,None,,,,21013,0001,2022_Oct_04_1315,localizer,2021.1.3,59.982353189994434,
block,objects,objects061.bmp,,,,,0,168,168,168,,,,,,,,,,,,,,,,,,,,,,,,,,,,,,,,,,,,,,,,,,None,,309.16969020000977,None,309.16969020000977,None,2022-10-04-13:20:43.232063,309.180005000002,309.48630460001004,309.180005000002,None,None,309.180005000002,None,309.9866067000097,None,,,,21013,0001,2022_Oct_04_1315,localizer,2021.1.3,59.982353189994434,
block,objects,objects010.bmp,,,,,0,169,169,169,,,,,,,,,,,,,,,,,,,,,,,,,,,,,,,,,,,,,,,,,,None,,309.9866067000097,None,309.9866067000097,None,2022-10-04-13:20:44.048960,309.98703970000497,310.28636370001186,309.98703970000497,None,None,309.98703970000497,None,310.78646070000684,None,,,,21013,0001,2022_Oct_04_1315,localizer,2021.1.3,59.982353189994434,
block,objects,objects085.bmp,,,,,0,170,170,170,,,,,,,,,,,,,,,,,,,,,,,,,,,,,,,,,,,,,,,,,,None,,310.78646070000684,None,310.78646070000684,None,2022-10-04-13:20:44.850614,310.79926420000265,311.1027022000053,310.79926420000265,310.79926420000265,None,310.79926420000265,310.79926420000265,311.6023639000035,None,,,,21013,0001,2022_Oct_04_1315,localizer,2021.1.3,59.982353189994434,
block,objects,objects026.bmp,,,,,0,171,171,171,,,,,,,,,,,,,,,,,,,,,,,,,,,,,,,,,,,,,,,,,,None,,311.6023639000035,None,311.6023639000035,None,2022-10-04-13:20:45.665022,311.61007690000406,311.91987070000323,311.61007690000406,None,None,311.61007690000406,None,312.41944110000475,None,,,,21013,0001,2022_Oct_04_1315,localizer,2021.1.3,59.982353189994434,
block,objects,objects042.bmp,,,,,0,172,172,172,,,,,,,,,,,,,,,,,,,,,,,,,,,,,,,,,,,,,,,,,,None,,312.41944110000475,None,312.41944110000475,None,2022-10-04-13:20:46.481625,312.42839390000154,312.73634550000133,312.42839390000154,None,None,312.42839390000154,None,313.2363406000062,None,,,,21013,0001,2022_Oct_04_1315,localizer,2021.1.3,59.982353189994434,
block,objects,objects014.bmp,,,,,0,173,173,173,,,,,,,,,,,,,,,,,,,,,,,,,,,,,,,,,,,,,,,,,,None,,313.2363406000062,None,313.2363406000062,None,2022-10-04-13:20:47.298503,313.23705260000133,313.55274360001204,313.23705260000133,None,None,313.23705260000133,None,314.03606080000316,None,,,,21013,0001,2022_Oct_04_1315,localizer,2021.1.3,59.982353189994434,
block,objects,objects068.bmp,,,,,0,174,174,174,,,,,,,,,,,,,,,,,,,,,,,,,,,,,,,,,,,,,,,,,,None,,314.03606080000316,None,314.03606080000316,None,2022-10-04-13:20:48.099831,314.0461811999994,314.3532780000096,314.0461811999994,314.0461811999994,None,314.0461811999994,314.0461811999994,314.8529196000003,None,,,,21013,0001,2022_Oct_04_1315,localizer,2021.1.3,59.982353189994434,
block,objects,objects031.bmp,,,,,0,175,175,175,,,,,,,,,,,,,,,,,,,,,,,,,,,,,,,,,,,,,,,,,,None,,314.8529196000003,None,314.8529196000003,None,2022-10-04-13:20:48.915082,314.8619861000043,315.16978100000415,314.8619861000043,None,None,314.8619861000043,None,315.6699872000012,None,,,,21013,0001,2022_Oct_04_1315,localizer,2021.1.3,59.982353189994434,
block,objects,objects036.bmp,,,,,0,176,176,176,,,,,,,,,,,,,,,,,,,,,,,,,,,,,,,,,,,,,,,,,,None,,315.6699872000012,None,315.6699872000012,None,2022-10-04-13:20:49.732334,315.67058770000585,315.9698833000002,315.67058770000585,None,None,315.67058770000585,None,316.4862298000065,None,,,,21013,0001,2022_Oct_04_1315,localizer,2021.1.3,59.982353189994434,
block,objects,objects022.bmp,,,,,0,177,177,177,,,,,,,,,,,,,,,,,,,,,,,,,,,,,,,,,,,,,,,,,,None,,316.4862298000065,None,316.4862298000065,None,2022-10-04-13:20:50.548394,316.49599500000477,316.8027219000069,316.49599500000477,None,None,316.49599500000477,None,317.30264760000716,None,,,,21013,0001,2022_Oct_04_1315,localizer,2021.1.3,59.982353189994434,
block,objects,objects002.bmp,,,,,0,178,178,178,,,,,,,,,,,,,,,,,,,,,,,,,,,,,,,,,,,,,,,,,,None,,317.30264760000716,None,317.30264760000716,None,2022-10-04-13:20:51.364848,317.30399159999797,317.61927530000685,317.30399159999797,None,None,317.30399159999797,None,318.11936090000233,None,,,,21013,0001,2022_Oct_04_1315,localizer,2021.1.3,59.982353189994434,
block,objects,objects053.bmp,,,,,0,179,179,179,,,,,,,,,,,,,,,,,,,,,,,,,,,,,,,,,,,,,,,,,,None,,318.11936090000233,None,318.11936090000233,None,2022-10-04-13:20:52.181528,318.1204757000087,318.4196135000093,318.1204757000087,None,None,318.1204757000087,None,318.92162010000754,None,,,,21013,0001,2022_Oct_04_1315,localizer,2021.1.3,59.982353189994434,
block,objects,objects086.bmp,,,,,0,180,180,180,,,,,,,,,,,,,,,,,,,,,,,,,,,,,,,,,,,,,,,,,,None,,318.92162010000754,None,318.92162010000754,None,2022-10-04-13:20:52.989717,318.92903050000314,319.23682689999987,318.92903050000314,318.92903050000314,None,318.92903050000314,318.92903050000314,319.7369811000084,None,,,,21013,0001,2022_Oct_04_1315,localizer,2021.1.3,59.982353189994434,
block_end,objects,objects081.bmp,,,,,0,181,181,181,,,,,,,,,,,,,,,,,,,,,,,,,,,,,,,,,,,,,,,,,,None,,319.7369811000084,None,319.7369811000084,None,2022-10-04-13:20:53.800114,319.7486476000049,320.05284720000054,319.7486476000049,None,None,319.7486476000049,None,320.55410230000996,None,,,,21013,0001,2022_Oct_04_1315,localizer,2021.1.3,59.982353189994434,
null_block,null_block,null_block.bmp,,,,,0,182,182,182,,,,,,,,,,,,,,,,,,,,,,,,,,,,,,,,,,,,,,,,,,t,1.7712663999991491,320.55410560000746,None,320.55410560000746,None,2022-10-04-13:20:56.414023,322.35285580000925,None,322.35285580000925,None,None,322.35285580000925,None,322.3553333000018,None,,,,21013,0001,2022_Oct_04_1315,localizer,2021.1.3,59.982353189994434,
block_start,scrambled,scrambled048.bmp,,,,,0,183,183,183,,,,,,,,,,,,,,,,,,,,,,,,,,,,,,,,,,,,,,,,,,t,1.9688715999945998,334.35535530000925,None,334.35535530000925,None,2022-10-04-13:21:10.414645,336.35368590000144,336.65287850001187,336.35368590000144,None,None,336.35368590000144,None,337.15310239999815,None,,,,21013,0001,2022_Oct_04_1315,localizer,2021.1.3,59.982353189994434,
block,scrambled,scrambled021.bmp,,,,,0,184,184,184,,,,,,,,,,,,,,,,,,,,,,,,,,,,,,,,,,,,,,,,,,None,,337.15310239999815,None,337.15310239999815,None,2022-10-04-13:21:11.217258,337.1652260999981,337.4703415000113,337.1652260999981,337.1652260999981,None,337.1652260999981,337.1652260999981,337.96960830000023,None,,,,21013,0001,2022_Oct_04_1315,localizer,2021.1.3,59.982353189994434,
block,scrambled,scrambled087.bmp,,,,,0,185,185,185,,,,,,,,,,,,,,,,,,,,,,,,,,,,,,,,,,,,,,,,,,None,,337.96960830000023,None,337.96960830000023,None,2022-10-04-13:21:12.031610,337.9710075000039,338.28629170000204,337.9710075000039,None,None,337.9710075000039,None,338.78631750000784,None,,,,21013,0001,2022_Oct_04_1315,localizer,2021.1.3,59.982353189994434,
block,scrambled,scrambled073.bmp,,,,,0,186,186,186,,,,,,,,,,,,,,,,,,,,,,,,,,,,,,,,,,,,,,,,,,None,,338.78631750000784,None,338.78631750000784,None,2022-10-04-13:21:12.848481,338.79545510000025,339.1028376000031,338.79545510000025,None,None,338.79545510000025,None,339.6041875000068,None,,,,21013,0001,2022_Oct_04_1315,localizer,2021.1.3,59.982353189994434,
block,scrambled,scrambled039.bmp,,,,,0,187,187,187,,,,,,,,,,,,,,,,,,,,,,,,,,,,,,,,,,,,,,,,,,None,,339.6041875000068,None,339.6041875000068,None,2022-10-04-13:21:13.668350,339.60715670000354,339.9194695000042,339.60715670000354,None,None,339.60715670000354,None,340.41953189999765,None,,,,21013,0001,2022_Oct_04_1315,localizer,2021.1.3,59.982353189994434,
block,scrambled,scrambled063.bmp,,,,,0,188,188,188,,,,,,,,,,,,,,,,,,,,,,,,,,,,,,,,,,,,,,,,,,None,,340.41953189999765,None,340.41953189999765,None,2022-10-04-13:21:14.481695,340.4204499000043,340.7195553000056,340.4204499000043,None,None,340.4204499000043,None,341.2207495000024,None,,,,21013,0001,2022_Oct_04_1315,localizer,2021.1.3,59.982353189994434,
block,scrambled,scrambled063.bmp,,,,,0,189,189,189,,,,,,,,,,,,,,,,,,,,,,,,,,,,,,,,,,,,,,,,,,None,,341.2207495000024,None,341.2207495000024,None,2022-10-04-13:21:15.287931,341.22599610000907,341.53656839999894,341.22599610000907,341.22599610000907,None,341.22599610000907,341.22599610000907,342.0362178000054,None,,,,21013,0001,2022_Oct_04_1315,localizer,2021.1.3,59.982353189994434,
block,scrambled,scrambled010.bmp,,,,,0,190,190,190,,,,,,,,,,,,,,,,,,,,,,,,,,,,,,,,,,,,,,,,,,None,,342.0362178000054,None,342.0362178000054,None,2022-10-04-13:21:16.098648,342.041051600012,342.3527143000101,342.041051600012,None,y,342.041051600012,None,342.8551665000108,None,0.08500819999608211,,,21013,0001,2022_Oct_04_1315,localizer,2021.1.3,59.982353189994434,
block,scrambled,scrambled001.bmp,,,,,0,191,191,191,,,,,,,,,,,,,,,,,,,,,,,,,,,,,,,,,,,,,,,,,,None,,342.8551665000108,None,342.8551665000108,None,2022-10-04-13:21:16.919997,342.86344110000937,343.16963060000853,342.86344110000937,None,None,342.86344110000937,None,343.6756500000032,None,,,,21013,0001,2022_Oct_04_1315,localizer,2021.1.3,59.982353189994434,
block,scrambled,scrambled062.bmp,,,,,0,192,192,192,,,,,,,,,,,,,,,,,,,,,,,,,,,,,,,,,,,,,,,,,,None,,343.6756500000032,None,343.6756500000032,None,2022-10-04-13:21:17.741858,343.6907987000013,344.0032532000041,343.6907987000013,None,None,343.6907987000013,None,344.4862274000028,None,,,,21013,0001,2022_Oct_04_1315,localizer,2021.1.3,59.982353189994434,
block,scrambled,scrambled005.bmp,,,,,0,193,193,193,,,,,,,,,,,,,,,,,,,,,,,,,,,,,,,,,,,,,,,,,,None,,344.4862274000028,None,344.4862274000028,None,2022-10-04-13:21:18.548391,344.487140000012,344.7925690999982,344.487140000012,None,None,344.487140000012,None,345.28756320000537,None,,,,21013,0001,2022_Oct_04_1315,localizer,2021.1.3,59.982353189994434,
block,scrambled,scrambled072.bmp,,,,,0,194,194,194,,,,,,,,,,,,,,,,,,,,,,,,,,,,,,,,,,,,,,,,,,None,,345.28756320000537,None,345.28756320000537,None,2022-10-04-13:21:19.354695,345.3037706000032,345.60375550000754,345.3037706000032,345.3037706000032,None,345.3037706000032,345.3037706000032,346.10295630000326,None,,,,21013,0001,2022_Oct_04_1315,localizer,2021.1.3,59.982353189994434,
block,scrambled,scrambled081.bmp,,,,,0,195,195,195,,,,,,,,,,,,,,,,,,,,,,,,,,,,,,,,,,,,,,,,,,None,,346.10295630000326,None,346.10295630000326,None,2022-10-04-13:21:20.165121,346.1102993000095,346.42343280000205,346.1102993000095,None,None,346.1102993000095,None,346.9075646999976,None,,,,21013,0001,2022_Oct_04_1315,localizer,2021.1.3,59.982353189994434,
block,scrambled,scrambled019.bmp,,,,,0,196,196,196,,,,,,,,,,,,,,,,,,,,,,,,,,,,,,,,,,,,,,,,,,None,,346.9075646999976,None,346.9075646999976,None,2022-10-04-13:21:20.972689,346.9207289000042,347.2361557000113,346.9207289000042,None,None,346.9207289000042,None,347.71962260000726,None,,,,21013,0001,2022_Oct_04_1315,localizer,2021.1.3,59.982353189994434,
block_end,scrambled,scrambled012.bmp,,,,,0,197,197,197,,,,,,,,,,,,,,,,,,,,,,,,,,,,,,,,,,,,,,,,,,None,,347.71962260000726,None,347.71962260000726,None,2022-10-04-13:21:21.781789,347.72039100000984,348.0204238000006,347.72039100000984,None,None,347.72039100000984,None,348.5217600000018,None,,,,21013,0001,2022_Oct_04_1315,localizer,2021.1.3,59.982353189994434,
null_block,null_block,null_block.bmp,,,,,0,198,198,198,,,,,,,,,,,,,,,,,,,,,,,,,,,,,,,,,,,,,,,,,,t,1.8020931000064593,348.5220360000094,None,348.5220360000094,None,2022-10-04-13:21:24.413965,350.35279470000967,None,350.35279470000967,None,None,350.35279470000967,None,350.3554002000019,None,,,,21013,0001,2022_Oct_04_1315,localizer,2021.1.3,59.982353189994434,
block_start,objects,objects064.bmp,,,,,0,199,199,199,,,,,,,,,,,,,,,,,,,,,,,,,,,,,,,,,,,,,,,,,,t,1.9546256999892648,362.3698185000103,None,362.3698185000103,None,2022-10-04-13:21:38.418953,364.36650139999983,364.6697050000075,364.36650139999983,None,None,364.36650139999983,None,365.17608250000774,None,,,,21013,0001,2022_Oct_04_1315,localizer,2021.1.3,59.982353189994434,
block,objects,objects066.bmp,,,,,0,200,200,200,,,,,,,,,,,,,,,,,,,,,,,,,,,,,,,,,,,,,,,,,,None,,365.17608250000774,None,365.17608250000774,None,2022-10-04-13:21:39.246216,365.19070170000487,365.5032288000075,365.19070170000487,None,None,365.19070170000487,None,365.9864031000019,None,,,,21013,0001,2022_Oct_04_1315,localizer,2021.1.3,59.982353189994434,
block,objects,objects057.bmp,,,,,0,201,201,201,,,,,,,,,,,,,,,,,,,,,,,,,,,,,,,,,,,,,,,,,,None,,365.9864031000019,None,365.9864031000019,None,2022-10-04-13:21:40.047909,365.99516610000865,366.3029486000014,365.99516610000865,None,None,365.99516610000865,None,366.80384520000223,None,,,,21013,0001,2022_Oct_04_1315,localizer,2021.1.3,59.982353189994434,
block,objects,objects082.bmp,,,,,0,202,202,202,,,,,,,,,,,,,,,,,,,,,,,,,,,,,,,,,,,,,,,,,,None,,366.80384520000223,None,366.80384520000223,None,2022-10-04-13:21:40.866936,366.8144401000027,367.1204555000004,366.8144401000027,None,None,366.8144401000027,None,367.6197226000062,None,,,,21013,0001,2022_Oct_04_1315,localizer,2021.1.3,59.982353189994434,
block,objects,objects073.bmp,,,,,0,203,203,203,,,,,,,,,,,,,,,,,,,,,,,,,,,,,,,,,,,,,,,,,,None,,367.6197226000062,None,367.6197226000062,None,2022-10-04-13:21:41.681889,367.6283732000011,367.93598960000963,367.6283732000011,None,None,367.6283732000011,None,368.4402701000057,None,,,,21013,0001,2022_Oct_04_1315,localizer,2021.1.3,59.982353189994434,
block,objects,objects054.bmp,,,,,0,204,204,204,,,,,,,,,,,,,,,,,,,,,,,,,,,,,,,,,,,,,,,,,,None,,368.4402701000057,None,368.4402701000057,None,2022-10-04-13:21:42.509270,368.45808310000575,368.77012000000104,368.45808310000575,None,None,368.45808310000575,None,369.2544380000021,None,,,,21013,0001,2022_Oct_04_1315,localizer,2021.1.3,59.982353189994434,
block,objects,objects056.bmp,,,,,0,205,205,205,,,,,,,,,,,,,,,,,,,,,,,,,,,,,,,,,,,,,,,,,,None,,369.2544380000021,None,369.2544380000021,None,2022-10-04-13:21:43.320143,369.25799030000053,369.57984710000164,369.25799030000053,None,None,369.25799030000053,None,370.06989009999813,None,,,,21013,0001,2022_Oct_04_1315,localizer,2021.1.3,59.982353189994434,
block,objects,objects060.bmp,,,,,0,206,206,206,,,,,,,,,,,,,,,,,,,,,,,,,,,,,,,,,,,,,,,,,,None,,370.06989009999813,None,370.06989009999813,None,2022-10-04-13:21:44.132055,370.07926310000767,370.38633870000194,370.07926310000767,None,None,370.07926310000767,None,370.8884671999971,None,,,,21013,0001,2022_Oct_04_1315,localizer,2021.1.3,59.982353189994434,
block,objects,objects047.bmp,,,,,0,207,207,207,,,,,,,,,,,,,,,,,,,,,,,,,,,,,,,,,,,,,,,,,,None,,370.8884671999971,None,370.8884671999971,None,2022-10-04-13:21:44.952338,370.89708000000974,371.2038254000072,370.89708000000974,None,None,370.89708000000974,None,371.70380890001104,None,,,,21013,0001,2022_Oct_04_1315,localizer,2021.1.3,59.982353189994434,
block,objects,objects023.bmp,,,,,0,208,208,208,,,,,,,,,,,,,,,,,,,,,,,,,,,,,,,,,,,,,,,,,,None,,371.70380890001104,None,371.70380890001104,None,2022-10-04-13:21:45.767040,371.7057203000004,372.020571400004,371.7057203000004,None,None,371.7057203000004,None,372.51955280000254,None,,,,21013,0001,2022_Oct_04_1315,localizer,2021.1.3,59.982353189994434,
block,objects,objects009.bmp,,,,,0,209,209,209,,,,,,,,,,,,,,,,,,,,,,,,,,,,,,,,,,,,,,,,,,None,,372.51955280000254,None,372.51955280000254,None,2022-10-04-13:21:46.582225,372.5280810000113,372.8372754000011,372.5280810000113,None,None,372.5280810000113,None,373.3378174000085,None,,,,21013,0001,2022_Oct_04_1315,localizer,2021.1.3,59.982353189994434,
block,objects,objects083.bmp,,,,,0,210,210,210,,,,,,,,,,,,,,,,,,,,,,,,,,,,,,,,,,,,,,,,,,None,,373.3378174000085,None,373.3378174000085,None,2022-10-04-13:21:47.402668,373.34065740001097,373.65403720000177,373.34065740001097,None,None,373.34065740001097,None,374.15315360000966,None,,,,21013,0001,2022_Oct_04_1315,localizer,2021.1.3,59.982353189994434,
block,objects,objects059.bmp,,,,,0,211,211,211,,,,,,,,,,,,,,,,,,,,,,,,,,,,,,,,,,,,,,,,,,None,,374.15315360000966,None,374.15315360000966,None,2022-10-04-13:21:48.215830,374.1627303999994,374.4705670000112,374.1627303999994,None,None,374.1627303999994,None,374.9763194000101,None,,,,21013,0001,2022_Oct_04_1315,localizer,2021.1.3,59.982353189994434,
block,objects,objects043.bmp,,,,,0,212,212,212,,,,,,,,,,,,,,,,,,,,,,,,,,,,,,,,,,,,,,,,,,None,,374.9763194000101,None,374.9763194000101,None,2022-10-04-13:21:49.040767,374.9805485000106,375.28694040000846,374.9805485000106,None,None,374.9805485000106,None,375.78872409999747,None,,,,21013,0001,2022_Oct_04_1315,localizer,2021.1.3,59.982353189994434,
block_end,objects,objects071.bmp,,,,,0,213,213,213,,,,,,,,,,,,,,,,,,,,,,,,,,,,,,,,,,,,,,,,,,None,,375.78872409999747,None,375.78872409999747,None,2022-10-04-13:21:49.855843,375.80459410000185,376.11974710000504,375.80459410000185,None,None,375.80459410000185,None,376.6104256000093,None,,,,21013,0001,2022_Oct_04_1315,localizer,2021.1.3,59.982353189994434,
block_start,scenes,scenes030.bmp,,,,,0,214,214,214,,,,,,,,,,,,,,,,,,,,,,,,,,,,,,,,,,,,,,,,,,t,1.7157110999978613,376.6087395000068,None,376.6087395000068,None,2022-10-04-13:21:52.415982,378.3641130000033,378.670681100004,378.3641130000033,None,None,378.3641130000033,None,379.17134260000455,None,,,,21013,0001,2022_Oct_04_1315,localizer,2021.1.3,59.982353189994434,
block,scenes,scenes048.bmp,,,,,0,215,215,215,,,,,,,,,,,,,,,,,,,,,,,,,,,,,,,,,,,,,,,,,,None,,379.17134260000455,None,379.17134260000455,None,2022-10-04-13:21:53.235978,379.18949710000015,379.48846870000125,379.18949710000015,None,None,379.18949710000015,None,379.9878539000041,None,,,,21013,0001,2022_Oct_04_1315,localizer,2021.1.3,59.982353189994434,
block,scenes,scenes017.bmp,,,,,0,216,216,216,,,,,,,,,,,,,,,,,,,,,,,,,,,,,,,,,,,,,,,,,,None,,379.9878539000041,None,379.9878539000041,None,2022-10-04-13:21:54.053854,379.9916815000033,380.30329229999916,379.9916815000033,None,None,379.9916815000033,None,380.8032089000029,None,,,,21013,0001,2022_Oct_04_1315,localizer,2021.1.3,59.982353189994434,
block,scenes,scenes059.bmp,,,,,0,217,217,217,,,,,,,,,,,,,,,,,,,,,,,,,,,,,,,,,,,,,,,,,,None,,380.8032089000029,None,380.8032089000029,None,2022-10-04-13:21:54.865373,380.8113114000007,381.11971150001045,380.8113114000007,None,None,380.8113114000007,None,381.621352600005,None,,,,21013,0001,2022_Oct_04_1315,localizer,2021.1.3,59.982353189994434,
block,scenes,scenes031.bmp,,,,,0,218,218,218,,,,,,,,,,,,,,,,,,,,,,,,,,,,,,,,,,,,,,,,,,None,,381.621352600005,None,381.621352600005,None,2022-10-04-13:21:55.686257,381.6331355000002,381.9365734000021,381.6331355000002,None,None,381.6331355000002,None,382.43654140000433,None,,,,21013,0001,2022_Oct_04_1315,localizer,2021.1.3,59.982353189994434,
block,scenes,scenes081.bmp,,,,,0,219,219,219,,,,,,,,,,,,,,,,,,,,,,,,,,,,,,,,,,,,,,,,,,None,,382.43654140000433,None,382.43654140000433,None,2022-10-04-13:21:56.498706,382.44636660000833,382.753097599998,382.44636660000833,None,None,382.44636660000833,None,383.24358470000004,None,,,,21013,0001,2022_Oct_04_1315,localizer,2021.1.3,59.982353189994434,
block,scenes,scenes076.bmp,,,,,0,220,220,220,,,,,,,,,,,,,,,,,,,,,,,,,,,,,,,,,,,,,,,,,,None,,383.24358470000004,None,383.24358470000004,None,2022-10-04-13:21:57.313594,383.25303410000924,383.5536590999982,383.25303410000924,None,None,383.25303410000924,None,384.05419649999965,None,,,,21013,0001,2022_Oct_04_1315,localizer,2021.1.3,59.982353189994434,
block,scenes,scenes080.bmp,,,,,0,221,221,221,,,,,,,,,,,,,,,,,,,,,,,,,,,,,,,,,,,,,,,,,,None,,384.05419649999965,None,384.05419649999965,None,2022-10-04-13:21:58.117672,384.0564544000081,384.369640600009,384.0564544000081,None,None,384.0564544000081,None,384.8712899000078,None,,,,21013,0001,2022_Oct_04_1315,localizer,2021.1.3,59.982353189994434,
block,scenes,scenes012.bmp,,,,,0,222,222,222,,,,,,,,,,,,,,,,,,,,,,,,,,,,,,,,,,,,,,,,,,None,,384.8712899000078,None,384.8712899000078,None,2022-10-04-13:21:58.935741,384.8853705000074,385.1877678000019,384.8853705000074,None,None,384.8853705000074,None,385.6887980000014,None,,,,21013,0001,2022_Oct_04_1315,localizer,2021.1.3,59.982353189994434,
block,scenes,scenes088.bmp,,,,,0,223,223,223,,,,,,,,,,,,,,,,,,,,,,,,,,,,,,,,,,,,,,,,,,None,,385.6887980000014,None,385.6887980000014,None,2022-10-04-13:21:59.754823,385.6927574000001,386.00324370000453,385.6927574000001,None,None,385.6927574000001,None,386.50310580000075,None,,,,21013,0001,2022_Oct_04_1315,localizer,2021.1.3,59.982353189994434,
block,scenes,scenes044.bmp,,,,,0,224,224,224,,,,,,,,,,,,,,,,,,,,,,,,,,,,,,,,,,,,,,,,,,None,,386.50310580000075,None,386.50310580000075,None,2022-10-04-13:22:00.564308,386.51126530001056,386.819891200008,386.51126530001056,None,None,386.51126530001056,None,387.31982450000794,None,,,,21013,0001,2022_Oct_04_1315,localizer,2021.1.3,59.982353189994434,
block,scenes,scenes011.bmp,,,,,0,225,225,225,,,,,,,,,,,,,,,,,,,,,,,,,,,,,,,,,,,,,,,,,,None,,387.31982450000794,None,387.31982450000794,None,2022-10-04-13:22:01.382235,387.32895239999925,387.6371889000002,387.32895239999925,None,None,387.32895239999925,None,388.13693649999766,None,,,,21013,0001,2022_Oct_04_1315,localizer,2021.1.3,59.982353189994434,
block,scenes,scenes053.bmp,,,,,0,226,226,226,,,,,,,,,,,,,,,,,,,,,,,,,,,,,,,,,,,,,,,,,,None,,388.13693649999766,None,388.13693649999766,None,2022-10-04-13:22:02.198835,388.1458530000091,388.4534843000001,388.1458530000091,None,None,388.1458530000091,None,388.9535698000094,None,,,,21013,0001,2022_Oct_04_1315,localizer,2021.1.3,59.982353189994434,
block,scenes,scenes002.bmp,,,,,0,227,227,227,,,,,,,,,,,,,,,,,,,,,,,,,,,,,,,,,,,,,,,,,,None,,388.9535698000094,None,388.9535698000094,None,2022-10-04-13:22:03.016345,388.95429230001173,389.26938009999867,388.95429230001173,None,None,388.95429230001173,None,389.75478580000197,None,,,,21013,0001,2022_Oct_04_1315,localizer,2021.1.3,59.982353189994434,
block_end,scenes,scenes046.bmp,,,,,0,228,228,228,,,,,,,,,,,,,,,,,,,,,,,,,,,,,,,,,,,,,,,,,,None,,389.75478580000197,None,389.75478580000197,None,2022-10-04-13:22:03.820936,389.76017340000544,390.069942800008,389.76017340000544,389.76017340000544,None,389.76017340000544,389.76017340000544,390.57117590000996,None,,,,21013,0001,2022_Oct_04_1315,localizer,2021.1.3,59.982353189994434,
block_start,faces,faces017.bmp,,,,,0,229,229,229,,,,,,,,,,,,,,,,,,,,,,,,,,,,,,,,,,,,,,,,,,t,1.7534344000014244,390.5712079000077,None,390.5712079000077,None,2022-10-04-13:22:06.426527,392.37744860000385,392.6867193000071,392.37744860000385,None,None,392.37744860000385,None,393.1726956000042,None,,,,21013,0001,2022_Oct_04_1315,localizer,2021.1.3,59.982353189994434,
block,faces,faces058.bmp,,,,,0,230,230,230,,,,,,,,,,,,,,,,,,,,,,,,,,,,,,,,,,,,,,,,,,None,,393.1726956000042,None,393.1726956000042,None,2022-10-04-13:22:07.235836,393.18543290000525,393.487343300003,393.18543290000525,None,None,393.18543290000525,None,393.98664870000937,None,,,,21013,0001,2022_Oct_04_1315,localizer,2021.1.3,59.982353189994434,
block,faces,faces071.bmp,,,,,0,231,231,231,,,,,,,,,,,,,,,,,,,,,,,,,,,,,,,,,,,,,,,,,,None,,393.98664870000937,None,393.98664870000937,None,2022-10-04-13:22:08.049042,393.98785710000084,394.30322450000676,393.98785710000084,None,None,393.98785710000084,None,394.78870430000677,None,,,,21013,0001,2022_Oct_04_1315,localizer,2021.1.3,59.982353189994434,
block,faces,faces057.bmp,,,,,0,232,232,232,,,,,,,,,,,,,,,,,,,,,,,,,,,,,,,,,,,,,,,,,,None,,394.78870430000677,None,394.78870430000677,None,2022-10-04-13:22:08.856394,394.7956731000013,395.1096999000001,394.7956731000013,394.7956731000013,None,394.7956731000013,394.7956731000013,395.6042672000025,None,,,,21013,0001,2022_Oct_04_1315,localizer,2021.1.3,59.982353189994434,
block,faces,faces076.bmp,,,,,0,233,233,233,,,,,,,,,,,,,,,,,,,,,,,,,,,,,,,,,,,,,,,,,,None,,395.6042672000025,None,395.6042672000025,None,2022-10-04-13:22:09.667268,395.6167293000035,395.92003930000647,395.6167293000035,None,None,395.6167293000035,None,396.4103643999973,None,,,,21013,0001,2022_Oct_04_1315,localizer,2021.1.3,59.982353189994434,
block,faces,faces039.bmp,,,,,0,234,234,234,,,,,,,,,,,,,,,,,,,,,,,,,,,,,,,,,,,,,,,,,,None,,396.4103643999973,None,396.4103643999973,None,2022-10-04-13:22:10.480671,396.4201283000002,396.7198220999999,396.4201283000002,None,None,396.4201283000002,None,397.2208108000035,None,,,,21013,0001,2022_Oct_04_1315,localizer,2021.1.3,59.982353189994434,
block,faces,faces078.bmp,,,,,0,235,235,235,,,,,,,,,,,,,,,,,,,,,,,,,,,,,,,,,,,,,,,,,,None,,397.2208108000035,None,397.2208108000035,None,2022-10-04-13:22:11.283795,397.2221772000048,397.52001120000205,397.2221772000048,None,None,397.2221772000048,None,398.0365582000071,None,,,,21013,0001,2022_Oct_04_1315,localizer,2021.1.3,59.982353189994434,
block,faces,faces038.bmp,,,,,0,236,236,236,,,,,,,,,,,,,,,,,,,,,,,,,,,,,,,,,,,,,,,,,,None,,398.0365582000071,None,398.0365582000071,None,2022-10-04-13:22:12.098946,398.05200850000256,398.35406680000597,398.05200850000256,None,None,398.05200850000256,None,398.85311950000903,None,,,,21013,0001,2022_Oct_04_1315,localizer,2021.1.3,59.982353189994434,
block,faces,faces050.bmp,,,,,0,237,237,237,,,,,,,,,,,,,,,,,,,,,,,,,,,,,,,,,,,,,,,,,,None,,398.85311950000903,None,398.85311950000903,None,2022-10-04-13:22:12.914890,398.8549774999992,399.16999800001213,398.8549774999992,None,None,398.8549774999992,None,399.6699088000008,None,,,,21013,0001,2022_Oct_04_1315,localizer,2021.1.3,59.982353189994434,
block,faces,faces080.bmp,,,,,0,238,238,238,,,,,,,,,,,,,,,,,,,,,,,,,,,,,,,,,,,,,,,,,,None,,399.6699088000008,None,399.6699088000008,None,2022-10-04-13:22:13.732140,399.67174410000734,399.98658100000466,399.67174410000734,None,None,399.67174410000734,None,400.4868351000026,None,,,,21013,0001,2022_Oct_04_1315,localizer,2021.1.3,59.982353189994434,
block,faces,faces022.bmp,,,,,0,239,239,239,,,,,,,,,,,,,,,,,,,,,,,,,,,,,,,,,,,,,,,,,,None,,400.4868351000026,None,400.4868351000026,None,2022-10-04-13:22:14.548983,400.4988435999985,400.80400910000026,400.4988435999985,None,None,400.4988435999985,None,401.30464440000503,None,,,,21013,0001,2022_Oct_04_1315,localizer,2021.1.3,59.982353189994434,
block,faces,faces031.bmp,,,,,0,240,240,240,,,,,,,,,,,,,,,,,,,,,,,,,,,,,,,,,,,,,,,,,,None,,401.30464440000503,None,401.30464440000503,None,2022-10-04-13:22:15.368762,401.3143362000119,401.6199545999989,401.3143362000119,None,None,401.3143362000119,None,402.1238730000026,None,,,,21013,0001,2022_Oct_04_1315,localizer,2021.1.3,59.982353189994434,
block,faces,faces088.bmp,,,,,0,241,241,241,,,,,,,,,,,,,,,,,,,,,,,,,,,,,,,,,,,,,,,,,,None,,402.1238730000026,None,402.1238730000026,None,2022-10-04-13:22:16.191168,402.1397636000038,402.45301540000946,402.1397636000038,None,None,402.1397636000038,None,402.9373179000089,None,,,,21013,0001,2022_Oct_04_1315,localizer,2021.1.3,59.982353189994434,
block,faces,faces018.bmp,,,,,0,242,242,242,,,,,,,,,,,,,,,,,,,,,,,,,,,,,,,,,,,,,,,,,,None,,402.9373179000089,None,402.9373179000089,None,2022-10-04-13:22:17.000426,402.93806530001166,403.2431983999995,402.93806530001166,None,None,402.93806530001166,None,403.75331330000915,None,,,,21013,0001,2022_Oct_04_1315,localizer,2021.1.3,59.982353189994434,
block_end,faces,faces081.bmp,,,,,0,243,243,243,,,,,,,,,,,,,,,,,,,,,,,,,,,,,,,,,,,,,,,,,,None,,403.75331330000915,None,403.75331330000915,None,2022-10-04-13:22:17.816005,403.76450280001154,404.06997150000825,403.76450280001154,None,None,403.76450280001154,None,404.57116350000285,None,,,,21013,0001,2022_Oct_04_1315,localizer,2021.1.3,59.982353189994434,
,,,,,,,,,,,,,,,,,,,,,,,,,,,,,,,,,,,,,,,,,,,,,,,,,,,,,,,,,,,,,,,,,,,,,404.57217130000936,None,,,,,,,
