block_type,condition,img_name,Button.thisRepN,Button.thisTrialN,Button.thisN,Button.thisIndex,trials.thisRepN,trials.thisTrialN,trials.thisN,trials.thisIndex,Ready_experimenter_text.started,Ready_experimenter_text.stopped,Ready_experimenter_resp.keys,Ready_experimenter_resp.rt,Ready_experimenter_resp.started,Ready_experimenter_resp.stopped,Alignment_background.started,Alignment_background.stopped,Alignment_image.started,Alignment_image.stopped,Alignment_resp.keys,Alignment_resp.rt,Alignment_resp.started,Alignment_resp.stopped,Button_text.started,Button_text.stopped,Index_text.started,Index_text.stopped,Index_resp.keys,Index_resp.rt,Index_resp.started,Index_resp.stopped,Middle_text.started,Middle_text.stopped,Middle_resp.keys,Middle_resp.rt,Middle_resp.started,Middle_resp.stopped,Repeat_text.started,Repeat_text.stopped,Repeat_resp.keys,Repeat_resp.corr,Repeat_resp.rt,Repeat_resp.started,Repeat_resp.stopped,instruction_text.started,instruction_text.stopped,key_resp.keys,key_resp.rt,key_resp.started,key_resp.stopped,scanner_t.keys,scanner_t.rt,scanner_t.started,scanner_t.stopped,fixation_wait_for_t.started,fixation_wait_for_t.stopped,real_timestamp_trial_start,image.started,image.stopped,fixation.started,fixation.stopped,repeat_response.keys,repeat_response.started,repeat_response.stopped,fixation_null.started,fixation_null.stopped,repeat_response.rt,end_text.started,end_text.stopped,participant,run,date,expName,psychopyVersion,frameRate,
,,,,,,,,,,,9.276578700000755,None,return,47.73002550000092,9.276578700000755,None,,,,,,,,,,,,,,,,,,,,,,,,,,,,,,,,,,,,,,,,,,,,,,,,,,,,,,,21008,0001,2022_Jul_26_1133,localizer,2021.1.3,59.93823963772794,
,,,,,,,,,,,,,,,,,57.05723930000022,None,57.05723930000022,None,return,6.236629299999549,57.05723930000022,None,,,,,,,,,,,,,,,,,,,,,,,,,,,,,,,,,,,,,,,,,,,,,,,21008,0001,2022_Jul_26_1133,localizer,2021.1.3,59.93823963772794,
,,,0,0,0,0,,,,,,,,,,,,,,,,,,,63.31406910000078,None,64.33285510000132,None,y,2.2088581999996677,64.33285510000132,None,66.56074110000009,None,b,1.2790633999993588,66.56074110000009,None,67.86796780000077,None,n,0,1.352081500001077,67.86796780000077,None,,,,,,,,,,,,,,,,,,,,,,,,,,21008,0001,2022_Jul_26_1133,localizer,2021.1.3,59.93823963772794,
,,,,,,,,,,,,,,,,,,,,,,,,,,,,,,,,,,,,,,,,,,,,,,69.24434680000013,None,y,36.65418049999971,69.24434680000013,None,,,,,,,,,,,,,,,,,,,,21008,0001,2022_Jul_26_1133,localizer,2021.1.3,59.93823963772794,
null_block,null_block,null_block.bmp,,,,,0,0,0,0,,,,,,,,,,,,,,,,,,,,,,,,,,,,,,,,,,,,,,,,,,t,15.578100300001097,105.99627880000116,None,105.99627880000116,None,2022-07-26-11:35:03.627489,121.60995278000081,None,121.60995278000081,None,None,121.60995278000081,None,121.6071236000007,None,,,,21008,0001,2022_Jul_26_1133,localizer,2021.1.3,59.93823963772794,
block_start,scenes,scenes006.bmp,,,,,0,1,1,1,,,,,,,,,,,,,,,,,,,,,,,,,,,,,,,,,,,,,,,,,,t,1.9576799999995274,133.61680630000046,None,133.61680630000046,None,2022-07-26-11:35:17.631857,135.6091395000003,135.91025860000082,135.6091395000003,None,None,135.6091395000003,None,136.41055974000173,None,,,,21008,0001,2022_Jul_26_1133,localizer,2021.1.3,59.93823963772794,
block,scenes,scenes060.bmp,,,,,0,2,2,2,,,,,,,,,,,,,,,,,,,,,,,,,,,,,,,,,,,,,,,,,,None,,136.41055974000173,None,136.41055974000173,None,2022-07-26-11:35:18.447079,136.41750070000126,136.7271193000015,136.41750070000126,None,None,136.41750070000126,None,137.22681724000049,None,,,,21008,0001,2022_Jul_26_1133,localizer,2021.1.3,59.93823963772794,
block,scenes,scenes035.bmp,,,,,0,3,3,3,,,,,,,,,,,,,,,,,,,,,,,,,,,,,,,,,,,,,,,,,,None,,137.22681724000049,None,137.22681724000049,None,2022-07-26-11:35:19.262849,137.2369260000014,137.55016330000035,137.2369260000014,None,None,137.2369260000014,None,138.04399824000083,None,,,,21008,0001,2022_Jul_26_1133,localizer,2021.1.3,59.93823963772794,
block,scenes,scenes001.bmp,,,,,0,4,4,4,,,,,,,,,,,,,,,,,,,,,,,,,,,,,,,,,,,,,,,,,,None,,138.04399824000083,None,138.04399824000083,None,2022-07-26-11:35:20.080224,138.05488360000163,138.36691670000073,138.05488360000163,None,None,138.05488360000163,None,138.8639067400005,None,,,,21008,0001,2022_Jul_26_1133,localizer,2021.1.3,59.93823963772794,
block,scenes,scenes012.bmp,,,,,0,5,5,5,,,,,,,,,,,,,,,,,,,,,,,,,,,,,,,,,,,,,,,,,,None,,138.8639067400005,None,138.8639067400005,None,2022-07-26-11:35:20.908994,138.88331430000108,139.19339000000036,138.88331430000108,None,None,138.88331430000108,None,139.67820014000117,None,,,,21008,0001,2022_Jul_26_1133,localizer,2021.1.3,59.93823963772794,
block,scenes,scenes031.bmp,,,,,0,6,6,6,,,,,,,,,,,,,,,,,,,,,,,,,,,,,,,,,,,,,,,,,,None,,139.67820014000117,None,139.67820014000117,None,2022-07-26-11:35:21.716164,139.6924966000006,139.99366680000094,139.6924966000006,None,None,139.6924966000006,None,140.4936310400013,None,,,,21008,0001,2022_Jul_26_1133,localizer,2021.1.3,59.93823963772794,
block,scenes,scenes066.bmp,,,,,0,7,7,7,,,,,,,,,,,,,,,,,,,,,,,,,,,,,,,,,,,,,,,,,,None,,140.4936310400013,None,140.4936310400013,None,2022-07-26-11:35:22.530012,140.4999297000013,140.81032030000097,140.4999297000013,None,None,140.4999297000013,None,141.31098274000087,None,,,,21008,0001,2022_Jul_26_1133,localizer,2021.1.3,59.93823963772794,
block,scenes,scenes085.bmp,,,,,0,8,8,8,,,,,,,,,,,,,,,,,,,,,,,,,,,,,,,,,,,,,,,,,,None,,141.31098274000087,None,141.31098274000087,None,2022-07-26-11:35:23.347995,141.3232594000001,141.62704230000054,141.3232594000001,None,None,141.3232594000001,None,142.12754604000165,None,,,,21008,0001,2022_Jul_26_1133,localizer,2021.1.3,59.93823963772794,
block,scenes,scenes024.bmp,,,,,0,9,9,9,,,,,,,,,,,,,,,,,,,,,,,,,,,,,,,,,,,,,,,,,,None,,142.12754604000165,None,142.12754604000165,None,2022-07-26-11:35:24.163625,142.13830850000159,142.44389030000093,142.13830850000159,None,None,142.13830850000159,None,142.94343784000066,None,,,,21008,0001,2022_Jul_26_1133,localizer,2021.1.3,59.93823963772794,
block,scenes,scenes083.bmp,,,,,0,10,10,10,,,,,,,,,,,,,,,,,,,,,,,,,,,,,,,,,,,,,,,,,,None,,142.94343784000066,None,142.94343784000066,None,2022-07-26-11:35:24.979467,142.95347430000038,143.26077179999993,142.95347430000038,None,None,142.95347430000038,None,143.76153484000005,None,,,,21008,0001,2022_Jul_26_1133,localizer,2021.1.3,59.93823963772794,
block,scenes,scenes050.bmp,,,,,0,11,11,11,,,,,,,,,,,,,,,,,,,,,,,,,,,,,,,,,,,,,,,,,,None,,143.76153484000005,None,143.76153484000005,None,2022-07-26-11:35:25.799730,143.77628650000042,144.07737860000088,143.77628650000042,None,None,143.77628650000042,None,144.5776444400004,None,,,,21008,0001,2022_Jul_26_1133,localizer,2021.1.3,59.93823963772794,
block,scenes,scenes092.bmp,,,,,0,12,12,12,,,,,,,,,,,,,,,,,,,,,,,,,,,,,,,,,,,,,,,,,,None,,144.5776444400004,None,144.5776444400004,None,2022-07-26-11:35:26.614862,144.5857640000013,144.8946360000009,144.5857640000013,None,None,144.5857640000013,None,145.39374604000167,None,,,,21008,0001,2022_Jul_26_1133,localizer,2021.1.3,59.93823963772794,
block,scenes,scenes045.bmp,,,,,0,13,13,13,,,,,,,,,,,,,,,,,,,,,,,,,,,,,,,,,,,,,,,,,,None,,145.39374604000167,None,145.39374604000167,None,2022-07-26-11:35:27.429771,145.4039795000008,145.71077970000078,145.4039795000008,None,None,145.4039795000008,None,146.21160264000045,None,,,,21008,0001,2022_Jul_26_1133,localizer,2021.1.3,59.93823963772794,
block,scenes,scenes043.bmp,,,,,0,14,14,14,,,,,,,,,,,,,,,,,,,,,,,,,,,,,,,,,,,,,,,,,,None,,146.21160264000045,None,146.21160264000045,None,2022-07-26-11:35:28.249609,146.22473010000067,146.52710450000086,146.22473010000067,None,None,146.22473010000067,None,147.02693424000117,None,,,,21008,0001,2022_Jul_26_1133,localizer,2021.1.3,59.93823963772794,
block_end,scenes,scenes030.bmp,,,,,0,15,15,15,,,,,,,,,,,,,,,,,,,,,,,,,,,,,,,,,,,,,,,,,,None,,147.02693424000117,None,147.02693424000117,None,2022-07-26-11:35:29.062964,147.03566590000082,147.34384840000166,147.03566590000082,None,None,147.03566590000082,None,147.84443724000138,None,,,,21008,0001,2022_Jul_26_1133,localizer,2021.1.3,59.93823963772794,
block_start,objects,objects076.bmp,,,,,0,16,16,16,,,,,,,,,,,,,,,,,,,,,,,,,,,,,,,,,,,,,,,,,,t,1.730252900000778,147.84444340000118,None,147.84444340000118,None,2022-07-26-11:35:31.627798,149.60180949999994,149.91045810000105,149.60180949999994,None,None,149.60180949999994,None,150.41048854000164,None,,,,21008,0001,2022_Jul_26_1133,localizer,2021.1.3,59.93823963772794,
block,objects,objects044.bmp,,,,,0,17,17,17,,,,,,,,,,,,,,,,,,,,,,,,,,,,,,,,,,,,,,,,,,None,,150.41048854000164,None,150.41048854000164,None,2022-07-26-11:35:32.447260,150.42065340000045,150.72697860000153,150.42065340000045,None,None,150.42065340000045,None,151.22681624000015,None,,,,21008,0001,2022_Jul_26_1133,localizer,2021.1.3,59.93823963772794,
block,objects,objects009.bmp,,,,,0,18,18,18,,,,,,,,,,,,,,,,,,,,,,,,,,,,,,,,,,,,,,,,,,None,,151.22681624000015,None,151.22681624000015,None,2022-07-26-11:35:33.262848,151.23601860000053,151.5503144000013,151.23601860000053,None,None,151.23601860000053,None,152.04394094000108,None,,,,21008,0001,2022_Jul_26_1133,localizer,2021.1.3,59.93823963772794,
block,objects,objects058.bmp,,,,,0,19,19,19,,,,,,,,,,,,,,,,,,,,,,,,,,,,,,,,,,,,,,,,,,None,,152.04394094000108,None,152.04394094000108,None,2022-07-26-11:35:34.080105,152.0550699000014,152.3603262000015,152.0550699000014,None,None,152.0550699000014,None,152.86053214000148,None,,,,21008,0001,2022_Jul_26_1133,localizer,2021.1.3,59.93823963772794,
block,objects,objects010.bmp,,,,,0,20,20,20,,,,,,,,,,,,,,,,,,,,,,,,,,,,,,,,,,,,,,,,,,None,,152.86053214000148,None,152.86053214000148,None,2022-07-26-11:35:34.896557,152.87135410000155,153.17697510000107,152.87135410000155,None,None,152.87135410000155,None,153.67687234000059,None,,,,21008,0001,2022_Jul_26_1133,localizer,2021.1.3,59.93823963772794,
block,objects,objects041.bmp,,,,,0,21,21,21,,,,,,,,,,,,,,,,,,,,,,,,,,,,,,,,,,,,,,,,,,None,,153.67687234000059,None,153.67687234000059,None,2022-07-26-11:35:35.712904,153.68541220000043,153.993938900001,153.68541220000043,None,None,153.68541220000043,None,154.4943908400006,None,,,,21008,0001,2022_Jul_26_1133,localizer,2021.1.3,59.93823963772794,
block,objects,objects067.bmp,,,,,0,22,22,22,,,,,,,,,,,,,,,,,,,,,,,,,,,,,,,,,,,,,,,,,,None,,154.4943908400006,None,154.4943908400006,None,2022-07-26-11:35:36.531765,154.50606750000043,154.81070960000034,154.50606750000043,None,None,154.50606750000043,None,155.31082874000148,None,,,,21008,0001,2022_Jul_26_1133,localizer,2021.1.3,59.93823963772794,
block,objects,objects048.bmp,,,,,0,23,23,23,,,,,,,,,,,,,,,,,,,,,,,,,,,,,,,,,,,,,,,,,,None,,155.31082874000148,None,155.31082874000148,None,2022-07-26-11:35:37.346848,155.32061430000067,155.62707220000084,155.32061430000067,None,None,155.32061430000067,None,156.12769914000145,None,,,,21008,0001,2022_Jul_26_1133,localizer,2021.1.3,59.93823963772794,
block,objects,objects061.bmp,,,,,0,24,24,24,,,,,,,,,,,,,,,,,,,,,,,,,,,,,,,,,,,,,,,,,,None,,156.12769914000145,None,156.12769914000145,None,2022-07-26-11:35:38.164740,156.13941120000163,156.44393889999992,156.13941120000163,None,None,156.13941120000163,None,156.94335144000124,None,,,,21008,0001,2022_Jul_26_1133,localizer,2021.1.3,59.93823963772794,
block,objects,objects016.bmp,,,,,0,25,25,25,,,,,,,,,,,,,,,,,,,,,,,,,,,,,,,,,,,,,,,,,,None,,156.94335144000124,None,156.94335144000124,None,2022-07-26-11:35:38.978341,156.94801010000083,157.26034710000022,156.94801010000083,None,None,156.94801010000083,None,157.7602442400008,None,,,,21008,0001,2022_Jul_26_1133,localizer,2021.1.3,59.93823963772794,
block,objects,objects053.bmp,,,,,0,26,26,26,,,,,,,,,,,,,,,,,,,,,,,,,,,,,,,,,,,,,,,,,,None,,157.7602442400008,None,157.7602442400008,None,2022-07-26-11:35:39.796272,157.7699614000012,158.07753420000154,157.7699614000012,None,None,157.7699614000012,None,158.58450634000164,None,,,,21008,0001,2022_Jul_26_1133,localizer,2021.1.3,59.93823963772794,
block,objects,objects027.bmp,,,,,0,27,27,27,,,,,,,,,,,,,,,,,,,,,,,,,,,,,,,,,,,,,,,,,,None,,158.58450634000164,None,158.58450634000164,None,2022-07-26-11:35:40.627391,158.6000813999999,158.91030760000103,158.6000813999999,None,None,158.6000813999999,None,159.3943597400017,None,,,,21008,0001,2022_Jul_26_1133,localizer,2021.1.3,59.93823963772794,
block,objects,objects057.bmp,,,,,0,28,28,28,,,,,,,,,,,,,,,,,,,,,,,,,,,,,,,,,,,,,,,,,,None,,159.3943597400017,None,159.3943597400017,None,2022-07-26-11:35:41.431376,159.40609510000104,159.71044580000125,159.40609510000104,None,None,159.40609510000104,None,160.21096784000164,None,,,,21008,0001,2022_Jul_26_1133,localizer,2021.1.3,59.93823963772794,
block,objects,objects011.bmp,,,,,0,29,29,29,,,,,,,,,,,,,,,,,,,,,,,,,,,,,,,,,,,,,,,,,,None,,160.21096784000164,None,160.21096784000164,None,2022-07-26-11:35:42.248162,160.22290900000007,160.53096460000052,160.22290900000007,None,None,160.22290900000007,None,161.0269120400013,None,,,,21008,0001,2022_Jul_26_1133,localizer,2021.1.3,59.93823963772794,
block_end,objects,objects063.bmp,,,,,0,30,30,30,,,,,,,,,,,,,,,,,,,,,,,,,,,,,,,,,,,,,,,,,,None,,161.0269120400013,None,161.0269120400013,None,2022-07-26-11:35:43.062980,161.0355412000008,161.34423950000019,161.0355412000008,None,None,161.0355412000008,None,161.84411664000126,None,,,,21008,0001,2022_Jul_26_1133,localizer,2021.1.3,59.93823963772794,
block_start,faces,faces044.bmp,,,,,0,31,31,31,,,,,,,,,,,,,,,,,,,,,,,,,,,,,,,,,,,,,,,,,,t,1.7305980000001,161.8440100000007,None,161.8440100000007,None,2022-07-26-11:35:45.632324,163.60775240000112,163.91041440000117,163.60775240000112,None,None,163.60775240000112,None,164.4116264400005,None,,,,21008,0001,2022_Jul_26_1133,localizer,2021.1.3,59.93823963772794,
block,faces,faces061.bmp,,,,,0,32,32,32,,,,,,,,,,,,,,,,,,,,,,,,,,,,,,,,,,,,,,,,,,None,,164.4116264400005,None,164.4116264400005,None,2022-07-26-11:35:46.449085,164.42612499999996,164.72760090000156,164.42612499999996,None,None,164.42612499999996,None,165.22700794000102,None,,,,21008,0001,2022_Jul_26_1133,localizer,2021.1.3,59.93823963772794,
block,faces,faces071.bmp,,,,,0,33,33,33,,,,,,,,,,,,,,,,,,,,,,,,,,,,,,,,,,,,,,,,,,None,,165.22700794000102,None,165.22700794000102,None,2022-07-26-11:35:47.263040,165.23680570000033,165.54386460000023,165.23680570000033,None,None,165.23680570000033,None,166.04362894000096,None,,,,21008,0001,2022_Jul_26_1133,localizer,2021.1.3,59.93823963772794,
block,faces,faces012.bmp,,,,,0,34,34,34,,,,,,,,,,,,,,,,,,,,,,,,,,,,,,,,,,,,,,,,,,None,,166.04362894000096,None,166.04362894000096,None,2022-07-26-11:35:48.079915,166.05264310000166,166.3607217000008,166.05264310000166,None,None,166.05264310000166,None,166.86090634000047,None,,,,21008,0001,2022_Jul_26_1133,localizer,2021.1.3,59.93823963772794,
block,faces,faces065.bmp,,,,,0,35,35,35,,,,,,,,,,,,,,,,,,,,,,,,,,,,,,,,,,,,,,,,,,None,,166.86090634000047,None,166.86090634000047,None,2022-07-26-11:35:48.897113,166.8786809000012,167.19999180000013,166.8786809000012,None,None,166.8786809000012,None,167.67836794000013,None,,,,21008,0001,2022_Jul_26_1133,localizer,2021.1.3,59.93823963772794,
block,faces,faces035.bmp,,,,,0,36,36,36,,,,,,,,,,,,,,,,,,,,,,,,,,,,,,,,,,,,,,,,,,None,,167.67836794000013,None,167.67836794000013,None,2022-07-26-11:35:49.715551,167.69245190000038,167.99360210000123,167.69245190000038,None,None,167.69245190000038,None,168.49500344000134,None,,,,21008,0001,2022_Jul_26_1133,localizer,2021.1.3,59.93823963772794,
block,faces,faces025.bmp,,,,,0,37,37,37,,,,,,,,,,,,,,,,,,,,,,,,,,,,,,,,,,,,,,,,,,None,,168.49500344000134,None,168.49500344000134,None,2022-07-26-11:35:50.533202,168.5086764000007,168.81080700000166,168.5086764000007,None,None,168.5086764000007,None,169.31111414000097,None,,,,21008,0001,2022_Jul_26_1133,localizer,2021.1.3,59.93823963772794,
block,faces,faces046.bmp,,,,,0,38,38,38,,,,,,,,,,,,,,,,,,,,,,,,,,,,,,,,,,,,,,,,,,None,,169.31111414000097,None,169.31111414000097,None,2022-07-26-11:35:51.348283,169.32398810000086,169.6274553000003,169.32398810000086,None,None,169.32398810000086,None,170.12785824000147,None,,,,21008,0001,2022_Jul_26_1133,localizer,2021.1.3,59.93823963772794,
block,faces,faces074.bmp,,,,,0,39,39,39,,,,,,,,,,,,,,,,,,,,,,,,,,,,,,,,,,,,,,,,,,None,,170.12785824000147,None,170.12785824000147,None,2022-07-26-11:35:52.165056,170.14060550000067,170.4447207000012,170.14060550000067,None,None,170.14060550000067,None,170.94408014000018,None,,,,21008,0001,2022_Jul_26_1133,localizer,2021.1.3,59.93823963772794,
block,faces,faces055.bmp,,,,,0,40,40,40,,,,,,,,,,,,,,,,,,,,,,,,,,,,,,,,,,,,,,,,,,None,,170.94408014000018,None,170.94408014000018,None,2022-07-26-11:35:52.980446,170.95498080000107,171.26065850000123,170.95498080000107,None,None,170.95498080000107,None,171.76072574000008,None,,,,21008,0001,2022_Jul_26_1133,localizer,2021.1.3,59.93823963772794,
block,faces,faces066.bmp,,,,,0,41,41,41,,,,,,,,,,,,,,,,,,,,,,,,,,,,,,,,,,,,,,,,,,None,,171.76072574000008,None,171.76072574000008,None,2022-07-26-11:35:53.796952,171.7715913000011,172.07738390000122,171.7715913000011,None,None,171.7715913000011,None,172.57755664000123,None,,,,21008,0001,2022_Jul_26_1133,localizer,2021.1.3,59.93823963772794,
block,faces,faces080.bmp,,,,,0,42,42,42,,,,,,,,,,,,,,,,,,,,,,,,,,,,,,,,,,,,,,,,,,None,,172.57755664000123,None,172.57755664000123,None,2022-07-26-11:35:54.613770,172.5913257000011,172.89394040000116,172.5913257000011,None,None,172.5913257000011,None,173.39433054000128,None,,,,21008,0001,2022_Jul_26_1133,localizer,2021.1.3,59.93823963772794,
block,faces,faces084.bmp,,,,,0,43,43,43,,,,,,,,,,,,,,,,,,,,,,,,,,,,,,,,,,,,,,,,,,None,,173.39433054000128,None,173.39433054000128,None,2022-07-26-11:35:55.431380,173.40419370000018,173.71067760000005,173.40419370000018,None,None,173.40419370000018,None,174.21063684000055,None,,,,21008,0001,2022_Jul_26_1133,localizer,2021.1.3,59.93823963772794,
block,faces,faces064.bmp,,,,,0,44,44,44,,,,,,,,,,,,,,,,,,,,,,,,,,,,,,,,,,,,,,,,,,None,,174.21063684000055,None,174.21063684000055,None,2022-07-26-11:35:56.246421,174.22026130000086,174.52717050000138,174.22026130000086,None,None,174.22026130000086,None,175.0269720400016,None,,,,21008,0001,2022_Jul_26_1133,localizer,2021.1.3,59.93823963772794,
block_end,faces,faces021.bmp,,,,,0,45,45,45,,,,,,,,,,,,,,,,,,,,,,,,,,,,,,,,,,,,,,,,,,None,,175.0269720400016,None,175.0269720400016,None,2022-07-26-11:35:57.063520,175.03812319999997,175.3442900000009,175.03812319999997,None,None,175.03812319999997,None,175.8445260400009,None,,,,21008,0001,2022_Jul_26_1133,localizer,2021.1.3,59.93823963772794,
block_start,scrambled,scrambled076.bmp,,,,,0,46,46,46,,,,,,,,,,,,,,,,,,,,,,,,,,,,,,,,,,,,,,,,,,t,1.7266407999995863,175.8476995000001,None,175.8476995000001,None,2022-07-26-11:35:59.629052,177.60419130000082,177.9105868000006,177.60419130000082,None,None,177.60419130000082,None,178.4104733400005,None,,,,21008,0001,2022_Jul_26_1133,localizer,2021.1.3,59.93823963772794,
block,scrambled,scrambled036.bmp,,,,,0,47,47,47,,,,,,,,,,,,,,,,,,,,,,,,,,,,,,,,,,,,,,,,,,None,,178.4104733400005,None,178.4104733400005,None,2022-07-26-11:36:00.446454,178.41528550000112,178.727255400001,178.41528550000112,None,None,178.41528550000112,None,179.2273385400009,None,,,,21008,0001,2022_Jul_26_1133,localizer,2021.1.3,59.93823963772794,
block,scrambled,scrambled073.bmp,,,,,0,48,48,48,,,,,,,,,,,,,,,,,,,,,,,,,,,,,,,,,,,,,,,,,,None,,179.2273385400009,None,179.2273385400009,None,2022-07-26-11:36:01.263367,179.23654660000102,179.55163810000158,179.23654660000102,None,None,179.23654660000102,None,180.04446404000063,None,,,,21008,0001,2022_Jul_26_1133,localizer,2021.1.3,59.93823963772794,
block,scrambled,scrambled075.bmp,,,,,0,49,49,49,,,,,,,,,,,,,,,,,,,,,,,,,,,,,,,,,,,,,,,,,,None,,180.04446404000063,None,180.04446404000063,None,2022-07-26-11:36:02.081462,180.0562673000004,180.3609376000004,180.0562673000004,None,y,180.0562673000004,None,180.86083944000038,None,0.3979017000001477,,,21008,0001,2022_Jul_26_1133,localizer,2021.1.3,59.93823963772794,
block,scrambled,scrambled077.bmp,,,,,0,50,50,50,,,,,,,,,,,,,,,,,,,,,,,,,,,,,,,,,,,,,,,,,,None,,180.86083944000038,None,180.86083944000038,None,2022-07-26-11:36:02.896859,180.87171310000122,181.18351200000143,180.87171310000122,None,None,180.87171310000122,None,181.6779568400003,None,,,,21008,0001,2022_Jul_26_1133,localizer,2021.1.3,59.93823963772794,
block,scrambled,scrambled087.bmp,,,,,0,51,51,51,,,,,,,,,,,,,,,,,,,,,,,,,,,,,,,,,,,,,,,,,,None,,181.6779568400003,None,181.6779568400003,None,2022-07-26-11:36:03.715153,181.68984510000155,181.99410780000107,181.68984510000155,None,None,181.68984510000155,None,182.49351953999994,None,,,,21008,0001,2022_Jul_26_1133,localizer,2021.1.3,59.93823963772794,
block,scrambled,scrambled054.bmp,,,,,0,52,52,52,,,,,,,,,,,,,,,,,,,,,,,,,,,,,,,,,,,,,,,,,,None,,182.49351953999994,None,182.49351953999994,None,2022-07-26-11:36:04.529139,182.5029699000006,182.81364759999997,182.5029699000006,None,None,182.5029699000006,None,183.31175934000075,None,,,,21008,0001,2022_Jul_26_1133,localizer,2021.1.3,59.93823963772794,
block,scrambled,scrambled029.bmp,,,,,0,53,53,53,,,,,,,,,,,,,,,,,,,,,,,,,,,,,,,,,,,,,,,,,,None,,183.31175934000075,None,183.31175934000075,None,2022-07-26-11:36:05.348750,183.32517290000033,183.62757210000018,183.32517290000033,None,None,183.32517290000033,None,184.12698294000128,None,,,,21008,0001,2022_Jul_26_1133,localizer,2021.1.3,59.93823963772794,
block,scrambled,scrambled040.bmp,,,,,0,54,54,54,,,,,,,,,,,,,,,,,,,,,,,,,,,,,,,,,,,,,,,,,,None,,184.12698294000128,None,184.12698294000128,None,2022-07-26-11:36:06.163321,184.13157010000032,184.44389950000004,184.13157010000032,None,None,184.13157010000032,None,184.94431524000046,None,,,,21008,0001,2022_Jul_26_1133,localizer,2021.1.3,59.93823963772794,
block,scrambled,scrambled079.bmp,,,,,0,55,55,55,,,,,,,,,,,,,,,,,,,,,,,,,,,,,,,,,,,,,,,,,,None,,184.94431524000046,None,184.94431524000046,None,2022-07-26-11:36:06.980339,184.95498620000035,185.2606168000002,184.95498620000035,None,None,184.95498620000035,None,185.7599758400016,None,,,,21008,0001,2022_Jul_26_1133,localizer,2021.1.3,59.93823963772794,
block,scrambled,scrambled072.bmp,,,,,0,56,56,56,,,,,,,,,,,,,,,,,,,,,,,,,,,,,,,,,,,,,,,,,,None,,185.7599758400016,None,185.7599758400016,None,2022-07-26-11:36:07.795013,185.76366700000108,186.07744140000068,185.76366700000108,None,None,185.76366700000108,None,186.5669560400007,None,,,,21008,0001,2022_Jul_26_1133,localizer,2021.1.3,59.93823963772794,
block,scrambled,scrambled041.bmp,,,,,0,57,57,57,,,,,,,,,,,,,,,,,,,,,,,,,,,,,,,,,,,,,,,,,,None,,186.5669560400007,None,186.5669560400007,None,2022-07-26-11:36:08.609842,186.5864959999999,186.89362710000023,186.5864959999999,None,None,186.5864959999999,None,187.37794904000165,None,,,,21008,0001,2022_Jul_26_1133,localizer,2021.1.3,59.93823963772794,
block,scrambled,scrambled015.bmp,,,,,0,58,58,58,,,,,,,,,,,,,,,,,,,,,,,,,,,,,,,,,,,,,,,,,,None,,187.37794904000165,None,187.37794904000165,None,2022-07-26-11:36:09.415147,187.3896536000011,187.69404880000002,187.3896536000011,None,None,187.3896536000011,None,188.1938975400013,None,,,,21008,0001,2022_Jul_26_1133,localizer,2021.1.3,59.93823963772794,
block,scrambled,scrambled018.bmp,,,,,0,59,59,59,,,,,,,,,,,,,,,,,,,,,,,,,,,,,,,,,,,,,,,,,,None,,188.1938975400013,None,188.1938975400013,None,2022-07-26-11:36:10.229923,188.20321950000107,188.5107323000011,188.20321950000107,None,None,188.20321950000107,None,189.01040004000114,None,,,,21008,0001,2022_Jul_26_1133,localizer,2021.1.3,59.93823963772794,
block_end,scrambled,scrambled018.bmp,,,,,0,60,60,60,,,,,,,,,,,,,,,,,,,,,,,,,,,,,,,,,,,,,,,,,,None,,189.01040004000114,None,189.01040004000114,None,2022-07-26-11:36:11.046429,189.01158470000155,189.32748020000145,189.01158470000155,None,None,189.01158470000155,None,189.81065414000167,None,,,,21008,0001,2022_Jul_26_1133,localizer,2021.1.3,59.93823963772794,
null_block,null_block,null_block.bmp,,,,,0,61,61,61,,,,,,,,,,,,,,,,,,,,,,,,,,,,,,,,,,,,,,,,,,t,1.763800500000798,189.8105460000006,None,189.8105460000006,None,2022-07-26-11:36:13.632920,191.59380014000143,None,191.59380014000143,None,None,191.59380014000143,None,191.6005769000003,None,,,,21008,0001,2022_Jul_26_1133,localizer,2021.1.3,59.93823963772794,
block_start,scenes,scenes012.bmp,,,,,0,62,62,62,,,,,,,,,,,,,,,,,,,,,,,,,,,,,,,,,,,,,,,,,,t,1.9577659000005951,203.6168568000012,None,203.6168568000012,None,2022-07-26-11:36:27.636958,205.60124590000123,205.9110563000013,205.60124590000123,None,None,205.60124590000123,None,206.41108264000158,None,,,,21008,0001,2022_Jul_26_1133,localizer,2021.1.3,59.93823963772794,
block,scenes,scenes040.bmp,,,,,0,63,63,63,,,,,,,,,,,,,,,,,,,,,,,,,,,,,,,,,,,,,,,,,,None,,206.41108264000158,None,206.41108264000158,None,2022-07-26-11:36:28.446125,206.4190789000004,206.72772500000065,206.4190789000004,None,None,206.4190789000004,None,207.22807114000042,None,,,,21008,0001,2022_Jul_26_1133,localizer,2021.1.3,59.93823963772794,
block,scenes,scenes015.bmp,,,,,0,64,64,64,,,,,,,,,,,,,,,,,,,,,,,,,,,,,,,,,,,,,,,,,,None,,207.22807114000042,None,207.22807114000042,None,2022-07-26-11:36:29.265086,207.2408217000011,207.54433490000156,207.2408217000011,None,None,207.2408217000011,None,208.04396634000167,None,,,,21008,0001,2022_Jul_26_1133,localizer,2021.1.3,59.93823963772794,
block,scenes,scenes052.bmp,,,,,0,65,65,65,,,,,,,,,,,,,,,,,,,,,,,,,,,,,,,,,,,,,,,,,,None,,208.04396634000167,None,208.04396634000167,None,2022-07-26-11:36:30.078982,208.05238360000112,208.36207510000168,208.05238360000112,None,None,208.05238360000112,None,208.86189824000084,None,,,,21008,0001,2022_Jul_26_1133,localizer,2021.1.3,59.93823963772794,
block,scenes,scenes036.bmp,,,,,0,66,66,66,,,,,,,,,,,,,,,,,,,,,,,,,,,,,,,,,,,,,,,,,,None,,208.86189824000084,None,208.86189824000084,None,2022-07-26-11:36:30.899855,208.87068420000105,209.1776428000012,208.87068420000105,None,None,208.87068420000105,None,209.67892364000053,None,,,,21008,0001,2022_Jul_26_1133,localizer,2021.1.3,59.93823963772794,
block,scenes,scenes035.bmp,,,,,0,67,67,67,,,,,,,,,,,,,,,,,,,,,,,,,,,,,,,,,,,,,,,,,,None,,209.67892364000053,None,209.67892364000053,None,2022-07-26-11:36:31.718017,209.68225880000136,209.9948113999999,209.68225880000136,None,None,209.68225880000136,None,210.49325764000113,None,,,,21008,0001,2022_Jul_26_1133,localizer,2021.1.3,59.93823963772794,
block,scenes,scenes009.bmp,,,,,0,68,68,68,,,,,,,,,,,,,,,,,,,,,,,,,,,,,,,,,,,,,,,,,,None,,210.49325764000113,None,210.49325764000113,None,2022-07-26-11:36:32.528748,210.50159150000036,210.81095300000015,210.50159150000036,None,None,210.50159150000036,None,211.31054384000035,None,,,,21008,0001,2022_Jul_26_1133,localizer,2021.1.3,59.93823963772794,
block,scenes,scenes081.bmp,,,,,0,69,69,69,,,,,,,,,,,,,,,,,,,,,,,,,,,,,,,,,,,,,,,,,,None,,211.31054384000035,None,211.31054384000035,None,2022-07-26-11:36:33.346576,211.31959200000165,211.62966010000127,211.31959200000165,None,None,211.31959200000165,None,212.12776264000112,None,,,,21008,0001,2022_Jul_26_1133,localizer,2021.1.3,59.93823963772794,
block,scenes,scenes031.bmp,,,,,0,70,70,70,,,,,,,,,,,,,,,,,,,,,,,,,,,,,,,,,,,,,,,,,,None,,212.12776264000112,None,212.12776264000112,None,2022-07-26-11:36:34.163864,212.12860440000077,212.44395650000115,212.12860440000077,None,None,212.12860440000077,None,212.9438747400005,None,,,,21008,0001,2022_Jul_26_1133,localizer,2021.1.3,59.93823963772794,
block,scenes,scenes089.bmp,,,,,0,71,71,71,,,,,,,,,,,,,,,,,,,,,,,,,,,,,,,,,,,,,,,,,,None,,212.9438747400005,None,212.9438747400005,None,2022-07-26-11:36:34.979908,212.9533005000012,213.26113370000166,212.9533005000012,None,None,212.9533005000012,None,213.76055443999994,None,,,,21008,0001,2022_Jul_26_1133,localizer,2021.1.3,59.93823963772794,
block,scenes,scenes007.bmp,,,,,0,72,72,72,,,,,,,,,,,,,,,,,,,,,,,,,,,,,,,,,,,,,,,,,,None,,213.76055443999994,None,213.76055443999994,None,2022-07-26-11:36:35.796581,213.77484470000127,214.07732110000143,213.77484470000127,None,None,213.77484470000127,None,214.57712134000084,None,,,,21008,0001,2022_Jul_26_1133,localizer,2021.1.3,59.93823963772794,
block,scenes,scenes028.bmp,,,,,0,73,73,73,,,,,,,,,,,,,,,,,,,,,,,,,,,,,,,,,,,,,,,,,,None,,214.57712134000084,None,214.57712134000084,None,2022-07-26-11:36:36.613154,214.58564580000166,214.8942721000003,214.58564580000166,None,None,214.58564580000166,None,215.39464844000085,None,,,,21008,0001,2022_Jul_26_1133,localizer,2021.1.3,59.93823963772794,
block,scenes,scenes026.bmp,,,,,0,74,74,74,,,,,,,,,,,,,,,,,,,,,,,,,,,,,,,,,,,,,,,,,,None,,215.39464844000085,None,215.39464844000085,None,2022-07-26-11:36:37.431663,215.40793910000139,215.71104410000044,215.40793910000139,None,None,215.40793910000139,None,216.2108341400004,None,,,,21008,0001,2022_Jul_26_1133,localizer,2021.1.3,59.93823963772794,
block,scenes,scenes030.bmp,,,,,0,75,75,75,,,,,,,,,,,,,,,,,,,,,,,,,,,,,,,,,,,,,,,,,,None,,216.2108341400004,None,216.2108341400004,None,2022-07-26-11:36:38.246689,216.21180630000163,216.5273414000003,216.21180630000163,None,None,216.21180630000163,None,217.01238154000075,None,,,,21008,0001,2022_Jul_26_1133,localizer,2021.1.3,59.93823963772794,
block_end,scenes,scenes083.bmp,,,,,0,76,76,76,,,,,,,,,,,,,,,,,,,,,,,,,,,,,,,,,,,,,,,,,,None,,217.01238154000075,None,217.01238154000075,None,2022-07-26-11:36:39.050423,217.02078110000002,217.32718390000082,217.02078110000002,217.02078110000002,None,217.02078110000002,217.02078110000002,217.8274599400016,None,,,,21008,0001,2022_Jul_26_1133,localizer,2021.1.3,59.93823963772794,
block_start,objects,objects041.bmp,,,,,0,77,77,77,,,,,,,,,,,,,,,,,,,,,,,,,,,,,,,,,,,,,,,,,,t,1.7469233000010718,217.82755820000057,None,217.82755820000057,None,2022-07-26-11:36:41.636066,219.60486760000094,219.91463680000015,219.60486760000094,None,None,219.60486760000094,None,220.4106191400011,None,,,,21008,0001,2022_Jul_26_1133,localizer,2021.1.3,59.93823963772794,
block,objects,objects020.bmp,,,,,0,78,78,78,,,,,,,,,,,,,,,,,,,,,,,,,,,,,,,,,,,,,,,,,,None,,220.4106191400011,None,220.4106191400011,None,2022-07-26-11:36:42.446318,220.41937150000012,220.7275881000005,220.41937150000012,None,None,220.41937150000012,None,221.22867254000138,None,,,,21008,0001,2022_Jul_26_1133,localizer,2021.1.3,59.93823963772794,
block,objects,objects016.bmp,,,,,0,79,79,79,,,,,,,,,,,,,,,,,,,,,,,,,,,,,,,,,,,,,,,,,,None,,221.22867254000138,None,221.22867254000138,None,2022-07-26-11:36:43.265858,221.23110280000037,221.54383410000082,221.23110280000037,None,None,221.23110280000037,None,222.04415154000034,None,,,,21008,0001,2022_Jul_26_1133,localizer,2021.1.3,59.93823963772794,
block,objects,objects085.bmp,,,,,0,80,80,80,,,,,,,,,,,,,,,,,,,,,,,,,,,,,,,,,,,,,,,,,,None,,222.04415154000034,None,222.04415154000034,None,2022-07-26-11:36:44.080455,222.0542903000005,222.3608163000008,222.0542903000005,None,None,222.0542903000005,None,222.86079614000172,None,,,,21008,0001,2022_Jul_26_1133,localizer,2021.1.3,59.93823963772794,
block,objects,objects062.bmp,,,,,0,81,81,81,,,,,,,,,,,,,,,,,,,,,,,,,,,,,,,,,,,,,,,,,,None,,222.86079614000172,None,222.86079614000172,None,2022-07-26-11:36:44.896825,222.87019510000027,223.17775060000167,222.87019510000027,None,None,222.87019510000027,None,223.6772753400006,None,,,,21008,0001,2022_Jul_26_1133,localizer,2021.1.3,59.93823963772794,
block,objects,objects051.bmp,,,,,0,82,82,82,,,,,,,,,,,,,,,,,,,,,,,,,,,,,,,,,,,,,,,,,,None,,223.6772753400006,None,223.6772753400006,None,2022-07-26-11:36:45.713520,223.68476320000082,223.9948561000001,223.68476320000082,None,None,223.68476320000082,None,224.4946764400016,None,,,,21008,0001,2022_Jul_26_1133,localizer,2021.1.3,59.93823963772794,
block,objects,objects013.bmp,,,,,0,83,83,83,,,,,,,,,,,,,,,,,,,,,,,,,,,,,,,,,,,,,,,,,,None,,224.4946764400016,None,224.4946764400016,None,2022-07-26-11:36:46.530887,224.50559580000117,224.81084230000124,224.50559580000117,None,None,224.50559580000117,None,225.31086234000085,None,,,,21008,0001,2022_Jul_26_1133,localizer,2021.1.3,59.93823963772794,
block,objects,objects087.bmp,,,,,0,84,84,84,,,,,,,,,,,,,,,,,,,,,,,,,,,,,,,,,,,,,,,,,,None,,225.31086234000085,None,225.31086234000085,None,2022-07-26-11:36:47.346892,225.31998250000106,225.627081300001,225.31998250000106,None,None,225.31998250000106,None,226.1296179400002,None,,,,21008,0001,2022_Jul_26_1133,localizer,2021.1.3,59.93823963772794,
block,objects,objects040.bmp,,,,,0,85,85,85,,,,,,,,,,,,,,,,,,,,,,,,,,,,,,,,,,,,,,,,,,None,,226.1296179400002,None,226.1296179400002,None,2022-07-26-11:36:48.169644,226.14284190000035,226.44420940000055,226.14284190000035,None,None,226.14284190000035,None,226.94631264000108,None,,,,21008,0001,2022_Jul_26_1133,localizer,2021.1.3,59.93823963772794,
block,objects,objects042.bmp,,,,,0,86,86,86,,,,,,,,,,,,,,,,,,,,,,,,,,,,,,,,,,,,,,,,,,None,,226.94631264000108,None,226.94631264000108,None,2022-07-26-11:36:48.985345,226.96089940000093,227.26087570000163,226.96089940000093,None,None,226.96089940000093,None,227.76033534000143,None,,,,21008,0001,2022_Jul_26_1133,localizer,2021.1.3,59.93823963772794,
block,objects,objects033.bmp,,,,,0,87,87,87,,,,,,,,,,,,,,,,,,,,,,,,,,,,,,,,,,,,,,,,,,None,,227.76033534000143,None,227.76033534000143,None,2022-07-26-11:36:49.795668,227.7643672000013,228.0632045000002,227.7643672000013,None,None,227.7643672000013,None,228.57812604000046,None,,,,21008,0001,2022_Jul_26_1133,localizer,2021.1.3,59.93823963772794,
block,objects,objects033.bmp,,,,,0,88,88,88,,,,,,,,,,,,,,,,,,,,,,,,,,,,,,,,,,,,,,,,,,None,,228.57812604000046,None,228.57812604000046,None,2022-07-26-11:36:50.615338,228.57919820000097,228.89387460000034,228.57919820000097,None,y,228.57919820000097,None,229.39419684000003,None,0.38630860000012035,,,21008,0001,2022_Jul_26_1133,localizer,2021.1.3,59.93823963772794,
block,objects,objects063.bmp,,,,,0,89,89,89,,,,,,,,,,,,,,,,,,,,,,,,,,,,,,,,,,,,,,,,,,None,,229.39419684000003,None,229.39419684000003,None,2022-07-26-11:36:51.430224,229.39517700000033,229.71089390000088,229.39517700000033,None,None,229.39517700000033,None,230.19419244000036,None,,,,21008,0001,2022_Jul_26_1133,localizer,2021.1.3,59.93823963772794,
block,objects,objects029.bmp,,,,,0,90,90,90,,,,,,,,,,,,,,,,,,,,,,,,,,,,,,,,,,,,,,,,,,None,,230.19419244000036,None,230.19419244000036,None,2022-07-26-11:36:52.232214,230.20587960000012,230.5112732000016,230.20587960000012,230.20587960000012,None,230.20587960000012,230.20587960000012,231.01090374000032,None,,,,21008,0001,2022_Jul_26_1133,localizer,2021.1.3,59.93823963772794,
block_end,objects,objects069.bmp,,,,,0,91,91,91,,,,,,,,,,,,,,,,,,,,,,,,,,,,,,,,,,,,,,,,,,None,,231.01090374000032,None,231.01090374000032,None,2022-07-26-11:36:53.047142,231.02085179999995,231.3276077999999,231.02085179999995,None,None,231.02085179999995,None,231.8275190400005,None,,,,21008,0001,2022_Jul_26_1133,localizer,2021.1.3,59.93823963772794,
block_start,faces,faces067.bmp,,,,,0,92,92,92,,,,,,,,,,,,,,,,,,,,,,,,,,,,,,,,,,,,,,,,,,t,1.7470413999999437,231.8274646000009,None,231.8274646000009,None,2022-07-26-11:36:55.633765,233.60986589999993,233.91077060000134,233.60986589999993,None,None,233.60986589999993,None,234.41152834000113,None,,,,21008,0001,2022_Jul_26_1133,localizer,2021.1.3,59.93823963772794,
block,faces,faces002.bmp,,,,,0,93,93,93,,,,,,,,,,,,,,,,,,,,,,,,,,,,,,,,,,,,,,,,,,None,,234.41152834000113,None,234.41152834000113,None,2022-07-26-11:36:56.448821,234.42508440000165,234.727781900001,234.42508440000165,None,None,234.42508440000165,None,235.22773684000148,None,,,,21008,0001,2022_Jul_26_1133,localizer,2021.1.3,59.93823963772794,
block,faces,faces022.bmp,,,,,0,94,94,94,,,,,,,,,,,,,,,,,,,,,,,,,,,,,,,,,,,,,,,,,,None,,235.22773684000148,None,235.22773684000148,None,2022-07-26-11:36:57.263763,235.2397514000004,235.55071380000118,235.2397514000004,None,None,235.2397514000004,None,236.0455671400001,None,,,,21008,0001,2022_Jul_26_1133,localizer,2021.1.3,59.93823963772794,
block,faces,faces020.bmp,,,,,0,95,95,95,,,,,,,,,,,,,,,,,,,,,,,,,,,,,,,,,,,,,,,,,,None,,236.0455671400001,None,236.0455671400001,None,2022-07-26-11:36:58.082575,236.0617078000014,236.36259650000102,236.0617078000014,None,None,236.0617078000014,None,236.86463994000096,None,,,,21008,0001,2022_Jul_26_1133,localizer,2021.1.3,59.93823963772794,
block,faces,faces026.bmp,,,,,0,96,96,96,,,,,,,,,,,,,,,,,,,,,,,,,,,,,,,,,,,,,,,,,,None,,236.86463994000096,None,236.86463994000096,None,2022-07-26-11:36:58.909562,236.9119580000006,237.22808609999993,236.9119580000006,None,None,236.9119580000006,None,237.67801004000157,None,,,,21008,0001,2022_Jul_26_1133,localizer,2021.1.3,59.93823963772794,
block,faces,faces038.bmp,,,,,0,97,97,97,,,,,,,,,,,,,,,,,,,,,,,,,,,,,,,,,,,,,,,,,,None,,237.67801004000157,None,237.67801004000157,None,2022-07-26-11:36:59.714034,237.6957405000012,238.01079460000074,237.6957405000012,None,None,237.6957405000012,None,238.49410024000153,None,,,,21008,0001,2022_Jul_26_1133,localizer,2021.1.3,59.93823963772794,
block,faces,faces045.bmp,,,,,0,98,98,98,,,,,,,,,,,,,,,,,,,,,,,,,,,,,,,,,,,,,,,,,,None,,238.49410024000153,None,238.49410024000153,None,2022-07-26-11:37:00.530131,238.5006458000007,238.81061860000045,238.5006458000007,None,None,238.5006458000007,None,239.31108254000046,None,,,,21008,0001,2022_Jul_26_1133,localizer,2021.1.3,59.93823963772794,
block,faces,faces054.bmp,,,,,0,99,99,99,,,,,,,,,,,,,,,,,,,,,,,,,,,,,,,,,,,,,,,,,,None,,239.31108254000046,None,239.31108254000046,None,2022-07-26-11:37:01.347104,239.3217990000012,239.62763450000057,239.3217990000012,None,None,239.3217990000012,None,240.12740004000133,None,,,,21008,0001,2022_Jul_26_1133,localizer,2021.1.3,59.93823963772794,
block,faces,faces031.bmp,,,,,0,100,100,100,,,,,,,,,,,,,,,,,,,,,,,,,,,,,,,,,,,,,,,,,,None,,240.12740004000133,None,240.12740004000133,None,2022-07-26-11:37:02.163384,240.136646500001,240.44437130000006,240.136646500001,None,None,240.136646500001,None,240.94416144000078,None,,,,21008,0001,2022_Jul_26_1133,localizer,2021.1.3,59.93823963772794,
block,faces,faces075.bmp,,,,,0,101,101,101,,,,,,,,,,,,,,,,,,,,,,,,,,,,,,,,,,,,,,,,,,None,,240.94416144000078,None,240.94416144000078,None,2022-07-26-11:37:02.980191,240.94963740000094,241.26090170000134,240.94963740000094,None,None,240.94963740000094,None,241.76074944000047,None,,,,21008,0001,2022_Jul_26_1133,localizer,2021.1.3,59.93823963772794,
block,faces,faces005.bmp,,,,,0,102,102,102,,,,,,,,,,,,,,,,,,,,,,,,,,,,,,,,,,,,,,,,,,None,,241.76074944000047,None,241.76074944000047,None,2022-07-26-11:37:03.796780,241.76572920000035,242.07803590000003,241.76572920000035,None,None,241.76572920000035,None,242.57724244000073,None,,,,21008,0001,2022_Jul_26_1133,localizer,2021.1.3,59.93823963772794,
block,faces,faces003.bmp,,,,,0,103,103,103,,,,,,,,,,,,,,,,,,,,,,,,,,,,,,,,,,,,,,,,,,None,,242.57724244000073,None,242.57724244000073,None,2022-07-26-11:37:04.613275,242.5867057000014,242.89454220000152,242.5867057000014,None,None,242.5867057000014,None,243.39453424000075,None,,,,21008,0001,2022_Jul_26_1133,localizer,2021.1.3,59.93823963772794,
block,faces,faces010.bmp,,,,,0,104,104,104,,,,,,,,,,,,,,,,,,,,,,,,,,,,,,,,,,,,,,,,,,None,,243.39453424000075,None,243.39453424000075,None,2022-07-26-11:37:05.430548,243.40724800000135,243.71133660000123,243.40724800000135,None,None,243.40724800000135,None,244.21148734000107,None,,,,21008,0001,2022_Jul_26_1133,localizer,2021.1.3,59.93823963772794,
block,faces,faces086.bmp,,,,,0,105,105,105,,,,,,,,,,,,,,,,,,,,,,,,,,,,,,,,,,,,,,,,,,None,,244.21148734000107,None,244.21148734000107,None,2022-07-26-11:37:06.249052,244.22544390000076,244.52757800000109,244.22544390000076,None,None,244.22544390000076,None,245.0274851400014,None,,,,21008,0001,2022_Jul_26_1133,localizer,2021.1.3,59.93823963772794,
block_end,faces,faces044.bmp,,,,,0,106,106,106,,,,,,,,,,,,,,,,,,,,,,,,,,,,,,,,,,,,,,,,,,None,,245.0274851400014,None,245.0274851400014,None,2022-07-26-11:37:07.063816,245.0290683000003,245.34419780000098,245.0290683000003,None,None,245.0290683000003,None,245.84394704000132,None,,,,21008,0001,2022_Jul_26_1133,localizer,2021.1.3,59.93823963772794,
block_start,scrambled,scrambled087.bmp,,,,,0,107,107,107,,,,,,,,,,,,,,,,,,,,,,,,,,,,,,,,,,,,,,,,,,t,1.7294922999990376,245.84404630000063,None,245.84404630000063,None,2022-07-26-11:37:09.630291,247.59532970000146,247.91092639999988,247.59532970000146,None,None,247.59532970000146,None,248.4107920400007,None,,,,21008,0001,2022_Jul_26_1133,localizer,2021.1.3,59.93823963772794,
block,scrambled,scrambled059.bmp,,,,,0,108,108,108,,,,,,,,,,,,,,,,,,,,,,,,,,,,,,,,,,,,,,,,,,None,,248.4107920400007,None,248.4107920400007,None,2022-07-26-11:37:10.446820,248.4203823000007,248.72815660000015,248.4203823000007,None,None,248.4203823000007,None,249.22752664000163,None,,,,21008,0001,2022_Jul_26_1133,localizer,2021.1.3,59.93823963772794,
block,scrambled,scrambled057.bmp,,,,,0,109,109,109,,,,,,,,,,,,,,,,,,,,,,,,,,,,,,,,,,,,,,,,,,None,,249.22752664000163,None,249.22752664000163,None,2022-07-26-11:37:11.263559,249.2367430000013,249.5508215000009,249.2367430000013,None,None,249.2367430000013,None,250.0438819400011,None,,,,21008,0001,2022_Jul_26_1133,localizer,2021.1.3,59.93823963772794,
block,scrambled,scrambled080.bmp,,,,,0,110,110,110,,,,,,,,,,,,,,,,,,,,,,,,,,,,,,,,,,,,,,,,,,None,,250.0438819400011,None,250.0438819400011,None,2022-07-26-11:37:12.078919,250.05152540000017,250.36098090000087,250.05152540000017,None,None,250.05152540000017,None,250.8610974400004,None,,,,21008,0001,2022_Jul_26_1133,localizer,2021.1.3,59.93823963772794,
block,scrambled,scrambled053.bmp,,,,,0,111,111,111,,,,,,,,,,,,,,,,,,,,,,,,,,,,,,,,,,,,,,,,,,None,,250.8610974400004,None,250.8610974400004,None,2022-07-26-11:37:12.897127,250.87169130000075,251.177500400001,250.87169130000075,None,None,250.87169130000075,None,251.677475340001,None,,,,21008,0001,2022_Jul_26_1133,localizer,2021.1.3,59.93823963772794,
block,scrambled,scrambled084.bmp,,,,,0,112,112,112,,,,,,,,,,,,,,,,,,,,,,,,,,,,,,,,,,,,,,,,,,None,,251.677475340001,None,251.677475340001,None,2022-07-26-11:37:13.713922,251.68871370000124,251.99433670000144,251.68871370000124,None,None,251.68871370000124,None,252.49408894000098,None,,,,21008,0001,2022_Jul_26_1133,localizer,2021.1.3,59.93823963772794,
block,scrambled,scrambled049.bmp,,,,,0,113,113,113,,,,,,,,,,,,,,,,,,,,,,,,,,,,,,,,,,,,,,,,,,None,,252.49408894000098,None,252.49408894000098,None,2022-07-26-11:37:14.530120,252.5036110000001,252.81117340000128,252.5036110000001,None,None,252.5036110000001,None,253.31081174000118,None,,,,21008,0001,2022_Jul_26_1133,localizer,2021.1.3,59.93823963772794,
block,scrambled,scrambled064.bmp,,,,,0,114,114,114,,,,,,,,,,,,,,,,,,,,,,,,,,,,,,,,,,,,,,,,,,None,,253.31081174000118,None,253.31081174000118,None,2022-07-26-11:37:15.347244,253.31935650000014,253.6275501,253.31935650000014,None,None,253.31935650000014,None,254.12740174000155,None,,,,21008,0001,2022_Jul_26_1133,localizer,2021.1.3,59.93823963772794,
block,scrambled,scrambled002.bmp,,,,,0,115,115,115,,,,,,,,,,,,,,,,,,,,,,,,,,,,,,,,,,,,,,,,,,None,,254.12740174000155,None,254.12740174000155,None,2022-07-26-11:37:16.163433,254.13769090000096,254.44421550000152,254.13769090000096,None,None,254.13769090000096,None,254.94422924000045,None,,,,21008,0001,2022_Jul_26_1133,localizer,2021.1.3,59.93823963772794,
block,scrambled,scrambled026.bmp,,,,,0,116,116,116,,,,,,,,,,,,,,,,,,,,,,,,,,,,,,,,,,,,,,,,,,None,,254.94422924000045,None,254.94422924000045,None,2022-07-26-11:37:16.980257,254.95312420000118,255.26098170000114,254.95312420000118,None,None,254.95312420000118,None,255.76072714000165,None,,,,21008,0001,2022_Jul_26_1133,localizer,2021.1.3,59.93823963772794,
block,scrambled,scrambled030.bmp,,,,,0,117,117,117,,,,,,,,,,,,,,,,,,,,,,,,,,,,,,,,,,,,,,,,,,None,,255.76072714000165,None,255.76072714000165,None,2022-07-26-11:37:17.795764,255.7689033000006,256.0675071000005,255.7689033000006,None,None,255.7689033000006,None,256.57802614000013,None,,,,21008,0001,2022_Jul_26_1133,localizer,2021.1.3,59.93823963772794,
block,scrambled,scrambled016.bmp,,,,,0,118,118,118,,,,,,,,,,,,,,,,,,,,,,,,,,,,,,,,,,,,,,,,,,None,,256.57802614000013,None,256.57802614000013,None,2022-07-26-11:37:18.614169,256.5900307000011,256.89434790000087,256.5900307000011,None,None,256.5900307000011,None,257.3938909400009,None,,,,21008,0001,2022_Jul_26_1133,localizer,2021.1.3,59.93823963772794,
block,scrambled,scrambled088.bmp,,,,,0,119,119,119,,,,,,,,,,,,,,,,,,,,,,,,,,,,,,,,,,,,,,,,,,None,,257.3938909400009,None,257.3938909400009,None,2022-07-26-11:37:19.428928,257.4021894000016,257.7110842000002,257.4021894000016,None,None,257.4021894000016,None,258.21103344000096,None,,,,21008,0001,2022_Jul_26_1133,localizer,2021.1.3,59.93823963772794,
block,scrambled,scrambled083.bmp,,,,,0,120,120,120,,,,,,,,,,,,,,,,,,,,,,,,,,,,,,,,,,,,,,,,,,None,,258.21103344000096,None,258.21103344000096,None,2022-07-26-11:37:20.246993,258.22095850000005,258.5276384000008,258.22095850000005,None,None,258.22095850000005,None,259.0273320400016,None,,,,21008,0001,2022_Jul_26_1133,localizer,2021.1.3,59.93823963772794,
block_end,scrambled,scrambled041.bmp,,,,,0,121,121,121,,,,,,,,,,,,,,,,,,,,,,,,,,,,,,,,,,,,,,,,,,None,,259.0273320400016,None,259.0273320400016,None,2022-07-26-11:37:21.063363,259.0326528000005,259.34431270000096,259.0326528000005,None,None,259.0326528000005,None,259.8447439400012,None,,,,21008,0001,2022_Jul_26_1133,localizer,2021.1.3,59.93823963772794,
block_start,faces,faces021.bmp,,,,,0,122,122,122,,,,,,,,,,,,,,,,,,,,,,,,,,,,,,,,,,,,,,,,,,t,1.7286703000008856,259.84477590000097,None,259.84477590000097,None,2022-07-26-11:37:23.629344,261.59549960000004,261.91124730000047,261.59549960000004,None,None,261.59549960000004,None,262.4108149400005,None,,,,21008,0001,2022_Jul_26_1133,localizer,2021.1.3,59.93823963772794,
block,faces,faces033.bmp,,,,,0,123,123,123,,,,,,,,,,,,,,,,,,,,,,,,,,,,,,,,,,,,,,,,,,None,,262.4108149400005,None,262.4108149400005,None,2022-07-26-11:37:24.446640,262.42734330000167,262.7281148000002,262.42734330000167,None,None,262.42734330000167,None,263.22889184000144,None,,,,21008,0001,2022_Jul_26_1133,localizer,2021.1.3,59.93823963772794,
block,faces,faces017.bmp,,,,,0,124,124,124,,,,,,,,,,,,,,,,,,,,,,,,,,,,,,,,,,,,,,,,,,None,,263.22889184000144,None,263.22889184000144,None,2022-07-26-11:37:25.266371,263.238688200001,263.54458220000015,263.238688200001,None,None,263.238688200001,None,264.04497014000174,None,,,,21008,0001,2022_Jul_26_1133,localizer,2021.1.3,59.93823963772794,
block,faces,faces081.bmp,,,,,0,125,125,125,,,,,,,,,,,,,,,,,,,,,,,,,,,,,,,,,,,,,,,,,,None,,264.04497014000174,None,264.04497014000174,None,2022-07-26-11:37:26.082066,264.0582181000009,264.36110830000143,264.0582181000009,None,None,264.0582181000009,None,264.86086434000083,None,,,,21008,0001,2022_Jul_26_1133,localizer,2021.1.3,59.93823963772794,
block,faces,faces042.bmp,,,,,0,126,126,126,,,,,,,,,,,,,,,,,,,,,,,,,,,,,,,,,,,,,,,,,,None,,264.86086434000083,None,264.86086434000083,None,2022-07-26-11:37:26.896342,264.8691284000015,265.1781393000001,264.8691284000015,None,None,264.8691284000015,None,265.67750104000027,None,,,,21008,0001,2022_Jul_26_1133,localizer,2021.1.3,59.93823963772794,
block,faces,faces020.bmp,,,,,0,127,127,127,,,,,,,,,,,,,,,,,,,,,,,,,,,,,,,,,,,,,,,,,,None,,265.67750104000027,None,265.67750104000027,None,2022-07-26-11:37:27.713533,265.67873900000086,265.99439260000145,265.67873900000086,None,None,265.67873900000086,None,266.49421084000153,None,,,,21008,0001,2022_Jul_26_1133,localizer,2021.1.3,59.93823963772794,
block,faces,faces078.bmp,,,,,0,128,128,128,,,,,,,,,,,,,,,,,,,,,,,,,,,,,,,,,,,,,,,,,,None,,266.49421084000153,None,266.49421084000153,None,2022-07-26-11:37:28.530241,266.50454620000164,266.8118830000003,266.50454620000164,None,None,266.50454620000164,None,267.31173664000073,None,,,,21008,0001,2022_Jul_26_1133,localizer,2021.1.3,59.93823963772794,
block,faces,faces062.bmp,,,,,0,129,129,129,,,,,,,,,,,,,,,,,,,,,,,,,,,,,,,,,,,,,,,,,,None,,267.31173664000073,None,267.31173664000073,None,2022-07-26-11:37:29.349486,267.32074380000086,267.62761090000095,267.32074380000086,None,None,267.32074380000086,None,268.1275384400002,None,,,,21008,0001,2022_Jul_26_1133,localizer,2021.1.3,59.93823963772794,
block,faces,faces060.bmp,,,,,0,130,130,130,,,,,,,,,,,,,,,,,,,,,,,,,,,,,,,,,,,,,,,,,,None,,268.1275384400002,None,268.1275384400002,None,2022-07-26-11:37:30.162576,268.13614940000116,268.4443663000002,268.13614940000116,None,None,268.13614940000116,None,268.94446044000017,None,,,,21008,0001,2022_Jul_26_1133,localizer,2021.1.3,59.93823963772794,
block,faces,faces015.bmp,,,,,0,131,131,131,,,,,,,,,,,,,,,,,,,,,,,,,,,,,,,,,,,,,,,,,,None,,268.94446044000017,None,268.94446044000017,None,2022-07-26-11:37:30.980532,268.9599986000012,269.2610463000001,268.9599986000012,None,None,268.9599986000012,None,269.7610700400006,None,,,,21008,0001,2022_Jul_26_1133,localizer,2021.1.3,59.93823963772794,
block,faces,faces061.bmp,,,,,0,132,132,132,,,,,,,,,,,,,,,,,,,,,,,,,,,,,,,,,,,,,,,,,,None,,269.7610700400006,None,269.7610700400006,None,2022-07-26-11:37:31.797097,269.76206230000025,270.07777440000064,269.76206230000025,None,None,269.76206230000025,None,270.5610698400002,None,,,,21008,0001,2022_Jul_26_1133,localizer,2021.1.3,59.93823963772794,
block,faces,faces039.bmp,,,,,0,133,133,133,,,,,,,,,,,,,,,,,,,,,,,,,,,,,,,,,,,,,,,,,,None,,270.5610698400002,None,270.5610698400002,None,2022-07-26-11:37:32.598531,270.56968920000145,270.8777697000005,270.56968920000145,270.56968920000145,None,270.56968920000145,270.56968920000145,271.3775821400001,None,,,,21008,0001,2022_Jul_26_1133,localizer,2021.1.3,59.93823963772794,
block,faces,faces040.bmp,,,,,0,134,134,134,,,,,,,,,,,,,,,,,,,,,,,,,,,,,,,,,,,,,,,,,,None,,271.3775821400001,None,271.3775821400001,None,2022-07-26-11:37:33.412645,271.38237520000075,271.6778884000014,271.38237520000075,None,None,271.38237520000075,None,272.1944808400009,None,,,,21008,0001,2022_Jul_26_1133,localizer,2021.1.3,59.93823963772794,
block,faces,faces027.bmp,,,,,0,135,135,135,,,,,,,,,,,,,,,,,,,,,,,,,,,,,,,,,,,,,,,,,,None,,272.1944808400009,None,272.1944808400009,None,2022-07-26-11:37:34.230477,272.2057523000003,272.5111409000001,272.2057523000003,None,None,272.2057523000003,None,273.01135474000023,None,,,,21008,0001,2022_Jul_26_1133,localizer,2021.1.3,59.93823963772794,
block_end,faces,faces066.bmp,,,,,0,136,136,136,,,,,,,,,,,,,,,,,,,,,,,,,,,,,,,,,,,,,,,,,,None,,273.01135474000023,None,273.01135474000023,None,2022-07-26-11:37:35.047494,273.01208570000017,273.3275517000002,273.01208570000017,None,None,273.01208570000017,None,273.82771964000005,None,,,,21008,0001,2022_Jul_26_1133,localizer,2021.1.3,59.93823963772794,
block_start,scrambled,scrambled008.bmp,,,,,0,137,137,137,,,,,,,,,,,,,,,,,,,,,,,,,,,,,,,,,,,,,,,,,,t,1.7459306000000652,273.8278057000007,None,273.8278057000007,None,2022-07-26-11:37:37.635276,275.61036500000046,275.9111604000009,275.61036500000046,None,None,275.61036500000046,None,276.4109690400006,None,,,,21008,0001,2022_Jul_26_1133,localizer,2021.1.3,59.93823963772794,
block,scrambled,scrambled031.bmp,,,,,0,138,138,138,,,,,,,,,,,,,,,,,,,,,,,,,,,,,,,,,,,,,,,,,,None,,276.4109690400006,None,276.4109690400006,None,2022-07-26-11:37:38.446999,276.4205015000007,276.72774220000065,276.4205015000007,None,None,276.4205015000007,None,277.2271521400004,None,,,,21008,0001,2022_Jul_26_1133,localizer,2021.1.3,59.93823963772794,
block,scrambled,scrambled034.bmp,,,,,0,139,139,139,,,,,,,,,,,,,,,,,,,,,,,,,,,,,,,,,,,,,,,,,,None,,277.2271521400004,None,277.2271521400004,None,2022-07-26-11:37:39.262279,277.23078440000063,277.54453840000133,277.23078440000063,None,None,277.23078440000063,None,278.04561804000025,None,,,,21008,0001,2022_Jul_26_1133,localizer,2021.1.3,59.93823963772794,
block,scrambled,scrambled040.bmp,,,,,0,140,140,140,,,,,,,,,,,,,,,,,,,,,,,,,,,,,,,,,,,,,,,,,,None,,278.04561804000025,None,278.04561804000025,None,2022-07-26-11:37:40.082807,278.0480419000014,278.36162630000035,278.0480419000014,None,None,278.0480419000014,None,278.8650199400005,None,,,,21008,0001,2022_Jul_26_1133,localizer,2021.1.3,59.93823963772794,
block,scrambled,scrambled049.bmp,,,,,0,141,141,141,,,,,,,,,,,,,,,,,,,,,,,,,,,,,,,,,,,,,,,,,,None,,278.8650199400005,None,278.8650199400005,None,2022-07-26-11:37:40.909093,278.8749390000012,279.1785624000004,278.8749390000012,None,None,278.8749390000012,None,279.67759424000053,None,,,,21008,0001,2022_Jul_26_1133,localizer,2021.1.3,59.93823963772794,
block,scrambled,scrambled083.bmp,,,,,0,142,142,142,,,,,,,,,,,,,,,,,,,,,,,,,,,,,,,,,,,,,,,,,,None,,279.67759424000053,None,279.67759424000053,None,2022-07-26-11:37:41.713607,279.67860310000106,279.9945480000006,279.67860310000106,None,None,279.67860310000106,None,280.4779753400004,None,,,,21008,0001,2022_Jul_26_1133,localizer,2021.1.3,59.93823963772794,
block,scrambled,scrambled057.bmp,,,,,0,143,143,143,,,,,,,,,,,,,,,,,,,,,,,,,,,,,,,,,,,,,,,,,,None,,280.4779753400004,None,280.4779753400004,None,2022-07-26-11:37:42.516081,280.4799013000011,280.79438130000017,280.4799013000011,280.4799013000011,None,280.4799013000011,280.4799013000011,281.29429204000064,None,,,,21008,0001,2022_Jul_26_1133,localizer,2021.1.3,59.93823963772794,
block,scrambled,scrambled012.bmp,,,,,0,144,144,144,,,,,,,,,,,,,,,,,,,,,,,,,,,,,,,,,,,,,,,,,,None,,281.29429204000064,None,281.29429204000064,None,2022-07-26-11:37:43.330340,281.30315190000147,281.61103230000117,281.30315190000147,None,None,281.30315190000147,None,282.11131074000025,None,,,,21008,0001,2022_Jul_26_1133,localizer,2021.1.3,59.93823963772794,
block,scrambled,scrambled024.bmp,,,,,0,145,145,145,,,,,,,,,,,,,,,,,,,,,,,,,,,,,,,,,,,,,,,,,,None,,282.11131074000025,None,282.11131074000025,None,2022-07-26-11:37:44.147219,282.12143060000017,282.42785410000033,282.12143060000017,None,None,282.12143060000017,None,282.9275596400008,None,,,,21008,0001,2022_Jul_26_1133,localizer,2021.1.3,59.93823963772794,
block,scrambled,scrambled082.bmp,,,,,0,146,146,146,,,,,,,,,,,,,,,,,,,,,,,,,,,,,,,,,,,,,,,,,,None,,282.9275596400008,None,282.9275596400008,None,2022-07-26-11:37:44.963590,282.93570980000004,283.24436120000064,282.93570980000004,None,None,282.93570980000004,None,283.7444035400009,None,,,,21008,0001,2022_Jul_26_1133,localizer,2021.1.3,59.93823963772794,
block,scrambled,scrambled009.bmp,,,,,0,147,147,147,,,,,,,,,,,,,,,,,,,,,,,,,,,,,,,,,,,,,,,,,,None,,283.7444035400009,None,283.7444035400009,None,2022-07-26-11:37:45.780433,283.7546611000016,284.06132490000164,283.7546611000016,None,None,283.7546611000016,None,284.5610313400017,None,,,,21008,0001,2022_Jul_26_1133,localizer,2021.1.3,59.93823963772794,
block,scrambled,scrambled072.bmp,,,,,0,148,148,148,,,,,,,,,,,,,,,,,,,,,,,,,,,,,,,,,,,,,,,,,,None,,284.5610313400017,None,284.5610313400017,None,2022-07-26-11:37:46.597059,284.5621609000009,284.87778720000097,284.5621609000009,None,None,284.5621609000009,None,285.3777180400017,None,,,,21008,0001,2022_Jul_26_1133,localizer,2021.1.3,59.93823963772794,
block,scrambled,scrambled074.bmp,,,,,0,149,149,149,,,,,,,,,,,,,,,,,,,,,,,,,,,,,,,,,,,,,,,,,,None,,285.3777180400017,None,285.3777180400017,None,2022-07-26-11:37:47.413749,285.38709240000026,285.6944825999999,285.38709240000026,None,None,285.38709240000026,None,286.19423624000103,None,,,,21008,0001,2022_Jul_26_1133,localizer,2021.1.3,59.93823963772794,
block,scrambled,scrambled004.bmp,,,,,0,150,150,150,,,,,,,,,,,,,,,,,,,,,,,,,,,,,,,,,,,,,,,,,,None,,286.19423624000103,None,286.19423624000103,None,2022-07-26-11:37:48.230269,286.19845480000004,286.51114550000057,286.19845480000004,None,None,286.19845480000004,None,287.01088954000136,None,,,,21008,0001,2022_Jul_26_1133,localizer,2021.1.3,59.93823963772794,
block_end,scrambled,scrambled010.bmp,,,,,0,151,151,151,,,,,,,,,,,,,,,,,,,,,,,,,,,,,,,,,,,,,,,,,,None,,287.01088954000136,None,287.01088954000136,None,2022-07-26-11:37:49.046922,287.01945180000075,287.32783870000094,287.01945180000075,None,None,287.01945180000075,None,287.8277112400016,None,,,,21008,0001,2022_Jul_26_1133,localizer,2021.1.3,59.93823963772794,
block_start,scenes,scenes019.bmp,,,,,0,152,152,152,,,,,,,,,,,,,,,,,,,,,,,,,,,,,,,,,,,,,,,,,,t,1.745444399999542,287.8280351000012,None,287.8280351000012,None,2022-07-26-11:37:51.629664,289.60355860000163,289.911446600001,289.60355860000163,None,None,289.60355860000163,None,290.41232344,None,,,,21008,0001,2022_Jul_26_1133,localizer,2021.1.3,59.93823963772794,
block,scenes,scenes019.bmp,,,,,0,153,153,153,,,,,,,,,,,,,,,,,,,,,,,,,,,,,,,,,,,,,,,,,,None,,290.41232344,None,290.41232344,None,2022-07-26-11:37:52.450843,290.4160412000001,290.7288270000008,290.4160412000001,None,y,290.4160412000001,None,291.22818454000173,None,0.38718410000001313,,,21008,0001,2022_Jul_26_1133,localizer,2021.1.3,59.93823963772794,
block,scenes,scenes041.bmp,,,,,0,154,154,154,,,,,,,,,,,,,,,,,,,,,,,,,,,,,,,,,,,,,,,,,,None,,291.22818454000173,None,291.22818454000173,None,2022-07-26-11:37:53.264210,291.2391613,291.5447053000007,291.2391613,None,None,291.2391613,None,292.0442643400007,None,,,,21008,0001,2022_Jul_26_1133,localizer,2021.1.3,59.93823963772794,
block,scenes,scenes081.bmp,,,,,0,155,155,155,,,,,,,,,,,,,,,,,,,,,,,,,,,,,,,,,,,,,,,,,,None,,292.0442643400007,None,292.0442643400007,None,2022-07-26-11:37:54.080357,292.04551340000035,292.3613634000012,292.04551340000035,None,None,292.04551340000035,None,292.8445716400007,None,,,,21008,0001,2022_Jul_26_1133,localizer,2021.1.3,59.93823963772794,
block,scenes,scenes028.bmp,,,,,0,156,156,156,,,,,,,,,,,,,,,,,,,,,,,,,,,,,,,,,,,,,,,,,,None,,292.8445716400007,None,292.8445716400007,None,2022-07-26-11:37:54.881640,292.84579980000126,293.1612812000003,292.84579980000126,292.84579980000126,None,292.84579980000126,292.84579980000126,293.66075904000047,None,,,,21008,0001,2022_Jul_26_1133,localizer,2021.1.3,59.93823963772794,
block,scenes,scenes087.bmp,,,,,0,157,157,157,,,,,,,,,,,,,,,,,,,,,,,,,,,,,,,,,,,,,,,,,,None,,293.66075904000047,None,293.66075904000047,None,2022-07-26-11:37:55.696820,293.66549960000157,293.9781344000003,293.66549960000157,None,None,293.66549960000157,None,294.47839894000083,None,,,,21008,0001,2022_Jul_26_1133,localizer,2021.1.3,59.93823963772794,
block,scenes,scenes057.bmp,,,,,0,158,158,158,,,,,,,,,,,,,,,,,,,,,,,,,,,,,,,,,,,,,,,,,,None,,294.47839894000083,None,294.47839894000083,None,2022-07-26-11:37:56.515415,294.49027560000104,294.7951960999999,294.49027560000104,None,None,294.49027560000104,None,295.29434404000006,None,,,,21008,0001,2022_Jul_26_1133,localizer,2021.1.3,59.93823963772794,
block,scenes,scenes083.bmp,,,,,0,159,159,159,,,,,,,,,,,,,,,,,,,,,,,,,,,,,,,,,,,,,,,,,,None,,295.29434404000006,None,295.29434404000006,None,2022-07-26-11:37:57.330501,295.2955105000001,295.59575870000117,295.2955105000001,None,None,295.2955105000001,None,296.0945200400007,None,,,,21008,0001,2022_Jul_26_1133,localizer,2021.1.3,59.93823963772794,
block,scenes,scenes070.bmp,,,,,0,160,160,160,,,,,,,,,,,,,,,,,,,,,,,,,,,,,,,,,,,,,,,,,,None,,296.0945200400007,None,296.0945200400007,None,2022-07-26-11:37:58.131550,296.1046856000012,296.4113963,296.1046856000012,296.1046856000012,None,296.1046856000012,296.1046856000012,296.9114979400007,None,,,,21008,0001,2022_Jul_26_1133,localizer,2021.1.3,59.93823963772794,
block,scenes,scenes005.bmp,,,,,0,161,161,161,,,,,,,,,,,,,,,,,,,,,,,,,,,,,,,,,,,,,,,,,,None,,296.9114979400007,None,296.9114979400007,None,2022-07-26-11:37:58.946472,296.9193628000012,297.2275591000016,296.9193628000012,None,None,296.9193628000012,None,297.728263040001,None,,,,21008,0001,2022_Jul_26_1133,localizer,2021.1.3,59.93823963772794,
block,scenes,scenes050.bmp,,,,,0,162,162,162,,,,,,,,,,,,,,,,,,,,,,,,,,,,,,,,,,,,,,,,,,None,,297.728263040001,None,297.728263040001,None,2022-07-26-11:37:59.765281,297.72909960000106,298.044644900001,297.72909960000106,None,None,297.72909960000106,None,298.54539153999997,None,,,,21008,0001,2022_Jul_26_1133,localizer,2021.1.3,59.93823963772794,
block,scenes,scenes014.bmp,,,,,0,163,163,163,,,,,,,,,,,,,,,,,,,,,,,,,,,,,,,,,,,,,,,,,,None,,298.54539153999997,None,298.54539153999997,None,2022-07-26-11:38:00.587511,298.5630664,298.8779050000012,298.5630664,None,None,298.5630664,None,299.3609837400005,None,,,,21008,0001,2022_Jul_26_1133,localizer,2021.1.3,59.93823963772794,
block,scenes,scenes012.bmp,,,,,0,164,164,164,,,,,,,,,,,,,,,,,,,,,,,,,,,,,,,,,,,,,,,,,,None,,299.3609837400005,None,299.3609837400005,None,2022-07-26-11:38:01.396023,299.3625873000001,299.67786049999995,299.3625873000001,None,None,299.3625873000001,None,300.1778616400012,None,,,,21008,0001,2022_Jul_26_1133,localizer,2021.1.3,59.93823963772794,
block,scenes,scenes086.bmp,,,,,0,165,165,165,,,,,,,,,,,,,,,,,,,,,,,,,,,,,,,,,,,,,,,,,,None,,300.1778616400012,None,300.1778616400012,None,2022-07-26-11:38:02.213894,300.1867908000004,300.4946190999999,300.1867908000004,None,None,300.1867908000004,None,300.9943956400008,None,,,,21008,0001,2022_Jul_26_1133,localizer,2021.1.3,59.93823963772794,
block_end,scenes,scenes020.bmp,,,,,0,166,166,166,,,,,,,,,,,,,,,,,,,,,,,,,,,,,,,,,,,,,,,,,,None,,300.9943956400008,None,300.9943956400008,None,2022-07-26-11:38:03.030611,301.00793150000027,301.3113691000017,301.00793150000027,None,None,301.00793150000027,None,301.8112700400003,None,,,,21008,0001,2022_Jul_26_1133,localizer,2021.1.3,59.93823963772794,
null_block,null_block,null_block.bmp,,,,,0,167,167,167,,,,,,,,,,,,,,,,,,,,,,,,,,,,,,,,,,,,,,,,,,t,1.7625497000008181,301.81143000000156,None,301.81143000000156,None,2022-07-26-11:38:05.642348,303.6014347400002,None,303.6014347400002,None,None,303.6014347400002,None,303.6132755000017,None,,,,21008,0001,2022_Jul_26_1133,localizer,2021.1.3,59.93823963772794,
block_start,objects,objects069.bmp,,,,,0,168,168,168,,,,,,,,,,,,,,,,,,,,,,,,,,,,,,,,,,,,,,,,,,t,1.9453183000005083,315.62820360000114,None,315.62820360000114,None,2022-07-26-11:38:19.631393,317.59553530000085,317.91108650000024,317.59553530000085,None,None,317.59553530000085,None,318.41107624000017,None,,,,21008,0001,2022_Jul_26_1133,localizer,2021.1.3,59.93823963772794,
block,objects,objects003.bmp,,,,,0,169,169,169,,,,,,,,,,,,,,,,,,,,,,,,,,,,,,,,,,,,,,,,,,None,,318.41107624000017,None,318.41107624000017,None,2022-07-26-11:38:20.447483,318.42231210000136,318.72777230000065,318.42231210000136,None,None,318.42231210000136,None,319.22860084000115,None,,,,21008,0001,2022_Jul_26_1133,localizer,2021.1.3,59.93823963772794,
block,objects,objects081.bmp,,,,,0,170,170,170,,,,,,,,,,,,,,,,,,,,,,,,,,,,,,,,,,,,,,,,,,None,,319.22860084000115,None,319.22860084000115,None,2022-07-26-11:38:21.265806,319.24099410000053,319.5485032000015,319.24099410000053,None,None,319.24099410000053,None,320.044289940001,None,,,,21008,0001,2022_Jul_26_1133,localizer,2021.1.3,59.93823963772794,
block,objects,objects073.bmp,,,,,0,171,171,171,,,,,,,,,,,,,,,,,,,,,,,,,,,,,,,,,,,,,,,,,,None,,320.044289940001,None,320.044289940001,None,2022-07-26-11:38:22.080322,320.05388550000134,320.36118440000064,320.05388550000134,None,None,320.05388550000134,None,320.86126814000147,None,,,,21008,0001,2022_Jul_26_1133,localizer,2021.1.3,59.93823963772794,
block,objects,objects031.bmp,,,,,0,172,172,172,,,,,,,,,,,,,,,,,,,,,,,,,,,,,,,,,,,,,,,,,,None,,320.86126814000147,None,320.86126814000147,None,2022-07-26-11:38:22.897296,320.87271710000095,321.17769390000103,320.87271710000095,None,None,320.87271710000095,None,321.6774844400012,None,,,,21008,0001,2022_Jul_26_1133,localizer,2021.1.3,59.93823963772794,
block,objects,objects082.bmp,,,,,0,173,173,173,,,,,,,,,,,,,,,,,,,,,,,,,,,,,,,,,,,,,,,,,,None,,321.6774844400012,None,321.6774844400012,None,2022-07-26-11:38:23.713516,321.68687450000107,321.9944966000003,321.68687450000107,None,None,321.68687450000107,None,322.49442864000105,None,,,,21008,0001,2022_Jul_26_1133,localizer,2021.1.3,59.93823963772794,
block,objects,objects012.bmp,,,,,0,174,174,174,,,,,,,,,,,,,,,,,,,,,,,,,,,,,,,,,,,,,,,,,,None,,322.49442864000105,None,322.49442864000105,None,2022-07-26-11:38:24.530458,322.50447610000083,322.8117809000014,322.50447610000083,None,None,322.50447610000083,None,323.31117104000134,None,,,,21008,0001,2022_Jul_26_1133,localizer,2021.1.3,59.93823963772794,
block,objects,objects006.bmp,,,,,0,175,175,175,,,,,,,,,,,,,,,,,,,,,,,,,,,,,,,,,,,,,,,,,,None,,323.31117104000134,None,323.31117104000134,None,2022-07-26-11:38:25.347972,323.32148980000056,323.6279114000008,323.32148980000056,None,None,323.32148980000056,None,324.12760784000113,None,,,,21008,0001,2022_Jul_26_1133,localizer,2021.1.3,59.93823963772794,
block,objects,objects047.bmp,,,,,0,176,176,176,,,,,,,,,,,,,,,,,,,,,,,,,,,,,,,,,,,,,,,,,,None,,324.12760784000113,None,324.12760784000113,None,2022-07-26-11:38:26.163642,324.1365627000014,324.44476530000065,324.1365627000014,None,None,324.1365627000014,None,324.9454747400001,None,,,,21008,0001,2022_Jul_26_1133,localizer,2021.1.3,59.93823963772794,
block,objects,objects034.bmp,,,,,0,177,177,177,,,,,,,,,,,,,,,,,,,,,,,,,,,,,,,,,,,,,,,,,,None,,324.9454747400001,None,324.9454747400001,None,2022-07-26-11:38:26.983281,324.9581526000002,325.2614829000013,324.9581526000002,None,None,324.9581526000002,None,325.7610556400001,None,,,,21008,0001,2022_Jul_26_1133,localizer,2021.1.3,59.93823963772794,
block,objects,objects033.bmp,,,,,0,178,178,178,,,,,,,,,,,,,,,,,,,,,,,,,,,,,,,,,,,,,,,,,,None,,325.7610556400001,None,325.7610556400001,None,2022-07-26-11:38:27.797087,325.7622671000008,326.07775440000114,325.7622671000008,None,None,325.7622671000008,None,326.5651907400012,None,,,,21008,0001,2022_Jul_26_1133,localizer,2021.1.3,59.93823963772794,
block,objects,objects053.bmp,,,,,0,179,179,179,,,,,,,,,,,,,,,,,,,,,,,,,,,,,,,,,,,,,,,,,,None,,326.5651907400012,None,326.5651907400012,None,2022-07-26-11:38:28.611329,326.5783099,326.8780003000011,326.5783099,326.5783099,None,326.5783099,326.5783099,327.37801724000076,None,,,,21008,0001,2022_Jul_26_1133,localizer,2021.1.3,59.93823963772794,
block,objects,objects026.bmp,,,,,0,180,180,180,,,,,,,,,,,,,,,,,,,,,,,,,,,,,,,,,,,,,,,,,,None,,327.37801724000076,None,327.37801724000076,None,2022-07-26-11:38:29.414049,327.3882693000014,327.69459460000144,327.3882693000014,None,None,327.3882693000014,None,328.1950178400008,None,,,,21008,0001,2022_Jul_26_1133,localizer,2021.1.3,59.93823963772794,
block,objects,objects052.bmp,,,,,0,181,181,181,,,,,,,,,,,,,,,,,,,,,,,,,,,,,,,,,,,,,,,,,,None,,328.1950178400008,None,328.1950178400008,None,2022-07-26-11:38:30.231232,328.2070003000008,328.51148250000006,328.2070003000008,None,None,328.2070003000008,None,329.0113036400004,None,,,,21008,0001,2022_Jul_26_1133,localizer,2021.1.3,59.93823963772794,
block_end,objects,objects015.bmp,,,,,0,182,182,182,,,,,,,,,,,,,,,,,,,,,,,,,,,,,,,,,,,,,,,,,,None,,329.0113036400004,None,329.0113036400004,None,2022-07-26-11:38:31.047335,329.020616400001,329.3281517000014,329.020616400001,None,None,329.020616400001,None,329.82793734000063,None,,,,21008,0001,2022_Jul_26_1133,localizer,2021.1.3,59.93823963772794,
null_block,null_block,null_block.bmp,,,,,0,183,183,183,,,,,,,,,,,,,,,,,,,,,,,,,,,,,,,,,,,,,,,,,,t,1.7452436000003217,329.8281074000006,None,329.8281074000006,None,2022-07-26-11:38:33.631196,331.5949970400003,None,331.5949970400003,None,None,331.5949970400003,None,331.59902930000135,None,,,,21008,0001,2022_Jul_26_1133,localizer,2021.1.3,59.93823963772794,
block_start,objects,objects042.bmp,,,,,0,184,184,184,,,,,,,,,,,,,,,,,,,,,,,,,,,,,,,,,,,,,,,,,,t,1.9619176000014704,343.6114318,None,343.6114318,None,2022-07-26-11:38:47.632126,345.5973367000006,345.9114430000009,345.5973367000006,None,None,345.5973367000006,None,346.41142254000135,None,,,,21008,0001,2022_Jul_26_1133,localizer,2021.1.3,59.93823963772794,
block,objects,objects006.bmp,,,,,0,185,185,185,,,,,,,,,,,,,,,,,,,,,,,,,,,,,,,,,,,,,,,,,,None,,346.41142254000135,None,346.41142254000135,None,2022-07-26-11:38:48.447233,346.4123973000005,346.7282944000017,346.4123973000005,None,None,346.4123973000005,None,347.21194764000086,None,,,,21008,0001,2022_Jul_26_1133,localizer,2021.1.3,59.93823963772794,
block,objects,objects088.bmp,,,,,0,186,186,186,,,,,,,,,,,,,,,,,,,,,,,,,,,,,,,,,,,,,,,,,,None,,347.21194764000086,None,347.21194764000086,None,2022-07-26-11:38:49.251050,347.22556330000043,347.52820670000074,347.22556330000043,347.22556330000043,None,347.22556330000043,347.22556330000043,348.0190643400007,None,,,,21008,0001,2022_Jul_26_1133,localizer,2021.1.3,59.93823963772794,
block,objects,objects048.bmp,,,,,0,187,187,187,,,,,,,,,,,,,,,,,,,,,,,,,,,,,,,,,,,,,,,,,,None,,348.0190643400007,None,348.0190643400007,None,2022-07-26-11:38:50.055286,348.0221838000016,348.3282600000002,348.0221838000016,None,None,348.0221838000016,None,348.8303352400004,None,,,,21008,0001,2022_Jul_26_1133,localizer,2021.1.3,59.93823963772794,
block,objects,objects046.bmp,,,,,0,188,188,188,,,,,,,,,,,,,,,,,,,,,,,,,,,,,,,,,,,,,,,,,,None,,348.8303352400004,None,348.8303352400004,None,2022-07-26-11:38:50.870530,348.83992990000115,349.1448532000013,348.83992990000115,None,None,348.83992990000115,None,349.64463174000105,None,,,,21008,0001,2022_Jul_26_1133,localizer,2021.1.3,59.93823963772794,
block,objects,objects085.bmp,,,,,0,189,189,189,,,,,,,,,,,,,,,,,,,,,,,,,,,,,,,,,,,,,,,,,,None,,349.64463174000105,None,349.64463174000105,None,2022-07-26-11:38:51.680665,349.64572970000154,349.9457101000007,349.64572970000154,None,None,349.64572970000154,None,350.44552634000013,None,,,,21008,0001,2022_Jul_26_1133,localizer,2021.1.3,59.93823963772794,
block,objects,objects081.bmp,,,,,0,190,190,190,,,,,,,,,,,,,,,,,,,,,,,,,,,,,,,,,,,,,,,,,,None,,350.44552634000013,None,350.44552634000013,None,2022-07-26-11:38:52.484677,350.44888790000005,350.7623476000008,350.44888790000005,350.44888790000005,None,350.44888790000005,350.44888790000005,351.26182584000037,None,,,,21008,0001,2022_Jul_26_1133,localizer,2021.1.3,59.93823963772794,
block,objects,objects038.bmp,,,,,0,191,191,191,,,,,,,,,,,,,,,,,,,,,,,,,,,,,,,,,,,,,,,,,,None,,351.26182584000037,None,351.26182584000037,None,2022-07-26-11:38:53.298847,351.27280900000005,351.58108300000094,351.27280900000005,None,None,351.27280900000005,None,352.07809684000006,None,,,,21008,0001,2022_Jul_26_1133,localizer,2021.1.3,59.93823963772794,
block,objects,objects005.bmp,,,,,0,192,192,192,,,,,,,,,,,,,,,,,,,,,,,,,,,,,,,,,,,,,,,,,,None,,352.07809684000006,None,352.07809684000006,None,2022-07-26-11:38:54.114161,352.0881378000013,352.395325200001,352.0881378000013,None,None,352.0881378000013,None,352.89464094000016,None,,,,21008,0001,2022_Jul_26_1133,localizer,2021.1.3,59.93823963772794,
block,objects,objects073.bmp,,,,,0,193,193,193,,,,,,,,,,,,,,,,,,,,,,,,,,,,,,,,,,,,,,,,,,None,,352.89464094000016,None,352.89464094000016,None,2022-07-26-11:38:54.930673,352.89587930000016,353.2113496000002,352.89587930000016,None,None,352.89587930000016,None,353.69584454000017,None,,,,21008,0001,2022_Jul_26_1133,localizer,2021.1.3,59.93823963772794,
block,objects,objects032.bmp,,,,,0,194,194,194,,,,,,,,,,,,,,,,,,,,,,,,,,,,,,,,,,,,,,,,,,None,,353.69584454000017,None,353.69584454000017,None,2022-07-26-11:38:55.735022,353.7099588000001,354.0115540000006,353.7099588000001,353.7099588000001,None,353.7099588000001,353.7099588000001,354.5116320400017,None,,,,21008,0001,2022_Jul_26_1133,localizer,2021.1.3,59.93823963772794,
block,objects,objects027.bmp,,,,,0,195,195,195,,,,,,,,,,,,,,,,,,,,,,,,,,,,,,,,,,,,,,,,,,None,,354.5116320400017,None,354.5116320400017,None,2022-07-26-11:38:56.547676,354.5125183,354.8282500000005,354.5125183,None,None,354.5125183,None,355.3116907400005,None,,,,21008,0001,2022_Jul_26_1133,localizer,2021.1.3,59.93823963772794,
block,objects,objects022.bmp,,,,,0,196,196,196,,,,,,,,,,,,,,,,,,,,,,,,,,,,,,,,,,,,,,,,,,None,,355.3116907400005,None,355.3116907400005,None,2022-07-26-11:38:57.349499,355.3238149000008,355.628545900001,355.3238149000008,355.3238149000008,None,355.3238149000008,355.3238149000008,356.1295064400007,None,,,,21008,0001,2022_Jul_26_1133,localizer,2021.1.3,59.93823963772794,
block,objects,objects056.bmp,,,,,0,197,197,197,,,,,,,,,,,,,,,,,,,,,,,,,,,,,,,,,,,,,,,,,,None,,356.1295064400007,None,356.1295064400007,None,2022-07-26-11:38:58.167688,356.14282280000043,356.44497030000093,356.14282280000043,None,None,356.14282280000043,None,356.9448913400016,None,,,,21008,0001,2022_Jul_26_1133,localizer,2021.1.3,59.93823963772794,
block_end,objects,objects040.bmp,,,,,0,198,198,198,,,,,,,,,,,,,,,,,,,,,,,,,,,,,,,,,,,,,,,,,,None,,356.9448913400016,None,356.9448913400016,None,2022-07-26-11:38:58.980920,356.9458158000016,357.2451342000004,356.9458158000016,None,None,356.9458158000016,None,357.74615374000007,None,,,,21008,0001,2022_Jul_26_1133,localizer,2021.1.3,59.93823963772794,
block_start,scenes,scenes086.bmp,,,,,0,199,199,199,,,,,,,,,,,,,,,,,,,,,,,,,,,,,,,,,,,,,,,,,,t,1.8269433999994362,357.7466488000009,None,357.7466488000009,None,2022-07-26-11:39:01.639098,359.60524520000035,359.9119016000004,359.60524520000035,None,None,359.60524520000035,None,360.4113727400005,None,,,,21008,0001,2022_Jul_26_1133,localizer,2021.1.3,59.93823963772794,
block,scenes,scenes020.bmp,,,,,0,200,200,200,,,,,,,,,,,,,,,,,,,,,,,,,,,,,,,,,,,,,,,,,,None,,360.4113727400005,None,360.4113727400005,None,2022-07-26-11:39:02.447408,360.41273060000094,360.7283111000015,360.41273060000094,None,None,360.41273060000094,None,361.22819934000165,None,,,,21008,0001,2022_Jul_26_1133,localizer,2021.1.3,59.93823963772794,
block,scenes,scenes089.bmp,,,,,0,201,201,201,,,,,,,,,,,,,,,,,,,,,,,,,,,,,,,,,,,,,,,,,,None,,361.22819934000165,None,361.22819934000165,None,2022-07-26-11:39:03.264227,361.22934220000025,361.54505450000033,361.22934220000025,None,None,361.22934220000025,None,362.04465984,None,,,,21008,0001,2022_Jul_26_1133,localizer,2021.1.3,59.93823963772794,
block,scenes,scenes090.bmp,,,,,0,202,202,202,,,,,,,,,,,,,,,,,,,,,,,,,,,,,,,,,,,,,,,,,,None,,362.04465984,None,362.04465984,None,2022-07-26-11:39:04.080694,362.0537636000008,362.3616320000001,362.0537636000008,None,None,362.0537636000008,None,362.8612360400008,None,,,,21008,0001,2022_Jul_26_1133,localizer,2021.1.3,59.93823963772794,
block,scenes,scenes059.bmp,,,,,0,203,203,203,,,,,,,,,,,,,,,,,,,,,,,,,,,,,,,,,,,,,,,,,,None,,362.8612360400008,None,362.8612360400008,None,2022-07-26-11:39:04.897266,362.87170570000126,363.1782320000002,362.87170570000126,None,None,362.87170570000126,None,363.67796694000083,None,,,,21008,0001,2022_Jul_26_1133,localizer,2021.1.3,59.93823963772794,
block,scenes,scenes076.bmp,,,,,0,204,204,204,,,,,,,,,,,,,,,,,,,,,,,,,,,,,,,,,,,,,,,,,,None,,363.67796694000083,None,363.67796694000083,None,2022-07-26-11:39:05.714573,363.6872818000011,363.9951181000015,363.6872818000011,None,None,363.6872818000011,None,364.4947863400017,None,,,,21008,0001,2022_Jul_26_1133,localizer,2021.1.3,59.93823963772794,
block,scenes,scenes082.bmp,,,,,0,205,205,205,,,,,,,,,,,,,,,,,,,,,,,,,,,,,,,,,,,,,,,,,,None,,364.4947863400017,None,364.4947863400017,None,2022-07-26-11:39:06.530820,364.5036211000006,364.81165770000007,364.5036211000006,None,None,364.5036211000006,None,365.31147354000007,None,,,,21008,0001,2022_Jul_26_1133,localizer,2021.1.3,59.93823963772794,
block,scenes,scenes061.bmp,,,,,0,206,206,206,,,,,,,,,,,,,,,,,,,,,,,,,,,,,,,,,,,,,,,,,,None,,365.31147354000007,None,365.31147354000007,None,2022-07-26-11:39:07.347946,365.3187646000006,365.6283688000003,365.3187646000006,None,None,365.3187646000006,None,366.12808394000115,None,,,,21008,0001,2022_Jul_26_1133,localizer,2021.1.3,59.93823963772794,
block,scenes,scenes030.bmp,,,,,0,207,207,207,,,,,,,,,,,,,,,,,,,,,,,,,,,,,,,,,,,,,,,,,,None,,366.12808394000115,None,366.12808394000115,None,2022-07-26-11:39:08.164116,366.12911600000007,366.42837060000056,366.12911600000007,None,None,366.12911600000007,None,366.9283728400011,None,,,,21008,0001,2022_Jul_26_1133,localizer,2021.1.3,59.93823963772794,
block,scenes,scenes036.bmp,,,,,0,208,208,208,,,,,,,,,,,,,,,,,,,,,,,,,,,,,,,,,,,,,,,,,,None,,366.9283728400011,None,366.9283728400011,None,2022-07-26-11:39:08.965399,366.9293234000015,367.2450445000013,366.9293234000015,366.9293234000015,None,366.9293234000015,366.9293234000015,367.72876274000066,None,,,,21008,0001,2022_Jul_26_1133,localizer,2021.1.3,59.93823963772794,
block,scenes,scenes070.bmp,,,,,0,209,209,209,,,,,,,,,,,,,,,,,,,,,,,,,,,,,,,,,,,,,,,,,,None,,367.72876274000066,None,367.72876274000066,None,2022-07-26-11:39:09.767777,367.731690300001,368.04543710000144,367.731690300001,367.731690300001,None,367.731690300001,367.731690300001,368.54557264000016,None,,,,21008,0001,2022_Jul_26_1133,localizer,2021.1.3,59.93823963772794,
block,scenes,scenes092.bmp,,,,,0,210,210,210,,,,,,,,,,,,,,,,,,,,,,,,,,,,,,,,,,,,,,,,,,None,,368.54557264000016,None,368.54557264000016,None,2022-07-26-11:39:10.583365,368.5469514000015,368.86228050000136,368.5469514000015,None,None,368.5469514000015,None,369.3622577400007,None,,,,21008,0001,2022_Jul_26_1133,localizer,2021.1.3,59.93823963772794,
block,scenes,scenes032.bmp,,,,,0,211,211,211,,,,,,,,,,,,,,,,,,,,,,,,,,,,,,,,,,,,,,,,,,None,,369.3622577400007,None,369.3622577400007,None,2022-07-26-11:39:11.399468,369.3742406000001,369.6781675000002,369.3742406000001,None,None,369.3742406000001,None,370.178275840001,None,,,,21008,0001,2022_Jul_26_1133,localizer,2021.1.3,59.93823963772794,
block,scenes,scenes039.bmp,,,,,0,212,212,212,,,,,,,,,,,,,,,,,,,,,,,,,,,,,,,,,,,,,,,,,,None,,370.178275840001,None,370.178275840001,None,2022-07-26-11:39:12.214304,370.1846602000005,370.4949181000011,370.1846602000005,None,None,370.1846602000005,None,370.9955580400007,None,,,,21008,0001,2022_Jul_26_1133,localizer,2021.1.3,59.93823963772794,
block_end,scenes,scenes049.bmp,,,,,0,213,213,213,,,,,,,,,,,,,,,,,,,,,,,,,,,,,,,,,,,,,,,,,,None,,370.9955580400007,None,370.9955580400007,None,2022-07-26-11:39:13.032771,371.0085861000007,371.31165580000015,371.0085861000007,None,None,371.0085861000007,None,371.81168884000056,None,,,,21008,0001,2022_Jul_26_1133,localizer,2021.1.3,59.93823963772794,
block_start,faces,faces053.bmp,,,,,0,214,214,214,,,,,,,,,,,,,,,,,,,,,,,,,,,,,,,,,,,,,,,,,,t,1.7619467000004079,371.81165910000163,None,371.81165910000163,None,2022-07-26-11:39:15.639161,373.6145325000016,373.9293422999999,373.6145325000016,None,None,373.6145325000016,None,374.41225244000145,None,,,,21008,0001,2022_Jul_26_1133,localizer,2021.1.3,59.93823963772794,
block,faces,faces053.bmp,,,,,0,215,215,215,,,,,,,,,,,,,,,,,,,,,,,,,,,,,,,,,,,,,,,,,,None,,374.41225244000145,None,374.41225244000145,None,2022-07-26-11:39:16.449496,374.4148094000011,374.7291483000008,374.4148094000011,None,y,374.4148094000011,None,375.22781464000093,None,0.42739069999879575,,,21008,0001,2022_Jul_26_1133,localizer,2021.1.3,59.93823963772794,
block,faces,faces043.bmp,,,,,0,216,216,216,,,,,,,,,,,,,,,,,,,,,,,,,,,,,,,,,,,,,,,,,,None,,375.22781464000093,None,375.22781464000093,None,2022-07-26-11:39:17.263849,375.2385787000003,375.54515750000064,375.2385787000003,None,None,375.2385787000003,None,376.04495294000174,None,,,,21008,0001,2022_Jul_26_1133,localizer,2021.1.3,59.93823963772794,
block,faces,faces061.bmp,,,,,0,217,217,217,,,,,,,,,,,,,,,,,,,,,,,,,,,,,,,,,,,,,,,,,,None,,376.04495294000174,None,376.04495294000174,None,2022-07-26-11:39:18.080982,376.04603860000134,376.3450493,376.04603860000134,None,None,376.04603860000134,None,376.84527934000164,None,,,,21008,0001,2022_Jul_26_1133,localizer,2021.1.3,59.93823963772794,
block,faces,faces018.bmp,,,,,0,218,218,218,,,,,,,,,,,,,,,,,,,,,,,,,,,,,,,,,,,,,,,,,,None,,376.84527934000164,None,376.84527934000164,None,2022-07-26-11:39:18.884292,376.85839190000115,377.16171570000006,376.85839190000115,376.85839190000115,None,376.85839190000115,376.85839190000115,377.66151224000043,None,,,,21008,0001,2022_Jul_26_1133,localizer,2021.1.3,59.93823963772794,
block,faces,faces045.bmp,,,,,0,219,219,219,,,,,,,,,,,,,,,,,,,,,,,,,,,,,,,,,,,,,,,,,,None,,377.66151224000043,None,377.66151224000043,None,2022-07-26-11:39:19.697540,377.6627455000016,377.97848890000023,377.6627455000016,None,None,377.6627455000016,None,378.4617868400006,None,,,,21008,0001,2022_Jul_26_1133,localizer,2021.1.3,59.93823963772794,
block,faces,faces035.bmp,,,,,0,220,220,220,,,,,,,,,,,,,,,,,,,,,,,,,,,,,,,,,,,,,,,,,,None,,378.4617868400006,None,378.4617868400006,None,2022-07-26-11:39:20.498812,378.4627429000011,378.7786105000014,378.4627429000011,378.4627429000011,None,378.4627429000011,378.4627429000011,379.26175814000146,None,,,,21008,0001,2022_Jul_26_1133,localizer,2021.1.3,59.93823963772794,
block,faces,faces060.bmp,,,,,0,221,221,221,,,,,,,,,,,,,,,,,,,,,,,,,,,,,,,,,,,,,,,,,,None,,379.26175814000146,None,379.26175814000146,None,2022-07-26-11:39:21.299002,379.26277740000114,379.5784241000001,379.26277740000114,379.26277740000114,None,379.26277740000114,379.26277740000114,380.07817814000066,None,,,,21008,0001,2022_Jul_26_1133,localizer,2021.1.3,59.93823963772794,
block,faces,faces038.bmp,,,,,0,222,222,222,,,,,,,,,,,,,,,,,,,,,,,,,,,,,,,,,,,,,,,,,,None,,380.07817814000066,None,380.07817814000066,None,2022-07-26-11:39:22.114213,380.07966790000137,380.3951515000008,380.07966790000137,None,None,380.07966790000137,None,380.8950486400014,None,,,,21008,0001,2022_Jul_26_1133,localizer,2021.1.3,59.93823963772794,
block,faces,faces031.bmp,,,,,0,223,223,223,,,,,,,,,,,,,,,,,,,,,,,,,,,,,,,,,,,,,,,,,,None,,380.8950486400014,None,380.8950486400014,None,2022-07-26-11:39:22.931077,380.8960564000008,381.2119236000017,380.8960564000008,None,None,380.8960564000008,None,381.69522484000174,None,,,,21008,0001,2022_Jul_26_1133,localizer,2021.1.3,59.93823963772794,
block,faces,faces065.bmp,,,,,0,224,224,224,,,,,,,,,,,,,,,,,,,,,,,,,,,,,,,,,,,,,,,,,,None,,381.69522484000174,None,381.69522484000174,None,2022-07-26-11:39:23.732491,381.69743050000034,382.0119050000012,381.69743050000034,381.69743050000034,None,381.69743050000034,381.69743050000034,382.51174524000146,None,,,,21008,0001,2022_Jul_26_1133,localizer,2021.1.3,59.93823963772794,
block,faces,faces051.bmp,,,,,0,225,225,225,,,,,,,,,,,,,,,,,,,,,,,,,,,,,,,,,,,,,,,,,,None,,382.51174524000146,None,382.51174524000146,None,2022-07-26-11:39:24.548292,382.5239431000009,382.82885090000127,382.5239431000009,None,None,382.5239431000009,None,383.3285499400014,None,,,,21008,0001,2022_Jul_26_1133,localizer,2021.1.3,59.93823963772794,
block,faces,faces027.bmp,,,,,0,226,226,226,,,,,,,,,,,,,,,,,,,,,,,,,,,,,,,,,,,,,,,,,,None,,383.3285499400014,None,383.3285499400014,None,2022-07-26-11:39:25.365797,383.32961350000005,383.6450540000005,383.32961350000005,None,None,383.32961350000005,None,384.1452126400005,None,,,,21008,0001,2022_Jul_26_1133,localizer,2021.1.3,59.93823963772794,
block,faces,faces029.bmp,,,,,0,227,227,227,,,,,,,,,,,,,,,,,,,,,,,,,,,,,,,,,,,,,,,,,,None,,384.1452126400005,None,384.1452126400005,None,2022-07-26-11:39:26.181236,384.1573554000006,384.46172110000043,384.1573554000006,None,None,384.1573554000006,None,384.96293974000093,None,,,,21008,0001,2022_Jul_26_1133,localizer,2021.1.3,59.93823963772794,
block_end,faces,faces063.bmp,,,,,0,228,228,228,,,,,,,,,,,,,,,,,,,,,,,,,,,,,,,,,,,,,,,,,,None,,384.96293974000093,None,384.96293974000093,None,2022-07-26-11:39:27.001232,384.9778316000011,385.27892670000074,384.9778316000011,None,None,384.9778316000011,None,385.77841474000036,None,,,,21008,0001,2022_Jul_26_1133,localizer,2021.1.3,59.93823963772794,
block_start,scrambled,scrambled063.bmp,,,,,0,229,229,229,,,,,,,,,,,,,,,,,,,,,,,,,,,,,,,,,,,,,,,,,,t,1.7939464999999473,385.7785477000016,None,385.7785477000016,None,2022-07-26-11:39:29.633103,387.6090081000002,387.9117616000003,387.6090081000002,None,None,387.6090081000002,None,388.411884740001,None,,,,21008,0001,2022_Jul_26_1133,localizer,2021.1.3,59.93823963772794,
block,scrambled,scrambled055.bmp,,,,,0,230,230,230,,,,,,,,,,,,,,,,,,,,,,,,,,,,,,,,,,,,,,,,,,None,,388.411884740001,None,388.411884740001,None,2022-07-26-11:39:30.448102,388.4219481,388.728695400001,388.4219481,None,None,388.4219481,None,389.2289644400013,None,,,,21008,0001,2022_Jul_26_1133,localizer,2021.1.3,59.93823963772794,
block,scrambled,scrambled044.bmp,,,,,0,231,231,231,,,,,,,,,,,,,,,,,,,,,,,,,,,,,,,,,,,,,,,,,,None,,389.2289644400013,None,389.2289644400013,None,2022-07-26-11:39:31.266169,389.24076500000047,389.5451365000008,389.24076500000047,None,None,389.24076500000047,None,390.0452272400004,None,,,,21008,0001,2022_Jul_26_1133,localizer,2021.1.3,59.93823963772794,
block,scrambled,scrambled031.bmp,,,,,0,232,232,232,,,,,,,,,,,,,,,,,,,,,,,,,,,,,,,,,,,,,,,,,,None,,390.0452272400004,None,390.0452272400004,None,2022-07-26-11:39:32.081446,390.0461363000013,390.3453453000002,390.0461363000013,None,None,390.0461363000013,None,390.8462185400009,None,,,,21008,0001,2022_Jul_26_1133,localizer,2021.1.3,59.93823963772794,
block,scrambled,scrambled041.bmp,,,,,0,233,233,233,,,,,,,,,,,,,,,,,,,,,,,,,,,,,,,,,,,,,,,,,,None,,390.8462185400009,None,390.8462185400009,None,2022-07-26-11:39:32.888361,390.85261700000046,391.1617451000002,390.85261700000046,390.85261700000046,None,390.85261700000046,390.85261700000046,391.66240274000177,None,,,,21008,0001,2022_Jul_26_1133,localizer,2021.1.3,59.93823963772794,
block,scrambled,scrambled033.bmp,,,,,0,234,234,234,,,,,,,,,,,,,,,,,,,,,,,,,,,,,,,,,,,,,,,,,,None,,391.66240274000177,None,391.66240274000177,None,2022-07-26-11:39:33.699420,391.6739996000015,391.9782849000003,391.6739996000015,None,None,391.6739996000015,None,392.47868254000116,None,,,,21008,0001,2022_Jul_26_1133,localizer,2021.1.3,59.93823963772794,
block,scrambled,scrambled076.bmp,,,,,0,235,235,235,,,,,,,,,,,,,,,,,,,,,,,,,,,,,,,,,,,,,,,,,,None,,392.47868254000116,None,392.47868254000116,None,2022-07-26-11:39:34.515908,392.47961810000015,392.79509360000156,392.47961810000015,None,None,392.47961810000015,None,393.29515634000074,None,,,,21008,0001,2022_Jul_26_1133,localizer,2021.1.3,59.93823963772794,
block,scrambled,scrambled062.bmp,,,,,0,236,236,236,,,,,,,,,,,,,,,,,,,,,,,,,,,,,,,,,,,,,,,,,,None,,393.29515634000074,None,393.29515634000074,None,2022-07-26-11:39:35.331595,393.3062260000006,393.6119524000005,393.3062260000006,None,None,393.3062260000006,None,394.11288364000086,None,,,,21008,0001,2022_Jul_26_1133,localizer,2021.1.3,59.93823963772794,
block,scrambled,scrambled025.bmp,,,,,0,237,237,237,,,,,,,,,,,,,,,,,,,,,,,,,,,,,,,,,,,,,,,,,,None,,394.11288364000086,None,394.11288364000086,None,2022-07-26-11:39:36.151066,394.12641090000034,394.42972030000055,394.12641090000034,None,None,394.12641090000034,None,394.9284717400011,None,,,,21008,0001,2022_Jul_26_1133,localizer,2021.1.3,59.93823963772794,
block,scrambled,scrambled068.bmp,,,,,0,238,238,238,,,,,,,,,,,,,,,,,,,,,,,,,,,,,,,,,,,,,,,,,,None,,394.9284717400011,None,394.9284717400011,None,2022-07-26-11:39:36.964715,394.93955780000033,395.24527900000066,394.93955780000033,None,None,394.93955780000033,None,395.7449667400002,None,,,,21008,0001,2022_Jul_26_1133,localizer,2021.1.3,59.93823963772794,
block,scrambled,scrambled060.bmp,,,,,0,239,239,239,,,,,,,,,,,,,,,,,,,,,,,,,,,,,,,,,,,,,,,,,,None,,395.7449667400002,None,395.7449667400002,None,2022-07-26-11:39:37.780996,395.7537501000006,396.0616609000008,395.7537501000006,None,None,395.7537501000006,None,396.5616468400009,None,,,,21008,0001,2022_Jul_26_1133,localizer,2021.1.3,59.93823963772794,
block,scrambled,scrambled046.bmp,,,,,0,240,240,240,,,,,,,,,,,,,,,,,,,,,,,,,,,,,,,,,,,,,,,,,,None,,396.5616468400009,None,396.5616468400009,None,2022-07-26-11:39:38.596769,396.57067480000114,396.88247090000004,396.57067480000114,None,None,396.57067480000114,None,397.37898154000015,None,,,,21008,0001,2022_Jul_26_1133,localizer,2021.1.3,59.93823963772794,
block,scrambled,scrambled085.bmp,,,,,0,241,241,241,,,,,,,,,,,,,,,,,,,,,,,,,,,,,,,,,,,,,,,,,,None,,397.37898154000015,None,397.37898154000015,None,2022-07-26-11:39:39.415884,397.3896820000009,397.6950471,397.3896820000009,None,None,397.3896820000009,None,398.1958593400001,None,,,,21008,0001,2022_Jul_26_1133,localizer,2021.1.3,59.93823963772794,
block,scrambled,scrambled048.bmp,,,,,0,242,242,242,,,,,,,,,,,,,,,,,,,,,,,,,,,,,,,,,,,,,,,,,,None,,398.1958593400001,None,398.1958593400001,None,2022-07-26-11:39:40.232991,398.20719330000065,398.5118887000008,398.20719330000065,None,None,398.20719330000065,None,399.0116905400015,None,,,,21008,0001,2022_Jul_26_1133,localizer,2021.1.3,59.93823963772794,
block_end,scrambled,scrambled067.bmp,,,,,0,243,243,243,,,,,,,,,,,,,,,,,,,,,,,,,,,,,,,,,,,,,,,,,,None,,399.0116905400015,None,399.0116905400015,None,2022-07-26-11:39:41.047619,399.0208171000013,399.32851140000093,399.0208171000013,None,None,399.0208171000013,None,399.82877584000073,None,,,,21008,0001,2022_Jul_26_1133,localizer,2021.1.3,59.93823963772794,
,,,,,,,,,,,,,,,,,,,,,,,,,,,,,,,,,,,,,,,,,,,,,,,,,,,,,,,,,,,,,,,,,,,,,399.8286536000014,None,,,,,,,
