block_type,condition,img_name,Button.thisRepN,Button.thisTrialN,Button.thisN,Button.thisIndex,trials.thisRepN,trials.thisTrialN,trials.thisN,trials.thisIndex,Alignment_background.started,Alignment_background.stopped,Alignment_image.started,Alignment_image.stopped,Alignment_resp.keys,Alignment_resp.rt,Alignment_resp.started,Alignment_resp.stopped,Button_text.started,Button_text.stopped,Index_text.started,Index_text.stopped,Index_resp.keys,Index_resp.rt,Index_resp.started,Index_resp.stopped,Middle_text.started,Middle_text.stopped,Middle_resp.keys,Middle_resp.rt,Middle_resp.started,Middle_resp.stopped,Repeat_text.started,Repeat_text.stopped,Repeat_resp.keys,Repeat_resp.corr,Repeat_resp.rt,Repeat_resp.started,Repeat_resp.stopped,instruction_text.started,instruction_text.stopped,key_resp.keys,key_resp.rt,key_resp.started,key_resp.stopped,scanner_t.keys,scanner_t.rt,scanner_t.started,scanner_t.stopped,fixation_wait_for_t.started,fixation_wait_for_t.stopped,real_timestamp_trial_start,image.started,image.stopped,fixation.started,fixation.stopped,repeat_response.keys,repeat_response.started,repeat_response.stopped,fixation_null.started,fixation_null.stopped,repeat_response.rt,end_text.started,end_text.stopped,participant,run,date,expName,psychopyVersion,frameRate,
,,,,,,,,,,,14.976143199950457,None,14.976143199950457,None,return,1.2995965001173317,14.976143199950457,None,,,,,,,,,,,,,,,,,,,,,,,,,,,,,,,,,,,,,,,,,,,,,,,22001,0002,2021_Aug_17_1019,localizer,2021.1.3,59.999807943273424,
,,,0,0,0,0,,,,,,,,,,,,,16.28853640006855,None,17.288831599988043,None,y,0.6753375995904207,17.288831599988043,None,17.988677999936044,None,b,0.9876124998554587,17.988677999936044,None,19.005395599640906,None,n,0,1.0472070001997054,19.005395599640906,None,,,,,,,,,,,,,,,,,,,,,,,,,,22001,0002,2021_Aug_17_1019,localizer,2021.1.3,59.999807943273424,
,,,,,,,,,,,,,,,,,,,,,,,,,,,,,,,,,,,,,,,,20.07203090004623,None,y,1.6524723004549742,20.07203090004623,None,,,,,,,,,,,,,,,,,,,,22001,0002,2021_Aug_17_1019,localizer,2021.1.3,59.999807943273424,
block_start,objects,objects023.bmp,,,,,0,0,0,0,,,,,,,,,,,,,,,,,,,,,,,,,,,,,,,,,,,,t,4.357520100194961,21.772307499777526,None,21.772307499777526,None,2021-08-17-10:19:21.589697,26.16515879984945,26.472182400058955,26.16515879984945,None,None,26.16515879984945,None,26.972059529833494,None,,,,22001,0002,2021_Aug_17_1019,localizer,2021.1.3,59.999807943273424,
block,objects,objects013.bmp,,,,,0,1,1,1,,,,,,,,,,,,,,,,,,,,,,,,,,,,,,,,,,,,None,,26.972059529833494,None,26.972059529833494,None,2021-08-17-10:19:22.405476,26.97242289967835,27.271913399919868,26.97242289967835,None,None,26.97242289967835,None,27.77217882974073,None,,,,22001,0002,2021_Aug_17_1019,localizer,2021.1.3,59.999807943273424,
block,objects,objects014.bmp,,,,,0,2,2,2,,,,,,,,,,,,,,,,,,,,,,,,,,,,,,,,,,,,None,,27.77217882974073,None,27.77217882974073,None,2021-08-17-10:19:23.213729,27.779589099809527,28.088827499654144,27.779589099809527,27.779589099809527,None,27.779589099809527,27.779589099809527,28.588871829770504,None,,,,22001,0002,2021_Aug_17_1019,localizer,2021.1.3,59.999807943273424,
block,objects,objects057.bmp,,,,,0,3,3,3,,,,,,,,,,,,,,,,,,,,,,,,,,,,,,,,,,,,None,,28.588871829770504,None,28.588871829770504,None,2021-08-17-10:19:24.027180,28.603593399748206,28.90550970006734,28.603593399748206,None,None,28.603593399748206,None,29.40531952967867,None,,,,22001,0002,2021_Aug_17_1019,localizer,2021.1.3,59.999807943273424,
block,objects,objects054.bmp,,,,,0,4,4,4,,,,,,,,,,,,,,,,,,,,,,,,,,,,,,,,,,,,None,,29.40531952967867,None,29.40531952967867,None,2021-08-17-10:19:24.837726,29.407646999694407,29.722120099700987,29.407646999694407,None,None,29.407646999694407,None,30.221983830071984,None,,,,22001,0002,2021_Aug_17_1019,localizer,2021.1.3,59.999807943273424,
block,objects,objects022.bmp,,,,,0,5,5,5,,,,,,,,,,,,,,,,,,,,,,,,,,,,,,,,,,,,None,,30.221983830071984,None,30.221983830071984,None,2021-08-17-10:19:25.661126,30.2357896999456,30.53852739976719,30.2357896999456,None,None,30.2357896999456,None,31.038768329750745,None,,,,22001,0002,2021_Aug_17_1019,localizer,2021.1.3,59.999807943273424,
block,objects,objects006.bmp,,,,,0,6,6,6,,,,,,,,,,,,,,,,,,,,,,,,,,,,,,,,,,,,None,,31.038768329750745,None,31.038768329750745,None,2021-08-17-10:19:26.478938,31.059018899686635,31.37210140004754,31.059018899686635,None,None,31.059018899686635,None,31.855520429648458,None,,,,22001,0002,2021_Aug_17_1019,localizer,2021.1.3,59.999807943273424,
block,objects,objects058.bmp,,,,,0,7,7,7,,,,,,,,,,,,,,,,,,,,,,,,,,,,,,,,,,,,None,,31.855520429648458,None,31.855520429648458,None,2021-08-17-10:19:27.297555,31.872385900001973,32.172212899662554,31.872385900001973,None,None,31.872385900001973,None,32.672203430067746,None,,,,22001,0002,2021_Aug_17_1019,localizer,2021.1.3,59.999807943273424,
block,objects,objects028.bmp,,,,,0,8,8,8,,,,,,,,,,,,,,,,,,,,,,,,,,,,,,,,,,,,None,,32.672203430067746,None,32.672203430067746,None,2021-08-17-10:19:28.114294,32.69381919968873,33.00560500007123,32.69381919968873,None,None,32.69381919968873,None,33.488814629707484,None,,,,22001,0002,2021_Aug_17_1019,localizer,2021.1.3,59.999807943273424,
block,objects,objects065.bmp,,,,,0,9,9,9,,,,,,,,,,,,,,,,,,,,,,,,,,,,,,,,,,,,None,,33.488814629707484,None,33.488814629707484,None,2021-08-17-10:19:28.929084,33.499915999826044,33.80555489985272,33.499915999826044,None,None,33.499915999826044,None,34.30555203007534,None,,,,22001,0002,2021_Aug_17_1019,localizer,2021.1.3,59.999807943273424,
block,objects,objects085.bmp,,,,,0,10,10,10,,,,,,,,,,,,,,,,,,,,,,,,,,,,,,,,,,,,None,,34.30555203007534,None,34.30555203007534,None,2021-08-17-10:19:29.744648,34.31035010004416,34.622369799762964,34.31035010004416,None,None,34.31035010004416,None,35.121960629802196,None,,,,22001,0002,2021_Aug_17_1019,localizer,2021.1.3,59.999807943273424,
block,objects,objects018.bmp,,,,,0,11,11,11,,,,,,,,,,,,,,,,,,,,,,,,,,,,,,,,,,,,None,,35.121960629802196,None,35.121960629802196,None,2021-08-17-10:19:30.553142,35.12414969969541,35.438736899755895,35.12414969969541,None,None,35.12414969969541,None,35.93905472997576,None,,,,22001,0002,2021_Aug_17_1019,localizer,2021.1.3,59.999807943273424,
block,objects,objects077.bmp,,,,,0,12,12,12,,,,,,,,,,,,,,,,,,,,,,,,,,,,,,,,,,,,None,,35.93905472997576,None,35.93905472997576,None,2021-08-17-10:19:31.380218,35.95095829991624,36.255277699790895,35.95095829991624,None,None,35.95095829991624,None,36.755403929948805,None,,,,22001,0002,2021_Aug_17_1019,localizer,2021.1.3,59.999807943273424,
block,objects,objects078.bmp,,,,,0,13,13,13,,,,,,,,,,,,,,,,,,,,,,,,,,,,,,,,,,,,None,,36.755403929948805,None,36.755403929948805,None,2021-08-17-10:19:32.194687,36.76601619971916,37.07214619964361,36.76601619971916,None,None,36.76601619971916,None,37.57219162965193,None,,,,22001,0002,2021_Aug_17_1019,localizer,2021.1.3,59.999807943273424,
block_end,objects,objects075.bmp,,,,,0,14,14,14,,,,,,,,,,,,,,,,,,,,,,,,,,,,,,,,,,,,None,,37.57219162965193,None,37.57219162965193,None,2021-08-17-10:19:33.013488,37.60065269982442,37.90559139987454,37.60065269982442,None,None,37.60065269982442,None,38.3887007297948,None,,,,22001,0002,2021_Aug_17_1019,localizer,2021.1.3,59.999807943273424,
block_start,scenes,scenes027.bmp,,,,,0,15,15,15,,,,,,,,,,,,,,,,,,,,,,,,,,,,,,,,,,,,t,17.21924880007282,38.388908599969,None,38.388908599969,None,2021-08-17-10:19:51.070067,55.639314299914986,55.93890419974923,55.639314299914986,None,None,55.639314299914986,None,56.43913543000817,None,,,,22001,0002,2021_Aug_17_1019,localizer,2021.1.3,59.999807943273424,
block,scenes,scenes007.bmp,,,,,0,16,16,16,,,,,,,,,,,,,,,,,,,,,,,,,,,,,,,,,,,,None,,56.43913543000817,None,56.43913543000817,None,2021-08-17-10:19:51.882217,56.4655996998772,56.7723403996788,56.4655996998772,56.4655996998772,None,56.4655996998772,56.4655996998772,57.2556214296259,None,,,,22001,0002,2021_Aug_17_1019,localizer,2021.1.3,59.999807943273424,
block,scenes,scenes073.bmp,,,,,0,17,17,17,,,,,,,,,,,,,,,,,,,,,,,,,,,,,,,,,,,,None,,57.2556214296259,None,57.2556214296259,None,2021-08-17-10:19:52.696924,57.2687278999947,57.57219689991325,57.2687278999947,None,None,57.2687278999947,None,58.072154729720204,None,,,,22001,0002,2021_Aug_17_1019,localizer,2021.1.3,59.999807943273424,
block,scenes,scenes086.bmp,,,,,0,18,18,18,,,,,,,,,,,,,,,,,,,,,,,,,,,,,,,,,,,,None,,58.072154729720204,None,58.072154729720204,None,2021-08-17-10:19:53.503339,58.07931389985606,58.38904199982062,58.07931389985606,None,None,58.07931389985606,None,58.88886232962832,None,,,,22001,0002,2021_Aug_17_1019,localizer,2021.1.3,59.999807943273424,
block,scenes,scenes045.bmp,,,,,0,19,19,19,,,,,,,,,,,,,,,,,,,,,,,,,,,,,,,,,,,,None,,58.88886232962832,None,58.88886232962832,None,2021-08-17-10:19:54.319054,58.8895441996865,59.18903819983825,58.8895441996865,None,None,58.8895441996865,None,59.689088029880075,None,,,,22001,0002,2021_Aug_17_1019,localizer,2021.1.3,59.999807943273424,
block,scenes,scenes019.bmp,,,,,0,20,20,20,,,,,,,,,,,,,,,,,,,,,,,,,,,,,,,,,,,,None,,59.689088029880075,None,59.689088029880075,None,2021-08-17-10:19:55.132380,59.70220589963719,60.005586499813944,59.70220589963719,59.70220589963719,None,59.70220589963719,59.70220589963719,60.50576182976365,None,,,,22001,0002,2021_Aug_17_1019,localizer,2021.1.3,59.999807943273424,
block,scenes,scenes064.bmp,,,,,0,21,21,21,,,,,,,,,,,,,,,,,,,,,,,,,,,,,,,,,,,,None,,60.50576182976365,None,60.50576182976365,None,2021-08-17-10:19:55.946755,60.517898600082844,60.82239429978654,60.517898600082844,None,None,60.517898600082844,None,61.32223722999915,None,,,,22001,0002,2021_Aug_17_1019,localizer,2021.1.3,59.999807943273424,
block,scenes,scenes070.bmp,,,,,0,22,22,22,,,,,,,,,,,,,,,,,,,,,,,,,,,,,,,,,,,,None,,61.32223722999915,None,61.32223722999915,None,2021-08-17-10:19:56.757599,61.328913799952716,61.63871299987659,61.328913799952716,None,None,61.328913799952716,None,62.139074130076914,None,,,,22001,0002,2021_Aug_17_1019,localizer,2021.1.3,59.999807943273424,
block,scenes,scenes012.bmp,,,,,0,23,23,23,,,,,,,,,,,,,,,,,,,,,,,,,,,,,,,,,,,,None,,62.139074130076914,None,62.139074130076914,None,2021-08-17-10:19:57.575073,62.15014089969918,62.455554799642414,62.15014089969918,None,None,62.15014089969918,None,62.955357330013065,None,,,,22001,0002,2021_Aug_17_1019,localizer,2021.1.3,59.999807943273424,
block,scenes,scenes089.bmp,,,,,0,24,24,24,,,,,,,,,,,,,,,,,,,,,,,,,,,,,,,,,,,,None,,62.955357330013065,None,62.955357330013065,None,2021-08-17-10:19:58.385998,62.95644629979506,63.25569049967453,62.95644629979506,None,None,62.95644629979506,None,63.75565032996237,None,,,,22001,0002,2021_Aug_17_1019,localizer,2021.1.3,59.999807943273424,
block,scenes,scenes068.bmp,,,,,0,25,25,25,,,,,,,,,,,,,,,,,,,,,,,,,,,,,,,,,,,,None,,63.75565032996237,None,63.75565032996237,None,2021-08-17-10:19:59.197735,63.786232999991626,64.08885319996625,63.786232999991626,63.786232999991626,None,63.786232999991626,63.786232999991626,64.5722748298198,None,,,,22001,0002,2021_Aug_17_1019,localizer,2021.1.3,59.999807943273424,
block,scenes,scenes009.bmp,,,,,0,26,26,26,,,,,,,,,,,,,,,,,,,,,,,,,,,,,,,,,,,,None,,64.5722748298198,None,64.5722748298198,None,2021-08-17-10:20:00.009305,64.57822979986668,64.88867549970746,64.57822979986668,None,None,64.57822979986668,None,65.38908003000543,None,,,,22001,0002,2021_Aug_17_1019,localizer,2021.1.3,59.999807943273424,
block,scenes,scenes009.bmp,,,,,0,27,27,27,,,,,,,,,,,,,,,,,,,,,,,,,,,,,,,,,,,,None,,65.38908003000543,None,65.38908003000543,None,2021-08-17-10:20:00.829179,65.40054759988561,65.70578469987959,65.40054759988561,None,y,65.40054759988561,None,66.20577663006262,None,0.4456935999915004,,,22001,0002,2021_Aug_17_1019,localizer,2021.1.3,59.999807943273424,
block,scenes,scenes032.bmp,,,,,0,28,28,28,,,,,,,,,,,,,,,,,,,,,,,,,,,,,,,,,,,,None,,66.20577663006262,None,66.20577663006262,None,2021-08-17-10:20:01.645748,66.21663659997284,66.52246889984235,66.21663659997284,None,None,66.21663659997284,None,67.02246882962064,None,,,,22001,0002,2021_Aug_17_1019,localizer,2021.1.3,59.999807943273424,
block_end,scenes,scenes079.bmp,,,,,0,29,29,29,,,,,,,,,,,,,,,,,,,,,,,,,,,,,,,,,,,,None,,67.02246882962064,None,67.02246882962064,None,2021-08-17-10:20:02.462568,67.04385339980945,67.35575529979542,67.04385339980945,None,None,67.04385339980945,None,67.83902692990378,None,,,,22001,0002,2021_Aug_17_1019,localizer,2021.1.3,59.999807943273424,
block_start,scrambled,scrambled078.bmp,,,,,0,30,30,30,,,,,,,,,,,,,,,,,,,,,,,,,,,,,,,,,,,,t,11.107691199984401,67.83877549972385,None,67.83877549972385,None,2021-08-17-10:20:14.411633,78.97745039965957,79.28922969987616,78.97745039965957,None,None,78.97745039965957,None,79.78904622988776,None,,,,22001,0002,2021_Aug_17_1019,localizer,2021.1.3,59.999807943273424,
block,scrambled,scrambled084.bmp,,,,,0,31,31,31,,,,,,,,,,,,,,,,,,,,,,,,,,,,,,,,,,,,None,,79.78904622988776,None,79.78904622988776,None,2021-08-17-10:20:15.219690,79.78975039999932,80.08866119990125,79.78975039999932,None,None,79.78975039999932,None,80.58909752974287,None,,,,22001,0002,2021_Aug_17_1019,localizer,2021.1.3,59.999807943273424,
block,scrambled,scrambled036.bmp,,,,,0,32,32,32,,,,,,,,,,,,,,,,,,,,,,,,,,,,,,,,,,,,None,,80.58909752974287,None,80.58909752974287,None,2021-08-17-10:20:16.030358,80.60520750004798,80.90593879995868,80.60520750004798,80.60520750004798,None,80.60520750004798,80.60520750004798,81.40588693004102,None,,,,22001,0002,2021_Aug_17_1019,localizer,2021.1.3,59.999807943273424,
block,scrambled,scrambled061.bmp,,,,,0,33,33,33,,,,,,,,,,,,,,,,,,,,,,,,,,,,,,,,,,,,None,,81.40588693004102,None,81.40588693004102,None,2021-08-17-10:20:16.845860,81.42572479974478,81.73909829976037,81.42572479974478,None,None,81.42572479974478,None,82.22192792976276,None,,,,22001,0002,2021_Aug_17_1019,localizer,2021.1.3,59.999807943273424,
block,scrambled,scrambled086.bmp,,,,,0,34,34,34,,,,,,,,,,,,,,,,,,,,,,,,,,,,,,,,,,,,None,,82.22192792976276,None,82.22192792976276,None,2021-08-17-10:20:17.660032,82.23983919993043,82.53905300004408,82.23983919993043,None,None,82.23983919993043,None,83.03915843004361,None,,,,22001,0002,2021_Aug_17_1019,localizer,2021.1.3,59.999807943273424,
block,scrambled,scrambled005.bmp,,,,,0,35,35,35,,,,,,,,,,,,,,,,,,,,,,,,,,,,,,,,,,,,None,,83.03915843004361,None,83.03915843004361,None,2021-08-17-10:20:18.479259,83.05471839988604,83.35563569981605,83.05471839988604,None,None,83.05471839988604,None,83.85575452968479,None,,,,22001,0002,2021_Aug_17_1019,localizer,2021.1.3,59.999807943273424,
block,scrambled,scrambled039.bmp,,,,,0,36,36,36,,,,,,,,,,,,,,,,,,,,,,,,,,,,,,,,,,,,None,,83.85575452968479,None,83.85575452968479,None,2021-08-17-10:20:19.296057,83.87553140008822,84.1892097000964,83.87553140008822,None,None,83.87553140008822,None,84.67238392969594,None,,,,22001,0002,2021_Aug_17_1019,localizer,2021.1.3,59.999807943273424,
block,scrambled,scrambled014.bmp,,,,,0,37,37,37,,,,,,,,,,,,,,,,,,,,,,,,,,,,,,,,,,,,None,,84.67238392969594,None,84.67238392969594,None,2021-08-17-10:20:20.111617,84.68215849995613,84.9891662998125,84.68215849995613,None,None,84.68215849995613,None,85.4892237299122,None,,,,22001,0002,2021_Aug_17_1019,localizer,2021.1.3,59.999807943273424,
block,scrambled,scrambled074.bmp,,,,,0,38,38,38,,,,,,,,,,,,,,,,,,,,,,,,,,,,,,,,,,,,None,,85.4892237299122,None,85.4892237299122,None,2021-08-17-10:20:20.928524,85.49835219979286,85.80581779964268,85.49835219979286,None,None,85.49835219979286,None,86.3056732300669,None,,,,22001,0002,2021_Aug_17_1019,localizer,2021.1.3,59.999807943273424,
block,scrambled,scrambled027.bmp,,,,,0,39,39,39,,,,,,,,,,,,,,,,,,,,,,,,,,,,,,,,,,,,None,,86.3056732300669,None,86.3056732300669,None,2021-08-17-10:20:21.735127,86.3063801000826,86.60591130005196,86.3063801000826,None,None,86.3063801000826,None,87.1059597298503,None,,,,22001,0002,2021_Aug_17_1019,localizer,2021.1.3,59.999807943273424,
block,scrambled,scrambled018.bmp,,,,,0,40,40,40,,,,,,,,,,,,,,,,,,,,,,,,,,,,,,,,,,,,None,,87.1059597298503,None,87.1059597298503,None,2021-08-17-10:20:22.547756,87.12507599964738,87.4390778997913,87.12507599964738,87.12507599964738,None,87.12507599964738,87.12507599964738,87.92233092999086,None,,,,22001,0002,2021_Aug_17_1019,localizer,2021.1.3,59.999807943273424,
block,scrambled,scrambled019.bmp,,,,,0,41,41,41,,,,,,,,,,,,,,,,,,,,,,,,,,,,,,,,,,,,None,,87.92233092999086,None,87.92233092999086,None,2021-08-17-10:20:23.354304,87.92264640005305,88.22251489991322,87.92264640005305,None,None,87.92264640005305,None,88.72252272963524,None,,,,22001,0002,2021_Aug_17_1019,localizer,2021.1.3,59.999807943273424,
block,scrambled,scrambled076.bmp,,,,,0,42,42,42,,,,,,,,,,,,,,,,,,,,,,,,,,,,,,,,,,,,None,,88.72252272963524,None,88.72252272963524,None,2021-08-17-10:20:24.163631,88.73490720009431,89.03909899992868,88.73490720009431,88.73490720009431,None,88.73490720009431,88.73490720009431,89.53928932975978,None,,,,22001,0002,2021_Aug_17_1019,localizer,2021.1.3,59.999807943273424,
block,scrambled,scrambled021.bmp,,,,,0,43,43,43,,,,,,,,,,,,,,,,,,,,,,,,,,,,,,,,,,,,None,,89.53928932975978,None,89.53928932975978,None,2021-08-17-10:20:24.980388,89.56200109981,89.87247209995985,89.56200109981,None,None,89.56200109981,None,90.35544582977892,None,,,,22001,0002,2021_Aug_17_1019,localizer,2021.1.3,59.999807943273424,
block_end,scrambled,scrambled012.bmp,,,,,0,44,44,44,,,,,,,,,,,,,,,,,,,,,,,,,,,,,,,,,,,,None,,90.35544582977892,None,90.35544582977892,None,2021-08-17-10:20:25.785643,90.35639399988577,90.6558816996403,90.35639399988577,None,None,90.35639399988577,None,91.15582432979718,None,,,,22001,0002,2021_Aug_17_1019,localizer,2021.1.3,59.999807943273424,
block_start,faces,faces075.bmp,,,,,0,45,45,45,,,,,,,,,,,,,,,,,,,,,,,,,,,,,,,,,,,,t,17.376833599992096,91.1559520997107,None,91.1559520997107,None,2021-08-17-10:20:43.990102,108.56831489969045,108.87265020003542,108.56831489969045,None,None,108.56831489969045,None,109.37260682983325,None,,,,22001,0002,2021_Aug_17_1019,localizer,2021.1.3,59.999807943273424,
block,faces,faces019.bmp,,,,,0,46,46,46,,,,,,,,,,,,,,,,,,,,,,,,,,,,,,,,,,,,None,,109.37260682983325,None,109.37260682983325,None,2021-08-17-10:20:44.802263,109.37310939980671,109.67268419964239,109.37310939980671,None,None,109.37310939980671,None,110.17269052993507,None,,,,22001,0002,2021_Aug_17_1019,localizer,2021.1.3,59.999807943273424,
block,faces,faces058.bmp,,,,,0,47,47,47,,,,,,,,,,,,,,,,,,,,,,,,,,,,,,,,,,,,None,,110.17269052993507,None,110.17269052993507,None,2021-08-17-10:20:45.609008,110.17396239982918,110.47277419967577,110.17396239982918,110.17396239982918,None,110.17396239982918,110.17396239982918,110.98944672998041,None,,,,22001,0002,2021_Aug_17_1019,localizer,2021.1.3,59.999807943273424,
block,faces,faces067.bmp,,,,,0,48,48,48,,,,,,,,,,,,,,,,,,,,,,,,,,,,,,,,,,,,None,,110.98944672998041,None,110.98944672998041,None,2021-08-17-10:20:46.429749,111.01157699991018,111.32270999997854,111.01157699991018,None,None,111.01157699991018,None,111.80611553005875,None,,,,22001,0002,2021_Aug_17_1019,localizer,2021.1.3,59.999807943273424,
block,faces,faces087.bmp,,,,,0,49,49,49,,,,,,,,,,,,,,,,,,,,,,,,,,,,,,,,,,,,None,,111.80611553005875,None,111.80611553005875,None,2021-08-17-10:20:47.245218,111.82249569986016,112.12276679975912,111.82249569986016,None,None,111.82249569986016,None,112.62278142999858,None,,,,22001,0002,2021_Aug_17_1019,localizer,2021.1.3,59.999807943273424,
block,faces,faces012.bmp,,,,,0,50,50,50,,,,,,,,,,,,,,,,,,,,,,,,,,,,,,,,,,,,None,,112.62278142999858,None,112.62278142999858,None,2021-08-17-10:20:48.062081,112.63333689980209,112.93933760002255,112.63333689980209,None,None,112.63333689980209,None,113.43945952979848,None,,,,22001,0002,2021_Aug_17_1019,localizer,2021.1.3,59.999807943273424,
block,faces,faces085.bmp,,,,,0,51,51,51,,,,,,,,,,,,,,,,,,,,,,,,,,,,,,,,,,,,None,,113.43945952979848,None,113.43945952979848,None,2021-08-17-10:20:48.878772,113.44975659996271,113.7559464997612,113.44975659996271,None,None,113.44975659996271,None,114.25600032983348,None,,,,22001,0002,2021_Aug_17_1019,localizer,2021.1.3,59.999807943273424,
block,faces,faces040.bmp,,,,,0,52,52,52,,,,,,,,,,,,,,,,,,,,,,,,,,,,,,,,,,,,None,,114.25600032983348,None,114.25600032983348,None,2021-08-17-10:20:49.695205,114.26681370008737,114.57254719967023,114.26681370008737,None,None,114.26681370008737,None,115.07266202997417,None,,,,22001,0002,2021_Aug_17_1019,localizer,2021.1.3,59.999807943273424,
block,faces,faces018.bmp,,,,,0,53,53,53,,,,,,,,,,,,,,,,,,,,,,,,,,,,,,,,,,,,None,,115.07266202997417,None,115.07266202997417,None,2021-08-17-10:20:50.511907,115.08404630003497,115.38910589972511,115.08404630003497,None,None,115.08404630003497,None,115.88933682963253,None,,,,22001,0002,2021_Aug_17_1019,localizer,2021.1.3,59.999807943273424,
block,faces,faces088.bmp,,,,,0,54,54,54,,,,,,,,,,,,,,,,,,,,,,,,,,,,,,,,,,,,None,,115.88933682963253,None,115.88933682963253,None,2021-08-17-10:20:51.328444,115.9250476998277,116.23928169999272,115.9250476998277,None,None,115.9250476998277,None,116.70610472988338,None,,,,22001,0002,2021_Aug_17_1019,localizer,2021.1.3,59.999807943273424,
block,faces,faces062.bmp,,,,,0,55,55,55,,,,,,,,,,,,,,,,,,,,,,,,,,,,,,,,,,,,None,,116.70610472988338,None,116.70610472988338,None,2021-08-17-10:20:52.144417,116.71431940002367,117.02268229983747,116.71431940002367,None,None,116.71431940002367,None,117.52259852979333,None,,,,22001,0002,2021_Aug_17_1019,localizer,2021.1.3,59.999807943273424,
block,faces,faces030.bmp,,,,,0,56,56,56,,,,,,,,,,,,,,,,,,,,,,,,,,,,,,,,,,,,None,,117.52259852979333,None,117.52259852979333,None,2021-08-17-10:20:52.952791,117.52324859984219,117.8227192000486,117.52324859984219,None,None,117.52324859984219,None,118.32246362986044,None,,,,22001,0002,2021_Aug_17_1019,localizer,2021.1.3,59.999807943273424,
block,faces,faces053.bmp,,,,,0,57,57,57,,,,,,,,,,,,,,,,,,,,,,,,,,,,,,,,,,,,None,,118.32246362986044,None,118.32246362986044,None,2021-08-17-10:20:53.760551,118.33229380007833,118.63897649990395,118.33229380007833,118.33229380007833,None,118.33229380007833,118.33229380007833,119.13940593004227,None,,,,22001,0002,2021_Aug_17_1019,localizer,2021.1.3,59.999807943273424,
block,faces,faces076.bmp,,,,,0,58,58,58,,,,,,,,,,,,,,,,,,,,,,,,,,,,,,,,,,,,None,,119.13940593004227,None,119.13940593004227,None,2021-08-17-10:20:54.576553,119.151172099635,119.45601890003309,119.151172099635,None,None,119.151172099635,None,119.95603893008084,None,,,,22001,0002,2021_Aug_17_1019,localizer,2021.1.3,59.999807943273424,
block_end,faces,faces041.bmp,,,,,0,59,59,59,,,,,,,,,,,,,,,,,,,,,,,,,,,,,,,,,,,,None,,119.95603893008084,None,119.95603893008084,None,2021-08-17-10:20:55.396137,119.97617289982736,120.28899279981852,119.97617289982736,None,None,119.97617289982736,None,120.7726297300309,None,,,,22001,0002,2021_Aug_17_1019,localizer,2021.1.3,59.999807943273424,
null_block,null_block,null_block.bmp,,,,,0,60,60,60,,,,,,,,,,,,,,,,,,,,,,,,,,,,,,,,,,,,t,2.5006659999489784,120.7728013000451,None,120.7728013000451,None,2021-08-17-10:20:58.720005,123.28925223005936,None,123.28925223005936,None,None,123.28925223005936,None,123.29154510004446,None,,,,22001,0002,2021_Aug_17_1019,localizer,2021.1.3,59.999807943273424,
block_start,objects,objects006.bmp,,,,,0,61,61,61,,,,,,,,,,,,,,,,,,,,,,,,,,,,,,,,,,,,t,6.87890260014683,135.306387799792,None,135.306387799792,None,2021-08-17-10:21:17.643475,142.20925659965724,142.52259789966047,142.20925659965724,None,None,142.20925659965724,None,143.02303592963145,None,,,,22001,0002,2021_Aug_17_1019,localizer,2021.1.3,59.999807943273424,
block,objects,objects053.bmp,,,,,0,62,62,62,,,,,,,,,,,,,,,,,,,,,,,,,,,,,,,,,,,,None,,143.02303592963145,None,143.02303592963145,None,2021-08-17-10:21:18.463340,143.04212450003251,143.35624790005386,143.04212450003251,None,None,143.04212450003251,None,143.83953482992948,None,,,,22001,0002,2021_Aug_17_1019,localizer,2021.1.3,59.999807943273424,
block,objects,objects025.bmp,,,,,0,63,63,63,,,,,,,,,,,,,,,,,,,,,,,,,,,,,,,,,,,,None,,143.83953482992948,None,143.83953482992948,None,2021-08-17-10:21:19.279310,143.84913119999692,144.15627139993012,143.84913119999692,None,None,143.84913119999692,None,144.6562512299046,None,,,,22001,0002,2021_Aug_17_1019,localizer,2021.1.3,59.999807943273424,
block,objects,objects008.bmp,,,,,0,64,64,64,,,,,,,,,,,,,,,,,,,,,,,,,,,,,,,,,,,,None,,144.6562512299046,None,144.6562512299046,None,2021-08-17-10:21:20.096368,144.66630969988182,144.97294349968433,144.66630969988182,None,None,144.66630969988182,None,145.4729523296468,None,,,,22001,0002,2021_Aug_17_1019,localizer,2021.1.3,59.999807943273424,
block,objects,objects075.bmp,,,,,0,65,65,65,,,,,,,,,,,,,,,,,,,,,,,,,,,,,,,,,,,,None,,145.4729523296468,None,145.4729523296468,None,2021-08-17-10:21:20.912056,145.48210839973763,145.78965999977663,145.48210839973763,None,None,145.48210839973763,None,146.28971363008023,None,,,,22001,0002,2021_Aug_17_1019,localizer,2021.1.3,59.999807943273424,
block,objects,objects051.bmp,,,,,0,66,66,66,,,,,,,,,,,,,,,,,,,,,,,,,,,,,,,,,,,,None,,146.28971363008023,None,146.28971363008023,None,2021-08-17-10:21:21.729818,146.32277440000325,146.62282089982182,146.32277440000325,None,None,146.32277440000325,None,147.1062251297757,None,,,,22001,0002,2021_Aug_17_1019,localizer,2021.1.3,59.999807943273424,
block,objects,objects042.bmp,,,,,0,67,67,67,,,,,,,,,,,,,,,,,,,,,,,,,,,,,,,,,,,,None,,147.1062251297757,None,147.1062251297757,None,2021-08-17-10:21:22.536425,147.10679849982262,147.40594549989328,147.10679849982262,None,None,147.10679849982262,None,147.90630962988362,None,,,,22001,0002,2021_Aug_17_1019,localizer,2021.1.3,59.999807943273424,
block,objects,objects058.bmp,,,,,0,68,68,68,,,,,,,,,,,,,,,,,,,,,,,,,,,,,,,,,,,,None,,147.90630962988362,None,147.90630962988362,None,2021-08-17-10:21:23.337823,147.90688659995794,148.20631729997694,147.90688659995794,147.90688659995794,None,147.90688659995794,147.90688659995794,148.72248122990132,None,,,,22001,0002,2021_Aug_17_1019,localizer,2021.1.3,59.999807943273424,
block,objects,objects007.bmp,,,,,0,69,69,69,,,,,,,,,,,,,,,,,,,,,,,,,,,,,,,,,,,,None,,148.72248122990132,None,148.72248122990132,None,2021-08-17-10:21:24.156645,148.73298749979585,149.03946569981053,148.73298749979585,None,None,148.73298749979585,None,149.53950912980363,None,,,,22001,0002,2021_Aug_17_1019,localizer,2021.1.3,59.999807943273424,
block,objects,objects016.bmp,,,,,0,70,70,70,,,,,,,,,,,,,,,,,,,,,,,,,,,,,,,,,,,,None,,149.53950912980363,None,149.53950912980363,None,2021-08-17-10:21:24.977820,149.55764039978385,149.85619119973853,149.55764039978385,None,None,149.55764039978385,None,150.35629062969238,None,,,,22001,0002,2021_Aug_17_1019,localizer,2021.1.3,59.999807943273424,
block,objects,objects067.bmp,,,,,0,71,71,71,,,,,,,,,,,,,,,,,,,,,,,,,,,,,,,,,,,,None,,150.35629062969238,None,150.35629062969238,None,2021-08-17-10:21:25.795401,150.38993219984695,150.68966039968655,150.38993219984695,None,None,150.38993219984695,None,151.17299402980134,None,,,,22001,0002,2021_Aug_17_1019,localizer,2021.1.3,59.999807943273424,
block,objects,objects084.bmp,,,,,0,72,72,72,,,,,,,,,,,,,,,,,,,,,,,,,,,,,,,,,,,,None,,151.17299402980134,None,151.17299402980134,None,2021-08-17-10:21:26.611292,151.18112239986658,151.4894834998995,151.18112239986658,None,None,151.18112239986658,None,151.9897175297141,None,,,,22001,0002,2021_Aug_17_1019,localizer,2021.1.3,59.999807943273424,
block,objects,objects065.bmp,,,,,0,73,73,73,,,,,,,,,,,,,,,,,,,,,,,,,,,,,,,,,,,,None,,151.9897175297141,None,151.9897175297141,None,2021-08-17-10:21:27.429818,151.99582009995356,152.30638819979504,151.99582009995356,None,None,151.99582009995356,None,152.8055717298761,None,,,,22001,0002,2021_Aug_17_1019,localizer,2021.1.3,59.999807943273424,
block,objects,objects073.bmp,,,,,0,74,74,74,,,,,,,,,,,,,,,,,,,,,,,,,,,,,,,,,,,,None,,152.8055717298761,None,152.8055717298761,None,2021-08-17-10:21:28.236031,152.80678340001032,153.10622479999438,152.80678340001032,None,None,152.80678340001032,None,153.60634653000162,None,,,,22001,0002,2021_Aug_17_1019,localizer,2021.1.3,59.999807943273424,
block_end,objects,objects055.bmp,,,,,0,75,75,75,,,,,,,,,,,,,,,,,,,,,,,,,,,,,,,,,,,,None,,153.60634653000162,None,153.60634653000162,None,2021-08-17-10:21:29.048441,153.6171705997549,153.9228722997941,153.6171705997549,153.6171705997549,None,153.6171705997549,153.6171705997549,154.42308803005145,None,,,,22001,0002,2021_Aug_17_1019,localizer,2021.1.3,59.999807943273424,
block_start,scrambled,scrambled048.bmp,,,,,0,76,76,76,,,,,,,,,,,,,,,,,,,,,,,,,,,,,,,,,,,,t,7.220735600218177,154.42288619978353,None,154.42288619978353,None,2021-08-17-10:21:37.111419,161.68633119994774,161.98908199975267,161.68633119994774,None,y,161.68633119994774,None,162.48975372975693,None,0.18165280018001795,,,22001,0002,2021_Aug_17_1019,localizer,2021.1.3,59.999807943273424,
block,scrambled,scrambled088.bmp,,,,,0,77,77,77,,,,,,,,,,,,,,,,,,,,,,,,,,,,,,,,,,,,None,,162.48975372975693,None,162.48975372975693,None,2021-08-17-10:21:37.928864,162.50923729967326,162.8228564998135,162.50923729967326,None,None,162.50923729967326,None,163.30594492992387,None,,,,22001,0002,2021_Aug_17_1019,localizer,2021.1.3,59.999807943273424,
block,scrambled,scrambled068.bmp,,,,,0,78,78,78,,,,,,,,,,,,,,,,,,,,,,,,,,,,,,,,,,,,None,,163.30594492992387,None,163.30594492992387,None,2021-08-17-10:21:38.737813,163.30669480003417,163.60613999981433,163.30669480003417,None,None,163.30669480003417,None,164.10647072978318,None,,,,22001,0002,2021_Aug_17_1019,localizer,2021.1.3,59.999807943273424,
block,scrambled,scrambled016.bmp,,,,,0,79,79,79,,,,,,,,,,,,,,,,,,,,,,,,,,,,,,,,,,,,None,,164.10647072978318,None,164.10647072978318,None,2021-08-17-10:21:39.547777,164.11759210005403,164.42294439999387,164.11759210005403,164.11759210005403,None,164.11759210005403,164.11759210005403,164.92297833003104,None,,,,22001,0002,2021_Aug_17_1019,localizer,2021.1.3,59.999807943273424,
block,scrambled,scrambled076.bmp,,,,,0,80,80,80,,,,,,,,,,,,,,,,,,,,,,,,,,,,,,,,,,,,None,,164.92297833003104,None,164.92297833003104,None,2021-08-17-10:21:40.353401,164.92330269981176,165.22295519988984,164.92330269981176,None,None,164.92330269981176,None,165.7231092300266,None,,,,22001,0002,2021_Aug_17_1019,localizer,2021.1.3,59.999807943273424,
block,scrambled,scrambled035.bmp,,,,,0,81,81,81,,,,,,,,,,,,,,,,,,,,,,,,,,,,,,,,,,,,None,,165.7231092300266,None,165.7231092300266,None,2021-08-17-10:21:41.165212,165.73423360008746,166.03974079992622,165.73423360008746,165.73423360008746,None,165.73423360008746,165.73423360008746,166.53966052979231,None,,,,22001,0002,2021_Aug_17_1019,localizer,2021.1.3,59.999807943273424,
block,scrambled,scrambled071.bmp,,,,,0,82,82,82,,,,,,,,,,,,,,,,,,,,,,,,,,,,,,,,,,,,None,,166.53966052979231,None,166.53966052979231,None,2021-08-17-10:21:41.977971,166.57125929975882,166.8729530996643,166.57125929975882,None,None,166.57125929975882,None,167.35621703006328,None,,,,22001,0002,2021_Aug_17_1019,localizer,2021.1.3,59.999807943273424,
block,scrambled,scrambled044.bmp,,,,,0,83,83,83,,,,,,,,,,,,,,,,,,,,,,,,,,,,,,,,,,,,None,,167.35621703006328,None,167.35621703006328,None,2021-08-17-10:21:42.786639,167.3568060998805,167.65625369967893,167.3568060998805,None,None,167.3568060998805,None,168.15642703007907,None,,,,22001,0002,2021_Aug_17_1019,localizer,2021.1.3,59.999807943273424,
block,scrambled,scrambled062.bmp,,,,,0,84,84,84,,,,,,,,,,,,,,,,,,,,,,,,,,,,,,,,,,,,None,,168.15642703007907,None,168.15642703007907,None,2021-08-17-10:21:43.596700,168.16747580002993,168.473152899649,168.16747580002993,168.16747580002993,None,168.16747580002993,168.16747580002993,168.9730083300732,None,,,,22001,0002,2021_Aug_17_1019,localizer,2021.1.3,59.999807943273424,
block,scrambled,scrambled025.bmp,,,,,0,85,85,85,,,,,,,,,,,,,,,,,,,,,,,,,,,,,,,,,,,,None,,168.9730083300732,None,168.9730083300732,None,2021-08-17-10:21:44.411309,168.98259710008278,169.289808599744,168.98259710008278,None,None,168.98259710008278,None,169.7893449297175,None,,,,22001,0002,2021_Aug_17_1019,localizer,2021.1.3,59.999807943273424,
block,scrambled,scrambled025.bmp,,,,,0,86,86,86,,,,,,,,,,,,,,,,,,,,,,,,,,,,,,,,,,,,None,,169.7893449297175,None,169.7893449297175,None,2021-08-17-10:21:45.219493,169.79009719984606,170.08965649968013,169.79009719984606,None,None,169.79009719984606,None,170.58957722978667,None,,,,22001,0002,2021_Aug_17_1019,localizer,2021.1.3,59.999807943273424,
block,scrambled,scrambled029.bmp,,,,,0,87,87,87,,,,,,,,,,,,,,,,,,,,,,,,,,,,,,,,,,,,None,,170.58957722978667,None,170.58957722978667,None,2021-08-17-10:21:46.030722,170.62420509988442,170.9228350999765,170.62420509988442,170.62420509988442,y,170.62420509988442,170.62420509988442,171.40649773003534,None,0.19366349978372455,,,22001,0002,2021_Aug_17_1019,localizer,2021.1.3,59.999807943273424,
block,scrambled,scrambled075.bmp,,,,,0,88,88,88,,,,,,,,,,,,,,,,,,,,,,,,,,,,,,,,,,,,None,,171.40649773003534,None,171.40649773003534,None,2021-08-17-10:21:46.846785,171.4282068000175,171.73977309977636,171.4282068000175,None,None,171.4282068000175,None,172.22304002996535,None,,,,22001,0002,2021_Aug_17_1019,localizer,2021.1.3,59.999807943273424,
block,scrambled,scrambled061.bmp,,,,,0,89,89,89,,,,,,,,,,,,,,,,,,,,,,,,,,,,,,,,,,,,None,,172.22304002996535,None,172.22304002996535,None,2021-08-17-10:21:47.657207,172.2261186996475,172.53969819983467,172.2261186996475,None,None,172.2261186996475,None,173.03956092996523,None,,,,22001,0002,2021_Aug_17_1019,localizer,2021.1.3,59.999807943273424,
block_end,scrambled,scrambled027.bmp,,,,,0,90,90,90,,,,,,,,,,,,,,,,,,,,,,,,,,,,,,,,,,,,None,,173.03956092996523,None,173.03956092996523,None,2021-08-17-10:21:48.470042,173.040173899848,173.33936369977891,173.040173899848,None,None,173.040173899848,None,173.8397142296657,None,,,,22001,0002,2021_Aug_17_1019,localizer,2021.1.3,59.999807943273424,
block_start,scenes,scenes063.bmp,,,,,0,91,91,91,,,,,,,,,,,,,,,,,,,,,,,,,,,,,,,,,,,,t,8.454572299961,173.83978899987414,None,173.83978899987414,None,2021-08-17-10:21:57.751633,182.32694069994614,182.6398561000824,182.32694069994614,None,None,182.32694069994614,None,183.1395801297389,None,,,,22001,0002,2021_Aug_17_1019,localizer,2021.1.3,59.999807943273424,
block,scenes,scenes036.bmp,,,,,0,92,92,92,,,,,,,,,,,,,,,,,,,,,,,,,,,,,,,,,,,,None,,183.1395801297389,None,183.1395801297389,None,2021-08-17-10:21:58.569859,183.14038740005344,183.43985879980028,183.14038740005344,None,None,183.14038740005344,None,183.93976622968913,None,,,,22001,0002,2021_Aug_17_1019,localizer,2021.1.3,59.999807943273424,
block,scenes,scenes062.bmp,,,,,0,93,93,93,,,,,,,,,,,,,,,,,,,,,,,,,,,,,,,,,,,,None,,183.93976622968913,None,183.93976622968913,None,2021-08-17-10:21:59.381910,183.96354799997061,184.27291460009292,183.96354799997061,183.96354799997061,None,183.96354799997061,183.96354799997061,184.75616383003072,None,,,,22001,0002,2021_Aug_17_1019,localizer,2021.1.3,59.999807943273424,
block,scenes,scenes044.bmp,,,,,0,94,94,94,,,,,,,,,,,,,,,,,,,,,,,,,,,,,,,,,,,,None,,184.75616383003072,None,184.75616383003072,None,2021-08-17-10:22:00.186056,184.75686319964007,185.0563757000491,184.75686319964007,None,None,184.75686319964007,None,185.55654982998968,None,,,,22001,0002,2021_Aug_17_1019,localizer,2021.1.3,59.999807943273424,
block,scenes,scenes041.bmp,,,,,0,95,95,95,,,,,,,,,,,,,,,,,,,,,,,,,,,,,,,,,,,,None,,185.55654982998968,None,185.55654982998968,None,2021-08-17-10:22:00.999009,185.56997879967093,185.87303850008175,185.56997879967093,185.56997879967093,None,185.56997879967093,185.56997879967093,186.3730683299713,None,,,,22001,0002,2021_Aug_17_1019,localizer,2021.1.3,59.999807943273424,
block,scenes,scenes086.bmp,,,,,0,96,96,96,,,,,,,,,,,,,,,,,,,,,,,,,,,,,,,,,,,,None,,186.3730683299713,None,186.3730683299713,None,2021-08-17-10:22:01.805428,186.3737031999044,186.67304220004007,186.3737031999044,None,None,186.3737031999044,None,187.17311983006076,None,,,,22001,0002,2021_Aug_17_1019,localizer,2021.1.3,59.999807943273424,
block,scenes,scenes055.bmp,,,,,0,97,97,97,,,,,,,,,,,,,,,,,,,,,,,,,,,,,,,,,,,,None,,187.17311983006076,None,187.17311983006076,None,2021-08-17-10:22:02.604475,187.17534739989787,187.48993739997968,187.17534739989787,187.17534739989787,None,187.17534739989787,187.17534739989787,187.98989962982014,None,,,,22001,0002,2021_Aug_17_1019,localizer,2021.1.3,59.999807943273424,
block,scenes,scenes071.bmp,,,,,0,98,98,98,,,,,,,,,,,,,,,,,,,,,,,,,,,,,,,,,,,,None,,187.98989962982014,None,187.98989962982014,None,2021-08-17-10:22:03.429149,188.023324099835,188.32313239993528,188.023324099835,None,None,188.023324099835,None,188.8064511298202,None,,,,22001,0002,2021_Aug_17_1019,localizer,2021.1.3,59.999807943273424,
block,scenes,scenes047.bmp,,,,,0,99,99,99,,,,,,,,,,,,,,,,,,,,,,,,,,,,,,,,,,,,None,,188.8064511298202,None,188.8064511298202,None,2021-08-17-10:22:04.236798,188.81181290000677,189.12302519986406,188.81181290000677,None,None,188.81181290000677,None,189.6231083298102,None,,,,22001,0002,2021_Aug_17_1019,localizer,2021.1.3,59.999807943273424,
block,scenes,scenes051.bmp,,,,,0,100,100,100,,,,,,,,,,,,,,,,,,,,,,,,,,,,,,,,,,,,None,,189.6231083298102,None,189.6231083298102,None,2021-08-17-10:22:05.055555,189.62367150001228,189.9231095998548,189.62367150001228,None,None,189.62367150001228,None,190.4232167299837,None,,,,22001,0002,2021_Aug_17_1019,localizer,2021.1.3,59.999807943273424,
block,scenes,scenes078.bmp,,,,,0,101,101,101,,,,,,,,,,,,,,,,,,,,,,,,,,,,,,,,,,,,None,,190.4232167299837,None,190.4232167299837,None,2021-08-17-10:22:05.865630,190.46335249999538,190.77325550001115,190.46335249999538,190.46335249999538,None,190.46335249999538,190.46335249999538,191.23982642972842,None,,,,22001,0002,2021_Aug_17_1019,localizer,2021.1.3,59.999807943273424,
block,scenes,scenes070.bmp,,,,,0,102,102,102,,,,,,,,,,,,,,,,,,,,,,,,,,,,,,,,,,,,None,,191.23982642972842,None,191.23982642972842,None,2021-08-17-10:22:06.678450,191.24912199983373,191.55630819965154,191.24912199983373,None,None,191.24912199983373,None,192.0565911299549,None,,,,22001,0002,2021_Aug_17_1019,localizer,2021.1.3,59.999807943273424,
block,scenes,scenes050.bmp,,,,,0,103,103,103,,,,,,,,,,,,,,,,,,,,,,,,,,,,,,,,,,,,None,,192.0565911299549,None,192.0565911299549,None,2021-08-17-10:22:07.496032,192.07602480007336,192.38991279993206,192.07602480007336,None,None,192.07602480007336,None,192.8731241296977,None,,,,22001,0002,2021_Aug_17_1019,localizer,2021.1.3,59.999807943273424,
block,scenes,scenes074.bmp,,,,,0,104,104,104,,,,,,,,,,,,,,,,,,,,,,,,,,,,,,,,,,,,None,,192.8731241296977,None,192.8731241296977,None,2021-08-17-10:22:08.311760,192.9013032000512,193.2065333998762,192.9013032000512,None,None,192.9013032000512,None,193.68995222970844,None,,,,22001,0002,2021_Aug_17_1019,localizer,2021.1.3,59.999807943273424,
block_end,scenes,scenes080.bmp,,,,,0,105,105,105,,,,,,,,,,,,,,,,,,,,,,,,,,,,,,,,,,,,None,,193.68995222970844,None,193.68995222970844,None,2021-08-17-10:22:09.129311,193.70492499973625,194.00606739986688,193.70492499973625,None,None,193.70492499973625,None,194.50669322963805,None,,,,22001,0002,2021_Aug_17_1019,localizer,2021.1.3,59.999807943273424,
null_block,null_block,null_block.bmp,,,,,0,106,106,106,,,,,,,,,,,,,,,,,,,,,,,,,,,,,,,,,,,,t,9.115620699711144,194.50672589987516,None,194.50672589987516,None,2021-08-17-10:22:19.076648,203.65662255994977,None,203.65662255994977,None,None,203.65662255994977,None,203.6511653997004,None,,,,22001,0002,2021_Aug_17_1019,localizer,2021.1.3,59.999807943273424,
block_start,faces,faces085.bmp,,,,,0,107,107,107,,,,,,,,,,,,,,,,,,,,,,,,,,,,,,,,,,,,t,3.034245999995619,215.6568188997917,None,215.6568188997917,None,2021-08-17-10:22:34.146173,218.71115979971364,219.0234280996956,218.71115979971364,None,None,218.71115979971364,None,219.52314182985575,None,,,,22001,0002,2021_Aug_17_1019,localizer,2021.1.3,59.999807943273424,
block,faces,faces076.bmp,,,,,0,108,108,108,,,,,,,,,,,,,,,,,,,,,,,,,,,,,,,,,,,,None,,219.52314182985575,None,219.52314182985575,None,2021-08-17-10:22:34.953260,219.5238697999157,219.8233487997204,219.5238697999157,None,None,219.5238697999157,None,220.32317313002423,None,,,,22001,0002,2021_Aug_17_1019,localizer,2021.1.3,59.999807943273424,
block,faces,faces009.bmp,,,,,0,109,109,109,,,,,,,,,,,,,,,,,,,,,,,,,,,,,,,,,,,,None,,220.32317313002423,None,220.32317313002423,None,2021-08-17-10:22:35.755428,220.32384129986167,220.62344429967925,220.32384129986167,220.32384129986167,None,220.32384129986167,220.32384129986167,221.12344662994147,None,,,,22001,0002,2021_Aug_17_1019,localizer,2021.1.3,59.999807943273424,
block,faces,faces044.bmp,,,,,0,110,110,110,,,,,,,,,,,,,,,,,,,,,,,,,,,,,,,,,,,,None,,221.12344662994147,None,221.12344662994147,None,2021-08-17-10:22:36.566617,221.145967700053,221.45672190003097,221.145967700053,221.145967700053,None,221.145967700053,221.145967700053,221.9401079300791,None,,,,22001,0002,2021_Aug_17_1019,localizer,2021.1.3,59.999807943273424,
block,faces,faces089.bmp,,,,,0,111,111,111,,,,,,,,,,,,,,,,,,,,,,,,,,,,,,,,,,,,None,,221.9401079300791,None,221.9401079300791,None,2021-08-17-10:22:37.380317,221.94918960006908,222.25663479976356,221.94918960006908,None,None,221.94918960006908,None,222.75619272990153,None,,,,22001,0002,2021_Aug_17_1019,localizer,2021.1.3,59.999807943273424,
block,faces,faces039.bmp,,,,,0,112,112,112,,,,,,,,,,,,,,,,,,,,,,,,,,,,,,,,,,,,None,,222.75619272990153,None,222.75619272990153,None,2021-08-17-10:22:38.188591,222.75718059996143,223.056736999657,222.75718059996143,None,None,222.75718059996143,None,223.55686952974648,None,,,,22001,0002,2021_Aug_17_1019,localizer,2021.1.3,59.999807943273424,
block,faces,faces045.bmp,,,,,0,113,113,113,,,,,,,,,,,,,,,,,,,,,,,,,,,,,,,,,,,,None,,223.55686952974648,None,223.55686952974648,None,2021-08-17-10:22:39.000101,223.56889889994636,223.87354509998113,223.56889889994636,223.56889889994636,None,223.56889889994636,223.56889889994636,224.37331342985854,None,,,,22001,0002,2021_Aug_17_1019,localizer,2021.1.3,59.999807943273424,
block,faces,faces008.bmp,,,,,0,114,114,114,,,,,,,,,,,,,,,,,,,,,,,,,,,,,,,,,,,,None,,224.37331342985854,None,224.37331342985854,None,2021-08-17-10:22:39.810598,224.39025989966467,224.68988629989326,224.39025989966467,None,None,224.39025989966467,None,225.1902593300678,None,,,,22001,0002,2021_Aug_17_1019,localizer,2021.1.3,59.999807943273424,
block,faces,faces026.bmp,,,,,0,115,115,115,,,,,,,,,,,,,,,,,,,,,,,,,,,,,,,,,,,,None,,225.1902593300678,None,225.1902593300678,None,2021-08-17-10:22:40.630607,225.25294329971075,225.55662599997595,225.25294329971075,None,None,225.25294329971075,None,226.00692632989958,None,,,,22001,0002,2021_Aug_17_1019,localizer,2021.1.3,59.999807943273424,
block,faces,faces041.bmp,,,,,0,116,116,116,,,,,,,,,,,,,,,,,,,,,,,,,,,,,,,,,,,,None,,226.00692632989958,None,226.00692632989958,None,2021-08-17-10:22:41.449299,226.0181674999185,226.3234703000635,226.0181674999185,None,None,226.0181674999185,None,226.82341762967408,None,,,,22001,0002,2021_Aug_17_1019,localizer,2021.1.3,59.999807943273424,
block,faces,faces074.bmp,,,,,0,117,117,117,,,,,,,,,,,,,,,,,,,,,,,,,,,,,,,,,,,,None,,226.82341762967408,None,226.82341762967408,None,2021-08-17-10:22:42.263946,226.84852389991283,227.1568408999592,226.84852389991283,None,None,226.84852389991283,None,227.6401845296845,None,,,,22001,0002,2021_Aug_17_1019,localizer,2021.1.3,59.999807943273424,
block,faces,faces078.bmp,,,,,0,118,118,118,,,,,,,,,,,,,,,,,,,,,,,,,,,,,,,,,,,,None,,227.6401845296845,None,227.6401845296845,None,2021-08-17-10:22:43.082524,227.66226499993354,227.97298169974238,227.66226499993354,None,None,227.66226499993354,None,228.45647102976218,None,,,,22001,0002,2021_Aug_17_1019,localizer,2021.1.3,59.999807943273424,
block,faces,faces017.bmp,,,,,0,119,119,119,,,,,,,,,,,,,,,,,,,,,,,,,,,,,,,,,,,,None,,228.45647102976218,None,228.45647102976218,None,2021-08-17-10:22:43.895849,228.46722669992596,228.77318299980834,228.46722669992596,None,None,228.46722669992596,None,229.27352952966467,None,,,,22001,0002,2021_Aug_17_1019,localizer,2021.1.3,59.999807943273424,
block,faces,faces034.bmp,,,,,0,120,120,120,,,,,,,,,,,,,,,,,,,,,,,,,,,,,,,,,,,,None,,229.27352952966467,None,229.27352952966467,None,2021-08-17-10:22:44.713972,229.29324009967968,229.6067244000733,229.29324009967968,None,None,229.29324009967968,None,230.09021662976593,None,,,,22001,0002,2021_Aug_17_1019,localizer,2021.1.3,59.999807943273424,
block_end,faces,faces036.bmp,,,,,0,121,121,121,,,,,,,,,,,,,,,,,,,,,,,,,,,,,,,,,,,,None,,230.09021662976593,None,230.09021662976593,None,2021-08-17-10:22:45.532617,230.10258989967406,230.4067816999741,230.10258989967406,None,None,230.10258989967406,None,230.90639483006672,None,,,,22001,0002,2021_Aug_17_1019,localizer,2021.1.3,59.999807943273424,
block_start,objects,objects067.bmp,,,,,0,122,122,122,,,,,,,,,,,,,,,,,,,,,,,,,,,,,,,,,,,,t,16.646824599709362,230.90656459983438,None,230.90656459983438,None,2021-08-17-10:23:03.014459,247.57859990000725,247.89036670001224,247.57859990000725,None,None,247.57859990000725,None,248.39010312976316,None,,,,22001,0002,2021_Aug_17_1019,localizer,2021.1.3,59.999807943273424,
block,objects,objects024.bmp,,,,,0,123,123,123,,,,,,,,,,,,,,,,,,,,,,,,,,,,,,,,,,,,None,,248.39010312976316,None,248.39010312976316,None,2021-08-17-10:23:03.821082,248.39075089991093,248.6901825997047,248.39075089991093,None,None,248.39075089991093,None,249.1903417297639,None,,,,22001,0002,2021_Aug_17_1019,localizer,2021.1.3,59.999807943273424,
block,objects,objects016.bmp,,,,,0,124,124,124,,,,,,,,,,,,,,,,,,,,,,,,,,,,,,,,,,,,None,,249.1903417297639,None,249.1903417297639,None,2021-08-17-10:23:04.632904,249.20189049979672,249.50654509989545,249.20189049979672,249.20189049979672,None,249.20189049979672,249.20189049979672,250.00691082989798,None,,,,22001,0002,2021_Aug_17_1019,localizer,2021.1.3,59.999807943273424,
block,objects,objects061.bmp,,,,,0,125,125,125,,,,,,,,,,,,,,,,,,,,,,,,,,,,,,,,,,,,None,,250.00691082989798,None,250.00691082989798,None,2021-08-17-10:23:05.438924,250.00723369978368,250.30688400007784,250.00723369978368,None,None,250.00723369978368,None,250.8071326297708,None,,,,22001,0002,2021_Aug_17_1019,localizer,2021.1.3,59.999807943273424,
block,objects,objects033.bmp,,,,,0,126,126,126,,,,,,,,,,,,,,,,,,,,,,,,,,,,,,,,,,,,None,,250.8071326297708,None,250.8071326297708,None,2021-08-17-10:23:06.250065,250.82116659963503,251.12349959975109,250.82116659963503,250.82116659963503,None,250.82116659963503,250.82116659963503,251.62343953000382,None,,,,22001,0002,2021_Aug_17_1019,localizer,2021.1.3,59.999807943273424,
block,objects,objects043.bmp,,,,,0,127,127,127,,,,,,,,,,,,,,,,,,,,,,,,,,,,,,,,,,,,None,,251.62343953000382,None,251.62343953000382,None,2021-08-17-10:23:07.056479,251.63361979974434,251.94015670008957,251.63361979974434,None,None,251.63361979974434,None,252.4403313296847,None,,,,22001,0002,2021_Aug_17_1019,localizer,2021.1.3,59.999807943273424,
block,objects,objects056.bmp,,,,,0,128,128,128,,,,,,,,,,,,,,,,,,,,,,,,,,,,,,,,,,,,None,,252.4403313296847,None,252.4403313296847,None,2021-08-17-10:23:07.882314,252.46011930005625,252.77351809991524,252.46011930005625,None,None,252.46011930005625,None,253.25701482975856,None,,,,22001,0002,2021_Aug_17_1019,localizer,2021.1.3,59.999807943273424,
block,objects,objects054.bmp,,,,,0,129,129,129,,,,,,,,,,,,,,,,,,,,,,,,,,,,,,,,,,,,None,,253.25701482975856,None,253.25701482975856,None,2021-08-17-10:23:08.698036,253.2684825998731,253.5736341997981,253.2684825998731,None,None,253.2684825998731,None,254.07372553003952,None,,,,22001,0002,2021_Aug_17_1019,localizer,2021.1.3,59.999807943273424,
block,objects,objects088.bmp,,,,,0,130,130,130,,,,,,,,,,,,,,,,,,,,,,,,,,,,,,,,,,,,None,,254.07372553003952,None,254.07372553003952,None,2021-08-17-10:23:09.514956,254.08294719969854,254.3895876999013,254.08294719969854,None,None,254.08294719969854,None,254.8902652297169,None,,,,22001,0002,2021_Aug_17_1019,localizer,2021.1.3,59.999807943273424,
block,objects,objects005.bmp,,,,,0,131,131,131,,,,,,,,,,,,,,,,,,,,,,,,,,,,,,,,,,,,None,,254.8902652297169,None,254.8902652297169,None,2021-08-17-10:23:10.331320,254.92297740001231,255.22371349995956,254.92297740001231,None,None,254.92297740001231,None,255.70697232997045,None,,,,22001,0002,2021_Aug_17_1019,localizer,2021.1.3,59.999807943273424,
block,objects,objects060.bmp,,,,,0,132,132,132,,,,,,,,,,,,,,,,,,,,,,,,,,,,,,,,,,,,None,,255.70697232997045,None,255.70697232997045,None,2021-08-17-10:23:11.139134,255.7074321997352,256.00673840008676,255.7074321997352,None,None,255.7074321997352,None,256.5070879297331,None,,,,22001,0002,2021_Aug_17_1019,localizer,2021.1.3,59.999807943273424,
block,objects,objects009.bmp,,,,,0,133,133,133,,,,,,,,,,,,,,,,,,,,,,,,,,,,,,,,,,,,None,,256.5070879297331,None,256.5070879297331,None,2021-08-17-10:23:11.951381,256.51925109978765,256.82369689969346,256.51925109978765,256.51925109978765,None,256.51925109978765,256.51925109978765,257.32365912999956,None,,,,22001,0002,2021_Aug_17_1019,localizer,2021.1.3,59.999807943273424,
block,objects,objects066.bmp,,,,,0,134,134,134,,,,,,,,,,,,,,,,,,,,,,,,,,,,,,,,,,,,None,,257.32365912999956,None,257.32365912999956,None,2021-08-17-10:23:12.766965,257.3359293998219,257.64027020009235,257.3359293998219,None,None,257.3359293998219,None,258.14041822971774,None,,,,22001,0002,2021_Aug_17_1019,localizer,2021.1.3,59.999807943273424,
block,objects,objects020.bmp,,,,,0,135,135,135,,,,,,,,,,,,,,,,,,,,,,,,,,,,,,,,,,,,None,,258.14041822971774,None,258.14041822971774,None,2021-08-17-10:23:13.579539,258.14428670005873,258.45682229986414,258.14428670005873,None,None,258.14428670005873,None,258.95695072980595,None,,,,22001,0002,2021_Aug_17_1019,localizer,2021.1.3,59.999807943273424,
block_end,objects,objects076.bmp,,,,,0,136,136,136,,,,,,,,,,,,,,,,,,,,,,,,,,,,,,,,,,,,None,,258.95695072980595,None,258.95695072980595,None,2021-08-17-10:23:14.399103,258.9668844998814,259.2735903998837,258.9668844998814,None,None,258.9668844998814,None,259.7735998300835,None,,,,22001,0002,2021_Aug_17_1019,localizer,2021.1.3,59.999807943273424,
block_start,scrambled,scrambled071.bmp,,,,,0,137,137,137,,,,,,,,,,,,,,,,,,,,,,,,,,,,,,,,,,,,t,15.254650000017136,259.7735775997862,None,259.7735775997862,None,2021-08-17-10:23:30.491696,275.05739129986614,275.3568253996782,275.05739129986614,None,None,275.05739129986614,None,275.85719783008096,None,,,,22001,0002,2021_Aug_17_1019,localizer,2021.1.3,59.999807943273424,
block,scrambled,scrambled087.bmp,,,,,0,138,138,138,,,,,,,,,,,,,,,,,,,,,,,,,,,,,,,,,,,,None,,275.85719783008096,None,275.85719783008096,None,2021-08-17-10:23:31.301975,275.86919659981504,276.1736825997941,275.86919659981504,275.86919659981504,None,275.86919659981504,275.86919659981504,276.67385223004965,None,,,,22001,0002,2021_Aug_17_1019,localizer,2021.1.3,59.999807943273424,
block,scrambled,scrambled058.bmp,,,,,0,139,139,139,,,,,,,,,,,,,,,,,,,,,,,,,,,,,,,,,,,,None,,276.67385223004965,None,276.67385223004965,None,2021-08-17-10:23:32.116342,276.69192750006914,277.00704639963806,276.69192750006914,None,None,276.69192750006914,None,277.48990902965886,None,,,,22001,0002,2021_Aug_17_1019,localizer,2021.1.3,59.999807943273424,
block,scrambled,scrambled067.bmp,,,,,0,140,140,140,,,,,,,,,,,,,,,,,,,,,,,,,,,,,,,,,,,,None,,277.48990902965886,None,277.48990902965886,None,2021-08-17-10:23:32.923907,277.490753099788,277.7905059000477,277.490753099788,None,None,277.490753099788,None,278.2904514298774,None,,,,22001,0002,2021_Aug_17_1019,localizer,2021.1.3,59.999807943273424,
block,scrambled,scrambled073.bmp,,,,,0,141,141,141,,,,,,,,,,,,,,,,,,,,,,,,,,,,,,,,,,,,None,,278.2904514298774,None,278.2904514298774,None,2021-08-17-10:23:33.735093,278.3262855997309,278.64021939970553,278.3262855997309,278.3262855997309,None,278.3262855997309,278.3262855997309,279.10700762979684,None,,,,22001,0002,2021_Aug_17_1019,localizer,2021.1.3,59.999807943273424,
block,scrambled,scrambled070.bmp,,,,,0,142,142,142,,,,,,,,,,,,,,,,,,,,,,,,,,,,,,,,,,,,None,,279.10700762979684,None,279.10700762979684,None,2021-08-17-10:23:34.549509,279.12001589965075,279.4233979997225,279.12001589965075,None,None,279.12001589965075,None,279.923541229777,None,,,,22001,0002,2021_Aug_17_1019,localizer,2021.1.3,59.999807943273424,
block,scrambled,scrambled041.bmp,,,,,0,143,143,143,,,,,,,,,,,,,,,,,,,,,,,,,,,,,,,,,,,,None,,279.923541229777,None,279.923541229777,None,2021-08-17-10:23:35.364148,279.93454309972003,280.2401152998209,279.93454309972003,None,None,279.93454309972003,None,280.74028732962904,None,,,,22001,0002,2021_Aug_17_1019,localizer,2021.1.3,59.999807943273424,
block,scrambled,scrambled052.bmp,,,,,0,144,144,144,,,,,,,,,,,,,,,,,,,,,,,,,,,,,,,,,,,,None,,280.74028732962904,None,280.74028732962904,None,2021-08-17-10:23:36.181018,280.7665594997816,281.07321289973333,280.7665594997816,None,None,280.7665594997816,None,281.5569659300148,None,,,,22001,0002,2021_Aug_17_1019,localizer,2021.1.3,59.999807943273424,
block,scrambled,scrambled015.bmp,,,,,0,145,145,145,,,,,,,,,,,,,,,,,,,,,,,,,,,,,,,,,,,,None,,281.5569659300148,None,281.5569659300148,None,2021-08-17-10:23:36.998739,281.584366499912,281.8901855000295,281.584366499912,None,None,281.584366499912,None,282.37341472981495,None,,,,22001,0002,2021_Aug_17_1019,localizer,2021.1.3,59.999807943273424,
block,scrambled,scrambled039.bmp,,,,,0,146,146,146,,,,,,,,,,,,,,,,,,,,,,,,,,,,,,,,,,,,None,,282.37341472981495,None,282.37341472981495,None,2021-08-17-10:23:37.806195,282.374277099967,282.67328269965947,282.374277099967,None,None,282.374277099967,None,283.1901065298356,None,,,,22001,0002,2021_Aug_17_1019,localizer,2021.1.3,59.999807943273424,
block,scrambled,scrambled032.bmp,,,,,0,147,147,147,,,,,,,,,,,,,,,,,,,,,,,,,,,,,,,,,,,,None,,283.1901065298356,None,283.1901065298356,None,2021-08-17-10:23:38.623376,283.1904345997609,283.48993769986555,283.1904345997609,None,None,283.1904345997609,None,283.9906376298517,None,,,,22001,0002,2021_Aug_17_1019,localizer,2021.1.3,59.999807943273424,
block,scrambled,scrambled038.bmp,,,,,0,148,148,148,,,,,,,,,,,,,,,,,,,,,,,,,,,,,,,,,,,,None,,283.9906376298517,None,283.9906376298517,None,2021-08-17-10:23:39.436622,284.0239655999467,284.3238248997368,284.0239655999467,284.0239655999467,None,284.0239655999467,284.0239655999467,284.8072927297093,None,,,,22001,0002,2021_Aug_17_1019,localizer,2021.1.3,59.999807943273424,
block,scrambled,scrambled029.bmp,,,,,0,149,149,149,,,,,,,,,,,,,,,,,,,,,,,,,,,,,,,,,,,,None,,284.8072927297093,None,284.8072927297093,None,2021-08-17-10:23:40.250190,284.8181771999225,285.1237959000282,284.8181771999225,None,None,284.8181771999225,None,285.62378242993725,None,,,,22001,0002,2021_Aug_17_1019,localizer,2021.1.3,59.999807943273424,
block,scrambled,scrambled085.bmp,,,,,0,150,150,150,,,,,,,,,,,,,,,,,,,,,,,,,,,,,,,,,,,,None,,285.62378242993725,None,285.62378242993725,None,2021-08-17-10:23:41.065813,285.6573934000917,285.95715889986604,285.6573934000917,None,None,285.6573934000917,None,286.43990742983294,None,,,,22001,0002,2021_Aug_17_1019,localizer,2021.1.3,59.999807943273424,
block_end,scrambled,scrambled006.bmp,,,,,0,151,151,151,,,,,,,,,,,,,,,,,,,,,,,,,,,,,,,,,,,,None,,286.43990742983294,None,286.43990742983294,None,2021-08-17-10:23:41.874510,286.4408831000328,286.74059750000015,286.4408831000328,None,None,286.4408831000328,None,287.24056012984363,None,,,,22001,0002,2021_Aug_17_1019,localizer,2021.1.3,59.999807943273424,
block_start,scenes,scenes031.bmp,,,,,0,152,152,152,,,,,,,,,,,,,,,,,,,,,,,,,,,,,,,,,,,,t,13.905725299846381,287.24060059990734,None,287.24060059990734,None,2021-08-17-10:23:56.615113,301.1778420996852,301.4905652999878,301.1778420996852,None,None,301.1778420996852,None,301.9905565298162,None,,,,22001,0002,2021_Aug_17_1019,localizer,2021.1.3,59.999807943273424,
block,scenes,scenes059.bmp,,,,,0,153,153,153,,,,,,,,,,,,,,,,,,,,,,,,,,,,,,,,,,,,None,,301.9905565298162,None,301.9905565298162,None,2021-08-17-10:23:57.423904,301.99114520009607,302.2907269997522,301.99114520009607,None,None,301.99114520009607,None,302.7907339298166,None,,,,22001,0002,2021_Aug_17_1019,localizer,2021.1.3,59.999807943273424,
block,scenes,scenes091.bmp,,,,,0,154,154,154,,,,,,,,,,,,,,,,,,,,,,,,,,,,,,,,,,,,None,,302.7907339298166,None,302.7907339298166,None,2021-08-17-10:23:58.236215,302.81463219970465,303.1234259996563,302.81463219970465,302.81463219970465,None,302.81463219970465,302.81463219970465,303.607432529889,None,,,,22001,0002,2021_Aug_17_1019,localizer,2021.1.3,59.999807943273424,
block,scenes,scenes001.bmp,,,,,0,155,155,155,,,,,,,,,,,,,,,,,,,,,,,,,,,,,,,,,,,,None,,303.607432529889,None,303.607432529889,None,2021-08-17-10:23:59.049508,303.61724799964577,303.9240119997412,303.61724799964577,None,None,303.61724799964577,None,304.4240151300095,None,,,,22001,0002,2021_Aug_17_1019,localizer,2021.1.3,59.999807943273424,
block,scenes,scenes016.bmp,,,,,0,156,156,156,,,,,,,,,,,,,,,,,,,,,,,,,,,,,,,,,,,,None,,304.4240151300095,None,304.4240151300095,None,2021-08-17-10:23:59.857425,304.4275019997731,304.74032169999555,304.4275019997731,None,None,304.4275019997731,None,305.240717529878,None,,,,22001,0002,2021_Aug_17_1019,localizer,2021.1.3,59.999807943273424,
block,scenes,scenes054.bmp,,,,,0,157,157,157,,,,,,,,,,,,,,,,,,,,,,,,,,,,,,,,,,,,None,,305.240717529878,None,305.240717529878,None,2021-08-17-10:24:00.682764,305.2762392000295,305.5906672999263,305.2762392000295,None,None,305.2762392000295,None,306.0573821296915,None,,,,22001,0002,2021_Aug_17_1019,localizer,2021.1.3,59.999807943273424,
block,scenes,scenes092.bmp,,,,,0,158,158,158,,,,,,,,,,,,,,,,,,,,,,,,,,,,,,,,,,,,None,,306.0573821296915,None,306.0573821296915,None,2021-08-17-10:24:01.499949,306.0690558999777,306.3740974999964,306.0690558999777,None,None,306.0690558999777,None,306.87345922980455,None,,,,22001,0002,2021_Aug_17_1019,localizer,2021.1.3,59.999807943273424,
block,scenes,scenes058.bmp,,,,,0,159,159,159,,,,,,,,,,,,,,,,,,,,,,,,,,,,,,,,,,,,None,,306.87345922980455,None,306.87345922980455,None,2021-08-17-10:24:02.308737,306.8745174999349,307.17392010008916,306.8745174999349,None,None,306.8745174999349,None,307.67389742992816,None,,,,22001,0002,2021_Aug_17_1019,localizer,2021.1.3,59.999807943273424,
block,scenes,scenes068.bmp,,,,,0,160,160,160,,,,,,,,,,,,,,,,,,,,,,,,,,,,,,,,,,,,None,,307.67389742992816,None,307.67389742992816,None,2021-08-17-10:24:03.119026,307.68702679965645,307.9903333997354,307.68702679965645,307.68702679965645,None,307.68702679965645,307.68702679965645,308.4905361296609,None,,,,22001,0002,2021_Aug_17_1019,localizer,2021.1.3,59.999807943273424,
block,scenes,scenes026.bmp,,,,,0,161,161,161,,,,,,,,,,,,,,,,,,,,,,,,,,,,,,,,,,,,None,,308.4905361296609,None,308.4905361296609,None,2021-08-17-10:24:03.931952,308.52477469993755,308.8239283999428,308.52477469993755,None,None,308.52477469993755,None,309.3074866296723,None,,,,22001,0002,2021_Aug_17_1019,localizer,2021.1.3,59.999807943273424,
block,scenes,scenes024.bmp,,,,,0,162,162,162,,,,,,,,,,,,,,,,,,,,,,,,,,,,,,,,,,,,None,,309.3074866296723,None,309.3074866296723,None,2021-08-17-10:24:04.749918,309.31390370009467,309.6240011998452,309.31390370009467,None,None,309.31390370009467,None,310.1240394297987,None,,,,22001,0002,2021_Aug_17_1019,localizer,2021.1.3,59.999807943273424,
block,scenes,scenes032.bmp,,,,,0,163,163,163,,,,,,,,,,,,,,,,,,,,,,,,,,,,,,,,,,,,None,,310.1240394297987,None,310.1240394297987,None,2021-08-17-10:24:05.566226,310.1340099000372,310.44074059976265,310.1340099000372,None,None,310.1340099000372,None,310.94071262991054,None,,,,22001,0002,2021_Aug_17_1019,localizer,2021.1.3,59.999807943273424,
block,scenes,scenes077.bmp,,,,,0,164,164,164,,,,,,,,,,,,,,,,,,,,,,,,,,,,,,,,,,,,None,,310.94071262991054,None,310.94071262991054,None,2021-08-17-10:24:06.383267,310.9522790997289,311.25716289971024,310.9522790997289,None,None,310.9522790997289,None,311.75742972977457,None,,,,22001,0002,2021_Aug_17_1019,localizer,2021.1.3,59.999807943273424,
block,scenes,scenes012.bmp,,,,,0,165,165,165,,,,,,,,,,,,,,,,,,,,,,,,,,,,,,,,,,,,None,,311.75742972977457,None,311.75742972977457,None,2021-08-17-10:24:07.199656,311.7673387997784,312.0741355996579,311.7673387997784,None,None,311.7673387997784,None,312.57386472970245,None,,,,22001,0002,2021_Aug_17_1019,localizer,2021.1.3,59.999807943273424,
block_end,scenes,scenes029.bmp,,,,,0,166,166,166,,,,,,,,,,,,,,,,,,,,,,,,,,,,,,,,,,,,None,,312.57386472970245,None,312.57386472970245,None,2021-08-17-10:24:08.009434,312.5792816998437,312.8907272000797,312.5792816998437,None,None,312.5792816998437,None,313.39011632986364,None,,,,22001,0002,2021_Aug_17_1019,localizer,2021.1.3,59.999807943273424,
null_block,null_block,null_block.bmp,,,,,0,167,167,167,,,,,,,,,,,,,,,,,,,,,,,,,,,,,,,,,,,,t,7.7682705000042915,313.3901689997874,None,313.3901689997874,None,2021-08-17-10:24:16.613994,321.1908504596911,None,321.1908504596911,None,None,321.1908504596911,None,321.18660329980776,None,,,,22001,0002,2021_Aug_17_1019,localizer,2021.1.3,59.999807943273424,
block_start,faces,faces036.bmp,,,,,0,168,168,168,,,,,,,,,,,,,,,,,,,,,,,,,,,,,,,,,,,,t,2.0701907998882234,333.19079970009625,None,333.19079970009625,None,2021-08-17-10:24:30.729675,335.2914899997413,335.5904549998231,335.2914899997413,None,None,335.2914899997413,None,336.1069137296639,None,,,,22001,0002,2021_Aug_17_1019,localizer,2021.1.3,59.999807943273424,
block,faces,faces007.bmp,,,,,0,169,169,169,,,,,,,,,,,,,,,,,,,,,,,,,,,,,,,,,,,,None,,336.1069137296639,None,336.1069137296639,None,2021-08-17-10:24:31.542673,336.1114087998867,336.42398699978366,336.1114087998867,None,None,336.1114087998867,None,336.9234771296382,None,,,,22001,0002,2021_Aug_17_1019,localizer,2021.1.3,59.999807943273424,
block,faces,faces076.bmp,,,,,0,170,170,170,,,,,,,,,,,,,,,,,,,,,,,,,,,,,,,,,,,,None,,336.9234771296382,None,336.9234771296382,None,2021-08-17-10:24:32.359628,336.9247930999845,337.2240995997563,336.9247930999845,None,None,336.9247930999845,None,337.74031912963835,None,,,,22001,0002,2021_Aug_17_1019,localizer,2021.1.3,59.999807943273424,
block,faces,faces044.bmp,,,,,0,171,171,171,,,,,,,,,,,,,,,,,,,,,,,,,,,,,,,,,,,,None,,337.74031912963835,None,337.74031912963835,None,2021-08-17-10:24:33.176098,337.7413364998065,338.040898299776,337.7413364998065,None,None,337.7413364998065,None,338.55703022992236,None,,,,22001,0002,2021_Aug_17_1019,localizer,2021.1.3,59.999807943273424,
block,faces,faces058.bmp,,,,,0,172,172,172,,,,,,,,,,,,,,,,,,,,,,,,,,,,,,,,,,,,None,,338.55703022992236,None,338.55703022992236,None,2021-08-17-10:24:33.994038,338.55812820000574,338.8576436000876,338.55812820000574,None,None,338.55812820000574,None,339.3740347298793,None,,,,22001,0002,2021_Aug_17_1019,localizer,2021.1.3,59.999807943273424,
block,faces,faces070.bmp,,,,,0,173,173,173,,,,,,,,,,,,,,,,,,,,,,,,,,,,,,,,,,,,None,,339.3740347298793,None,339.3740347298793,None,2021-08-17-10:24:34.808441,339.37581230001524,339.6906514996663,339.37581230001524,None,None,339.37581230001524,None,340.1906796298921,None,,,,22001,0002,2021_Aug_17_1019,localizer,2021.1.3,59.999807943273424,
block,faces,faces012.bmp,,,,,0,174,174,174,,,,,,,,,,,,,,,,,,,,,,,,,,,,,,,,,,,,None,,340.1906796298921,None,340.1906796298921,None,2021-08-17-10:24:35.625009,340.19080560002476,340.4905970999971,340.19080560002476,None,None,340.19080560002476,None,340.99088942967353,None,,,,22001,0002,2021_Aug_17_1019,localizer,2021.1.3,59.999807943273424,
block,faces,faces066.bmp,,,,,0,175,175,175,,,,,,,,,,,,,,,,,,,,,,,,,,,,,,,,,,,,None,,340.99088942967353,None,340.99088942967353,None,2021-08-17-10:24:36.437293,341.02846419997513,341.3406702997163,341.02846419997513,341.02846419997513,None,341.02846419997513,341.02846419997513,341.80730242989955,None,,,,22001,0002,2021_Aug_17_1019,localizer,2021.1.3,59.999807943273424,
block,faces,faces025.bmp,,,,,0,176,176,176,,,,,,,,,,,,,,,,,,,,,,,,,,,,,,,,,,,,None,,341.80730242989955,None,341.80730242989955,None,2021-08-17-10:24:37.244597,341.81487159989774,342.1241386998445,341.81487159989774,None,None,341.81487159989774,None,342.62417542990295,None,,,,22001,0002,2021_Aug_17_1019,localizer,2021.1.3,59.999807943273424,
block,faces,faces018.bmp,,,,,0,177,177,177,,,,,,,,,,,,,,,,,,,,,,,,,,,,,,,,,,,,None,,342.62417542990295,None,342.62417542990295,None,2021-08-17-10:24:38.067830,342.6345222997479,342.94083559978753,342.6345222997479,None,None,342.6345222997479,None,343.440985730011,None,,,,22001,0002,2021_Aug_17_1019,localizer,2021.1.3,59.999807943273424,
block,faces,faces018.bmp,,,,,0,178,178,178,,,,,,,,,,,,,,,,,,,,,,,,,,,,,,,,,,,,None,,343.440985730011,None,343.440985730011,None,2021-08-17-10:24:38.885300,343.45252189971507,343.75744439987466,343.45252189971507,None,y,343.45252189971507,None,344.25768572986124,None,0.6794454003684223,,,22001,0002,2021_Aug_17_1019,localizer,2021.1.3,59.999807943273424,
block,faces,faces011.bmp,,,,,0,179,179,179,,,,,,,,,,,,,,,,,,,,,,,,,,,,,,,,,,,,None,,344.25768572986124,None,344.25768572986124,None,2021-08-17-10:24:39.702056,344.28229529969394,344.59085500007495,344.28229529969394,None,None,344.28229529969394,None,345.07418862972406,None,,,,22001,0002,2021_Aug_17_1019,localizer,2021.1.3,59.999807943273424,
block,faces,faces021.bmp,,,,,0,180,180,180,,,,,,,,,,,,,,,,,,,,,,,,,,,,,,,,,,,,None,,345.07418862972406,None,345.07418862972406,None,2021-08-17-10:24:40.517546,345.09353789966553,345.40706150000915,345.09353789966553,None,None,345.09353789966553,None,345.8905301299877,None,,,,22001,0002,2021_Aug_17_1019,localizer,2021.1.3,59.999807943273424,
block,faces,faces005.bmp,,,,,0,181,181,181,,,,,,,,,,,,,,,,,,,,,,,,,,,,,,,,,,,,None,,345.8905301299877,None,345.8905301299877,None,2021-08-17-10:24:41.326714,345.89575929986313,346.20763469999656,345.89575929986313,None,None,345.89575929986313,None,346.70720142973585,None,,,,22001,0002,2021_Aug_17_1019,localizer,2021.1.3,59.999807943273424,
block_end,faces,faces006.bmp,,,,,0,182,182,182,,,,,,,,,,,,,,,,,,,,,,,,,,,,,,,,,,,,None,,346.70720142973585,None,346.70720142973585,None,2021-08-17-10:24:42.143312,346.70809249999,347.00759400008246,346.70809249999,None,None,346.70809249999,None,347.50757592972366,None,,,,22001,0002,2021_Aug_17_1019,localizer,2021.1.3,59.999807943273424,
block_start,objects,objects018.bmp,,,,,0,183,183,183,,,,,,,,,,,,,,,,,,,,,,,,,,,,,,,,,,,,t,8.858435200061649,347.50757499970496,None,347.50757499970496,None,2021-08-17-10:24:51.833019,356.3987497999333,356.7076280997135,356.3987497999333,None,None,356.3987497999333,None,357.2074382296763,None,,,,22001,0002,2021_Aug_17_1019,localizer,2021.1.3,59.999807943273424,
block,objects,objects074.bmp,,,,,0,184,184,184,,,,,,,,,,,,,,,,,,,,,,,,,,,,,,,,,,,,None,,357.2074382296763,None,357.2074382296763,None,2021-08-17-10:24:52.642200,357.2082140999846,357.5077619999647,357.2082140999846,None,None,357.2082140999846,None,358.00761212976647,None,,,,22001,0002,2021_Aug_17_1019,localizer,2021.1.3,59.999807943273424,
block,objects,objects013.bmp,,,,,0,185,185,185,,,,,,,,,,,,,,,,,,,,,,,,,,,,,,,,,,,,None,,358.00761212976647,None,358.00761212976647,None,2021-08-17-10:24:53.453494,358.0187613000162,358.3244080999866,358.0187613000162,358.0187613000162,None,358.0187613000162,358.0187613000162,358.8242134299129,None,,,,22001,0002,2021_Aug_17_1019,localizer,2021.1.3,59.999807943273424,
block,objects,objects059.bmp,,,,,0,186,186,186,,,,,,,,,,,,,,,,,,,,,,,,,,,,,,,,,,,,None,,358.8242134299129,None,358.8242134299129,None,2021-08-17-10:24:54.259048,358.8276593000628,359.1410622000694,358.8276593000628,None,None,358.8276593000628,None,359.64109712988136,None,,,,22001,0002,2021_Aug_17_1019,localizer,2021.1.3,59.999807943273424,
block,objects,objects004.bmp,,,,,0,187,187,187,,,,,,,,,,,,,,,,,,,,,,,,,,,,,,,,,,,,None,,359.64109712988136,None,359.64109712988136,None,2021-08-17-10:24:55.085836,359.6533649000339,359.95785139966756,359.6533649000339,None,None,359.6533649000339,None,360.45774693004785,None,,,,22001,0002,2021_Aug_17_1019,localizer,2021.1.3,59.999807943273424,
block,objects,objects057.bmp,,,,,0,188,188,188,,,,,,,,,,,,,,,,,,,,,,,,,,,,,,,,,,,,None,,360.45774693004785,None,360.45774693004785,None,2021-08-17-10:24:55.901771,360.4669463997707,360.7742741997354,360.4669463997707,None,None,360.4669463997707,None,361.27447683000935,None,,,,22001,0002,2021_Aug_17_1019,localizer,2021.1.3,59.999807943273424,
block,objects,objects027.bmp,,,,,0,189,189,189,,,,,,,,,,,,,,,,,,,,,,,,,,,,,,,,,,,,None,,361.27447683000935,None,361.27447683000935,None,2021-08-17-10:24:56.719248,361.28447770001367,361.59098930004984,361.28447770001367,None,None,361.28447770001367,None,362.09112373003734,None,,,,22001,0002,2021_Aug_17_1019,localizer,2021.1.3,59.999807943273424,
block,objects,objects043.bmp,,,,,0,190,190,190,,,,,,,,,,,,,,,,,,,,,,,,,,,,,,,,,,,,None,,362.09112373003734,None,362.09112373003734,None,2021-08-17-10:24:57.536903,362.101999099832,362.40774949966,362.101999099832,None,None,362.101999099832,None,362.9075708297081,None,,,,22001,0002,2021_Aug_17_1019,localizer,2021.1.3,59.999807943273424,
block,objects,objects084.bmp,,,,,0,191,191,191,,,,,,,,,,,,,,,,,,,,,,,,,,,,,,,,,,,,None,,362.9075708297081,None,362.9075708297081,None,2021-08-17-10:24:58.350406,362.91506019979715,363.224431599956,362.91506019979715,None,None,362.91506019979715,None,363.7244614298455,None,,,,22001,0002,2021_Aug_17_1019,localizer,2021.1.3,59.999807943273424,
block,objects,objects085.bmp,,,,,0,192,192,192,,,,,,,,,,,,,,,,,,,,,,,,,,,,,,,,,,,,None,,363.7244614298455,None,363.7244614298455,None,2021-08-17-10:24:59.170494,363.73555739969015,364.040866299998,363.73555739969015,None,None,363.73555739969015,None,364.5411573300138,None,,,,22001,0002,2021_Aug_17_1019,localizer,2021.1.3,59.999807943273424,
block,objects,objects085.bmp,,,,,0,193,193,193,,,,,,,,,,,,,,,,,,,,,,,,,,,,,,,,,,,,None,,364.5411573300138,None,364.5411573300138,None,2021-08-17-10:24:59.986239,364.55133350007236,364.8574087996967,364.55133350007236,None,y,364.55133350007236,None,365.35759552996603,None,0.4755400000140071,,,22001,0002,2021_Aug_17_1019,localizer,2021.1.3,59.999807943273424,
block,objects,objects060.bmp,,,,,0,194,194,194,,,,,,,,,,,,,,,,,,,,,,,,,,,,,,,,,,,,None,,365.35759552996603,None,365.35759552996603,None,2021-08-17-10:25:00.800506,365.3623183998279,365.6744313999079,365.3623183998279,None,None,365.3623183998279,None,366.1745335297659,None,,,,22001,0002,2021_Aug_17_1019,localizer,2021.1.3,59.999807943273424,
block,objects,objects038.bmp,,,,,0,195,195,195,,,,,,,,,,,,,,,,,,,,,,,,,,,,,,,,,,,,None,,366.1745335297659,None,366.1745335297659,None,2021-08-17-10:25:01.619431,366.18448799988255,366.49081709980965,366.18448799988255,None,None,366.18448799988255,None,366.991198829934,None,,,,22001,0002,2021_Aug_17_1019,localizer,2021.1.3,59.999807943273424,
block,objects,objects003.bmp,,,,,0,196,196,196,,,,,,,,,,,,,,,,,,,,,,,,,,,,,,,,,,,,None,,366.991198829934,None,366.991198829934,None,2021-08-17-10:25:02.430159,367.0002743997611,367.30771129997447,367.0002743997611,None,None,367.0002743997611,None,367.8076686296612,None,,,,22001,0002,2021_Aug_17_1019,localizer,2021.1.3,59.999807943273424,
block_end,objects,objects019.bmp,,,,,0,197,197,197,,,,,,,,,,,,,,,,,,,,,,,,,,,,,,,,,,,,None,,367.8076686296612,None,367.8076686296612,None,2021-08-17-10:25:03.251737,367.8179220999591,368.124442699831,367.8179220999591,None,None,367.8179220999591,None,368.6244428298436,None,,,,22001,0002,2021_Aug_17_1019,localizer,2021.1.3,59.999807943273424,
block_start,scenes,scenes006.bmp,,,,,0,198,198,198,,,,,,,,,,,,,,,,,,,,,,,,,,,,,,,,,,,,t,11.437323699705303,368.62441039970145,None,368.62441039970145,None,2021-08-17-10:25:15.534519,380.09598740004003,380.40776599990204,380.09598740004003,None,None,380.09598740004003,None,380.90746583007274,None,,,,22001,0002,2021_Aug_17_1019,localizer,2021.1.3,59.999807943273424,
block,scenes,scenes046.bmp,,,,,0,199,199,199,,,,,,,,,,,,,,,,,,,,,,,,,,,,,,,,,,,,None,,380.90746583007274,None,380.90746583007274,None,2021-08-17-10:25:16.344523,380.9084141999483,381.20785119989887,380.9084141999483,None,None,380.9084141999483,None,381.70781902978194,None,,,,22001,0002,2021_Aug_17_1019,localizer,2021.1.3,59.999807943273424,
block,scenes,scenes061.bmp,,,,,0,200,200,200,,,,,,,,,,,,,,,,,,,,,,,,,,,,,,,,,,,,None,,381.70781902978194,None,381.70781902978194,None,2021-08-17-10:25:17.155155,381.72118079988286,382.0243333997205,381.72118079988286,381.72118079988286,None,381.72118079988286,381.72118079988286,382.5244016299024,None,,,,22001,0002,2021_Aug_17_1019,localizer,2021.1.3,59.999807943273424,
block,scenes,scenes024.bmp,,,,,0,201,201,201,,,,,,,,,,,,,,,,,,,,,,,,,,,,,,,,,,,,None,,382.5244016299024,None,382.5244016299024,None,2021-08-17-10:25:17.960072,382.52504689991474,382.8245766996406,382.52504689991474,None,None,382.52504689991474,None,383.32454232973976,None,,,,22001,0002,2021_Aug_17_1019,localizer,2021.1.3,59.999807943273424,
block,scenes,scenes012.bmp,,,,,0,202,202,202,,,,,,,,,,,,,,,,,,,,,,,,,,,,,,,,,,,,None,,383.32454232973976,None,383.32454232973976,None,2021-08-17-10:25:18.771048,383.3356862999499,383.64109320007265,383.3356862999499,383.3356862999499,None,383.3356862999499,383.3356862999499,384.14126192973924,None,,,,22001,0002,2021_Aug_17_1019,localizer,2021.1.3,59.999807943273424,
block,scenes,scenes041.bmp,,,,,0,203,203,203,,,,,,,,,,,,,,,,,,,,,,,,,,,,,,,,,,,,None,,384.14126192973924,None,384.14126192973924,None,2021-08-17-10:25:19.586824,384.15208879997954,384.45775289973244,384.15208879997954,None,None,384.15208879997954,None,384.95793963000176,None,,,,22001,0002,2021_Aug_17_1019,localizer,2021.1.3,59.999807943273424,
block,scenes,scenes008.bmp,,,,,0,204,204,204,,,,,,,,,,,,,,,,,,,,,,,,,,,,,,,,,,,,None,,384.95793963000176,None,384.95793963000176,None,2021-08-17-10:25:20.403203,384.96788730006665,385.2746239998378,384.96788730006665,None,None,384.96788730006665,None,385.77462002970276,None,,,,22001,0002,2021_Aug_17_1019,localizer,2021.1.3,59.999807943273424,
block,scenes,scenes092.bmp,,,,,0,205,205,205,,,,,,,,,,,,,,,,,,,,,,,,,,,,,,,,,,,,None,,385.77462002970276,None,385.77462002970276,None,2021-08-17-10:25:21.215235,385.77507889969274,386.07459329999983,385.77507889969274,None,None,385.77507889969274,None,386.5744990297593,None,,,,22001,0002,2021_Aug_17_1019,localizer,2021.1.3,59.999807943273424,
block,scenes,scenes003.bmp,,,,,0,206,206,206,,,,,,,,,,,,,,,,,,,,,,,,,,,,,,,,,,,,None,,386.5744990297593,None,386.5744990297593,None,2021-08-17-10:25:22.011008,386.5777543000877,386.89121789997444,386.5777543000877,386.5777543000877,None,386.5777543000877,386.5777543000877,387.39149972992016,None,,,,22001,0002,2021_Aug_17_1019,localizer,2021.1.3,59.999807943273424,
block,scenes,scenes070.bmp,,,,,0,207,207,207,,,,,,,,,,,,,,,,,,,,,,,,,,,,,,,,,,,,None,,387.39149972992016,None,387.39149972992016,None,2021-08-17-10:25:22.838082,387.402836299967,387.7079362999648,387.402836299967,None,None,387.402836299967,None,388.2080838299356,None,,,,22001,0002,2021_Aug_17_1019,localizer,2021.1.3,59.999807943273424,
block,scenes,scenes043.bmp,,,,,0,208,208,208,,,,,,,,,,,,,,,,,,,,,,,,,,,,,,,,,,,,None,,388.2080838299356,None,388.2080838299356,None,2021-08-17-10:25:23.653484,388.2194475000724,388.524596999865,388.2194475000724,None,None,388.2194475000724,None,389.0248339298181,None,,,,22001,0002,2021_Aug_17_1019,localizer,2021.1.3,59.999807943273424,
block,scenes,scenes078.bmp,,,,,0,209,209,209,,,,,,,,,,,,,,,,,,,,,,,,,,,,,,,,,,,,None,,389.0248339298181,None,389.0248339298181,None,2021-08-17-10:25:24.469360,389.0352026997134,389.34159140009433,389.0352026997134,None,None,389.0352026997134,None,389.84158633006734,None,,,,22001,0002,2021_Aug_17_1019,localizer,2021.1.3,59.999807943273424,
block,scenes,scenes074.bmp,,,,,0,210,210,210,,,,,,,,,,,,,,,,,,,,,,,,,,,,,,,,,,,,None,,389.84158633006734,None,389.84158633006734,None,2021-08-17-10:25:25.287232,389.8536947998218,390.1583711998537,389.8536947998218,None,None,389.8536947998218,None,390.65798802962524,None,,,,22001,0002,2021_Aug_17_1019,localizer,2021.1.3,59.999807943273424,
block,scenes,scenes028.bmp,,,,,0,211,211,211,,,,,,,,,,,,,,,,,,,,,,,,,,,,,,,,,,,,None,,390.65798802962524,None,390.65798802962524,None,2021-08-17-10:25:26.092824,390.65858309995383,390.95798330008984,390.65858309995383,None,None,390.65858309995383,None,391.45787883000446,None,,,,22001,0002,2021_Aug_17_1019,localizer,2021.1.3,59.999807943273424,
block_end,scenes,scenes002.bmp,,,,,0,212,212,212,,,,,,,,,,,,,,,,,,,,,,,,,,,,,,,,,,,,None,,391.45787883000446,None,391.45787883000446,None,2021-08-17-10:25:26.905499,391.47114769974723,391.7746692998335,391.47114769974723,391.47114769974723,None,391.47114769974723,391.47114769974723,392.274719729647,None,,,,22001,0002,2021_Aug_17_1019,localizer,2021.1.3,59.999807943273424,
null_block,null_block,null_block.bmp,,,,,0,213,213,213,,,,,,,,,,,,,,,,,,,,,,,,,,,,,,,,,,,,t,8.82512619998306,392.27467789966613,None,392.27467789966613,None,2021-08-17-10:25:36.567047,401.14128045989196,None,401.14128045989196,None,None,401.14128045989196,None,401.13940359978005,None,,,,22001,0002,2021_Aug_17_1019,localizer,2021.1.3,59.999807943273424,
block_start,scrambled,scrambled013.bmp,,,,,0,214,214,214,,,,,,,,,,,,,,,,,,,,,,,,,,,,,,,,,,,,t,10.360833100043237,413.141330299899,None,413.141330299899,None,2021-08-17-10:25:58.970458,423.53495169989765,423.84133329987526,423.53495169989765,None,None,423.53495169989765,None,424.34153162976725,None,,,,22001,0002,2021_Aug_17_1019,localizer,2021.1.3,59.999807943273424,
block,scrambled,scrambled041.bmp,,,,,0,215,215,215,,,,,,,,,,,,,,,,,,,,,,,,,,,,,,,,,,,,None,,424.34153162976725,None,424.34153162976725,None,2021-08-17-10:25:59.786630,424.3513378999196,424.6577272997238,424.3513378999196,None,None,424.3513378999196,None,425.1582063297741,None,,,,22001,0002,2021_Aug_17_1019,localizer,2021.1.3,59.999807943273424,
block,scrambled,scrambled062.bmp,,,,,0,216,216,216,,,,,,,,,,,,,,,,,,,,,,,,,,,,,,,,,,,,None,,425.1582063297741,None,425.1582063297741,None,2021-08-17-10:26:00.604268,425.1687638000585,425.4746652999893,425.1687638000585,None,None,425.1687638000585,None,425.97480222964657,None,,,,22001,0002,2021_Aug_17_1019,localizer,2021.1.3,59.999807943273424,
block,scrambled,scrambled023.bmp,,,,,0,217,217,217,,,,,,,,,,,,,,,,,,,,,,,,,,,,,,,,,,,,None,,425.97480222964657,None,425.97480222964657,None,2021-08-17-10:26:01.416473,425.9891371000558,426.29132879991084,425.9891371000558,None,None,425.9891371000558,None,426.7912372300401,None,,,,22001,0002,2021_Aug_17_1019,localizer,2021.1.3,59.999807943273424,
block,scrambled,scrambled045.bmp,,,,,0,218,218,218,,,,,,,,,,,,,,,,,,,,,,,,,,,,,,,,,,,,None,,426.7912372300401,None,426.7912372300401,None,2021-08-17-10:26:02.230752,426.7990866000764,427.1082214000635,426.7990866000764,None,None,426.7990866000764,None,427.6081830296665,None,,,,22001,0002,2021_Aug_17_1019,localizer,2021.1.3,59.999807943273424,
block,scrambled,scrambled036.bmp,,,,,0,219,219,219,,,,,,,,,,,,,,,,,,,,,,,,,,,,,,,,,,,,None,,427.6081830296665,None,427.6081830296665,None,2021-08-17-10:26:03.054651,427.61811750009656,427.92488939967006,427.61811750009656,None,None,427.61811750009656,None,428.4248657297343,None,,,,22001,0002,2021_Aug_17_1019,localizer,2021.1.3,59.999807943273424,
block,scrambled,scrambled087.bmp,,,,,0,220,220,220,,,,,,,,,,,,,,,,,,,,,,,,,,,,,,,,,,,,None,,428.4248657297343,None,428.4248657297343,None,2021-08-17-10:26:03.869550,428.4290944999084,428.7413608999923,428.4290944999084,None,None,428.4290944999084,None,429.2416138300672,None,,,,22001,0002,2021_Aug_17_1019,localizer,2021.1.3,59.999807943273424,
block,scrambled,scrambled038.bmp,,,,,0,221,221,221,,,,,,,,,,,,,,,,,,,,,,,,,,,,,,,,,,,,None,,429.2416138300672,None,429.2416138300672,None,2021-08-17-10:26:04.689301,429.2527152998373,429.5581759000197,429.2527152998373,None,None,429.2527152998373,None,430.05810322994364,None,,,,22001,0002,2021_Aug_17_1019,localizer,2021.1.3,59.999807943273424,
block,scrambled,scrambled032.bmp,,,,,0,222,222,222,,,,,,,,,,,,,,,,,,,,,,,,,,,,,,,,,,,,None,,430.05810322994364,None,430.05810322994364,None,2021-08-17-10:26:05.498691,430.06058449996635,430.374847299885,430.06058449996635,None,None,430.06058449996635,None,430.87483912995083,None,,,,22001,0002,2021_Aug_17_1019,localizer,2021.1.3,59.999807943273424,
block,scrambled,scrambled049.bmp,,,,,0,223,223,223,,,,,,,,,,,,,,,,,,,,,,,,,,,,,,,,,,,,None,,430.87483912995083,None,430.87483912995083,None,2021-08-17-10:26:06.321394,430.90420199977234,431.208229099866,430.90420199977234,None,None,430.90420199977234,None,431.69148293007163,None,,,,22001,0002,2021_Aug_17_1019,localizer,2021.1.3,59.999807943273424,
block,scrambled,scrambled004.bmp,,,,,0,224,224,224,,,,,,,,,,,,,,,,,,,,,,,,,,,,,,,,,,,,None,,431.69148293007163,None,431.69148293007163,None,2021-08-17-10:26:07.137812,431.701225399971,432.00827129976824,431.701225399971,None,None,431.701225399971,None,432.5082316297106,None,,,,22001,0002,2021_Aug_17_1019,localizer,2021.1.3,59.999807943273424,
block,scrambled,scrambled069.bmp,,,,,0,225,225,225,,,,,,,,,,,,,,,,,,,,,,,,,,,,,,,,,,,,None,,432.5082316297106,None,432.5082316297106,None,2021-08-17-10:26:07.954828,432.5293324999511,432.8416196000762,432.5293324999511,None,None,432.5293324999511,None,433.3247251297347,None,,,,22001,0002,2021_Aug_17_1019,localizer,2021.1.3,59.999807943273424,
block,scrambled,scrambled082.bmp,,,,,0,226,226,226,,,,,,,,,,,,,,,,,,,,,,,,,,,,,,,,,,,,None,,433.3247251297347,None,433.3247251297347,None,2021-08-17-10:26:08.762642,433.32531919982284,433.62486269976944,433.32531919982284,None,None,433.32531919982284,None,434.12484282962976,None,,,,22001,0002,2021_Aug_17_1019,localizer,2021.1.3,59.999807943273424,
block,scrambled,scrambled066.bmp,,,,,0,227,227,227,,,,,,,,,,,,,,,,,,,,,,,,,,,,,,,,,,,,None,,434.12484282962976,None,434.12484282962976,None,2021-08-17-10:26:09.571648,434.1347166998312,434.4410619996488,434.1347166998312,434.1347166998312,None,434.1347166998312,434.1347166998312,434.94139402974395,None,,,,22001,0002,2021_Aug_17_1019,localizer,2021.1.3,59.999807943273424,
block_end,scrambled,scrambled088.bmp,,,,,0,228,228,228,,,,,,,,,,,,,,,,,,,,,,,,,,,,,,,,,,,,None,,434.94139402974395,None,434.94139402974395,None,2021-08-17-10:26:10.378381,434.9420473999344,435.24161090003327,434.9420473999344,None,None,434.9420473999344,None,435.74149352973325,None,,,,22001,0002,2021_Aug_17_1019,localizer,2021.1.3,59.999807943273424,
block_start,faces,faces086.bmp,,,,,0,229,229,229,,,,,,,,,,,,,,,,,,,,,,,,,,,,,,,,,,,,t,9.79989259969443,435.7413749000989,None,435.7413749000989,None,2021-08-17-10:26:20.994085,445.5612129000947,445.8748834999278,445.5612129000947,None,None,445.5612129000947,None,446.3749239296652,None,,,,22001,0002,2021_Aug_17_1019,localizer,2021.1.3,59.999807943273424,
block,faces,faces085.bmp,,,,,0,230,230,230,,,,,,,,,,,,,,,,,,,,,,,,,,,,,,,,,,,,None,,446.3749239296652,None,446.3749239296652,None,2021-08-17-10:26:21.821563,446.38463319977745,446.69156649988145,446.38463319977745,None,None,446.38463319977745,None,447.1915434297174,None,,,,22001,0002,2021_Aug_17_1019,localizer,2021.1.3,59.999807943273424,
block,faces,faces069.bmp,,,,,0,231,231,231,,,,,,,,,,,,,,,,,,,,,,,,,,,,,,,,,,,,None,,447.1915434297174,None,447.1915434297174,None,2021-08-17-10:26:22.638695,447.2027030996978,447.50829279981554,447.2027030996978,None,None,447.2027030996978,None,448.00816822992635,None,,,,22001,0002,2021_Aug_17_1019,localizer,2021.1.3,59.999807943273424,
block,faces,faces001.bmp,,,,,0,232,232,232,,,,,,,,,,,,,,,,,,,,,,,,,,,,,,,,,,,,None,,448.00816822992635,None,448.00816822992635,None,2021-08-17-10:26:23.448440,448.01051929965615,448.32508399989456,448.01051929965615,None,None,448.01051929965615,None,448.8249253296293,None,,,,22001,0002,2021_Aug_17_1019,localizer,2021.1.3,59.999807943273424,
block,faces,faces059.bmp,,,,,0,233,233,233,,,,,,,,,,,,,,,,,,,,,,,,,,,,,,,,,,,,None,,448.8249253296293,None,448.8249253296293,None,2021-08-17-10:26:24.262320,448.82544159982353,449.12441639974713,448.82544159982353,None,None,448.82544159982353,None,449.6248159297742,None,,,,22001,0002,2021_Aug_17_1019,localizer,2021.1.3,59.999807943273424,
block,faces,faces042.bmp,,,,,0,234,234,234,,,,,,,,,,,,,,,,,,,,,,,,,,,,,,,,,,,,None,,449.6248159297742,None,449.6248159297742,None,2021-08-17-10:26:25.064144,449.6253879000433,449.9247842999175,449.6253879000433,449.6253879000433,None,449.6253879000433,449.6253879000433,450.42505732979623,None,,,,22001,0002,2021_Aug_17_1019,localizer,2021.1.3,59.999807943273424,
block,faces,faces030.bmp,,,,,0,235,235,235,,,,,,,,,,,,,,,,,,,,,,,,,,,,,,,,,,,,None,,450.42505732979623,None,450.42505732979623,None,2021-08-17-10:26:25.874310,450.4371523996815,450.7417492000386,450.4371523996815,450.4371523996815,None,450.4371523996815,450.4371523996815,451.2411646299064,None,,,,22001,0002,2021_Aug_17_1019,localizer,2021.1.3,59.999807943273424,
block,faces,faces054.bmp,,,,,0,236,236,236,,,,,,,,,,,,,,,,,,,,,,,,,,,,,,,,,,,,None,,451.2411646299064,None,451.2411646299064,None,2021-08-17-10:26:26.680219,451.2422186997719,451.54159139981493,451.2422186997719,None,None,451.2422186997719,None,452.04134152978656,None,,,,22001,0002,2021_Aug_17_1019,localizer,2021.1.3,59.999807943273424,
block,faces,faces011.bmp,,,,,0,237,237,237,,,,,,,,,,,,,,,,,,,,,,,,,,,,,,,,,,,,None,,452.04134152978656,None,452.04134152978656,None,2021-08-17-10:26:27.481523,452.042277299799,452.3418038999662,452.042277299799,452.042277299799,None,452.042277299799,452.042277299799,452.84164862995965,None,,,,22001,0002,2021_Aug_17_1019,localizer,2021.1.3,59.999807943273424,
block,faces,faces051.bmp,,,,,0,238,238,238,,,,,,,,,,,,,,,,,,,,,,,,,,,,,,,,,,,,None,,452.84164862995965,None,452.84164862995965,None,2021-08-17-10:26:28.290884,452.8550317999907,453.15843529999256,452.8550317999907,452.8550317999907,None,452.8550317999907,452.8550317999907,453.65825762981547,None,,,,22001,0002,2021_Aug_17_1019,localizer,2021.1.3,59.999807943273424,
block,faces,faces075.bmp,,,,,0,239,239,239,,,,,,,,,,,,,,,,,,,,,,,,,,,,,,,,,,,,None,,453.65825762981547,None,453.65825762981547,None,2021-08-17-10:26:29.095484,453.65887069981545,453.9579252996482,453.65887069981545,None,None,453.65887069981545,None,454.4583828296512,None,,,,22001,0002,2021_Aug_17_1019,localizer,2021.1.3,59.999807943273424,
block,faces,faces074.bmp,,,,,0,240,240,240,,,,,,,,,,,,,,,,,,,,,,,,,,,,,,,,,,,,None,,454.4583828296512,None,454.4583828296512,None,2021-08-17-10:26:29.897387,454.458980999887,454.7584755998105,454.458980999887,454.458980999887,None,454.458980999887,454.458980999887,455.25827072989193,None,,,,22001,0002,2021_Aug_17_1019,localizer,2021.1.3,59.999807943273424,
block,faces,faces089.bmp,,,,,0,241,241,241,,,,,,,,,,,,,,,,,,,,,,,,,,,,,,,,,,,,None,,455.25827072989193,None,455.25827072989193,None,2021-08-17-10:26:30.704712,455.26845419965684,455.5749438996427,455.26845419965684,455.26845419965684,None,455.26845419965684,455.26845419965684,456.07498892964793,None,,,,22001,0002,2021_Aug_17_1019,localizer,2021.1.3,59.999807943273424,
block,faces,faces036.bmp,,,,,0,242,242,242,,,,,,,,,,,,,,,,,,,,,,,,,,,,,,,,,,,,None,,456.07498892964793,None,456.07498892964793,None,2021-08-17-10:26:31.513494,456.0754307000898,456.3745055999607,456.0754307000898,None,None,456.0754307000898,None,456.8751773299649,None,,,,22001,0002,2021_Aug_17_1019,localizer,2021.1.3,59.999807943273424,
block_end,faces,faces044.bmp,,,,,0,243,243,243,,,,,,,,,,,,,,,,,,,,,,,,,,,,,,,,,,,,None,,456.8751773299649,None,456.8751773299649,None,2021-08-17-10:26:32.324955,456.8877459997311,457.1917812000029,456.8877459997311,456.8877459997311,None,456.8877459997311,456.8877459997311,457.69145622998474,None,,,,22001,0002,2021_Aug_17_1019,localizer,2021.1.3,59.999807943273424,
,,,,,,,,,,,,,,,,,,,,,,,,,,,,,,,,,,,,,,,,,,,,,,,,,,,,,,,,,,,,,,,457.69163020001724,None,,,,,,,
