block_type,condition,img_name,Button.thisRepN,Button.thisTrialN,Button.thisN,Button.thisIndex,trials.thisRepN,trials.thisTrialN,trials.thisN,trials.thisIndex,Ready_experimenter_text.started,Ready_experimenter_text.stopped,Ready_experimenter_resp.keys,Ready_experimenter_resp.rt,Ready_experimenter_resp.started,Ready_experimenter_resp.stopped,Alignment_background.started,Alignment_background.stopped,Alignment_image.started,Alignment_image.stopped,Alignment_resp.keys,Alignment_resp.rt,Alignment_resp.started,Alignment_resp.stopped,Button_text.started,Button_text.stopped,Index_text.started,Index_text.stopped,Index_resp.keys,Index_resp.rt,Index_resp.started,Index_resp.stopped,Middle_text.started,Middle_text.stopped,Middle_resp.keys,Middle_resp.rt,Middle_resp.started,Middle_resp.stopped,Repeat_text.started,Repeat_text.stopped,Repeat_resp.keys,Repeat_resp.corr,Repeat_resp.rt,Repeat_resp.started,Repeat_resp.stopped,instruction_text.started,instruction_text.stopped,key_resp.keys,key_resp.rt,key_resp.started,key_resp.stopped,scanner_t.keys,scanner_t.rt,scanner_t.started,scanner_t.stopped,fixation_wait_for_t.started,fixation_wait_for_t.stopped,real_timestamp_trial_start,image.started,image.stopped,fixation.started,fixation.stopped,repeat_response.keys,repeat_response.started,repeat_response.stopped,fixation_null.started,fixation_null.stopped,repeat_response.rt,end_text.started,end_text.stopped,participant,run,date,expName,psychopyVersion,frameRate,
,,,,,,,,,,,9.69529349997174,None,return,50.64883809990715,9.69529349997174,None,,,,,,,,,,,,,,,,,,,,,,,,,,,,,,,,,,,,,,,,,,,,,,,,,,,,,,,11006,0001,2022_Feb_10_1348,localizer,2021.1.3,59.38362173968127,
,,,,,,,,,,,,,,,,,60.38706760003697,None,60.38706760003697,None,return,5.011658399947919,60.38706760003697,None,,,,,,,,,,,,,,,,,,,,,,,,,,,,,,,,,,,,,,,,,,,,,,,11006,0001,2022_Feb_10_1348,localizer,2021.1.3,59.38362173968127,
,,,0,0,0,0,,,,,,,,,,,,,,,,,,,65.41512369993143,None,66.43031229998451,None,y,2.017291900003329,66.43031229998451,None,68.47748699993826,None,b,0.9704432999715209,68.47748699993826,None,69.48370530002285,None,n,0,1.6851735000964254,69.48370530002285,None,,,,,,,,,,,,,,,,,,,,,,,,,,11006,0001,2022_Feb_10_1348,localizer,2021.1.3,59.38362173968127,
,,,,,,,,,,,,,,,,,,,,,,,,,,,,,,,,,,,,,,,,,,,,,,71.19278259994462,None,y,28.4099097000435,71.19278259994462,None,,,,,,,,,,,,,,,,,,,,11006,0001,2022_Feb_10_1348,localizer,2021.1.3,59.38362173968127,
block_start,scenes,scenes037.bmp,,,,,0,0,0,0,,,,,,,,,,,,,,,,,,,,,,,,,,,,,,,,,,,,,,,,,,t,16.125600600033067,99.69017479999457,None,99.69017479999457,None,2022-02-10-13:50:26.464112,115.85505749995355,116.16019950003829,115.85505749995355,None,None,115.85505749995355,None,116.66079391000093,None,,,,11006,0001,2022_Feb_10_1348,localizer,2021.1.3,59.38362173968127,
block,scenes,scenes054.bmp,,,,,0,1,1,1,,,,,,,,,,,,,,,,,,,,,,,,,,,,,,,,,,,,,,,,,,None,,116.66079391000093,None,116.66079391000093,None,2022-02-10-13:50:27.282608,116.6750092000002,116.97686299995985,116.6750092000002,None,None,116.6750092000002,None,117.4779394099838,None,,,,11006,0001,2022_Feb_10_1348,localizer,2021.1.3,59.38362173968127,
block,scenes,scenes032.bmp,,,,,0,2,2,2,,,,,,,,,,,,,,,,,,,,,,,,,,,,,,,,,,,,,,,,,,None,,117.4779394099838,None,117.4779394099838,None,2022-02-10-13:50:28.098627,117.49151730001904,117.79355249996297,117.49151730001904,None,None,117.49151730001904,None,118.29369250995805,None,,,,11006,0001,2022_Feb_10_1348,localizer,2021.1.3,59.38362173968127,
block,scenes,scenes090.bmp,,,,,0,3,3,3,,,,,,,,,,,,,,,,,,,,,,,,,,,,,,,,,,,,,,,,,,None,,118.29369250995805,None,118.29369250995805,None,2022-02-10-13:50:28.912510,118.30428639997263,118.61009209998883,118.30428639997263,None,None,118.30428639997263,None,119.11060110999969,None,,,,11006,0001,2022_Feb_10_1348,localizer,2021.1.3,59.38362173968127,
block,scenes,scenes057.bmp,,,,,0,4,4,4,,,,,,,,,,,,,,,,,,,,,,,,,,,,,,,,,,,,,,,,,,None,,119.11060110999969,None,119.11060110999969,None,2022-02-10-13:50:29.730393,119.12149219994899,119.42686030000914,119.12149219994899,None,None,119.12149219994899,None,119.92710570999188,None,,,,11006,0001,2022_Feb_10_1348,localizer,2021.1.3,59.38362173968127,
block,scenes,scenes064.bmp,,,,,0,5,5,5,,,,,,,,,,,,,,,,,,,,,,,,,,,,,,,,,,,,,,,,,,None,,119.92710570999188,None,119.92710570999188,None,2022-02-10-13:50:30.545917,119.93628779996652,120.24373580003157,119.93628779996652,None,None,119.93628779996652,None,120.74419531001476,None,,,,11006,0001,2022_Feb_10_1348,localizer,2021.1.3,59.38362173968127,
block,scenes,scenes006.bmp,,,,,0,6,6,6,,,,,,,,,,,,,,,,,,,,,,,,,,,,,,,,,,,,,,,,,,None,,120.74419531001476,None,120.74419531001476,None,2022-02-10-13:50:31.363991,120.75591790000908,121.06030320003629,120.75591790000908,None,None,120.75591790000908,None,121.56088801004225,None,,,,11006,0001,2022_Feb_10_1348,localizer,2021.1.3,59.38362173968127,
block,scenes,scenes074.bmp,,,,,0,7,7,7,,,,,,,,,,,,,,,,,,,,,,,,,,,,,,,,,,,,,,,,,,None,,121.56088801004225,None,121.56088801004225,None,2022-02-10-13:50:32.180743,121.57158650003839,121.87673689995427,121.57158650003839,None,None,121.57158650003839,None,122.37679070999147,None,,,,11006,0001,2022_Feb_10_1348,localizer,2021.1.3,59.38362173968127,
block,scenes,scenes044.bmp,,,,,0,8,8,8,,,,,,,,,,,,,,,,,,,,,,,,,,,,,,,,,,,,,,,,,,None,,122.37679070999147,None,122.37679070999147,None,2022-02-10-13:50:32.995594,122.38563549995888,122.69350870000198,122.38563549995888,None,None,122.38563549995888,None,123.1936468099826,None,,,,11006,0001,2022_Feb_10_1348,localizer,2021.1.3,59.38362173968127,
block,scenes,scenes039.bmp,,,,,0,9,9,9,,,,,,,,,,,,,,,,,,,,,,,,,,,,,,,,,,,,,,,,,,None,,123.1936468099826,None,123.1936468099826,None,2022-02-10-13:50:33.812227,123.20343650004361,123.51024099998176,123.20343650004361,None,None,123.20343650004361,None,124.01012671001953,None,,,,11006,0001,2022_Feb_10_1348,localizer,2021.1.3,59.38362173968127,
block,scenes,scenes001.bmp,,,,,0,10,10,10,,,,,,,,,,,,,,,,,,,,,,,,,,,,,,,,,,,,,,,,,,None,,124.01012671001953,None,124.01012671001953,None,2022-02-10-13:50:34.627934,124.01845660002436,124.32807619997766,124.01845660002436,None,None,124.01845660002436,None,124.82817851003492,None,,,,11006,0001,2022_Feb_10_1348,localizer,2021.1.3,59.38362173968127,
block,scenes,scenes015.bmp,,,,,0,11,11,11,,,,,,,,,,,,,,,,,,,,,,,,,,,,,,,,,,,,,,,,,,None,,124.82817851003492,None,124.82817851003492,None,2022-02-10-13:50:35.448107,124.84209819999523,125.14398549997713,124.84209819999523,None,None,124.84209819999523,None,125.64372460994636,None,,,,11006,0001,2022_Feb_10_1348,localizer,2021.1.3,59.38362173968127,
block,scenes,scenes042.bmp,,,,,0,12,12,12,,,,,,,,,,,,,,,,,,,,,,,,,,,,,,,,,,,,,,,,,,None,,125.64372460994636,None,125.64372460994636,None,2022-02-10-13:50:36.262523,125.65371800004505,125.96011879993603,125.65371800004505,None,None,125.65371800004505,None,126.46149690992897,None,,,,11006,0001,2022_Feb_10_1348,localizer,2021.1.3,59.38362173968127,
block,scenes,scenes021.bmp,,,,,0,13,13,13,,,,,,,,,,,,,,,,,,,,,,,,,,,,,,,,,,,,,,,,,,None,,126.46149690992897,None,126.46149690992897,None,2022-02-10-13:50:37.082275,126.47177429997828,126.77720040001441,126.47177429997828,None,None,126.47177429997828,None,127.27815990996314,None,,,,11006,0001,2022_Feb_10_1348,localizer,2021.1.3,59.38362173968127,
block_end,scenes,scenes077.bmp,,,,,0,14,14,14,,,,,,,,,,,,,,,,,,,,,,,,,,,,,,,,,,,,,,,,,,None,,127.27815990996314,None,127.27815990996314,None,2022-02-10-13:50:37.898081,127.29057209996972,127.59352009999566,127.29057209996972,None,None,127.29057209996972,None,128.09394750996725,None,,,,11006,0001,2022_Feb_10_1348,localizer,2021.1.3,59.38362173968127,
block_start,objects,objects032.bmp,,,,,0,15,15,15,,,,,,,,,,,,,,,,,,,,,,,,,,,,,,,,,,,,,,,,,,t,1.721047900035046,128.0939468999859,None,128.0939468999859,None,2022-02-10-13:50:40.465649,129.8583983000135,130.16018549993169,129.8583983000135,None,None,129.8583983000135,None,130.6666360100149,None,,,,11006,0001,2022_Feb_10_1348,localizer,2021.1.3,59.38362173968127,
block,objects,objects082.bmp,,,,,0,16,16,16,,,,,,,,,,,,,,,,,,,,,,,,,,,,,,,,,,,,,,,,,,None,,130.6666360100149,None,130.6666360100149,None,2022-02-10-13:50:41.294137,130.68875209998805,130.99330099998042,130.68875209998805,None,None,130.68875209998805,None,131.4781629099394,None,,,,11006,0001,2022_Feb_10_1348,localizer,2021.1.3,59.38362173968127,
block,objects,objects052.bmp,,,,,0,17,17,17,,,,,,,,,,,,,,,,,,,,,,,,,,,,,,,,,,,,,,,,,,None,,131.4781629099394,None,131.4781629099394,None,2022-02-10-13:50:42.100939,131.4884664999554,131.79388939996716,131.4884664999554,None,None,131.4884664999554,None,132.29402650994015,None,,,,11006,0001,2022_Feb_10_1348,localizer,2021.1.3,59.38362173968127,
block,objects,objects050.bmp,,,,,0,18,18,18,,,,,,,,,,,,,,,,,,,,,,,,,,,,,,,,,,,,,,,,,,None,,132.29402650994015,None,132.29402650994015,None,2022-02-10-13:50:42.913819,132.30500839999877,132.61025339993648,132.30500839999877,None,None,132.30500839999877,None,133.11095411001006,None,,,,11006,0001,2022_Feb_10_1348,localizer,2021.1.3,59.38362173968127,
block,objects,objects078.bmp,,,,,0,19,19,19,,,,,,,,,,,,,,,,,,,,,,,,,,,,,,,,,,,,,,,,,,None,,133.11095411001006,None,133.11095411001006,None,2022-02-10-13:50:43.730937,133.12157199997455,133.4268904000055,133.12157199997455,None,None,133.12157199997455,None,133.92728480995865,None,,,,11006,0001,2022_Feb_10_1348,localizer,2021.1.3,59.38362173968127,
block,objects,objects037.bmp,,,,,0,20,20,20,,,,,,,,,,,,,,,,,,,,,,,,,,,,,,,,,,,,,,,,,,None,,133.92728480995865,None,133.92728480995865,None,2022-02-10-13:50:44.547078,133.93717279995326,134.2436405000044,133.93717279995326,None,None,133.93717279995326,None,134.74371740998467,None,,,,11006,0001,2022_Feb_10_1348,localizer,2021.1.3,59.38362173968127,
block,objects,objects030.bmp,,,,,0,21,21,21,,,,,,,,,,,,,,,,,,,,,,,,,,,,,,,,,,,,,,,,,,None,,134.74371740998467,None,134.74371740998467,None,2022-02-10-13:50:45.362539,134.75379750004504,135.0600016999524,134.75379750004504,None,None,134.75379750004504,None,135.56065691002877,None,,,,11006,0001,2022_Feb_10_1348,localizer,2021.1.3,59.38362173968127,
block,objects,objects045.bmp,,,,,0,22,22,22,,,,,,,,,,,,,,,,,,,,,,,,,,,,,,,,,,,,,,,,,,None,,135.56065691002877,None,135.56065691002877,None,2022-02-10-13:50:46.180475,135.57260099996347,135.8774855999509,135.57260099996347,None,None,135.57260099996347,None,136.37719181001884,None,,,,11006,0001,2022_Feb_10_1348,localizer,2021.1.3,59.38362173968127,
block,objects,objects084.bmp,,,,,0,23,23,23,,,,,,,,,,,,,,,,,,,,,,,,,,,,,,,,,,,,,,,,,,None,,136.37719181001884,None,136.37719181001884,None,2022-02-10-13:50:46.996192,136.3881648000097,136.69380380003713,136.3881648000097,None,None,136.3881648000097,None,137.1942090099561,None,,,,11006,0001,2022_Feb_10_1348,localizer,2021.1.3,59.38362173968127,
block,objects,objects054.bmp,,,,,0,24,24,24,,,,,,,,,,,,,,,,,,,,,,,,,,,,,,,,,,,,,,,,,,None,,137.1942090099561,None,137.1942090099561,None,2022-02-10-13:50:47.813006,137.20401640003547,137.51051129994448,137.20401640003547,None,None,137.20401640003547,None,138.01160911001497,None,,,,11006,0001,2022_Feb_10_1348,localizer,2021.1.3,59.38362173968127,
block,objects,objects001.bmp,,,,,0,25,25,25,,,,,,,,,,,,,,,,,,,,,,,,,,,,,,,,,,,,,,,,,,None,,138.01160911001497,None,138.01160911001497,None,2022-02-10-13:50:48.633358,138.02627549995668,138.32768460002262,138.02627549995668,None,None,138.02627549995668,None,138.82705170995322,None,,,,11006,0001,2022_Feb_10_1348,localizer,2021.1.3,59.38362173968127,
block,objects,objects046.bmp,,,,,0,26,26,26,,,,,,,,,,,,,,,,,,,,,,,,,,,,,,,,,,,,,,,,,,None,,138.82705170995322,None,138.82705170995322,None,2022-02-10-13:50:49.445854,138.8360961000435,139.15121209993958,138.8360961000435,None,None,138.8360961000435,None,139.6432482099277,None,,,,11006,0001,2022_Feb_10_1348,localizer,2021.1.3,59.38362173968127,
block,objects,objects031.bmp,,,,,0,27,27,27,,,,,,,,,,,,,,,,,,,,,,,,,,,,,,,,,,,,,,,,,,None,,139.6432482099277,None,139.6432482099277,None,2022-02-10-13:50:50.261058,139.65058120002504,139.96067159995437,139.65058120002504,None,None,139.65058120002504,None,140.46153761000605,None,,,,11006,0001,2022_Feb_10_1348,localizer,2021.1.3,59.38362173968127,
block,objects,objects019.bmp,,,,,0,28,28,28,,,,,,,,,,,,,,,,,,,,,,,,,,,,,,,,,,,,,,,,,,None,,140.46153761000605,None,140.46153761000605,None,2022-02-10-13:50:51.084459,140.47796980000567,140.77737190003973,140.47796980000567,None,None,140.47796980000567,None,141.27737121001118,None,,,,11006,0001,2022_Feb_10_1348,localizer,2021.1.3,59.38362173968127,
block_end,objects,objects070.bmp,,,,,0,29,29,29,,,,,,,,,,,,,,,,,,,,,,,,,,,,,,,,,,,,,,,,,,None,,141.27737121001118,None,141.27737121001118,None,2022-02-10-13:50:51.897162,141.2883995999582,141.59382800001185,141.2883995999582,None,None,141.2883995999582,None,142.09449280992848,None,,,,11006,0001,2022_Feb_10_1348,localizer,2021.1.3,59.38362173968127,
block_start,faces,faces015.bmp,,,,,0,30,30,30,,,,,,,,,,,,,,,,,,,,,,,,,,,,,,,,,,,,,,,,,,t,1.7202740999637172,142.09445309999865,None,142.09445309999865,None,2022-02-10-13:50:54.462642,143.86007369996514,144.1604432000313,143.86007369996514,None,None,143.86007369996514,None,144.66019951001508,None,,,,11006,0001,2022_Feb_10_1348,localizer,2021.1.3,59.38362173968127,
block,faces,faces023.bmp,,,,,0,31,31,31,,,,,,,,,,,,,,,,,,,,,,,,,,,,,,,,,,,,,,,,,,None,,144.66019951001508,None,144.66019951001508,None,2022-02-10-13:50:55.279251,144.66862919996493,144.97762499994133,144.66862919996493,None,None,144.66862919996493,None,145.47707181001314,None,,,,11006,0001,2022_Feb_10_1348,localizer,2021.1.3,59.38362173968127,
block,faces,faces034.bmp,,,,,0,32,32,32,,,,,,,,,,,,,,,,,,,,,,,,,,,,,,,,,,,,,,,,,,None,,145.47707181001314,None,145.47707181001314,None,2022-02-10-13:50:56.096594,145.4839789000107,145.79371160001028,145.4839789000107,None,None,145.4839789000107,None,146.2943951099529,None,,,,11006,0001,2022_Feb_10_1348,localizer,2021.1.3,59.38362173968127,
block,faces,faces053.bmp,,,,,0,33,33,33,,,,,,,,,,,,,,,,,,,,,,,,,,,,,,,,,,,,,,,,,,None,,146.2943951099529,None,146.2943951099529,None,2022-02-10-13:50:56.915185,146.30316919996403,146.6106538999593,146.30316919996403,None,None,146.30316919996403,None,147.1109656099812,None,,,,11006,0001,2022_Feb_10_1348,localizer,2021.1.3,59.38362173968127,
block,faces,faces046.bmp,,,,,0,34,34,34,,,,,,,,,,,,,,,,,,,,,,,,,,,,,,,,,,,,,,,,,,None,,147.1109656099812,None,147.1109656099812,None,2022-02-10-13:50:57.730799,147.12071019993164,147.42731399997137,147.12071019993164,None,None,147.12071019993164,None,147.92733430998632,None,,,,11006,0001,2022_Feb_10_1348,localizer,2021.1.3,59.38362173968127,
block,faces,faces006.bmp,,,,,0,35,35,35,,,,,,,,,,,,,,,,,,,,,,,,,,,,,,,,,,,,,,,,,,None,,147.92733430998632,None,147.92733430998632,None,2022-02-10-13:50:58.545874,147.93827259994578,148.24347460002173,147.93827259994578,None,None,147.93827259994578,None,148.74414821000536,None,,,,11006,0001,2022_Feb_10_1348,localizer,2021.1.3,59.38362173968127,
block,faces,faces082.bmp,,,,,0,36,36,36,,,,,,,,,,,,,,,,,,,,,,,,,,,,,,,,,,,,,,,,,,None,,148.74414821000536,None,148.74414821000536,None,2022-02-10-13:50:59.363873,148.75665270001628,149.0606056000106,148.75665270001628,None,None,148.75665270001628,None,149.5611530099646,None,,,,11006,0001,2022_Feb_10_1348,localizer,2021.1.3,59.38362173968127,
block,faces,faces011.bmp,,,,,0,37,37,37,,,,,,,,,,,,,,,,,,,,,,,,,,,,,,,,,,,,,,,,,,None,,149.5611530099646,None,149.5611530099646,None,2022-02-10-13:51:00.180939,149.5729024000466,149.8771420000121,149.5729024000466,None,None,149.5729024000466,None,150.37801030996488,None,,,,11006,0001,2022_Feb_10_1348,localizer,2021.1.3,59.38362173968127,
block,faces,faces062.bmp,,,,,0,38,38,38,,,,,,,,,,,,,,,,,,,,,,,,,,,,,,,,,,,,,,,,,,None,,150.37801030996488,None,150.37801030996488,None,2022-02-10-13:51:00.998006,150.39054719998967,150.69335309998132,150.39054719998967,None,None,150.39054719998967,None,151.19381320996908,None,,,,11006,0001,2022_Feb_10_1348,localizer,2021.1.3,59.38362173968127,
block,faces,faces014.bmp,,,,,0,39,39,39,,,,,,,,,,,,,,,,,,,,,,,,,,,,,,,,,,,,,,,,,,None,,151.19381320996908,None,151.19381320996908,None,2022-02-10-13:51:01.812613,151.20379099994898,151.51022449997254,151.20379099994898,None,None,151.20379099994898,None,152.00037760994164,None,,,,11006,0001,2022_Feb_10_1348,localizer,2021.1.3,59.38362173968127,
block,faces,faces052.bmp,,,,,0,40,40,40,,,,,,,,,,,,,,,,,,,,,,,,,,,,,,,,,,,,,,,,,,None,,152.00037760994164,None,152.00037760994164,None,2022-02-10-13:51:02.625535,152.0206333999522,152.32713989994954,152.0206333999522,None,None,152.0206333999522,None,152.81060200995998,None,,,,11006,0001,2022_Feb_10_1348,localizer,2021.1.3,59.38362173968127,
block,faces,faces078.bmp,,,,,0,41,41,41,,,,,,,,,,,,,,,,,,,,,,,,,,,,,,,,,,,,,,,,,,None,,152.81060200995998,None,152.81060200995998,None,2022-02-10-13:51:03.429612,152.8216739000054,153.12696389993653,152.8216739000054,None,None,152.8216739000054,None,153.6275298100314,None,,,,11006,0001,2022_Feb_10_1348,localizer,2021.1.3,59.38362173968127,
block,faces,faces065.bmp,,,,,0,42,42,42,,,,,,,,,,,,,,,,,,,,,,,,,,,,,,,,,,,,,,,,,,None,,153.6275298100314,None,153.6275298100314,None,2022-02-10-13:51:04.247370,153.6465039999457,153.9603290000232,153.6465039999457,None,None,153.6465039999457,None,154.44371311002178,None,,,,11006,0001,2022_Feb_10_1348,localizer,2021.1.3,59.38362173968127,
block,faces,faces028.bmp,,,,,0,43,43,43,,,,,,,,,,,,,,,,,,,,,,,,,,,,,,,,,,,,,,,,,,None,,154.44371311002178,None,154.44371311002178,None,2022-02-10-13:51:05.062902,154.4527633000398,154.76691290002782,154.4527633000398,None,None,154.4527633000398,None,155.26040071001043,None,,,,11006,0001,2022_Feb_10_1348,localizer,2021.1.3,59.38362173968127,
block_end,faces,faces028.bmp,,,,,0,44,44,44,,,,,,,,,,,,,,,,,,,,,,,,,,,,,,,,,,,,,,,,,,None,,155.26040071001043,None,155.26040071001043,None,2022-02-10-13:51:05.879214,155.26136000000406,155.56051869993098,155.26136000000406,None,y,155.26136000000406,None,156.07686231002444,None,0.5544853999745101,,,11006,0001,2022_Feb_10_1348,localizer,2021.1.3,59.38362173968127,
null_block,null_block,null_block.bmp,,,,,0,45,45,45,,,,,,,,,,,,,,,,,,,,,,,,,,,,,,,,,,,,,,,,,,t,1.7377822999842465,156.07690240000375,None,156.07690240000375,None,2022-02-10-13:51:08.461705,157.8605876199901,None,157.8605876199901,None,None,157.8605876199901,None,157.85840479994658,None,,,,11006,0001,2022_Feb_10_1348,localizer,2021.1.3,59.38362173968127,
block_start,scrambled,scrambled005.bmp,,,,,0,46,46,46,,,,,,,,,,,,,,,,,,,,,,,,,,,,,,,,,,,,,,,,,,t,1.952784400084056,169.8618839000119,None,169.8618839000119,None,2022-02-10-13:51:22.464263,171.85460419999436,172.16068890003953,171.85460419999436,None,None,171.85460419999436,None,172.66150261004222,None,,,,11006,0001,2022_Feb_10_1348,localizer,2021.1.3,59.38362173968127,
block,scrambled,scrambled017.bmp,,,,,0,47,47,47,,,,,,,,,,,,,,,,,,,,,,,,,,,,,,,,,,,,,,,,,,None,,172.66150261004222,None,172.66150261004222,None,2022-02-10-13:51:23.281476,172.67296959995292,172.9776823000284,172.67296959995292,None,None,172.67296959995292,None,173.47770111003192,None,,,,11006,0001,2022_Feb_10_1348,localizer,2021.1.3,59.38362173968127,
block,scrambled,scrambled076.bmp,,,,,0,48,48,48,,,,,,,,,,,,,,,,,,,,,,,,,,,,,,,,,,,,,,,,,,None,,173.47770111003192,None,173.47770111003192,None,2022-02-10-13:51:24.097706,173.48846509994473,173.79382969997823,173.48846509994473,None,None,173.48846509994473,None,174.29526890997076,None,,,,11006,0001,2022_Feb_10_1348,localizer,2021.1.3,59.38362173968127,
block,scrambled,scrambled036.bmp,,,,,0,49,49,49,,,,,,,,,,,,,,,,,,,,,,,,,,,,,,,,,,,,,,,,,,None,,174.29526890997076,None,174.29526890997076,None,2022-02-10-13:51:24.917022,174.30981659993995,174.61085219995584,174.30981659993995,None,None,174.30981659993995,None,175.11115070999367,None,,,,11006,0001,2022_Feb_10_1348,localizer,2021.1.3,59.38362173968127,
block,scrambled,scrambled038.bmp,,,,,0,50,50,50,,,,,,,,,,,,,,,,,,,,,,,,,,,,,,,,,,,,,,,,,,None,,175.11115070999367,None,175.11115070999367,None,2022-02-10-13:51:25.731062,175.1236235999968,175.4278260000283,175.1236235999968,None,None,175.1236235999968,None,175.9285087099648,None,,,,11006,0001,2022_Feb_10_1348,localizer,2021.1.3,59.38362173968127,
block,scrambled,scrambled081.bmp,,,,,0,51,51,51,,,,,,,,,,,,,,,,,,,,,,,,,,,,,,,,,,,,,,,,,,None,,175.9285087099648,None,175.9285087099648,None,2022-02-10-13:51:26.549387,175.94481100002304,176.2440060999943,175.94481100002304,None,None,175.94481100002304,None,176.74455340994754,None,,,,11006,0001,2022_Feb_10_1348,localizer,2021.1.3,59.38362173968127,
block,scrambled,scrambled074.bmp,,,,,0,52,52,52,,,,,,,,,,,,,,,,,,,,,,,,,,,,,,,,,,,,,,,,,,None,,176.74455340994754,None,176.74455340994754,None,2022-02-10-13:51:27.364341,176.75536690000445,177.06117060000543,176.75536690000445,None,None,176.75536690000445,None,177.5619349099812,None,,,,11006,0001,2022_Feb_10_1348,localizer,2021.1.3,59.38362173968127,
block,scrambled,scrambled088.bmp,,,,,0,53,53,53,,,,,,,,,,,,,,,,,,,,,,,,,,,,,,,,,,,,,,,,,,None,,177.5619349099812,None,177.5619349099812,None,2022-02-10-13:51:28.182862,177.57417569996323,177.87719539995305,177.57417569996323,None,None,177.57417569996323,None,178.3777148100431,None,,,,11006,0001,2022_Feb_10_1348,localizer,2021.1.3,59.38362173968127,
block,scrambled,scrambled064.bmp,,,,,0,54,54,54,,,,,,,,,,,,,,,,,,,,,,,,,,,,,,,,,,,,,,,,,,None,,178.3777148100431,None,178.3777148100431,None,2022-02-10-13:51:28.997508,178.38859470002353,178.6944524999708,178.38859470002353,None,None,178.38859470002353,None,179.19661290998337,None,,,,11006,0001,2022_Feb_10_1348,localizer,2021.1.3,59.38362173968127,
block,scrambled,scrambled007.bmp,,,,,0,55,55,55,,,,,,,,,,,,,,,,,,,,,,,,,,,,,,,,,,,,,,,,,,None,,179.19661290998337,None,179.19661290998337,None,2022-02-10-13:51:29.816543,179.20789940003306,179.51032460003626,179.20789940003306,None,None,179.20789940003306,None,180.01159900993807,None,,,,11006,0001,2022_Feb_10_1348,localizer,2021.1.3,59.38362173968127,
block,scrambled,scrambled035.bmp,,,,,0,56,56,56,,,,,,,,,,,,,,,,,,,,,,,,,,,,,,,,,,,,,,,,,,None,,180.01159900993807,None,180.01159900993807,None,2022-02-10-13:51:30.630451,180.01579690002836,180.3276707000332,180.01579690002836,None,None,180.01579690002836,None,180.82940790996653,None,,,,11006,0001,2022_Feb_10_1348,localizer,2021.1.3,59.38362173968127,
block,scrambled,scrambled083.bmp,,,,,0,57,57,57,,,,,,,,,,,,,,,,,,,,,,,,,,,,,,,,,,,,,,,,,,None,,180.82940790996653,None,180.82940790996653,None,2022-02-10-13:51:31.453140,180.8451359999599,181.1506737000309,180.8451359999599,None,None,180.8451359999599,None,181.64458420997252,None,,,,11006,0001,2022_Feb_10_1348,localizer,2021.1.3,59.38362173968127,
block,scrambled,scrambled066.bmp,,,,,0,58,58,58,,,,,,,,,,,,,,,,,,,,,,,,,,,,,,,,,,,,,,,,,,None,,181.64458420997252,None,181.64458420997252,None,2022-02-10-13:51:32.264372,181.6552059999667,181.96051490004174,181.6552059999667,None,None,181.6552059999667,None,182.46202080996008,None,,,,11006,0001,2022_Feb_10_1348,localizer,2021.1.3,59.38362173968127,
block,scrambled,scrambled030.bmp,,,,,0,59,59,59,,,,,,,,,,,,,,,,,,,,,,,,,,,,,,,,,,,,,,,,,,None,,182.46202080996008,None,182.46202080996008,None,2022-02-10-13:51:33.084970,182.47903129993938,182.79432510002516,182.47903129993938,None,None,182.47903129993938,None,183.27743331001838,None,,,,11006,0001,2022_Feb_10_1348,localizer,2021.1.3,59.38362173968127,
block_end,scrambled,scrambled019.bmp,,,,,0,60,60,60,,,,,,,,,,,,,,,,,,,,,,,,,,,,,,,,,,,,,,,,,,None,,183.27743331001838,None,183.27743331001838,None,2022-02-10-13:51:33.896230,183.28732040000614,183.5942151999334,183.28732040000614,None,None,183.28732040000614,None,184.09427190999267,None,,,,11006,0001,2022_Feb_10_1348,localizer,2021.1.3,59.38362173968127,
null_block,null_block,null_block.bmp,,,,,0,61,61,61,,,,,,,,,,,,,,,,,,,,,,,,,,,,,,,,,,,,,,,,,,t,1.7204869999550283,184.09423799999058,None,184.09423799999058,None,2022-02-10-13:51:36.463602,185.84447401001816,None,185.84447401001816,None,None,185.84447401001816,None,185.84836269996595,None,,,,11006,0001,2022_Feb_10_1348,localizer,2021.1.3,59.38362173968127,
block_start,scenes,scenes042.bmp,,,,,0,62,62,62,,,,,,,,,,,,,,,,,,,,,,,,,,,,,,,,,,,,,,,,,,t,1.9528964000055566,197.86197810003068,None,197.86197810003068,None,2022-02-10-13:51:50.468924,199.84980740002356,200.16068229998928,199.84980740002356,None,None,199.84980740002356,None,200.6608584100264,None,,,,11006,0001,2022_Feb_10_1348,localizer,2021.1.3,59.38362173968127,
block,scenes,scenes050.bmp,,,,,0,63,63,63,,,,,,,,,,,,,,,,,,,,,,,,,,,,,,,,,,,,,,,,,,None,,200.6608584100264,None,200.6608584100264,None,2022-02-10-13:51:51.279660,200.6710146999685,200.9774175999919,200.6710146999685,None,None,200.6710146999685,None,201.47750241003232,None,,,,11006,0001,2022_Feb_10_1348,localizer,2021.1.3,59.38362173968127,
block,scenes,scenes037.bmp,,,,,0,64,64,64,,,,,,,,,,,,,,,,,,,,,,,,,,,,,,,,,,,,,,,,,,None,,201.47750241003232,None,201.47750241003232,None,2022-02-10-13:51:52.096304,201.47850980004296,201.7940157999983,201.47850980004296,None,None,201.47850980004296,None,202.27768610996426,None,,,,11006,0001,2022_Feb_10_1348,localizer,2021.1.3,59.38362173968127,
block,scenes,scenes078.bmp,,,,,0,65,65,65,,,,,,,,,,,,,,,,,,,,,,,,,,,,,,,,,,,,,,,,,,None,,202.27768610996426,None,202.27768610996426,None,2022-02-10-13:51:52.898592,202.29137929994613,202.59406989999115,202.29137929994613,202.29137929994613,None,202.29137929994613,202.29137929994613,203.09522690993035,None,,,,11006,0001,2022_Feb_10_1348,localizer,2021.1.3,59.38362173968127,
block,scenes,scenes076.bmp,,,,,0,66,66,66,,,,,,,,,,,,,,,,,,,,,,,,,,,,,,,,,,,,,,,,,,None,,203.09522690993035,None,203.09522690993035,None,2022-02-10-13:51:53.715145,203.1067471000133,203.41082999994978,203.1067471000133,None,None,203.1067471000133,None,203.91098141003167,None,,,,11006,0001,2022_Feb_10_1348,localizer,2021.1.3,59.38362173968127,
block,scenes,scenes080.bmp,,,,,0,67,67,67,,,,,,,,,,,,,,,,,,,,,,,,,,,,,,,,,,,,,,,,,,None,,203.91098141003167,None,203.91098141003167,None,2022-02-10-13:51:54.529888,203.9154836999951,204.22714730002917,203.9154836999951,None,None,203.9154836999951,None,204.72729890999616,None,,,,11006,0001,2022_Feb_10_1348,localizer,2021.1.3,59.38362173968127,
block,scenes,scenes087.bmp,,,,,0,68,68,68,,,,,,,,,,,,,,,,,,,,,,,,,,,,,,,,,,,,,,,,,,None,,204.72729890999616,None,204.72729890999616,None,2022-02-10-13:51:55.345646,204.73645840003155,205.0436350000091,204.73645840003155,None,None,204.73645840003155,None,205.54430880999425,None,,,,11006,0001,2022_Feb_10_1348,localizer,2021.1.3,59.38362173968127,
block,scenes,scenes062.bmp,,,,,0,69,69,69,,,,,,,,,,,,,,,,,,,,,,,,,,,,,,,,,,,,,,,,,,None,,205.54430880999425,None,205.54430880999425,None,2022-02-10-13:51:56.163728,205.55658600002062,205.8606306000147,205.55658600002062,None,None,205.55658600002062,None,206.36055160997202,None,,,,11006,0001,2022_Feb_10_1348,localizer,2021.1.3,59.38362173968127,
block,scenes,scenes058.bmp,,,,,0,70,70,70,,,,,,,,,,,,,,,,,,,,,,,,,,,,,,,,,,,,,,,,,,None,,206.36055160997202,None,206.36055160997202,None,2022-02-10-13:51:56.979206,206.36485420004465,206.67715290002525,206.36485420004465,None,None,206.36485420004465,None,207.17690400996943,None,,,,11006,0001,2022_Feb_10_1348,localizer,2021.1.3,59.38362173968127,
block,scenes,scenes068.bmp,,,,,0,71,71,71,,,,,,,,,,,,,,,,,,,,,,,,,,,,,,,,,,,,,,,,,,None,,207.17690400996943,None,207.17690400996943,None,2022-02-10-13:51:57.795560,207.18513440003153,207.49493719998281,207.18513440003153,None,None,207.18513440003153,None,207.99407321001635,None,,,,11006,0001,2022_Feb_10_1348,localizer,2021.1.3,59.38362173968127,
block,scenes,scenes008.bmp,,,,,0,72,72,72,,,,,,,,,,,,,,,,,,,,,,,,,,,,,,,,,,,,,,,,,,None,,207.99407321001635,None,207.99407321001635,None,2022-02-10-13:51:58.612961,208.0046211000299,208.31143060000613,208.0046211000299,None,None,208.0046211000299,None,208.81008861000882,None,,,,11006,0001,2022_Feb_10_1348,localizer,2021.1.3,59.38362173968127,
block,scenes,scenes004.bmp,,,,,0,73,73,73,,,,,,,,,,,,,,,,,,,,,,,,,,,,,,,,,,,,,,,,,,None,,208.81008861000882,None,208.81008861000882,None,2022-02-10-13:51:59.429312,208.82488229998853,209.1272336000111,208.82488229998853,None,None,208.82488229998853,None,209.6270535100135,None,,,,11006,0001,2022_Feb_10_1348,localizer,2021.1.3,59.38362173968127,
block,scenes,scenes057.bmp,,,,,0,74,74,74,,,,,,,,,,,,,,,,,,,,,,,,,,,,,,,,,,,,,,,,,,None,,209.6270535100135,None,209.6270535100135,None,2022-02-10-13:52:00.245366,209.62856510002166,209.94373459997587,209.62856510002166,None,None,209.62856510002166,None,210.42759160996647,None,,,,11006,0001,2022_Feb_10_1348,localizer,2021.1.3,59.38362173968127,
block,scenes,scenes012.bmp,,,,,0,75,75,75,,,,,,,,,,,,,,,,,,,,,,,,,,,,,,,,,,,,,,,,,,None,,210.42759160996647,None,210.42759160996647,None,2022-02-10-13:52:01.048346,210.43765800003894,210.74426850001328,210.43765800003894,210.43765800003894,None,210.43765800003894,210.43765800003894,211.24436110999667,None,,,,11006,0001,2022_Feb_10_1348,localizer,2021.1.3,59.38362173968127,
block_end,scenes,scenes021.bmp,,,,,0,76,76,76,,,,,,,,,,,,,,,,,,,,,,,,,,,,,,,,,,,,,,,,,,None,,211.24436110999667,None,211.24436110999667,None,2022-02-10-13:52:01.863434,211.24511969997548,211.54428709996864,211.24511969997548,None,None,211.24511969997548,None,212.06074340998893,None,,,,11006,0001,2022_Feb_10_1348,localizer,2021.1.3,59.38362173968127,
block_start,scrambled,scrambled040.bmp,,,,,0,77,77,77,,,,,,,,,,,,,,,,,,,,,,,,,,,,,,,,,,,,,,,,,,t,1.7540017999708652,212.06069630000275,None,212.06069630000275,None,2022-02-10-13:52:04.461995,213.85301950003486,214.16104949999135,213.85301950003486,None,None,213.85301950003486,None,214.66122471002163,None,,,,11006,0001,2022_Feb_10_1348,localizer,2021.1.3,59.38362173968127,
block,scrambled,scrambled021.bmp,,,,,0,78,78,78,,,,,,,,,,,,,,,,,,,,,,,,,,,,,,,,,,,,,,,,,,None,,214.66122471002163,None,214.66122471002163,None,2022-02-10-13:52:05.281014,214.6728221999947,214.9772991000209,214.6728221999947,None,None,214.6728221999947,None,215.477682810009,None,,,,11006,0001,2022_Feb_10_1348,localizer,2021.1.3,59.38362173968127,
block,scrambled,scrambled063.bmp,,,,,0,79,79,79,,,,,,,,,,,,,,,,,,,,,,,,,,,,,,,,,,,,,,,,,,None,,215.477682810009,None,215.477682810009,None,2022-02-10-13:52:06.096694,215.48769380000886,215.7939597000368,215.48769380000886,None,None,215.48769380000886,None,216.29449150998843,None,,,,11006,0001,2022_Feb_10_1348,localizer,2021.1.3,59.38362173968127,
block,scrambled,scrambled014.bmp,,,,,0,80,80,80,,,,,,,,,,,,,,,,,,,,,,,,,,,,,,,,,,,,,,,,,,None,,216.29449150998843,None,216.29449150998843,None,2022-02-10-13:52:06.914491,216.30483020003885,216.6108525999589,216.30483020003885,None,None,216.30483020003885,None,217.1110037100385,None,,,,11006,0001,2022_Feb_10_1348,localizer,2021.1.3,59.38362173968127,
block,scrambled,scrambled066.bmp,,,,,0,81,81,81,,,,,,,,,,,,,,,,,,,,,,,,,,,,,,,,,,,,,,,,,,None,,217.1110037100385,None,217.1110037100385,None,2022-02-10-13:52:07.730003,217.11174039996695,217.41098119993694,217.11174039996695,None,None,217.11174039996695,None,217.91089450995204,None,,,,11006,0001,2022_Feb_10_1348,localizer,2021.1.3,59.38362173968127,
block,scrambled,scrambled015.bmp,,,,,0,82,82,82,,,,,,,,,,,,,,,,,,,,,,,,,,,,,,,,,,,,,,,,,,None,,217.91089450995204,None,217.91089450995204,None,2022-02-10-13:52:08.531939,217.91813719994389,218.22797200002242,217.91813719994389,217.91813719994389,None,217.91813719994389,217.91813719994389,218.72741850997554,None,,,,11006,0001,2022_Feb_10_1348,localizer,2021.1.3,59.38362173968127,
block,scrambled,scrambled068.bmp,,,,,0,83,83,83,,,,,,,,,,,,,,,,,,,,,,,,,,,,,,,,,,,,,,,,,,None,,218.72741850997554,None,218.72741850997554,None,2022-02-10-13:52:09.346224,218.73594799998682,219.04521120002028,218.73594799998682,None,None,218.73594799998682,None,219.54365611003013,None,,,,11006,0001,2022_Feb_10_1348,localizer,2021.1.3,59.38362173968127,
block,scrambled,scrambled039.bmp,,,,,0,84,84,84,,,,,,,,,,,,,,,,,,,,,,,,,,,,,,,,,,,,,,,,,,None,,219.54365611003013,None,219.54365611003013,None,2022-02-10-13:52:10.162461,219.5569532000227,219.860990999965,219.5569532000227,None,None,219.5569532000227,None,220.36087240997003,None,,,,11006,0001,2022_Feb_10_1348,localizer,2021.1.3,59.38362173968127,
block,scrambled,scrambled004.bmp,,,,,0,85,85,85,,,,,,,,,,,,,,,,,,,,,,,,,,,,,,,,,,,,,,,,,,None,,220.36087240997003,None,220.36087240997003,None,2022-02-10-13:52:10.978612,220.36813850002363,220.67759069998283,220.36813850002363,None,None,220.36813850002363,None,221.1776591100148,None,,,,11006,0001,2022_Feb_10_1348,localizer,2021.1.3,59.38362173968127,
block,scrambled,scrambled004.bmp,,,,,0,86,86,86,,,,,,,,,,,,,,,,,,,,,,,,,,,,,,,,,,,,,,,,,,None,,221.1776591100148,None,221.1776591100148,None,2022-02-10-13:52:11.796458,221.17841669998597,221.47733619995415,221.17841669998597,None,y,221.17841669998597,None,221.98359330996172,None,0.42507730005308986,,,11006,0001,2022_Feb_10_1348,localizer,2021.1.3,59.38362173968127,
block,scrambled,scrambled064.bmp,,,,,0,87,87,87,,,,,,,,,,,,,,,,,,,,,,,,,,,,,,,,,,,,,,,,,,None,,221.98359330996172,None,221.98359330996172,None,2022-02-10-13:52:12.602401,221.9881021999754,222.29430179996416,221.9881021999754,None,None,221.9881021999754,None,222.79416450994322,None,,,,11006,0001,2022_Feb_10_1348,localizer,2021.1.3,59.38362173968127,
block,scrambled,scrambled011.bmp,,,,,0,88,88,88,,,,,,,,,,,,,,,,,,,,,,,,,,,,,,,,,,,,,,,,,,None,,222.79416450994322,None,222.79416450994322,None,2022-02-10-13:52:13.412967,222.804497599951,223.1109398000408,222.804497599951,None,None,222.804497599951,None,223.6002065100125,None,,,,11006,0001,2022_Feb_10_1348,localizer,2021.1.3,59.38362173968127,
block,scrambled,scrambled070.bmp,,,,,0,89,89,89,,,,,,,,,,,,,,,,,,,,,,,,,,,,,,,,,,,,,,,,,,None,,223.6002065100125,None,223.6002065100125,None,2022-02-10-13:52:14.223889,223.6118841000134,223.91025099996477,223.6118841000134,None,None,223.6118841000134,None,224.41322671001544,None,,,,11006,0001,2022_Feb_10_1348,localizer,2021.1.3,59.38362173968127,
block,scrambled,scrambled012.bmp,,,,,0,90,90,90,,,,,,,,,,,,,,,,,,,,,,,,,,,,,,,,,,,,,,,,,,None,,224.41322671001544,None,224.41322671001544,None,2022-02-10-13:52:15.035496,224.42679789999966,224.7276400999399,224.42679789999966,None,None,224.42679789999966,None,225.22765700992895,None,,,,11006,0001,2022_Feb_10_1348,localizer,2021.1.3,59.38362173968127,
block_end,scrambled,scrambled054.bmp,,,,,0,91,91,91,,,,,,,,,,,,,,,,,,,,,,,,,,,,,,,,,,,,,,,,,,None,,225.22765700992895,None,225.22765700992895,None,2022-02-10-13:52:15.846481,225.23690939997323,225.54458750004414,225.23690939997323,None,None,225.23690939997323,None,226.04481411000015,None,,,,11006,0001,2022_Feb_10_1348,localizer,2021.1.3,59.38362173968127,
block_start,faces,faces036.bmp,,,,,0,92,92,92,,,,,,,,,,,,,,,,,,,,,,,,,,,,,,,,,,,,,,,,,,t,1.7702225999673828,226.0444153000135,None,226.0444153000135,None,2022-02-10-13:52:18.462855,227.85223279998172,228.16144840000197,227.85223279998172,None,None,227.85223279998172,None,228.66146500998875,None,,,,11006,0001,2022_Feb_10_1348,localizer,2021.1.3,59.38362173968127,
block,faces,faces010.bmp,,,,,0,93,93,93,,,,,,,,,,,,,,,,,,,,,,,,,,,,,,,,,,,,,,,,,,None,,228.66146500998875,None,228.66146500998875,None,2022-02-10-13:52:19.281256,228.67025339999236,228.97771919996012,228.67025339999236,None,None,228.67025339999236,None,229.4774882100406,None,,,,11006,0001,2022_Feb_10_1348,localizer,2021.1.3,59.38362173968127,
block,faces,faces013.bmp,,,,,0,94,94,94,,,,,,,,,,,,,,,,,,,,,,,,,,,,,,,,,,,,,,,,,,None,,229.4774882100406,None,229.4774882100406,None,2022-02-10-13:52:20.096288,229.48747849999927,229.79407980001997,229.48747849999927,None,None,229.48747849999927,None,230.29424931000685,None,,,,11006,0001,2022_Feb_10_1348,localizer,2021.1.3,59.38362173968127,
block,faces,faces016.bmp,,,,,0,95,95,95,,,,,,,,,,,,,,,,,,,,,,,,,,,,,,,,,,,,,,,,,,None,,230.29424931000685,None,230.29424931000685,None,2022-02-10-13:52:20.913052,230.30593719996978,230.61048589996062,230.30593719996978,None,None,230.30593719996978,None,231.1108880099724,None,,,,11006,0001,2022_Feb_10_1348,localizer,2021.1.3,59.38362173968127,
block,faces,faces006.bmp,,,,,0,96,96,96,,,,,,,,,,,,,,,,,,,,,,,,,,,,,,,,,,,,,,,,,,None,,231.1108880099724,None,231.1108880099724,None,2022-02-10-13:52:21.729678,231.1118570000399,231.42767749994528,231.1118570000399,None,None,231.1118570000399,None,231.9109531099326,None,,,,11006,0001,2022_Feb_10_1348,localizer,2021.1.3,59.38362173968127,
block,faces,faces085.bmp,,,,,0,97,97,97,,,,,,,,,,,,,,,,,,,,,,,,,,,,,,,,,,,,,,,,,,None,,231.9109531099326,None,231.9109531099326,None,2022-02-10-13:52:22.531355,231.92216199997347,232.22768939996604,231.92216199997347,231.92216199997347,None,231.92216199997347,231.92216199997347,232.72708651000866,None,,,,11006,0001,2022_Feb_10_1348,localizer,2021.1.3,59.38362173968127,
block,faces,faces022.bmp,,,,,0,98,98,98,,,,,,,,,,,,,,,,,,,,,,,,,,,,,,,,,,,,,,,,,,None,,232.72708651000866,None,232.72708651000866,None,2022-02-10-13:52:23.346034,232.73326569993515,233.0510316999862,232.73326569993515,None,None,232.73326569993515,None,233.54449250999605,None,,,,11006,0001,2022_Feb_10_1348,localizer,2021.1.3,59.38362173968127,
block,faces,faces041.bmp,,,,,0,99,99,99,,,,,,,,,,,,,,,,,,,,,,,,,,,,,,,,,,,,,,,,,,None,,233.54449250999605,None,233.54449250999605,None,2022-02-10-13:52:24.163291,233.5552157999482,233.8606820999412,233.5552157999482,None,None,233.5552157999482,None,234.36088450994575,None,,,,11006,0001,2022_Feb_10_1348,localizer,2021.1.3,59.38362173968127,
block,faces,faces005.bmp,,,,,0,100,100,100,,,,,,,,,,,,,,,,,,,,,,,,,,,,,,,,,,,,,,,,,,None,,234.36088450994575,None,234.36088450994575,None,2022-02-10-13:52:24.980136,234.36624380003195,234.67769859998953,234.36624380003195,None,None,234.36624380003195,None,235.17738591002998,None,,,,11006,0001,2022_Feb_10_1348,localizer,2021.1.3,59.38362173968127,
block,faces,faces065.bmp,,,,,0,101,101,101,,,,,,,,,,,,,,,,,,,,,,,,,,,,,,,,,,,,,,,,,,None,,235.17738591002998,None,235.17738591002998,None,2022-02-10-13:52:25.796471,235.17870799999218,235.4943426999962,235.17870799999218,None,None,235.17870799999218,None,235.97802810996072,None,,,,11006,0001,2022_Feb_10_1348,localizer,2021.1.3,59.38362173968127,
block,faces,faces060.bmp,,,,,0,102,102,102,,,,,,,,,,,,,,,,,,,,,,,,,,,,,,,,,,,,,,,,,,None,,235.97802810996072,None,235.97802810996072,None,2022-02-10-13:52:26.599732,235.99128129996825,236.2944809999317,235.99128129996825,235.99128129996825,None,235.99128129996825,235.99128129996825,236.80075440994696,None,,,,11006,0001,2022_Feb_10_1348,localizer,2021.1.3,59.38362173968127,
block,faces,faces035.bmp,,,,,0,103,103,103,,,,,,,,,,,,,,,,,,,,,,,,,,,,,,,,,,,,,,,,,,None,,236.80075440994696,None,236.80075440994696,None,2022-02-10-13:52:27.427525,236.81463479995728,237.12758870003745,236.81463479995728,None,None,236.81463479995728,None,237.61140950998524,None,,,,11006,0001,2022_Feb_10_1348,localizer,2021.1.3,59.38362173968127,
block,faces,faces014.bmp,,,,,0,104,104,104,,,,,,,,,,,,,,,,,,,,,,,,,,,,,,,,,,,,,,,,,,None,,237.61140950998524,None,237.61140950998524,None,2022-02-10-13:52:28.231226,237.612232399988,237.91134079999756,237.612232399988,None,None,237.612232399988,None,238.42778281002538,None,,,,11006,0001,2022_Feb_10_1348,localizer,2021.1.3,59.38362173968127,
block,faces,faces001.bmp,,,,,0,105,105,105,,,,,,,,,,,,,,,,,,,,,,,,,,,,,,,,,,,,,,,,,,None,,238.42778281002538,None,238.42778281002538,None,2022-02-10-13:52:29.047282,238.4397622999968,238.74431440001354,238.4397622999968,None,None,238.4397622999968,None,239.24460570999653,None,,,,11006,0001,2022_Feb_10_1348,localizer,2021.1.3,59.38362173968127,
block_end,faces,faces061.bmp,,,,,0,106,106,106,,,,,,,,,,,,,,,,,,,,,,,,,,,,,,,,,,,,,,,,,,None,,239.24460570999653,None,239.24460570999653,None,2022-02-10-13:52:29.863406,239.25582049996592,239.56075679999776,239.25582049996592,None,None,239.25582049996592,None,240.06088830992812,None,,,,11006,0001,2022_Feb_10_1348,localizer,2021.1.3,59.38362173968127,
block_start,objects,objects060.bmp,,,,,0,107,107,107,,,,,,,,,,,,,,,,,,,,,,,,,,,,,,,,,,,,,,,,,,t,1.7539449000032619,240.06094819994178,None,240.06094819994178,None,2022-02-10-13:52:32.461796,241.84704040002543,242.16093559993897,241.84704040002543,None,None,241.84704040002543,None,242.66106430996442,None,,,,11006,0001,2022_Feb_10_1348,localizer,2021.1.3,59.38362173968127,
block,objects,objects003.bmp,,,,,0,108,108,108,,,,,,,,,,,,,,,,,,,,,,,,,,,,,,,,,,,,,,,,,,None,,242.66106430996442,None,242.66106430996442,None,2022-02-10-13:52:33.280144,242.66934499994386,242.97772570000961,242.66934499994386,None,None,242.66934499994386,None,243.47769991002278,None,,,,11006,0001,2022_Feb_10_1348,localizer,2021.1.3,59.38362173968127,
block,objects,objects024.bmp,,,,,0,109,109,109,,,,,,,,,,,,,,,,,,,,,,,,,,,,,,,,,,,,,,,,,,None,,243.47769991002278,None,243.47769991002278,None,2022-02-10-13:52:34.096500,243.48661599995103,243.79429879994132,243.48661599995103,None,None,243.48661599995103,None,244.29459900999208,None,,,,11006,0001,2022_Feb_10_1348,localizer,2021.1.3,59.38362173968127,
block,objects,objects006.bmp,,,,,0,110,110,110,,,,,,,,,,,,,,,,,,,,,,,,,,,,,,,,,,,,,,,,,,None,,244.29459900999208,None,244.29459900999208,None,2022-02-10-13:52:34.913398,244.30469379993156,244.61206539999694,244.30469379993156,None,None,244.30469379993156,None,245.11144080999074,None,,,,11006,0001,2022_Feb_10_1348,localizer,2021.1.3,59.38362173968127,
block,objects,objects033.bmp,,,,,0,111,111,111,,,,,,,,,,,,,,,,,,,,,,,,,,,,,,,,,,,,,,,,,,None,,245.11144080999074,None,245.11144080999074,None,2022-02-10-13:52:35.731231,245.12240460002795,245.42799550003838,245.12240460002795,None,None,245.12240460002795,None,245.92833221001783,None,,,,11006,0001,2022_Feb_10_1348,localizer,2021.1.3,59.38362173968127,
block,objects,objects002.bmp,,,,,0,112,112,112,,,,,,,,,,,,,,,,,,,,,,,,,,,,,,,,,,,,,,,,,,None,,245.92833221001783,None,245.92833221001783,None,2022-02-10-13:52:36.548312,245.9398939999519,246.24556119996123,245.9398939999519,None,None,245.9398939999519,None,246.74571290992898,None,,,,11006,0001,2022_Feb_10_1348,localizer,2021.1.3,59.38362173968127,
block,objects,objects045.bmp,,,,,0,113,113,113,,,,,,,,,,,,,,,,,,,,,,,,,,,,,,,,,,,,,,,,,,None,,246.74571290992898,None,246.74571290992898,None,2022-02-10-13:52:37.366492,246.74811609997414,247.06141089997254,246.74811609997414,None,None,246.74811609997414,None,247.56170030994107,None,,,,11006,0001,2022_Feb_10_1348,localizer,2021.1.3,59.38362173968127,
block,objects,objects070.bmp,,,,,0,114,114,114,,,,,,,,,,,,,,,,,,,,,,,,,,,,,,,,,,,,,,,,,,None,,247.56170030994107,None,247.56170030994107,None,2022-02-10-13:52:38.181688,247.5623695999384,247.87781810003798,247.5623695999384,None,None,247.5623695999384,None,248.36199050998547,None,,,,11006,0001,2022_Feb_10_1348,localizer,2021.1.3,59.38362173968127,
block,objects,objects053.bmp,,,,,0,115,115,115,,,,,,,,,,,,,,,,,,,,,,,,,,,,,,,,,,,,,,,,,,None,,248.36199050998547,None,248.36199050998547,None,2022-02-10-13:52:38.984769,248.37709249998443,248.67771960003302,248.37709249998443,248.37709249998443,None,248.37709249998443,248.37709249998443,249.177710309939,None,,,,11006,0001,2022_Feb_10_1348,localizer,2021.1.3,59.38362173968127,
block,objects,objects082.bmp,,,,,0,116,116,116,,,,,,,,,,,,,,,,,,,,,,,,,,,,,,,,,,,,,,,,,,None,,249.177710309939,None,249.177710309939,None,2022-02-10-13:52:39.796514,249.17856239993125,249.4943819999462,249.17856239993125,None,None,249.17856239993125,None,249.9942252100096,None,,,,11006,0001,2022_Feb_10_1348,localizer,2021.1.3,59.38362173968127,
block,objects,objects032.bmp,,,,,0,117,117,117,,,,,,,,,,,,,,,,,,,,,,,,,,,,,,,,,,,,,,,,,,None,,249.9942252100096,None,249.9942252100096,None,2022-02-10-13:52:40.613032,249.99541920004413,250.31113709998317,249.99541920004413,None,None,249.99541920004413,None,250.8117934099515,None,,,,11006,0001,2022_Feb_10_1348,localizer,2021.1.3,59.38362173968127,
block,objects,objects081.bmp,,,,,0,118,118,118,,,,,,,,,,,,,,,,,,,,,,,,,,,,,,,,,,,,,,,,,,None,,250.8117934099515,None,250.8117934099515,None,2022-02-10-13:52:41.431726,250.82256609993055,251.1317045999458,250.82256609993055,None,None,250.82256609993055,None,251.6290661099716,None,,,,11006,0001,2022_Feb_10_1348,localizer,2021.1.3,59.38362173968127,
block,objects,objects016.bmp,,,,,0,119,119,119,,,,,,,,,,,,,,,,,,,,,,,,,,,,,,,,,,,,,,,,,,None,,251.6290661099716,None,251.6290661099716,None,2022-02-10-13:52:42.247354,251.63629559997935,251.9444414000027,251.63629559997935,None,None,251.63629559997935,None,252.44451091004302,None,,,,11006,0001,2022_Feb_10_1348,localizer,2021.1.3,59.38362173968127,
block,objects,objects047.bmp,,,,,0,120,120,120,,,,,,,,,,,,,,,,,,,,,,,,,,,,,,,,,,,,,,,,,,None,,252.44451091004302,None,252.44451091004302,None,2022-02-10-13:52:43.063311,252.45368319994304,252.7612272000406,252.45368319994304,None,None,252.45368319994304,None,253.26131741000572,None,,,,11006,0001,2022_Feb_10_1348,localizer,2021.1.3,59.38362173968127,
block_end,objects,objects041.bmp,,,,,0,121,121,121,,,,,,,,,,,,,,,,,,,,,,,,,,,,,,,,,,,,,,,,,,None,,253.26131741000572,None,253.26131741000572,None,2022-02-10-13:52:43.880117,253.27132830000482,253.57783219998237,253.27132830000482,None,None,253.27132830000482,None,254.07780350997345,None,,,,11006,0001,2022_Feb_10_1348,localizer,2021.1.3,59.38362173968127,
block_start,scenes,scenes063.bmp,,,,,0,122,122,122,,,,,,,,,,,,,,,,,,,,,,,,,,,,,,,,,,,,,,,,,,t,1.737110499991104,254.07785320002586,None,254.07785320002586,None,2022-02-10-13:52:46.463929,255.8518885000376,256.1612525000237,255.8518885000376,None,None,255.8518885000376,None,256.66082711002093,None,,,,11006,0001,2022_Feb_10_1348,localizer,2021.1.3,59.38362173968127,
block,scenes,scenes018.bmp,,,,,0,123,123,123,,,,,,,,,,,,,,,,,,,,,,,,,,,,,,,,,,,,,,,,,,None,,256.66082711002093,None,256.66082711002093,None,2022-02-10-13:52:47.279631,256.66895279998425,256.97808110003825,256.66895279998425,None,None,256.66895279998425,None,257.4777840099647,None,,,,11006,0001,2022_Feb_10_1348,localizer,2021.1.3,59.38362173968127,
block,scenes,scenes005.bmp,,,,,0,124,124,124,,,,,,,,,,,,,,,,,,,,,,,,,,,,,,,,,,,,,,,,,,None,,257.4777840099647,None,257.4777840099647,None,2022-02-10-13:52:48.096585,257.48743300000206,257.794331699959,257.48743300000206,None,None,257.48743300000206,None,258.2957702099462,None,,,,11006,0001,2022_Feb_10_1348,localizer,2021.1.3,59.38362173968127,
block,scenes,scenes013.bmp,,,,,0,125,125,125,,,,,,,,,,,,,,,,,,,,,,,,,,,,,,,,,,,,,,,,,,None,,258.2957702099462,None,258.2957702099462,None,2022-02-10-13:52:48.916086,258.3080833000131,258.6175728000235,258.3080833000131,None,None,258.3080833000131,None,259.11175211003285,None,,,,11006,0001,2022_Feb_10_1348,localizer,2021.1.3,59.38362173968127,
block,scenes,scenes045.bmp,,,,,0,126,126,126,,,,,,,,,,,,,,,,,,,,,,,,,,,,,,,,,,,,,,,,,,None,,259.11175211003285,None,259.11175211003285,None,2022-02-10-13:52:49.731699,259.1248392999405,259.42840380000416,259.1248392999405,None,None,259.1248392999405,None,259.9178855099832,None,,,,11006,0001,2022_Feb_10_1348,localizer,2021.1.3,59.38362173968127,
block,scenes,scenes064.bmp,,,,,0,127,127,127,,,,,,,,,,,,,,,,,,,,,,,,,,,,,,,,,,,,,,,,,,None,,259.9178855099832,None,259.9178855099832,None,2022-02-10-13:52:50.541494,259.92312870000023,260.2316300999373,259.92312870000023,None,None,259.92312870000023,None,260.72818200996846,None,,,,11006,0001,2022_Feb_10_1348,localizer,2021.1.3,59.38362173968127,
block,scenes,scenes027.bmp,,,,,0,128,128,128,,,,,,,,,,,,,,,,,,,,,,,,,,,,,,,,,,,,,,,,,,None,,260.72818200996846,None,260.72818200996846,None,2022-02-10-13:52:51.346979,260.7390980999917,261.04467079997994,260.7390980999917,None,None,260.7390980999917,None,261.54471950997834,None,,,,11006,0001,2022_Feb_10_1348,localizer,2021.1.3,59.38362173968127,
block,scenes,scenes083.bmp,,,,,0,129,129,129,,,,,,,,,,,,,,,,,,,,,,,,,,,,,,,,,,,,,,,,,,None,,261.54471950997834,None,261.54471950997834,None,2022-02-10-13:52:52.163518,261.5547677000286,261.86120020004455,261.5547677000286,None,None,261.5547677000286,None,262.3625064099557,None,,,,11006,0001,2022_Feb_10_1348,localizer,2021.1.3,59.38362173968127,
block,scenes,scenes061.bmp,,,,,0,130,130,130,,,,,,,,,,,,,,,,,,,,,,,,,,,,,,,,,,,,,,,,,,None,,262.3625064099557,None,262.3625064099557,None,2022-02-10-13:52:52.982867,262.37675920000765,262.6802851000102,262.37675920000765,None,None,262.37675920000765,None,263.17828531001,None,,,,11006,0001,2022_Feb_10_1348,localizer,2021.1.3,59.38362173968127,
block,scenes,scenes088.bmp,,,,,0,131,131,131,,,,,,,,,,,,,,,,,,,,,,,,,,,,,,,,,,,,,,,,,,None,,263.17828531001,None,263.17828531001,None,2022-02-10-13:52:53.798076,263.189270199975,263.4948806000175,263.189270199975,None,None,263.189270199975,None,263.9946310099564,None,,,,11006,0001,2022_Feb_10_1348,localizer,2021.1.3,59.38362173968127,
block,scenes,scenes077.bmp,,,,,0,132,132,132,,,,,,,,,,,,,,,,,,,,,,,,,,,,,,,,,,,,,,,,,,None,,263.9946310099564,None,263.9946310099564,None,2022-02-10-13:52:54.613887,263.9955228000181,264.31110970000736,263.9955228000181,None,None,263.9955228000181,None,264.7948643100332,None,,,,11006,0001,2022_Feb_10_1348,localizer,2021.1.3,59.38362173968127,
block,scenes,scenes057.bmp,,,,,0,133,133,133,,,,,,,,,,,,,,,,,,,,,,,,,,,,,,,,,,,,,,,,,,None,,264.7948643100332,None,264.7948643100332,None,2022-02-10-13:52:55.415867,264.7978943999624,265.1114888000302,264.7978943999624,264.7978943999624,None,264.7978943999624,264.7978943999624,265.6110029100324,None,,,,11006,0001,2022_Feb_10_1348,localizer,2021.1.3,59.38362173968127,
block,scenes,scenes003.bmp,,,,,0,134,134,134,,,,,,,,,,,,,,,,,,,,,,,,,,,,,,,,,,,,,,,,,,None,,265.6110029100324,None,265.6110029100324,None,2022-02-10-13:52:56.229810,265.6210917000426,265.9277620000066,265.6210917000426,None,None,265.6210917000426,None,266.42816281000853,None,,,,11006,0001,2022_Feb_10_1348,localizer,2021.1.3,59.38362173968127,
block,scenes,scenes049.bmp,,,,,0,135,135,135,,,,,,,,,,,,,,,,,,,,,,,,,,,,,,,,,,,,,,,,,,None,,266.42816281000853,None,266.42816281000853,None,2022-02-10-13:52:57.048058,266.4400975999888,266.74466049997136,266.4400975999888,None,None,266.4400975999888,None,267.2448327099788,None,,,,11006,0001,2022_Feb_10_1348,localizer,2021.1.3,59.38362173968127,
block_end,scenes,scenes056.bmp,,,,,0,136,136,136,,,,,,,,,,,,,,,,,,,,,,,,,,,,,,,,,,,,,,,,,,None,,267.2448327099788,None,267.2448327099788,None,2022-02-10-13:52:57.863813,267.255798600032,267.561318699969,267.255798600032,None,None,267.255798600032,None,268.0609040099313,None,,,,11006,0001,2022_Feb_10_1348,localizer,2021.1.3,59.38362173968127,
block_start,objects,objects050.bmp,,,,,0,137,137,137,,,,,,,,,,,,,,,,,,,,,,,,,,,,,,,,,,,,,,,,,,t,1.752842599991709,268.0609888000181,None,268.0609888000181,None,2022-02-10-13:53:00.447864,269.82881830004044,270.1281528000254,269.82881830004044,None,None,269.82881830004044,None,270.6281257100287,None,,,,11006,0001,2022_Feb_10_1348,localizer,2021.1.3,59.38362173968127,
block,objects,objects064.bmp,,,,,0,138,138,138,,,,,,,,,,,,,,,,,,,,,,,,,,,,,,,,,,,,,,,,,,None,,270.6281257100287,None,270.6281257100287,None,2022-02-10-13:53:01.248918,270.6399692000123,270.94418430002406,270.6399692000123,270.6399692000123,None,270.6399692000123,270.6399692000123,271.44451660997004,None,,,,11006,0001,2022_Feb_10_1348,localizer,2021.1.3,59.38362173968127,
block,objects,objects064.bmp,,,,,0,139,139,139,,,,,,,,,,,,,,,,,,,,,,,,,,,,,,,,,,,,,,,,,,None,,271.44451660997004,None,271.44451660997004,None,2022-02-10-13:53:02.063321,271.44553489994723,271.7447033999488,271.44553489994723,None,y,271.44553489994723,None,272.2450275099487,None,0.5530127000529319,,,11006,0001,2022_Feb_10_1348,localizer,2021.1.3,59.38362173968127,
block,objects,objects011.bmp,,,,,0,140,140,140,,,,,,,,,,,,,,,,,,,,,,,,,,,,,,,,,,,,,,,,,,None,,272.2450275099487,None,272.2450275099487,None,2022-02-10-13:53:02.865819,272.2541869999841,272.5617070000153,272.2541869999841,272.2541869999841,None,272.2541869999841,272.2541869999841,273.0621792099788,None,,,,11006,0001,2022_Feb_10_1348,localizer,2021.1.3,59.38362173968127,
block,objects,objects039.bmp,,,,,0,141,141,141,,,,,,,,,,,,,,,,,,,,,,,,,,,,,,,,,,,,,,,,,,None,,273.0621792099788,None,273.0621792099788,None,2022-02-10-13:53:03.682162,273.0726858000271,273.378023999976,273.0726858000271,None,None,273.0726858000271,None,273.8782988099498,None,,,,11006,0001,2022_Feb_10_1348,localizer,2021.1.3,59.38362173968127,
block,objects,objects058.bmp,,,,,0,142,142,142,,,,,,,,,,,,,,,,,,,,,,,,,,,,,,,,,,,,,,,,,,None,,273.8782988099498,None,273.8782988099498,None,2022-02-10-13:53:04.497092,273.888302700012,274.19462159997784,273.888302700012,None,None,273.888302700012,None,274.6943416100345,None,,,,11006,0001,2022_Feb_10_1348,localizer,2021.1.3,59.38362173968127,
block,objects,objects056.bmp,,,,,0,143,143,143,,,,,,,,,,,,,,,,,,,,,,,,,,,,,,,,,,,,,,,,,,None,,274.6943416100345,None,274.6943416100345,None,2022-02-10-13:53:05.312151,274.7008958000224,275.0113414999796,274.7008958000224,None,None,274.7008958000224,None,275.51156860993945,None,,,,11006,0001,2022_Feb_10_1348,localizer,2021.1.3,59.38362173968127,
block,objects,objects020.bmp,,,,,0,144,144,144,,,,,,,,,,,,,,,,,,,,,,,,,,,,,,,,,,,,,,,,,,None,,275.51156860993945,None,275.51156860993945,None,2022-02-10-13:53:06.130565,275.521120899939,275.82813369994983,275.521120899939,None,None,275.521120899939,None,276.32792210994523,None,,,,11006,0001,2022_Feb_10_1348,localizer,2021.1.3,59.38362173968127,
block,objects,objects012.bmp,,,,,0,145,145,145,,,,,,,,,,,,,,,,,,,,,,,,,,,,,,,,,,,,,,,,,,None,,276.32792210994523,None,276.32792210994523,None,2022-02-10-13:53:06.946723,276.3330299999798,276.6448458000086,276.3330299999798,None,None,276.3330299999798,None,277.1458257099963,None,,,,11006,0001,2022_Feb_10_1348,localizer,2021.1.3,59.38362173968127,
block,objects,objects007.bmp,,,,,0,146,146,146,,,,,,,,,,,,,,,,,,,,,,,,,,,,,,,,,,,,,,,,,,None,,277.1458257099963,None,277.1458257099963,None,2022-02-10-13:53:07.765735,277.1561565999873,277.46133399999235,277.1561565999873,None,None,277.1561565999873,None,277.9650065099937,None,,,,11006,0001,2022_Feb_10_1348,localizer,2021.1.3,59.38362173968127,
block,objects,objects054.bmp,,,,,0,147,147,147,,,,,,,,,,,,,,,,,,,,,,,,,,,,,,,,,,,,,,,,,,None,,277.9650065099937,None,277.9650065099937,None,2022-02-10-13:53:08.591862,277.9737701000413,278.27866990002804,277.9737701000413,None,None,277.9737701000413,None,278.77812550993406,None,,,,11006,0001,2022_Feb_10_1348,localizer,2021.1.3,59.38362173968127,
block,objects,objects052.bmp,,,,,0,148,148,148,,,,,,,,,,,,,,,,,,,,,,,,,,,,,,,,,,,,,,,,,,None,,278.77812550993406,None,278.77812550993406,None,2022-02-10-13:53:09.396924,278.7791488999501,279.08057140000165,278.7791488999501,None,None,278.7791488999501,None,279.58065040999793,None,,,,11006,0001,2022_Feb_10_1348,localizer,2021.1.3,59.38362173968127,
block,objects,objects001.bmp,,,,,0,149,149,149,,,,,,,,,,,,,,,,,,,,,,,,,,,,,,,,,,,,,,,,,,None,,279.58065040999793,None,279.58065040999793,None,2022-02-10-13:53:10.204598,279.58628639997914,279.89535280002747,279.58628639997914,279.58628639997914,None,279.58628639997914,279.58628639997914,280.39467760998525,None,,,,11006,0001,2022_Feb_10_1348,localizer,2021.1.3,59.38362173968127,
block,objects,objects072.bmp,,,,,0,150,150,150,,,,,,,,,,,,,,,,,,,,,,,,,,,,,,,,,,,,,,,,,,None,,280.39467760998525,None,280.39467760998525,None,2022-02-10-13:53:11.013478,280.40349549998064,280.71111949998885,280.40349549998064,None,None,280.40349549998064,None,281.2113923099474,None,,,,11006,0001,2022_Feb_10_1348,localizer,2021.1.3,59.38362173968127,
block_end,objects,objects069.bmp,,,,,0,151,151,151,,,,,,,,,,,,,,,,,,,,,,,,,,,,,,,,,,,,,,,,,,None,,281.2113923099474,None,281.2113923099474,None,2022-02-10-13:53:11.830076,281.22037180000916,281.52814639999997,281.22037180000916,None,None,281.22037180000916,None,282.0280079099699,None,,,,11006,0001,2022_Feb_10_1348,localizer,2021.1.3,59.38362173968127,
block_start,faces,faces059.bmp,,,,,0,152,152,152,,,,,,,,,,,,,,,,,,,,,,,,,,,,,,,,,,,,,,,,,,t,1.785977799911052,282.02787580003496,None,282.02787580003496,None,2022-02-10-13:53:14.462777,283.852982899989,284.16131029999815,283.852982899989,None,None,283.852982899989,None,284.66146270997126,None,,,,11006,0001,2022_Feb_10_1348,localizer,2021.1.3,59.38362173968127,
block,faces,faces034.bmp,,,,,0,153,153,153,,,,,,,,,,,,,,,,,,,,,,,,,,,,,,,,,,,,,,,,,,None,,284.66146270997126,None,284.66146270997126,None,2022-02-10-13:53:15.280257,284.66245199996047,284.9615743999602,284.66245199996047,None,None,284.66245199996047,None,285.461991009966,None,,,,11006,0001,2022_Feb_10_1348,localizer,2021.1.3,59.38362173968127,
block,faces,faces015.bmp,,,,,0,154,154,154,,,,,,,,,,,,,,,,,,,,,,,,,,,,,,,,,,,,,,,,,,None,,285.461991009966,None,285.461991009966,None,2022-02-10-13:53:16.082977,285.4640472999308,285.77855579997413,285.4640472999308,285.4640472999308,None,285.4640472999308,285.4640472999308,286.27812091001545,None,,,,11006,0001,2022_Feb_10_1348,localizer,2021.1.3,59.38362173968127,
block,faces,faces082.bmp,,,,,0,155,155,155,,,,,,,,,,,,,,,,,,,,,,,,,,,,,,,,,,,,,,,,,,None,,286.27812091001545,None,286.27812091001545,None,2022-02-10-13:53:16.897109,286.27901109994855,286.57814560004044,286.27901109994855,None,None,286.27901109994855,None,287.07830420994435,None,,,,11006,0001,2022_Feb_10_1348,localizer,2021.1.3,59.38362173968127,
block,faces,faces088.bmp,,,,,0,156,156,156,,,,,,,,,,,,,,,,,,,,,,,,,,,,,,,,,,,,,,,,,,None,,287.07830420994435,None,287.07830420994435,None,2022-02-10-13:53:17.699095,287.09116619999986,287.39475540001877,287.09116619999986,287.09116619999986,None,287.09116619999986,287.09116619999986,287.8959616099834,None,,,,11006,0001,2022_Feb_10_1348,localizer,2021.1.3,59.38362173968127,
block,faces,faces042.bmp,,,,,0,157,157,157,,,,,,,,,,,,,,,,,,,,,,,,,,,,,,,,,,,,,,,,,,None,,287.8959616099834,None,287.8959616099834,None,2022-02-10-13:53:18.515740,287.90723529993556,288.21126420004293,287.90723529993556,None,None,287.90723529993556,None,288.71131750995994,None,,,,11006,0001,2022_Feb_10_1348,localizer,2021.1.3,59.38362173968127,
block,faces,faces025.bmp,,,,,0,158,158,158,,,,,,,,,,,,,,,,,,,,,,,,,,,,,,,,,,,,,,,,,,None,,288.71131750995994,None,288.71131750995994,None,2022-02-10-13:53:19.330119,288.72002050001174,289.0281002999982,288.72002050001174,None,None,288.72002050001174,None,289.52814880999506,None,,,,11006,0001,2022_Feb_10_1348,localizer,2021.1.3,59.38362173968127,
block,faces,faces039.bmp,,,,,0,159,159,159,,,,,,,,,,,,,,,,,,,,,,,,,,,,,,,,,,,,,,,,,,None,,289.52814880999506,None,289.52814880999506,None,2022-02-10-13:53:20.146227,289.5377905999776,289.84467789996415,289.5377905999776,None,None,289.5377905999776,None,290.3447410099558,None,,,,11006,0001,2022_Feb_10_1348,localizer,2021.1.3,59.38362173968127,
block,faces,faces084.bmp,,,,,0,160,160,160,,,,,,,,,,,,,,,,,,,,,,,,,,,,,,,,,,,,,,,,,,None,,290.3447410099558,None,290.3447410099558,None,2022-02-10-13:53:20.963542,290.35414519999176,290.66105420002714,290.35414519999176,None,None,290.35414519999176,None,291.1621498099645,None,,,,11006,0001,2022_Feb_10_1348,localizer,2021.1.3,59.38362173968127,
block,faces,faces051.bmp,,,,,0,161,161,161,,,,,,,,,,,,,,,,,,,,,,,,,,,,,,,,,,,,,,,,,,None,,291.1621498099645,None,291.1621498099645,None,2022-02-10-13:53:21.781937,291.1748355999589,291.4782537999563,291.1748355999589,None,None,291.1748355999589,None,291.9846170099569,None,,,,11006,0001,2022_Feb_10_1348,localizer,2021.1.3,59.38362173968127,
block,faces,faces002.bmp,,,,,0,162,162,162,,,,,,,,,,,,,,,,,,,,,,,,,,,,,,,,,,,,,,,,,,None,,291.9846170099569,None,291.9846170099569,None,2022-02-10-13:53:22.609399,292.0031025999924,292.3114788000239,292.0031025999924,None,None,292.0031025999924,None,292.7950296100113,None,,,,11006,0001,2022_Feb_10_1348,localizer,2021.1.3,59.38362173968127,
block,faces,faces049.bmp,,,,,0,163,163,163,,,,,,,,,,,,,,,,,,,,,,,,,,,,,,,,,,,,,,,,,,None,,292.7950296100113,None,292.7950296100113,None,2022-02-10-13:53:23.413934,292.8060433999635,293.11180399998557,292.8060433999635,None,None,292.8060433999635,None,293.61184810994894,None,,,,11006,0001,2022_Feb_10_1348,localizer,2021.1.3,59.38362173968127,
block,faces,faces072.bmp,,,,,0,164,164,164,,,,,,,,,,,,,,,,,,,,,,,,,,,,,,,,,,,,,,,,,,None,,293.61184810994894,None,293.61184810994894,None,2022-02-10-13:53:24.230642,293.6227326999651,293.9282175999833,293.6227326999651,None,None,293.6227326999651,None,294.4285196099314,None,,,,11006,0001,2022_Feb_10_1348,localizer,2021.1.3,59.38362173968127,
block,faces,faces010.bmp,,,,,0,165,165,165,,,,,,,,,,,,,,,,,,,,,,,,,,,,,,,,,,,,,,,,,,None,,294.4285196099314,None,294.4285196099314,None,2022-02-10-13:53:25.047515,294.42924760002643,294.728307900019,294.42924760002643,None,None,294.42924760002643,None,295.2283503099694,None,,,,11006,0001,2022_Feb_10_1348,localizer,2021.1.3,59.38362173968127,
block_end,faces,faces057.bmp,,,,,0,166,166,166,,,,,,,,,,,,,,,,,,,,,,,,,,,,,,,,,,,,,,,,,,None,,295.2283503099694,None,295.2283503099694,None,2022-02-10-13:53:25.849140,295.2429191999836,295.5445435999427,295.2429191999836,295.2429191999836,None,295.2429191999836,295.2429191999836,296.0451568099321,None,,,,11006,0001,2022_Feb_10_1348,localizer,2021.1.3,59.38362173968127,
null_block,null_block,null_block.bmp,,,,,0,167,167,167,,,,,,,,,,,,,,,,,,,,,,,,,,,,,,,,,,,,,,,,,,t,1.7687538999598473,296.045098099974,None,296.045098099974,None,2022-02-10-13:53:28.462768,297.84499261000894,None,297.84499261000894,None,None,297.84499261000894,None,297.84725380002055,None,,,,11006,0001,2022_Feb_10_1348,localizer,2021.1.3,59.38362173968127,
block_start,scrambled,scrambled034.bmp,,,,,0,168,168,168,,,,,,,,,,,,,,,,,,,,,,,,,,,,,,,,,,,,,,,,,,t,1.9660466000204906,309.84784009994473,None,309.84784009994473,None,2022-02-10-13:53:42.466208,311.85249299998395,312.1615955999587,311.85249299998395,None,None,311.85249299998395,None,312.662941209937,None,,,,11006,0001,2022_Feb_10_1348,localizer,2021.1.3,59.38362173968127,
block,scrambled,scrambled018.bmp,,,,,0,169,169,169,,,,,,,,,,,,,,,,,,,,,,,,,,,,,,,,,,,,,,,,,,None,,312.662941209937,None,312.662941209937,None,2022-02-10-13:53:43.283632,312.67767779994756,312.97809510002844,312.67767779994756,None,None,312.67767779994756,None,313.47847991002493,None,,,,11006,0001,2022_Feb_10_1348,localizer,2021.1.3,59.38362173968127,
block,scrambled,scrambled068.bmp,,,,,0,170,170,170,,,,,,,,,,,,,,,,,,,,,,,,,,,,,,,,,,,,,,,,,,None,,313.47847991002493,None,313.47847991002493,None,2022-02-10-13:53:44.097274,313.4792676999932,313.7785795000382,313.4792676999932,None,None,313.4792676999932,None,314.27839280999035,None,,,,11006,0001,2022_Feb_10_1348,localizer,2021.1.3,59.38362173968127,
block,scrambled,scrambled012.bmp,,,,,0,171,171,171,,,,,,,,,,,,,,,,,,,,,,,,,,,,,,,,,,,,,,,,,,None,,314.27839280999035,None,314.27839280999035,None,2022-02-10-13:53:44.899185,314.279823299963,314.5950845000334,314.279823299963,314.279823299963,None,314.279823299963,314.279823299963,315.09433671002046,None,,,,11006,0001,2022_Feb_10_1348,localizer,2021.1.3,59.38362173968127,
block,scrambled,scrambled023.bmp,,,,,0,172,172,172,,,,,,,,,,,,,,,,,,,,,,,,,,,,,,,,,,,,,,,,,,None,,315.09433671002046,None,315.09433671002046,None,2022-02-10-13:53:45.712036,315.1017936000135,315.4119323999621,315.1017936000135,None,None,315.1017936000135,None,315.91219031004005,None,,,,11006,0001,2022_Feb_10_1348,localizer,2021.1.3,59.38362173968127,
block,scrambled,scrambled086.bmp,,,,,0,173,173,173,,,,,,,,,,,,,,,,,,,,,,,,,,,,,,,,,,,,,,,,,,None,,315.91219031004005,None,315.91219031004005,None,2022-02-10-13:53:46.532124,315.9210044000065,316.22889499994926,315.9210044000065,None,None,315.9210044000065,None,316.72811710993994,None,,,,11006,0001,2022_Feb_10_1348,localizer,2021.1.3,59.38362173968127,
block,scrambled,scrambled008.bmp,,,,,0,174,174,174,,,,,,,,,,,,,,,,,,,,,,,,,,,,,,,,,,,,,,,,,,None,,316.72811710993994,None,316.72811710993994,None,2022-02-10-13:53:47.346920,316.73656730004586,317.0452175999526,316.73656730004586,None,None,316.73656730004586,None,317.5452438100125,None,,,,11006,0001,2022_Feb_10_1348,localizer,2021.1.3,59.38362173968127,
block,scrambled,scrambled031.bmp,,,,,0,175,175,175,,,,,,,,,,,,,,,,,,,,,,,,,,,,,,,,,,,,,,,,,,None,,317.5452438100125,None,317.5452438100125,None,2022-02-10-13:53:48.164039,317.55554450000636,317.86099499999546,317.55554450000636,None,None,317.55554450000636,None,318.3619827100425,None,,,,11006,0001,2022_Feb_10_1348,localizer,2021.1.3,59.38362173968127,
block,scrambled,scrambled063.bmp,,,,,0,176,176,176,,,,,,,,,,,,,,,,,,,,,,,,,,,,,,,,,,,,,,,,,,None,,318.3619827100425,None,318.3619827100425,None,2022-02-10-13:53:48.980761,318.3624979000306,318.66180829994846,318.3624979000306,None,None,318.3624979000306,None,319.1778314099298,None,,,,11006,0001,2022_Feb_10_1348,localizer,2021.1.3,59.38362173968127,
block,scrambled,scrambled032.bmp,,,,,0,177,177,177,,,,,,,,,,,,,,,,,,,,,,,,,,,,,,,,,,,,,,,,,,None,,319.1778314099298,None,319.1778314099298,None,2022-02-10-13:53:49.796646,319.18568620004226,319.49542199994903,319.18568620004226,None,None,319.18568620004226,None,319.9946744099376,None,,,,11006,0001,2022_Feb_10_1348,localizer,2021.1.3,59.38362173968127,
block,scrambled,scrambled027.bmp,,,,,0,178,178,178,,,,,,,,,,,,,,,,,,,,,,,,,,,,,,,,,,,,,,,,,,None,,319.9946744099376,None,319.9946744099376,None,2022-02-10-13:53:50.613503,320.00338619994,320.3117528000148,320.00338619994,None,None,320.00338619994,None,320.81194081002616,None,,,,11006,0001,2022_Feb_10_1348,localizer,2021.1.3,59.38362173968127,
block,scrambled,scrambled041.bmp,,,,,0,179,179,179,,,,,,,,,,,,,,,,,,,,,,,,,,,,,,,,,,,,,,,,,,None,,320.81194081002616,None,320.81194081002616,None,2022-02-10-13:53:51.430736,320.8218589000171,321.1286526999902,320.8218589000171,None,None,320.8218589000171,None,321.62864020998825,None,,,,11006,0001,2022_Feb_10_1348,localizer,2021.1.3,59.38362173968127,
block,scrambled,scrambled007.bmp,,,,,0,180,180,180,,,,,,,,,,,,,,,,,,,,,,,,,,,,,,,,,,,,,,,,,,None,,321.62864020998825,None,321.62864020998825,None,2022-02-10-13:53:52.247641,321.62926419998985,321.94441839994397,321.62926419998985,None,None,321.62926419998985,None,322.4285649100435,None,,,,11006,0001,2022_Feb_10_1348,localizer,2021.1.3,59.38362173968127,
block,scrambled,scrambled042.bmp,,,,,0,181,181,181,,,,,,,,,,,,,,,,,,,,,,,,,,,,,,,,,,,,,,,,,,None,,322.4285649100435,None,322.4285649100435,None,2022-02-10-13:53:53.049568,322.4407943999395,322.7450533999363,322.4407943999395,322.4407943999395,None,322.4407943999395,322.4407943999395,323.2482309100102,None,,,,11006,0001,2022_Feb_10_1348,localizer,2021.1.3,59.38362173968127,
block_end,scrambled,scrambled051.bmp,,,,,0,182,182,182,,,,,,,,,,,,,,,,,,,,,,,,,,,,,,,,,,,,,,,,,,None,,323.2482309100102,None,323.2482309100102,None,2022-02-10-13:53:53.870913,323.260886700009,323.5617139999522,323.260886700009,None,None,323.260886700009,None,324.0615937099443,None,,,,11006,0001,2022_Feb_10_1348,localizer,2021.1.3,59.38362173968127,
null_block,null_block,null_block.bmp,,,,,0,183,183,183,,,,,,,,,,,,,,,,,,,,,,,,,,,,,,,,,,,,,,,,,,t,1.7524433000944555,324.06137719994877,None,324.06137719994877,None,2022-02-10-13:53:56.448615,325.8289160099463,None,325.8289160099463,None,None,325.8289160099463,None,325.8345499000279,None,,,,11006,0001,2022_Feb_10_1348,localizer,2021.1.3,59.38362173968127,
block_start,objects,objects024.bmp,,,,,0,184,184,184,,,,,,,,,,,,,,,,,,,,,,,,,,,,,,,,,,,,,,,,,,t,1.9687634999863803,337.84509600000456,None,337.84509600000456,None,2022-02-10-13:54:10.467710,339.8552886999678,340.1614149999805,339.8552886999678,None,None,339.8552886999678,None,340.66150750996314,None,,,,11006,0001,2022_Feb_10_1348,localizer,2021.1.3,59.38362173968127,
block,objects,objects015.bmp,,,,,0,185,185,185,,,,,,,,,,,,,,,,,,,,,,,,,,,,,,,,,,,,,,,,,,None,,340.66150750996314,None,340.66150750996314,None,2022-02-10-13:54:11.280313,340.66985029994976,340.97852170001715,340.66985029994976,None,None,340.66985029994976,None,341.47993161001943,None,,,,11006,0001,2022_Feb_10_1348,localizer,2021.1.3,59.38362173968127,
block,objects,objects011.bmp,,,,,0,186,186,186,,,,,,,,,,,,,,,,,,,,,,,,,,,,,,,,,,,,,,,,,,None,,341.47993161001943,None,341.47993161001943,None,2022-02-10-13:54:12.100691,341.4829506999813,341.79506429994944,341.4829506999813,None,None,341.4829506999813,None,342.295260610024,None,,,,11006,0001,2022_Feb_10_1348,localizer,2021.1.3,59.38362173968127,
block,objects,objects046.bmp,,,,,0,187,187,187,,,,,,,,,,,,,,,,,,,,,,,,,,,,,,,,,,,,,,,,,,None,,342.295260610024,None,342.295260610024,None,2022-02-10-13:54:12.914058,342.2959470000351,342.59536149993073,342.2959470000351,None,None,342.2959470000351,None,343.1013147099526,None,,,,11006,0001,2022_Feb_10_1348,localizer,2021.1.3,59.38362173968127,
block,objects,objects056.bmp,,,,,0,188,188,188,,,,,,,,,,,,,,,,,,,,,,,,,,,,,,,,,,,,,,,,,,None,,343.1013147099526,None,343.1013147099526,None,2022-02-10-13:54:13.724996,343.1069847999606,343.4121065000072,343.1069847999606,None,None,343.1069847999606,None,343.91217171001483,None,,,,11006,0001,2022_Feb_10_1348,localizer,2021.1.3,59.38362173968127,
block,objects,objects029.bmp,,,,,0,189,189,189,,,,,,,,,,,,,,,,,,,,,,,,,,,,,,,,,,,,,,,,,,None,,343.91217171001483,None,343.91217171001483,None,2022-02-10-13:54:14.531167,343.92403699993156,344.2288714000024,343.92403699993156,None,None,343.92403699993156,None,344.72889351003107,None,,,,11006,0001,2022_Feb_10_1348,localizer,2021.1.3,59.38362173968127,
block,objects,objects080.bmp,,,,,0,190,190,190,,,,,,,,,,,,,,,,,,,,,,,,,,,,,,,,,,,,,,,,,,None,,344.72889351003107,None,344.72889351003107,None,2022-02-10-13:54:15.348574,344.7396861000452,345.04528530000243,344.7396861000452,None,None,344.7396861000452,None,345.5453271099483,None,,,,11006,0001,2022_Feb_10_1348,localizer,2021.1.3,59.38362173968127,
block,objects,objects043.bmp,,,,,0,191,191,191,,,,,,,,,,,,,,,,,,,,,,,,,,,,,,,,,,,,,,,,,,None,,345.5453271099483,None,345.5453271099483,None,2022-02-10-13:54:16.164126,345.5557031999342,345.8641148000024,345.5557031999342,None,None,345.5557031999342,None,346.36236580993284,None,,,,11006,0001,2022_Feb_10_1348,localizer,2021.1.3,59.38362173968127,
block,objects,objects081.bmp,,,,,0,192,192,192,,,,,,,,,,,,,,,,,,,,,,,,,,,,,,,,,,,,,,,,,,None,,346.36236580993284,None,346.36236580993284,None,2022-02-10-13:54:16.982329,346.3634183999384,346.67897999996785,346.3634183999384,None,None,346.3634183999384,None,347.1782721100259,None,,,,11006,0001,2022_Feb_10_1348,localizer,2021.1.3,59.38362173968127,
block,objects,objects049.bmp,,,,,0,193,193,193,,,,,,,,,,,,,,,,,,,,,,,,,,,,,,,,,,,,,,,,,,None,,347.1782721100259,None,347.1782721100259,None,2022-02-10-13:54:17.797052,347.1862562999595,347.4951224999968,347.1862562999595,None,None,347.1862562999595,None,347.9957130099298,None,,,,11006,0001,2022_Feb_10_1348,localizer,2021.1.3,59.38362173968127,
block,objects,objects088.bmp,,,,,0,194,194,194,,,,,,,,,,,,,,,,,,,,,,,,,,,,,,,,,,,,,,,,,,None,,347.9957130099298,None,347.9957130099298,None,2022-02-10-13:54:18.615714,348.0072019000072,348.3118699999759,348.0072019000072,None,None,348.0072019000072,None,348.8125916099758,None,,,,11006,0001,2022_Feb_10_1348,localizer,2021.1.3,59.38362173968127,
block,objects,objects077.bmp,,,,,0,195,195,195,,,,,,,,,,,,,,,,,,,,,,,,,,,,,,,,,,,,,,,,,,None,,348.8125916099758,None,348.8125916099758,None,2022-02-10-13:54:19.433373,348.8227138000075,349.13406179996673,348.8227138000075,None,None,348.8227138000075,None,349.6286867099931,None,,,,11006,0001,2022_Feb_10_1348,localizer,2021.1.3,59.38362173968127,
block,objects,objects033.bmp,,,,,0,196,196,196,,,,,,,,,,,,,,,,,,,,,,,,,,,,,,,,,,,,,,,,,,None,,349.6286867099931,None,349.6286867099931,None,2022-02-10-13:54:20.246699,349.6357692000456,349.9450156999519,349.6357692000456,None,None,349.6357692000456,None,350.4455925100134,None,,,,11006,0001,2022_Feb_10_1348,localizer,2021.1.3,59.38362173968127,
block,objects,objects082.bmp,,,,,0,197,197,197,,,,,,,,,,,,,,,,,,,,,,,,,,,,,,,,,,,,,,,,,,None,,350.4455925100134,None,350.4455925100134,None,2022-02-10-13:54:21.065409,350.44642229995225,350.7620328000048,350.44642229995225,None,None,350.44642229995225,None,351.2460966099403,None,,,,11006,0001,2022_Feb_10_1348,localizer,2021.1.3,59.38362173968127,
block_end,objects,objects018.bmp,,,,,0,198,198,198,,,,,,,,,,,,,,,,,,,,,,,,,,,,,,,,,,,,,,,,,,None,,351.2460966099403,None,351.2460966099403,None,2022-02-10-13:54:21.868062,351.2602890999988,351.5624253000133,351.2602890999988,351.2602890999988,None,351.2602890999988,351.2602890999988,352.0618925100076,None,,,,11006,0001,2022_Feb_10_1348,localizer,2021.1.3,59.38362173968127,
block_start,scenes,scenes032.bmp,,,,,0,199,199,199,,,,,,,,,,,,,,,,,,,,,,,,,,,,,,,,,,,,,,,,,,t,1.7519302999135107,352.0619660000084,None,352.0619660000084,None,2022-02-10-13:54:24.463259,353.84641709993593,354.16192690003663,353.84641709993593,None,None,353.84641709993593,None,354.6455070100143,None,,,,11006,0001,2022_Feb_10_1348,localizer,2021.1.3,59.38362173968127,
block,scenes,scenes050.bmp,,,,,0,200,200,200,,,,,,,,,,,,,,,,,,,,,,,,,,,,,,,,,,,,,,,,,,None,,354.6455070100143,None,354.6455070100143,None,2022-02-10-13:54:25.267275,354.64846369996667,354.96224879997317,354.64846369996667,354.64846369996667,None,354.64846369996667,354.64846369996667,355.4622565100086,None,,,,11006,0001,2022_Feb_10_1348,localizer,2021.1.3,59.38362173968127,
block,scenes,scenes005.bmp,,,,,0,201,201,201,,,,,,,,,,,,,,,,,,,,,,,,,,,,,,,,,,,,,,,,,,None,,355.4622565100086,None,355.4622565100086,None,2022-02-10-13:54:26.082027,355.46297150000464,355.778819500003,355.46297150000464,None,None,355.46297150000464,None,356.26206150996734,None,,,,11006,0001,2022_Feb_10_1348,localizer,2021.1.3,59.38362173968127,
block,scenes,scenes033.bmp,,,,,0,202,202,202,,,,,,,,,,,,,,,,,,,,,,,,,,,,,,,,,,,,,,,,,,None,,356.26206150996734,None,356.26206150996734,None,2022-02-10-13:54:26.882850,356.2742012999952,356.57888909999747,356.2742012999952,356.2742012999952,None,356.2742012999952,356.2742012999952,357.0788877099636,None,,,,11006,0001,2022_Feb_10_1348,localizer,2021.1.3,59.38362173968127,
block,scenes,scenes042.bmp,,,,,0,203,203,203,,,,,,,,,,,,,,,,,,,,,,,,,,,,,,,,,,,,,,,,,,None,,357.0788877099636,None,357.0788877099636,None,2022-02-10-13:54:27.697684,357.0797275999794,357.3786500999704,357.0797275999794,None,None,357.0797275999794,None,357.88535731002924,None,,,,11006,0001,2022_Feb_10_1348,localizer,2021.1.3,59.38362173968127,
block,scenes,scenes027.bmp,,,,,0,204,204,204,,,,,,,,,,,,,,,,,,,,,,,,,,,,,,,,,,,,,,,,,,None,,357.88535731002924,None,357.88535731002924,None,2022-02-10-13:54:28.509075,357.8905636999989,358.19552890001796,357.8905636999989,None,None,357.8905636999989,None,358.69489460993793,None,,,,11006,0001,2022_Feb_10_1348,localizer,2021.1.3,59.38362173968127,
block,scenes,scenes007.bmp,,,,,0,205,205,205,,,,,,,,,,,,,,,,,,,,,,,,,,,,,,,,,,,,,,,,,,None,,358.69489460993793,None,358.69489460993793,None,2022-02-10-13:54:29.313701,358.7088683999609,359.0117118000053,358.7088683999609,None,None,358.7088683999609,None,359.5120230100234,None,,,,11006,0001,2022_Feb_10_1348,localizer,2021.1.3,59.38362173968127,
block,scenes,scenes002.bmp,,,,,0,206,206,206,,,,,,,,,,,,,,,,,,,,,,,,,,,,,,,,,,,,,,,,,,None,,359.5120230100234,None,359.5120230100234,None,2022-02-10-13:54:30.130821,359.51747990003787,359.82839829998557,359.51747990003787,None,None,359.51747990003787,None,360.3291793099721,None,,,,11006,0001,2022_Feb_10_1348,localizer,2021.1.3,59.38362173968127,
block,scenes,scenes044.bmp,,,,,0,207,207,207,,,,,,,,,,,,,,,,,,,,,,,,,,,,,,,,,,,,,,,,,,None,,360.3291793099721,None,360.3291793099721,None,2022-02-10-13:54:30.948168,360.3299836999504,360.6290503999917,360.3299836999504,None,None,360.3299836999504,None,361.12979590994075,None,,,,11006,0001,2022_Feb_10_1348,localizer,2021.1.3,59.38362173968127,
block,scenes,scenes091.bmp,,,,,0,208,208,208,,,,,,,,,,,,,,,,,,,,,,,,,,,,,,,,,,,,,,,,,,None,,361.12979590994075,None,361.12979590994075,None,2022-02-10-13:54:31.751719,361.1461459000129,361.445525099989,361.1461459000129,361.1461459000129,None,361.1461459000129,361.1461459000129,361.94739781002284,None,,,,11006,0001,2022_Feb_10_1348,localizer,2021.1.3,59.38362173968127,
block,scenes,scenes049.bmp,,,,,0,209,209,209,,,,,,,,,,,,,,,,,,,,,,,,,,,,,,,,,,,,,,,,,,None,,361.94739781002284,None,361.94739781002284,None,2022-02-10-13:54:32.570332,361.95153990003746,362.262000799994,361.95153990003746,None,None,361.95153990003746,None,362.76184720996537,None,,,,11006,0001,2022_Feb_10_1348,localizer,2021.1.3,59.38362173968127,
block,scenes,scenes049.bmp,,,,,0,210,210,210,,,,,,,,,,,,,,,,,,,,,,,,,,,,,,,,,,,,,,,,,,None,,362.76184720996537,None,362.76184720996537,None,2022-02-10-13:54:33.380852,362.7627776999725,363.0620192999486,362.7627776999725,None,y,362.7627776999725,None,363.56204400999707,None,0.6238377999980003,,,11006,0001,2022_Feb_10_1348,localizer,2021.1.3,59.38362173968127,
block,scenes,scenes064.bmp,,,,,0,211,211,211,,,,,,,,,,,,,,,,,,,,,,,,,,,,,,,,,,,,,,,,,,None,,363.56204400999707,None,363.56204400999707,None,2022-02-10-13:54:34.182837,363.56335469998885,363.878171899938,363.56335469998885,363.56335469998885,None,363.56335469998885,363.56335469998885,364.3787761099753,None,,,,11006,0001,2022_Feb_10_1348,localizer,2021.1.3,59.38362173968127,
block,scenes,scenes054.bmp,,,,,0,212,212,212,,,,,,,,,,,,,,,,,,,,,,,,,,,,,,,,,,,,,,,,,,None,,364.3787761099753,None,364.3787761099753,None,2022-02-10-13:54:34.997580,364.3795388999861,364.67874100001063,364.3795388999861,None,None,364.3795388999861,None,365.17877771003407,None,,,,11006,0001,2022_Feb_10_1348,localizer,2021.1.3,59.38362173968127,
block_end,scenes,scenes073.bmp,,,,,0,213,213,213,,,,,,,,,,,,,,,,,,,,,,,,,,,,,,,,,,,,,,,,,,None,,365.17877771003407,None,365.17877771003407,None,2022-02-10-13:54:35.799572,365.1917046000017,365.49538129998837,365.1917046000017,365.1917046000017,None,365.1917046000017,365.1917046000017,366.0018028099672,None,,,,11006,0001,2022_Feb_10_1348,localizer,2021.1.3,59.38362173968127,
block_start,scrambled,scrambled066.bmp,,,,,0,214,214,214,,,,,,,,,,,,,,,,,,,,,,,,,,,,,,,,,,,,,,,,,,t,1.8140923000173643,365.99982240004465,None,365.99982240004465,None,2022-02-10-13:54:38.447475,367.8301309000235,368.1454030999448,367.8301309000235,None,None,367.8301309000235,None,368.62949811000146,None,,,,11006,0001,2022_Feb_10_1348,localizer,2021.1.3,59.38362173968127,
block,scrambled,scrambled053.bmp,,,,,0,215,215,215,,,,,,,,,,,,,,,,,,,,,,,,,,,,,,,,,,,,,,,,,,None,,368.62949811000146,None,368.62949811000146,None,2022-02-10-13:54:39.252433,368.6423425000394,368.9450063999975,368.6423425000394,368.6423425000394,None,368.6423425000394,368.6423425000394,369.4455844099517,None,,,,11006,0001,2022_Feb_10_1348,localizer,2021.1.3,59.38362173968127,
block,scrambled,scrambled055.bmp,,,,,0,216,216,216,,,,,,,,,,,,,,,,,,,,,,,,,,,,,,,,,,,,,,,,,,None,,369.4455844099517,None,369.4455844099517,None,2022-02-10-13:54:40.064591,369.4554462999804,369.76311860000715,369.4554462999804,None,None,369.4554462999804,None,370.2626826100401,None,,,,11006,0001,2022_Feb_10_1348,localizer,2021.1.3,59.38362173968127,
block,scrambled,scrambled038.bmp,,,,,0,217,217,217,,,,,,,,,,,,,,,,,,,,,,,,,,,,,,,,,,,,,,,,,,None,,370.2626826100401,None,370.2626826100401,None,2022-02-10-13:54:40.882657,370.2632421000162,370.5625255999621,370.2632421000162,None,None,370.2632421000162,None,371.0784321099869,None,,,,11006,0001,2022_Feb_10_1348,localizer,2021.1.3,59.38362173968127,
block,scrambled,scrambled014.bmp,,,,,0,218,218,218,,,,,,,,,,,,,,,,,,,,,,,,,,,,,,,,,,,,,,,,,,None,,371.0784321099869,None,371.0784321099869,None,2022-02-10-13:54:41.696477,371.0808871999616,371.39531119994354,371.0808871999616,None,None,371.0808871999616,None,371.89549620993205,None,,,,11006,0001,2022_Feb_10_1348,localizer,2021.1.3,59.38362173968127,
block,scrambled,scrambled071.bmp,,,,,0,219,219,219,,,,,,,,,,,,,,,,,,,,,,,,,,,,,,,,,,,,,,,,,,None,,371.89549620993205,None,371.89549620993205,None,2022-02-10-13:54:42.515160,371.9058352999855,372.21209279994946,371.9058352999855,None,None,371.9058352999855,None,372.712325909955,None,,,,11006,0001,2022_Feb_10_1348,localizer,2021.1.3,59.38362173968127,
block,scrambled,scrambled013.bmp,,,,,0,220,220,220,,,,,,,,,,,,,,,,,,,,,,,,,,,,,,,,,,,,,,,,,,None,,372.712325909955,None,372.712325909955,None,2022-02-10-13:54:43.331323,372.7219326000195,373.02954130002763,372.7219326000195,None,None,372.7219326000195,None,373.5287182100234,None,,,,11006,0001,2022_Feb_10_1348,localizer,2021.1.3,59.38362173968127,
block,scrambled,scrambled061.bmp,,,,,0,221,221,221,,,,,,,,,,,,,,,,,,,,,,,,,,,,,,,,,,,,,,,,,,None,,373.5287182100234,None,373.5287182100234,None,2022-02-10-13:54:44.147713,373.53841679997277,373.84542299993336,373.53841679997277,None,None,373.53841679997277,None,374.3454814100056,None,,,,11006,0001,2022_Feb_10_1348,localizer,2021.1.3,59.38362173968127,
block,scrambled,scrambled036.bmp,,,,,0,222,222,222,,,,,,,,,,,,,,,,,,,,,,,,,,,,,,,,,,,,,,,,,,None,,374.3454814100056,None,374.3454814100056,None,2022-02-10-13:54:44.964278,374.34653039998375,374.6459117999766,374.34653039998375,None,None,374.34653039998375,None,375.16095540995013,None,,,,11006,0001,2022_Feb_10_1348,localizer,2021.1.3,59.38362173968127,
block,scrambled,scrambled056.bmp,,,,,0,223,223,223,,,,,,,,,,,,,,,,,,,,,,,,,,,,,,,,,,,,,,,,,,None,,375.16095540995013,None,375.16095540995013,None,2022-02-10-13:54:45.779316,375.1687857999932,375.4786790999351,375.1687857999932,None,None,375.1687857999932,None,375.97899701000426,None,,,,11006,0001,2022_Feb_10_1348,localizer,2021.1.3,59.38362173968127,
block,scrambled,scrambled022.bmp,,,,,0,224,224,224,,,,,,,,,,,,,,,,,,,,,,,,,,,,,,,,,,,,,,,,,,None,,375.97899701000426,None,375.97899701000426,None,2022-02-10-13:54:46.597791,375.99001119995955,376.29562730004545,375.99001119995955,None,None,375.99001119995955,None,376.79610650994584,None,,,,11006,0001,2022_Feb_10_1348,localizer,2021.1.3,59.38362173968127,
block,scrambled,scrambled041.bmp,,,,,0,225,225,225,,,,,,,,,,,,,,,,,,,,,,,,,,,,,,,,,,,,,,,,,,None,,376.79610650994584,None,376.79610650994584,None,2022-02-10-13:54:47.415995,376.7966105999658,377.11195089994,376.7966105999658,None,None,376.7966105999658,None,377.59634051002797,None,,,,11006,0001,2022_Feb_10_1348,localizer,2021.1.3,59.38362173968127,
block,scrambled,scrambled054.bmp,,,,,0,226,226,226,,,,,,,,,,,,,,,,,,,,,,,,,,,,,,,,,,,,,,,,,,None,,377.59634051002797,None,377.59634051002797,None,2022-02-10-13:54:48.218271,377.59958149993327,377.9118757999968,377.59958149993327,377.59958149993327,None,377.59958149993327,377.59958149993327,378.4125818099943,None,,,,11006,0001,2022_Feb_10_1348,localizer,2021.1.3,59.38362173968127,
block,scrambled,scrambled015.bmp,,,,,0,227,227,227,,,,,,,,,,,,,,,,,,,,,,,,,,,,,,,,,,,,,,,,,,None,,378.4125818099943,None,378.4125818099943,None,2022-02-10-13:54:49.031577,378.4129444999853,378.71231219999027,378.4129444999853,None,None,378.4129444999853,None,379.21254330998056,None,,,,11006,0001,2022_Feb_10_1348,localizer,2021.1.3,59.38362173968127,
block_end,scrambled,scrambled043.bmp,,,,,0,228,228,228,,,,,,,,,,,,,,,,,,,,,,,,,,,,,,,,,,,,,,,,,,None,,379.21254330998056,None,379.21254330998056,None,2022-02-10-13:54:49.842327,379.2412837999873,379.5454427000368,379.2412837999873,379.2412837999873,None,379.2412837999873,379.2412837999873,380.0290560100344,None,,,,11006,0001,2022_Feb_10_1348,localizer,2021.1.3,59.38362173968127,
block_start,faces,faces081.bmp,,,,,0,229,229,229,,,,,,,,,,,,,,,,,,,,,,,,,,,,,,,,,,,,,,,,,,t,1.7850312000373378,380.0288405000465,None,380.0288405000465,None,2022-02-10-13:54:52.449152,381.8423737999983,382.1450163000263,381.8423737999983,None,None,381.8423737999983,None,382.6459250099375,None,,,,11006,0001,2022_Feb_10_1348,localizer,2021.1.3,59.38362173968127,
block,faces,faces027.bmp,,,,,0,230,230,230,,,,,,,,,,,,,,,,,,,,,,,,,,,,,,,,,,,,,,,,,,None,,382.6459250099375,None,382.6459250099375,None,2022-02-10-13:54:53.265908,382.6542691999348,382.96202919993084,382.6542691999348,None,None,382.6542691999348,None,383.4625145099941,None,,,,11006,0001,2022_Feb_10_1348,localizer,2021.1.3,59.38362173968127,
block,faces,faces041.bmp,,,,,0,231,231,231,,,,,,,,,,,,,,,,,,,,,,,,,,,,,,,,,,,,,,,,,,None,,383.4625145099941,None,383.4625145099941,None,2022-02-10-13:54:54.081308,383.463218400022,383.7624615000095,383.463218400022,None,None,383.463218400022,None,384.2641615100089,None,,,,11006,0001,2022_Feb_10_1348,localizer,2021.1.3,59.38362173968127,
block,faces,faces039.bmp,,,,,0,232,232,232,,,,,,,,,,,,,,,,,,,,,,,,,,,,,,,,,,,,,,,,,,None,,384.2641615100089,None,384.2641615100089,None,2022-02-10-13:54:54.888890,384.27148939995095,384.5793698999332,384.27148939995095,384.27148939995095,None,384.27148939995095,384.27148939995095,385.07947521001336,None,,,,11006,0001,2022_Feb_10_1348,localizer,2021.1.3,59.38362173968127,
block,faces,faces082.bmp,,,,,0,233,233,233,,,,,,,,,,,,,,,,,,,,,,,,,,,,,,,,,,,,,,,,,,None,,385.07947521001336,None,385.07947521001336,None,2022-02-10-13:54:55.699459,385.08030000003055,385.3793111999985,385.08030000003055,None,None,385.08030000003055,None,385.89571900999874,None,,,,11006,0001,2022_Feb_10_1348,localizer,2021.1.3,59.38362173968127,
block,faces,faces084.bmp,,,,,0,234,234,234,,,,,,,,,,,,,,,,,,,,,,,,,,,,,,,,,,,,,,,,,,None,,385.89571900999874,None,385.89571900999874,None,2022-02-10-13:54:56.514767,385.8965515999589,386.2119655000279,385.8965515999589,None,None,385.8965515999589,None,386.6955778100179,None,,,,11006,0001,2022_Feb_10_1348,localizer,2021.1.3,59.38362173968127,
block,faces,faces026.bmp,,,,,0,235,235,235,,,,,,,,,,,,,,,,,,,,,,,,,,,,,,,,,,,,,,,,,,None,,386.6955778100179,None,386.6955778100179,None,2022-02-10-13:54:57.316370,386.7344523000065,387.04593389993533,386.7344523000065,386.7344523000065,None,386.7344523000065,386.7344523000065,387.5126484100125,None,,,,11006,0001,2022_Feb_10_1348,localizer,2021.1.3,59.38362173968127,
block,faces,faces064.bmp,,,,,0,236,236,236,,,,,,,,,,,,,,,,,,,,,,,,,,,,,,,,,,,,,,,,,,None,,387.5126484100125,None,387.5126484100125,None,2022-02-10-13:54:58.132615,387.52347539993934,387.82871120003983,387.52347539993934,None,None,387.52347539993934,None,388.3293152099592,None,,,,11006,0001,2022_Feb_10_1348,localizer,2021.1.3,59.38362173968127,
block,faces,faces008.bmp,,,,,0,237,237,237,,,,,,,,,,,,,,,,,,,,,,,,,,,,,,,,,,,,,,,,,,None,,388.3293152099592,None,388.3293152099592,None,2022-02-10-13:54:58.949126,388.3421222999459,388.64556840003934,388.3421222999459,None,None,388.3421222999459,None,389.145614910021,None,,,,11006,0001,2022_Feb_10_1348,localizer,2021.1.3,59.38362173968127,
block,faces,faces061.bmp,,,,,0,238,238,238,,,,,,,,,,,,,,,,,,,,,,,,,,,,,,,,,,,,,,,,,,None,,389.145614910021,None,389.145614910021,None,2022-02-10-13:54:59.764629,389.14639340003487,389.4618759000441,389.14639340003487,None,None,389.14639340003487,None,389.9460031099967,None,,,,11006,0001,2022_Feb_10_1348,localizer,2021.1.3,59.38362173968127,
block,faces,faces005.bmp,,,,,0,239,239,239,,,,,,,,,,,,,,,,,,,,,,,,,,,,,,,,,,,,,,,,,,None,,389.9460031099967,None,389.9460031099967,None,2022-02-10-13:55:00.567794,389.94902019994333,390.2627508000005,389.94902019994333,389.94902019994333,None,389.94902019994333,389.94902019994333,390.76230880998776,None,,,,11006,0001,2022_Feb_10_1348,localizer,2021.1.3,59.38362173968127,
block,faces,faces016.bmp,,,,,0,240,240,240,,,,,,,,,,,,,,,,,,,,,,,,,,,,,,,,,,,,,,,,,,None,,390.76230880998776,None,390.76230880998776,None,2022-02-10-13:55:01.381314,390.76306599995587,391.0623231999343,390.76306599995587,None,None,390.76306599995587,None,391.5626504099579,None,,,,11006,0001,2022_Feb_10_1348,localizer,2021.1.3,59.38362173968127,
block,faces,faces002.bmp,,,,,0,241,241,241,,,,,,,,,,,,,,,,,,,,,,,,,,,,,,,,,,,,,,,,,,None,,391.5626504099579,None,391.5626504099579,None,2022-02-10-13:55:02.184433,391.56553240003996,391.8793558999896,391.56553240003996,391.56553240003996,None,391.56553240003996,391.56553240003996,392.379746610031,None,,,,11006,0001,2022_Feb_10_1348,localizer,2021.1.3,59.38362173968127,
block,faces,faces067.bmp,,,,,0,242,242,242,,,,,,,,,,,,,,,,,,,,,,,,,,,,,,,,,,,,,,,,,,None,,392.379746610031,None,392.379746610031,None,2022-02-10-13:55:03.000449,392.3964518000139,392.7123012000229,392.3964518000139,None,None,392.3964518000139,None,393.19524770994906,None,,,,11006,0001,2022_Feb_10_1348,localizer,2021.1.3,59.38362173968127,
block_end,faces,faces017.bmp,,,,,0,243,243,243,,,,,,,,,,,,,,,,,,,,,,,,,,,,,,,,,,,,,,,,,,None,,393.19524770994906,None,393.19524770994906,None,2022-02-10-13:55:03.813341,393.20373700000346,393.51223859994207,393.20373700000346,None,None,393.20373700000346,None,394.0123498099507,None,,,,11006,0001,2022_Feb_10_1348,localizer,2021.1.3,59.38362173968127,
,,,,,,,,,,,,,,,,,,,,,,,,,,,,,,,,,,,,,,,,,,,,,,,,,,,,,,,,,,,,,,,,,,,,,394.0122084999457,None,,,,,,,
