block_type,condition,img_name,Button.thisRepN,Button.thisTrialN,Button.thisN,Button.thisIndex,trials.thisRepN,trials.thisTrialN,trials.thisN,trials.thisIndex,Ready_experimenter_text.started,Ready_experimenter_text.stopped,Ready_experimenter_resp.keys,Ready_experimenter_resp.rt,Ready_experimenter_resp.started,Ready_experimenter_resp.stopped,Alignment_background.started,Alignment_background.stopped,Alignment_image.started,Alignment_image.stopped,Alignment_resp.keys,Alignment_resp.rt,Alignment_resp.started,Alignment_resp.stopped,Button_text.started,Button_text.stopped,Index_text.started,Index_text.stopped,Index_resp.keys,Index_resp.rt,Index_resp.started,Index_resp.stopped,Middle_text.started,Middle_text.stopped,Middle_resp.keys,Middle_resp.rt,Middle_resp.started,Middle_resp.stopped,Repeat_text.started,Repeat_text.stopped,Repeat_resp.keys,Repeat_resp.corr,Repeat_resp.rt,Repeat_resp.started,Repeat_resp.stopped,instruction_text.started,instruction_text.stopped,key_resp.keys,key_resp.rt,key_resp.started,key_resp.stopped,scanner_t.keys,scanner_t.rt,scanner_t.started,scanner_t.stopped,fixation_wait_for_t.started,fixation_wait_for_t.stopped,real_timestamp_trial_start,image.started,image.stopped,fixation.started,fixation.stopped,repeat_response.keys,repeat_response.started,repeat_response.stopped,fixation_null.started,fixation_null.stopped,repeat_response.rt,end_text.started,end_text.stopped,participant,run,date,expName,psychopyVersion,frameRate,
,,,,,,,,,,,8.55828460000339,None,return,66.70520399999805,8.55828460000339,None,,,,,,,,,,,,,,,,,,,,,,,,,,,,,,,,,,,,,,,,,,,,,,,,,,,,,,,12018,0001,2022_May_25_1204,localizer,2021.1.3,60.6882287915746,
,,,,,,,,,,,,,,,,,75.30459450001945,None,75.30459450001945,None,return,9.521923399996012,75.30459450001945,None,,,,,,,,,,,,,,,,,,,,,,,,,,,,,,,,,,,,,,,,,,,,,,,12018,0001,2022_May_25_1204,localizer,2021.1.3,60.6882287915746,
,,,0,0,0,0,,,,,,,,,,,,,,,,,,,84.85191710002255,None,85.85534710000502,None,y,3.3130929000035394,85.85534710000502,None,89.1903579000209,None,b,1.3114913000026718,89.1903579000209,None,90.51957030000631,None,n,0,1.3384487000002991,90.51957030000631,None,,,,,,,,,,,,,,,,,,,,,,,,,,12018,0001,2022_May_25_1204,localizer,2021.1.3,60.6882287915746,
,,,,,,,,,,,,,,,,,,,,,,,,,,,,,,,,,,,,,,,,,,,,,,91.88517060002778,None,y,34.50406549999025,91.88517060002778,None,,,,,,,,,,,,,,,,,,,,12018,0001,2022_May_25_1204,localizer,2021.1.3,60.6882287915746,
null_block,null_block,null_block.bmp,,,,,0,0,0,0,,,,,,,,,,,,,,,,,,,,,,,,,,,,,,,,,,,,,,,,,,t,15.47201599998516,126.52724190001027,None,126.52724190001027,None,2022-05-25-12:06:36.130952,142.03641123999842,None,142.03641123999842,None,None,142.03641123999842,None,142.03416360000847,None,,,,12018,0001,2022_May_25_1204,localizer,2021.1.3,60.6882287915746,
block_start,faces,faces077.bmp,,,,,0,1,1,1,,,,,,,,,,,,,,,,,,,,,,,,,,,,,,,,,,,,,,,,,,t,1.9642177000059746,154.0352825000009,None,154.0352825000009,None,2022-05-25-12:06:50.136742,156.03461130001233,156.3348876000091,156.03461130001233,None,None,156.03461130001233,None,156.83675137002137,None,,,,12018,0001,2022_May_25_1204,localizer,2021.1.3,60.6882287915746,
block,faces,faces050.bmp,,,,,0,2,2,2,,,,,,,,,,,,,,,,,,,,,,,,,,,,,,,,,,,,,,,,,,None,,156.83675137002137,None,156.83675137002137,None,2022-05-25-12:06:50.951228,156.84530450002057,157.15263540000888,156.84530450002057,None,None,156.84530450002057,None,157.65271857002517,None,,,,12018,0001,2022_May_25_1204,localizer,2021.1.3,60.6882287915746,
block,faces,faces006.bmp,,,,,0,3,3,3,,,,,,,,,,,,,,,,,,,,,,,,,,,,,,,,,,,,,,,,,,None,,157.65271857002517,None,157.65271857002517,None,2022-05-25-12:06:51.766186,157.6628100000089,157.9691461000184,157.6628100000089,None,None,157.6628100000089,None,158.47079167002812,None,,,,12018,0001,2022_May_25_1204,localizer,2021.1.3,60.6882287915746,
block,faces,faces011.bmp,,,,,0,4,4,4,,,,,,,,,,,,,,,,,,,,,,,,,,,,,,,,,,,,,,,,,,None,,158.47079167002812,None,158.47079167002812,None,2022-05-25-12:06:52.585425,158.48392490000697,158.78586600002018,158.48392490000697,None,None,158.48392490000697,None,159.28742077000788,None,,,,12018,0001,2022_May_25_1204,localizer,2021.1.3,60.6882287915746,
block,faces,faces003.bmp,,,,,0,5,5,5,,,,,,,,,,,,,,,,,,,,,,,,,,,,,,,,,,,,,,,,,,None,,159.28742077000788,None,159.28742077000788,None,2022-05-25-12:06:53.402557,159.30139050001162,159.60250830001314,159.30139050001162,None,None,159.30139050001162,None,160.103462470026,None,,,,12018,0001,2022_May_25_1204,localizer,2021.1.3,60.6882287915746,
block,faces,faces064.bmp,,,,,0,6,6,6,,,,,,,,,,,,,,,,,,,,,,,,,,,,,,,,,,,,,,,,,,None,,160.103462470026,None,160.103462470026,None,2022-05-25-12:06:54.218113,160.11660650002887,160.42555520002497,160.11660650002887,None,None,160.11660650002887,None,160.91941217001295,None,,,,12018,0001,2022_May_25_1204,localizer,2021.1.3,60.6882287915746,
block,faces,faces049.bmp,,,,,0,7,7,7,,,,,,,,,,,,,,,,,,,,,,,,,,,,,,,,,,,,,,,,,,None,,160.91941217001295,None,160.91941217001295,None,2022-05-25-12:06:55.031885,160.92818700001226,161.23583560000407,160.92818700001226,None,None,160.92818700001226,None,161.74192367002252,None,,,,12018,0001,2022_May_25_1204,localizer,2021.1.3,60.6882287915746,
block,faces,faces062.bmp,,,,,0,8,8,8,,,,,,,,,,,,,,,,,,,,,,,,,,,,,,,,,,,,,,,,,,None,,161.74192367002252,None,161.74192367002252,None,2022-05-25-12:06:55.855034,161.74972050002543,162.05267370000365,161.74972050002543,None,None,161.74972050002543,None,162.55270917000598,None,,,,12018,0001,2022_May_25_1204,localizer,2021.1.3,60.6882287915746,
block,faces,faces082.bmp,,,,,0,9,9,9,,,,,,,,,,,,,,,,,,,,,,,,,,,,,,,,,,,,,,,,,,None,,162.55270917000598,None,162.55270917000598,None,2022-05-25-12:06:56.666174,162.56394740001997,162.86887500001467,162.56394740001997,None,None,162.56394740001997,None,163.3696879700001,None,,,,12018,0001,2022_May_25_1204,localizer,2021.1.3,60.6882287915746,
block,faces,faces037.bmp,,,,,0,10,10,10,,,,,,,,,,,,,,,,,,,,,,,,,,,,,,,,,,,,,,,,,,None,,163.3696879700001,None,163.3696879700001,None,2022-05-25-12:06:57.483152,163.38033270000597,163.6862079000275,163.38033270000597,None,None,163.38033270000597,None,164.18640707002487,None,,,,12018,0001,2022_May_25_1204,localizer,2021.1.3,60.6882287915746,
block,faces,faces051.bmp,,,,,0,11,11,11,,,,,,,,,,,,,,,,,,,,,,,,,,,,,,,,,,,,,,,,,,None,,164.18640707002487,None,164.18640707002487,None,2022-05-25-12:06:58.300082,164.1990607000189,164.5046356000239,164.1990607000189,None,None,164.1990607000189,None,165.00414447000367,None,,,,12018,0001,2022_May_25_1204,localizer,2021.1.3,60.6882287915746,
block,faces,faces075.bmp,,,,,0,12,12,12,,,,,,,,,,,,,,,,,,,,,,,,,,,,,,,,,,,,,,,,,,None,,165.00414447000367,None,165.00414447000367,None,2022-05-25-12:06:59.119615,165.01847520002048,165.31924150002305,165.01847520002048,None,None,165.01847520002048,None,165.81997037000838,None,,,,12018,0001,2022_May_25_1204,localizer,2021.1.3,60.6882287915746,
block,faces,faces031.bmp,,,,,0,13,13,13,,,,,,,,,,,,,,,,,,,,,,,,,,,,,,,,,,,,,,,,,,None,,165.81997037000838,None,165.81997037000838,None,2022-05-25-12:06:59.933632,165.83146610000404,166.13644610001938,165.83146610000404,None,None,165.83146610000404,None,166.63630767000723,None,,,,12018,0001,2022_May_25_1204,localizer,2021.1.3,60.6882287915746,
block,faces,faces036.bmp,,,,,0,14,14,14,,,,,,,,,,,,,,,,,,,,,,,,,,,,,,,,,,,,,,,,,,None,,166.63630767000723,None,166.63630767000723,None,2022-05-25-12:07:00.749799,166.6469659000286,166.95232360000955,166.6469659000286,None,None,166.6469659000286,None,167.45285367002361,None,,,,12018,0001,2022_May_25_1204,localizer,2021.1.3,60.6882287915746,
block_end,faces,faces024.bmp,,,,,0,15,15,15,,,,,,,,,,,,,,,,,,,,,,,,,,,,,,,,,,,,,,,,,,None,,167.45285367002361,None,167.45285367002361,None,2022-05-25-12:07:01.565330,167.46229030002723,167.76922550000018,167.46229030002723,None,None,167.46229030002723,None,168.26967997002066,None,,,,12018,0001,2022_May_25_1204,localizer,2021.1.3,60.6882287915746,
block_start,objects,objects005.bmp,,,,,0,16,16,16,,,,,,,,,,,,,,,,,,,,,,,,,,,,,,,,,,,,,,,,,,t,1.7300959999847692,168.2692619000154,None,168.2692619000154,None,2022-05-25-12:07:04.135423,170.03238240000792,170.33581130002858,170.03238240000792,None,None,170.03238240000792,None,170.8363714700099,None,,,,12018,0001,2022_May_25_1204,localizer,2021.1.3,60.6882287915746,
block,objects,objects012.bmp,,,,,0,17,17,17,,,,,,,,,,,,,,,,,,,,,,,,,,,,,,,,,,,,,,,,,,None,,170.8363714700099,None,170.8363714700099,None,2022-05-25-12:07:04.950061,170.8470433000184,171.15330480001285,170.8470433000184,None,None,170.8470433000184,None,171.65359797002748,None,,,,12018,0001,2022_May_25_1204,localizer,2021.1.3,60.6882287915746,
block,objects,objects034.bmp,,,,,0,18,18,18,,,,,,,,,,,,,,,,,,,,,,,,,,,,,,,,,,,,,,,,,,None,,171.65359797002748,None,171.65359797002748,None,2022-05-25-12:07:05.769264,171.6660286000115,171.96927660002257,171.6660286000115,None,None,171.6660286000115,None,172.47261957000592,None,,,,12018,0001,2022_May_25_1204,localizer,2021.1.3,60.6882287915746,
block,objects,objects081.bmp,,,,,0,19,19,19,,,,,,,,,,,,,,,,,,,,,,,,,,,,,,,,,,,,,,,,,,None,,172.47261957000592,None,172.47261957000592,None,2022-05-25-12:07:06.588922,172.48323750001146,172.78595889999997,172.48323750001146,None,None,172.48323750001146,None,173.2865560700011,None,,,,12018,0001,2022_May_25_1204,localizer,2021.1.3,60.6882287915746,
block,objects,objects087.bmp,,,,,0,20,20,20,,,,,,,,,,,,,,,,,,,,,,,,,,,,,,,,,,,,,,,,,,None,,173.2865560700011,None,173.2865560700011,None,2022-05-25-12:07:07.400018,173.29714480001712,173.60322310001357,173.29714480001712,None,None,173.29714480001712,None,174.10427447000984,None,,,,12018,0001,2022_May_25_1204,localizer,2021.1.3,60.6882287915746,
block,objects,objects055.bmp,,,,,0,21,21,21,,,,,,,,,,,,,,,,,,,,,,,,,,,,,,,,,,,,,,,,,,None,,174.10427447000984,None,174.10427447000984,None,2022-05-25-12:07:08.218722,174.11721610001405,174.4197030000214,174.11721610001405,None,None,174.11721610001405,None,174.91965247000917,None,,,,12018,0001,2022_May_25_1204,localizer,2021.1.3,60.6882287915746,
block,objects,objects050.bmp,,,,,0,22,22,22,,,,,,,,,,,,,,,,,,,,,,,,,,,,,,,,,,,,,,,,,,None,,174.91965247000917,None,174.91965247000917,None,2022-05-25-12:07:09.033265,174.92914850002853,175.23592370000551,174.92914850002853,None,None,174.92914850002853,None,175.73625987002742,None,,,,12018,0001,2022_May_25_1204,localizer,2021.1.3,60.6882287915746,
block,objects,objects046.bmp,,,,,0,23,23,23,,,,,,,,,,,,,,,,,,,,,,,,,,,,,,,,,,,,,,,,,,None,,175.73625987002742,None,175.73625987002742,None,2022-05-25-12:07:09.849728,175.7452842000057,176.05245950000244,175.7452842000057,None,None,175.7452842000057,None,176.5550487700093,None,,,,12018,0001,2022_May_25_1204,localizer,2021.1.3,60.6882287915746,
block,objects,objects085.bmp,,,,,0,24,24,24,,,,,,,,,,,,,,,,,,,,,,,,,,,,,,,,,,,,,,,,,,None,,176.5550487700093,None,176.5550487700093,None,2022-05-25-12:07:10.672492,176.57078620002721,176.87003630000982,176.57078620002721,None,None,176.57078620002721,None,177.37034887002665,None,,,,12018,0001,2022_May_25_1204,localizer,2021.1.3,60.6882287915746,
block,objects,objects010.bmp,,,,,0,25,25,25,,,,,,,,,,,,,,,,,,,,,,,,,,,,,,,,,,,,,,,,,,None,,177.37034887002665,None,177.37034887002665,None,2022-05-25-12:07:11.484989,177.37826650001807,177.68600270000752,177.37826650001807,None,None,177.37826650001807,None,178.18636667000828,None,,,,12018,0001,2022_May_25_1204,localizer,2021.1.3,60.6882287915746,
block,objects,objects060.bmp,,,,,0,26,26,26,,,,,,,,,,,,,,,,,,,,,,,,,,,,,,,,,,,,,,,,,,None,,178.18636667000828,None,178.18636667000828,None,2022-05-25-12:07:12.300503,178.19706800000858,178.50321890000487,178.19706800000858,None,None,178.19706800000858,None,179.0033205700165,None,,,,12018,0001,2022_May_25_1204,localizer,2021.1.3,60.6882287915746,
block,objects,objects079.bmp,,,,,0,27,27,27,,,,,,,,,,,,,,,,,,,,,,,,,,,,,,,,,,,,,,,,,,None,,179.0033205700165,None,179.0033205700165,None,2022-05-25-12:07:13.116984,179.01470800000243,179.31925160001265,179.01470800000243,None,None,179.01470800000243,None,179.8195190700062,None,,,,12018,0001,2022_May_25_1204,localizer,2021.1.3,60.6882287915746,
block,objects,objects058.bmp,,,,,0,28,28,28,,,,,,,,,,,,,,,,,,,,,,,,,,,,,,,,,,,,,,,,,,None,,179.8195190700062,None,179.8195190700062,None,2022-05-25-12:07:13.933272,179.8284965000057,180.13587100000586,179.8284965000057,None,None,179.8284965000057,None,180.6363149700046,None,,,,12018,0001,2022_May_25_1204,localizer,2021.1.3,60.6882287915746,
block,objects,objects072.bmp,,,,,0,29,29,29,,,,,,,,,,,,,,,,,,,,,,,,,,,,,,,,,,,,,,,,,,None,,180.6363149700046,None,180.6363149700046,None,2022-05-25-12:07:14.750218,180.64715540001635,180.9543351000175,180.64715540001635,None,None,180.64715540001635,None,181.452635070018,None,,,,12018,0001,2022_May_25_1204,localizer,2021.1.3,60.6882287915746,
block_end,objects,objects080.bmp,,,,,0,30,30,30,,,,,,,,,,,,,,,,,,,,,,,,,,,,,,,,,,,,,,,,,,None,,181.452635070018,None,181.452635070018,None,2022-05-25-12:07:15.566106,181.4573477000231,181.76958440002636,181.4573477000231,None,None,181.4573477000231,None,182.27176697002142,None,,,,12018,0001,2022_May_25_1204,localizer,2021.1.3,60.6882287915746,
block_start,scenes,scenes092.bmp,,,,,0,31,31,31,,,,,,,,,,,,,,,,,,,,,,,,,,,,,,,,,,,,,,,,,,t,1.7263506000163034,182.27305260000867,None,182.27305260000867,None,2022-05-25-12:07:18.134923,184.0329943000106,184.3361080000177,184.0329943000106,None,None,184.0329943000106,None,184.83654577002744,None,,,,12018,0001,2022_May_25_1204,localizer,2021.1.3,60.6882287915746,
block,scenes,scenes009.bmp,,,,,0,32,32,32,,,,,,,,,,,,,,,,,,,,,,,,,,,,,,,,,,,,,,,,,,None,,184.83654577002744,None,184.83654577002744,None,2022-05-25-12:07:18.950169,184.84714800000074,185.15308020001976,184.84714800000074,None,None,184.84714800000074,None,185.65337717000511,None,,,,12018,0001,2022_May_25_1204,localizer,2021.1.3,60.6882287915746,
block,scenes,scenes042.bmp,,,,,0,33,33,33,,,,,,,,,,,,,,,,,,,,,,,,,,,,,,,,,,,,,,,,,,None,,185.65337717000511,None,185.65337717000511,None,2022-05-25-12:07:19.767044,185.66508540001814,185.9692227000196,185.66508540001814,None,None,185.66508540001814,None,186.4695363700157,None,,,,12018,0001,2022_May_25_1204,localizer,2021.1.3,60.6882287915746,
block,scenes,scenes047.bmp,,,,,0,34,34,34,,,,,,,,,,,,,,,,,,,,,,,,,,,,,,,,,,,,,,,,,,None,,186.4695363700157,None,186.4695363700157,None,2022-05-25-12:07:20.582279,186.47804130002623,186.78620080000837,186.47804130002623,None,None,186.47804130002623,None,187.28624217002653,None,,,,12018,0001,2022_May_25_1204,localizer,2021.1.3,60.6882287915746,
block,scenes,scenes010.bmp,,,,,0,35,35,35,,,,,,,,,,,,,,,,,,,,,,,,,,,,,,,,,,,,,,,,,,None,,187.28624217002653,None,187.28624217002653,None,2022-05-25-12:07:21.399709,187.29627620000974,187.60259730002144,187.29627620000974,None,None,187.29627620000974,None,188.10311977000674,None,,,,12018,0001,2022_May_25_1204,localizer,2021.1.3,60.6882287915746,
block,scenes,scenes035.bmp,,,,,0,36,36,36,,,,,,,,,,,,,,,,,,,,,,,,,,,,,,,,,,,,,,,,,,None,,188.10311977000674,None,188.10311977000674,None,2022-05-25-12:07:22.216585,188.11381020001136,188.42666160000954,188.11381020001136,None,None,188.11381020001136,None,188.92592607002007,None,,,,12018,0001,2022_May_25_1204,localizer,2021.1.3,60.6882287915746,
block,scenes,scenes035.bmp,,,,,0,37,37,37,,,,,,,,,,,,,,,,,,,,,,,,,,,,,,,,,,,,,,,,,,None,,188.92592607002007,None,188.92592607002007,None,2022-05-25-12:07:23.046257,188.93407430002117,189.2373778000183,188.93407430002117,None,y,188.93407430002117,None,189.73629777002498,None,0.4400362999876961,,,12018,0001,2022_May_25_1204,localizer,2021.1.3,60.6882287915746,
block,scenes,scenes070.bmp,,,,,0,38,38,38,,,,,,,,,,,,,,,,,,,,,,,,,,,,,,,,,,,,,,,,,,None,,189.73629777002498,None,189.73629777002498,None,2022-05-25-12:07:23.849971,189.7471025000268,190.0596139000263,189.7471025000268,None,None,189.7471025000268,None,190.55296697001904,None,,,,12018,0001,2022_May_25_1204,localizer,2021.1.3,60.6882287915746,
block,scenes,scenes058.bmp,,,,,0,39,39,39,,,,,,,,,,,,,,,,,,,,,,,,,,,,,,,,,,,,,,,,,,None,,190.55296697001904,None,190.55296697001904,None,2022-05-25-12:07:24.666435,190.56203260002076,190.86944470001617,190.56203260002076,None,None,190.56203260002076,None,191.36978617002023,None,,,,12018,0001,2022_May_25_1204,localizer,2021.1.3,60.6882287915746,
block,scenes,scenes012.bmp,,,,,0,40,40,40,,,,,,,,,,,,,,,,,,,,,,,,,,,,,,,,,,,,,,,,,,None,,191.36978617002023,None,191.36978617002023,None,2022-05-25-12:07:25.483252,191.3802206000255,191.68580860001384,191.3802206000255,None,None,191.3802206000255,None,192.18763737002155,None,,,,12018,0001,2022_May_25_1204,localizer,2021.1.3,60.6882287915746,
block,scenes,scenes067.bmp,,,,,0,41,41,41,,,,,,,,,,,,,,,,,,,,,,,,,,,,,,,,,,,,,,,,,,None,,192.18763737002155,None,192.18763737002155,None,2022-05-25-12:07:26.303268,192.20215460000327,192.5030752000166,192.20215460000327,None,None,192.20215460000327,None,193.00377377000405,None,,,,12018,0001,2022_May_25_1204,localizer,2021.1.3,60.6882287915746,
block,scenes,scenes072.bmp,,,,,0,42,42,42,,,,,,,,,,,,,,,,,,,,,,,,,,,,,,,,,,,,,,,,,,None,,193.00377377000405,None,193.00377377000405,None,2022-05-25-12:07:27.118425,193.016683200025,193.3194023000251,193.016683200025,None,None,193.016683200025,None,193.81969637001748,None,,,,12018,0001,2022_May_25_1204,localizer,2021.1.3,60.6882287915746,
block,scenes,scenes046.bmp,,,,,0,43,43,43,,,,,,,,,,,,,,,,,,,,,,,,,,,,,,,,,,,,,,,,,,None,,193.81969637001748,None,193.81969637001748,None,2022-05-25-12:07:27.933163,193.83048390000477,194.13606840002467,193.83048390000477,None,None,193.83048390000477,None,194.63654727002722,None,,,,12018,0001,2022_May_25_1204,localizer,2021.1.3,60.6882287915746,
block,scenes,scenes028.bmp,,,,,0,44,44,44,,,,,,,,,,,,,,,,,,,,,,,,,,,,,,,,,,,,,,,,,,None,,194.63654727002722,None,194.63654727002722,None,2022-05-25-12:07:28.750010,194.648242700001,194.952815800003,194.648242700001,None,None,194.648242700001,None,195.45293567000772,None,,,,12018,0001,2022_May_25_1204,localizer,2021.1.3,60.6882287915746,
block_end,scenes,scenes006.bmp,,,,,0,45,45,45,,,,,,,,,,,,,,,,,,,,,,,,,,,,,,,,,,,,,,,,,,None,,195.45293567000772,None,195.45293567000772,None,2022-05-25-12:07:29.566615,195.46222850002232,195.76992510000127,195.46222850002232,None,None,195.46222850002232,None,196.2701318700274,None,,,,12018,0001,2022_May_25_1204,localizer,2021.1.3,60.6882287915746,
block_start,scrambled,scrambled021.bmp,,,,,0,46,46,46,,,,,,,,,,,,,,,,,,,,,,,,,,,,,,,,,,,,,,,,,,t,1.7295421999879181,196.26981890000752,None,196.26981890000752,None,2022-05-25-12:07:32.134941,198.03327380001429,198.33616320000147,198.03327380001429,None,None,198.03327380001429,None,198.83688827001606,None,,,,12018,0001,2022_May_25_1204,localizer,2021.1.3,60.6882287915746,
block,scrambled,scrambled077.bmp,,,,,0,47,47,47,,,,,,,,,,,,,,,,,,,,,,,,,,,,,,,,,,,,,,,,,,None,,198.83688827001606,None,198.83688827001606,None,2022-05-25-12:07:32.950330,198.84839280002052,199.1527590000187,198.84839280002052,None,None,198.84839280002052,None,199.65310647001024,None,,,,12018,0001,2022_May_25_1204,localizer,2021.1.3,60.6882287915746,
block,scrambled,scrambled022.bmp,,,,,0,48,48,48,,,,,,,,,,,,,,,,,,,,,,,,,,,,,,,,,,,,,,,,,,None,,199.65310647001024,None,199.65310647001024,None,2022-05-25-12:07:33.766790,199.6633885000192,199.969729000004,199.6633885000192,None,None,199.6633885000192,None,200.4692791700072,None,,,,12018,0001,2022_May_25_1204,localizer,2021.1.3,60.6882287915746,
block,scrambled,scrambled048.bmp,,,,,0,49,49,49,,,,,,,,,,,,,,,,,,,,,,,,,,,,,,,,,,,,,,,,,,None,,200.4692791700072,None,200.4692791700072,None,2022-05-25-12:07:34.582751,200.4778595000098,200.78606990000117,200.4778595000098,None,None,200.4778595000098,None,201.28647677000845,None,,,,12018,0001,2022_May_25_1204,localizer,2021.1.3,60.6882287915746,
block,scrambled,scrambled031.bmp,,,,,0,50,50,50,,,,,,,,,,,,,,,,,,,,,,,,,,,,,,,,,,,,,,,,,,None,,201.28647677000845,None,201.28647677000845,None,2022-05-25-12:07:35.399943,201.29597700000159,201.60288130000117,201.29597700000159,None,None,201.29597700000159,None,202.10288477002177,None,,,,12018,0001,2022_May_25_1204,localizer,2021.1.3,60.6882287915746,
block,scrambled,scrambled001.bmp,,,,,0,51,51,51,,,,,,,,,,,,,,,,,,,,,,,,,,,,,,,,,,,,,,,,,,None,,202.10288477002177,None,202.10288477002177,None,2022-05-25-12:07:36.216354,202.11194760000217,202.41944380002678,202.11194760000217,None,None,202.11194760000217,None,202.920348870015,None,,,,12018,0001,2022_May_25_1204,localizer,2021.1.3,60.6882287915746,
block,scrambled,scrambled018.bmp,,,,,0,52,52,52,,,,,,,,,,,,,,,,,,,,,,,,,,,,,,,,,,,,,,,,,,None,,202.920348870015,None,202.920348870015,None,2022-05-25-12:07:37.034800,202.9317576000176,203.2364945000154,202.9317576000176,None,None,202.9317576000176,None,203.7376997700194,None,,,,12018,0001,2022_May_25_1204,localizer,2021.1.3,60.6882287915746,
block,scrambled,scrambled032.bmp,,,,,0,53,53,53,,,,,,,,,,,,,,,,,,,,,,,,,,,,,,,,,,,,,,,,,,None,,203.7376997700194,None,203.7376997700194,None,2022-05-25-12:07:37.853232,203.74758190001012,204.0528066000261,203.74758190001012,None,None,203.74758190001012,None,204.55425977002596,None,,,,12018,0001,2022_May_25_1204,localizer,2021.1.3,60.6882287915746,
block,scrambled,scrambled028.bmp,,,,,0,54,54,54,,,,,,,,,,,,,,,,,,,,,,,,,,,,,,,,,,,,,,,,,,None,,204.55425977002596,None,204.55425977002596,None,2022-05-25-12:07:38.670614,204.56535440002335,204.86950860000798,204.56535440002335,None,None,204.56535440002335,None,205.37014347000513,None,,,,12018,0001,2022_May_25_1204,localizer,2021.1.3,60.6882287915746,
block,scrambled,scrambled029.bmp,,,,,0,55,55,55,,,,,,,,,,,,,,,,,,,,,,,,,,,,,,,,,,,,,,,,,,None,,205.37014347000513,None,205.37014347000513,None,2022-05-25-12:07:39.483800,205.3816568000184,205.6862819000089,205.3816568000184,None,None,205.3816568000184,None,206.1877189700026,None,,,,12018,0001,2022_May_25_1204,localizer,2021.1.3,60.6882287915746,
block,scrambled,scrambled074.bmp,,,,,0,56,56,56,,,,,,,,,,,,,,,,,,,,,,,,,,,,,,,,,,,,,,,,,,None,,206.1877189700026,None,206.1877189700026,None,2022-05-25-12:07:40.303344,206.2021059000108,206.5034879000159,206.2021059000108,None,None,206.2021059000108,None,207.00526817000355,None,,,,12018,0001,2022_May_25_1204,localizer,2021.1.3,60.6882287915746,
block,scrambled,scrambled030.bmp,,,,,0,57,57,57,,,,,,,,,,,,,,,,,,,,,,,,,,,,,,,,,,,,,,,,,,None,,207.00526817000355,None,207.00526817000355,None,2022-05-25-12:07:41.122776,207.02242350002052,207.3366154000105,207.02242350002052,None,None,207.02242350002052,None,207.82024857000215,None,,,,12018,0001,2022_May_25_1204,localizer,2021.1.3,60.6882287915746,
block,scrambled,scrambled026.bmp,,,,,0,58,58,58,,,,,,,,,,,,,,,,,,,,,,,,,,,,,,,,,,,,,,,,,,None,,207.82024857000215,None,207.82024857000215,None,2022-05-25-12:07:41.933853,207.8314918000251,208.1358603000117,207.8314918000251,None,None,207.8314918000251,None,208.63768707000418,None,,,,12018,0001,2022_May_25_1204,localizer,2021.1.3,60.6882287915746,
block,scrambled,scrambled055.bmp,,,,,0,59,59,59,,,,,,,,,,,,,,,,,,,,,,,,,,,,,,,,,,,,,,,,,,None,,208.63768707000418,None,208.63768707000418,None,2022-05-25-12:07:42.753129,208.6521593000216,208.95288910000818,208.6521593000216,None,None,208.6521593000216,None,209.45398657000624,None,,,,12018,0001,2022_May_25_1204,localizer,2021.1.3,60.6882287915746,
block_end,scrambled,scrambled003.bmp,,,,,0,60,60,60,,,,,,,,,,,,,,,,,,,,,,,,,,,,,,,,,,,,,,,,,,None,,209.45398657000624,None,209.45398657000624,None,2022-05-25-12:07:43.568456,209.46624410001095,209.76943690000917,209.46624410001095,None,None,209.46624410001095,None,210.27117257000646,None,,,,12018,0001,2022_May_25_1204,localizer,2021.1.3,60.6882287915746,
block_start,scrambled,scrambled059.bmp,,,,,0,61,61,61,,,,,,,,,,,,,,,,,,,,,,,,,,,,,,,,,,,,,,,,,,t,1.7279441000137012,210.27073800002108,None,210.27073800002108,None,2022-05-25-12:07:46.132120,212.0291561000049,212.33695630001603,212.0291561000049,None,None,212.0291561000049,None,212.83724477002397,None,,,,12018,0001,2022_May_25_1204,localizer,2021.1.3,60.6882287915746,
block,scrambled,scrambled025.bmp,,,,,0,62,62,62,,,,,,,,,,,,,,,,,,,,,,,,,,,,,,,,,,,,,,,,,,None,,212.83724477002397,None,212.83724477002397,None,2022-05-25-12:07:46.951726,212.8495390000171,213.15256100002443,212.8495390000171,None,None,212.8495390000171,None,213.653799170017,None,,,,12018,0001,2022_May_25_1204,localizer,2021.1.3,60.6882287915746,
block,scrambled,scrambled045.bmp,,,,,0,63,63,63,,,,,,,,,,,,,,,,,,,,,,,,,,,,,,,,,,,,,,,,,,None,,213.653799170017,None,213.653799170017,None,2022-05-25-12:07:47.768456,213.66623020000407,213.9695200000133,213.66623020000407,None,None,213.66623020000407,None,214.47058987000491,None,,,,12018,0001,2022_May_25_1204,localizer,2021.1.3,60.6882287915746,
block,scrambled,scrambled020.bmp,,,,,0,64,64,64,,,,,,,,,,,,,,,,,,,,,,,,,,,,,,,,,,,,,,,,,,None,,214.47058987000491,None,214.47058987000491,None,2022-05-25-12:07:48.585220,214.48235320000094,214.7861772000033,214.48235320000094,None,None,214.48235320000094,None,215.2875715700211,None,,,,12018,0001,2022_May_25_1204,localizer,2021.1.3,60.6882287915746,
block,scrambled,scrambled086.bmp,,,,,0,65,65,65,,,,,,,,,,,,,,,,,,,,,,,,,,,,,,,,,,,,,,,,,,None,,215.2875715700211,None,215.2875715700211,None,2022-05-25-12:07:49.403208,215.3016586000158,215.6028895000054,215.3016586000158,None,None,215.3016586000158,None,216.10360797002795,None,,,,12018,0001,2022_May_25_1204,localizer,2021.1.3,60.6882287915746,
block,scrambled,scrambled010.bmp,,,,,0,66,66,66,,,,,,,,,,,,,,,,,,,,,,,,,,,,,,,,,,,,,,,,,,None,,216.10360797002795,None,216.10360797002795,None,2022-05-25-12:07:50.217256,216.11510160000762,216.4197537,216.11510160000762,None,None,216.11510160000762,None,216.92012907000026,None,,,,12018,0001,2022_May_25_1204,localizer,2021.1.3,60.6882287915746,
block,scrambled,scrambled082.bmp,,,,,0,67,67,67,,,,,,,,,,,,,,,,,,,,,,,,,,,,,,,,,,,,,,,,,,None,,216.92012907000026,None,216.92012907000026,None,2022-05-25-12:07:51.033870,216.9306725000206,217.23597780001,216.9306725000206,None,None,216.9306725000206,None,217.73724217002746,None,,,,12018,0001,2022_May_25_1204,localizer,2021.1.3,60.6882287915746,
block,scrambled,scrambled055.bmp,,,,,0,68,68,68,,,,,,,,,,,,,,,,,,,,,,,,,,,,,,,,,,,,,,,,,,None,,217.73724217002746,None,217.73724217002746,None,2022-05-25-12:07:51.851889,217.73754630002077,218.03589020000072,217.73754630002077,None,None,217.73754630002077,None,218.53741697000805,None,,,,12018,0001,2022_May_25_1204,localizer,2021.1.3,60.6882287915746,
block,scrambled,scrambled068.bmp,,,,,0,69,69,69,,,,,,,,,,,,,,,,,,,,,,,,,,,,,,,,,,,,,,,,,,None,,218.53741697000805,None,218.53741697000805,None,2022-05-25-12:07:52.653724,218.55151640000986,218.85273540002527,218.55151640000986,218.55151640000986,None,218.55151640000986,218.55151640000986,219.35317567002494,None,,,,12018,0001,2022_May_25_1204,localizer,2021.1.3,60.6882287915746,
block,scrambled,scrambled026.bmp,,,,,0,70,70,70,,,,,,,,,,,,,,,,,,,,,,,,,,,,,,,,,,,,,,,,,,None,,219.35317567002494,None,219.35317567002494,None,2022-05-25-12:07:53.466643,219.35400560000562,219.66945110002416,219.35400560000562,None,None,219.35400560000562,None,220.15302127000177,None,,,,12018,0001,2022_May_25_1204,localizer,2021.1.3,60.6882287915746,
block,scrambled,scrambled047.bmp,,,,,0,71,71,71,,,,,,,,,,,,,,,,,,,,,,,,,,,,,,,,,,,,,,,,,,None,,220.15302127000177,None,220.15302127000177,None,2022-05-25-12:07:54.267489,220.1629329000134,220.46946530000423,220.1629329000134,220.1629329000134,None,220.1629329000134,220.1629329000134,220.969723170012,None,,,,12018,0001,2022_May_25_1204,localizer,2021.1.3,60.6882287915746,
block,scrambled,scrambled061.bmp,,,,,0,72,72,72,,,,,,,,,,,,,,,,,,,,,,,,,,,,,,,,,,,,,,,,,,None,,220.969723170012,None,220.969723170012,None,2022-05-25-12:07:55.083193,220.97973790002288,221.28666450001765,220.97973790002288,None,None,220.97973790002288,None,221.78705887001706,None,,,,12018,0001,2022_May_25_1204,localizer,2021.1.3,60.6882287915746,
block,scrambled,scrambled014.bmp,,,,,0,73,73,73,,,,,,,,,,,,,,,,,,,,,,,,,,,,,,,,,,,,,,,,,,None,,221.78705887001706,None,221.78705887001706,None,2022-05-25-12:07:55.900627,221.7984796000237,222.10334790000343,221.7984796000237,None,None,221.7984796000237,None,222.60353987000417,None,,,,12018,0001,2022_May_25_1204,localizer,2021.1.3,60.6882287915746,
block,scrambled,scrambled007.bmp,,,,,0,74,74,74,,,,,,,,,,,,,,,,,,,,,,,,,,,,,,,,,,,,,,,,,,None,,222.60353987000417,None,222.60353987000417,None,2022-05-25-12:07:56.717026,222.61439500001143,222.91927010001382,222.61439500001143,None,None,222.61439500001143,None,223.42608577001374,None,,,,12018,0001,2022_May_25_1204,localizer,2021.1.3,60.6882287915746,
block_end,scrambled,scrambled050.bmp,,,,,0,75,75,75,,,,,,,,,,,,,,,,,,,,,,,,,,,,,,,,,,,,,,,,,,None,,223.42608577001374,None,223.42608577001374,None,2022-05-25-12:07:57.547521,223.44325050001498,223.75276980001945,223.44325050001498,None,None,223.44325050001498,None,224.2371618700272,None,,,,12018,0001,2022_May_25_1204,localizer,2021.1.3,60.6882287915746,
block_start,scenes,scenes067.bmp,,,,,0,76,76,76,,,,,,,,,,,,,,,,,,,,,,,,,,,,,,,,,,,,,,,,,,t,1.761373499990441,224.2368808000174,None,224.2368808000174,None,2022-05-25-12:08:00.132583,226.02098510001088,226.33609310002066,226.02098510001088,None,None,226.02098510001088,None,226.8366208700172,None,,,,12018,0001,2022_May_25_1204,localizer,2021.1.3,60.6882287915746,
block,scenes,scenes056.bmp,,,,,0,77,77,77,,,,,,,,,,,,,,,,,,,,,,,,,,,,,,,,,,,,,,,,,,None,,226.8366208700172,None,226.8366208700172,None,2022-05-25-12:08:00.949760,226.84705260000192,227.153169600002,226.84705260000192,None,None,226.84705260000192,None,227.65336597000714,None,,,,12018,0001,2022_May_25_1204,localizer,2021.1.3,60.6882287915746,
block,scenes,scenes001.bmp,,,,,0,78,78,78,,,,,,,,,,,,,,,,,,,,,,,,,,,,,,,,,,,,,,,,,,None,,227.65336597000714,None,227.65336597000714,None,2022-05-25-12:08:01.766830,227.66401480001514,227.96954900000128,227.66401480001514,None,None,227.66401480001514,None,228.46988007001346,None,,,,12018,0001,2022_May_25_1204,localizer,2021.1.3,60.6882287915746,
block,scenes,scenes014.bmp,,,,,0,79,79,79,,,,,,,,,,,,,,,,,,,,,,,,,,,,,,,,,,,,,,,,,,None,,228.46988007001346,None,228.46988007001346,None,2022-05-25-12:08:02.583642,228.48000630000024,228.78696029999992,228.48000630000024,None,None,228.48000630000024,None,229.2866101700056,None,,,,12018,0001,2022_May_25_1204,localizer,2021.1.3,60.6882287915746,
block,scenes,scenes051.bmp,,,,,0,80,80,80,,,,,,,,,,,,,,,,,,,,,,,,,,,,,,,,,,,,,,,,,,None,,229.2866101700056,None,229.2866101700056,None,2022-05-25-12:08:03.400613,229.29824790000566,229.6027141000086,229.29824790000566,None,None,229.29824790000566,None,230.1041754700127,None,,,,12018,0001,2022_May_25_1204,localizer,2021.1.3,60.6882287915746,
block,scenes,scenes015.bmp,,,,,0,81,81,81,,,,,,,,,,,,,,,,,,,,,,,,,,,,,,,,,,,,,,,,,,None,,230.1041754700127,None,230.1041754700127,None,2022-05-25-12:08:04.218795,230.1171112000011,230.41955950000556,230.1171112000011,None,None,230.1171112000011,None,230.91996307001682,None,,,,12018,0001,2022_May_25_1204,localizer,2021.1.3,60.6882287915746,
block,scenes,scenes023.bmp,,,,,0,82,82,82,,,,,,,,,,,,,,,,,,,,,,,,,,,,,,,,,,,,,,,,,,None,,230.91996307001682,None,230.91996307001682,None,2022-05-25-12:08:05.034216,230.92855880002026,231.23633040001732,230.92855880002026,None,None,230.92855880002026,None,231.73662297002738,None,,,,12018,0001,2022_May_25_1204,localizer,2021.1.3,60.6882287915746,
block,scenes,scenes036.bmp,,,,,0,83,83,83,,,,,,,,,,,,,,,,,,,,,,,,,,,,,,,,,,,,,,,,,,None,,231.73662297002738,None,231.73662297002738,None,2022-05-25-12:08:05.850091,231.7471100000257,232.05955680002808,231.7471100000257,None,None,231.7471100000257,None,232.55458477002685,None,,,,12018,0001,2022_May_25_1204,localizer,2021.1.3,60.6882287915746,
block,scenes,scenes084.bmp,,,,,0,84,84,84,,,,,,,,,,,,,,,,,,,,,,,,,,,,,,,,,,,,,,,,,,None,,232.55458477002685,None,232.55458477002685,None,2022-05-25-12:08:06.669211,232.568743300013,232.87033770000562,232.568743300013,None,None,232.568743300013,None,233.37018087002798,None,,,,12018,0001,2022_May_25_1204,localizer,2021.1.3,60.6882287915746,
block,scenes,scenes090.bmp,,,,,0,85,85,85,,,,,,,,,,,,,,,,,,,,,,,,,,,,,,,,,,,,,,,,,,None,,233.37018087002798,None,233.37018087002798,None,2022-05-25-12:08:07.483839,233.3807199000148,233.6859769000148,233.3807199000148,None,None,233.3807199000148,None,234.1866165700194,None,,,,12018,0001,2022_May_25_1204,localizer,2021.1.3,60.6882287915746,
block,scenes,scenes055.bmp,,,,,0,86,86,86,,,,,,,,,,,,,,,,,,,,,,,,,,,,,,,,,,,,,,,,,,None,,234.1866165700194,None,234.1866165700194,None,2022-05-25-12:08:08.300079,234.197650600021,234.5027288000274,234.197650600021,None,None,234.197650600021,None,235.00333127001068,None,,,,12018,0001,2022_May_25_1204,localizer,2021.1.3,60.6882287915746,
block,scenes,scenes039.bmp,,,,,0,87,87,87,,,,,,,,,,,,,,,,,,,,,,,,,,,,,,,,,,,,,,,,,,None,,235.00333127001068,None,235.00333127001068,None,2022-05-25-12:08:09.116797,235.01346320001176,235.31966870001634,235.01346320001176,None,None,235.01346320001176,None,235.82148057001177,None,,,,12018,0001,2022_May_25_1204,localizer,2021.1.3,60.6882287915746,
block,scenes,scenes025.bmp,,,,,0,88,88,88,,,,,,,,,,,,,,,,,,,,,,,,,,,,,,,,,,,,,,,,,,None,,235.82148057001177,None,235.82148057001177,None,2022-05-25-12:08:09.936091,235.83994220002205,236.15272630000254,235.83994220002205,None,None,235.83994220002205,None,236.63659807000658,None,,,,12018,0001,2022_May_25_1204,localizer,2021.1.3,60.6882287915746,
block,scenes,scenes026.bmp,,,,,0,89,89,89,,,,,,,,,,,,,,,,,,,,,,,,,,,,,,,,,,,,,,,,,,None,,236.63659807000658,None,236.63659807000658,None,2022-05-25-12:08:10.750522,236.6473309000139,236.9540559000161,236.6473309000139,None,None,236.6473309000139,None,237.45300097001018,None,,,,12018,0001,2022_May_25_1204,localizer,2021.1.3,60.6882287915746,
block_end,scenes,scenes019.bmp,,,,,0,90,90,90,,,,,,,,,,,,,,,,,,,,,,,,,,,,,,,,,,,,,,,,,,None,,237.45300097001018,None,237.45300097001018,None,2022-05-25-12:08:11.565491,237.46170390001498,237.76998740001,237.46170390001498,None,None,237.46170390001498,None,238.2701892700279,None,,,,12018,0001,2022_May_25_1204,localizer,2021.1.3,60.6882287915746,
null_block,null_block,null_block.bmp,,,,,0,91,91,91,,,,,,,,,,,,,,,,,,,,,,,,,,,,,,,,,,,,,,,,,,t,1.7283402000030037,238.2699276000203,None,238.2699276000203,None,2022-05-25-12:08:14.132410,240.01997057002154,None,240.01997057002154,None,None,240.01997057002154,None,240.02991400001338,None,,,,12018,0001,2022_May_25_1204,localizer,2021.1.3,60.6882287915746,
block_start,faces,faces018.bmp,,,,,0,92,92,92,,,,,,,,,,,,,,,,,,,,,,,,,,,,,,,,,,,,,,,,,,t,1.9606766999932006,252.03751630001352,None,252.03751630001352,None,2022-05-25-12:08:28.133575,254.03065660002176,254.33633480002754,254.03065660002176,None,None,254.03065660002176,None,254.83677207000437,None,,,,12018,0001,2022_May_25_1204,localizer,2021.1.3,60.6882287915746,
block,faces,faces087.bmp,,,,,0,93,93,93,,,,,,,,,,,,,,,,,,,,,,,,,,,,,,,,,,,,,,,,,,None,,254.83677207000437,None,254.83677207000437,None,2022-05-25-12:08:28.950339,254.84765130002052,255.15549260002444,254.84765130002052,None,None,254.84765130002052,None,255.65408387000207,None,,,,12018,0001,2022_May_25_1204,localizer,2021.1.3,60.6882287915746,
block,faces,faces066.bmp,,,,,0,94,94,94,,,,,,,,,,,,,,,,,,,,,,,,,,,,,,,,,,,,,,,,,,None,,255.65408387000207,None,255.65408387000207,None,2022-05-25-12:08:29.768537,255.66676240001107,255.97034810000332,255.66676240001107,None,None,255.66676240001107,None,256.47081127000274,None,,,,12018,0001,2022_May_25_1204,localizer,2021.1.3,60.6882287915746,
block,faces,faces048.bmp,,,,,0,95,95,95,,,,,,,,,,,,,,,,,,,,,,,,,,,,,,,,,,,,,,,,,,None,,256.47081127000274,None,256.47081127000274,None,2022-05-25-12:08:30.585453,256.48012120000203,256.7863611000066,256.48012120000203,None,None,256.48012120000203,None,257.2868988700211,None,,,,12018,0001,2022_May_25_1204,localizer,2021.1.3,60.6882287915746,
block,faces,faces032.bmp,,,,,0,96,96,96,,,,,,,,,,,,,,,,,,,,,,,,,,,,,,,,,,,,,,,,,,None,,257.2868988700211,None,257.2868988700211,None,2022-05-25-12:08:31.400293,257.29678590002004,257.6031061000249,257.29678590002004,None,None,257.29678590002004,None,258.1034830700082,None,,,,12018,0001,2022_May_25_1204,localizer,2021.1.3,60.6882287915746,
block,faces,faces005.bmp,,,,,0,97,97,97,,,,,,,,,,,,,,,,,,,,,,,,,,,,,,,,,,,,,,,,,,None,,258.1034830700082,None,258.1034830700082,None,2022-05-25-12:08:32.216964,258.11331400001654,258.4204566000262,258.11331400001654,None,None,258.11331400001654,None,258.91998937001335,None,,,,12018,0001,2022_May_25_1204,localizer,2021.1.3,60.6882287915746,
block,faces,faces054.bmp,,,,,0,98,98,98,,,,,,,,,,,,,,,,,,,,,,,,,,,,,,,,,,,,,,,,,,None,,258.91998937001335,None,258.91998937001335,None,2022-05-25-12:08:33.032469,258.92895520001184,259.2364239000017,258.92895520001184,None,None,258.92895520001184,None,259.73734697001055,None,,,,12018,0001,2022_May_25_1204,localizer,2021.1.3,60.6882287915746,
block,faces,faces015.bmp,,,,,0,99,99,99,,,,,,,,,,,,,,,,,,,,,,,,,,,,,,,,,,,,,,,,,,None,,259.73734697001055,None,259.73734697001055,None,2022-05-25-12:08:33.852183,259.7518279000069,260.0533911000239,259.7518279000069,None,None,259.7518279000069,None,260.5546598700166,None,,,,12018,0001,2022_May_25_1204,localizer,2021.1.3,60.6882287915746,
block,faces,faces024.bmp,,,,,0,100,100,100,,,,,,,,,,,,,,,,,,,,,,,,,,,,,,,,,,,,,,,,,,None,,260.5546598700166,None,260.5546598700166,None,2022-05-25-12:08:34.669105,260.55640480000875,260.8703391000163,260.55640480000875,None,None,260.55640480000875,None,261.37010047002696,None,,,,12018,0001,2022_May_25_1204,localizer,2021.1.3,60.6882287915746,
block,faces,faces014.bmp,,,,,0,101,101,101,,,,,,,,,,,,,,,,,,,,,,,,,,,,,,,,,,,,,,,,,,None,,261.37010047002696,None,261.37010047002696,None,2022-05-25-12:08:35.483564,261.3810128000041,261.6928600000101,261.3810128000041,None,None,261.3810128000041,None,262.1865138700232,None,,,,12018,0001,2022_May_25_1204,localizer,2021.1.3,60.6882287915746,
block,faces,faces034.bmp,,,,,0,102,102,102,,,,,,,,,,,,,,,,,,,,,,,,,,,,,,,,,,,,,,,,,,None,,262.1865138700232,None,262.1865138700232,None,2022-05-25-12:08:36.299984,262.1955925000075,262.5029886000266,262.1955925000075,None,None,262.1955925000075,None,263.0032651700021,None,,,,12018,0001,2022_May_25_1204,localizer,2021.1.3,60.6882287915746,
block,faces,faces070.bmp,,,,,0,103,103,103,,,,,,,,,,,,,,,,,,,,,,,,,,,,,,,,,,,,,,,,,,None,,263.0032651700021,None,263.0032651700021,None,2022-05-25-12:08:37.116807,263.01406530002714,263.3197633000091,263.01406530002714,None,None,263.01406530002714,None,263.8210139700095,None,,,,12018,0001,2022_May_25_1204,localizer,2021.1.3,60.6882287915746,
block,faces,faces072.bmp,,,,,0,104,104,104,,,,,,,,,,,,,,,,,,,,,,,,,,,,,,,,,,,,,,,,,,None,,263.8210139700095,None,263.8210139700095,None,2022-05-25-12:08:37.935556,263.83035660002497,264.13624930000515,263.83035660002497,None,None,263.83035660002497,None,264.63660307001555,None,,,,12018,0001,2022_May_25_1204,localizer,2021.1.3,60.6882287915746,
block,faces,faces007.bmp,,,,,0,105,105,105,,,,,,,,,,,,,,,,,,,,,,,,,,,,,,,,,,,,,,,,,,None,,264.63660307001555,None,264.63660307001555,None,2022-05-25-12:08:38.749289,264.6418271000148,264.9536864000256,264.6418271000148,None,None,264.6418271000148,None,265.4547472700069,None,,,,12018,0001,2022_May_25_1204,localizer,2021.1.3,60.6882287915746,
block_end,faces,faces003.bmp,,,,,0,106,106,106,,,,,,,,,,,,,,,,,,,,,,,,,,,,,,,,,,,,,,,,,,None,,265.4547472700069,None,265.4547472700069,None,2022-05-25-12:08:39.571257,265.4578147000284,265.7696674000181,265.4578147000284,None,None,265.4578147000284,None,266.27072187000886,None,,,,12018,0001,2022_May_25_1204,localizer,2021.1.3,60.6882287915746,
block_start,objects,objects034.bmp,,,,,0,107,107,107,,,,,,,,,,,,,,,,,,,,,,,,,,,,,,,,,,,,,,,,,,t,1.7277928999974392,266.27052950000507,None,266.27052950000507,None,2022-05-25-12:08:42.132332,268.0214639000187,268.3204918000265,268.0214639000187,None,None,268.0214639000187,None,268.83645367002464,None,,,,12018,0001,2022_May_25_1204,localizer,2021.1.3,60.6882287915746,
block,objects,objects073.bmp,,,,,0,108,108,108,,,,,,,,,,,,,,,,,,,,,,,,,,,,,,,,,,,,,,,,,,None,,268.83645367002464,None,268.83645367002464,None,2022-05-25-12:08:42.948929,268.8447720000113,269.159696000017,268.8447720000113,None,None,268.8447720000113,None,269.65281147000496,None,,,,12018,0001,2022_May_25_1204,localizer,2021.1.3,60.6882287915746,
block,objects,objects073.bmp,,,,,0,109,109,109,,,,,,,,,,,,,,,,,,,,,,,,,,,,,,,,,,,,,,,,,,None,,269.65281147000496,None,269.65281147000496,None,2022-05-25-12:08:43.766300,269.6547532000113,269.969528000016,269.6547532000113,None,y,269.6547532000113,None,270.47000247001415,None,0.5054071999911685,,,12018,0001,2022_May_25_1204,localizer,2021.1.3,60.6882287915746,
block,objects,objects081.bmp,,,,,0,110,110,110,,,,,,,,,,,,,,,,,,,,,,,,,,,,,,,,,,,,,,,,,,None,,270.47000247001415,None,270.47000247001415,None,2022-05-25-12:08:44.582478,270.47065070000826,270.7697975000192,270.47065070000826,None,None,270.47065070000826,None,271.27048797000316,None,,,,12018,0001,2022_May_25_1204,localizer,2021.1.3,60.6882287915746,
block,objects,objects086.bmp,,,,,0,111,111,111,,,,,,,,,,,,,,,,,,,,,,,,,,,,,,,,,,,,,,,,,,None,,271.27048797000316,None,271.27048797000316,None,2022-05-25-12:08:45.386138,271.28378120000707,271.58658140001353,271.28378120000707,271.28378120000707,None,271.28378120000707,271.28378120000707,272.08697627001675,None,,,,12018,0001,2022_May_25_1204,localizer,2021.1.3,60.6882287915746,
block,objects,objects088.bmp,,,,,0,112,112,112,,,,,,,,,,,,,,,,,,,,,,,,,,,,,,,,,,,,,,,,,,None,,272.08697627001675,None,272.08697627001675,None,2022-05-25-12:08:46.200442,272.09741030001896,272.4031810000015,272.09741030001896,None,None,272.09741030001896,None,272.90321047001635,None,,,,12018,0001,2022_May_25_1204,localizer,2021.1.3,60.6882287915746,
block,objects,objects021.bmp,,,,,0,113,113,113,,,,,,,,,,,,,,,,,,,,,,,,,,,,,,,,,,,,,,,,,,None,,272.90321047001635,None,272.90321047001635,None,2022-05-25-12:08:47.016684,272.9117821000109,273.22033740000916,272.9117821000109,None,None,272.9117821000109,None,273.7205580700247,None,,,,12018,0001,2022_May_25_1204,localizer,2021.1.3,60.6882287915746,
block,objects,objects062.bmp,,,,,0,114,114,114,,,,,,,,,,,,,,,,,,,,,,,,,,,,,,,,,,,,,,,,,,None,,273.7205580700247,None,273.7205580700247,None,2022-05-25-12:08:47.834001,273.73110590002034,274.036273900012,273.73110590002034,None,None,273.73110590002034,None,274.53670887000044,None,,,,12018,0001,2022_May_25_1204,localizer,2021.1.3,60.6882287915746,
block,objects,objects063.bmp,,,,,0,115,115,115,,,,,,,,,,,,,,,,,,,,,,,,,,,,,,,,,,,,,,,,,,None,,274.53670887000044,None,274.53670887000044,None,2022-05-25-12:08:48.650048,274.54555120001896,274.8533508000255,274.54555120001896,None,None,274.54555120001896,None,275.35555647002184,None,,,,12018,0001,2022_May_25_1204,localizer,2021.1.3,60.6882287915746,
block,objects,objects009.bmp,,,,,0,116,116,116,,,,,,,,,,,,,,,,,,,,,,,,,,,,,,,,,,,,,,,,,,None,,275.35555647002184,None,275.35555647002184,None,2022-05-25-12:08:49.472032,275.3708198000095,275.6702409000136,275.3708198000095,None,None,275.3708198000095,None,276.1702181700093,None,,,,12018,0001,2022_May_25_1204,localizer,2021.1.3,60.6882287915746,
block,objects,objects003.bmp,,,,,0,117,117,117,,,,,,,,,,,,,,,,,,,,,,,,,,,,,,,,,,,,,,,,,,None,,276.1702181700093,None,276.1702181700093,None,2022-05-25-12:08:50.283682,276.1793408000085,276.4864344000234,276.1793408000085,None,None,276.1793408000085,None,276.9879620700085,None,,,,12018,0001,2022_May_25_1204,localizer,2021.1.3,60.6882287915746,
block,objects,objects074.bmp,,,,,0,118,118,118,,,,,,,,,,,,,,,,,,,,,,,,,,,,,,,,,,,,,,,,,,None,,276.9879620700085,None,276.9879620700085,None,2022-05-25-12:08:51.102583,277.0000142000208,277.30311380000785,277.0000142000208,None,None,277.0000142000208,None,277.8035060700204,None,,,,12018,0001,2022_May_25_1204,localizer,2021.1.3,60.6882287915746,
block,objects,objects077.bmp,,,,,0,119,119,119,,,,,,,,,,,,,,,,,,,,,,,,,,,,,,,,,,,,,,,,,,None,,277.8035060700204,None,277.8035060700204,None,2022-05-25-12:08:51.917182,277.8139680000022,278.11988870002097,277.8139680000022,None,None,277.8139680000022,None,278.62019387001055,None,,,,12018,0001,2022_May_25_1204,localizer,2021.1.3,60.6882287915746,
block,objects,objects044.bmp,,,,,0,120,120,120,,,,,,,,,,,,,,,,,,,,,,,,,,,,,,,,,,,,,,,,,,None,,278.62019387001055,None,278.62019387001055,None,2022-05-25-12:08:52.733661,278.63023360000807,278.9366048000229,278.63023360000807,None,None,278.63023360000807,None,279.43658607002,None,,,,12018,0001,2022_May_25_1204,localizer,2021.1.3,60.6882287915746,
block_end,objects,objects041.bmp,,,,,0,121,121,121,,,,,,,,,,,,,,,,,,,,,,,,,,,,,,,,,,,,,,,,,,None,,279.43658607002,None,279.43658607002,None,2022-05-25-12:08:53.550056,279.44550330002676,279.75315820000833,279.44550330002676,None,None,279.44550330002676,None,280.2541754700069,None,,,,12018,0001,2022_May_25_1204,localizer,2021.1.3,60.6882287915746,
block_start,scenes,scenes018.bmp,,,,,0,122,122,122,,,,,,,,,,,,,,,,,,,,,,,,,,,,,,,,,,,,,,,,,,t,1.7443862999789417,280.2537621000083,None,280.2537621000083,None,2022-05-25-12:08:56.133587,282.03077690000646,282.3366226000071,282.03077690000646,None,None,282.03077690000646,None,282.83694337002817,None,,,,12018,0001,2022_May_25_1204,localizer,2021.1.3,60.6882287915746,
block,scenes,scenes092.bmp,,,,,0,123,123,123,,,,,,,,,,,,,,,,,,,,,,,,,,,,,,,,,,,,,,,,,,None,,282.83694337002817,None,282.83694337002817,None,2022-05-25-12:08:56.951200,282.8375344000233,283.13652170001296,282.8375344000233,None,None,282.8375344000233,None,283.6370070700068,None,,,,12018,0001,2022_May_25_1204,localizer,2021.1.3,60.6882287915746,
block,scenes,scenes015.bmp,,,,,0,124,124,124,,,,,,,,,,,,,,,,,,,,,,,,,,,,,,,,,,,,,,,,,,None,,283.6370070700068,None,283.6370070700068,None,2022-05-25-12:08:57.752701,283.6383262000163,283.9530790000281,283.6383262000163,283.6383262000163,None,283.6383262000163,283.6383262000163,284.45350087000406,None,,,,12018,0001,2022_May_25_1204,localizer,2021.1.3,60.6882287915746,
block,scenes,scenes086.bmp,,,,,0,125,125,125,,,,,,,,,,,,,,,,,,,,,,,,,,,,,,,,,,,,,,,,,,None,,284.45350087000406,None,284.45350087000406,None,2022-05-25-12:08:58.565977,284.462018500024,284.7698834000039,284.462018500024,None,None,284.462018500024,None,285.2701067700109,None,,,,12018,0001,2022_May_25_1204,localizer,2021.1.3,60.6882287915746,
block,scenes,scenes017.bmp,,,,,0,126,126,126,,,,,,,,,,,,,,,,,,,,,,,,,,,,,,,,,,,,,,,,,,None,,285.2701067700109,None,285.2701067700109,None,2022-05-25-12:08:59.383577,285.280290100025,285.58647600002587,285.280290100025,None,None,285.280290100025,None,286.0868087700219,None,,,,12018,0001,2022_May_25_1204,localizer,2021.1.3,60.6882287915746,
block,scenes,scenes004.bmp,,,,,0,127,127,127,,,,,,,,,,,,,,,,,,,,,,,,,,,,,,,,,,,,,,,,,,None,,286.0868087700219,None,286.0868087700219,None,2022-05-25-12:09:00.200274,286.10455920000095,286.42468560001,286.10455920000095,None,None,286.10455920000095,None,286.9035422700108,None,,,,12018,0001,2022_May_25_1204,localizer,2021.1.3,60.6882287915746,
block,scenes,scenes005.bmp,,,,,0,128,128,128,,,,,,,,,,,,,,,,,,,,,,,,,,,,,,,,,,,,,,,,,,None,,286.9035422700108,None,286.9035422700108,None,2022-05-25-12:09:01.017014,286.9119324000203,287.2205507000035,286.9119324000203,None,None,286.9119324000203,None,287.72028107001097,None,,,,12018,0001,2022_May_25_1204,localizer,2021.1.3,60.6882287915746,
block,scenes,scenes025.bmp,,,,,0,129,129,129,,,,,,,,,,,,,,,,,,,,,,,,,,,,,,,,,,,,,,,,,,None,,287.72028107001097,None,287.72028107001097,None,2022-05-25-12:09:01.833749,287.72081190001336,288.0206094000023,287.72081190001336,None,None,287.72081190001336,None,288.51999487000285,None,,,,12018,0001,2022_May_25_1204,localizer,2021.1.3,60.6882287915746,
block,scenes,scenes053.bmp,,,,,0,130,130,130,,,,,,,,,,,,,,,,,,,,,,,,,,,,,,,,,,,,,,,,,,None,,288.51999487000285,None,288.51999487000285,None,2022-05-25-12:09:02.635430,288.5310819000006,288.8367734000203,288.5310819000006,288.5310819000006,None,288.5310819000006,288.5310819000006,289.3368566700083,None,,,,12018,0001,2022_May_25_1204,localizer,2021.1.3,60.6882287915746,
block,scenes,scenes040.bmp,,,,,0,131,131,131,,,,,,,,,,,,,,,,,,,,,,,,,,,,,,,,,,,,,,,,,,None,,289.3368566700083,None,289.3368566700083,None,2022-05-25-12:09:03.450325,289.34700800001156,289.6536883000226,289.34700800001156,None,None,289.34700800001156,None,290.15322697002557,None,,,,12018,0001,2022_May_25_1204,localizer,2021.1.3,60.6882287915746,
block,scenes,scenes075.bmp,,,,,0,132,132,132,,,,,,,,,,,,,,,,,,,,,,,,,,,,,,,,,,,,,,,,,,None,,290.15322697002557,None,290.15322697002557,None,2022-05-25-12:09:04.265701,290.1626333000022,290.4702882000129,290.1626333000022,None,None,290.1626333000022,None,290.97062417000416,None,,,,12018,0001,2022_May_25_1204,localizer,2021.1.3,60.6882287915746,
block,scenes,scenes032.bmp,,,,,0,133,133,133,,,,,,,,,,,,,,,,,,,,,,,,,,,,,,,,,,,,,,,,,,None,,290.97062417000416,None,290.97062417000416,None,2022-05-25-12:09:05.085498,290.98299410002073,291.2873828000156,290.98299410002073,None,None,290.98299410002073,None,291.78715907002334,None,,,,12018,0001,2022_May_25_1204,localizer,2021.1.3,60.6882287915746,
block,scenes,scenes070.bmp,,,,,0,134,134,134,,,,,,,,,,,,,,,,,,,,,,,,,,,,,,,,,,,,,,,,,,None,,291.78715907002334,None,291.78715907002334,None,2022-05-25-12:09:05.900616,291.78758820000803,292.0867664000252,291.78758820000803,None,None,291.78758820000803,None,292.5870469700021,None,,,,12018,0001,2022_May_25_1204,localizer,2021.1.3,60.6882287915746,
block,scenes,scenes038.bmp,,,,,0,135,135,135,,,,,,,,,,,,,,,,,,,,,,,,,,,,,,,,,,,,,,,,,,None,,292.5870469700021,None,292.5870469700021,None,2022-05-25-12:09:06.702508,292.59571260001394,292.90280440001516,292.59571260001394,292.59571260001394,None,292.59571260001394,292.59571260001394,293.40352847002214,None,,,,12018,0001,2022_May_25_1204,localizer,2021.1.3,60.6882287915746,
block_end,scenes,scenes035.bmp,,,,,0,136,136,136,,,,,,,,,,,,,,,,,,,,,,,,,,,,,,,,,,,,,,,,,,None,,293.40352847002214,None,293.40352847002214,None,2022-05-25-12:09:07.516006,293.40465100001893,293.72006630001124,293.40465100001893,None,None,293.40465100001893,None,294.2037871700013,None,,,,12018,0001,2022_May_25_1204,localizer,2021.1.3,60.6882287915746,
null_block,null_block,null_block.bmp,,,,,0,137,137,137,,,,,,,,,,,,,,,,,,,,,,,,,,,,,,,,,,,,,,,,,,t,1.7950463999877684,294.2033040000242,None,294.2033040000242,None,2022-05-25-12:09:10.133616,296.0201453700138,None,296.0201453700138,None,None,296.0201453700138,None,296.0223160000169,None,,,,12018,0001,2022_May_25_1204,localizer,2021.1.3,60.6882287915746,
block_start,objects,objects029.bmp,,,,,0,138,138,138,,,,,,,,,,,,,,,,,,,,,,,,,,,,,,,,,,,,,,,,,,t,1.9608843000023626,308.0372198000259,None,308.0372198000259,None,2022-05-25-12:09:24.135585,310.0319429000083,310.3366050000186,310.0319429000083,None,None,310.0319429000083,None,310.8367002700106,None,,,,12018,0001,2022_May_25_1204,localizer,2021.1.3,60.6882287915746,
block,objects,objects027.bmp,,,,,0,139,139,139,,,,,,,,,,,,,,,,,,,,,,,,,,,,,,,,,,,,,,,,,,None,,310.8367002700106,None,310.8367002700106,None,2022-05-25-12:09:24.950349,310.84534440000425,311.1533067000273,310.84534440000425,None,None,310.84534440000425,None,311.6539844700019,None,,,,12018,0001,2022_May_25_1204,localizer,2021.1.3,60.6882287915746,
block,objects,objects064.bmp,,,,,0,140,140,140,,,,,,,,,,,,,,,,,,,,,,,,,,,,,,,,,,,,,,,,,,None,,311.6539844700019,None,311.6539844700019,None,2022-05-25-12:09:25.768564,311.6652979000064,311.9698527000146,311.6652979000064,None,None,311.6652979000064,None,312.4601585700002,None,,,,12018,0001,2022_May_25_1204,localizer,2021.1.3,60.6882287915746,
block,objects,objects086.bmp,,,,,0,141,141,141,,,,,,,,,,,,,,,,,,,,,,,,,,,,,,,,,,,,,,,,,,None,,312.4601585700002,None,312.4601585700002,None,2022-05-25-12:09:26.577666,312.4642815000261,312.7701085000008,312.4642815000261,None,None,312.4642815000261,None,313.2705173700233,None,,,,12018,0001,2022_May_25_1204,localizer,2021.1.3,60.6882287915746,
block,objects,objects066.bmp,,,,,0,142,142,142,,,,,,,,,,,,,,,,,,,,,,,,,,,,,,,,,,,,,,,,,,None,,313.2705173700233,None,313.2705173700233,None,2022-05-25-12:09:27.384206,313.2800563000201,313.58641290001106,313.2800563000201,None,None,313.2800563000201,None,314.0869002700201,None,,,,12018,0001,2022_May_25_1204,localizer,2021.1.3,60.6882287915746,
block,objects,objects048.bmp,,,,,0,143,143,143,,,,,,,,,,,,,,,,,,,,,,,,,,,,,,,,,,,,,,,,,,None,,314.0869002700201,None,314.0869002700201,None,2022-05-25-12:09:28.200593,314.09573970001657,314.4033090000157,314.09573970001657,None,None,314.09573970001657,None,314.9040843700059,None,,,,12018,0001,2022_May_25_1204,localizer,2021.1.3,60.6882287915746,
block,objects,objects006.bmp,,,,,0,144,144,144,,,,,,,,,,,,,,,,,,,,,,,,,,,,,,,,,,,,,,,,,,None,,314.9040843700059,None,314.9040843700059,None,2022-05-25-12:09:29.018749,314.9155921000056,315.21988620000775,314.9155921000056,None,None,314.9155921000056,None,315.72134297000594,None,,,,12018,0001,2022_May_25_1204,localizer,2021.1.3,60.6882287915746,
block,objects,objects010.bmp,,,,,0,145,145,145,,,,,,,,,,,,,,,,,,,,,,,,,,,,,,,,,,,,,,,,,,None,,315.72134297000594,None,315.72134297000594,None,2022-05-25-12:09:29.835977,315.72321390002617,316.0364698000194,315.72321390002617,None,None,315.72321390002617,None,316.5370083700109,None,,,,12018,0001,2022_May_25_1204,localizer,2021.1.3,60.6882287915746,
block,objects,objects081.bmp,,,,,0,146,146,146,,,,,,,,,,,,,,,,,,,,,,,,,,,,,,,,,,,,,,,,,,None,,316.5370083700109,None,316.5370083700109,None,2022-05-25-12:09:30.650477,316.5375187000027,316.8367406000034,316.5375187000027,None,None,316.5375187000027,None,317.33723967001424,None,,,,12018,0001,2022_May_25_1204,localizer,2021.1.3,60.6882287915746,
block,objects,objects045.bmp,,,,,0,147,147,147,,,,,,,,,,,,,,,,,,,,,,,,,,,,,,,,,,,,,,,,,,None,,317.33723967001424,None,317.33723967001424,None,2022-05-25-12:09:31.451799,317.3489620000182,317.6571643000061,317.3489620000182,317.3489620000182,None,317.3489620000182,317.3489620000182,318.1536390700203,None,,,,12018,0001,2022_May_25_1204,localizer,2021.1.3,60.6882287915746,
block,objects,objects016.bmp,,,,,0,148,148,148,,,,,,,,,,,,,,,,,,,,,,,,,,,,,,,,,,,,,,,,,,None,,318.1536390700203,None,318.1536390700203,None,2022-05-25-12:09:32.267107,318.1635313000006,318.4699587000068,318.1635313000006,None,None,318.1635313000006,None,318.9704618700198,None,,,,12018,0001,2022_May_25_1204,localizer,2021.1.3,60.6882287915746,
block,objects,objects049.bmp,,,,,0,149,149,149,,,,,,,,,,,,,,,,,,,,,,,,,,,,,,,,,,,,,,,,,,None,,318.9704618700198,None,318.9704618700198,None,2022-05-25-12:09:33.084125,318.98001790000126,319.28655640000943,318.98001790000126,None,None,318.98001790000126,None,319.78704597000615,None,,,,12018,0001,2022_May_25_1204,localizer,2021.1.3,60.6882287915746,
block,objects,objects077.bmp,,,,,0,150,150,150,,,,,,,,,,,,,,,,,,,,,,,,,,,,,,,,,,,,,,,,,,None,,319.78704597000615,None,319.78704597000615,None,2022-05-25-12:09:33.900512,319.7874877000286,320.08708590001334,319.7874877000286,None,None,319.7874877000286,None,320.5869013699994,None,,,,12018,0001,2022_May_25_1204,localizer,2021.1.3,60.6882287915746,
block,objects,objects025.bmp,,,,,0,151,151,151,,,,,,,,,,,,,,,,,,,,,,,,,,,,,,,,,,,,,,,,,,None,,320.5869013699994,None,320.5869013699994,None,2022-05-25-12:09:34.702552,320.59908090002136,320.9031267000246,320.59908090002136,320.59908090002136,None,320.59908090002136,320.59908090002136,321.40370617000735,None,,,,12018,0001,2022_May_25_1204,localizer,2021.1.3,60.6882287915746,
block_end,objects,objects041.bmp,,,,,0,152,152,152,,,,,,,,,,,,,,,,,,,,,,,,,,,,,,,,,,,,,,,,,,None,,321.40370617000735,None,321.40370617000735,None,2022-05-25-12:09:35.517173,321.4042392000265,321.70337090000976,321.4042392000265,None,None,321.4042392000265,None,322.2036194700049,None,,,,12018,0001,2022_May_25_1204,localizer,2021.1.3,60.6882287915746,
block_start,faces,faces043.bmp,,,,,0,153,153,153,,,,,,,,,,,,,,,,,,,,,,,,,,,,,,,,,,,,,,,,,,t,1.7949178999988362,322.2032541000226,None,322.2032541000226,None,2022-05-25-12:09:38.132927,324.0316601000086,324.3370456000266,324.0316601000086,None,None,324.0316601000086,None,324.8370299700182,None,,,,12018,0001,2022_May_25_1204,localizer,2021.1.3,60.6882287915746,
block,faces,faces006.bmp,,,,,0,154,154,154,,,,,,,,,,,,,,,,,,,,,,,,,,,,,,,,,,,,,,,,,,None,,324.8370299700182,None,324.8370299700182,None,2022-05-25-12:09:38.950498,324.8375851000019,325.13670290002483,324.8375851000019,None,None,324.8375851000019,None,325.6370619700174,None,,,,12018,0001,2022_May_25_1204,localizer,2021.1.3,60.6882287915746,
block,faces,faces044.bmp,,,,,0,155,155,155,,,,,,,,,,,,,,,,,,,,,,,,,,,,,,,,,,,,,,,,,,None,,325.6370619700174,None,325.6370619700174,None,2022-05-25-12:09:39.751528,325.6477985000238,325.95305630000075,325.6477985000238,325.6477985000238,None,325.6477985000238,325.6477985000238,326.4535214700154,None,,,,12018,0001,2022_May_25_1204,localizer,2021.1.3,60.6882287915746,
block,faces,faces059.bmp,,,,,0,156,156,156,,,,,,,,,,,,,,,,,,,,,,,,,,,,,,,,,,,,,,,,,,None,,326.4535214700154,None,326.4535214700154,None,2022-05-25-12:09:40.567007,326.4623629000271,326.7702847000037,326.4623629000271,None,None,326.4623629000271,None,327.2706118700153,None,,,,12018,0001,2022_May_25_1204,localizer,2021.1.3,60.6882287915746,
block,faces,faces085.bmp,,,,,0,157,157,157,,,,,,,,,,,,,,,,,,,,,,,,,,,,,,,,,,,,,,,,,,None,,327.2706118700153,None,327.2706118700153,None,2022-05-25-12:09:41.384078,327.2807915000012,327.58669980001287,327.2807915000012,None,None,327.2807915000012,None,328.0871652700007,None,,,,12018,0001,2022_May_25_1204,localizer,2021.1.3,60.6882287915746,
block,faces,faces068.bmp,,,,,0,158,158,158,,,,,,,,,,,,,,,,,,,,,,,,,,,,,,,,,,,,,,,,,,None,,328.0871652700007,None,328.0871652700007,None,2022-05-25-12:09:42.200641,328.09828970002127,328.4033927000128,328.09828970002127,None,None,328.09828970002127,None,328.90372947001015,None,,,,12018,0001,2022_May_25_1204,localizer,2021.1.3,60.6882287915746,
block,faces,faces030.bmp,,,,,0,159,159,159,,,,,,,,,,,,,,,,,,,,,,,,,,,,,,,,,,,,,,,,,,None,,328.90372947001015,None,328.90372947001015,None,2022-05-25-12:09:43.017370,328.9149000000034,329.2201492000022,328.9149000000034,None,None,328.9149000000034,None,329.720518970018,None,,,,12018,0001,2022_May_25_1204,localizer,2021.1.3,60.6882287915746,
block,faces,faces061.bmp,,,,,0,160,160,160,,,,,,,,,,,,,,,,,,,,,,,,,,,,,,,,,,,,,,,,,,None,,329.720518970018,None,329.720518970018,None,2022-05-25-12:09:43.834030,329.731519700028,330.0367332000169,329.731519700028,None,None,329.731519700028,None,330.5371684700076,None,,,,12018,0001,2022_May_25_1204,localizer,2021.1.3,60.6882287915746,
block,faces,faces054.bmp,,,,,0,161,161,161,,,,,,,,,,,,,,,,,,,,,,,,,,,,,,,,,,,,,,,,,,None,,330.5371684700076,None,330.5371684700076,None,2022-05-25-12:09:44.651094,330.5377331000054,330.8368570000166,330.5377331000054,None,None,330.5377331000054,None,331.3371453700238,None,,,,12018,0001,2022_May_25_1204,localizer,2021.1.3,60.6882287915746,
block,faces,faces031.bmp,,,,,0,162,162,162,,,,,,,,,,,,,,,,,,,,,,,,,,,,,,,,,,,,,,,,,,None,,331.3371453700238,None,331.3371453700238,None,2022-05-25-12:09:45.451957,331.33778680002433,331.6372422000277,331.33778680002433,331.33778680002433,None,331.33778680002433,331.33778680002433,332.13748917001067,None,,,,12018,0001,2022_May_25_1204,localizer,2021.1.3,60.6882287915746,
block,faces,faces065.bmp,,,,,0,163,163,163,,,,,,,,,,,,,,,,,,,,,,,,,,,,,,,,,,,,,,,,,,None,,332.13748917001067,None,332.13748917001067,None,2022-05-25-12:09:46.253979,332.16113000002224,332.4701063000248,332.16113000002224,332.16113000002224,None,332.16113000002224,332.16113000002224,332.9545794700098,None,,,,12018,0001,2022_May_25_1204,localizer,2021.1.3,60.6882287915746,
block,faces,faces001.bmp,,,,,0,164,164,164,,,,,,,,,,,,,,,,,,,,,,,,,,,,,,,,,,,,,,,,,,None,,332.9545794700098,None,332.9545794700098,None,2022-05-25-12:09:47.069055,332.96739650002564,333.27009360000375,332.96739650002564,None,None,332.96739650002564,None,333.77072787002544,None,,,,12018,0001,2022_May_25_1204,localizer,2021.1.3,60.6882287915746,
block,faces,faces087.bmp,,,,,0,165,165,165,,,,,,,,,,,,,,,,,,,,,,,,,,,,,,,,,,,,,,,,,,None,,333.77072787002544,None,333.77072787002544,None,2022-05-25-12:09:47.884418,333.77078850002727,334.0704453000217,333.77078850002727,None,None,333.77078850002727,None,334.57044237002265,None,,,,12018,0001,2022_May_25_1204,localizer,2021.1.3,60.6882287915746,
block,faces,faces008.bmp,,,,,0,166,166,166,,,,,,,,,,,,,,,,,,,,,,,,,,,,,,,,,,,,,,,,,,None,,334.57044237002265,None,334.57044237002265,None,2022-05-25-12:09:48.684908,334.5822082000086,334.88683760000276,334.5822082000086,334.5822082000086,None,334.5822082000086,334.5822082000086,335.3871351700218,None,,,,12018,0001,2022_May_25_1204,localizer,2021.1.3,60.6882287915746,
block_end,faces,faces008.bmp,,,,,0,167,167,167,,,,,,,,,,,,,,,,,,,,,,,,,,,,,,,,,,,,,,,,,,None,,335.3871351700218,None,335.3871351700218,None,2022-05-25-12:09:49.500603,335.38772950001294,335.6870498000062,335.38772950001294,None,y,335.38772950001294,None,336.18704897002317,None,0.6341473000065889,,,12018,0001,2022_May_25_1204,localizer,2021.1.3,60.6882287915746,
block_start,scrambled,scrambled011.bmp,,,,,0,168,168,168,,,,,,,,,,,,,,,,,,,,,,,,,,,,,,,,,,,,,,,,,,t,1.8114329000236467,336.1866793000081,None,336.1866793000081,None,2022-05-25-12:09:52.133187,338.0307390000089,338.3368715000106,338.0307390000089,None,None,338.0307390000089,None,338.83849917000043,None,,,,12018,0001,2022_May_25_1204,localizer,2021.1.3,60.6882287915746,
block,scrambled,scrambled009.bmp,,,,,0,169,169,169,,,,,,,,,,,,,,,,,,,,,,,,,,,,,,,,,,,,,,,,,,None,,338.83849917000043,None,338.83849917000043,None,2022-05-25-12:09:52.954418,338.85483290001866,339.15386110002873,338.85483290001866,None,None,338.85483290001866,None,339.6550672700105,None,,,,12018,0001,2022_May_25_1204,localizer,2021.1.3,60.6882287915746,
block,scrambled,scrambled060.bmp,,,,,0,170,170,170,,,,,,,,,,,,,,,,,,,,,,,,,,,,,,,,,,,,,,,,,,None,,339.6550672700105,None,339.6550672700105,None,2022-05-25-12:09:53.770490,339.6676997000177,339.97668450002675,339.6676997000177,None,None,339.6676997000177,None,340.47045547000016,None,,,,12018,0001,2022_May_25_1204,localizer,2021.1.3,60.6882287915746,
block,scrambled,scrambled014.bmp,,,,,0,171,171,171,,,,,,,,,,,,,,,,,,,,,,,,,,,,,,,,,,,,,,,,,,None,,340.47045547000016,None,340.47045547000016,None,2022-05-25-12:09:54.582988,340.47132680000504,340.770459100022,340.47132680000504,None,None,340.47132680000504,None,341.27078497002367,None,,,,12018,0001,2022_May_25_1204,localizer,2021.1.3,60.6882287915746,
block,scrambled,scrambled070.bmp,,,,,0,172,172,172,,,,,,,,,,,,,,,,,,,,,,,,,,,,,,,,,,,,,,,,,,None,,341.27078497002367,None,341.27078497002367,None,2022-05-25-12:09:55.386244,341.28421510002227,341.587008100003,341.28421510002227,341.28421510002227,None,341.28421510002227,341.28421510002227,342.086961670022,None,,,,12018,0001,2022_May_25_1204,localizer,2021.1.3,60.6882287915746,
block,scrambled,scrambled063.bmp,,,,,0,173,173,173,,,,,,,,,,,,,,,,,,,,,,,,,,,,,,,,,,,,,,,,,,None,,342.086961670022,None,342.086961670022,None,2022-05-25-12:09:56.200482,342.09607010000036,342.407325600012,342.09607010000036,None,None,342.09607010000036,None,342.9039737700077,None,,,,12018,0001,2022_May_25_1204,localizer,2021.1.3,60.6882287915746,
block,scrambled,scrambled017.bmp,,,,,0,174,174,174,,,,,,,,,,,,,,,,,,,,,,,,,,,,,,,,,,,,,,,,,,None,,342.9039737700077,None,342.9039737700077,None,2022-05-25-12:09:57.017523,342.9143310000072,343.22032160000526,342.9143310000072,None,None,342.9143310000072,None,343.7211538700212,None,,,,12018,0001,2022_May_25_1204,localizer,2021.1.3,60.6882287915746,
block,scrambled,scrambled084.bmp,,,,,0,175,175,175,,,,,,,,,,,,,,,,,,,,,,,,,,,,,,,,,,,,,,,,,,None,,343.7211538700212,None,343.7211538700212,None,2022-05-25-12:09:57.835608,343.7335792000231,344.03702540000086,343.7335792000231,None,None,343.7335792000231,None,344.5382103700249,None,,,,12018,0001,2022_May_25_1204,localizer,2021.1.3,60.6882287915746,
block,scrambled,scrambled010.bmp,,,,,0,176,176,176,,,,,,,,,,,,,,,,,,,,,,,,,,,,,,,,,,,,,,,,,,None,,344.5382103700249,None,344.5382103700249,None,2022-05-25-12:09:58.652664,344.53808230001596,344.8370255000191,344.53808230001596,None,None,344.53808230001596,None,345.3376043700264,None,,,,12018,0001,2022_May_25_1204,localizer,2021.1.3,60.6882287915746,
block,scrambled,scrambled038.bmp,,,,,0,177,177,177,,,,,,,,,,,,,,,,,,,,,,,,,,,,,,,,,,,,,,,,,,None,,345.3376043700264,None,345.3376043700264,None,2022-05-25-12:09:59.454067,345.35192040001857,345.6535919000162,345.35192040001857,345.35192040001857,None,345.35192040001857,345.35192040001857,346.15315867000027,None,,,,12018,0001,2022_May_25_1204,localizer,2021.1.3,60.6882287915746,
block,scrambled,scrambled053.bmp,,,,,0,178,178,178,,,,,,,,,,,,,,,,,,,,,,,,,,,,,,,,,,,,,,,,,,None,,346.15315867000027,None,346.15315867000027,None,2022-05-25-12:10:00.266503,346.1573118000233,346.46906530001434,346.1573118000233,None,None,346.1573118000233,None,346.9705402700056,None,,,,12018,0001,2022_May_25_1204,localizer,2021.1.3,60.6882287915746,
block,scrambled,scrambled004.bmp,,,,,0,179,179,179,,,,,,,,,,,,,,,,,,,,,,,,,,,,,,,,,,,,,,,,,,None,,346.9705402700056,None,346.9705402700056,None,2022-05-25-12:10:01.084135,346.97954710002523,347.2867715000175,346.97954710002523,None,None,346.97954710002523,None,347.78722107000067,None,,,,12018,0001,2022_May_25_1204,localizer,2021.1.3,60.6882287915746,
block,scrambled,scrambled026.bmp,,,,,0,180,180,180,,,,,,,,,,,,,,,,,,,,,,,,,,,,,,,,,,,,,,,,,,None,,347.78722107000067,None,347.78722107000067,None,2022-05-25-12:10:01.900806,347.78772580000805,348.08755880000535,347.78772580000805,None,None,347.78772580000805,None,348.5880027700041,None,,,,12018,0001,2022_May_25_1204,localizer,2021.1.3,60.6882287915746,
block,scrambled,scrambled047.bmp,,,,,0,181,181,181,,,,,,,,,,,,,,,,,,,,,,,,,,,,,,,,,,,,,,,,,,None,,348.5880027700041,None,348.5880027700041,None,2022-05-25-12:10:02.704659,348.5908246000181,348.9043036000221,348.5908246000181,348.5908246000181,None,348.5908246000181,348.5908246000181,349.404440770013,None,,,,12018,0001,2022_May_25_1204,localizer,2021.1.3,60.6882287915746,
block_end,scrambled,scrambled024.bmp,,,,,0,182,182,182,,,,,,,,,,,,,,,,,,,,,,,,,,,,,,,,,,,,,,,,,,None,,349.404440770013,None,349.404440770013,None,2022-05-25-12:10:03.516764,349.4120615000138,349.7203815000248,349.4120615000138,None,None,349.4120615000138,None,350.22072487001424,None,,,,12018,0001,2022_May_25_1204,localizer,2021.1.3,60.6882287915746,
block_start,objects,objects057.bmp,,,,,0,183,183,183,,,,,,,,,,,,,,,,,,,,,,,,,,,,,,,,,,,,,,,,,,t,1.7766806999861728,350.2203570000129,None,350.2203570000129,None,2022-05-25-12:10:06.135864,352.035781100014,352.3369923999999,352.035781100014,None,None,352.035781100014,None,352.83722407001187,None,,,,12018,0001,2022_May_25_1204,localizer,2021.1.3,60.6882287915746,
block,objects,objects046.bmp,,,,,0,184,184,184,,,,,,,,,,,,,,,,,,,,,,,,,,,,,,,,,,,,,,,,,,None,,352.83722407001187,None,352.83722407001187,None,2022-05-25-12:10:06.950692,352.83766960000503,353.1371785000083,352.83766960000503,None,None,352.83766960000503,None,353.6370300700073,None,,,,12018,0001,2022_May_25_1204,localizer,2021.1.3,60.6882287915746,
block,objects,objects039.bmp,,,,,0,185,185,185,,,,,,,,,,,,,,,,,,,,,,,,,,,,,,,,,,,,,,,,,,None,,353.6370300700073,None,353.6370300700073,None,2022-05-25-12:10:07.752665,353.64785550002125,353.95359110002755,353.64785550002125,353.64785550002125,None,353.64785550002125,353.64785550002125,354.44373347001965,None,,,,12018,0001,2022_May_25_1204,localizer,2021.1.3,60.6882287915746,
block,objects,objects065.bmp,,,,,0,186,186,186,,,,,,,,,,,,,,,,,,,,,,,,,,,,,,,,,,,,,,,,,,None,,354.44373347001965,None,354.44373347001965,None,2022-05-25-12:10:08.565071,354.46595870002056,354.7706005000218,354.46595870002056,None,None,354.46595870002056,None,355.2550776700082,None,,,,12018,0001,2022_May_25_1204,localizer,2021.1.3,60.6882287915746,
block,objects,objects045.bmp,,,,,0,187,187,187,,,,,,,,,,,,,,,,,,,,,,,,,,,,,,,,,,,,,,,,,,None,,355.2550776700082,None,355.2550776700082,None,2022-05-25-12:10:09.371398,355.26408800002537,355.5708543000219,355.26408800002537,None,None,355.26408800002537,None,356.0701721700025,None,,,,12018,0001,2022_May_25_1204,localizer,2021.1.3,60.6882287915746,
block,objects,objects076.bmp,,,,,0,188,188,188,,,,,,,,,,,,,,,,,,,,,,,,,,,,,,,,,,,,,,,,,,None,,356.0701721700025,None,356.0701721700025,None,2022-05-25-12:10:10.182654,356.078647700022,356.3873110000277,356.078647700022,None,None,356.078647700022,None,356.8883697700221,None,,,,12018,0001,2022_May_25_1204,localizer,2021.1.3,60.6882287915746,
block,objects,objects084.bmp,,,,,0,189,189,189,,,,,,,,,,,,,,,,,,,,,,,,,,,,,,,,,,,,,,,,,,None,,356.8883697700221,None,356.8883697700221,None,2022-05-25-12:10:11.003000,356.9014956000028,357.20332150001195,356.9014956000028,None,None,356.9014956000028,None,357.70506777000264,None,,,,12018,0001,2022_May_25_1204,localizer,2021.1.3,60.6882287915746,
block,objects,objects030.bmp,,,,,0,190,190,190,,,,,,,,,,,,,,,,,,,,,,,,,,,,,,,,,,,,,,,,,,None,,357.70506777000264,None,357.70506777000264,None,2022-05-25-12:10:11.820650,357.7208252000273,358.02393830000074,357.7208252000273,None,None,357.7208252000273,None,358.5206208700256,None,,,,12018,0001,2022_May_25_1204,localizer,2021.1.3,60.6882287915746,
block,objects,objects001.bmp,,,,,0,191,191,191,,,,,,,,,,,,,,,,,,,,,,,,,,,,,,,,,,,,,,,,,,None,,358.5206208700256,None,358.5206208700256,None,2022-05-25-12:10:12.634089,358.53069880002295,358.83680930000264,358.53069880002295,None,None,358.53069880002295,None,359.33787277000374,None,,,,12018,0001,2022_May_25_1204,localizer,2021.1.3,60.6882287915746,
block,objects,objects073.bmp,,,,,0,192,192,192,,,,,,,,,,,,,,,,,,,,,,,,,,,,,,,,,,,,,,,,,,None,,359.33787277000374,None,359.33787277000374,None,2022-05-25-12:10:13.452403,359.3390829000273,359.6539139000233,359.3390829000273,None,None,359.3390829000273,None,360.15381487002014,None,,,,12018,0001,2022_May_25_1204,localizer,2021.1.3,60.6882287915746,
block,objects,objects027.bmp,,,,,0,193,193,193,,,,,,,,,,,,,,,,,,,,,,,,,,,,,,,,,,,,,,,,,,None,,360.15381487002014,None,360.15381487002014,None,2022-05-25-12:10:14.267283,360.154497200012,360.45351660001324,360.154497200012,None,None,360.154497200012,None,360.9537207700196,None,,,,12018,0001,2022_May_25_1204,localizer,2021.1.3,60.6882287915746,
block,objects,objects037.bmp,,,,,0,194,194,194,,,,,,,,,,,,,,,,,,,,,,,,,,,,,,,,,,,,,,,,,,None,,360.9537207700196,None,360.9537207700196,None,2022-05-25-12:10:15.068873,360.9634811000142,361.2700549000001,360.9634811000142,360.9634811000142,None,360.9634811000142,360.9634811000142,361.77124217001256,None,,,,12018,0001,2022_May_25_1204,localizer,2021.1.3,60.6882287915746,
block,objects,objects007.bmp,,,,,0,195,195,195,,,,,,,,,,,,,,,,,,,,,,,,,,,,,,,,,,,,,,,,,,None,,361.77124217001256,None,361.77124217001256,None,2022-05-25-12:10:15.885693,361.78265580002335,362.08686020001187,361.78265580002335,None,None,361.78265580002335,None,362.5871375700226,None,,,,12018,0001,2022_May_25_1204,localizer,2021.1.3,60.6882287915746,
block,objects,objects031.bmp,,,,,0,196,196,196,,,,,,,,,,,,,,,,,,,,,,,,,,,,,,,,,,,,,,,,,,None,,362.5871375700226,None,362.5871375700226,None,2022-05-25-12:10:16.700606,362.5970426000131,362.9037002000259,362.5970426000131,None,None,362.5970426000131,None,363.40371497001615,None,,,,12018,0001,2022_May_25_1204,localizer,2021.1.3,60.6882287915746,
block_end,objects,objects018.bmp,,,,,0,197,197,197,,,,,,,,,,,,,,,,,,,,,,,,,,,,,,,,,,,,,,,,,,None,,363.40371497001615,None,363.40371497001615,None,2022-05-25-12:10:17.517183,363.4099765000283,363.7202592000249,363.4099765000283,None,None,363.4099765000283,None,364.2205316700274,None,,,,12018,0001,2022_May_25_1204,localizer,2021.1.3,60.6882287915746,
block_start,scrambled,scrambled043.bmp,,,,,0,198,198,198,,,,,,,,,,,,,,,,,,,,,,,,,,,,,,,,,,,,,,,,,,t,1.7768199999991339,364.22016820000135,None,364.22016820000135,None,2022-05-25-12:10:20.132741,366.0286095000047,366.336847700004,366.0286095000047,None,None,366.0286095000047,None,366.8380216700025,None,,,,12018,0001,2022_May_25_1204,localizer,2021.1.3,60.6882287915746,
block,scrambled,scrambled036.bmp,,,,,0,199,199,199,,,,,,,,,,,,,,,,,,,,,,,,,,,,,,,,,,,,,,,,,,None,,366.8380216700025,None,366.8380216700025,None,2022-05-25-12:10:20.952474,366.84747160002007,367.1540793000022,366.84747160002007,None,None,366.84747160002007,None,367.65389867001795,None,,,,12018,0001,2022_May_25_1204,localizer,2021.1.3,60.6882287915746,
block,scrambled,scrambled012.bmp,,,,,0,200,200,200,,,,,,,,,,,,,,,,,,,,,,,,,,,,,,,,,,,,,,,,,,None,,367.65389867001795,None,367.65389867001795,None,2022-05-25-12:10:21.767365,367.66435730000376,367.9701293000253,367.66435730000376,None,None,367.66435730000376,None,368.4705179700104,None,,,,12018,0001,2022_May_25_1204,localizer,2021.1.3,60.6882287915746,
block,scrambled,scrambled012.bmp,,,,,0,201,201,201,,,,,,,,,,,,,,,,,,,,,,,,,,,,,,,,,,,,,,,,,,None,,368.4705179700104,None,368.4705179700104,None,2022-05-25-12:10:22.583986,368.471194200014,368.77035980002256,368.471194200014,None,y,368.471194200014,None,369.2712151700107,None,0.6399173999961931,,,12018,0001,2022_May_25_1204,localizer,2021.1.3,60.6882287915746,
block,scrambled,scrambled009.bmp,,,,,0,202,202,202,,,,,,,,,,,,,,,,,,,,,,,,,,,,,,,,,,,,,,,,,,None,,369.2712151700107,None,369.2712151700107,None,2022-05-25-12:10:23.387645,369.2739319000102,369.5876656000037,369.2739319000102,369.2739319000102,None,369.2739319000102,369.2739319000102,370.08802126999944,None,,,,12018,0001,2022_May_25_1204,localizer,2021.1.3,60.6882287915746,
block,scrambled,scrambled059.bmp,,,,,0,203,203,203,,,,,,,,,,,,,,,,,,,,,,,,,,,,,,,,,,,,,,,,,,None,,370.08802126999944,None,370.08802126999944,None,2022-05-25-12:10:24.202457,370.08911820000503,370.4073297000141,370.08911820000503,None,None,370.08911820000503,None,370.9045799700252,None,,,,12018,0001,2022_May_25_1204,localizer,2021.1.3,60.6882287915746,
block,scrambled,scrambled033.bmp,,,,,0,204,204,204,,,,,,,,,,,,,,,,,,,,,,,,,,,,,,,,,,,,,,,,,,None,,370.9045799700252,None,370.9045799700252,None,2022-05-25-12:10:25.018091,370.91367530002026,371.2203551000275,370.91367530002026,None,None,370.91367530002026,None,371.72028497001156,None,,,,12018,0001,2022_May_25_1204,localizer,2021.1.3,60.6882287915746,
block,scrambled,scrambled041.bmp,,,,,0,205,205,205,,,,,,,,,,,,,,,,,,,,,,,,,,,,,,,,,,,,,,,,,,None,,371.72028497001156,None,371.72028497001156,None,2022-05-25-12:10:25.833857,371.72921230000793,372.0375992000045,371.72921230000793,None,None,371.72921230000793,None,372.5372685700131,None,,,,12018,0001,2022_May_25_1204,localizer,2021.1.3,60.6882287915746,
block,scrambled,scrambled073.bmp,,,,,0,206,206,206,,,,,,,,,,,,,,,,,,,,,,,,,,,,,,,,,,,,,,,,,,None,,372.5372685700131,None,372.5372685700131,None,2022-05-25-12:10:26.650738,372.54758430001675,372.8535878000257,372.54758430001675,None,None,372.54758430001675,None,373.35426387001644,None,,,,12018,0001,2022_May_25_1204,localizer,2021.1.3,60.6882287915746,
block,scrambled,scrambled023.bmp,,,,,0,207,207,207,,,,,,,,,,,,,,,,,,,,,,,,,,,,,,,,,,,,,,,,,,None,,373.35426387001644,None,373.35426387001644,None,2022-05-25-12:10:27.468111,373.36485210002866,373.6703413000214,373.36485210002866,None,None,373.36485210002866,None,374.1707922700152,None,,,,12018,0001,2022_May_25_1204,localizer,2021.1.3,60.6882287915746,
block,scrambled,scrambled085.bmp,,,,,0,208,208,208,,,,,,,,,,,,,,,,,,,,,,,,,,,,,,,,,,,,,,,,,,None,,374.1707922700152,None,374.1707922700152,None,2022-05-25-12:10:28.284256,374.181498400023,374.4868534000125,374.181498400023,None,None,374.181498400023,None,374.98732337000547,None,,,,12018,0001,2022_May_25_1204,localizer,2021.1.3,60.6882287915746,
block,scrambled,scrambled088.bmp,,,,,0,209,209,209,,,,,,,,,,,,,,,,,,,,,,,,,,,,,,,,,,,,,,,,,,None,,374.98732337000547,None,374.98732337000547,None,2022-05-25-12:10:29.101021,374.99787240001024,375.30366590002086,374.99787240001024,None,None,374.99787240001024,None,375.80395577001036,None,,,,12018,0001,2022_May_25_1204,localizer,2021.1.3,60.6882287915746,
block,scrambled,scrambled042.bmp,,,,,0,210,210,210,,,,,,,,,,,,,,,,,,,,,,,,,,,,,,,,,,,,,,,,,,None,,375.80395577001036,None,375.80395577001036,None,2022-05-25-12:10:29.917424,375.8147517000034,376.1202003000071,375.8147517000034,None,None,375.8147517000034,None,376.6205802700133,None,,,,12018,0001,2022_May_25_1204,localizer,2021.1.3,60.6882287915746,
block,scrambled,scrambled039.bmp,,,,,0,211,211,211,,,,,,,,,,,,,,,,,,,,,,,,,,,,,,,,,,,,,,,,,,None,,376.6205802700133,None,376.6205802700133,None,2022-05-25-12:10:30.734046,376.63095270001213,376.9401747000229,376.63095270001213,None,None,376.63095270001213,None,377.42708987000515,None,,,,12018,0001,2022_May_25_1204,localizer,2021.1.3,60.6882287915746,
block_end,scrambled,scrambled030.bmp,,,,,0,212,212,212,,,,,,,,,,,,,,,,,,,,,,,,,,,,,,,,,,,,,,,,,,None,,377.42708987000515,None,377.42708987000515,None,2022-05-25-12:10:31.548459,377.4334683000052,377.7370098000101,377.4334683000052,None,None,377.4334683000052,None,378.2398068700277,None,,,,12018,0001,2022_May_25_1204,localizer,2021.1.3,60.6882287915746,
null_block,null_block,null_block.bmp,,,,,0,213,213,213,,,,,,,,,,,,,,,,,,,,,,,,,,,,,,,,,,,,,,,,,,t,1.7568462999770418,378.2401968000049,None,378.2401968000049,None,2022-05-25-12:10:34.132700,380.02065566999954,None,380.02065566999954,None,None,380.02065566999954,None,380.0225076000206,None,,,,12018,0001,2022_May_25_1204,localizer,2021.1.3,60.6882287915746,
block_start,scenes,scenes039.bmp,,,,,0,214,214,214,,,,,,,,,,,,,,,,,,,,,,,,,,,,,,,,,,,,,,,,,,t,1.9599654999910854,392.03712500000256,None,392.03712500000256,None,2022-05-25-12:10:48.139512,394.0245493000257,394.33690760002355,394.0245493000257,None,None,394.0245493000257,None,394.8374086700205,None,,,,12018,0001,2022_May_25_1204,localizer,2021.1.3,60.6882287915746,
block,scenes,scenes077.bmp,,,,,0,215,215,215,,,,,,,,,,,,,,,,,,,,,,,,,,,,,,,,,,,,,,,,,,None,,394.8374086700205,None,394.8374086700205,None,2022-05-25-12:10:48.950877,394.84753350002575,395.1541893000249,394.84753350002575,None,None,394.84753350002575,None,395.6540433700138,None,,,,12018,0001,2022_May_25_1204,localizer,2021.1.3,60.6882287915746,
block,scenes,scenes011.bmp,,,,,0,216,216,216,,,,,,,,,,,,,,,,,,,,,,,,,,,,,,,,,,,,,,,,,,None,,395.6540433700138,None,395.6540433700138,None,2022-05-25-12:10:49.767512,395.66381430000183,395.97073430000455,395.66381430000183,None,None,395.66381430000183,None,396.4705313700251,None,,,,12018,0001,2022_May_25_1204,localizer,2021.1.3,60.6882287915746,
block,scenes,scenes023.bmp,,,,,0,217,217,217,,,,,,,,,,,,,,,,,,,,,,,,,,,,,,,,,,,,,,,,,,None,,396.4705313700251,None,396.4705313700251,None,2022-05-25-12:10:50.583007,396.471778200008,396.7704642000026,396.471778200008,None,None,396.471778200008,None,397.2709222700214,None,,,,12018,0001,2022_May_25_1204,localizer,2021.1.3,60.6882287915746,
block,scenes,scenes056.bmp,,,,,0,218,218,218,,,,,,,,,,,,,,,,,,,,,,,,,,,,,,,,,,,,,,,,,,None,,397.2709222700214,None,397.2709222700214,None,2022-05-25-12:10:51.387379,397.2735252000275,397.5870511000103,397.2735252000275,397.2735252000275,None,397.2735252000275,397.2735252000275,398.08713587000966,None,,,,12018,0001,2022_May_25_1204,localizer,2021.1.3,60.6882287915746,
block,scenes,scenes005.bmp,,,,,0,219,219,219,,,,,,,,,,,,,,,,,,,,,,,,,,,,,,,,,,,,,,,,,,None,,398.08713587000966,None,398.08713587000966,None,2022-05-25-12:10:52.200607,398.08822320000036,398.3870931000274,398.08822320000036,None,y,398.08822320000036,None,398.8873623700056,None,0.684467900020536,,,12018,0001,2022_May_25_1204,localizer,2021.1.3,60.6882287915746,
block,scenes,scenes042.bmp,,,,,0,220,220,220,,,,,,,,,,,,,,,,,,,,,,,,,,,,,,,,,,,,,,,,,,None,,398.8873623700056,None,398.8873623700056,None,2022-05-25-12:10:53.002803,398.8897996000014,399.20402550001745,398.8897996000014,398.8897996000014,None,398.8897996000014,398.8897996000014,399.7040477700066,None,,,,12018,0001,2022_May_25_1204,localizer,2021.1.3,60.6882287915746,
block,scenes,scenes086.bmp,,,,,0,221,221,221,,,,,,,,,,,,,,,,,,,,,,,,,,,,,,,,,,,,,,,,,,None,,399.7040477700066,None,399.7040477700066,None,2022-05-25-12:10:53.817516,399.704736100015,400.00359640002716,399.704736100015,None,None,399.704736100015,None,400.5039916700043,None,,,,12018,0001,2022_May_25_1204,localizer,2021.1.3,60.6882287915746,
block,scenes,scenes085.bmp,,,,,0,222,222,222,,,,,,,,,,,,,,,,,,,,,,,,,,,,,,,,,,,,,,,,,,None,,400.5039916700043,None,400.5039916700043,None,2022-05-25-12:10:54.619459,400.5157808000222,400.8216079000267,400.5157808000222,400.5157808000222,None,400.5157808000222,400.5157808000222,401.32089207001263,None,,,,12018,0001,2022_May_25_1204,localizer,2021.1.3,60.6882287915746,
block,scenes,scenes021.bmp,,,,,0,223,223,223,,,,,,,,,,,,,,,,,,,,,,,,,,,,,,,,,,,,,,,,,,None,,401.32089207001263,None,401.32089207001263,None,2022-05-25-12:10:55.434379,401.3311314000166,401.63710780002293,401.3311314000166,None,None,401.3311314000166,None,402.1380443700182,None,,,,12018,0001,2022_May_25_1204,localizer,2021.1.3,60.6882287915746,
block,scenes,scenes026.bmp,,,,,0,224,224,224,,,,,,,,,,,,,,,,,,,,,,,,,,,,,,,,,,,,,,,,,,None,,402.1380443700182,None,402.1380443700182,None,2022-05-25-12:10:56.252362,402.1385863000178,402.4414477000246,402.1385863000178,None,None,402.1385863000178,None,402.9437578700017,None,,,,12018,0001,2022_May_25_1204,localizer,2021.1.3,60.6882287915746,
block,scenes,scenes064.bmp,,,,,0,225,225,225,,,,,,,,,,,,,,,,,,,,,,,,,,,,,,,,,,,,,,,,,,None,,402.9437578700017,None,402.9437578700017,None,2022-05-25-12:10:57.060990,402.959253900015,403.27058310000575,402.959253900015,None,None,402.959253900015,None,403.75557297002524,None,,,,12018,0001,2022_May_25_1204,localizer,2021.1.3,60.6882287915746,
block,scenes,scenes033.bmp,,,,,0,226,226,226,,,,,,,,,,,,,,,,,,,,,,,,,,,,,,,,,,,,,,,,,,None,,403.75557297002524,None,403.75557297002524,None,2022-05-25-12:10:57.871442,403.7712940000056,404.0731536000094,403.7712940000056,None,None,403.7712940000056,None,404.57164307002677,None,,,,12018,0001,2022_May_25_1204,localizer,2021.1.3,60.6882287915746,
block,scenes,scenes054.bmp,,,,,0,227,227,227,,,,,,,,,,,,,,,,,,,,,,,,,,,,,,,,,,,,,,,,,,None,,404.57164307002677,None,404.57164307002677,None,2022-05-25-12:10:58.687020,404.58639140002197,404.8871327000088,404.58639140002197,None,None,404.58639140002197,None,405.3873372700182,None,,,,12018,0001,2022_May_25_1204,localizer,2021.1.3,60.6882287915746,
block_end,scenes,scenes081.bmp,,,,,0,228,228,228,,,,,,,,,,,,,,,,,,,,,,,,,,,,,,,,,,,,,,,,,,None,,405.3873372700182,None,405.3873372700182,None,2022-05-25-12:10:59.500805,405.39754760000505,405.7038730000204,405.39754760000505,None,None,405.39754760000505,None,406.2043881700083,None,,,,12018,0001,2022_May_25_1204,localizer,2021.1.3,60.6882287915746,
block_start,faces,faces024.bmp,,,,,0,229,229,229,,,,,,,,,,,,,,,,,,,,,,,,,,,,,,,,,,,,,,,,,,t,1.7924895999894943,406.2045151000202,None,406.2045151000202,None,2022-05-25-12:11:02.132586,408.0217058000271,408.32074420002755,408.0217058000271,None,None,408.0217058000271,None,408.8207721700019,None,,,,12018,0001,2022_May_25_1204,localizer,2021.1.3,60.6882287915746,
block,faces,faces015.bmp,,,,,0,230,230,230,,,,,,,,,,,,,,,,,,,,,,,,,,,,,,,,,,,,,,,,,,None,,408.8207721700019,None,408.8207721700019,None,2022-05-25-12:11:02.935238,408.82145800002036,409.1202821000188,408.82145800002036,408.82145800002036,None,408.82145800002036,408.82145800002036,409.6207771699992,None,,,,12018,0001,2022_May_25_1204,localizer,2021.1.3,60.6882287915746,
block,faces,faces022.bmp,,,,,0,231,231,231,,,,,,,,,,,,,,,,,,,,,,,,,,,,,,,,,,,,,,,,,,None,,409.6207771699992,None,409.6207771699992,None,2022-05-25-12:11:03.736241,409.63342480000574,409.94098910002504,409.63342480000574,409.63342480000574,None,409.63342480000574,409.63342480000574,410.4443610700255,None,,,,12018,0001,2022_May_25_1204,localizer,2021.1.3,60.6882287915746,
block,faces,faces067.bmp,,,,,0,232,232,232,,,,,,,,,,,,,,,,,,,,,,,,,,,,,,,,,,,,,,,,,,None,,410.4443610700255,None,410.4443610700255,None,2022-05-25-12:11:04.565698,410.46428170002764,410.7706992000167,410.46428170002764,None,None,410.46428170002764,None,411.2542546700279,None,,,,12018,0001,2022_May_25_1204,localizer,2021.1.3,60.6882287915746,
block,faces,faces085.bmp,,,,,0,233,233,233,,,,,,,,,,,,,,,,,,,,,,,,,,,,,,,,,,,,,,,,,,None,,411.2542546700279,None,411.2542546700279,None,2022-05-25-12:11:05.367720,411.2548563000164,411.55388790002326,411.2548563000164,None,None,411.2548563000164,None,412.0703596700041,None,,,,12018,0001,2022_May_25_1204,localizer,2021.1.3,60.6882287915746,
block,faces,faces021.bmp,,,,,0,234,234,234,,,,,,,,,,,,,,,,,,,,,,,,,,,,,,,,,,,,,,,,,,None,,412.0703596700041,None,412.0703596700041,None,2022-05-25-12:11:06.182834,412.07568430001265,412.3870882000192,412.07568430001265,None,None,412.07568430001265,None,412.88722817000234,None,,,,12018,0001,2022_May_25_1204,localizer,2021.1.3,60.6882287915746,
block,faces,faces089.bmp,,,,,0,235,235,235,,,,,,,,,,,,,,,,,,,,,,,,,,,,,,,,,,,,,,,,,,None,,412.88722817000234,None,412.88722817000234,None,2022-05-25-12:11:07.000698,412.89584130002186,413.20368530001724,412.89584130002186,None,None,412.89584130002186,None,413.7040772700275,None,,,,12018,0001,2022_May_25_1204,localizer,2021.1.3,60.6882287915746,
block,faces,faces043.bmp,,,,,0,236,236,236,,,,,,,,,,,,,,,,,,,,,,,,,,,,,,,,,,,,,,,,,,None,,413.7040772700275,None,413.7040772700275,None,2022-05-25-12:11:07.817097,413.7048771000118,414.0053311000229,413.7048771000118,None,None,413.7048771000118,None,414.5040127700195,None,,,,12018,0001,2022_May_25_1204,localizer,2021.1.3,60.6882287915746,
block,faces,faces042.bmp,,,,,0,237,237,237,,,,,,,,,,,,,,,,,,,,,,,,,,,,,,,,,,,,,,,,,,None,,414.5040127700195,None,414.5040127700195,None,2022-05-25-12:11:08.619474,414.5149277000164,414.820640800026,414.5149277000164,414.5149277000164,None,414.5149277000164,414.5149277000164,415.32070777000627,None,,,,12018,0001,2022_May_25_1204,localizer,2021.1.3,60.6882287915746,
block,faces,faces036.bmp,,,,,0,238,238,238,,,,,,,,,,,,,,,,,,,,,,,,,,,,,,,,,,,,,,,,,,None,,415.32070777000627,None,415.32070777000627,None,2022-05-25-12:11:09.434177,415.3214441000018,415.62055440002587,415.3214441000018,None,None,415.3214441000018,None,416.1210027699999,None,,,,12018,0001,2022_May_25_1204,localizer,2021.1.3,60.6882287915746,
block,faces,faces033.bmp,,,,,0,239,239,239,,,,,,,,,,,,,,,,,,,,,,,,,,,,,,,,,,,,,,,,,,None,,416.1210027699999,None,416.1210027699999,None,2022-05-25-12:11:10.236464,416.1417683000036,416.4409141000069,416.1417683000036,416.1417683000036,None,416.1417683000036,416.1417683000036,416.9442272700253,None,,,,12018,0001,2022_May_25_1204,localizer,2021.1.3,60.6882287915746,
block,faces,faces087.bmp,,,,,0,240,240,240,,,,,,,,,,,,,,,,,,,,,,,,,,,,,,,,,,,,,,,,,,None,,416.9442272700253,None,416.9442272700253,None,2022-05-25-12:11:11.061621,416.94830350001575,417.2535772000265,416.94830350001575,None,None,416.94830350001575,None,417.7542718700133,None,,,,12018,0001,2022_May_25_1204,localizer,2021.1.3,60.6882287915746,
block,faces,faces044.bmp,,,,,0,241,241,241,,,,,,,,,,,,,,,,,,,,,,,,,,,,,,,,,,,,,,,,,,None,,417.7542718700133,None,417.7542718700133,None,2022-05-25-12:11:11.867880,417.7548762000224,418.0604817000276,417.7548762000224,None,None,417.7548762000224,None,418.55556927001453,None,,,,12018,0001,2022_May_25_1204,localizer,2021.1.3,60.6882287915746,
block,faces,faces003.bmp,,,,,0,242,242,242,,,,,,,,,,,,,,,,,,,,,,,,,,,,,,,,,,,,,,,,,,None,,418.55556927001453,None,418.55556927001453,None,2022-05-25-12:11:12.673192,418.5593722000194,418.8711289000057,418.5593722000194,418.5593722000194,None,418.5593722000194,418.5593722000194,419.3706190700177,None,,,,12018,0001,2022_May_25_1204,localizer,2021.1.3,60.6882287915746,
block_end,faces,faces037.bmp,,,,,0,243,243,243,,,,,,,,,,,,,,,,,,,,,,,,,,,,,,,,,,,,,,,,,,None,,419.3706190700177,None,419.3706190700177,None,2022-05-25-12:11:13.483094,419.37187340002856,419.68715580002754,419.37187340002856,None,None,419.37187340002856,None,420.17223387002014,None,,,,12018,0001,2022_May_25_1204,localizer,2021.1.3,60.6882287915746,
,,,,,,,,,,,,,,,,,,,,,,,,,,,,,,,,,,,,,,,,,,,,,,,,,,,,,,,,,,,,,,,,,,,,,420.17244490000303,None,,,,,,,
