block_type,condition,img_name,Button.thisRepN,Button.thisTrialN,Button.thisN,Button.thisIndex,trials.thisRepN,trials.thisTrialN,trials.thisN,trials.thisIndex,Ready_experimenter_text.started,Ready_experimenter_text.stopped,Ready_experimenter_resp.keys,Ready_experimenter_resp.rt,Ready_experimenter_resp.started,Ready_experimenter_resp.stopped,Alignment_background.started,Alignment_background.stopped,Alignment_image.started,Alignment_image.stopped,Alignment_resp.keys,Alignment_resp.rt,Alignment_resp.started,Alignment_resp.stopped,Button_text.started,Button_text.stopped,Index_text.started,Index_text.stopped,Index_resp.keys,Index_resp.rt,Index_resp.started,Index_resp.stopped,Middle_text.started,Middle_text.stopped,Middle_resp.keys,Middle_resp.rt,Middle_resp.started,Middle_resp.stopped,Repeat_text.started,Repeat_text.stopped,Repeat_resp.keys,Repeat_resp.corr,Repeat_resp.rt,Repeat_resp.started,Repeat_resp.stopped,instruction_text.started,instruction_text.stopped,key_resp.keys,key_resp.rt,key_resp.started,key_resp.stopped,scanner_t.keys,scanner_t.rt,scanner_t.started,scanner_t.stopped,fixation_wait_for_t.started,fixation_wait_for_t.stopped,real_timestamp_trial_start,image.started,image.stopped,fixation.started,fixation.stopped,repeat_response.keys,repeat_response.started,repeat_response.stopped,fixation_null.started,fixation_null.stopped,repeat_response.rt,end_text.started,end_text.stopped,participant,run,date,expName,psychopyVersion,frameRate,
,,,,,,,,,,,11.790179700008593,None,return,469.41101429995615,11.790179700008593,None,,,,,,,,,,,,,,,,,,,,,,,,,,,,,,,,,,,,,,,,,,,,,,,,,,,,,,,12014,0002,2022_Apr_06_1437,localizer,2021.1.3,60.74898636326639,
,,,,,,,,,,,,,,,,,481.2495327000506,None,481.2495327000506,None,return,1.4149895999580622,481.2495327000506,None,,,,,,,,,,,,,,,,,,,,,,,,,,,,,,,,,,,,,,,,,,,,,,,12014,0002,2022_Apr_06_1437,localizer,2021.1.3,60.74898636326639,
,,,0,0,0,0,,,,,,,,,,,,,,,,,,,482.6789190999698,None,483.67881780001335,None,y,2.7008439999772236,483.67881780001335,None,486.3957033000188,None,b,1.489942800020799,486.3957033000188,None,487.91394620004576,None,n,0,1.5142915999749675,487.91394620004576,None,,,,,,,,,,,,,,,,,,,,,,,,,,12014,0002,2022_Apr_06_1437,localizer,2021.1.3,60.74898636326639,
,,,,,,,,,,,,,,,,,,,,,,,,,,,,,,,,,,,,,,,,,,,,,,489.44602899998426,None,y,25.047476900042966,489.44602899998426,None,,,,,,,,,,,,,,,,,,,,12014,0002,2022_Apr_06_1437,localizer,2021.1.3,60.74898636326639,
block_start,scenes,scenes043.bmp,,,,,0,0,0,0,,,,,,,,,,,,,,,,,,,,,,,,,,,,,,,,,,,,,,,,,,t,16.414923399919644,514.5345460000681,None,514.5345460000681,None,2022-04-06-14:46:20.147015,530.9802185000153,531.2796412999742,530.9802185000153,None,None,530.9802185000153,None,531.780382729997,None,,,,12014,0002,2022_Apr_06_1437,localizer,2021.1.3,60.74898636326639,
block,scenes,scenes076.bmp,,,,,0,1,1,1,,,,,,,,,,,,,,,,,,,,,,,,,,,,,,,,,,,,,,,,,,None,,531.780382729997,None,531.780382729997,None,2022-04-06-14:46:20.953821,531.7856007000664,532.096220400068,531.7856007000664,531.7856007000664,None,531.7856007000664,531.7856007000664,532.5969349300024,None,,,,12014,0002,2022_Apr_06_1437,localizer,2021.1.3,60.74898636326639,
block,scenes,scenes076.bmp,,,,,0,2,2,2,,,,,,,,,,,,,,,,,,,,,,,,,,,,,,,,,,,,,,,,,,None,,532.5969349300024,None,532.5969349300024,None,2022-04-06-14:46:21.765687,532.5973673000699,532.8965955000604,532.5973673000699,None,y,532.5973673000699,None,533.3972518300172,None,0.4851621000561863,,,12014,0002,2022_Apr_06_1437,localizer,2021.1.3,60.74898636326639,
block,scenes,scenes047.bmp,,,,,0,3,3,3,,,,,,,,,,,,,,,,,,,,,,,,,,,,,,,,,,,,,,,,,,None,,533.3972518300172,None,533.3972518300172,None,2022-04-06-14:46:22.568654,533.3988484999863,533.7134391000727,533.3988484999863,533.3988484999863,None,533.3988484999863,533.3988484999863,534.2131233300781,None,,,,12014,0002,2022_Apr_06_1437,localizer,2021.1.3,60.74898636326639,
block,scenes,scenes071.bmp,,,,,0,4,4,4,,,,,,,,,,,,,,,,,,,,,,,,,,,,,,,,,,,,,,,,,,None,,534.2131233300781,None,534.2131233300781,None,2022-04-06-14:46:23.381545,534.2138224999653,534.513247200055,534.2138224999653,None,None,534.2138224999653,None,535.0137793299975,None,,,,12014,0002,2022_Apr_06_1437,localizer,2021.1.3,60.74898636326639,
block,scenes,scenes053.bmp,,,,,0,5,5,5,,,,,,,,,,,,,,,,,,,,,,,,,,,,,,,,,,,,,,,,,,None,,535.0137793299975,None,535.0137793299975,None,2022-04-06-14:46:24.185186,535.0222180000274,535.3294503999641,535.0222180000274,535.0222180000274,None,535.0222180000274,535.0222180000274,535.8300558299991,None,,,,12014,0002,2022_Apr_06_1437,localizer,2021.1.3,60.74898636326639,
block,scenes,scenes070.bmp,,,,,0,6,6,6,,,,,,,,,,,,,,,,,,,,,,,,,,,,,,,,,,,,,,,,,,None,,535.8300558299991,None,535.8300558299991,None,2022-04-06-14:46:24.998476,535.8396450000582,536.1466049000155,535.8396450000582,None,None,535.8396450000582,None,536.6466850300087,None,,,,12014,0002,2022_Apr_06_1437,localizer,2021.1.3,60.74898636326639,
block,scenes,scenes088.bmp,,,,,0,7,7,7,,,,,,,,,,,,,,,,,,,,,,,,,,,,,,,,,,,,,,,,,,None,,536.6466850300087,None,536.6466850300087,None,2022-04-06-14:46:25.815347,536.64714190003,536.94625430007,536.64714190003,None,None,536.64714190003,None,537.4469104300254,None,,,,12014,0002,2022_Apr_06_1437,localizer,2021.1.3,60.74898636326639,
block,scenes,scenes024.bmp,,,,,0,8,8,8,,,,,,,,,,,,,,,,,,,,,,,,,,,,,,,,,,,,,,,,,,None,,537.4469104300254,None,537.4469104300254,None,2022-04-06-14:46:26.617554,537.4493193000089,537.763064000057,537.4493193000089,537.4493193000089,None,537.4493193000089,537.4493193000089,538.2633626299678,None,,,,12014,0002,2022_Apr_06_1437,localizer,2021.1.3,60.74898636326639,
block,scenes,scenes019.bmp,,,,,0,9,9,9,,,,,,,,,,,,,,,,,,,,,,,,,,,,,,,,,,,,,,,,,,None,,538.2633626299678,None,538.2633626299678,None,2022-04-06-14:46:27.431728,538.272227199981,538.579783400055,538.272227199981,None,None,538.272227199981,None,539.0800131300232,None,,,,12014,0002,2022_Apr_06_1437,localizer,2021.1.3,60.74898636326639,
block,scenes,scenes091.bmp,,,,,0,10,10,10,,,,,,,,,,,,,,,,,,,,,,,,,,,,,,,,,,,,,,,,,,None,,539.0800131300232,None,539.0800131300232,None,2022-04-06-14:46:28.248435,539.0804858000483,539.3799360999838,539.0804858000483,None,None,539.0804858000483,None,539.8806888299762,None,,,,12014,0002,2022_Apr_06_1437,localizer,2021.1.3,60.74898636326639,
block,scenes,scenes087.bmp,,,,,0,11,11,11,,,,,,,,,,,,,,,,,,,,,,,,,,,,,,,,,,,,,,,,,,None,,539.8806888299762,None,539.8806888299762,None,2022-04-06-14:46:29.051944,539.8937508000527,540.196393399965,539.8937508000527,539.8937508000527,None,539.8937508000527,539.8937508000527,540.698053229996,None,,,,12014,0002,2022_Apr_06_1437,localizer,2021.1.3,60.74898636326639,
block,scenes,scenes041.bmp,,,,,0,12,12,12,,,,,,,,,,,,,,,,,,,,,,,,,,,,,,,,,,,,,,,,,,None,,540.698053229996,None,540.698053229996,None,2022-04-06-14:46:29.867454,540.7097453000024,541.0151386000216,540.7097453000024,None,None,540.7097453000024,None,541.5140744300327,None,,,,12014,0002,2022_Apr_06_1437,localizer,2021.1.3,60.74898636326639,
block,scenes,scenes067.bmp,,,,,0,13,13,13,,,,,,,,,,,,,,,,,,,,,,,,,,,,,,,,,,,,,,,,,,None,,541.5140744300327,None,541.5140744300327,None,2022-04-06-14:46:30.683566,541.5255793000106,541.8297137999907,541.5255793000106,None,None,541.5255793000106,None,542.330076230038,None,,,,12014,0002,2022_Apr_06_1437,localizer,2021.1.3,60.74898636326639,
block_end,scenes,scenes011.bmp,,,,,0,14,14,14,,,,,,,,,,,,,,,,,,,,,,,,,,,,,,,,,,,,,,,,,,None,,542.330076230038,None,542.330076230038,None,2022-04-06-14:46:31.499098,542.3305112000089,542.6452890000073,542.3305112000089,None,None,542.3305112000089,None,543.1300959300017,None,,,,12014,0002,2022_Apr_06_1437,localizer,2021.1.3,60.74898636326639,
block_start,scrambled,scrambled026.bmp,,,,,0,15,15,15,,,,,,,,,,,,,,,,,,,,,,,,,,,,,,,,,,,,,,,,,,t,1.8207383000990376,543.1296092000557,None,543.1296092000557,None,2022-04-06-14:46:34.159116,545.0028753000079,545.3129171000328,545.0028753000079,None,None,545.0028753000079,None,545.7967609300279,None,,,,12014,0002,2022_Apr_06_1437,localizer,2021.1.3,60.74898636326639,
block,scrambled,scrambled077.bmp,,,,,0,16,16,16,,,,,,,,,,,,,,,,,,,,,,,,,,,,,,,,,,,,,,,,,,None,,545.7967609300279,None,545.7967609300279,None,2022-04-06-14:46:34.965183,545.8063079999993,546.1132116999943,545.8063079999993,None,None,545.8063079999993,None,546.6136854300742,None,,,,12014,0002,2022_Apr_06_1437,localizer,2021.1.3,60.74898636326639,
block,scrambled,scrambled010.bmp,,,,,0,17,17,17,,,,,,,,,,,,,,,,,,,,,,,,,,,,,,,,,,,,,,,,,,None,,546.6136854300742,None,546.6136854300742,None,2022-04-06-14:46:35.782315,546.624213400064,546.9295660000062,546.624213400064,None,None,546.624213400064,None,547.430204230058,None,,,,12014,0002,2022_Apr_06_1437,localizer,2021.1.3,60.74898636326639,
block,scrambled,scrambled047.bmp,,,,,0,18,18,18,,,,,,,,,,,,,,,,,,,,,,,,,,,,,,,,,,,,,,,,,,None,,547.430204230058,None,547.430204230058,None,2022-04-06-14:46:36.598865,547.4306090000318,547.7296590000624,547.4306090000318,None,None,547.4306090000318,None,548.2296463300474,None,,,,12014,0002,2022_Apr_06_1437,localizer,2021.1.3,60.74898636326639,
block,scrambled,scrambled023.bmp,,,,,0,19,19,19,,,,,,,,,,,,,,,,,,,,,,,,,,,,,,,,,,,,,,,,,,None,,548.2296463300474,None,548.2296463300474,None,2022-04-06-14:46:37.399660,548.2305228000041,548.529550199979,548.2305228000041,548.2305228000041,None,548.2305228000041,548.2305228000041,549.0299711300061,None,,,,12014,0002,2022_Apr_06_1437,localizer,2021.1.3,60.74898636326639,
block,scrambled,scrambled001.bmp,,,,,0,20,20,20,,,,,,,,,,,,,,,,,,,,,,,,,,,,,,,,,,,,,,,,,,None,,549.0299711300061,None,549.0299711300061,None,2022-04-06-14:46:38.200561,549.039735600003,549.3463238000404,549.039735600003,549.039735600003,None,549.039735600003,549.039735600003,549.8468095299788,None,,,,12014,0002,2022_Apr_06_1437,localizer,2021.1.3,60.74898636326639,
block,scrambled,scrambled050.bmp,,,,,0,21,21,21,,,,,,,,,,,,,,,,,,,,,,,,,,,,,,,,,,,,,,,,,,None,,549.8468095299788,None,549.8468095299788,None,2022-04-06-14:46:39.015229,549.8472130000591,550.146142099984,549.8472130000591,None,None,549.8472130000591,None,550.6467487300281,None,,,,12014,0002,2022_Apr_06_1437,localizer,2021.1.3,60.74898636326639,
block,scrambled,scrambled052.bmp,,,,,0,22,22,22,,,,,,,,,,,,,,,,,,,,,,,,,,,,,,,,,,,,,,,,,,None,,550.6467487300281,None,550.6467487300281,None,2022-04-06-14:46:39.817374,550.6589673999697,550.9628789999988,550.6589673999697,550.6589673999697,None,550.6589673999697,550.6589673999697,551.463340029982,None,,,,12014,0002,2022_Apr_06_1437,localizer,2021.1.3,60.74898636326639,
block,scrambled,scrambled021.bmp,,,,,0,23,23,23,,,,,,,,,,,,,,,,,,,,,,,,,,,,,,,,,,,,,,,,,,None,,551.463340029982,None,551.463340029982,None,2022-04-06-14:46:40.632061,551.4640512999613,551.7630864999956,551.4640512999613,None,None,551.4640512999613,None,552.2635374300182,None,,,,12014,0002,2022_Apr_06_1437,localizer,2021.1.3,60.74898636326639,
block,scrambled,scrambled044.bmp,,,,,0,24,24,24,,,,,,,,,,,,,,,,,,,,,,,,,,,,,,,,,,,,,,,,,,None,,552.2635374300182,None,552.2635374300182,None,2022-04-06-14:46:41.434158,552.2750667000655,552.5797210000455,552.2750667000655,552.2750667000655,None,552.2750667000655,552.2750667000655,553.0802166300593,None,,,,12014,0002,2022_Apr_06_1437,localizer,2021.1.3,60.74898636326639,
block,scrambled,scrambled032.bmp,,,,,0,25,25,25,,,,,,,,,,,,,,,,,,,,,,,,,,,,,,,,,,,,,,,,,,None,,553.0802166300593,None,553.0802166300593,None,2022-04-06-14:46:42.248638,553.0894977999851,553.3964519000147,553.0894977999851,None,None,553.0894977999851,None,553.8976064300398,None,,,,12014,0002,2022_Apr_06_1437,localizer,2021.1.3,60.74898636326639,
block,scrambled,scrambled007.bmp,,,,,0,26,26,26,,,,,,,,,,,,,,,,,,,,,,,,,,,,,,,,,,,,,,,,,,None,,553.8976064300398,None,553.8976064300398,None,2022-04-06-14:46:43.066025,553.9056683999952,554.2133188999724,553.9056683999952,None,None,553.9056683999952,None,554.7147678300273,None,,,,12014,0002,2022_Apr_06_1437,localizer,2021.1.3,60.74898636326639,
block,scrambled,scrambled070.bmp,,,,,0,27,27,27,,,,,,,,,,,,,,,,,,,,,,,,,,,,,,,,,,,,,,,,,,None,,554.7147678300273,None,554.7147678300273,None,2022-04-06-14:46:43.885355,554.7284568999894,555.0296300000045,554.7284568999894,None,None,554.7284568999894,None,555.530089229974,None,,,,12014,0002,2022_Apr_06_1437,localizer,2021.1.3,60.74898636326639,
block,scrambled,scrambled020.bmp,,,,,0,28,28,28,,,,,,,,,,,,,,,,,,,,,,,,,,,,,,,,,,,,,,,,,,None,,555.530089229974,None,555.530089229974,None,2022-04-06-14:46:44.698762,555.5304590000305,555.8298717000289,555.5304590000305,None,None,555.5304590000305,None,556.3303375300486,None,,,,12014,0002,2022_Apr_06_1437,localizer,2021.1.3,60.74898636326639,
block_end,scrambled,scrambled073.bmp,,,,,0,29,29,29,,,,,,,,,,,,,,,,,,,,,,,,,,,,,,,,,,,,,,,,,,None,,556.3303375300486,None,556.3303375300486,None,2022-04-06-14:46:45.500885,556.3326991000213,556.6470675000455,556.3326991000213,556.3326991000213,None,556.3326991000213,556.3326991000213,557.1472982300213,None,,,,12014,0002,2022_Apr_06_1437,localizer,2021.1.3,60.74898636326639,
block_start,objects,objects029.bmp,,,,,0,30,30,30,,,,,,,,,,,,,,,,,,,,,,,,,,,,,,,,,,,,,,,,,,t,1.8028089998988435,557.1469588000327,None,557.1469588000327,None,2022-04-06-14:46:48.147315,558.9871408999898,559.2964175000088,558.9871408999898,None,None,558.9871408999898,None,559.8032884300221,None,,,,12014,0002,2022_Apr_06_1437,localizer,2021.1.3,60.74898636326639,
block,objects,objects079.bmp,,,,,0,31,31,31,,,,,,,,,,,,,,,,,,,,,,,,,,,,,,,,,,,,,,,,,,None,,559.8032884300221,None,559.8032884300221,None,2022-04-06-14:46:48.980974,559.8148671999807,560.1137224000413,559.8148671999807,None,None,559.8148671999807,None,560.6134298299905,None,,,,12014,0002,2022_Apr_06_1437,localizer,2021.1.3,60.74898636326639,
block,objects,objects084.bmp,,,,,0,32,32,32,,,,,,,,,,,,,,,,,,,,,,,,,,,,,,,,,,,,,,,,,,None,,560.6134298299905,None,560.6134298299905,None,2022-04-06-14:46:49.781847,560.6141461000079,560.9361759000458,560.6141461000079,None,None,560.6141461000079,None,561.4137363300426,None,,,,12014,0002,2022_Apr_06_1437,localizer,2021.1.3,60.74898636326639,
block,objects,objects083.bmp,,,,,0,33,33,33,,,,,,,,,,,,,,,,,,,,,,,,,,,,,,,,,,,,,,,,,,None,,561.4137363300426,None,561.4137363300426,None,2022-04-06-14:46:50.584120,561.4260829000268,561.7299202000722,561.4260829000268,561.4260829000268,None,561.4260829000268,561.4260829000268,562.2303481300362,None,,,,12014,0002,2022_Apr_06_1437,localizer,2021.1.3,60.74898636326639,
block,objects,objects027.bmp,,,,,0,34,34,34,,,,,,,,,,,,,,,,,,,,,,,,,,,,,,,,,,,,,,,,,,None,,562.2303481300362,None,562.2303481300362,None,2022-04-06-14:46:51.399006,562.2400145999854,562.5463915000437,562.2400145999854,None,None,562.2400145999854,None,563.0467463300331,None,,,,12014,0002,2022_Apr_06_1437,localizer,2021.1.3,60.74898636326639,
block,objects,objects044.bmp,,,,,0,35,35,35,,,,,,,,,,,,,,,,,,,,,,,,,,,,,,,,,,,,,,,,,,None,,563.0467463300331,None,563.0467463300331,None,2022-04-06-14:46:52.215116,563.0473066000268,563.3468257000204,563.0473066000268,None,None,563.0473066000268,None,563.8473107300699,None,,,,12014,0002,2022_Apr_06_1437,localizer,2021.1.3,60.74898636326639,
block,objects,objects068.bmp,,,,,0,36,36,36,,,,,,,,,,,,,,,,,,,,,,,,,,,,,,,,,,,,,,,,,,None,,563.8473107300699,None,563.8473107300699,None,2022-04-06-14:46:53.017919,563.8488496000646,564.1635765000246,563.8488496000646,563.8488496000646,None,563.8488496000646,563.8488496000646,564.6639778300189,None,,,,12014,0002,2022_Apr_06_1437,localizer,2021.1.3,60.74898636326639,
block,objects,objects058.bmp,,,,,0,37,37,37,,,,,,,,,,,,,,,,,,,,,,,,,,,,,,,,,,,,,,,,,,None,,564.6639778300189,None,564.6639778300189,None,2022-04-06-14:46:53.832590,564.6644194000401,564.9636096999748,564.6644194000401,None,None,564.6644194000401,None,565.4639665299794,None,,,,12014,0002,2022_Apr_06_1437,localizer,2021.1.3,60.74898636326639,
block,objects,objects082.bmp,,,,,0,38,38,38,,,,,,,,,,,,,,,,,,,,,,,,,,,,,,,,,,,,,,,,,,None,,565.4639665299794,None,565.4639665299794,None,2022-04-06-14:46:54.635575,565.4748248000396,565.7796840000665,565.4748248000396,565.4748248000396,None,565.4748248000396,565.4748248000396,566.2803571300349,None,,,,12014,0002,2022_Apr_06_1437,localizer,2021.1.3,60.74898636326639,
block,objects,objects073.bmp,,,,,0,39,39,39,,,,,,,,,,,,,,,,,,,,,,,,,,,,,,,,,,,,,,,,,,None,,566.2803571300349,None,566.2803571300349,None,2022-04-06-14:46:55.448774,566.280710299965,566.5797928000102,566.280710299965,None,None,566.280710299965,None,567.0801843300462,None,,,,12014,0002,2022_Apr_06_1437,localizer,2021.1.3,60.74898636326639,
block,objects,objects001.bmp,,,,,0,40,40,40,,,,,,,,,,,,,,,,,,,,,,,,,,,,,,,,,,,,,,,,,,None,,567.0801843300462,None,567.0801843300462,None,2022-04-06-14:46:56.250599,567.0909354999894,567.3966674000258,567.0909354999894,567.0909354999894,None,567.0909354999894,567.0909354999894,567.8969489300391,None,,,,12014,0002,2022_Apr_06_1437,localizer,2021.1.3,60.74898636326639,
block,objects,objects066.bmp,,,,,0,41,41,41,,,,,,,,,,,,,,,,,,,,,,,,,,,,,,,,,,,,,,,,,,None,,567.8969489300391,None,567.8969489300391,None,2022-04-06-14:46:57.065369,567.9062676000176,568.2132102999603,567.9062676000176,None,None,567.9062676000176,None,568.7132859300357,None,,,,12014,0002,2022_Apr_06_1437,localizer,2021.1.3,60.74898636326639,
block,objects,objects021.bmp,,,,,0,42,42,42,,,,,,,,,,,,,,,,,,,,,,,,,,,,,,,,,,,,,,,,,,None,,568.7132859300357,None,568.7132859300357,None,2022-04-06-14:46:57.881928,568.7224384000292,569.0295018999605,568.7224384000292,None,None,568.7224384000292,None,569.5311348300195,None,,,,12014,0002,2022_Apr_06_1437,localizer,2021.1.3,60.74898636326639,
block,objects,objects050.bmp,,,,,0,43,43,43,,,,,,,,,,,,,,,,,,,,,,,,,,,,,,,,,,,,,,,,,,None,,569.5311348300195,None,569.5311348300195,None,2022-04-06-14:46:58.701730,569.539529300062,569.846470199991,569.539529300062,None,None,569.539529300062,None,570.3470368300798,None,,,,12014,0002,2022_Apr_06_1437,localizer,2021.1.3,60.74898636326639,
block_end,objects,objects086.bmp,,,,,0,44,44,44,,,,,,,,,,,,,,,,,,,,,,,,,,,,,,,,,,,,,,,,,,None,,570.3470368300798,None,570.3470368300798,None,2022-04-06-14:46:59.515592,570.3517442999873,570.6632613000693,570.3517442999873,None,None,570.3517442999873,None,571.1642436300638,None,,,,12014,0002,2022_Apr_06_1437,localizer,2021.1.3,60.74898636326639,
null_block,null_block,null_block.bmp,,,,,0,45,45,45,,,,,,,,,,,,,,,,,,,,,,,,,,,,,,,,,,,,,,,,,,t,1.7863264000043273,571.1637814000715,None,571.1637814000715,None,2022-04-06-14:47:02.140392,572.9699997300515,None,572.9699997300515,None,None,572.9699997300515,None,572.9782050000504,None,,,,12014,0002,2022_Apr_06_1437,localizer,2021.1.3,60.74898636326639,
block_start,faces,faces047.bmp,,,,,0,46,46,46,,,,,,,,,,,,,,,,,,,,,,,,,,,,,,,,,,,,,,,,,,t,1.9694219999946654,584.980357100023,None,584.980357100023,None,2022-04-06-14:47:16.150196,586.9964427000377,587.2964359000325,586.9964427000377,None,None,586.9964427000377,None,587.796864029998,None,,,,12014,0002,2022_Apr_06_1437,localizer,2021.1.3,60.74898636326639,
block,faces,faces043.bmp,,,,,0,47,47,47,,,,,,,,,,,,,,,,,,,,,,,,,,,,,,,,,,,,,,,,,,None,,587.796864029998,None,587.796864029998,None,2022-04-06-14:47:16.965284,587.8075851000613,588.1136006000452,587.8075851000613,None,None,587.8075851000613,None,588.6140295300168,None,,,,12014,0002,2022_Apr_06_1437,localizer,2021.1.3,60.74898636326639,
block,faces,faces015.bmp,,,,,0,48,48,48,,,,,,,,,,,,,,,,,,,,,,,,,,,,,,,,,,,,,,,,,,None,,588.6140295300168,None,588.6140295300168,None,2022-04-06-14:47:17.782624,588.6143034000415,588.9136372000212,588.6143034000415,None,None,588.6143034000415,None,589.4140547300224,None,,,,12014,0002,2022_Apr_06_1437,localizer,2021.1.3,60.74898636326639,
block,faces,faces007.bmp,,,,,0,49,49,49,,,,,,,,,,,,,,,,,,,,,,,,,,,,,,,,,,,,,,,,,,None,,589.4140547300224,None,589.4140547300224,None,2022-04-06-14:47:18.585462,589.4272884000093,589.7308493000455,589.4272884000093,589.4272884000093,None,589.4272884000093,589.4272884000093,590.2304949299898,None,,,,12014,0002,2022_Apr_06_1437,localizer,2021.1.3,60.74898636326639,
block,faces,faces061.bmp,,,,,0,50,50,50,,,,,,,,,,,,,,,,,,,,,,,,,,,,,,,,,,,,,,,,,,None,,590.2304949299898,None,590.2304949299898,None,2022-04-06-14:47:19.399040,590.2309239000315,590.529933999991,590.2309239000315,None,None,590.2309239000315,None,591.0304418299813,None,,,,12014,0002,2022_Apr_06_1437,localizer,2021.1.3,60.74898636326639,
block,faces,faces079.bmp,,,,,0,51,51,51,,,,,,,,,,,,,,,,,,,,,,,,,,,,,,,,,,,,,,,,,,None,,591.0304418299813,None,591.0304418299813,None,2022-04-06-14:47:20.199859,591.0308643999742,591.3299886999885,591.0308643999742,591.0308643999742,None,591.0308643999742,591.0308643999742,591.8303913299926,None,,,,12014,0002,2022_Apr_06_1437,localizer,2021.1.3,60.74898636326639,
block,faces,faces002.bmp,,,,,0,52,52,52,,,,,,,,,,,,,,,,,,,,,,,,,,,,,,,,,,,,,,,,,,None,,591.8303913299926,None,591.8303913299926,None,2022-04-06-14:47:20.999811,591.8419857000699,592.1466625999892,591.8419857000699,591.8419857000699,None,591.8419857000699,591.8419857000699,592.6471501300578,None,,,,12014,0002,2022_Apr_06_1437,localizer,2021.1.3,60.74898636326639,
block,faces,faces066.bmp,,,,,0,53,53,53,,,,,,,,,,,,,,,,,,,,,,,,,,,,,,,,,,,,,,,,,,None,,592.6471501300578,None,592.6471501300578,None,2022-04-06-14:47:21.815610,592.6475453000749,592.9465120000532,592.6475453000749,None,None,592.6475453000749,None,593.4468075300567,None,,,,12014,0002,2022_Apr_06_1437,localizer,2021.1.3,60.74898636326639,
block,faces,faces071.bmp,,,,,0,54,54,54,,,,,,,,,,,,,,,,,,,,,,,,,,,,,,,,,,,,,,,,,,None,,593.4468075300567,None,593.4468075300567,None,2022-04-06-14:47:22.616231,593.4566659000702,593.763232300058,593.4566659000702,593.4566659000702,None,593.4566659000702,593.4566659000702,594.2636883300031,None,,,,12014,0002,2022_Apr_06_1437,localizer,2021.1.3,60.74898636326639,
block,faces,faces029.bmp,,,,,0,55,55,55,,,,,,,,,,,,,,,,,,,,,,,,,,,,,,,,,,,,,,,,,,None,,594.2636883300031,None,594.2636883300031,None,2022-04-06-14:47:23.432304,594.2748493000399,594.5799534000689,594.2748493000399,None,None,594.2748493000399,None,595.0810980300187,None,,,,12014,0002,2022_Apr_06_1437,localizer,2021.1.3,60.74898636326639,
block,faces,faces059.bmp,,,,,0,56,56,56,,,,,,,,,,,,,,,,,,,,,,,,,,,,,,,,,,,,,,,,,,None,,595.0810980300187,None,595.0810980300187,None,2022-04-06-14:47:24.250533,595.0814205000643,595.3802594000008,595.0814205000643,None,None,595.0814205000643,None,595.8804640300107,None,,,,12014,0002,2022_Apr_06_1437,localizer,2021.1.3,60.74898636326639,
block,faces,faces006.bmp,,,,,0,57,57,57,,,,,,,,,,,,,,,,,,,,,,,,,,,,,,,,,,,,,,,,,,None,,595.8804640300107,None,595.8804640300107,None,2022-04-06-14:47:25.051106,595.8815694999648,596.1803413999733,595.8815694999648,595.8815694999648,None,595.8815694999648,595.8815694999648,596.6813420299907,None,,,,12014,0002,2022_Apr_06_1437,localizer,2021.1.3,60.74898636326639,
block,faces,faces064.bmp,,,,,0,58,58,58,,,,,,,,,,,,,,,,,,,,,,,,,,,,,,,,,,,,,,,,,,None,,596.6813420299907,None,596.6813420299907,None,2022-04-06-14:47:25.852745,596.6949658000376,596.9964777000714,596.6949658000376,596.6949658000376,None,596.6949658000376,596.6949658000376,597.496942330082,None,,,,12014,0002,2022_Apr_06_1437,localizer,2021.1.3,60.74898636326639,
block,faces,faces073.bmp,,,,,0,59,59,59,,,,,,,,,,,,,,,,,,,,,,,,,,,,,,,,,,,,,,,,,,None,,597.496942330082,None,597.496942330082,None,2022-04-06-14:47:26.665148,597.5059253000654,597.8132716000546,597.5059253000654,None,None,597.5059253000654,None,598.3138400300406,None,,,,12014,0002,2022_Apr_06_1437,localizer,2021.1.3,60.74898636326639,
block_end,faces,faces068.bmp,,,,,0,60,60,60,,,,,,,,,,,,,,,,,,,,,,,,,,,,,,,,,,,,,,,,,,None,,598.3138400300406,None,598.3138400300406,None,2022-04-06-14:47:27.482299,598.3249631000217,598.6300531000597,598.3249631000217,None,None,598.3249631000217,None,599.1302800300066,None,,,,12014,0002,2022_Apr_06_1437,localizer,2021.1.3,60.74898636326639,
block_start,scrambled,scrambled027.bmp,,,,,0,61,61,61,,,,,,,,,,,,,,,,,,,,,,,,,,,,,,,,,,,,,,,,,,t,1.8194660999579355,599.1295120000141,None,599.1295120000141,None,2022-04-06-14:47:30.140846,600.9712274000049,601.2802493000636,600.9712274000049,None,None,600.9712274000049,None,601.7806085299701,None,,,,12014,0002,2022_Apr_06_1437,localizer,2021.1.3,60.74898636326639,
block,scrambled,scrambled037.bmp,,,,,0,62,62,62,,,,,,,,,,,,,,,,,,,,,,,,,,,,,,,,,,,,,,,,,,None,,601.7806085299701,None,601.7806085299701,None,2022-04-06-14:47:30.949069,601.7809983000625,602.0797036000295,601.7809983000625,None,None,601.7809983000625,None,602.5804275300354,None,,,,12014,0002,2022_Apr_06_1437,localizer,2021.1.3,60.74898636326639,
block,scrambled,scrambled057.bmp,,,,,0,63,63,63,,,,,,,,,,,,,,,,,,,,,,,,,,,,,,,,,,,,,,,,,,None,,602.5804275300354,None,602.5804275300354,None,2022-04-06-14:47:31.749848,602.5911349999951,602.8964819000103,602.5911349999951,602.5911349999951,None,602.5911349999951,602.5911349999951,603.3974817300216,None,,,,12014,0002,2022_Apr_06_1437,localizer,2021.1.3,60.74898636326639,
block,scrambled,scrambled036.bmp,,,,,0,64,64,64,,,,,,,,,,,,,,,,,,,,,,,,,,,,,,,,,,,,,,,,,,None,,603.3974817300216,None,603.3974817300216,None,2022-04-06-14:47:32.565957,603.4075047000078,603.7136773000238,603.4075047000078,None,None,603.4075047000078,None,604.2138288299786,None,,,,12014,0002,2022_Apr_06_1437,localizer,2021.1.3,60.74898636326639,
block,scrambled,scrambled015.bmp,,,,,0,65,65,65,,,,,,,,,,,,,,,,,,,,,,,,,,,,,,,,,,,,,,,,,,None,,604.2138288299786,None,604.2138288299786,None,2022-04-06-14:47:33.382250,604.2142616000492,604.5134161000606,604.2142616000492,None,None,604.2142616000492,None,605.0138267300092,None,,,,12014,0002,2022_Apr_06_1437,localizer,2021.1.3,60.74898636326639,
block,scrambled,scrambled071.bmp,,,,,0,66,66,66,,,,,,,,,,,,,,,,,,,,,,,,,,,,,,,,,,,,,,,,,,None,,605.0138267300092,None,605.0138267300092,None,2022-04-06-14:47:34.183815,605.0155265000649,605.329920600052,605.0155265000649,605.0155265000649,None,605.0155265000649,605.0155265000649,605.8305170300184,None,,,,12014,0002,2022_Apr_06_1437,localizer,2021.1.3,60.74898636326639,
block,scrambled,scrambled019.bmp,,,,,0,67,67,67,,,,,,,,,,,,,,,,,,,,,,,,,,,,,,,,,,,,,,,,,,None,,605.8305170300184,None,605.8305170300184,None,2022-04-06-14:47:34.998938,605.8308323000092,606.1304133000085,605.8308323000092,None,None,605.8308323000092,None,606.6308485300281,None,,,,12014,0002,2022_Apr_06_1437,localizer,2021.1.3,60.74898636326639,
block,scrambled,scrambled088.bmp,,,,,0,68,68,68,,,,,,,,,,,,,,,,,,,,,,,,,,,,,,,,,,,,,,,,,,None,,606.6308485300281,None,606.6308485300281,None,2022-04-06-14:47:35.802256,606.6329119000584,606.9467543000355,606.6329119000584,606.6329119000584,None,606.6329119000584,606.6329119000584,607.4474545299774,None,,,,12014,0002,2022_Apr_06_1437,localizer,2021.1.3,60.74898636326639,
block,scrambled,scrambled039.bmp,,,,,0,69,69,69,,,,,,,,,,,,,,,,,,,,,,,,,,,,,,,,,,,,,,,,,,None,,607.4474545299774,None,607.4474545299774,None,2022-04-06-14:47:36.615919,607.4477092999732,607.747082100017,607.4477092999732,None,None,607.4477092999732,None,608.2482981300448,None,,,,12014,0002,2022_Apr_06_1437,localizer,2021.1.3,60.74898636326639,
block,scrambled,scrambled048.bmp,,,,,0,70,70,70,,,,,,,,,,,,,,,,,,,,,,,,,,,,,,,,,,,,,,,,,,None,,608.2482981300448,None,608.2482981300448,None,2022-04-06-14:47:37.421689,608.2638790999772,608.5641430000542,608.2638790999772,608.2638790999772,None,608.2638790999772,608.2638790999772,609.0644655300305,None,,,,12014,0002,2022_Apr_06_1437,localizer,2021.1.3,60.74898636326639,
block,scrambled,scrambled016.bmp,,,,,0,71,71,71,,,,,,,,,,,,,,,,,,,,,,,,,,,,,,,,,,,,,,,,,,None,,609.0644655300305,None,609.0644655300305,None,2022-04-06-14:47:38.234053,609.071143600042,609.3801181999734,609.071143600042,None,None,609.071143600042,None,609.8807613300626,None,,,,12014,0002,2022_Apr_06_1437,localizer,2021.1.3,60.74898636326639,
block,scrambled,scrambled008.bmp,,,,,0,72,72,72,,,,,,,,,,,,,,,,,,,,,,,,,,,,,,,,,,,,,,,,,,None,,609.8807613300626,None,609.8807613300626,None,2022-04-06-14:47:39.049179,609.886305800057,610.1968655000674,609.886305800057,None,None,609.886305800057,None,610.6984342299868,None,,,,12014,0002,2022_Apr_06_1437,localizer,2021.1.3,60.74898636326639,
block,scrambled,scrambled063.bmp,,,,,0,73,73,73,,,,,,,,,,,,,,,,,,,,,,,,,,,,,,,,,,,,,,,,,,None,,610.6984342299868,None,610.6984342299868,None,2022-04-06-14:47:39.869022,610.7012445,611.0141676999629,610.7012445,None,None,610.7012445,None,611.5138372299728,None,,,,12014,0002,2022_Apr_06_1437,localizer,2021.1.3,60.74898636326639,
block,scrambled,scrambled044.bmp,,,,,0,74,74,74,,,,,,,,,,,,,,,,,,,,,,,,,,,,,,,,,,,,,,,,,,None,,611.5138372299728,None,611.5138372299728,None,2022-04-06-14:47:40.682240,611.5141976000741,611.8134667000268,611.5141976000741,None,None,611.5141976000741,None,612.3140398300486,None,,,,12014,0002,2022_Apr_06_1437,localizer,2021.1.3,60.74898636326639,
block_end,scrambled,scrambled087.bmp,,,,,0,75,75,75,,,,,,,,,,,,,,,,,,,,,,,,,,,,,,,,,,,,,,,,,,None,,612.3140398300486,None,612.3140398300486,None,2022-04-06-14:47:41.483898,612.3255433000159,612.6306515999604,612.3255433000159,612.3255433000159,None,612.3255433000159,612.3255433000159,613.1311265300494,None,,,,12014,0002,2022_Apr_06_1437,localizer,2021.1.3,60.74898636326639,
block_start,objects,objects013.bmp,,,,,0,76,76,76,,,,,,,,,,,,,,,,,,,,,,,,,,,,,,,,,,,,,,,,,,t,1.8178181999828666,613.1308683999814,None,613.1308683999814,None,2022-04-06-14:47:44.148788,614.9812372999731,615.2799579000566,614.9812372999731,None,None,614.9812372999731,None,615.7805588300573,None,,,,12014,0002,2022_Apr_06_1437,localizer,2021.1.3,60.74898636326639,
block,objects,objects082.bmp,,,,,0,77,77,77,,,,,,,,,,,,,,,,,,,,,,,,,,,,,,,,,,,,,,,,,,None,,615.7805588300573,None,615.7805588300573,None,2022-04-06-14:47:44.949975,615.7809839000693,616.0807352999691,615.7809839000693,615.7809839000693,None,615.7809839000693,615.7809839000693,616.5817348299781,None,,,,12014,0002,2022_Apr_06_1437,localizer,2021.1.3,60.74898636326639,
block,objects,objects015.bmp,,,,,0,78,78,78,,,,,,,,,,,,,,,,,,,,,,,,,,,,,,,,,,,,,,,,,,None,,616.5817348299781,None,616.5817348299781,None,2022-04-06-14:47:45.754314,616.5965641000075,616.8966642000014,616.5965641000075,616.5965641000075,None,616.5965641000075,616.5965641000075,617.3974368300289,None,,,,12014,0002,2022_Apr_06_1437,localizer,2021.1.3,60.74898636326639,
block,objects,objects077.bmp,,,,,0,79,79,79,,,,,,,,,,,,,,,,,,,,,,,,,,,,,,,,,,,,,,,,,,None,,617.3974368300289,None,617.3974368300289,None,2022-04-06-14:47:46.565881,617.4079989000456,617.7135357999941,617.4079989000456,None,None,617.4079989000456,None,618.2150676299818,None,,,,12014,0002,2022_Apr_06_1437,localizer,2021.1.3,60.74898636326639,
block,objects,objects060.bmp,,,,,0,80,80,80,,,,,,,,,,,,,,,,,,,,,,,,,,,,,,,,,,,,,,,,,,None,,618.2150676299818,None,618.2150676299818,None,2022-04-06-14:47:47.384654,618.2170797999715,618.5301106000552,618.2170797999715,None,None,618.2170797999715,None,619.0309905299684,None,,,,12014,0002,2022_Apr_06_1437,localizer,2021.1.3,60.74898636326639,
block,objects,objects043.bmp,,,,,0,81,81,81,,,,,,,,,,,,,,,,,,,,,,,,,,,,,,,,,,,,,,,,,,None,,619.0309905299684,None,619.0309905299684,None,2022-04-06-14:47:48.199491,619.0310481999768,619.3303487000521,619.0310481999768,None,None,619.0310481999768,None,619.8304444300477,None,,,,12014,0002,2022_Apr_06_1437,localizer,2021.1.3,60.74898636326639,
block,objects,objects020.bmp,,,,,0,82,82,82,,,,,,,,,,,,,,,,,,,,,,,,,,,,,,,,,,,,,,,,,,None,,619.8304444300477,None,619.8304444300477,None,2022-04-06-14:47:49.000641,619.8308468000032,620.1301886000438,619.8308468000032,619.8308468000032,None,619.8308468000032,619.8308468000032,620.6307343299734,None,,,,12014,0002,2022_Apr_06_1437,localizer,2021.1.3,60.74898636326639,
block,objects,objects088.bmp,,,,,0,83,83,83,,,,,,,,,,,,,,,,,,,,,,,,,,,,,,,,,,,,,,,,,,None,,620.6307343299734,None,620.6307343299734,None,2022-04-06-14:47:49.801147,620.6330061999615,620.952425400028,620.6330061999615,620.6330061999615,None,620.6330061999615,620.6330061999615,621.4472867299803,None,,,,12014,0002,2022_Apr_06_1437,localizer,2021.1.3,60.74898636326639,
block,objects,objects006.bmp,,,,,0,84,84,84,,,,,,,,,,,,,,,,,,,,,,,,,,,,,,,,,,,,,,,,,,None,,621.4472867299803,None,621.4472867299803,None,2022-04-06-14:47:50.614510,621.4550630999729,621.7635631000157,621.4550630999729,None,None,621.4550630999729,None,622.2640090300004,None,,,,12014,0002,2022_Apr_06_1437,localizer,2021.1.3,60.74898636326639,
block,objects,objects006.bmp,,,,,0,85,85,85,,,,,,,,,,,,,,,,,,,,,,,,,,,,,,,,,,,,,,,,,,None,,622.2640090300004,None,622.2640090300004,None,2022-04-06-14:47:51.432430,622.2642333999975,622.5632871000562,622.2642333999975,None,y,622.2642333999975,None,623.065217630053,None,0.5312141000758857,,,12014,0002,2022_Apr_06_1437,localizer,2021.1.3,60.74898636326639,
block,objects,objects059.bmp,,,,,0,86,86,86,,,,,,,,,,,,,,,,,,,,,,,,,,,,,,,,,,,,,,,,,,None,,623.065217630053,None,623.065217630053,None,2022-04-06-14:47:52.238242,623.0697399000637,623.3798504000297,623.0697399000637,623.0697399000637,None,623.0697399000637,623.0697399000637,623.880633830023,None,,,,12014,0002,2022_Apr_06_1437,localizer,2021.1.3,60.74898636326639,
block,objects,objects027.bmp,,,,,0,87,87,87,,,,,,,,,,,,,,,,,,,,,,,,,,,,,,,,,,,,,,,,,,None,,623.880633830023,None,623.880633830023,None,2022-04-06-14:47:53.049054,623.8810075999936,624.1799003999913,623.8810075999936,None,None,623.8810075999936,None,624.6813020300353,None,,,,12014,0002,2022_Apr_06_1437,localizer,2021.1.3,60.74898636326639,
block,objects,objects047.bmp,,,,,0,88,88,88,,,,,,,,,,,,,,,,,,,,,,,,,,,,,,,,,,,,,,,,,,None,,624.6813020300353,None,624.6813020300353,None,2022-04-06-14:47:53.852780,624.6839484999655,624.9821245999774,624.6839484999655,624.6839484999655,None,624.6839484999655,624.6839484999655,625.4973140300019,None,,,,12014,0002,2022_Apr_06_1437,localizer,2021.1.3,60.74898636326639,
block,objects,objects001.bmp,,,,,0,89,89,89,,,,,,,,,,,,,,,,,,,,,,,,,,,,,,,,,,,,,,,,,,None,,625.4973140300019,None,625.4973140300019,None,2022-04-06-14:47:54.665771,625.497790900059,625.7968811000464,625.497790900059,None,None,625.497790900059,None,626.2977665300016,None,,,,12014,0002,2022_Apr_06_1437,localizer,2021.1.3,60.74898636326639,
block_end,objects,objects005.bmp,,,,,0,90,90,90,,,,,,,,,,,,,,,,,,,,,,,,,,,,,,,,,,,,,,,,,,None,,626.2977665300016,None,626.2977665300016,None,2022-04-06-14:47:55.469356,626.3120656000683,626.6142274000449,626.3120656000683,626.3120656000683,None,626.3120656000683,626.3120656000683,627.1140341300518,None,,,,12014,0002,2022_Apr_06_1437,localizer,2021.1.3,60.74898636326639,
block_start,scenes,scenes078.bmp,,,,,0,91,91,91,,,,,,,,,,,,,,,,,,,,,,,,,,,,,,,,,,,,,,,,,,t,1.8354034000076354,627.1136137000285,None,627.1136137000285,None,2022-04-06-14:47:58.144145,628.9879993000068,629.2967951999744,628.9879993000068,None,None,628.9879993000068,None,629.780743830069,None,,,,12014,0002,2022_Apr_06_1437,localizer,2021.1.3,60.74898636326639,
block,scenes,scenes006.bmp,,,,,0,92,92,92,,,,,,,,,,,,,,,,,,,,,,,,,,,,,,,,,,,,,,,,,,None,,629.780743830069,None,629.780743830069,None,2022-04-06-14:47:58.949162,629.7810744000599,630.0809072999982,629.7810744000599,None,None,629.7810744000599,None,630.5813117300161,None,,,,12014,0002,2022_Apr_06_1437,localizer,2021.1.3,60.74898636326639,
block,scenes,scenes090.bmp,,,,,0,93,93,93,,,,,,,,,,,,,,,,,,,,,,,,,,,,,,,,,,,,,,,,,,None,,630.5813117300161,None,630.5813117300161,None,2022-04-06-14:47:59.752775,630.5839913999662,630.8966591999633,630.5839913999662,630.5839913999662,None,630.5839913999662,630.5839913999662,631.398039530078,None,,,,12014,0002,2022_Apr_06_1437,localizer,2021.1.3,60.74898636326639,
block,scenes,scenes074.bmp,,,,,0,94,94,94,,,,,,,,,,,,,,,,,,,,,,,,,,,,,,,,,,,,,,,,,,None,,631.398039530078,None,631.398039530078,None,2022-04-06-14:48:00.567642,631.4092472000048,631.7194386000047,631.4092472000048,None,None,631.4092472000048,None,632.2202591300477,None,,,,12014,0002,2022_Apr_06_1437,localizer,2021.1.3,60.74898636326639,
block,scenes,scenes054.bmp,,,,,0,95,95,95,,,,,,,,,,,,,,,,,,,,,,,,,,,,,,,,,,,,,,,,,,None,,632.2202591300477,None,632.2202591300477,None,2022-04-06-14:48:01.388686,632.224221499986,632.5303201000206,632.224221499986,None,None,632.224221499986,None,633.0305365300039,None,,,,12014,0002,2022_Apr_06_1437,localizer,2021.1.3,60.74898636326639,
block,scenes,scenes017.bmp,,,,,0,96,96,96,,,,,,,,,,,,,,,,,,,,,,,,,,,,,,,,,,,,,,,,,,None,,633.0305365300039,None,633.0305365300039,None,2022-04-06-14:48:02.199147,633.0311610000208,633.3301883999957,633.0311610000208,None,None,633.0311610000208,None,633.8307337300387,None,,,,12014,0002,2022_Apr_06_1437,localizer,2021.1.3,60.74898636326639,
block,scenes,scenes070.bmp,,,,,0,97,97,97,,,,,,,,,,,,,,,,,,,,,,,,,,,,,,,,,,,,,,,,,,None,,633.8307337300387,None,633.8307337300387,None,2022-04-06-14:48:03.001343,633.8319591999752,634.1469680999871,633.8319591999752,633.8319591999752,None,633.8319591999752,633.8319591999752,634.6473603300285,None,,,,12014,0002,2022_Apr_06_1437,localizer,2021.1.3,60.74898636326639,
block,scenes,scenes038.bmp,,,,,0,98,98,98,,,,,,,,,,,,,,,,,,,,,,,,,,,,,,,,,,,,,,,,,,None,,634.6473603300285,None,634.6473603300285,None,2022-04-06-14:48:03.816443,634.6580355999758,634.9633510999847,634.6580355999758,None,None,634.6580355999758,None,635.4637976299739,None,,,,12014,0002,2022_Apr_06_1437,localizer,2021.1.3,60.74898636326639,
block,scenes,scenes068.bmp,,,,,0,99,99,99,,,,,,,,,,,,,,,,,,,,,,,,,,,,,,,,,,,,,,,,,,None,,635.4637976299739,None,635.4637976299739,None,2022-04-06-14:48:04.632218,635.4645010000095,635.7638789999764,635.4645010000095,None,None,635.4645010000095,None,636.2638762300369,None,,,,12014,0002,2022_Apr_06_1437,localizer,2021.1.3,60.74898636326639,
block,scenes,scenes020.bmp,,,,,0,100,100,100,,,,,,,,,,,,,,,,,,,,,,,,,,,,,,,,,,,,,,,,,,None,,636.2638762300369,None,636.2638762300369,None,2022-04-06-14:48:05.434293,636.2648533000611,636.5648948000744,636.2648533000611,636.2648533000611,None,636.2648533000611,636.2648533000611,637.0639410299948,None,,,,12014,0002,2022_Apr_06_1437,localizer,2021.1.3,60.74898636326639,
block,scenes,scenes045.bmp,,,,,0,101,101,101,,,,,,,,,,,,,,,,,,,,,,,,,,,,,,,,,,,,,,,,,,None,,637.0639410299948,None,637.0639410299948,None,2022-04-06-14:48:06.233359,637.0745282999706,637.3805285000708,637.0745282999706,637.0745282999706,None,637.0745282999706,637.0745282999706,637.8812476300402,None,,,,12014,0002,2022_Apr_06_1437,localizer,2021.1.3,60.74898636326639,
block,scenes,scenes059.bmp,,,,,0,102,102,102,,,,,,,,,,,,,,,,,,,,,,,,,,,,,,,,,,,,,,,,,,None,,637.8812476300402,None,637.8812476300402,None,2022-04-06-14:48:07.050660,637.8812578000361,638.1804546000203,637.8812578000361,None,None,637.8812578000361,None,638.6808594300412,None,,,,12014,0002,2022_Apr_06_1437,localizer,2021.1.3,60.74898636326639,
block,scenes,scenes072.bmp,,,,,0,103,103,103,,,,,,,,,,,,,,,,,,,,,,,,,,,,,,,,,,,,,,,,,,None,,638.6808594300412,None,638.6808594300412,None,2022-04-06-14:48:07.851250,638.6933472000528,638.9967189000454,638.6933472000528,638.6933472000528,None,638.6933472000528,638.6933472000528,639.497475730069,None,,,,12014,0002,2022_Apr_06_1437,localizer,2021.1.3,60.74898636326639,
block,scenes,scenes085.bmp,,,,,0,104,104,104,,,,,,,,,,,,,,,,,,,,,,,,,,,,,,,,,,,,,,,,,,None,,639.497475730069,None,639.497475730069,None,2022-04-06-14:48:08.666051,639.5083080000477,639.8137202999787,639.5083080000477,None,None,639.5083080000477,None,640.3142818300287,None,,,,12014,0002,2022_Apr_06_1437,localizer,2021.1.3,60.74898636326639,
block_end,scenes,scenes031.bmp,,,,,0,105,105,105,,,,,,,,,,,,,,,,,,,,,,,,,,,,,,,,,,,,,,,,,,None,,640.3142818300287,None,640.3142818300287,None,2022-04-06-14:48:09.482700,640.3146246999968,640.6143166000256,640.3146246999968,None,None,640.3146246999968,None,641.1139489299851,None,,,,12014,0002,2022_Apr_06_1437,localizer,2021.1.3,60.74898636326639,
null_block,null_block,null_block.bmp,,,,,0,106,106,106,,,,,,,,,,,,,,,,,,,,,,,,,,,,,,,,,,,,,,,,,,t,1.8357415000209585,641.113411600003,None,641.113411600003,None,2022-04-06-14:48:12.144569,642.9702388300095,None,642.9702388300095,None,None,642.9702388300095,None,642.9835473999847,None,,,,12014,0002,2022_Apr_06_1437,localizer,2021.1.3,60.74898636326639,
block_start,faces,faces057.bmp,,,,,0,107,107,107,,,,,,,,,,,,,,,,,,,,,,,,,,,,,,,,,,,,,,,,,,t,1.9516890000086278,654.9969537999714,None,654.9969537999714,None,2022-04-06-14:48:26.137740,656.9781970999902,657.2806668999838,656.9781970999902,None,None,656.9781970999902,None,657.7810794300633,None,,,,12014,0002,2022_Apr_06_1437,localizer,2021.1.3,60.74898636326639,
block,faces,faces031.bmp,,,,,0,108,108,108,,,,,,,,,,,,,,,,,,,,,,,,,,,,,,,,,,,,,,,,,,None,,657.7810794300633,None,657.7810794300633,None,2022-04-06-14:48:26.949494,657.7815904000308,658.0969275999814,657.7815904000308,None,None,657.7815904000308,None,658.5819641299779,None,,,,12014,0002,2022_Apr_06_1437,localizer,2021.1.3,60.74898636326639,
block,faces,faces058.bmp,,,,,0,109,109,109,,,,,,,,,,,,,,,,,,,,,,,,,,,,,,,,,,,,,,,,,,None,,658.5819641299779,None,658.5819641299779,None,2022-04-06-14:48:27.754358,658.5976300999755,658.8969839999918,658.5976300999755,658.5976300999755,None,658.5976300999755,658.5976300999755,659.3978360300418,None,,,,12014,0002,2022_Apr_06_1437,localizer,2021.1.3,60.74898636326639,
block,faces,faces039.bmp,,,,,0,110,110,110,,,,,,,,,,,,,,,,,,,,,,,,,,,,,,,,,,,,,,,,,,None,,659.3978360300418,None,659.3978360300418,None,2022-04-06-14:48:28.566448,659.3982095000101,659.6973588999826,659.3982095000101,None,None,659.3982095000101,None,660.1978157300503,None,,,,12014,0002,2022_Apr_06_1437,localizer,2021.1.3,60.74898636326639,
block,faces,faces085.bmp,,,,,0,111,111,111,,,,,,,,,,,,,,,,,,,,,,,,,,,,,,,,,,,,,,,,,,None,,660.1978157300503,None,660.1978157300503,None,2022-04-06-14:48:29.368226,660.2092319000512,660.5135695000645,660.2092319000512,660.2092319000512,None,660.2092319000512,660.2092319000512,661.0160127300071,None,,,,12014,0002,2022_Apr_06_1437,localizer,2021.1.3,60.74898636326639,
block,faces,faces016.bmp,,,,,0,112,112,112,,,,,,,,,,,,,,,,,,,,,,,,,,,,,,,,,,,,,,,,,,None,,661.0160127300071,None,661.0160127300071,None,2022-04-06-14:48:30.184424,661.0148120999802,661.3136605999898,661.0148120999802,None,None,661.0148120999802,None,661.8142098300625,None,,,,12014,0002,2022_Apr_06_1437,localizer,2021.1.3,60.74898636326639,
block,faces,faces004.bmp,,,,,0,113,113,113,,,,,,,,,,,,,,,,,,,,,,,,,,,,,,,,,,,,,,,,,,None,,661.8142098300625,None,661.8142098300625,None,2022-04-06-14:48:30.984638,661.8146887000185,662.1137504000217,661.8146887000185,661.8146887000185,None,661.8146887000185,661.8146887000185,662.6143669300247,None,,,,12014,0002,2022_Apr_06_1437,localizer,2021.1.3,60.74898636326639,
block,faces,faces047.bmp,,,,,0,114,114,114,,,,,,,,,,,,,,,,,,,,,,,,,,,,,,,,,,,,,,,,,,None,,662.6143669300247,None,662.6143669300247,None,2022-04-06-14:48:31.784781,662.6148053000215,662.9127152999863,662.6148053000215,662.6148053000215,None,662.6148053000215,662.6148053000215,663.4141712299781,None,,,,12014,0002,2022_Apr_06_1437,localizer,2021.1.3,60.74898636326639,
block,faces,faces023.bmp,,,,,0,115,115,115,,,,,,,,,,,,,,,,,,,,,,,,,,,,,,,,,,,,,,,,,,None,,663.4141712299781,None,663.4141712299781,None,2022-04-06-14:48:32.584586,663.4247895000735,663.7303466000594,663.4247895000735,663.4247895000735,None,663.4247895000735,663.4247895000735,664.2309696299956,None,,,,12014,0002,2022_Apr_06_1437,localizer,2021.1.3,60.74898636326639,
block,faces,faces014.bmp,,,,,0,116,116,116,,,,,,,,,,,,,,,,,,,,,,,,,,,,,,,,,,,,,,,,,,None,,664.2309696299956,None,664.2309696299956,None,2022-04-06-14:48:33.399386,664.2396783999866,664.5472726000007,664.2396783999866,None,None,664.2396783999866,None,665.0478088299744,None,,,,12014,0002,2022_Apr_06_1437,localizer,2021.1.3,60.74898636326639,
block,faces,faces051.bmp,,,,,0,117,117,117,,,,,,,,,,,,,,,,,,,,,,,,,,,,,,,,,,,,,,,,,,None,,665.0478088299744,None,665.0478088299744,None,2022-04-06-14:48:34.216401,665.0583317000419,665.3637624999974,665.0583317000419,None,None,665.0583317000419,None,665.8641390300356,None,,,,12014,0002,2022_Apr_06_1437,localizer,2021.1.3,60.74898636326639,
block,faces,faces064.bmp,,,,,0,118,118,118,,,,,,,,,,,,,,,,,,,,,,,,,,,,,,,,,,,,,,,,,,None,,665.8641390300356,None,665.8641390300356,None,2022-04-06-14:48:35.032560,665.8646491999971,666.1637099999934,665.8646491999971,None,None,665.8646491999971,None,666.6641322300304,None,,,,12014,0002,2022_Apr_06_1437,localizer,2021.1.3,60.74898636326639,
block,faces,faces037.bmp,,,,,0,119,119,119,,,,,,,,,,,,,,,,,,,,,,,,,,,,,,,,,,,,,,,,,,None,,666.6641322300304,None,666.6641322300304,None,2022-04-06-14:48:35.834546,666.6647206000052,666.9635425000452,666.6647206000052,666.6647206000052,None,666.6647206000052,666.6647206000052,667.4711205299711,None,,,,12014,0002,2022_Apr_06_1437,localizer,2021.1.3,60.74898636326639,
block,faces,faces038.bmp,,,,,0,120,120,120,,,,,,,,,,,,,,,,,,,,,,,,,,,,,,,,,,,,,,,,,,None,,667.4711205299711,None,667.4711205299711,None,2022-04-06-14:48:36.645515,667.4774748999625,667.7803294999758,667.4774748999625,None,None,667.4774748999625,None,668.2809700300452,None,,,,12014,0002,2022_Apr_06_1437,localizer,2021.1.3,60.74898636326639,
block_end,faces,faces053.bmp,,,,,0,121,121,121,,,,,,,,,,,,,,,,,,,,,,,,,,,,,,,,,,,,,,,,,,None,,668.2809700300452,None,668.2809700300452,None,2022-04-06-14:48:37.449605,668.2908820000011,668.5968198999763,668.2908820000011,None,None,668.2908820000011,None,669.0981724299957,None,,,,12014,0002,2022_Apr_06_1437,localizer,2021.1.3,60.74898636326639,
block_start,scrambled,scrambled021.bmp,,,,,0,122,122,122,,,,,,,,,,,,,,,,,,,,,,,,,,,,,,,,,,,,,,,,,,t,1.8505353999789804,669.0978904999793,None,669.0978904999793,None,2022-04-06-14:48:40.130429,670.964874700061,671.2637458000099,670.964874700061,None,None,670.964874700061,None,671.7655342299724,None,,,,12014,0002,2022_Apr_06_1437,localizer,2021.1.3,60.74898636326639,
block,scrambled,scrambled058.bmp,,,,,0,123,123,123,,,,,,,,,,,,,,,,,,,,,,,,,,,,,,,,,,,,,,,,,,None,,671.7655342299724,None,671.7655342299724,None,2022-04-06-14:48:40.937110,671.8076895000413,672.1136261000065,671.8076895000413,671.8076895000413,None,671.8076895000413,671.8076895000413,672.5843883300433,None,,,,12014,0002,2022_Apr_06_1437,localizer,2021.1.3,60.74898636326639,
block,scrambled,scrambled051.bmp,,,,,0,124,124,124,,,,,,,,,,,,,,,,,,,,,,,,,,,,,,,,,,,,,,,,,,None,,672.5843883300433,None,672.5843883300433,None,2022-04-06-14:48:41.760577,672.5928653000155,672.8973510999931,672.5928653000155,None,None,672.5928653000155,None,673.3980874299771,None,,,,12014,0002,2022_Apr_06_1437,localizer,2021.1.3,60.74898636326639,
block,scrambled,scrambled057.bmp,,,,,0,125,125,125,,,,,,,,,,,,,,,,,,,,,,,,,,,,,,,,,,,,,,,,,,None,,673.3980874299771,None,673.3980874299771,None,2022-04-06-14:48:42.566498,673.3985160000157,673.713601800031,673.3985160000157,None,None,673.3985160000157,None,674.2140079300618,None,,,,12014,0002,2022_Apr_06_1437,localizer,2021.1.3,60.74898636326639,
block,scrambled,scrambled022.bmp,,,,,0,126,126,126,,,,,,,,,,,,,,,,,,,,,,,,,,,,,,,,,,,,,,,,,,None,,674.2140079300618,None,674.2140079300618,None,2022-04-06-14:48:43.381431,674.2216256000102,674.5303466999903,674.2216256000102,None,None,674.2216256000102,None,675.0307217300171,None,,,,12014,0002,2022_Apr_06_1437,localizer,2021.1.3,60.74898636326639,
block,scrambled,scrambled069.bmp,,,,,0,127,127,127,,,,,,,,,,,,,,,,,,,,,,,,,,,,,,,,,,,,,,,,,,None,,675.0307217300171,None,675.0307217300171,None,2022-04-06-14:48:44.198151,675.0380045999773,675.3476724000648,675.0380045999773,None,None,675.0380045999773,None,675.8480497299927,None,,,,12014,0002,2022_Apr_06_1437,localizer,2021.1.3,60.74898636326639,
block,scrambled,scrambled065.bmp,,,,,0,128,128,128,,,,,,,,,,,,,,,,,,,,,,,,,,,,,,,,,,,,,,,,,,None,,675.8480497299927,None,675.8480497299927,None,2022-04-06-14:48:45.016487,675.8479959999677,676.1475416000467,675.8479959999677,None,None,675.8479959999677,None,676.6479640299688,None,,,,12014,0002,2022_Apr_06_1437,localizer,2021.1.3,60.74898636326639,
block,scrambled,scrambled045.bmp,,,,,0,129,129,129,,,,,,,,,,,,,,,,,,,,,,,,,,,,,,,,,,,,,,,,,,None,,676.6479640299688,None,676.6479640299688,None,2022-04-06-14:48:45.817785,676.6593189999694,676.9712313000346,676.6593189999694,676.6593189999694,None,676.6593189999694,676.6593189999694,677.4649904299761,None,,,,12014,0002,2022_Apr_06_1437,localizer,2021.1.3,60.74898636326639,
block,scrambled,scrambled052.bmp,,,,,0,130,130,130,,,,,,,,,,,,,,,,,,,,,,,,,,,,,,,,,,,,,,,,,,None,,677.4649904299761,None,677.4649904299761,None,2022-04-06-14:48:46.633401,677.4652909999713,677.76434600004,677.4652909999713,None,None,677.4652909999713,None,678.2650118300692,None,,,,12014,0002,2022_Apr_06_1437,localizer,2021.1.3,60.74898636326639,
block,scrambled,scrambled055.bmp,,,,,0,131,131,131,,,,,,,,,,,,,,,,,,,,,,,,,,,,,,,,,,,,,,,,,,None,,678.2650118300692,None,678.2650118300692,None,2022-04-06-14:48:47.435444,678.277018200024,678.580764100072,678.277018200024,678.277018200024,None,678.277018200024,678.277018200024,679.0869870300405,None,,,,12014,0002,2022_Apr_06_1437,localizer,2021.1.3,60.74898636326639,
block,scrambled,scrambled041.bmp,,,,,0,132,132,132,,,,,,,,,,,,,,,,,,,,,,,,,,,,,,,,,,,,,,,,,,None,,679.0869870300405,None,679.0869870300405,None,2022-04-06-14:48:48.262378,679.0952758999774,679.3983687000582,679.0952758999774,None,None,679.0952758999774,None,679.8972637299914,None,,,,12014,0002,2022_Apr_06_1437,localizer,2021.1.3,60.74898636326639,
block,scrambled,scrambled016.bmp,,,,,0,133,133,133,,,,,,,,,,,,,,,,,,,,,,,,,,,,,,,,,,,,,,,,,,None,,679.8972637299914,None,679.8972637299914,None,2022-04-06-14:48:49.064690,679.8985116999829,680.1974080000073,679.8985116999829,None,None,679.8985116999829,None,680.6981708300766,None,,,,12014,0002,2022_Apr_06_1437,localizer,2021.1.3,60.74898636326639,
block,scrambled,scrambled007.bmp,,,,,0,134,134,134,,,,,,,,,,,,,,,,,,,,,,,,,,,,,,,,,,,,,,,,,,None,,680.6981708300766,None,680.6981708300766,None,2022-04-06-14:48:49.868631,680.6993518000236,681.0136116000358,680.6993518000236,680.6993518000236,None,680.6993518000236,680.6993518000236,681.5004024300026,None,,,,12014,0002,2022_Apr_06_1437,localizer,2021.1.3,60.74898636326639,
block,scrambled,scrambled028.bmp,,,,,0,135,135,135,,,,,,,,,,,,,,,,,,,,,,,,,,,,,,,,,,,,,,,,,,None,,681.5004024300026,None,681.5004024300026,None,2022-04-06-14:48:50.671040,681.5125382000115,681.8138568999711,681.5125382000115,681.5125382000115,None,681.5125382000115,681.5125382000115,682.3153362300247,None,,,,12014,0002,2022_Apr_06_1437,localizer,2021.1.3,60.74898636326639,
block_end,scrambled,scrambled073.bmp,,,,,0,136,136,136,,,,,,,,,,,,,,,,,,,,,,,,,,,,,,,,,,,,,,,,,,None,,682.3153362300247,None,682.3153362300247,None,2022-04-06-14:48:51.483219,682.3145695000421,682.61385720002,682.3145695000421,None,None,682.3145695000421,None,683.1140064300737,None,,,,12014,0002,2022_Apr_06_1437,localizer,2021.1.3,60.74898636326639,
block_start,objects,objects029.bmp,,,,,0,137,137,137,,,,,,,,,,,,,,,,,,,,,,,,,,,,,,,,,,,,,,,,,,t,1.8353218999691308,683.1135602999711,None,683.1135602999711,None,2022-04-06-14:48:54.142734,684.976162099978,685.2814303999767,684.976162099978,None,None,684.976162099978,None,685.7807427300606,None,,,,12014,0002,2022_Apr_06_1437,localizer,2021.1.3,60.74898636326639,
block,objects,objects084.bmp,,,,,0,138,138,138,,,,,,,,,,,,,,,,,,,,,,,,,,,,,,,,,,,,,,,,,,None,,685.7807427300606,None,685.7807427300606,None,2022-04-06-14:48:54.949164,685.7817517999792,686.0972054000013,685.7817517999792,None,None,685.7817517999792,None,686.5814027300105,None,,,,12014,0002,2022_Apr_06_1437,localizer,2021.1.3,60.74898636326639,
block,objects,objects034.bmp,,,,,0,139,139,139,,,,,,,,,,,,,,,,,,,,,,,,,,,,,,,,,,,,,,,,,,None,,686.5814027300105,None,686.5814027300105,None,2022-04-06-14:48:55.751721,686.5822373999981,686.8810384999961,686.5822373999981,686.5822373999981,None,686.5822373999981,686.5822373999981,687.3816138300347,None,,,,12014,0002,2022_Apr_06_1437,localizer,2021.1.3,60.74898636326639,
block,objects,objects058.bmp,,,,,0,140,140,140,,,,,,,,,,,,,,,,,,,,,,,,,,,,,,,,,,,,,,,,,,None,,687.3816138300347,None,687.3816138300347,None,2022-04-06-14:48:56.552098,687.3833810000215,687.6978193999967,687.3833810000215,687.3833810000215,None,687.3833810000215,687.3833810000215,688.1977844300447,None,,,,12014,0002,2022_Apr_06_1437,localizer,2021.1.3,60.74898636326639,
block,objects,objects049.bmp,,,,,0,141,141,141,,,,,,,,,,,,,,,,,,,,,,,,,,,,,,,,,,,,,,,,,,None,,688.1977844300447,None,688.1977844300447,None,2022-04-06-14:48:57.366404,688.1980657000095,688.4974575999659,688.1980657000095,None,None,688.1980657000095,None,688.9979352300754,None,,,,12014,0002,2022_Apr_06_1437,localizer,2021.1.3,60.74898636326639,
block,objects,objects075.bmp,,,,,0,142,142,142,,,,,,,,,,,,,,,,,,,,,,,,,,,,,,,,,,,,,,,,,,None,,688.9979352300754,None,688.9979352300754,None,2022-04-06-14:48:58.168346,688.9980972000631,689.297338000033,688.9980972000631,688.9980972000631,None,688.9980972000631,688.9980972000631,689.7979718300514,None,,,,12014,0002,2022_Apr_06_1437,localizer,2021.1.3,60.74898636326639,
block,objects,objects026.bmp,,,,,0,143,143,143,,,,,,,,,,,,,,,,,,,,,,,,,,,,,,,,,,,,,,,,,,None,,689.7979718300514,None,689.7979718300514,None,2022-04-06-14:48:58.968450,689.8096450000303,690.114059100044,689.8096450000303,689.8096450000303,None,689.8096450000303,689.8096450000303,690.6149828300579,None,,,,12014,0002,2022_Apr_06_1437,localizer,2021.1.3,60.74898636326639,
block,objects,objects021.bmp,,,,,0,144,144,144,,,,,,,,,,,,,,,,,,,,,,,,,,,,,,,,,,,,,,,,,,None,,690.6149828300579,None,690.6149828300579,None,2022-04-06-14:48:59.783433,690.6158968000673,690.930314199999,690.6158968000673,None,None,690.6158968000673,None,691.4311520300573,None,,,,12014,0002,2022_Apr_06_1437,localizer,2021.1.3,60.74898636326639,
block,objects,objects010.bmp,,,,,0,145,145,145,,,,,,,,,,,,,,,,,,,,,,,,,,,,,,,,,,,,,,,,,,None,,691.4311520300573,None,691.4311520300573,None,2022-04-06-14:49:00.599782,691.4314780000132,691.7307475999696,691.4314780000132,None,None,691.4314780000132,None,692.2307807300706,None,,,,12014,0002,2022_Apr_06_1437,localizer,2021.1.3,60.74898636326639,
block,objects,objects088.bmp,,,,,0,146,146,146,,,,,,,,,,,,,,,,,,,,,,,,,,,,,,,,,,,,,,,,,,None,,692.2307807300706,None,692.2307807300706,None,2022-04-06-14:49:01.400203,692.2315446999855,692.5303423000732,692.2315446999855,692.2315446999855,None,692.2315446999855,692.2315446999855,693.0317496300443,None,,,,12014,0002,2022_Apr_06_1437,localizer,2021.1.3,60.74898636326639,
block,objects,objects006.bmp,,,,,0,147,147,147,,,,,,,,,,,,,,,,,,,,,,,,,,,,,,,,,,,,,,,,,,None,,693.0317496300443,None,693.0317496300443,None,2022-04-06-14:49:02.202719,693.0336678000167,693.3473980000708,693.0336678000167,693.0336678000167,None,693.0336678000167,693.0336678000167,693.8477451300016,None,,,,12014,0002,2022_Apr_06_1437,localizer,2021.1.3,60.74898636326639,
block,objects,objects062.bmp,,,,,0,148,148,148,,,,,,,,,,,,,,,,,,,,,,,,,,,,,,,,,,,,,,,,,,None,,693.8477451300016,None,693.8477451300016,None,2022-04-06-14:49:03.016174,693.8565029000165,694.1637938000495,693.8565029000165,None,None,693.8565029000165,None,694.6644344300032,None,,,,12014,0002,2022_Apr_06_1437,localizer,2021.1.3,60.74898636326639,
block,objects,objects038.bmp,,,,,0,149,149,149,,,,,,,,,,,,,,,,,,,,,,,,,,,,,,,,,,,,,,,,,,None,,694.6644344300032,None,694.6644344300032,None,2022-04-06-14:49:03.833479,694.6730944999726,694.9804203000385,694.6730944999726,None,None,694.6730944999726,None,695.4811172300717,None,,,,12014,0002,2022_Apr_06_1437,localizer,2021.1.3,60.74898636326639,
block,objects,objects046.bmp,,,,,0,150,150,150,,,,,,,,,,,,,,,,,,,,,,,,,,,,,,,,,,,,,,,,,,None,,695.4811172300717,None,695.4811172300717,None,2022-04-06-14:49:04.649962,695.48140160006,695.7804377999855,695.48140160006,None,None,695.48140160006,None,696.2809690300376,None,,,,12014,0002,2022_Apr_06_1437,localizer,2021.1.3,60.74898636326639,
block_end,objects,objects060.bmp,,,,,0,151,151,151,,,,,,,,,,,,,,,,,,,,,,,,,,,,,,,,,,,,,,,,,,None,,696.2809690300376,None,696.2809690300376,None,2022-04-06-14:49:05.451418,696.281391800032,696.5806561000645,696.281391800032,696.281391800032,None,696.281391800032,696.281391800032,697.0811404299923,None,,,,12014,0002,2022_Apr_06_1437,localizer,2021.1.3,60.74898636326639,
null_block,null_block,null_block.bmp,,,,,0,152,152,152,,,,,,,,,,,,,,,,,,,,,,,,,,,,,,,,,,,,,,,,,,t,1.8682038999395445,697.0806335000088,None,697.0806335000088,None,2022-04-06-14:49:08.143714,698.9707230299712,None,698.9707230299712,None,None,698.9707230299712,None,698.9794655999867,None,,,,12014,0002,2022_Apr_06_1437,localizer,2021.1.3,60.74898636326639,
block_start,scenes,scenes055.bmp,,,,,0,153,153,153,,,,,,,,,,,,,,,,,,,,,,,,,,,,,,,,,,,,,,,,,,t,1.968485499965027,710.9805116000352,None,710.9805116000352,None,2022-04-06-14:49:22.145113,712.9771217000671,713.280697899987,712.9771217000671,None,None,712.9771217000671,None,713.781173230079,None,,,,12014,0002,2022_Apr_06_1437,localizer,2021.1.3,60.74898636326639,
block,scenes,scenes021.bmp,,,,,0,154,154,154,,,,,,,,,,,,,,,,,,,,,,,,,,,,,,,,,,,,,,,,,,None,,713.781173230079,None,713.781173230079,None,2022-04-06-14:49:22.948602,713.7896108999848,714.0974453999661,713.7896108999848,None,None,713.7896108999848,None,714.5978473300813,None,,,,12014,0002,2022_Apr_06_1437,localizer,2021.1.3,60.74898636326639,
block,scenes,scenes010.bmp,,,,,0,155,155,155,,,,,,,,,,,,,,,,,,,,,,,,,,,,,,,,,,,,,,,,,,None,,714.5978473300813,None,714.5978473300813,None,2022-04-06-14:49:23.766336,714.5985296000727,714.8974634000333,714.5985296000727,None,None,714.5985296000727,None,715.3981640299783,None,,,,12014,0002,2022_Apr_06_1437,localizer,2021.1.3,60.74898636326639,
block,scenes,scenes044.bmp,,,,,0,156,156,156,,,,,,,,,,,,,,,,,,,,,,,,,,,,,,,,,,,,,,,,,,None,,715.3981640299783,None,715.3981640299783,None,2022-04-06-14:49:24.568573,715.4097040999914,715.713940900052,715.4097040999914,715.4097040999914,None,715.4097040999914,715.4097040999914,716.2147528300295,None,,,,12014,0002,2022_Apr_06_1437,localizer,2021.1.3,60.74898636326639,
block,scenes,scenes085.bmp,,,,,0,157,157,157,,,,,,,,,,,,,,,,,,,,,,,,,,,,,,,,,,,,,,,,,,None,,716.2147528300295,None,716.2147528300295,None,2022-04-06-14:49:25.383382,716.2149202000583,716.5137240999611,716.2149202000583,None,None,716.2149202000583,None,717.0143346300349,None,,,,12014,0002,2022_Apr_06_1437,localizer,2021.1.3,60.74898636326639,
block,scenes,scenes064.bmp,,,,,0,158,158,158,,,,,,,,,,,,,,,,,,,,,,,,,,,,,,,,,,,,,,,,,,None,,717.0143346300349,None,717.0143346300349,None,2022-04-06-14:49:26.182761,717.0228002000367,717.3307276000269,717.0228002000367,717.0228002000367,None,717.0228002000367,717.0228002000367,717.8320417299867,None,,,,12014,0002,2022_Apr_06_1437,localizer,2021.1.3,60.74898636326639,
block,scenes,scenes041.bmp,,,,,0,159,159,159,,,,,,,,,,,,,,,,,,,,,,,,,,,,,,,,,,,,,,,,,,None,,717.8320417299867,None,717.8320417299867,None,2022-04-06-14:49:27.000628,717.8326593000675,718.1473434000509,717.8326593000675,None,None,717.8326593000675,None,718.6480026300299,None,,,,12014,0002,2022_Apr_06_1437,localizer,2021.1.3,60.74898636326639,
block,scenes,scenes067.bmp,,,,,0,160,160,160,,,,,,,,,,,,,,,,,,,,,,,,,,,,,,,,,,,,,,,,,,None,,718.6480026300299,None,718.6480026300299,None,2022-04-06-14:49:27.815426,718.6485049000476,718.9478713000426,718.6485049000476,None,None,718.6485049000476,None,719.4480458300561,None,,,,12014,0002,2022_Apr_06_1437,localizer,2021.1.3,60.74898636326639,
block,scenes,scenes025.bmp,,,,,0,161,161,161,,,,,,,,,,,,,,,,,,,,,,,,,,,,,,,,,,,,,,,,,,None,,719.4480458300561,None,719.4480458300561,None,2022-04-06-14:49:28.617610,719.4623819000553,719.7639035000466,719.4623819000553,719.4623819000553,None,719.4623819000553,719.4623819000553,720.2651011300507,None,,,,12014,0002,2022_Apr_06_1437,localizer,2021.1.3,60.74898636326639,
block,scenes,scenes020.bmp,,,,,0,162,162,162,,,,,,,,,,,,,,,,,,,,,,,,,,,,,,,,,,,,,,,,,,None,,720.2651011300507,None,720.2651011300507,None,2022-04-06-14:49:29.433691,720.2655007999856,720.5647164999973,720.2655007999856,None,None,720.2655007999856,None,721.0651686300291,None,,,,12014,0002,2022_Apr_06_1437,localizer,2021.1.3,60.74898636326639,
block,scenes,scenes004.bmp,,,,,0,163,163,163,,,,,,,,,,,,,,,,,,,,,,,,,,,,,,,,,,,,,,,,,,None,,721.0651686300291,None,721.0651686300291,None,2022-04-06-14:49:30.235776,721.0667169999797,721.3812751000514,721.0667169999797,721.0667169999797,None,721.0667169999797,721.0667169999797,721.8822329299758,None,,,,12014,0002,2022_Apr_06_1437,localizer,2021.1.3,60.74898636326639,
block,scenes,scenes045.bmp,,,,,0,164,164,164,,,,,,,,,,,,,,,,,,,,,,,,,,,,,,,,,,,,,,,,,,None,,721.8822329299758,None,721.8822329299758,None,2022-04-06-14:49:31.049872,721.8818014999852,722.1812254000688,721.8818014999852,None,None,721.8818014999852,None,722.6811540300725,None,,,,12014,0002,2022_Apr_06_1437,localizer,2021.1.3,60.74898636326639,
block,scenes,scenes057.bmp,,,,,0,165,165,165,,,,,,,,,,,,,,,,,,,,,,,,,,,,,,,,,,,,,,,,,,None,,722.6811540300725,None,722.6811540300725,None,2022-04-06-14:49:31.851568,722.68166630005,722.980803500046,722.68166630005,722.68166630005,None,722.68166630005,722.68166630005,723.4812999300659,None,,,,12014,0002,2022_Apr_06_1437,localizer,2021.1.3,60.74898636326639,
block,scenes,scenes051.bmp,,,,,0,166,166,166,,,,,,,,,,,,,,,,,,,,,,,,,,,,,,,,,,,,,,,,,,None,,723.4812999300659,None,723.4812999300659,None,2022-04-06-14:49:32.651910,723.481760900002,723.780849599978,723.481760900002,723.481760900002,None,723.481760900002,723.481760900002,724.2813005300006,None,,,,12014,0002,2022_Apr_06_1437,localizer,2021.1.3,60.74898636326639,
block_end,scenes,scenes082.bmp,,,,,0,167,167,167,,,,,,,,,,,,,,,,,,,,,,,,,,,,,,,,,,,,,,,,,,None,,724.2813005300006,None,724.2813005300006,None,2022-04-06-14:49:33.451713,724.3222222999902,724.6309475000016,724.3222222999902,724.3222222999902,None,724.3222222999902,724.3222222999902,725.097688630037,None,,,,12014,0002,2022_Apr_06_1437,localizer,2021.1.3,60.74898636326639,
block_start,faces,faces055.bmp,,,,,0,168,168,168,,,,,,,,,,,,,,,,,,,,,,,,,,,,,,,,,,,,,,,,,,t,1.8513441000832245,725.0972943999805,None,725.0972943999805,None,2022-04-06-14:49:36.131299,726.9658273999812,727.2804721000139,726.9658273999812,None,None,726.9658273999812,None,727.7814008300659,None,,,,12014,0002,2022_Apr_06_1437,localizer,2021.1.3,60.74898636326639,
block,faces,faces029.bmp,,,,,0,169,169,169,,,,,,,,,,,,,,,,,,,,,,,,,,,,,,,,,,,,,,,,,,None,,727.7814008300659,None,727.7814008300659,None,2022-04-06-14:49:36.949818,727.7817758000456,728.0810038000345,727.7817758000456,None,None,727.7817758000456,None,728.5833636300406,None,,,,12014,0002,2022_Apr_06_1437,localizer,2021.1.3,60.74898636326639,
block,faces,faces065.bmp,,,,,0,170,170,170,,,,,,,,,,,,,,,,,,,,,,,,,,,,,,,,,,,,,,,,,,None,,728.5833636300406,None,728.5833636300406,None,2022-04-06-14:49:37.757925,728.5893403000664,728.8981496000197,728.5893403000664,728.5893403000664,None,728.5893403000664,728.5893403000664,729.397903429973,None,,,,12014,0002,2022_Apr_06_1437,localizer,2021.1.3,60.74898636326639,
block,faces,faces043.bmp,,,,,0,171,171,171,,,,,,,,,,,,,,,,,,,,,,,,,,,,,,,,,,,,,,,,,,None,,729.397903429973,None,729.397903429973,None,2022-04-06-14:49:38.566337,729.3983679000521,729.6972221999895,729.3983679000521,None,None,729.3983679000521,None,730.2041021300713,None,,,,12014,0002,2022_Apr_06_1437,localizer,2021.1.3,60.74898636326639,
block,faces,faces043.bmp,,,,,0,172,172,172,,,,,,,,,,,,,,,,,,,,,,,,,,,,,,,,,,,,,,,,,,None,,730.2041021300713,None,730.2041021300713,None,2022-04-06-14:49:39.379471,730.2122626999626,730.5154756000265,730.2122626999626,None,y,730.2122626999626,None,731.0141220300459,None,0.5099407000234351,,,12014,0002,2022_Apr_06_1437,localizer,2021.1.3,60.74898636326639,
block,faces,faces069.bmp,,,,,0,173,173,173,,,,,,,,,,,,,,,,,,,,,,,,,,,,,,,,,,,,,,,,,,None,,731.0141220300459,None,731.0141220300459,None,2022-04-06-14:49:40.181495,731.0228373999707,731.3305406,731.0228373999707,None,None,731.0228373999707,None,731.831169129978,None,,,,12014,0002,2022_Apr_06_1437,localizer,2021.1.3,60.74898636326639,
block,faces,faces035.bmp,,,,,0,174,174,174,,,,,,,,,,,,,,,,,,,,,,,,,,,,,,,,,,,,,,,,,,None,,731.831169129978,None,731.831169129978,None,2022-04-06-14:49:40.999364,731.8317045000149,732.1305285000708,731.8317045000149,None,None,731.8317045000149,None,732.6325209300733,None,,,,12014,0002,2022_Apr_06_1437,localizer,2021.1.3,60.74898636326639,
block,faces,faces010.bmp,,,,,0,175,175,175,,,,,,,,,,,,,,,,,,,,,,,,,,,,,,,,,,,,,,,,,,None,,732.6325209300733,None,732.6325209300733,None,2022-04-06-14:49:41.803995,732.6363845000742,732.9485482999589,732.6363845000742,732.6363845000742,None,732.6363845000742,732.6363845000742,733.4492102300749,None,,,,12014,0002,2022_Apr_06_1437,localizer,2021.1.3,60.74898636326639,
block,faces,faces076.bmp,,,,,0,176,176,176,,,,,,,,,,,,,,,,,,,,,,,,,,,,,,,,,,,,,,,,,,None,,733.4492102300749,None,733.4492102300749,None,2022-04-06-14:49:42.619628,733.4509846000001,733.7642397000454,733.4509846000001,None,None,733.4509846000001,None,734.264483330003,None,,,,12014,0002,2022_Apr_06_1437,localizer,2021.1.3,60.74898636326639,
block,faces,faces013.bmp,,,,,0,177,177,177,,,,,,,,,,,,,,,,,,,,,,,,,,,,,,,,,,,,,,,,,,None,,734.264483330003,None,734.264483330003,None,2022-04-06-14:49:43.433145,734.2650391999632,734.564110700041,734.2650391999632,None,None,734.2650391999632,None,735.0642574300757,None,,,,12014,0002,2022_Apr_06_1437,localizer,2021.1.3,60.74898636326639,
block,faces,faces004.bmp,,,,,0,178,178,178,,,,,,,,,,,,,,,,,,,,,,,,,,,,,,,,,,,,,,,,,,None,,735.0642574300757,None,735.0642574300757,None,2022-04-06-14:49:44.233680,735.0649124999763,735.364098799997,735.0649124999763,735.0649124999763,None,735.0649124999763,735.0649124999763,735.864402930066,None,,,,12014,0002,2022_Apr_06_1437,localizer,2021.1.3,60.74898636326639,
block,faces,faces026.bmp,,,,,0,179,179,179,,,,,,,,,,,,,,,,,,,,,,,,,,,,,,,,,,,,,,,,,,None,,735.864402930066,None,735.864402930066,None,2022-04-06-14:49:45.034821,735.8651311000576,736.164056800073,735.8651311000576,735.8651311000576,None,735.8651311000576,735.8651311000576,736.6645932300482,None,,,,12014,0002,2022_Apr_06_1437,localizer,2021.1.3,60.74898636326639,
block,faces,faces006.bmp,,,,,0,180,180,180,,,,,,,,,,,,,,,,,,,,,,,,,,,,,,,,,,,,,,,,,,None,,736.6645932300482,None,736.6645932300482,None,2022-04-06-14:49:45.834013,736.6652534999885,736.9639978000196,736.6652534999885,736.6652534999885,None,736.6652534999885,736.6652534999885,737.4647170299897,None,,,,12014,0002,2022_Apr_06_1437,localizer,2021.1.3,60.74898636326639,
block,faces,faces011.bmp,,,,,0,181,181,181,,,,,,,,,,,,,,,,,,,,,,,,,,,,,,,,,,,,,,,,,,None,,737.4647170299897,None,737.4647170299897,None,2022-04-06-14:49:46.635330,737.4767051000381,737.7809920000145,737.4767051000381,737.4767051000381,None,737.4767051000381,737.4767051000381,738.2810197300744,None,,,,12014,0002,2022_Apr_06_1437,localizer,2021.1.3,60.74898636326639,
block_end,faces,faces062.bmp,,,,,0,182,182,182,,,,,,,,,,,,,,,,,,,,,,,,,,,,,,,,,,,,,,,,,,None,,738.2810197300744,None,738.2810197300744,None,2022-04-06-14:49:47.449442,738.2907156000147,738.5972981000086,738.2907156000147,None,None,738.2907156000147,None,739.0978532300098,None,,,,12014,0002,2022_Apr_06_1437,localizer,2021.1.3,60.74898636326639,
null_block,null_block,null_block.bmp,,,,,0,183,183,183,,,,,,,,,,,,,,,,,,,,,,,,,,,,,,,,,,,,,,,,,,t,1.8502451000967994,739.0974008999765,None,739.0974008999765,None,2022-04-06-14:49:50.132896,740.9643926300807,None,740.9643926300807,None,None,740.9643926300807,None,740.966225399985,None,,,,12014,0002,2022_Apr_06_1437,localizer,2021.1.3,60.74898636326639,
block_start,scrambled,scrambled057.bmp,,,,,0,184,184,184,,,,,,,,,,,,,,,,,,,,,,,,,,,,,,,,,,,,,,,,,,t,1.9670716000255197,752.9807630999712,None,752.9807630999712,None,2022-04-06-14:50:04.146346,754.9765587999718,755.28088570002,754.9765587999718,None,None,754.9765587999718,None,755.7810549299932,None,,,,12014,0002,2022_Apr_06_1437,localizer,2021.1.3,60.74898636326639,
block,scrambled,scrambled036.bmp,,,,,0,185,185,185,,,,,,,,,,,,,,,,,,,,,,,,,,,,,,,,,,,,,,,,,,None,,755.7810549299932,None,755.7810549299932,None,2022-04-06-14:50:04.948442,755.782530699973,756.0973012000322,755.782530699973,None,None,755.782530699973,None,756.5978631299688,None,,,,12014,0002,2022_Apr_06_1437,localizer,2021.1.3,60.74898636326639,
block,scrambled,scrambled043.bmp,,,,,0,186,186,186,,,,,,,,,,,,,,,,,,,,,,,,,,,,,,,,,,,,,,,,,,None,,756.5978631299688,None,756.5978631299688,None,2022-04-06-14:50:05.766286,756.5983374000061,756.8975666000042,756.5983374000061,None,None,756.5983374000061,None,757.398143530055,None,,,,12014,0002,2022_Apr_06_1437,localizer,2021.1.3,60.74898636326639,
block,scrambled,scrambled034.bmp,,,,,0,187,187,187,,,,,,,,,,,,,,,,,,,,,,,,,,,,,,,,,,,,,,,,,,None,,757.398143530055,None,757.398143530055,None,2022-04-06-14:50:06.568786,757.4098196000559,757.714375999989,757.4098196000559,757.4098196000559,None,757.4098196000559,757.4098196000559,758.2150117300218,None,,,,12014,0002,2022_Apr_06_1437,localizer,2021.1.3,60.74898636326639,
block,scrambled,scrambled078.bmp,,,,,0,188,188,188,,,,,,,,,,,,,,,,,,,,,,,,,,,,,,,,,,,,,,,,,,None,,758.2150117300218,None,758.2150117300218,None,2022-04-06-14:50:07.383430,758.2151484000497,758.5143606000347,758.2151484000497,None,None,758.2151484000497,None,759.014398430055,None,,,,12014,0002,2022_Apr_06_1437,localizer,2021.1.3,60.74898636326639,
block,scrambled,scrambled071.bmp,,,,,0,189,189,189,,,,,,,,,,,,,,,,,,,,,,,,,,,,,,,,,,,,,,,,,,None,,759.014398430055,None,759.014398430055,None,2022-04-06-14:50:08.183822,759.0150656000478,759.3143093000399,759.0150656000478,759.0150656000478,None,759.0150656000478,759.0150656000478,759.8148778300267,None,,,,12014,0002,2022_Apr_06_1437,localizer,2021.1.3,60.74898636326639,
block,scrambled,scrambled067.bmp,,,,,0,190,190,190,,,,,,,,,,,,,,,,,,,,,,,,,,,,,,,,,,,,,,,,,,None,,759.8148778300267,None,759.8148778300267,None,2022-04-06-14:50:08.985482,759.8269310999895,760.1308121000184,759.8269310999895,759.8269310999895,None,759.8269310999895,759.8269310999895,760.6311782299774,None,,,,12014,0002,2022_Apr_06_1437,localizer,2021.1.3,60.74898636326639,
block,scrambled,scrambled075.bmp,,,,,0,191,191,191,,,,,,,,,,,,,,,,,,,,,,,,,,,,,,,,,,,,,,,,,,None,,760.6311782299774,None,760.6311782299774,None,2022-04-06-14:50:09.799603,760.6398171000183,760.9539993000217,760.6398171000183,None,None,760.6398171000183,None,761.4478162300541,None,,,,12014,0002,2022_Apr_06_1437,localizer,2021.1.3,60.74898636326639,
block,scrambled,scrambled087.bmp,,,,,0,192,192,192,,,,,,,,,,,,,,,,,,,,,,,,,,,,,,,,,,,,,,,,,,None,,761.4478162300541,None,761.4478162300541,None,2022-04-06-14:50:10.616261,761.4485619000625,761.7476332000224,761.4485619000625,None,None,761.4485619000625,None,762.2481511299732,None,,,,12014,0002,2022_Apr_06_1437,localizer,2021.1.3,60.74898636326639,
block,scrambled,scrambled070.bmp,,,,,0,193,193,193,,,,,,,,,,,,,,,,,,,,,,,,,,,,,,,,,,,,,,,,,,None,,762.2481511299732,None,762.2481511299732,None,2022-04-06-14:50:11.418544,762.2489402999636,762.5479565999703,762.2489402999636,762.2489402999636,None,762.2489402999636,762.2489402999636,763.0483732300811,None,,,,12014,0002,2022_Apr_06_1437,localizer,2021.1.3,60.74898636326639,
block,scrambled,scrambled070.bmp,,,,,0,194,194,194,,,,,,,,,,,,,,,,,,,,,,,,,,,,,,,,,,,,,,,,,,None,,763.0483732300811,None,763.0483732300811,None,2022-04-06-14:50:12.218071,763.0500799000729,763.3646839000285,763.0500799000729,763.0500799000729,y,763.0500799000729,763.0500799000729,763.8650657299906,None,0.40420959994662553,,,12014,0002,2022_Apr_06_1437,localizer,2021.1.3,60.74898636326639,
block,scrambled,scrambled002.bmp,,,,,0,195,195,195,,,,,,,,,,,,,,,,,,,,,,,,,,,,,,,,,,,,,,,,,,None,,763.8650657299906,None,763.8650657299906,None,2022-04-06-14:50:13.033496,763.8652191000292,764.164243599982,763.8652191000292,None,None,763.8652191000292,None,764.6647443300346,None,,,,12014,0002,2022_Apr_06_1437,localizer,2021.1.3,60.74898636326639,
block,scrambled,scrambled049.bmp,,,,,0,196,196,196,,,,,,,,,,,,,,,,,,,,,,,,,,,,,,,,,,,,,,,,,,None,,764.6647443300346,None,764.6647443300346,None,2022-04-06-14:50:13.834163,764.6650841999799,764.9642997999908,764.6650841999799,764.6650841999799,None,764.6650841999799,764.6650841999799,765.4647876300617,None,,,,12014,0002,2022_Apr_06_1437,localizer,2021.1.3,60.74898636326639,
block,scrambled,scrambled019.bmp,,,,,0,197,197,197,,,,,,,,,,,,,,,,,,,,,,,,,,,,,,,,,,,,,,,,,,None,,765.4647876300617,None,765.4647876300617,None,2022-04-06-14:50:14.635201,765.4656102000736,765.7642481999937,765.4656102000736,765.4656102000736,None,765.4656102000736,765.4656102000736,766.2647646300495,None,,,,12014,0002,2022_Apr_06_1437,localizer,2021.1.3,60.74898636326639,
block_end,scrambled,scrambled028.bmp,,,,,0,198,198,198,,,,,,,,,,,,,,,,,,,,,,,,,,,,,,,,,,,,,,,,,,None,,766.2647646300495,None,766.2647646300495,None,2022-04-06-14:50:15.434181,766.2652084999718,766.5642489000456,766.2652084999718,766.2652084999718,None,766.2652084999718,766.2652084999718,767.065964930039,None,,,,12014,0002,2022_Apr_06_1437,localizer,2021.1.3,60.74898636326639,
block_start,faces,faces044.bmp,,,,,0,199,199,199,,,,,,,,,,,,,,,,,,,,,,,,,,,,,,,,,,,,,,,,,,t,1.880506100016646,767.0672265000176,None,767.0672265000176,None,2022-04-06-14:50:18.132062,768.9655893000308,769.2809878999833,768.9655893000308,None,None,768.9655893000308,None,769.7647052300629,None,,,,12014,0002,2022_Apr_06_1437,localizer,2021.1.3,60.74898636326639,
block,faces,faces012.bmp,,,,,0,200,200,200,,,,,,,,,,,,,,,,,,,,,,,,,,,,,,,,,,,,,,,,,,None,,769.7647052300629,None,769.7647052300629,None,2022-04-06-14:50:18.935120,769.7754880000139,770.081047100015,769.7754880000139,769.7754880000139,None,769.7754880000139,769.7754880000139,770.5811524299672,None,,,,12014,0002,2022_Apr_06_1437,localizer,2021.1.3,60.74898636326639,
block,faces,faces022.bmp,,,,,0,201,201,201,,,,,,,,,,,,,,,,,,,,,,,,,,,,,,,,,,,,,,,,,,None,,770.5811524299672,None,770.5811524299672,None,2022-04-06-14:50:19.749574,770.581807599985,770.8809949000133,770.581807599985,None,None,770.581807599985,None,771.3814167300472,None,,,,12014,0002,2022_Apr_06_1437,localizer,2021.1.3,60.74898636326639,
block,faces,faces010.bmp,,,,,0,202,202,202,,,,,,,,,,,,,,,,,,,,,,,,,,,,,,,,,,,,,,,,,,None,,771.3814167300472,None,771.3814167300472,None,2022-04-06-14:50:20.551835,771.3821615000488,771.6814228000585,771.3821615000488,771.3821615000488,None,771.3821615000488,771.3821615000488,772.1826583300019,None,,,,12014,0002,2022_Apr_06_1437,localizer,2021.1.3,60.74898636326639,
block,faces,faces062.bmp,,,,,0,203,203,203,,,,,,,,,,,,,,,,,,,,,,,,,,,,,,,,,,,,,,,,,,None,,772.1826583300019,None,772.1826583300019,None,2022-04-06-14:50:21.356050,772.1876701000147,772.497518899967,772.1876701000147,772.1876701000147,None,772.1876701000147,772.1876701000147,772.9979226299795,None,,,,12014,0002,2022_Apr_06_1437,localizer,2021.1.3,60.74898636326639,
block,faces,faces040.bmp,,,,,0,204,204,204,,,,,,,,,,,,,,,,,,,,,,,,,,,,,,,,,,,,,,,,,,None,,772.9979226299795,None,772.9979226299795,None,2022-04-06-14:50:22.166348,772.9988050999818,773.2976022000657,772.9988050999818,None,None,772.9988050999818,None,773.7982057299698,None,,,,12014,0002,2022_Apr_06_1437,localizer,2021.1.3,60.74898636326639,
block,faces,faces056.bmp,,,,,0,205,205,205,,,,,,,,,,,,,,,,,,,,,,,,,,,,,,,,,,,,,,,,,,None,,773.7982057299698,None,773.7982057299698,None,2022-04-06-14:50:22.968845,773.7992713999702,774.0981021999614,773.7992713999702,773.7992713999702,None,773.7992713999702,773.7992713999702,774.5987556300126,None,,,,12014,0002,2022_Apr_06_1437,localizer,2021.1.3,60.74898636326639,
block,faces,faces068.bmp,,,,,0,206,206,206,,,,,,,,,,,,,,,,,,,,,,,,,,,,,,,,,,,,,,,,,,None,,774.5987556300126,None,774.5987556300126,None,2022-04-06-14:50:23.770345,774.601378899999,774.9142299999949,774.601378899999,774.601378899999,None,774.601378899999,774.601378899999,775.4147781300592,None,,,,12014,0002,2022_Apr_06_1437,localizer,2021.1.3,60.74898636326639,
block,faces,faces087.bmp,,,,,0,207,207,207,,,,,,,,,,,,,,,,,,,,,,,,,,,,,,,,,,,,,,,,,,None,,775.4147781300592,None,775.4147781300592,None,2022-04-06-14:50:24.583198,775.4256538000191,775.7310231999727,775.4256538000191,None,None,775.4256538000191,None,776.2321078300477,None,,,,12014,0002,2022_Apr_06_1437,localizer,2021.1.3,60.74898636326639,
block,faces,faces074.bmp,,,,,0,208,208,208,,,,,,,,,,,,,,,,,,,,,,,,,,,,,,,,,,,,,,,,,,None,,776.2321078300477,None,776.2321078300477,None,2022-04-06-14:50:25.401515,776.2326113999588,776.531683200039,776.2326113999588,None,None,776.2326113999588,None,777.0479952299968,None,,,,12014,0002,2022_Apr_06_1437,localizer,2021.1.3,60.74898636326639,
block,faces,faces049.bmp,,,,,0,209,209,209,,,,,,,,,,,,,,,,,,,,,,,,,,,,,,,,,,,,,,,,,,None,,777.0479952299968,None,777.0479952299968,None,2022-04-06-14:50:26.216419,777.0566240999615,777.364423400024,777.0566240999615,None,None,777.0566240999615,None,777.8654683300294,None,,,,12014,0002,2022_Apr_06_1437,localizer,2021.1.3,60.74898636326639,
block,faces,faces004.bmp,,,,,0,210,210,210,,,,,,,,,,,,,,,,,,,,,,,,,,,,,,,,,,,,,,,,,,None,,777.8654683300294,None,777.8654683300294,None,2022-04-06-14:50:27.035978,777.8675657999702,778.1814633000176,777.8675657999702,None,None,777.8675657999702,None,778.6813758300152,None,,,,12014,0002,2022_Apr_06_1437,localizer,2021.1.3,60.74898636326639,
block,faces,faces039.bmp,,,,,0,211,211,211,,,,,,,,,,,,,,,,,,,,,,,,,,,,,,,,,,,,,,,,,,None,,778.6813758300152,None,778.6813758300152,None,2022-04-06-14:50:27.849341,778.6828566000331,778.9812195000704,778.6828566000331,None,None,778.6828566000331,None,779.4981264300179,None,,,,12014,0002,2022_Apr_06_1437,localizer,2021.1.3,60.74898636326639,
block,faces,faces055.bmp,,,,,0,212,212,212,,,,,,,,,,,,,,,,,,,,,,,,,,,,,,,,,,,,,,,,,,None,,779.4981264300179,None,779.4981264300179,None,2022-04-06-14:50:28.666547,779.498612800031,779.7978233000031,779.498612800031,None,None,779.498612800031,None,780.2979438300711,None,,,,12014,0002,2022_Apr_06_1437,localizer,2021.1.3,60.74898636326639,
block_end,faces,faces086.bmp,,,,,0,213,213,213,,,,,,,,,,,,,,,,,,,,,,,,,,,,,,,,,,,,,,,,,,None,,780.2979438300711,None,780.2979438300711,None,2022-04-06-14:50:29.467618,780.2985203000717,780.5975873999996,780.2985203000717,780.2985203000717,None,780.2985203000717,780.2985203000717,781.098084030021,None,,,,12014,0002,2022_Apr_06_1437,localizer,2021.1.3,60.74898636326639,
block_start,objects,objects021.bmp,,,,,0,214,214,214,,,,,,,,,,,,,,,,,,,,,,,,,,,,,,,,,,,,,,,,,,t,1.8502959999023005,781.0974708000431,None,781.0974708000431,None,2022-04-06-14:50:32.145407,782.9797770000296,783.2799837000202,782.9797770000296,None,None,782.9797770000296,None,783.7824999300531,None,,,,12014,0002,2022_Apr_06_1437,localizer,2021.1.3,60.74898636326639,
block,objects,objects046.bmp,,,,,0,215,215,215,,,,,,,,,,,,,,,,,,,,,,,,,,,,,,,,,,,,,,,,,,None,,783.7824999300531,None,783.7824999300531,None,2022-04-06-14:50:32.953568,783.7847075000172,784.0985372000141,783.7847075000172,None,None,783.7847075000172,None,784.5987849300029,None,,,,12014,0002,2022_Apr_06_1437,localizer,2021.1.3,60.74898636326639,
block,objects,objects060.bmp,,,,,0,216,216,216,,,,,,,,,,,,,,,,,,,,,,,,,,,,,,,,,,,,,,,,,,None,,784.5987849300029,None,784.5987849300029,None,2022-04-06-14:50:33.768383,784.5991463999962,784.898172599962,784.5991463999962,None,None,784.5991463999962,None,785.4150226300583,None,,,,12014,0002,2022_Apr_06_1437,localizer,2021.1.3,60.74898636326639,
block,objects,objects043.bmp,,,,,0,217,217,217,,,,,,,,,,,,,,,,,,,,,,,,,,,,,,,,,,,,,,,,,,None,,785.4150226300583,None,785.4150226300583,None,2022-04-06-14:50:34.583442,785.4152927000541,785.7145548000699,785.4152927000541,None,None,785.4152927000541,None,786.2148287300254,None,,,,12014,0002,2022_Apr_06_1437,localizer,2021.1.3,60.74898636326639,
block,objects,objects041.bmp,,,,,0,218,218,218,,,,,,,,,,,,,,,,,,,,,,,,,,,,,,,,,,,,,,,,,,None,,786.2148287300254,None,786.2148287300254,None,2022-04-06-14:50:35.385449,786.2263370000292,786.5309808000457,786.2263370000292,786.2263370000292,None,786.2263370000292,786.2263370000292,787.0314499299741,None,,,,12014,0002,2022_Apr_06_1437,localizer,2021.1.3,60.74898636326639,
block,objects,objects062.bmp,,,,,0,219,219,219,,,,,,,,,,,,,,,,,,,,,,,,,,,,,,,,,,,,,,,,,,None,,787.0314499299741,None,787.0314499299741,None,2022-04-06-14:50:36.199873,787.0320944000268,787.3307367999805,787.0320944000268,None,None,787.0320944000268,None,787.8315338300774,None,,,,12014,0002,2022_Apr_06_1437,localizer,2021.1.3,60.74898636326639,
block,objects,objects056.bmp,,,,,0,220,220,220,,,,,,,,,,,,,,,,,,,,,,,,,,,,,,,,,,,,,,,,,,None,,787.8315338300774,None,787.8315338300774,None,2022-04-06-14:50:37.001169,787.8410556999734,788.147636000067,787.8410556999734,787.8410556999734,None,787.8410556999734,787.8410556999734,788.6482060300652,None,,,,12014,0002,2022_Apr_06_1437,localizer,2021.1.3,60.74898636326639,
block,objects,objects073.bmp,,,,,0,221,221,221,,,,,,,,,,,,,,,,,,,,,,,,,,,,,,,,,,,,,,,,,,None,,788.6482060300652,None,788.6482060300652,None,2022-04-06-14:50:37.816957,788.6485616000136,788.9475030000322,788.6485616000136,None,None,788.6485616000136,None,789.4482807299821,None,,,,12014,0002,2022_Apr_06_1437,localizer,2021.1.3,60.74898636326639,
block,objects,objects010.bmp,,,,,0,222,222,222,,,,,,,,,,,,,,,,,,,,,,,,,,,,,,,,,,,,,,,,,,None,,789.4482807299821,None,789.4482807299821,None,2022-04-06-14:50:38.618891,789.4492461000336,789.7479166999692,789.4492461000336,789.4492461000336,None,789.4492461000336,789.4492461000336,790.2482841300546,None,,,,12014,0002,2022_Apr_06_1437,localizer,2021.1.3,60.74898636326639,
block,objects,objects082.bmp,,,,,0,223,223,223,,,,,,,,,,,,,,,,,,,,,,,,,,,,,,,,,,,,,,,,,,None,,790.2482841300546,None,790.2482841300546,None,2022-04-06-14:50:39.418697,790.2490970999934,790.5484447999625,790.2490970999934,790.2490970999934,None,790.2490970999934,790.2490970999934,791.0487745299936,None,,,,12014,0002,2022_Apr_06_1437,localizer,2021.1.3,60.74898636326639,
block,objects,objects038.bmp,,,,,0,224,224,224,,,,,,,,,,,,,,,,,,,,,,,,,,,,,,,,,,,,,,,,,,None,,791.0487745299936,None,791.0487745299936,None,2022-04-06-14:50:40.220176,791.0514705000678,791.3645624000346,791.0514705000678,791.0514705000678,None,791.0514705000678,791.0514705000678,791.8649251299678,None,,,,12014,0002,2022_Apr_06_1437,localizer,2021.1.3,60.74898636326639,
block,objects,objects005.bmp,,,,,0,225,225,225,,,,,,,,,,,,,,,,,,,,,,,,,,,,,,,,,,,,,,,,,,None,,791.8649251299678,None,791.8649251299678,None,2022-04-06-14:50:41.033579,791.8652831000509,792.1644345000386,791.8652831000509,None,None,791.8652831000509,None,792.6650344300317,None,,,,12014,0002,2022_Apr_06_1437,localizer,2021.1.3,60.74898636326639,
block,objects,objects079.bmp,,,,,0,226,226,226,,,,,,,,,,,,,,,,,,,,,,,,,,,,,,,,,,,,,,,,,,None,,792.6650344300317,None,792.6650344300317,None,2022-04-06-14:50:41.835662,792.6660601999611,792.9813229000429,792.6660601999611,792.6660601999611,None,792.6660601999611,792.6660601999611,793.4650729300222,None,,,,12014,0002,2022_Apr_06_1437,localizer,2021.1.3,60.74898636326639,
block,objects,objects040.bmp,,,,,0,227,227,227,,,,,,,,,,,,,,,,,,,,,,,,,,,,,,,,,,,,,,,,,,None,,793.4650729300222,None,793.4650729300222,None,2022-04-06-14:50:42.635719,793.4770808999892,793.7811764000216,793.4770808999892,793.4770808999892,None,793.4770808999892,793.4770808999892,794.2817066300661,None,,,,12014,0002,2022_Apr_06_1437,localizer,2021.1.3,60.74898636326639,
block_end,objects,objects020.bmp,,,,,0,228,228,228,,,,,,,,,,,,,,,,,,,,,,,,,,,,,,,,,,,,,,,,,,None,,794.2817066300661,None,794.2817066300661,None,2022-04-06-14:50:43.450126,794.2820737999864,794.581313700066,794.2820737999864,None,None,794.2820737999864,None,795.0815711300122,None,,,,12014,0002,2022_Apr_06_1437,localizer,2021.1.3,60.74898636326639,
block_start,scenes,scenes015.bmp,,,,,0,229,229,229,,,,,,,,,,,,,,,,,,,,,,,,,,,,,,,,,,,,,,,,,,t,1.8661870999494568,795.0813837000169,None,795.0813837000169,None,2022-04-06-14:50:46.131889,796.9732470000163,797.2813269000035,796.9732470000163,None,None,796.9732470000163,None,797.7817672300619,None,,,,12014,0002,2022_Apr_06_1437,localizer,2021.1.3,60.74898636326639,
block,scenes,scenes071.bmp,,,,,0,230,230,230,,,,,,,,,,,,,,,,,,,,,,,,,,,,,,,,,,,,,,,,,,None,,797.7817672300619,None,797.7817672300619,None,2022-04-06-14:50:46.950313,797.7820716999704,798.0810825000517,797.7820716999704,None,None,797.7820716999704,None,798.5815817299765,None,,,,12014,0002,2022_Apr_06_1437,localizer,2021.1.3,60.74898636326639,
block,scenes,scenes009.bmp,,,,,0,231,231,231,,,,,,,,,,,,,,,,,,,,,,,,,,,,,,,,,,,,,,,,,,None,,798.5815817299765,None,798.5815817299765,None,2022-04-06-14:50:47.752260,798.5933755000588,798.8980796000687,798.5933755000588,798.5933755000588,None,798.5933755000588,798.5933755000588,799.4047786300537,None,,,,12014,0002,2022_Apr_06_1437,localizer,2021.1.3,60.74898636326639,
block,scenes,scenes072.bmp,,,,,0,232,232,232,,,,,,,,,,,,,,,,,,,,,,,,,,,,,,,,,,,,,,,,,,None,,799.4047786300537,None,799.4047786300537,None,2022-04-06-14:50:48.581136,799.4138740999624,799.7145454999991,799.4138740999624,None,None,799.4138740999624,None,800.2162579300814,None,,,,12014,0002,2022_Apr_06_1437,localizer,2021.1.3,60.74898636326639,
block,scenes,scenes035.bmp,,,,,0,233,233,233,,,,,,,,,,,,,,,,,,,,,,,,,,,,,,,,,,,,,,,,,,None,,800.2162579300814,None,800.2162579300814,None,2022-04-06-14:50:49.386475,800.2296364000067,800.534892500029,800.2296364000067,None,None,800.2296364000067,None,801.0314387300052,None,,,,12014,0002,2022_Apr_06_1437,localizer,2021.1.3,60.74898636326639,
block,scenes,scenes068.bmp,,,,,0,234,234,234,,,,,,,,,,,,,,,,,,,,,,,,,,,,,,,,,,,,,,,,,,None,,801.0314387300052,None,801.0314387300052,None,2022-04-06-14:50:50.199866,801.0322604000103,801.3312789000338,801.0322604000103,None,None,801.0322604000103,None,801.8319288300584,None,,,,12014,0002,2022_Apr_06_1437,localizer,2021.1.3,60.74898636326639,
block,scenes,scenes004.bmp,,,,,0,235,235,235,,,,,,,,,,,,,,,,,,,,,,,,,,,,,,,,,,,,,,,,,,None,,801.8319288300584,None,801.8319288300584,None,2022-04-06-14:50:51.003335,801.834467299981,802.1477546000388,801.834467299981,801.834467299981,None,801.834467299981,801.834467299981,802.6484070300824,None,,,,12014,0002,2022_Apr_06_1437,localizer,2021.1.3,60.74898636326639,
block,scenes,scenes011.bmp,,,,,0,236,236,236,,,,,,,,,,,,,,,,,,,,,,,,,,,,,,,,,,,,,,,,,,None,,802.6484070300824,None,802.6484070300824,None,2022-04-06-14:50:51.816828,802.6487407999812,802.9543234000448,802.6487407999812,None,None,802.6487407999812,None,803.4482872300316,None,,,,12014,0002,2022_Apr_06_1437,localizer,2021.1.3,60.74898636326639,
block,scenes,scenes034.bmp,,,,,0,237,237,237,,,,,,,,,,,,,,,,,,,,,,,,,,,,,,,,,,,,,,,,,,None,,803.4482872300316,None,803.4482872300316,None,2022-04-06-14:50:52.618701,803.4490791000426,803.7479468999663,803.4490791000426,803.4490791000426,None,803.4490791000426,803.4490791000426,804.2482933300082,None,,,,12014,0002,2022_Apr_06_1437,localizer,2021.1.3,60.74898636326639,
block,scenes,scenes046.bmp,,,,,0,238,238,238,,,,,,,,,,,,,,,,,,,,,,,,,,,,,,,,,,,,,,,,,,None,,804.2482933300082,None,804.2482933300082,None,2022-04-06-14:50:53.418898,804.2599591000471,804.5646028000629,804.2599591000471,804.2599591000471,None,804.2599591000471,804.2599591000471,805.065107330028,None,,,,12014,0002,2022_Apr_06_1437,localizer,2021.1.3,60.74898636326639,
block,scenes,scenes091.bmp,,,,,0,239,239,239,,,,,,,,,,,,,,,,,,,,,,,,,,,,,,,,,,,,,,,,,,None,,805.065107330028,None,805.065107330028,None,2022-04-06-14:50:54.233526,805.0654386000242,805.3645306000253,805.0654386000242,None,None,805.0654386000242,None,805.8648507299833,None,,,,12014,0002,2022_Apr_06_1437,localizer,2021.1.3,60.74898636326639,
block,scenes,scenes025.bmp,,,,,0,240,240,240,,,,,,,,,,,,,,,,,,,,,,,,,,,,,,,,,,,,,,,,,,None,,805.8648507299833,None,805.8648507299833,None,2022-04-06-14:50:55.035061,805.8657602000749,806.1643980999943,805.8657602000749,805.8657602000749,None,805.8657602000749,805.8657602000749,806.6649668299826,None,,,,12014,0002,2022_Apr_06_1437,localizer,2021.1.3,60.74898636326639,
block,scenes,scenes022.bmp,,,,,0,241,241,241,,,,,,,,,,,,,,,,,,,,,,,,,,,,,,,,,,,,,,,,,,None,,806.6649668299826,None,806.6649668299826,None,2022-04-06-14:50:55.835379,806.67801100004,806.9810914000263,806.67801100004,806.67801100004,None,806.67801100004,806.67801100004,807.4815219300101,None,,,,12014,0002,2022_Apr_06_1437,localizer,2021.1.3,60.74898636326639,
block,scenes,scenes073.bmp,,,,,0,242,242,242,,,,,,,,,,,,,,,,,,,,,,,,,,,,,,,,,,,,,,,,,,None,,807.4815219300101,None,807.4815219300101,None,2022-04-06-14:50:56.649946,807.491679299972,807.7979759000009,807.491679299972,None,None,807.491679299972,None,808.2983610299882,None,,,,12014,0002,2022_Apr_06_1437,localizer,2021.1.3,60.74898636326639,
block_end,scenes,scenes084.bmp,,,,,0,243,243,243,,,,,,,,,,,,,,,,,,,,,,,,,,,,,,,,,,,,,,,,,,None,,808.2983610299882,None,808.2983610299882,None,2022-04-06-14:50:57.466781,808.2991489999695,808.5979824999813,808.2991489999695,None,None,808.2991489999695,None,809.0983387299814,None,,,,12014,0002,2022_Apr_06_1437,localizer,2021.1.3,60.74898636326639,
,,,,,,,,,,,,,,,,,,,,,,,,,,,,,,,,,,,,,,,,,,,,,,,,,,,,,,,,,,,,,,,,,,,,,809.0985997000244,None,,,,,,,
