block_type,condition,img_name,Button.thisRepN,Button.thisTrialN,Button.thisN,Button.thisIndex,trials.thisRepN,trials.thisTrialN,trials.thisN,trials.thisIndex,Ready_experimenter_text.started,Ready_experimenter_text.stopped,Ready_experimenter_resp.keys,Ready_experimenter_resp.rt,Ready_experimenter_resp.started,Ready_experimenter_resp.stopped,Alignment_background.started,Alignment_background.stopped,Alignment_image.started,Alignment_image.stopped,Alignment_resp.keys,Alignment_resp.rt,Alignment_resp.started,Alignment_resp.stopped,Button_text.started,Button_text.stopped,Index_text.started,Index_text.stopped,Index_resp.keys,Index_resp.rt,Index_resp.started,Index_resp.stopped,Middle_text.started,Middle_text.stopped,Middle_resp.keys,Middle_resp.rt,Middle_resp.started,Middle_resp.stopped,Repeat_text.started,Repeat_text.stopped,Repeat_resp.keys,Repeat_resp.corr,Repeat_resp.rt,Repeat_resp.started,Repeat_resp.stopped,instruction_text.started,instruction_text.stopped,key_resp.keys,key_resp.rt,key_resp.started,key_resp.stopped,scanner_t.keys,scanner_t.rt,scanner_t.started,scanner_t.stopped,fixation_wait_for_t.started,fixation_wait_for_t.stopped,real_timestamp_trial_start,image.started,image.stopped,fixation.started,fixation.stopped,repeat_response.keys,repeat_response.started,repeat_response.stopped,fixation_null.started,fixation_null.stopped,repeat_response.rt,end_text.started,end_text.stopped,participant,run,date,expName,psychopyVersion,frameRate,
,,,,,,,,,,,8.516890099970624,None,return,85.15479890001006,8.516890099970624,None,,,,,,,,,,,,,,,,,,,,,,,,,,,,,,,,,,,,,,,,,,,,,,,,,,,,,,,12014,0001,2022_Apr_06_1429,localizer,2021.1.3,60.487468488288755,
,,,,,,,,,,,,,,,,,93.71658870007377,None,93.71658870007377,None,return,7.450813399977051,93.71658870007377,None,,,,,,,,,,,,,,,,,,,,,,,,,,,,,,,,,,,,,,,,,,,,,,,12014,0001,2022_Apr_06_1429,localizer,2021.1.3,60.487468488288755,
,,,0,0,0,0,,,,,,,,,,,,,,,,,,,101.19836499996018,None,102.21034610003699,None,y,2.9121225000126287,102.21034610003699,None,105.14727429999039,None,b,1.6151050999760628,105.14727429999039,None,106.79705719999038,None,n,0,1.7172675000037998,106.79705719999038,None,,,,,,,,,,,,,,,,,,,,,,,,,,12014,0001,2022_Apr_06_1429,localizer,2021.1.3,60.487468488288755,
,,,,,,,,,,,,,,,,,,,,,,,,,,,,,,,,,,,,,,,,,,,,,,108.54434979998041,None,y,33.4210802000016,108.54434979998041,None,,,,,,,,,,,,,,,,,,,,12014,0001,2022_Apr_06_1429,localizer,2021.1.3,60.487468488288755,
null_block,null_block,null_block.bmp,,,,,0,0,0,0,,,,,,,,,,,,,,,,,,,,,,,,,,,,,,,,,,,,,,,,,,t,15.577272599912249,142.05729819997214,None,142.05729819997214,None,2022-04-06-14:32:14.526001,157.67774718005677,None,157.67774718005677,None,None,157.67774718005677,None,157.67636889999267,None,,,,12014,0001,2022_Apr_06_1429,localizer,2021.1.3,60.487468488288755,
block_start,faces,faces030.bmp,,,,,0,1,1,1,,,,,,,,,,,,,,,,,,,,,,,,,,,,,,,,,,,,,,,,,,t,1.9576321000931785,169.6766732999822,None,169.6766732999822,None,2022-04-06-14:32:28.526960,171.66837660002057,171.97782500006724,171.66837660002057,None,None,171.66837660002057,None,172.47670153997606,None,,,,12014,0001,2022_Apr_06_1429,localizer,2021.1.3,60.487468488288755,
block,faces,faces037.bmp,,,,,0,2,2,2,,,,,,,,,,,,,,,,,,,,,,,,,,,,,,,,,,,,,,,,,,None,,172.47670153997606,None,172.47670153997606,None,2022-04-06-14:32:29.342695,172.4847515000729,172.7935902000172,172.4847515000729,None,None,172.4847515000729,None,173.29399344002596,None,,,,12014,0001,2022_Apr_06_1429,localizer,2021.1.3,60.487468488288755,
block,faces,faces026.bmp,,,,,0,3,3,3,,,,,,,,,,,,,,,,,,,,,,,,,,,,,,,,,,,,,,,,,,None,,173.29399344002596,None,173.29399344002596,None,2022-04-06-14:32:30.160217,173.33177839999553,173.64332470006775,173.33177839999553,None,None,173.33177839999553,None,174.10968173997244,None,,,,12014,0001,2022_Apr_06_1429,localizer,2021.1.3,60.487468488288755,
block,faces,faces022.bmp,,,,,0,4,4,4,,,,,,,,,,,,,,,,,,,,,,,,,,,,,,,,,,,,,,,,,,None,,174.10968173997244,None,174.10968173997244,None,2022-04-06-14:32:30.974824,174.11361030000262,174.42631080001593,174.11361030000262,None,None,174.11361030000262,None,174.92786564006238,None,,,,12014,0001,2022_Apr_06_1429,localizer,2021.1.3,60.487468488288755,
block,faces,faces028.bmp,,,,,0,5,5,5,,,,,,,,,,,,,,,,,,,,,,,,,,,,,,,,,,,,,,,,,,None,,174.92786564006238,None,174.92786564006238,None,2022-04-06-14:32:31.795296,174.94033680006396,175.24321900005452,174.94033680006396,None,None,174.94033680006396,None,175.7435670399922,None,,,,12014,0001,2022_Apr_06_1429,localizer,2021.1.3,60.487468488288755,
block,faces,faces009.bmp,,,,,0,6,6,6,,,,,,,,,,,,,,,,,,,,,,,,,,,,,,,,,,,,,,,,,,None,,175.7435670399922,None,175.7435670399922,None,2022-04-06-14:32:32.609833,175.747831900022,176.04993440001272,175.747831900022,None,None,175.747831900022,None,176.5509233400575,None,,,,12014,0001,2022_Apr_06_1429,localizer,2021.1.3,60.487468488288755,
block,faces,faces059.bmp,,,,,0,7,7,7,,,,,,,,,,,,,,,,,,,,,,,,,,,,,,,,,,,,,,,,,,None,,176.5509233400575,None,176.5509233400575,None,2022-04-06-14:32:33.423132,176.5687537000049,176.87695399997756,176.5687537000049,None,None,176.5687537000049,None,177.36061723999447,None,,,,12014,0001,2022_Apr_06_1429,localizer,2021.1.3,60.487468488288755,
block,faces,faces067.bmp,,,,,0,8,8,8,,,,,,,,,,,,,,,,,,,,,,,,,,,,,,,,,,,,,,,,,,None,,177.36061723999447,None,177.36061723999447,None,2022-04-06-14:32:34.227023,177.36739659996238,177.6774790000636,177.36739659996238,None,None,177.36739659996238,None,178.17792204002617,None,,,,12014,0001,2022_Apr_06_1429,localizer,2021.1.3,60.487468488288755,
block,faces,faces032.bmp,,,,,0,9,9,9,,,,,,,,,,,,,,,,,,,,,,,,,,,,,,,,,,,,,,,,,,None,,178.17792204002617,None,178.17792204002617,None,2022-04-06-14:32:35.045197,178.18915600003675,178.49645139998756,178.18915600003675,None,None,178.18915600003675,None,178.99363604005194,None,,,,12014,0001,2022_Apr_06_1429,localizer,2021.1.3,60.487468488288755,
block,faces,faces055.bmp,,,,,0,10,10,10,,,,,,,,,,,,,,,,,,,,,,,,,,,,,,,,,,,,,,,,,,None,,178.99363604005194,None,178.99363604005194,None,2022-04-06-14:32:35.860073,179.00012530002277,179.31008159997873,179.00012530002277,None,None,179.00012530002277,None,179.81063224006212,None,,,,12014,0001,2022_Apr_06_1429,localizer,2021.1.3,60.487468488288755,
block,faces,faces027.bmp,,,,,0,11,11,11,,,,,,,,,,,,,,,,,,,,,,,,,,,,,,,,,,,,,,,,,,None,,179.81063224006212,None,179.81063224006212,None,2022-04-06-14:32:36.677091,179.81820119998883,180.12681409996003,179.81820119998883,None,None,179.81820119998883,None,180.6274913400761,None,,,,12014,0001,2022_Apr_06_1429,localizer,2021.1.3,60.487468488288755,
block,faces,faces027.bmp,,,,,0,12,12,12,,,,,,,,,,,,,,,,,,,,,,,,,,,,,,,,,,,,,,,,,,None,,180.6274913400761,None,180.6274913400761,None,2022-04-06-14:32:37.493917,180.62805130006745,180.92707630002405,180.62805130006745,None,y,180.62805130006745,None,181.42842083998258,None,0.5273481999756768,,,12014,0001,2022_Apr_06_1429,localizer,2021.1.3,60.487468488288755,
block,faces,faces081.bmp,,,,,0,13,13,13,,,,,,,,,,,,,,,,,,,,,,,,,,,,,,,,,,,,,,,,,,None,,181.42842083998258,None,181.42842083998258,None,2022-04-06-14:32:38.300801,181.44597750005778,181.76048419997096,181.44597750005778,181.44597750005778,None,181.44597750005778,181.44597750005778,182.24428024006775,None,,,,12014,0001,2022_Apr_06_1429,localizer,2021.1.3,60.487468488288755,
block,faces,faces025.bmp,,,,,0,14,14,14,,,,,,,,,,,,,,,,,,,,,,,,,,,,,,,,,,,,,,,,,,None,,182.24428024006775,None,182.24428024006775,None,2022-04-06-14:32:39.111690,182.25505170004908,182.5602532000048,182.25505170004908,None,None,182.25505170004908,None,183.0504283400136,None,,,,12014,0001,2022_Apr_06_1429,localizer,2021.1.3,60.487468488288755,
block_end,faces,faces035.bmp,,,,,0,15,15,15,,,,,,,,,,,,,,,,,,,,,,,,,,,,,,,,,,,,,,,,,,None,,183.0504283400136,None,183.0504283400136,None,2022-04-06-14:32:39.922635,183.06612700002734,183.3766455000732,183.06612700002734,None,None,183.06612700002734,None,183.8606215400272,None,,,,12014,0001,2022_Apr_06_1429,localizer,2021.1.3,60.487468488288755,
block_start,scenes,scenes080.bmp,,,,,0,16,16,16,,,,,,,,,,,,,,,,,,,,,,,,,,,,,,,,,,,,,,,,,,t,1.7740612999768928,183.86029810004402,None,183.86029810004402,None,2022-04-06-14:32:42.528545,185.67283689999022,185.97688269999344,185.67283689999022,None,None,185.67283689999022,None,186.47728493999458,None,,,,12014,0001,2022_Apr_06_1429,localizer,2021.1.3,60.487468488288755,
block,scenes,scenes060.bmp,,,,,0,17,17,17,,,,,,,,,,,,,,,,,,,,,,,,,,,,,,,,,,,,,,,,,,None,,186.47728493999458,None,186.47728493999458,None,2022-04-06-14:32:43.343515,186.4883192999987,186.79358020005748,186.4883192999987,None,None,186.4883192999987,None,187.29387064002222,None,,,,12014,0001,2022_Apr_06_1429,localizer,2021.1.3,60.487468488288755,
block,scenes,scenes079.bmp,,,,,0,18,18,18,,,,,,,,,,,,,,,,,,,,,,,,,,,,,,,,,,,,,,,,,,None,,187.29387064002222,None,187.29387064002222,None,2022-04-06-14:32:44.160095,187.30306309997104,187.61053549998906,187.30306309997104,None,None,187.30306309997104,None,188.11043393999572,None,,,,12014,0001,2022_Apr_06_1429,localizer,2021.1.3,60.487468488288755,
block,scenes,scenes012.bmp,,,,,0,19,19,19,,,,,,,,,,,,,,,,,,,,,,,,,,,,,,,,,,,,,,,,,,None,,188.11043393999572,None,188.11043393999572,None,2022-04-06-14:32:44.976663,188.1186839999864,188.42697360005695,188.1186839999864,None,None,188.1186839999864,None,188.9273142400547,None,,,,12014,0001,2022_Apr_06_1429,localizer,2021.1.3,60.487468488288755,
block,scenes,scenes016.bmp,,,,,0,20,20,20,,,,,,,,,,,,,,,,,,,,,,,,,,,,,,,,,,,,,,,,,,None,,188.9273142400547,None,188.9273142400547,None,2022-04-06-14:32:45.793541,188.94271790003404,189.24344069999643,188.94271790003404,None,None,188.94271790003404,None,189.7446081400034,None,,,,12014,0001,2022_Apr_06_1429,localizer,2021.1.3,60.487468488288755,
block,scenes,scenes088.bmp,,,,,0,21,21,21,,,,,,,,,,,,,,,,,,,,,,,,,,,,,,,,,,,,,,,,,,None,,189.7446081400034,None,189.7446081400034,None,2022-04-06-14:32:46.612013,189.75614279997535,190.06327370007057,189.75614279997535,None,None,189.75614279997535,None,190.5605779399979,None,,,,12014,0001,2022_Apr_06_1429,localizer,2021.1.3,60.487468488288755,
block,scenes,scenes024.bmp,,,,,0,22,22,22,,,,,,,,,,,,,,,,,,,,,,,,,,,,,,,,,,,,,,,,,,None,,190.5605779399979,None,190.5605779399979,None,2022-04-06-14:32:47.426806,190.57023610000033,190.87692329997662,190.57023610000033,None,None,190.57023610000033,None,191.37741773998133,None,,,,12014,0001,2022_Apr_06_1429,localizer,2021.1.3,60.487468488288755,
block,scenes,scenes043.bmp,,,,,0,23,23,23,,,,,,,,,,,,,,,,,,,,,,,,,,,,,,,,,,,,,,,,,,None,,191.37741773998133,None,191.37741773998133,None,2022-04-06-14:32:48.244221,191.3881274999585,191.69366240000818,191.3881274999585,None,None,191.3881274999585,None,192.19397894005525,None,,,,12014,0001,2022_Apr_06_1429,localizer,2021.1.3,60.487468488288755,
block,scenes,scenes069.bmp,,,,,0,24,24,24,,,,,,,,,,,,,,,,,,,,,,,,,,,,,,,,,,,,,,,,,,None,,192.19397894005525,None,192.19397894005525,None,2022-04-06-14:32:49.060206,192.20367900002748,192.5103958999971,192.20367900002748,None,None,192.20367900002748,None,193.01060954007554,None,,,,12014,0001,2022_Apr_06_1429,localizer,2021.1.3,60.487468488288755,
block,scenes,scenes027.bmp,,,,,0,25,25,25,,,,,,,,,,,,,,,,,,,,,,,,,,,,,,,,,,,,,,,,,,None,,193.01060954007554,None,193.01060954007554,None,2022-04-06-14:32:49.877028,193.02219000004698,193.32689799997024,193.02219000004698,None,None,193.02219000004698,None,193.82742764001014,None,,,,12014,0001,2022_Apr_06_1429,localizer,2021.1.3,60.487468488288755,
block,scenes,scenes034.bmp,,,,,0,26,26,26,,,,,,,,,,,,,,,,,,,,,,,,,,,,,,,,,,,,,,,,,,None,,193.82742764001014,None,193.82742764001014,None,2022-04-06-14:32:50.693877,193.83791790006217,194.14438910002355,193.83791790006217,None,None,193.83791790006217,None,194.6452862400678,None,,,,12014,0001,2022_Apr_06_1429,localizer,2021.1.3,60.487468488288755,
block,scenes,scenes033.bmp,,,,,0,27,27,27,,,,,,,,,,,,,,,,,,,,,,,,,,,,,,,,,,,,,,,,,,None,,194.6452862400678,None,194.6452862400678,None,2022-04-06-14:32:51.512677,194.65726390003692,194.96012529998552,194.65726390003692,None,None,194.65726390003692,None,195.46080824002857,None,,,,12014,0001,2022_Apr_06_1429,localizer,2021.1.3,60.487468488288755,
block,scenes,scenes084.bmp,,,,,0,28,28,28,,,,,,,,,,,,,,,,,,,,,,,,,,,,,,,,,,,,,,,,,,None,,195.46080824002857,None,195.46080824002857,None,2022-04-06-14:32:52.327019,195.46830399997998,195.77657990006264,195.46830399997998,None,None,195.46830399997998,None,196.27661274004495,None,,,,12014,0001,2022_Apr_06_1429,localizer,2021.1.3,60.487468488288755,
block,scenes,scenes083.bmp,,,,,0,29,29,29,,,,,,,,,,,,,,,,,,,,,,,,,,,,,,,,,,,,,,,,,,None,,196.27661274004495,None,196.27661274004495,None,2022-04-06-14:32:53.142343,196.27996329998132,196.59372250002343,196.27996329998132,None,None,196.27996329998132,None,197.09389053998748,None,,,,12014,0001,2022_Apr_06_1429,localizer,2021.1.3,60.487468488288755,
block_end,scenes,scenes031.bmp,,,,,0,30,30,30,,,,,,,,,,,,,,,,,,,,,,,,,,,,,,,,,,,,,,,,,,None,,197.09389053998748,None,197.09389053998748,None,2022-04-06-14:32:53.960123,197.10226000007242,197.41066429996863,197.10226000007242,None,None,197.10226000007242,None,197.91057124004,None,,,,12014,0001,2022_Apr_06_1429,localizer,2021.1.3,60.487468488288755,
block_start,scrambled,scrambled080.bmp,,,,,0,31,31,31,,,,,,,,,,,,,,,,,,,,,,,,,,,,,,,,,,,,,,,,,,t,1.724076799931936,197.91038480005227,None,197.91038480005227,None,2022-04-06-14:32:56.529209,199.67429080000147,199.9770727000432,199.67429080000147,None,None,199.67429080000147,None,200.47705834001536,None,,,,12014,0001,2022_Apr_06_1429,localizer,2021.1.3,60.487468488288755,
block,scrambled,scrambled081.bmp,,,,,0,32,32,32,,,,,,,,,,,,,,,,,,,,,,,,,,,,,,,,,,,,,,,,,,None,,200.47705834001536,None,200.47705834001536,None,2022-04-06-14:32:57.343288,200.4859882000601,200.79405380005483,200.4859882000601,None,None,200.4859882000601,None,201.29408294000896,None,,,,12014,0001,2022_Apr_06_1429,localizer,2021.1.3,60.487468488288755,
block,scrambled,scrambled047.bmp,,,,,0,33,33,33,,,,,,,,,,,,,,,,,,,,,,,,,,,,,,,,,,,,,,,,,,None,,201.29408294000896,None,201.29408294000896,None,2022-04-06-14:32:58.160308,201.30337390000932,201.6103129000403,201.30337390000932,None,None,201.30337390000932,None,202.11237513999222,None,,,,12014,0001,2022_Apr_06_1429,localizer,2021.1.3,60.487468488288755,
block,scrambled,scrambled049.bmp,,,,,0,34,34,34,,,,,,,,,,,,,,,,,,,,,,,,,,,,,,,,,,,,,,,,,,None,,202.11237513999222,None,202.11237513999222,None,2022-04-06-14:32:58.980761,202.12620649999008,202.4269559000386,202.12620649999008,None,None,202.12620649999008,None,202.92814543998102,None,,,,12014,0001,2022_Apr_06_1429,localizer,2021.1.3,60.487468488288755,
block,scrambled,scrambled035.bmp,,,,,0,35,35,35,,,,,,,,,,,,,,,,,,,,,,,,,,,,,,,,,,,,,,,,,,None,,202.92814543998102,None,202.92814543998102,None,2022-04-06-14:32:59.796080,202.94011500000488,203.24356009997427,202.94011500000488,None,None,202.94011500000488,None,203.74626314003254,None,,,,12014,0001,2022_Apr_06_1429,localizer,2021.1.3,60.487468488288755,
block,scrambled,scrambled011.bmp,,,,,0,36,36,36,,,,,,,,,,,,,,,,,,,,,,,,,,,,,,,,,,,,,,,,,,None,,203.74626314003254,None,203.74626314003254,None,2022-04-06-14:33:00.616451,203.75979270006064,204.06021620007232,203.75979270006064,None,None,203.75979270006064,None,204.5606234399951,None,,,,12014,0001,2022_Apr_06_1429,localizer,2021.1.3,60.487468488288755,
block,scrambled,scrambled078.bmp,,,,,0,37,37,37,,,,,,,,,,,,,,,,,,,,,,,,,,,,,,,,,,,,,,,,,,None,,204.5606234399951,None,204.5606234399951,None,2022-04-06-14:33:01.426816,204.56866250000894,204.8771856999956,204.56866250000894,None,None,204.56866250000894,None,205.37742054000265,None,,,,12014,0001,2022_Apr_06_1429,localizer,2021.1.3,60.487468488288755,
block,scrambled,scrambled021.bmp,,,,,0,38,38,38,,,,,,,,,,,,,,,,,,,,,,,,,,,,,,,,,,,,,,,,,,None,,205.37742054000265,None,205.37742054000265,None,2022-04-06-14:33:02.243647,205.38708130002487,205.70032549998723,205.38708130002487,None,None,205.38708130002487,None,206.1953963400214,None,,,,12014,0001,2022_Apr_06_1429,localizer,2021.1.3,60.487468488288755,
block,scrambled,scrambled019.bmp,,,,,0,39,39,39,,,,,,,,,,,,,,,,,,,,,,,,,,,,,,,,,,,,,,,,,,None,,206.1953963400214,None,206.1953963400214,None,2022-04-06-14:33:03.064597,206.20879509998485,206.5102906000102,206.20879509998485,None,None,206.20879509998485,None,207.01096493998776,None,,,,12014,0001,2022_Apr_06_1429,localizer,2021.1.3,60.487468488288755,
block,scrambled,scrambled065.bmp,,,,,0,40,40,40,,,,,,,,,,,,,,,,,,,,,,,,,,,,,,,,,,,,,,,,,,None,,207.01096493998776,None,207.01096493998776,None,2022-04-06-14:33:03.878385,207.02134580002166,207.32703970000148,207.02134580002166,None,None,207.02134580002166,None,207.82757793999045,None,,,,12014,0001,2022_Apr_06_1429,localizer,2021.1.3,60.487468488288755,
block,scrambled,scrambled012.bmp,,,,,0,41,41,41,,,,,,,,,,,,,,,,,,,,,,,,,,,,,,,,,,,,,,,,,,None,,207.82757793999045,None,207.82757793999045,None,2022-04-06-14:33:04.694011,207.8370970999822,208.14416859997436,207.8370970999822,None,None,207.8370970999822,None,208.64449134006864,None,,,,12014,0001,2022_Apr_06_1429,localizer,2021.1.3,60.487468488288755,
block,scrambled,scrambled071.bmp,,,,,0,42,42,42,,,,,,,,,,,,,,,,,,,,,,,,,,,,,,,,,,,,,,,,,,None,,208.64449134006864,None,208.64449134006864,None,2022-04-06-14:33:05.511884,208.6551006999798,208.9601792000467,208.6551006999798,None,None,208.6551006999798,None,209.4608720400487,None,,,,12014,0001,2022_Apr_06_1429,localizer,2021.1.3,60.487468488288755,
block,scrambled,scrambled030.bmp,,,,,0,43,43,43,,,,,,,,,,,,,,,,,,,,,,,,,,,,,,,,,,,,,,,,,,None,,209.4608720400487,None,209.4608720400487,None,2022-04-06-14:33:06.327308,209.4705251000123,209.77696020004805,209.4705251000123,None,None,209.4705251000123,None,210.27874184007524,None,,,,12014,0001,2022_Apr_06_1429,localizer,2021.1.3,60.487468488288755,
block,scrambled,scrambled013.bmp,,,,,0,44,44,44,,,,,,,,,,,,,,,,,,,,,,,,,,,,,,,,,,,,,,,,,,None,,210.27874184007524,None,210.27874184007524,None,2022-04-06-14:33:07.147942,210.2920627000276,210.59380450006574,210.2920627000276,None,None,210.2920627000276,None,211.09418464001502,None,,,,12014,0001,2022_Apr_06_1429,localizer,2021.1.3,60.487468488288755,
block_end,scrambled,scrambled063.bmp,,,,,0,45,45,45,,,,,,,,,,,,,,,,,,,,,,,,,,,,,,,,,,,,,,,,,,None,,211.09418464001502,None,211.09418464001502,None,2022-04-06-14:33:07.960650,211.10392190003768,211.41268930002116,211.10392190003768,None,None,211.10392190003768,None,211.9114998400095,None,,,,12014,0001,2022_Apr_06_1429,localizer,2021.1.3,60.487468488288755,
block_start,objects,objects034.bmp,,,,,0,46,46,46,,,,,,,,,,,,,,,,,,,,,,,,,,,,,,,,,,,,,,,,,,t,1.7234649999300018,211.91102420003153,None,211.91102420003153,None,2022-04-06-14:33:10.527067,213.6710039000027,213.97703199996613,213.6710039000027,None,None,213.6710039000027,None,214.4780869400478,None,,,,12014,0001,2022_Apr_06_1429,localizer,2021.1.3,60.487468488288755,
block,objects,objects002.bmp,,,,,0,47,47,47,,,,,,,,,,,,,,,,,,,,,,,,,,,,,,,,,,,,,,,,,,None,,214.4780869400478,None,214.4780869400478,None,2022-04-06-14:33:11.345362,214.490159100038,214.79381770000327,214.490159100038,None,None,214.490159100038,None,215.2938344399794,None,,,,12014,0001,2022_Apr_06_1429,localizer,2021.1.3,60.487468488288755,
block,objects,objects065.bmp,,,,,0,48,48,48,,,,,,,,,,,,,,,,,,,,,,,,,,,,,,,,,,,,,,,,,,None,,215.2938344399794,None,215.2938344399794,None,2022-04-06-14:33:12.160062,215.3000650999602,215.61068459996022,215.3000650999602,None,None,215.3000650999602,None,216.11217944001547,None,,,,12014,0001,2022_Apr_06_1429,localizer,2021.1.3,60.487468488288755,
block,objects,objects044.bmp,,,,,0,49,49,49,,,,,,,,,,,,,,,,,,,,,,,,,,,,,,,,,,,,,,,,,,None,,216.11217944001547,None,216.11217944001547,None,2022-04-06-14:33:12.980573,216.12574579997454,216.42758260003757,216.12574579997454,None,None,216.12574579997454,None,216.92741674002028,None,,,,12014,0001,2022_Apr_06_1429,localizer,2021.1.3,60.487468488288755,
block,objects,objects073.bmp,,,,,0,50,50,50,,,,,,,,,,,,,,,,,,,,,,,,,,,,,,,,,,,,,,,,,,None,,216.92741674002028,None,216.92741674002028,None,2022-04-06-14:33:13.793642,216.93685439997353,217.24364510003943,216.93685439997353,None,None,216.93685439997353,None,217.74423154004617,None,,,,12014,0001,2022_Apr_06_1429,localizer,2021.1.3,60.487468488288755,
block,objects,objects012.bmp,,,,,0,51,51,51,,,,,,,,,,,,,,,,,,,,,,,,,,,,,,,,,,,,,,,,,,None,,217.74423154004617,None,217.74423154004617,None,2022-04-06-14:33:14.610453,217.7545046999585,218.0605703999754,217.7545046999585,None,None,217.7545046999585,None,218.5620938400156,None,,,,12014,0001,2022_Apr_06_1429,localizer,2021.1.3,60.487468488288755,
block,objects,objects033.bmp,,,,,0,52,52,52,,,,,,,,,,,,,,,,,,,,,,,,,,,,,,,,,,,,,,,,,,None,,218.5620938400156,None,218.5620938400156,None,2022-04-06-14:33:15.430488,218.5756600999739,218.87701940000989,218.5756600999739,None,None,218.5756600999739,None,219.37717624000507,None,,,,12014,0001,2022_Apr_06_1429,localizer,2021.1.3,60.487468488288755,
block,objects,objects003.bmp,,,,,0,53,53,53,,,,,,,,,,,,,,,,,,,,,,,,,,,,,,,,,,,,,,,,,,None,,219.37717624000507,None,219.37717624000507,None,2022-04-06-14:33:16.243261,219.38025429996196,219.69356320006773,219.38025429996196,None,None,219.38025429996196,None,220.19471574007767,None,,,,12014,0001,2022_Apr_06_1429,localizer,2021.1.3,60.487468488288755,
block,objects,objects008.bmp,,,,,0,54,54,54,,,,,,,,,,,,,,,,,,,,,,,,,,,,,,,,,,,,,,,,,,None,,220.19471574007767,None,220.19471574007767,None,2022-04-06-14:33:17.060943,220.20484829996713,220.51425470004324,220.20484829996713,None,None,220.20484829996713,None,221.01051694006892,None,,,,12014,0001,2022_Apr_06_1429,localizer,2021.1.3,60.487468488288755,
block,objects,objects019.bmp,,,,,0,55,55,55,,,,,,,,,,,,,,,,,,,,,,,,,,,,,,,,,,,,,,,,,,None,,221.01051694006892,None,221.01051694006892,None,2022-04-06-14:33:17.876989,221.01979020005092,221.32712919998448,221.01979020005092,None,None,221.01979020005092,None,221.8280670399894,None,,,,12014,0001,2022_Apr_06_1429,localizer,2021.1.3,60.487468488288755,
block,objects,objects085.bmp,,,,,0,56,56,56,,,,,,,,,,,,,,,,,,,,,,,,,,,,,,,,,,,,,,,,,,None,,221.8280670399894,None,221.8280670399894,None,2022-04-06-14:33:18.694286,221.834490200039,222.14419939997606,221.834490200039,None,None,221.834490200039,None,222.64435344006634,None,,,,12014,0001,2022_Apr_06_1429,localizer,2021.1.3,60.487468488288755,
block,objects,objects051.bmp,,,,,0,57,57,57,,,,,,,,,,,,,,,,,,,,,,,,,,,,,,,,,,,,,,,,,,None,,222.64435344006634,None,222.64435344006634,None,2022-04-06-14:33:19.510578,222.6542658000253,222.9607043999713,222.6542658000253,None,None,222.6542658000253,None,223.46121323996923,None,,,,12014,0001,2022_Apr_06_1429,localizer,2021.1.3,60.487468488288755,
block,objects,objects049.bmp,,,,,0,58,58,58,,,,,,,,,,,,,,,,,,,,,,,,,,,,,,,,,,,,,,,,,,None,,223.46121323996923,None,223.46121323996923,None,2022-04-06-14:33:20.328622,223.471730499994,223.77721069997642,223.471730499994,None,None,223.471730499994,None,224.27793744000374,None,,,,12014,0001,2022_Apr_06_1429,localizer,2021.1.3,60.487468488288755,
block,objects,objects071.bmp,,,,,0,59,59,59,,,,,,,,,,,,,,,,,,,,,,,,,,,,,,,,,,,,,,,,,,None,,224.27793744000374,None,224.27793744000374,None,2022-04-06-14:33:21.145383,224.28949190001003,224.59380440006498,224.28949190001003,None,None,224.28949190001003,None,225.09485954003176,None,,,,12014,0001,2022_Apr_06_1429,localizer,2021.1.3,60.487468488288755,
block_end,objects,objects018.bmp,,,,,0,60,60,60,,,,,,,,,,,,,,,,,,,,,,,,,,,,,,,,,,,,,,,,,,None,,225.09485954003176,None,225.09485954003176,None,2022-04-06-14:33:21.961879,225.10617160005495,225.41062860004604,225.10617160005495,None,None,225.10617160005495,None,225.910822739976,None,,,,12014,0001,2022_Apr_06_1429,localizer,2021.1.3,60.487468488288755,
block_start,scrambled,scrambled084.bmp,,,,,0,61,61,61,,,,,,,,,,,,,,,,,,,,,,,,,,,,,,,,,,,,,,,,,,t,1.723955300054513,225.91049599996768,None,225.91049599996768,None,2022-04-06-14:33:24.525832,227.67058709997218,227.97695350006688,227.67058709997218,None,None,227.67058709997218,None,228.47755613996415,None,,,,12014,0001,2022_Apr_06_1429,localizer,2021.1.3,60.487468488288755,
block,scrambled,scrambled015.bmp,,,,,0,62,62,62,,,,,,,,,,,,,,,,,,,,,,,,,,,,,,,,,,,,,,,,,,None,,228.47755613996415,None,228.47755613996415,None,2022-04-06-14:33:25.343884,228.48653090000153,228.7938673000317,228.48653090000153,None,None,228.48653090000153,None,229.29418713998749,None,,,,12014,0001,2022_Apr_06_1429,localizer,2021.1.3,60.487468488288755,
block,scrambled,scrambled038.bmp,,,,,0,63,63,63,,,,,,,,,,,,,,,,,,,,,,,,,,,,,,,,,,,,,,,,,,None,,229.29418713998749,None,229.29418713998749,None,2022-04-06-14:33:26.160410,229.304870699998,229.611141600064,229.304870699998,None,None,229.304870699998,None,230.1106554400525,None,,,,12014,0001,2022_Apr_06_1429,localizer,2021.1.3,60.487468488288755,
block,scrambled,scrambled083.bmp,,,,,0,64,64,64,,,,,,,,,,,,,,,,,,,,,,,,,,,,,,,,,,,,,,,,,,None,,230.1106554400525,None,230.1106554400525,None,2022-04-06-14:33:26.976898,230.1187370000407,230.42758759995922,230.1187370000407,None,None,230.1187370000407,None,230.92886074007257,None,,,,12014,0001,2022_Apr_06_1429,localizer,2021.1.3,60.487468488288755,
block,scrambled,scrambled047.bmp,,,,,0,65,65,65,,,,,,,,,,,,,,,,,,,,,,,,,,,,,,,,,,,,,,,,,,None,,230.92886074007257,None,230.92886074007257,None,2022-04-06-14:33:27.797228,230.930641700048,231.24418579996563,230.930641700048,None,None,230.930641700048,None,231.74453123999993,None,,,,12014,0001,2022_Apr_06_1429,localizer,2021.1.3,60.487468488288755,
block,scrambled,scrambled080.bmp,,,,,0,66,66,66,,,,,,,,,,,,,,,,,,,,,,,,,,,,,,,,,,,,,,,,,,None,,231.74453123999993,None,231.74453123999993,None,2022-04-06-14:33:28.610928,231.74498259997927,232.0442250999622,231.74498259997927,None,None,231.74498259997927,None,232.55065313997912,None,,,,12014,0001,2022_Apr_06_1429,localizer,2021.1.3,60.487468488288755,
block,scrambled,scrambled023.bmp,,,,,0,67,67,67,,,,,,,,,,,,,,,,,,,,,,,,,,,,,,,,,,,,,,,,,,None,,232.55065313997912,None,232.55065313997912,None,2022-04-06-14:33:29.424836,232.57093519996852,232.8772478000028,232.57093519996852,None,None,232.57093519996852,None,233.36095033996972,None,,,,12014,0001,2022_Apr_06_1429,localizer,2021.1.3,60.487468488288755,
block,scrambled,scrambled039.bmp,,,,,0,68,68,68,,,,,,,,,,,,,,,,,,,,,,,,,,,,,,,,,,,,,,,,,,None,,233.36095033996972,None,233.36095033996972,None,2022-04-06-14:33:30.227175,233.3698651000159,233.67759430001024,233.3698651000159,None,None,233.3698651000159,None,234.17886363997823,None,,,,12014,0001,2022_Apr_06_1429,localizer,2021.1.3,60.487468488288755,
block,scrambled,scrambled024.bmp,,,,,0,69,69,69,,,,,,,,,,,,,,,,,,,,,,,,,,,,,,,,,,,,,,,,,,None,,234.17886363997823,None,234.17886363997823,None,2022-04-06-14:33:31.046069,234.1917558000423,234.494074700051,234.1917558000423,None,None,234.1917558000423,None,234.9838751400006,None,,,,12014,0001,2022_Apr_06_1429,localizer,2021.1.3,60.487468488288755,
block,scrambled,scrambled051.bmp,,,,,0,70,70,70,,,,,,,,,,,,,,,,,,,,,,,,,,,,,,,,,,,,,,,,,,None,,234.9838751400006,None,234.9838751400006,None,2022-04-06-14:33:31.856823,234.99755239998922,235.3107208000729,234.99755239998922,None,None,234.99755239998922,None,235.79449183997932,None,,,,12014,0001,2022_Apr_06_1429,localizer,2021.1.3,60.487468488288755,
block,scrambled,scrambled043.bmp,,,,,0,71,71,71,,,,,,,,,,,,,,,,,,,,,,,,,,,,,,,,,,,,,,,,,,None,,235.79449183997932,None,235.79449183997932,None,2022-04-06-14:33:32.660946,235.8051209000405,236.1107569000451,235.8051209000405,None,None,235.8051209000405,None,236.61109183999943,None,,,,12014,0001,2022_Apr_06_1429,localizer,2021.1.3,60.487468488288755,
block,scrambled,scrambled027.bmp,,,,,0,72,72,72,,,,,,,,,,,,,,,,,,,,,,,,,,,,,,,,,,,,,,,,,,None,,236.61109183999943,None,236.61109183999943,None,2022-04-06-14:33:33.477336,236.6209204000188,236.92807889997493,236.6209204000188,None,None,236.6209204000188,None,237.42747443999397,None,,,,12014,0001,2022_Apr_06_1429,localizer,2021.1.3,60.487468488288755,
block,scrambled,scrambled088.bmp,,,,,0,73,73,73,,,,,,,,,,,,,,,,,,,,,,,,,,,,,,,,,,,,,,,,,,None,,237.42747443999397,None,237.42747443999397,None,2022-04-06-14:33:34.293702,237.43722229998093,237.74424340005498,237.43722229998093,None,None,237.43722229998093,None,238.24493454004406,None,,,,12014,0001,2022_Apr_06_1429,localizer,2021.1.3,60.487468488288755,
block,scrambled,scrambled066.bmp,,,,,0,74,74,74,,,,,,,,,,,,,,,,,,,,,,,,,,,,,,,,,,,,,,,,,,None,,238.24493454004406,None,238.24493454004406,None,2022-04-06-14:33:35.112160,238.2562312000664,238.56100880005397,238.2562312000664,None,None,238.2562312000664,None,239.05043773996877,None,,,,12014,0001,2022_Apr_06_1429,localizer,2021.1.3,60.487468488288755,
block_end,scrambled,scrambled066.bmp,,,,,0,75,75,75,,,,,,,,,,,,,,,,,,,,,,,,,,,,,,,,,,,,,,,,,,None,,239.05043773996877,None,239.05043773996877,None,2022-04-06-14:33:35.924168,239.06036640005186,239.36129609995987,239.06036640005186,None,y,239.06036640005186,None,239.86169314003783,None,0.5128316000336781,,,12014,0001,2022_Apr_06_1429,localizer,2021.1.3,60.487468488288755,
null_block,null_block,null_block.bmp,,,,,0,76,76,76,,,,,,,,,,,,,,,,,,,,,,,,,,,,,,,,,,,,,,,,,,t,1.7732942999573424,239.86024339997675,None,239.86024339997675,None,2022-04-06-14:33:38.525494,241.66105854002527,None,241.66105854002527,None,None,241.66105854002527,None,241.6625117000658,None,,,,12014,0001,2022_Apr_06_1429,localizer,2021.1.3,60.487468488288755,
block_start,faces,faces036.bmp,,,,,0,77,77,77,,,,,,,,,,,,,,,,,,,,,,,,,,,,,,,,,,,,,,,,,,t,1.9723751000128686,253.66106020007282,None,253.66106020007282,None,2022-04-06-14:33:52.528033,255.67076530004852,255.9775322000496,255.67076530004852,None,None,255.67076530004852,None,256.4776773400721,None,,,,12014,0001,2022_Apr_06_1429,localizer,2021.1.3,60.487468488288755,
block,faces,faces030.bmp,,,,,0,78,78,78,,,,,,,,,,,,,,,,,,,,,,,,,,,,,,,,,,,,,,,,,,None,,256.4776773400721,None,256.4776773400721,None,2022-04-06-14:33:53.343940,256.478129300056,256.7772670000559,256.478129300056,None,None,256.478129300056,None,257.27766964006,None,,,,12014,0001,2022_Apr_06_1429,localizer,2021.1.3,60.487468488288755,
block,faces,faces044.bmp,,,,,0,79,79,79,,,,,,,,,,,,,,,,,,,,,,,,,,,,,,,,,,,,,,,,,,None,,257.27766964006,None,257.27766964006,None,2022-04-06-14:33:54.144893,257.2858111000387,257.59455010003876,257.2858111000387,257.2858111000387,None,257.2858111000387,257.2858111000387,258.0947136399685,None,,,,12014,0001,2022_Apr_06_1429,localizer,2021.1.3,60.487468488288755,
block,faces,faces006.bmp,,,,,0,80,80,80,,,,,,,,,,,,,,,,,,,,,,,,,,,,,,,,,,,,,,,,,,None,,258.0947136399685,None,258.0947136399685,None,2022-04-06-14:33:54.961992,258.1052716000704,258.410630300059,258.1052716000704,None,None,258.1052716000704,None,258.91157884002894,None,,,,12014,0001,2022_Apr_06_1429,localizer,2021.1.3,60.487468488288755,
block,faces,faces016.bmp,,,,,0,81,81,81,,,,,,,,,,,,,,,,,,,,,,,,,,,,,,,,,,,,,,,,,,None,,258.91157884002894,None,258.91157884002894,None,2022-04-06-14:33:55.778791,258.91863560001366,259.22756470006425,258.91863560001366,None,None,258.91863560001366,None,259.72752993999745,None,,,,12014,0001,2022_Apr_06_1429,localizer,2021.1.3,60.487468488288755,
block,faces,faces045.bmp,,,,,0,82,82,82,,,,,,,,,,,,,,,,,,,,,,,,,,,,,,,,,,,,,,,,,,None,,259.72752993999745,None,259.72752993999745,None,2022-04-06-14:33:56.593759,259.7365027000196,260.05081250006333,259.7365027000196,None,None,259.7365027000196,None,260.54477474003795,None,,,,12014,0001,2022_Apr_06_1429,localizer,2021.1.3,60.487468488288755,
block,faces,faces061.bmp,,,,,0,83,83,83,,,,,,,,,,,,,,,,,,,,,,,,,,,,,,,,,,,,,,,,,,None,,260.54477474003795,None,260.54477474003795,None,2022-04-06-14:33:57.410932,260.5563663999783,260.8605753000593,260.5563663999783,None,None,260.5563663999783,None,261.3607487400644,None,,,,12014,0001,2022_Apr_06_1429,localizer,2021.1.3,60.487468488288755,
block,faces,faces063.bmp,,,,,0,84,84,84,,,,,,,,,,,,,,,,,,,,,,,,,,,,,,,,,,,,,,,,,,None,,261.3607487400644,None,261.3607487400644,None,2022-04-06-14:33:58.225982,261.3700192000251,261.6777706000721,261.3700192000251,None,None,261.3700192000251,None,262.1790207400103,None,,,,12014,0001,2022_Apr_06_1429,localizer,2021.1.3,60.487468488288755,
block,faces,faces050.bmp,,,,,0,85,85,85,,,,,,,,,,,,,,,,,,,,,,,,,,,,,,,,,,,,,,,,,,None,,262.1790207400103,None,262.1790207400103,None,2022-04-06-14:33:59.047403,262.1918479000451,262.494796999963,262.1918479000451,None,None,262.1918479000451,None,262.99411353996254,None,,,,12014,0001,2022_Apr_06_1429,localizer,2021.1.3,60.487468488288755,
block,faces,faces038.bmp,,,,,0,86,86,86,,,,,,,,,,,,,,,,,,,,,,,,,,,,,,,,,,,,,,,,,,None,,262.99411353996254,None,262.99411353996254,None,2022-04-06-14:33:59.860342,263.0057494000066,263.3147106000688,263.0057494000066,None,None,263.0057494000066,None,263.8117126400233,None,,,,12014,0001,2022_Apr_06_1429,localizer,2021.1.3,60.487468488288755,
block,faces,faces077.bmp,,,,,0,87,87,87,,,,,,,,,,,,,,,,,,,,,,,,,,,,,,,,,,,,,,,,,,None,,263.8117126400233,None,263.8117126400233,None,2022-04-06-14:34:00.678905,263.82469390006736,264.1273107000161,263.82469390006736,None,None,263.82469390006736,None,264.6168555399985,None,,,,12014,0001,2022_Apr_06_1429,localizer,2021.1.3,60.487468488288755,
block,faces,faces086.bmp,,,,,0,88,88,88,,,,,,,,,,,,,,,,,,,,,,,,,,,,,,,,,,,,,,,,,,None,,264.6168555399985,None,264.6168555399985,None,2022-04-06-14:34:01.483090,264.6247217999771,264.92733320000116,264.6247217999771,None,None,264.6247217999771,None,265.42842704002976,None,,,,12014,0001,2022_Apr_06_1429,localizer,2021.1.3,60.487468488288755,
block,faces,faces020.bmp,,,,,0,89,89,89,,,,,,,,,,,,,,,,,,,,,,,,,,,,,,,,,,,,,,,,,,None,,265.42842704002976,None,265.42842704002976,None,2022-04-06-14:34:02.295721,265.43942119996063,265.744555399986,265.43942119996063,None,None,265.43942119996063,None,266.24510913997653,None,,,,12014,0001,2022_Apr_06_1429,localizer,2021.1.3,60.487468488288755,
block,faces,faces008.bmp,,,,,0,90,90,90,,,,,,,,,,,,,,,,,,,,,,,,,,,,,,,,,,,,,,,,,,None,,266.24510913997653,None,266.24510913997653,None,2022-04-06-14:34:03.112304,266.2562620000681,266.56113689998165,266.2562620000681,None,None,266.2562620000681,None,267.0612273400533,None,,,,12014,0001,2022_Apr_06_1429,localizer,2021.1.3,60.487468488288755,
block_end,faces,faces066.bmp,,,,,0,91,91,91,,,,,,,,,,,,,,,,,,,,,,,,,,,,,,,,,,,,,,,,,,None,,267.0612273400533,None,267.0612273400533,None,2022-04-06-14:34:03.927454,267.07123060000595,267.37754290003795,267.07123060000595,None,None,267.07123060000595,None,267.87937463998094,None,,,,12014,0001,2022_Apr_06_1429,localizer,2021.1.3,60.487468488288755,
block_start,objects,objects034.bmp,,,,,0,92,92,92,,,,,,,,,,,,,,,,,,,,,,,,,,,,,,,,,,,,,,,,,,t,1.754277899977751,267.87904839997645,None,267.87904839997645,None,2022-04-06-14:34:06.528231,269.6625391000416,269.9606992000481,269.6625391000416,None,None,269.6625391000416,None,270.4778475399711,None,,,,12014,0001,2022_Apr_06_1429,localizer,2021.1.3,60.487468488288755,
block,objects,objects065.bmp,,,,,0,93,93,93,,,,,,,,,,,,,,,,,,,,,,,,,,,,,,,,,,,,,,,,,,None,,270.4778475399711,None,270.4778475399711,None,2022-04-06-14:34:07.344072,270.4783168999711,270.77754130004905,270.4783168999711,None,None,270.4783168999711,None,271.2780285399989,None,,,,12014,0001,2022_Apr_06_1429,localizer,2021.1.3,60.487468488288755,
block,objects,objects085.bmp,,,,,0,94,94,94,,,,,,,,,,,,,,,,,,,,,,,,,,,,,,,,,,,,,,,,,,None,,271.2780285399989,None,271.2780285399989,None,2022-04-06-14:34:08.147285,271.28055620007217,271.59388780000154,271.28055620007217,271.28055620007217,None,271.28055620007217,271.28055620007217,272.09519163999937,None,,,,12014,0001,2022_Apr_06_1429,localizer,2021.1.3,60.487468488288755,
block,objects,objects045.bmp,,,,,0,95,95,95,,,,,,,,,,,,,,,,,,,,,,,,,,,,,,,,,,,,,,,,,,None,,272.09519163999937,None,272.09519163999937,None,2022-04-06-14:34:08.962600,272.106423899997,272.41160450002644,272.106423899997,None,None,272.106423899997,None,272.9118645399925,None,,,,12014,0001,2022_Apr_06_1429,localizer,2021.1.3,60.487468488288755,
block,objects,objects020.bmp,,,,,0,96,96,96,,,,,,,,,,,,,,,,,,,,,,,,,,,,,,,,,,,,,,,,,,None,,272.9118645399925,None,272.9118645399925,None,2022-04-06-14:34:09.779076,272.92317990004085,273.22749950003345,272.92317990004085,None,None,272.92317990004085,None,273.72773934007853,None,,,,12014,0001,2022_Apr_06_1429,localizer,2021.1.3,60.487468488288755,
block,objects,objects028.bmp,,,,,0,97,97,97,,,,,,,,,,,,,,,,,,,,,,,,,,,,,,,,,,,,,,,,,,None,,273.72773934007853,None,273.72773934007853,None,2022-04-06-14:34:10.593967,273.73595490003936,274.0438049000222,273.73595490003936,None,None,273.73595490003936,None,274.544102440041,None,,,,12014,0001,2022_Apr_06_1429,localizer,2021.1.3,60.487468488288755,
block,objects,objects013.bmp,,,,,0,98,98,98,,,,,,,,,,,,,,,,,,,,,,,,,,,,,,,,,,,,,,,,,,None,,274.544102440041,None,274.544102440041,None,2022-04-06-14:34:11.410336,274.55164580000564,274.86069340002723,274.55164580000564,None,None,274.55164580000564,None,275.36134034002896,None,,,,12014,0001,2022_Apr_06_1429,localizer,2021.1.3,60.487468488288755,
block,objects,objects088.bmp,,,,,0,99,99,99,,,,,,,,,,,,,,,,,,,,,,,,,,,,,,,,,,,,,,,,,,None,,275.36134034002896,None,275.36134034002896,None,2022-04-06-14:34:12.227604,275.372082100017,275.6774352999637,275.372082100017,None,None,275.372082100017,None,276.1786165400757,None,,,,12014,0001,2022_Apr_06_1429,localizer,2021.1.3,60.487468488288755,
block,objects,objects036.bmp,,,,,0,100,100,100,,,,,,,,,,,,,,,,,,,,,,,,,,,,,,,,,,,,,,,,,,None,,276.1786165400757,None,276.1786165400757,None,2022-04-06-14:34:13.045811,276.18984240002465,276.4941448000027,276.18984240002465,None,None,276.18984240002465,None,276.9946838399977,None,,,,12014,0001,2022_Apr_06_1429,localizer,2021.1.3,60.487468488288755,
block,objects,objects025.bmp,,,,,0,101,101,101,,,,,,,,,,,,,,,,,,,,,,,,,,,,,,,,,,,,,,,,,,None,,276.9946838399977,None,276.9946838399977,None,2022-04-06-14:34:13.861100,277.0053485999815,277.3105790000409,277.0053485999815,None,None,277.0053485999815,None,277.81102824005063,None,,,,12014,0001,2022_Apr_06_1429,localizer,2021.1.3,60.487468488288755,
block,objects,objects010.bmp,,,,,0,102,102,102,,,,,,,,,,,,,,,,,,,,,,,,,,,,,,,,,,,,,,,,,,None,,277.81102824005063,None,277.81102824005063,None,2022-04-06-14:34:14.676347,277.81849149998743,278.12737290002406,277.81849149998743,None,None,277.81849149998743,None,278.6277069399715,None,,,,12014,0001,2022_Apr_06_1429,localizer,2021.1.3,60.487468488288755,
block,objects,objects022.bmp,,,,,0,103,103,103,,,,,,,,,,,,,,,,,,,,,,,,,,,,,,,,,,,,,,,,,,None,,278.6277069399715,None,278.6277069399715,None,2022-04-06-14:34:15.493931,278.6375928999623,278.9443031999981,278.6375928999623,None,None,278.6375928999623,None,279.44447483998954,None,,,,12014,0001,2022_Apr_06_1429,localizer,2021.1.3,60.487468488288755,
block,objects,objects030.bmp,,,,,0,104,104,104,,,,,,,,,,,,,,,,,,,,,,,,,,,,,,,,,,,,,,,,,,None,,279.44447483998954,None,279.44447483998954,None,2022-04-06-14:34:16.310903,279.4543418000685,279.76093830005266,279.4543418000685,None,None,279.4543418000685,None,280.26140673997577,None,,,,12014,0001,2022_Apr_06_1429,localizer,2021.1.3,60.487468488288755,
block,objects,objects043.bmp,,,,,0,105,105,105,,,,,,,,,,,,,,,,,,,,,,,,,,,,,,,,,,,,,,,,,,None,,280.26140673997577,None,280.26140673997577,None,2022-04-06-14:34:17.128015,280.27201259997673,280.57773450005334,280.27201259997673,None,None,280.27201259997673,None,281.06838384006403,None,,,,12014,0001,2022_Apr_06_1429,localizer,2021.1.3,60.487468488288755,
block_end,objects,objects047.bmp,,,,,0,106,106,106,,,,,,,,,,,,,,,,,,,,,,,,,,,,,,,,,,,,,,,,,,None,,281.06838384006403,None,281.06838384006403,None,2022-04-06-14:34:17.940484,281.08593890001066,281.39388250000775,281.08593890001066,None,None,281.08593890001066,None,281.8781784400693,None,,,,12014,0001,2022_Apr_06_1429,localizer,2021.1.3,60.487468488288755,
block_start,scenes,scenes091.bmp,,,,,0,107,107,107,,,,,,,,,,,,,,,,,,,,,,,,,,,,,,,,,,,,,,,,,,t,1.7555583999492228,281.87795900006313,None,281.87795900006313,None,2022-04-06-14:34:20.531533,283.6776307000546,283.9775615000399,283.6776307000546,None,None,283.6776307000546,None,284.4780907400767,None,,,,12014,0001,2022_Apr_06_1429,localizer,2021.1.3,60.487468488288755,
block,scenes,scenes006.bmp,,,,,0,108,108,108,,,,,,,,,,,,,,,,,,,,,,,,,,,,,,,,,,,,,,,,,,None,,284.4780907400767,None,284.4780907400767,None,2022-04-06-14:34:21.344315,284.4889941000147,284.7952067999868,284.4889941000147,None,None,284.4889941000147,None,285.2945388399879,None,,,,12014,0001,2022_Apr_06_1429,localizer,2021.1.3,60.487468488288755,
block,scenes,scenes057.bmp,,,,,0,109,109,109,,,,,,,,,,,,,,,,,,,,,,,,,,,,,,,,,,,,,,,,,,None,,285.2945388399879,None,285.2945388399879,None,2022-04-06-14:34:22.160765,285.30355179996695,285.61090600001626,285.30355179996695,None,None,285.30355179996695,None,286.11269353997193,None,,,,12014,0001,2022_Apr_06_1429,localizer,2021.1.3,60.487468488288755,
block,scenes,scenes048.bmp,,,,,0,110,110,110,,,,,,,,,,,,,,,,,,,,,,,,,,,,,,,,,,,,,,,,,,None,,286.11269353997193,None,286.11269353997193,None,2022-04-06-14:34:22.982979,286.1274064000463,286.42759530001786,286.1274064000463,None,None,286.1274064000463,None,286.92857583999864,None,,,,12014,0001,2022_Apr_06_1429,localizer,2021.1.3,60.487468488288755,
block,scenes,scenes017.bmp,,,,,0,111,111,111,,,,,,,,,,,,,,,,,,,,,,,,,,,,,,,,,,,,,,,,,,None,,286.92857583999864,None,286.92857583999864,None,2022-04-06-14:34:23.795793,286.9388229000615,287.2442653999897,286.9388229000615,None,None,286.9388229000615,None,287.7443692400469,None,,,,12014,0001,2022_Apr_06_1429,localizer,2021.1.3,60.487468488288755,
block,scenes,scenes052.bmp,,,,,0,112,112,112,,,,,,,,,,,,,,,,,,,,,,,,,,,,,,,,,,,,,,,,,,None,,287.7443692400469,None,287.7443692400469,None,2022-04-06-14:34:24.610785,287.7539866999723,288.0611013000598,287.7539866999723,None,None,287.7539866999723,None,288.5610456400667,None,,,,12014,0001,2022_Apr_06_1429,localizer,2021.1.3,60.487468488288755,
block,scenes,scenes080.bmp,,,,,0,113,113,113,,,,,,,,,,,,,,,,,,,,,,,,,,,,,,,,,,,,,,,,,,None,,288.5610456400667,None,288.5610456400667,None,2022-04-06-14:34:25.426279,288.5617944999831,288.86072960007004,288.5617944999831,None,None,288.5617944999831,None,289.36127884002633,None,,,,12014,0001,2022_Apr_06_1429,localizer,2021.1.3,60.487468488288755,
block,scenes,scenes071.bmp,,,,,0,114,114,114,,,,,,,,,,,,,,,,,,,,,,,,,,,,,,,,,,,,,,,,,,None,,289.36127884002633,None,289.36127884002633,None,2022-04-06-14:34:26.229692,289.37283850007225,289.6775664000306,289.37283850007225,289.37283850007225,None,289.37283850007225,289.37283850007225,290.177885139978,None,,,,12014,0001,2022_Apr_06_1429,localizer,2021.1.3,60.487468488288755,
block,scenes,scenes054.bmp,,,,,0,115,115,115,,,,,,,,,,,,,,,,,,,,,,,,,,,,,,,,,,,,,,,,,,None,,290.177885139978,None,290.177885139978,None,2022-04-06-14:34:27.044112,290.1875989000546,290.4945598000195,290.1875989000546,None,None,290.1875989000546,None,290.99502064000114,None,,,,12014,0001,2022_Apr_06_1429,localizer,2021.1.3,60.487468488288755,
block,scenes,scenes033.bmp,,,,,0,116,116,116,,,,,,,,,,,,,,,,,,,,,,,,,,,,,,,,,,,,,,,,,,None,,290.99502064000114,None,290.99502064000114,None,2022-04-06-14:34:27.861009,290.9955108000431,291.29438780003693,290.9955108000431,None,None,290.9955108000431,None,291.7947265400202,None,,,,12014,0001,2022_Apr_06_1429,localizer,2021.1.3,60.487468488288755,
block,scenes,scenes051.bmp,,,,,0,117,117,117,,,,,,,,,,,,,,,,,,,,,,,,,,,,,,,,,,,,,,,,,,None,,291.7947265400202,None,291.7947265400202,None,2022-04-06-14:34:28.662945,291.8081575999968,292.1105969999917,291.8081575999968,291.8081575999968,None,291.8081575999968,291.8081575999968,292.6114742400008,None,,,,12014,0001,2022_Apr_06_1429,localizer,2021.1.3,60.487468488288755,
block,scenes,scenes062.bmp,,,,,0,118,118,118,,,,,,,,,,,,,,,,,,,,,,,,,,,,,,,,,,,,,,,,,,None,,292.6114742400008,None,292.6114742400008,None,2022-04-06-14:34:29.477901,292.62319579999894,292.92763020005077,292.62319579999894,None,None,292.62319579999894,None,293.42908504003424,None,,,,12014,0001,2022_Apr_06_1429,localizer,2021.1.3,60.487468488288755,
block,scenes,scenes008.bmp,,,,,0,119,119,119,,,,,,,,,,,,,,,,,,,,,,,,,,,,,,,,,,,,,,,,,,None,,293.42908504003424,None,293.42908504003424,None,2022-04-06-14:34:30.297473,293.4426606000634,293.7440302000614,293.4426606000634,None,None,293.4426606000634,None,294.2446753400494,None,,,,12014,0001,2022_Apr_06_1429,localizer,2021.1.3,60.487468488288755,
block,scenes,scenes004.bmp,,,,,0,120,120,120,,,,,,,,,,,,,,,,,,,,,,,,,,,,,,,,,,,,,,,,,,None,,294.2446753400494,None,294.2446753400494,None,2022-04-06-14:34:31.111559,294.26033309998456,294.56081429996993,294.26033309998456,None,None,294.26033309998456,None,295.0617628400563,None,,,,12014,0001,2022_Apr_06_1429,localizer,2021.1.3,60.487468488288755,
block_end,scenes,scenes023.bmp,,,,,0,121,121,121,,,,,,,,,,,,,,,,,,,,,,,,,,,,,,,,,,,,,,,,,,None,,295.0617628400563,None,295.0617628400563,None,2022-04-06-14:34:31.929196,295.0732566000661,295.3774678000482,295.0732566000661,None,None,295.0732566000661,None,295.8785913400701,None,,,,12014,0001,2022_Apr_06_1429,localizer,2021.1.3,60.487468488288755,
block_start,faces,faces040.bmp,,,,,0,122,122,122,,,,,,,,,,,,,,,,,,,,,,,,,,,,,,,,,,,,,,,,,,t,1.7550985000561923,295.8781755999662,None,295.8781755999662,None,2022-04-06-14:34:34.530731,297.6748770000413,297.9776883000741,297.6748770000413,None,None,297.6748770000413,None,298.4779287400073,None,,,,12014,0001,2022_Apr_06_1429,localizer,2021.1.3,60.487468488288755,
block,faces,faces038.bmp,,,,,0,123,123,123,,,,,,,,,,,,,,,,,,,,,,,,,,,,,,,,,,,,,,,,,,None,,298.4779287400073,None,298.4779287400073,None,2022-04-06-14:34:35.344384,298.4787021999946,298.7772975000553,298.4787021999946,None,None,298.4787021999946,None,299.2781353399972,None,,,,12014,0001,2022_Apr_06_1429,localizer,2021.1.3,60.487468488288755,
block,faces,faces074.bmp,,,,,0,124,124,124,,,,,,,,,,,,,,,,,,,,,,,,,,,,,,,,,,,,,,,,,,None,,299.2781353399972,None,299.2781353399972,None,2022-04-06-14:34:36.145748,299.2908110000426,299.59422910003923,299.2908110000426,299.2908110000426,None,299.2908110000426,299.2908110000426,300.09433044007744,None,,,,12014,0001,2022_Apr_06_1429,localizer,2021.1.3,60.487468488288755,
block,faces,faces031.bmp,,,,,0,125,125,125,,,,,,,,,,,,,,,,,,,,,,,,,,,,,,,,,,,,,,,,,,None,,300.09433044007744,None,300.09433044007744,None,2022-04-06-14:34:36.960561,300.10260610003024,300.41104510007426,300.10260610003024,None,None,300.10260610003024,None,300.91131004007764,None,,,,12014,0001,2022_Apr_06_1429,localizer,2021.1.3,60.487468488288755,
block,faces,faces056.bmp,,,,,0,126,126,126,,,,,,,,,,,,,,,,,,,,,,,,,,,,,,,,,,,,,,,,,,None,,300.91131004007764,None,300.91131004007764,None,2022-04-06-14:34:37.777535,300.9211115000071,301.22769269999117,300.9211115000071,None,None,300.9211115000071,None,301.72827974000245,None,,,,12014,0001,2022_Apr_06_1429,localizer,2021.1.3,60.487468488288755,
block,faces,faces082.bmp,,,,,0,127,127,127,,,,,,,,,,,,,,,,,,,,,,,,,,,,,,,,,,,,,,,,,,None,,301.72827974000245,None,301.72827974000245,None,2022-04-06-14:34:38.594500,301.7388569000177,302.0444065000629,301.7388569000177,None,None,301.7388569000177,None,302.544110239984,None,,,,12014,0001,2022_Apr_06_1429,localizer,2021.1.3,60.487468488288755,
block,faces,faces022.bmp,,,,,0,128,128,128,,,,,,,,,,,,,,,,,,,,,,,,,,,,,,,,,,,,,,,,,,None,,302.544110239984,None,302.544110239984,None,2022-04-06-14:34:39.410341,302.54557419999037,302.86077180004213,302.54557419999037,None,None,302.54557419999037,None,303.34519194000165,None,,,,12014,0001,2022_Apr_06_1429,localizer,2021.1.3,60.487468488288755,
block,faces,faces039.bmp,,,,,0,129,129,129,,,,,,,,,,,,,,,,,,,,,,,,,,,,,,,,,,,,,,,,,,None,,303.34519194000165,None,303.34519194000165,None,2022-04-06-14:34:40.214582,303.3599355999613,303.66082360001747,303.3599355999613,303.3599355999613,None,303.3599355999613,303.3599355999613,304.1619250399875,None,,,,12014,0001,2022_Apr_06_1429,localizer,2021.1.3,60.487468488288755,
block,faces,faces016.bmp,,,,,0,130,130,130,,,,,,,,,,,,,,,,,,,,,,,,,,,,,,,,,,,,,,,,,,None,,304.1619250399875,None,304.1619250399875,None,2022-04-06-14:34:41.029325,304.16373140004,304.4774072000291,304.16373140004,None,None,304.16373140004,None,304.9781155400327,None,,,,12014,0001,2022_Apr_06_1429,localizer,2021.1.3,60.487468488288755,
block,faces,faces081.bmp,,,,,0,131,131,131,,,,,,,,,,,,,,,,,,,,,,,,,,,,,,,,,,,,,,,,,,None,,304.9781155400327,None,304.9781155400327,None,2022-04-06-14:34:41.844524,304.978621999966,305.2776154000312,304.978621999966,None,None,304.978621999966,None,305.77826104002304,None,,,,12014,0001,2022_Apr_06_1429,localizer,2021.1.3,60.487468488288755,
block,faces,faces004.bmp,,,,,0,132,132,132,,,,,,,,,,,,,,,,,,,,,,,,,,,,,,,,,,,,,,,,,,None,,305.77826104002304,None,305.77826104002304,None,2022-04-06-14:34:42.646479,305.7927585999714,306.0943671000423,305.7927585999714,305.7927585999714,None,305.7927585999714,305.7927585999714,306.5945703400415,None,,,,12014,0001,2022_Apr_06_1429,localizer,2021.1.3,60.487468488288755,
block,faces,faces028.bmp,,,,,0,133,133,133,,,,,,,,,,,,,,,,,,,,,,,,,,,,,,,,,,,,,,,,,,None,,306.5945703400415,None,306.5945703400415,None,2022-04-06-14:34:43.461021,306.5951013000449,306.894184099976,306.5951013000449,None,None,306.5951013000449,None,307.3950106400647,None,,,,12014,0001,2022_Apr_06_1429,localizer,2021.1.3,60.487468488288755,
block,faces,faces010.bmp,,,,,0,134,134,134,,,,,,,,,,,,,,,,,,,,,,,,,,,,,,,,,,,,,,,,,,None,,307.3950106400647,None,307.3950106400647,None,2022-04-06-14:34:44.262812,307.4064842000371,307.71085430006497,307.4064842000371,307.4064842000371,None,307.4064842000371,307.4064842000371,308.211326540017,None,,,,12014,0001,2022_Apr_06_1429,localizer,2021.1.3,60.487468488288755,
block,faces,faces025.bmp,,,,,0,135,135,135,,,,,,,,,,,,,,,,,,,,,,,,,,,,,,,,,,,,,,,,,,None,,308.211326540017,None,308.211326540017,None,2022-04-06-14:34:45.077753,308.2119561000727,308.5110985999927,308.2119561000727,None,None,308.2119561000727,None,309.01095894005846,None,,,,12014,0001,2022_Apr_06_1429,localizer,2021.1.3,60.487468488288755,
block_end,faces,faces015.bmp,,,,,0,136,136,136,,,,,,,,,,,,,,,,,,,,,,,,,,,,,,,,,,,,,,,,,,None,,309.01095894005846,None,309.01095894005846,None,2022-04-06-14:34:45.879183,309.0272144000046,309.3277444000123,309.0272144000046,309.0272144000046,None,309.0272144000046,309.0272144000046,309.82799003998514,None,,,,12014,0001,2022_Apr_06_1429,localizer,2021.1.3,60.487468488288755,
null_block,null_block,null_block.bmp,,,,,0,137,137,137,,,,,,,,,,,,,,,,,,,,,,,,,,,,,,,,,,,,,,,,,,t,1.8054552999092266,309.82788690004963,None,309.82788690004963,None,2022-04-06-14:34:48.526441,311.6612156400573,None,311.6612156400573,None,None,311.6612156400573,None,311.6634347999934,None,,,,12014,0001,2022_Apr_06_1429,localizer,2021.1.3,60.487468488288755,
block_start,scenes,scenes059.bmp,,,,,0,138,138,138,,,,,,,,,,,,,,,,,,,,,,,,,,,,,,,,,,,,,,,,,,t,1.9555996999843046,323.67771820002235,None,323.67771820002235,None,2022-04-06-14:35:02.528713,325.6680298000574,325.97777190001216,325.6680298000574,None,None,325.6680298000574,None,326.4787975399871,None,,,,12014,0001,2022_Apr_06_1429,localizer,2021.1.3,60.487468488288755,
block,scenes,scenes068.bmp,,,,,0,139,139,139,,,,,,,,,,,,,,,,,,,,,,,,,,,,,,,,,,,,,,,,,,None,,326.4787975399871,None,326.4787975399871,None,2022-04-06-14:35:03.346009,326.4902099999599,326.79433289996814,326.4902099999599,None,None,326.4902099999599,None,327.29613724005173,None,,,,12014,0001,2022_Apr_06_1429,localizer,2021.1.3,60.487468488288755,
block,scenes,scenes039.bmp,,,,,0,140,140,140,,,,,,,,,,,,,,,,,,,,,,,,,,,,,,,,,,,,,,,,,,None,,327.29613724005173,None,327.29613724005173,None,2022-04-06-14:35:04.164519,327.3086602999829,327.6115923000034,327.3086602999829,None,None,327.3086602999829,None,328.11211884001966,None,,,,12014,0001,2022_Apr_06_1429,localizer,2021.1.3,60.487468488288755,
block,scenes,scenes007.bmp,,,,,0,141,141,141,,,,,,,,,,,,,,,,,,,,,,,,,,,,,,,,,,,,,,,,,,None,,328.11211884001966,None,328.11211884001966,None,2022-04-06-14:35:04.979329,328.128594800015,328.4277219000505,328.128594800015,None,None,328.128594800015,None,328.9279557400499,None,,,,12014,0001,2022_Apr_06_1429,localizer,2021.1.3,60.487468488288755,
block,scenes,scenes002.bmp,,,,,0,142,142,142,,,,,,,,,,,,,,,,,,,,,,,,,,,,,,,,,,,,,,,,,,None,,328.9279557400499,None,328.9279557400499,None,2022-04-06-14:35:05.794233,328.9366765000159,329.2443901000079,328.9366765000159,None,None,328.9366765000159,None,329.74493424004174,None,,,,12014,0001,2022_Apr_06_1429,localizer,2021.1.3,60.487468488288755,
block,scenes,scenes033.bmp,,,,,0,143,143,143,,,,,,,,,,,,,,,,,,,,,,,,,,,,,,,,,,,,,,,,,,None,,329.74493424004174,None,329.74493424004174,None,2022-04-06-14:35:06.611159,329.7453587000491,330.0442574999761,329.7453587000491,None,None,329.7453587000491,None,330.5510265400284,None,,,,12014,0001,2022_Apr_06_1429,localizer,2021.1.3,60.487468488288755,
block,scenes,scenes033.bmp,,,,,0,144,144,144,,,,,,,,,,,,,,,,,,,,,,,,,,,,,,,,,,,,,,,,,,None,,330.5510265400284,None,330.5510265400284,None,2022-04-06-14:35:07.426216,330.56145539996214,330.8619359000586,330.56145539996214,None,y,330.56145539996214,None,331.3618603400304,None,0.5918868000153452,,,12014,0001,2022_Apr_06_1429,localizer,2021.1.3,60.487468488288755,
block,scenes,scenes061.bmp,,,,,0,145,145,145,,,,,,,,,,,,,,,,,,,,,,,,,,,,,,,,,,,,,,,,,,None,,331.3618603400304,None,331.3618603400304,None,2022-04-06-14:35:08.229077,331.3734537999844,331.67848400003277,331.3734537999844,None,None,331.3734537999844,None,332.17803514007244,None,,,,12014,0001,2022_Apr_06_1429,localizer,2021.1.3,60.487468488288755,
block,scenes,scenes036.bmp,,,,,0,146,146,146,,,,,,,,,,,,,,,,,,,,,,,,,,,,,,,,,,,,,,,,,,None,,332.17803514007244,None,332.17803514007244,None,2022-04-06-14:35:09.044180,332.18736139999237,332.49474260001443,332.18736139999237,None,None,332.18736139999237,None,332.99608454006955,None,,,,12014,0001,2022_Apr_06_1429,localizer,2021.1.3,60.487468488288755,
block,scenes,scenes018.bmp,,,,,0,147,147,147,,,,,,,,,,,,,,,,,,,,,,,,,,,,,,,,,,,,,,,,,,None,,332.99608454006955,None,332.99608454006955,None,2022-04-06-14:35:09.864461,333.0096569999587,333.3112175000133,333.0096569999587,None,None,333.0096569999587,None,333.8122583399876,None,,,,12014,0001,2022_Apr_06_1429,localizer,2021.1.3,60.487468488288755,
block,scenes,scenes062.bmp,,,,,0,148,148,148,,,,,,,,,,,,,,,,,,,,,,,,,,,,,,,,,,,,,,,,,,None,,333.8122583399876,None,333.8122583399876,None,2022-04-06-14:35:10.679484,333.8138727999758,334.12745360005647,333.8138727999758,None,None,333.8138727999758,None,334.62852994006823,None,,,,12014,0001,2022_Apr_06_1429,localizer,2021.1.3,60.487468488288755,
block,scenes,scenes010.bmp,,,,,0,149,149,149,,,,,,,,,,,,,,,,,,,,,,,,,,,,,,,,,,,,,,,,,,None,,334.62852994006823,None,334.62852994006823,None,2022-04-06-14:35:11.494826,334.6402397999773,334.9447363000363,334.6402397999773,None,None,334.6402397999773,None,335.43476483997654,None,,,,12014,0001,2022_Apr_06_1429,localizer,2021.1.3,60.487468488288755,
block,scenes,scenes090.bmp,,,,,0,150,150,150,,,,,,,,,,,,,,,,,,,,,,,,,,,,,,,,,,,,,,,,,,None,,335.43476483997654,None,335.43476483997654,None,2022-04-06-14:35:12.306187,335.4488832000643,335.761016100063,335.4488832000643,None,None,335.4488832000643,None,336.24485244000095,None,,,,12014,0001,2022_Apr_06_1429,localizer,2021.1.3,60.487468488288755,
block,scenes,scenes032.bmp,,,,,0,151,151,151,,,,,,,,,,,,,,,,,,,,,,,,,,,,,,,,,,,,,,,,,,None,,336.24485244000095,None,336.24485244000095,None,2022-04-06-14:35:13.111103,336.25452519999817,336.5612354000332,336.25452519999817,None,None,336.25452519999817,None,337.0607734399731,None,,,,12014,0001,2022_Apr_06_1429,localizer,2021.1.3,60.487468488288755,
block_end,scenes,scenes011.bmp,,,,,0,152,152,152,,,,,,,,,,,,,,,,,,,,,,,,,,,,,,,,,,,,,,,,,,None,,337.0607734399731,None,337.0607734399731,None,2022-04-06-14:35:13.926895,337.0646477000555,337.3782824999653,337.0646477000555,None,None,337.0646477000555,None,337.8790130400215,None,,,,12014,0001,2022_Apr_06_1429,localizer,2021.1.3,60.487468488288755,
block_start,scrambled,scrambled068.bmp,,,,,0,153,153,153,,,,,,,,,,,,,,,,,,,,,,,,,,,,,,,,,,,,,,,,,,t,1.755982199916616,337.8777315999614,None,337.8777315999614,None,2022-04-06-14:35:16.526344,339.6705822000513,339.9777223999845,339.6705822000513,None,None,339.6705822000513,None,340.4779187400476,None,,,,12014,0001,2022_Apr_06_1429,localizer,2021.1.3,60.487468488288755,
block,scrambled,scrambled073.bmp,,,,,0,154,154,154,,,,,,,,,,,,,,,,,,,,,,,,,,,,,,,,,,,,,,,,,,None,,340.4779187400476,None,340.4779187400476,None,2022-04-06-14:35:17.344150,340.48593319999054,340.79508730000816,340.48593319999054,None,None,340.48593319999054,None,341.2946362400311,None,,,,12014,0001,2022_Apr_06_1429,localizer,2021.1.3,60.487468488288755,
block,scrambled,scrambled029.bmp,,,,,0,155,155,155,,,,,,,,,,,,,,,,,,,,,,,,,,,,,,,,,,,,,,,,,,None,,341.2946362400311,None,341.2946362400311,None,2022-04-06-14:35:18.160555,341.3021945999935,341.61050159996375,341.3021945999935,None,None,341.3021945999935,None,342.11099913999203,None,,,,12014,0001,2022_Apr_06_1429,localizer,2021.1.3,60.487468488288755,
block,scrambled,scrambled002.bmp,,,,,0,156,156,156,,,,,,,,,,,,,,,,,,,,,,,,,,,,,,,,,,,,,,,,,,None,,342.11099913999203,None,342.11099913999203,None,2022-04-06-14:35:18.977168,342.11989099998027,342.41284949996043,342.11989099998027,None,None,342.11989099998027,None,342.92811894001204,None,,,,12014,0001,2022_Apr_06_1429,localizer,2021.1.3,60.487468488288755,
block,scrambled,scrambled041.bmp,,,,,0,157,157,157,,,,,,,,,,,,,,,,,,,,,,,,,,,,,,,,,,,,,,,,,,None,,342.92811894001204,None,342.92811894001204,None,2022-04-06-14:35:19.794344,342.9368625000352,343.2445090999827,342.9368625000352,None,None,342.9368625000352,None,343.7446383400005,None,,,,12014,0001,2022_Apr_06_1429,localizer,2021.1.3,60.487468488288755,
block,scrambled,scrambled027.bmp,,,,,0,158,158,158,,,,,,,,,,,,,,,,,,,,,,,,,,,,,,,,,,,,,,,,,,None,,343.7446383400005,None,343.7446383400005,None,2022-04-06-14:35:20.611141,343.74557050003204,344.05110200005583,343.74557050003204,None,None,343.74557050003204,None,344.5461880399729,None,,,,12014,0001,2022_Apr_06_1429,localizer,2021.1.3,60.487468488288755,
block,scrambled,scrambled072.bmp,,,,,0,159,159,159,,,,,,,,,,,,,,,,,,,,,,,,,,,,,,,,,,,,,,,,,,None,,344.5461880399729,None,344.5461880399729,None,2022-04-06-14:35:21.416502,344.5618444000138,344.86108529998455,344.5618444000138,344.5618444000138,None,344.5618444000138,344.5618444000138,345.36233314002163,None,,,,12014,0001,2022_Apr_06_1429,localizer,2021.1.3,60.487468488288755,
block,scrambled,scrambled086.bmp,,,,,0,160,160,160,,,,,,,,,,,,,,,,,,,,,,,,,,,,,,,,,,,,,,,,,,None,,345.36233314002163,None,345.36233314002163,None,2022-04-06-14:35:22.229739,345.37354629999027,345.6779189000372,345.37354629999027,None,None,345.37354629999027,None,346.17826823998473,None,,,,12014,0001,2022_Apr_06_1429,localizer,2021.1.3,60.487468488288755,
block,scrambled,scrambled018.bmp,,,,,0,161,161,161,,,,,,,,,,,,,,,,,,,,,,,,,,,,,,,,,,,,,,,,,,None,,346.17826823998473,None,346.17826823998473,None,2022-04-06-14:35:23.044712,346.1868702999782,346.4943573999917,346.1868702999782,None,None,346.1868702999782,None,346.99486303996525,None,,,,12014,0001,2022_Apr_06_1429,localizer,2021.1.3,60.487468488288755,
block,scrambled,scrambled023.bmp,,,,,0,162,162,162,,,,,,,,,,,,,,,,,,,,,,,,,,,,,,,,,,,,,,,,,,None,,346.99486303996525,None,346.99486303996525,None,2022-04-06-14:35:23.861091,346.9953498999821,347.29454060003627,346.9953498999821,None,None,346.9953498999821,None,347.79514294004764,None,,,,12014,0001,2022_Apr_06_1429,localizer,2021.1.3,60.487468488288755,
block,scrambled,scrambled084.bmp,,,,,0,163,163,163,,,,,,,,,,,,,,,,,,,,,,,,,,,,,,,,,,,,,,,,,,None,,347.79514294004764,None,347.79514294004764,None,2022-04-06-14:35:24.664550,347.79760940000415,348.11167440004647,347.79760940000415,347.79760940000415,None,347.79760940000415,347.79760940000415,348.61283143997423,None,,,,12014,0001,2022_Apr_06_1429,localizer,2021.1.3,60.487468488288755,
block,scrambled,scrambled019.bmp,,,,,0,164,164,164,,,,,,,,,,,,,,,,,,,,,,,,,,,,,,,,,,,,,,,,,,None,,348.61283143997423,None,348.61283143997423,None,2022-04-06-14:35:25.480036,348.6155013999669,348.92861780000385,348.6155013999669,None,None,348.6155013999669,None,349.4288972400012,None,,,,12014,0001,2022_Apr_06_1429,localizer,2021.1.3,60.487468488288755,
block,scrambled,scrambled076.bmp,,,,,0,165,165,165,,,,,,,,,,,,,,,,,,,,,,,,,,,,,,,,,,,,,,,,,,None,,349.4288972400012,None,349.4288972400012,None,2022-04-06-14:35:26.296262,349.46886170003563,349.77770430000965,349.46886170003563,None,None,349.46886170003563,None,350.2449889399926,None,,,,12014,0001,2022_Apr_06_1429,localizer,2021.1.3,60.487468488288755,
block,scrambled,scrambled009.bmp,,,,,0,166,166,166,,,,,,,,,,,,,,,,,,,,,,,,,,,,,,,,,,,,,,,,,,None,,350.2449889399926,None,350.2449889399926,None,2022-04-06-14:35:27.111686,350.2546469999943,350.56127090007067,350.2546469999943,None,None,350.2546469999943,None,351.06889654000986,None,,,,12014,0001,2022_Apr_06_1429,localizer,2021.1.3,60.487468488288755,
block_end,scrambled,scrambled020.bmp,,,,,0,167,167,167,,,,,,,,,,,,,,,,,,,,,,,,,,,,,,,,,,,,,,,,,,None,,351.06889654000986,None,351.06889654000986,None,2022-04-06-14:35:27.941110,351.0861719000386,351.3946974000428,351.0861719000386,None,None,351.0861719000386,None,351.8783424400375,None,,,,12014,0001,2022_Apr_06_1429,localizer,2021.1.3,60.487468488288755,
block_start,objects,objects052.bmp,,,,,0,168,168,168,,,,,,,,,,,,,,,,,,,,,,,,,,,,,,,,,,,,,,,,,,t,1.755483999964781,351.87802649999503,None,351.87802649999503,None,2022-04-06-14:35:30.529933,353.67508389998693,353.9780720999697,353.67508389998693,None,None,353.67508389998693,None,354.47834204001117,None,,,,12014,0001,2022_Apr_06_1429,localizer,2021.1.3,60.487468488288755,
block,objects,objects024.bmp,,,,,0,169,169,169,,,,,,,,,,,,,,,,,,,,,,,,,,,,,,,,,,,,,,,,,,None,,354.47834204001117,None,354.47834204001117,None,2022-04-06-14:35:31.344564,354.48817170003895,354.7950366999721,354.48817170003895,None,None,354.48817170003895,None,355.29528693998,None,,,,12014,0001,2022_Apr_06_1429,localizer,2021.1.3,60.487468488288755,
block,objects,objects008.bmp,,,,,0,170,170,170,,,,,,,,,,,,,,,,,,,,,,,,,,,,,,,,,,,,,,,,,,None,,355.29528693998,None,355.29528693998,None,2022-04-06-14:35:32.162549,355.295642400044,355.5946176999714,355.295642400044,None,None,355.295642400044,None,356.10101904001783,None,,,,12014,0001,2022_Apr_06_1429,localizer,2021.1.3,60.487468488288755,
block,objects,objects037.bmp,,,,,0,171,171,171,,,,,,,,,,,,,,,,,,,,,,,,,,,,,,,,,,,,,,,,,,None,,356.10101904001783,None,356.10101904001783,None,2022-04-06-14:35:32.970299,356.11485780007206,356.4280028999783,356.11485780007206,None,None,356.11485780007206,None,356.91162724004823,None,,,,12014,0001,2022_Apr_06_1429,localizer,2021.1.3,60.487468488288755,
block,objects,objects075.bmp,,,,,0,172,172,172,,,,,,,,,,,,,,,,,,,,,,,,,,,,,,,,,,,,,,,,,,None,,356.91162724004823,None,356.91162724004823,None,2022-04-06-14:35:33.777856,356.9198410999961,357.22863090003375,356.9198410999961,None,None,356.9198410999961,None,357.7289566400344,None,,,,12014,0001,2022_Apr_06_1429,localizer,2021.1.3,60.487468488288755,
block,objects,objects079.bmp,,,,,0,173,173,173,,,,,,,,,,,,,,,,,,,,,,,,,,,,,,,,,,,,,,,,,,None,,357.7289566400344,None,357.7289566400344,None,2022-04-06-14:35:34.595137,357.7418622999685,358.05079949996434,357.7418622999685,None,None,357.7418622999685,None,358.54496314007554,None,,,,12014,0001,2022_Apr_06_1429,localizer,2021.1.3,60.487468488288755,
block,objects,objects045.bmp,,,,,0,174,174,174,,,,,,,,,,,,,,,,,,,,,,,,,,,,,,,,,,,,,,,,,,None,,358.54496314007554,None,358.54496314007554,None,2022-04-06-14:35:35.410087,358.545541999978,358.84542689996306,358.545541999978,None,None,358.545541999978,None,359.3462410400738,None,,,,12014,0001,2022_Apr_06_1429,localizer,2021.1.3,60.487468488288755,
block,objects,objects084.bmp,,,,,0,175,175,175,,,,,,,,,,,,,,,,,,,,,,,,,,,,,,,,,,,,,,,,,,None,,359.3462410400738,None,359.3462410400738,None,2022-04-06-14:35:36.216621,359.35697209998034,359.66171000001486,359.35697209998034,359.35697209998034,None,359.35697209998034,359.35697209998034,360.1615121399867,None,,,,12014,0001,2022_Apr_06_1429,localizer,2021.1.3,60.487468488288755,
block,objects,objects074.bmp,,,,,0,176,176,176,,,,,,,,,,,,,,,,,,,,,,,,,,,,,,,,,,,,,,,,,,None,,360.1615121399867,None,360.1615121399867,None,2022-04-06-14:35:37.027382,360.16930830001365,360.4777798000723,360.16930830001365,None,None,360.16930830001365,None,360.97845903997074,None,,,,12014,0001,2022_Apr_06_1429,localizer,2021.1.3,60.487468488288755,
block,objects,objects059.bmp,,,,,0,177,177,177,,,,,,,,,,,,,,,,,,,,,,,,,,,,,,,,,,,,,,,,,,None,,360.97845903997074,None,360.97845903997074,None,2022-04-06-14:35:37.844749,360.98810600000434,361.29477789998055,360.98810600000434,None,None,360.98810600000434,None,361.7951559400302,None,,,,12014,0001,2022_Apr_06_1429,localizer,2021.1.3,60.487468488288755,
block,objects,objects046.bmp,,,,,0,178,178,178,,,,,,,,,,,,,,,,,,,,,,,,,,,,,,,,,,,,,,,,,,None,,361.7951559400302,None,361.7951559400302,None,2022-04-06-14:35:38.661294,361.8040713999653,362.1111622999888,361.8040713999653,None,None,361.8040713999653,None,362.61160893997874,None,,,,12014,0001,2022_Apr_06_1429,localizer,2021.1.3,60.487468488288755,
block,objects,objects069.bmp,,,,,0,179,179,179,,,,,,,,,,,,,,,,,,,,,,,,,,,,,,,,,,,,,,,,,,None,,362.61160893997874,None,362.61160893997874,None,2022-04-06-14:35:39.478549,362.6214718000265,362.92810010001995,362.6214718000265,None,None,362.6214718000265,None,363.4285149400006,None,,,,12014,0001,2022_Apr_06_1429,localizer,2021.1.3,60.487468488288755,
block,objects,objects047.bmp,,,,,0,180,180,180,,,,,,,,,,,,,,,,,,,,,,,,,,,,,,,,,,,,,,,,,,None,,363.4285149400006,None,363.4285149400006,None,2022-04-06-14:35:40.295150,363.42900540004484,363.72839229996316,363.42900540004484,None,None,363.42900540004484,None,364.22847323996245,None,,,,12014,0001,2022_Apr_06_1429,localizer,2021.1.3,60.487468488288755,
block,objects,objects010.bmp,,,,,0,181,181,181,,,,,,,,,,,,,,,,,,,,,,,,,,,,,,,,,,,,,,,,,,None,,364.22847323996245,None,364.22847323996245,None,2022-04-06-14:35:41.096933,364.2299245999893,364.5449137999676,364.2299245999893,364.2299245999893,None,364.2299245999893,364.2299245999893,365.0451640399755,None,,,,12014,0001,2022_Apr_06_1429,localizer,2021.1.3,60.487468488288755,
block_end,objects,objects019.bmp,,,,,0,182,182,182,,,,,,,,,,,,,,,,,,,,,,,,,,,,,,,,,,,,,,,,,,None,,365.0451640399755,None,365.0451640399755,None,2022-04-06-14:35:41.911395,365.04594139999244,365.3614086000016,365.04594139999244,None,None,365.04594139999244,None,365.84513684004776,None,,,,12014,0001,2022_Apr_06_1429,localizer,2021.1.3,60.487468488288755,
block_start,scrambled,scrambled030.bmp,,,,,0,183,183,183,,,,,,,,,,,,,,,,,,,,,,,,,,,,,,,,,,,,,,,,,,t,1.7886901999590918,365.84460469998885,None,365.84460469998885,None,2022-04-06-14:35:44.529638,367.66418840002734,367.97876780002844,367.66418840002734,None,None,367.66418840002734,None,368.4784563400666,None,,,,12014,0001,2022_Apr_06_1429,localizer,2021.1.3,60.487468488288755,
block,scrambled,scrambled060.bmp,,,,,0,184,184,184,,,,,,,,,,,,,,,,,,,,,,,,,,,,,,,,,,,,,,,,,,None,,368.4784563400666,None,368.4784563400666,None,2022-04-06-14:35:45.344764,368.4893249999732,368.79479760001414,368.4893249999732,None,None,368.4893249999732,None,369.29581824006743,None,,,,12014,0001,2022_Apr_06_1429,localizer,2021.1.3,60.487468488288755,
block,scrambled,scrambled033.bmp,,,,,0,185,185,185,,,,,,,,,,,,,,,,,,,,,,,,,,,,,,,,,,,,,,,,,,None,,369.29581824006743,None,369.29581824006743,None,2022-04-06-14:35:46.163204,369.30784440005664,369.61148189997766,369.30784440005664,None,None,369.30784440005664,None,370.1118021400529,None,,,,12014,0001,2022_Apr_06_1429,localizer,2021.1.3,60.487468488288755,
block,scrambled,scrambled042.bmp,,,,,0,186,186,186,,,,,,,,,,,,,,,,,,,,,,,,,,,,,,,,,,,,,,,,,,None,,370.1118021400529,None,370.1118021400529,None,2022-04-06-14:35:46.978028,370.121532500023,370.4293302000733,370.121532500023,None,None,370.121532500023,None,370.9288514400017,None,,,,12014,0001,2022_Apr_06_1429,localizer,2021.1.3,60.487468488288755,
block,scrambled,scrambled037.bmp,,,,,0,187,187,187,,,,,,,,,,,,,,,,,,,,,,,,,,,,,,,,,,,,,,,,,,None,,370.9288514400017,None,370.9288514400017,None,2022-04-06-14:35:47.796249,370.939259900013,371.2447866000002,370.939259900013,None,None,370.939259900013,None,371.74601313999153,None,,,,12014,0001,2022_Apr_06_1429,localizer,2021.1.3,60.487468488288755,
block,scrambled,scrambled083.bmp,,,,,0,188,188,188,,,,,,,,,,,,,,,,,,,,,,,,,,,,,,,,,,,,,,,,,,None,,371.74601313999153,None,371.74601313999153,None,2022-04-06-14:35:48.612439,371.7461496000178,372.0614607000025,371.7461496000178,None,None,371.7461496000178,None,372.5617532399832,None,,,,12014,0001,2022_Apr_06_1429,localizer,2021.1.3,60.487468488288755,
block,scrambled,scrambled084.bmp,,,,,0,189,189,189,,,,,,,,,,,,,,,,,,,,,,,,,,,,,,,,,,,,,,,,,,None,,372.5617532399832,None,372.5617532399832,None,2022-04-06-14:35:49.428087,372.5622002000455,372.86154319997877,372.5622002000455,None,None,372.5622002000455,None,373.3626651399885,None,,,,12014,0001,2022_Apr_06_1429,localizer,2021.1.3,60.487468488288755,
block,scrambled,scrambled079.bmp,,,,,0,190,190,190,,,,,,,,,,,,,,,,,,,,,,,,,,,,,,,,,,,,,,,,,,None,,373.3626651399885,None,373.3626651399885,None,2022-04-06-14:35:50.232055,373.37261409999337,373.6780457000714,373.37261409999337,373.37261409999337,None,373.37261409999337,373.37261409999337,374.1797470400692,None,,,,12014,0001,2022_Apr_06_1429,localizer,2021.1.3,60.487468488288755,
block,scrambled,scrambled066.bmp,,,,,0,191,191,191,,,,,,,,,,,,,,,,,,,,,,,,,,,,,,,,,,,,,,,,,,None,,374.1797470400692,None,374.1797470400692,None,2022-04-06-14:35:51.047930,374.182547000004,374.49535570002627,374.182547000004,None,None,374.182547000004,None,374.9956478400039,None,,,,12014,0001,2022_Apr_06_1429,localizer,2021.1.3,60.487468488288755,
block,scrambled,scrambled085.bmp,,,,,0,192,192,192,,,,,,,,,,,,,,,,,,,,,,,,,,,,,,,,,,,,,,,,,,None,,374.9956478400039,None,374.9956478400039,None,2022-04-06-14:35:51.862860,375.00702020002063,375.31141820002813,375.00702020002063,None,None,375.00702020002063,None,375.81172133997313,None,,,,12014,0001,2022_Apr_06_1429,localizer,2021.1.3,60.487468488288755,
block,scrambled,scrambled041.bmp,,,,,0,193,193,193,,,,,,,,,,,,,,,,,,,,,,,,,,,,,,,,,,,,,,,,,,None,,375.81172133997313,None,375.81172133997313,None,2022-04-06-14:35:52.678233,375.81219169998076,376.1110736000119,375.81219169998076,None,None,375.81219169998076,None,376.612160939991,None,,,,12014,0001,2022_Apr_06_1429,localizer,2021.1.3,60.487468488288755,
block,scrambled,scrambled039.bmp,,,,,0,194,194,194,,,,,,,,,,,,,,,,,,,,,,,,,,,,,,,,,,,,,,,,,,None,,376.612160939991,None,376.612160939991,None,2022-04-06-14:35:53.480534,376.6138595000375,376.928440000047,376.6138595000375,376.6138595000375,None,376.6138595000375,376.6138595000375,377.4286690400098,None,,,,12014,0001,2022_Apr_06_1429,localizer,2021.1.3,60.487468488288755,
block,scrambled,scrambled063.bmp,,,,,0,195,195,195,,,,,,,,,,,,,,,,,,,,,,,,,,,,,,,,,,,,,,,,,,None,,377.4286690400098,None,377.4286690400098,None,2022-04-06-14:35:54.295102,377.4289792999625,377.7282794000348,377.4289792999625,None,None,377.4289792999625,None,378.2291535400203,None,,,,12014,0001,2022_Apr_06_1429,localizer,2021.1.3,60.487468488288755,
block,scrambled,scrambled050.bmp,,,,,0,196,196,196,,,,,,,,,,,,,,,,,,,,,,,,,,,,,,,,,,,,,,,,,,None,,378.2291535400203,None,378.2291535400203,None,2022-04-06-14:35:55.098539,378.24285230005626,378.5483479000395,378.24285230005626,378.24285230005626,None,378.24285230005626,378.24285230005626,379.04460424002025,None,,,,12014,0001,2022_Apr_06_1429,localizer,2021.1.3,60.487468488288755,
block_end,scrambled,scrambled002.bmp,,,,,0,197,197,197,,,,,,,,,,,,,,,,,,,,,,,,,,,,,,,,,,,,,,,,,,None,,379.04460424002025,None,379.04460424002025,None,2022-04-06-14:35:55.910589,379.0464199000271,379.34548180003185,379.0464199000271,None,None,379.0464199000271,None,379.8463537400006,None,,,,12014,0001,2022_Apr_06_1429,localizer,2021.1.3,60.487468488288755,
block_start,scenes,scenes003.bmp,,,,,0,198,198,198,,,,,,,,,,,,,,,,,,,,,,,,,,,,,,,,,,,,,,,,,,t,1.7865045000799,379.8468742000405,None,379.8468742000405,None,2022-04-06-14:35:58.526961,381.671715100063,381.97796459996607,381.671715100063,None,None,381.671715100063,None,382.47829133997436,None,,,,12014,0001,2022_Apr_06_1429,localizer,2021.1.3,60.487468488288755,
block,scenes,scenes005.bmp,,,,,0,199,199,199,,,,,,,,,,,,,,,,,,,,,,,,,,,,,,,,,,,,,,,,,,None,,382.47829133997436,None,382.47829133997436,None,2022-04-06-14:35:59.344517,382.48790259996895,382.7944592999993,382.48790259996895,None,None,382.48790259996895,None,383.2945617400459,None,,,,12014,0001,2022_Apr_06_1429,localizer,2021.1.3,60.487468488288755,
block,scenes,scenes047.bmp,,,,,0,200,200,200,,,,,,,,,,,,,,,,,,,,,,,,,,,,,,,,,,,,,,,,,,None,,383.2945617400459,None,383.2945617400459,None,2022-04-06-14:36:00.160789,383.3031910000136,383.6115317000076,383.3031910000136,None,None,383.3031910000136,None,384.1112383400672,None,,,,12014,0001,2022_Apr_06_1429,localizer,2021.1.3,60.487468488288755,
block,scenes,scenes060.bmp,,,,,0,201,201,201,,,,,,,,,,,,,,,,,,,,,,,,,,,,,,,,,,,,,,,,,,None,,384.1112383400672,None,384.1112383400672,None,2022-04-06-14:36:00.977219,384.1130245999666,384.42793760006316,384.1130245999666,None,None,384.1130245999666,None,384.92842113998483,None,,,,12014,0001,2022_Apr_06_1429,localizer,2021.1.3,60.487468488288755,
block,scenes,scenes020.bmp,,,,,0,202,202,202,,,,,,,,,,,,,,,,,,,,,,,,,,,,,,,,,,,,,,,,,,None,,384.92842113998483,None,384.92842113998483,None,2022-04-06-14:36:01.794868,384.93832419998944,385.24456270004157,384.93832419998944,None,None,384.93832419998944,None,385.7448228400084,None,,,,12014,0001,2022_Apr_06_1429,localizer,2021.1.3,60.487468488288755,
block,scenes,scenes055.bmp,,,,,0,203,203,203,,,,,,,,,,,,,,,,,,,,,,,,,,,,,,,,,,,,,,,,,,None,,385.7448228400084,None,385.7448228400084,None,2022-04-06-14:36:02.611049,385.7552141000051,386.06093559996225,385.7552141000051,None,None,385.7552141000051,None,386.5616132399649,None,,,,12014,0001,2022_Apr_06_1429,localizer,2021.1.3,60.487468488288755,
block,scenes,scenes088.bmp,,,,,0,204,204,204,,,,,,,,,,,,,,,,,,,,,,,,,,,,,,,,,,,,,,,,,,None,,386.5616132399649,None,386.5616132399649,None,2022-04-06-14:36:03.427837,386.5624099000124,386.86129200004507,386.5624099000124,None,None,386.5624099000124,None,387.361698739964,None,,,,12014,0001,2022_Apr_06_1429,localizer,2021.1.3,60.487468488288755,
block,scenes,scenes076.bmp,,,,,0,205,205,205,,,,,,,,,,,,,,,,,,,,,,,,,,,,,,,,,,,,,,,,,,None,,387.361698739964,None,387.361698739964,None,2022-04-06-14:36:04.228924,387.3726357000414,387.6778708000202,387.3726357000414,387.3726357000414,None,387.3726357000414,387.3726357000414,388.178188939963,None,,,,12014,0001,2022_Apr_06_1429,localizer,2021.1.3,60.487468488288755,
block,scenes,scenes083.bmp,,,,,0,206,206,206,,,,,,,,,,,,,,,,,,,,,,,,,,,,,,,,,,,,,,,,,,None,,388.178188939963,None,388.178188939963,None,2022-04-06-14:36:05.044509,388.17902499996126,388.47786089999136,388.17902499996126,None,None,388.17902499996126,None,388.9780565400491,None,,,,12014,0001,2022_Apr_06_1429,localizer,2021.1.3,60.487468488288755,
block,scenes,scenes079.bmp,,,,,0,207,207,207,,,,,,,,,,,,,,,,,,,,,,,,,,,,,,,,,,,,,,,,,,None,,388.9780565400491,None,388.9780565400491,None,2022-04-06-14:36:05.846184,388.97885750001296,389.27851279999595,388.97885750001296,388.97885750001296,None,388.97885750001296,388.97885750001296,389.77889613996956,None,,,,12014,0001,2022_Apr_06_1429,localizer,2021.1.3,60.487468488288755,
block,scenes,scenes080.bmp,,,,,0,208,208,208,,,,,,,,,,,,,,,,,,,,,,,,,,,,,,,,,,,,,,,,,,None,,389.77889613996956,None,389.77889613996956,None,2022-04-06-14:36:06.648108,389.7812262000516,390.10158150002826,389.7812262000516,389.7812262000516,None,389.7812262000516,389.7812262000516,390.5958446399658,None,,,,12014,0001,2022_Apr_06_1429,localizer,2021.1.3,60.487468488288755,
block,scenes,scenes034.bmp,,,,,0,209,209,209,,,,,,,,,,,,,,,,,,,,,,,,,,,,,,,,,,,,,,,,,,None,,390.5958446399658,None,390.5958446399658,None,2022-04-06-14:36:07.463037,390.59694379998837,390.91117079998367,390.59694379998837,None,None,390.59694379998837,None,391.4117921400233,None,,,,12014,0001,2022_Apr_06_1429,localizer,2021.1.3,60.487468488288755,
block,scenes,scenes036.bmp,,,,,0,210,210,210,,,,,,,,,,,,,,,,,,,,,,,,,,,,,,,,,,,,,,,,,,None,,391.4117921400233,None,391.4117921400233,None,2022-04-06-14:36:08.278261,391.41267270001117,391.71170270000584,391.41267270001117,None,None,391.41267270001117,None,392.21306713999945,None,,,,12014,0001,2022_Apr_06_1429,localizer,2021.1.3,60.487468488288755,
block,scenes,scenes056.bmp,,,,,0,211,211,211,,,,,,,,,,,,,,,,,,,,,,,,,,,,,,,,,,,,,,,,,,None,,392.21306713999945,None,392.21306713999945,None,2022-04-06-14:36:09.083298,392.227999499999,392.52815939998254,392.227999499999,392.227999499999,None,392.227999499999,392.227999499999,393.0284771400387,None,,,,12014,0001,2022_Apr_06_1429,localizer,2021.1.3,60.487468488288755,
block_end,scenes,scenes050.bmp,,,,,0,212,212,212,,,,,,,,,,,,,,,,,,,,,,,,,,,,,,,,,,,,,,,,,,None,,393.0284771400387,None,393.0284771400387,None,2022-04-06-14:36:09.894703,393.0378128000302,393.344670600025,393.0378128000302,None,None,393.0378128000302,None,393.8451944400207,None,,,,12014,0001,2022_Apr_06_1429,localizer,2021.1.3,60.487468488288755,
block_start,objects,objects017.bmp,,,,,0,213,213,213,,,,,,,,,,,,,,,,,,,,,,,,,,,,,,,,,,,,,,,,,,t,1.7878116000210866,393.8446819999954,None,393.8446819999954,None,2022-04-06-14:36:12.530263,395.6777249000734,395.9781105000293,395.6777249000734,None,None,395.6777249000734,None,396.4780796399922,None,,,,12014,0001,2022_Apr_06_1429,localizer,2021.1.3,60.487468488288755,
block,objects,objects028.bmp,,,,,0,214,214,214,,,,,,,,,,,,,,,,,,,,,,,,,,,,,,,,,,,,,,,,,,None,,396.4780796399922,None,396.4780796399922,None,2022-04-06-14:36:13.343214,396.4794493999798,396.7785792000359,396.4794493999798,None,None,396.4794493999798,None,397.2952147400123,None,,,,12014,0001,2022_Apr_06_1429,localizer,2021.1.3,60.487468488288755,
block,objects,objects060.bmp,,,,,0,215,215,215,,,,,,,,,,,,,,,,,,,,,,,,,,,,,,,,,,,,,,,,,,None,,397.2952147400123,None,397.2952147400123,None,2022-04-06-14:36:14.161680,397.3050675999839,397.6116401000181,397.3050675999839,None,None,397.3050675999839,None,398.1115955399931,None,,,,12014,0001,2022_Apr_06_1429,localizer,2021.1.3,60.487468488288755,
block,objects,objects011.bmp,,,,,0,216,216,216,,,,,,,,,,,,,,,,,,,,,,,,,,,,,,,,,,,,,,,,,,None,,398.1115955399931,None,398.1115955399931,None,2022-04-06-14:36:14.976830,398.11633380001877,398.4278438000474,398.11633380001877,None,None,398.11633380001877,None,398.92845784003146,None,,,,12014,0001,2022_Apr_06_1429,localizer,2021.1.3,60.487468488288755,
block,objects,objects058.bmp,,,,,0,217,217,217,,,,,,,,,,,,,,,,,,,,,,,,,,,,,,,,,,,,,,,,,,None,,398.92845784003146,None,398.92845784003146,None,2022-04-06-14:36:15.794685,398.93810969998594,399.2449015000602,398.93810969998594,None,None,398.93810969998594,None,399.7458641400211,None,,,,12014,0001,2022_Apr_06_1429,localizer,2021.1.3,60.487468488288755,
block,objects,objects025.bmp,,,,,0,218,218,218,,,,,,,,,,,,,,,,,,,,,,,,,,,,,,,,,,,,,,,,,,None,,399.7458641400211,None,399.7458641400211,None,2022-04-06-14:36:16.614179,399.74842139997054,400.0621292999713,399.74842139997054,None,None,399.74842139997054,None,400.56179164004277,None,,,,12014,0001,2022_Apr_06_1429,localizer,2021.1.3,60.487468488288755,
block,objects,objects037.bmp,,,,,0,219,219,219,,,,,,,,,,,,,,,,,,,,,,,,,,,,,,,,,,,,,,,,,,None,,400.56179164004277,None,400.56179164004277,None,2022-04-06-14:36:17.428018,400.5625033000251,400.86128890002146,400.5625033000251,None,None,400.5625033000251,None,401.36160614007383,None,,,,12014,0001,2022_Apr_06_1429,localizer,2021.1.3,60.487468488288755,
block,objects,objects064.bmp,,,,,0,220,220,220,,,,,,,,,,,,,,,,,,,,,,,,,,,,,,,,,,,,,,,,,,None,,401.36160614007383,None,401.36160614007383,None,2022-04-06-14:36:18.229831,401.3720705000451,401.6781038000481,401.3720705000451,401.3720705000451,None,401.3720705000451,401.3720705000451,402.1784041399718,None,,,,12014,0001,2022_Apr_06_1429,localizer,2021.1.3,60.487468488288755,
block,objects,objects042.bmp,,,,,0,221,221,221,,,,,,,,,,,,,,,,,,,,,,,,,,,,,,,,,,,,,,,,,,None,,402.1784041399718,None,402.1784041399718,None,2022-04-06-14:36:19.044634,402.18686909996904,402.4947524999734,402.18686909996904,None,None,402.18686909996904,None,402.9952417400549,None,,,,12014,0001,2022_Apr_06_1429,localizer,2021.1.3,60.487468488288755,
block,objects,objects010.bmp,,,,,0,222,222,222,,,,,,,,,,,,,,,,,,,,,,,,,,,,,,,,,,,,,,,,,,None,,402.9952417400549,None,402.9952417400549,None,2022-04-06-14:36:19.861468,402.9959009999875,403.29498880007304,402.9959009999875,None,None,402.9959009999875,None,403.79509484003063,None,,,,12014,0001,2022_Apr_06_1429,localizer,2021.1.3,60.487468488288755,
block,objects,objects068.bmp,,,,,0,223,223,223,,,,,,,,,,,,,,,,,,,,,,,,,,,,,,,,,,,,,,,,,,None,,403.79509484003063,None,403.79509484003063,None,2022-04-06-14:36:20.662321,403.8049878999591,404.1113335000118,403.8049878999591,403.8049878999591,None,403.8049878999591,403.8049878999591,404.61193704003233,None,,,,12014,0001,2022_Apr_06_1429,localizer,2021.1.3,60.487468488288755,
block,objects,objects034.bmp,,,,,0,224,224,224,,,,,,,,,,,,,,,,,,,,,,,,,,,,,,,,,,,,,,,,,,None,,404.61193704003233,None,404.61193704003233,None,2022-04-06-14:36:21.478159,404.61240970005747,404.9117888000328,404.61240970005747,None,None,404.61240970005747,None,405.41155553996794,None,,,,12014,0001,2022_Apr_06_1429,localizer,2021.1.3,60.487468488288755,
block,objects,objects074.bmp,,,,,0,225,225,225,,,,,,,,,,,,,,,,,,,,,,,,,,,,,,,,,,,,,,,,,,None,,405.41155553996794,None,405.41155553996794,None,2022-04-06-14:36:22.278785,405.4127345000161,405.7280657000374,405.4127345000161,405.4127345000161,None,405.4127345000161,405.4127345000161,406.2118629400269,None,,,,12014,0001,2022_Apr_06_1429,localizer,2021.1.3,60.487468488288755,
block,objects,objects057.bmp,,,,,0,226,226,226,,,,,,,,,,,,,,,,,,,,,,,,,,,,,,,,,,,,,,,,,,None,,406.2118629400269,None,406.2118629400269,None,2022-04-06-14:36:23.080082,406.22371050005313,406.52812450006604,406.22371050005313,406.22371050005313,None,406.22371050005313,406.22371050005313,407.02843024003084,None,,,,12014,0001,2022_Apr_06_1429,localizer,2021.1.3,60.487468488288755,
block_end,objects,objects057.bmp,,,,,0,227,227,227,,,,,,,,,,,,,,,,,,,,,,,,,,,,,,,,,,,,,,,,,,None,,407.02843024003084,None,407.02843024003084,None,2022-04-06-14:36:23.894658,407.02912079996895,407.3289459999651,407.02912079996895,None,y,407.02912079996895,None,407.82854314000576,None,0.3940679000224918,,,12014,0001,2022_Apr_06_1429,localizer,2021.1.3,60.487468488288755,
null_block,null_block,null_block.bmp,,,,,0,228,228,228,,,,,,,,,,,,,,,,,,,,,,,,,,,,,,,,,,,,,,,,,,t,1.8040699999546632,407.8281600000337,None,407.8281600000337,None,2022-04-06-14:36:26.527823,409.661596240045,None,409.661596240045,None,None,409.661596240045,None,409.6635093999794,None,,,,12014,0001,2022_Apr_06_1429,localizer,2021.1.3,60.487468488288755,
block_start,faces,faces065.bmp,,,,,0,229,229,229,,,,,,,,,,,,,,,,,,,,,,,,,,,,,,,,,,,,,,,,,,t,1.9539378000190482,421.67830060003325,None,421.67830060003325,None,2022-04-06-14:36:40.529380,423.6817195999902,423.99492490000557,423.6817195999902,None,None,423.6817195999902,None,424.47838914002057,None,,,,12014,0001,2022_Apr_06_1429,localizer,2021.1.3,60.487468488288755,
block,faces,faces036.bmp,,,,,0,230,230,230,,,,,,,,,,,,,,,,,,,,,,,,,,,,,,,,,,,,,,,,,,None,,424.47838914002057,None,424.47838914002057,None,2022-04-06-14:36:41.344617,424.47946970001794,424.77817209996283,424.47946970001794,None,None,424.47946970001794,None,425.2786808400764,None,,,,12014,0001,2022_Apr_06_1429,localizer,2021.1.3,60.487468488288755,
block,faces,faces028.bmp,,,,,0,231,231,231,,,,,,,,,,,,,,,,,,,,,,,,,,,,,,,,,,,,,,,,,,None,,425.2786808400764,None,425.2786808400764,None,2022-04-06-14:36:42.145905,425.27936380007304,425.5783912000479,425.27936380007304,425.27936380007304,None,425.27936380007304,425.27936380007304,426.0783890399965,None,,,,12014,0001,2022_Apr_06_1429,localizer,2021.1.3,60.487468488288755,
block,faces,faces083.bmp,,,,,0,232,232,232,,,,,,,,,,,,,,,,,,,,,,,,,,,,,,,,,,,,,,,,,,None,,426.0783890399965,None,426.0783890399965,None,2022-04-06-14:36:42.945892,426.08736110001337,426.3952816000674,426.08736110001337,426.08736110001337,None,426.08736110001337,426.08736110001337,426.89526974005855,None,,,,12014,0001,2022_Apr_06_1429,localizer,2021.1.3,60.487468488288755,
block,faces,faces001.bmp,,,,,0,233,233,233,,,,,,,,,,,,,,,,,,,,,,,,,,,,,,,,,,,,,,,,,,None,,426.89526974005855,None,426.89526974005855,None,2022-04-06-14:36:43.761500,426.90482299996074,427.2116390999872,426.90482299996074,None,None,426.90482299996074,None,427.7118395399651,None,,,,12014,0001,2022_Apr_06_1429,localizer,2021.1.3,60.487468488288755,
block,faces,faces074.bmp,,,,,0,234,234,234,,,,,,,,,,,,,,,,,,,,,,,,,,,,,,,,,,,,,,,,,,None,,427.7118395399651,None,427.7118395399651,None,2022-04-06-14:36:44.577667,427.7127603000263,428.0281663000351,427.7127603000263,None,None,427.7127603000263,None,428.5142679399927,None,,,,12014,0001,2022_Apr_06_1429,localizer,2021.1.3,60.487468488288755,
block,faces,faces078.bmp,,,,,0,235,235,235,,,,,,,,,,,,,,,,,,,,,,,,,,,,,,,,,,,,,,,,,,None,,428.5142679399927,None,428.5142679399927,None,2022-04-06-14:36:45.386360,428.5323616999667,428.84548769996036,428.5323616999667,428.5323616999667,None,428.5323616999667,428.5323616999667,429.32875503998946,None,,,,12014,0001,2022_Apr_06_1429,localizer,2021.1.3,60.487468488288755,
block,faces,faces013.bmp,,,,,0,236,236,236,,,,,,,,,,,,,,,,,,,,,,,,,,,,,,,,,,,,,,,,,,None,,429.32875503998946,None,429.32875503998946,None,2022-04-06-14:36:46.195020,429.3382555000717,429.6448174000252,429.3382555000717,None,None,429.3382555000717,None,430.14502604006555,None,,,,12014,0001,2022_Apr_06_1429,localizer,2021.1.3,60.487468488288755,
block,faces,faces010.bmp,,,,,0,237,237,237,,,,,,,,,,,,,,,,,,,,,,,,,,,,,,,,,,,,,,,,,,None,,430.14502604006555,None,430.14502604006555,None,2022-04-06-14:36:47.011254,430.1459783000173,430.4449858000735,430.1459783000173,None,None,430.1459783000173,None,430.94514623997964,None,,,,12014,0001,2022_Apr_06_1429,localizer,2021.1.3,60.487468488288755,
block,faces,faces079.bmp,,,,,0,238,238,238,,,,,,,,,,,,,,,,,,,,,,,,,,,,,,,,,,,,,,,,,,None,,430.94514623997964,None,430.94514623997964,None,2022-04-06-14:36:47.812593,430.9552272000583,431.26152559998445,430.9552272000583,430.9552272000583,None,430.9552272000583,430.9552272000583,431.76198064003836,None,,,,12014,0001,2022_Apr_06_1429,localizer,2021.1.3,60.487468488288755,
block,faces,faces059.bmp,,,,,0,239,239,239,,,,,,,,,,,,,,,,,,,,,,,,,,,,,,,,,,,,,,,,,,None,,431.76198064003836,None,431.76198064003836,None,2022-04-06-14:36:48.628208,431.76257610006724,432.0611687999917,431.76257610006724,None,None,431.76257610006724,None,432.56248603997517,None,,,,12014,0001,2022_Apr_06_1429,localizer,2021.1.3,60.487468488288755,
block,faces,faces061.bmp,,,,,0,240,240,240,,,,,,,,,,,,,,,,,,,,,,,,,,,,,,,,,,,,,,,,,,None,,432.56248603997517,None,432.56248603997517,None,2022-04-06-14:36:49.431697,432.564966200036,432.87892649997957,432.564966200036,432.564966200036,None,432.564966200036,432.564966200036,433.3785512399976,None,,,,12014,0001,2022_Apr_06_1429,localizer,2021.1.3,60.487468488288755,
block,faces,faces003.bmp,,,,,0,241,241,241,,,,,,,,,,,,,,,,,,,,,,,,,,,,,,,,,,,,,,,,,,None,,433.3785512399976,None,433.3785512399976,None,2022-04-06-14:36:50.245354,433.38828750001267,433.69503369997256,433.38828750001267,None,None,433.38828750001267,None,434.1975292399642,None,,,,12014,0001,2022_Apr_06_1429,localizer,2021.1.3,60.487468488288755,
block,faces,faces044.bmp,,,,,0,242,242,242,,,,,,,,,,,,,,,,,,,,,,,,,,,,,,,,,,,,,,,,,,None,,434.1975292399642,None,434.1975292399642,None,2022-04-06-14:36:51.068698,434.20251790003385,434.51247720001265,434.20251790003385,None,None,434.20251790003385,None,435.01207464005563,None,,,,12014,0001,2022_Apr_06_1429,localizer,2021.1.3,60.487468488288755,
block_end,faces,faces076.bmp,,,,,0,243,243,243,,,,,,,,,,,,,,,,,,,,,,,,,,,,,,,,,,,,,,,,,,None,,435.01207464005563,None,435.01207464005563,None,2022-04-06-14:36:51.878302,435.0218391000526,435.32824000006076,435.0218391000526,None,None,435.0218391000526,None,435.8300322400522,None,,,,12014,0001,2022_Apr_06_1429,localizer,2021.1.3,60.487468488288755,
,,,,,,,,,,,,,,,,,,,,,,,,,,,,,,,,,,,,,,,,,,,,,,,,,,,,,,,,,,,,,,,,,,,,,435.82998360006604,None,,,,,,,
