block_type,condition,img_name,Button.thisRepN,Button.thisTrialN,Button.thisN,Button.thisIndex,trials.thisRepN,trials.thisTrialN,trials.thisN,trials.thisIndex,Ready_experimenter_text.started,Ready_experimenter_text.stopped,Ready_experimenter_resp.keys,Ready_experimenter_resp.rt,Ready_experimenter_resp.started,Ready_experimenter_resp.stopped,Alignment_background.started,Alignment_background.stopped,Alignment_image.started,Alignment_image.stopped,Alignment_resp.keys,Alignment_resp.rt,Alignment_resp.started,Alignment_resp.stopped,Button_text.started,Button_text.stopped,Index_text.started,Index_text.stopped,Index_resp.keys,Index_resp.rt,Index_resp.started,Index_resp.stopped,Middle_text.started,Middle_text.stopped,Middle_resp.keys,Middle_resp.rt,Middle_resp.started,Middle_resp.stopped,Repeat_text.started,Repeat_text.stopped,Repeat_resp.keys,Repeat_resp.corr,Repeat_resp.rt,Repeat_resp.started,Repeat_resp.stopped,instruction_text.started,instruction_text.stopped,key_resp.keys,key_resp.rt,key_resp.started,key_resp.stopped,scanner_t.keys,scanner_t.rt,scanner_t.started,scanner_t.stopped,fixation_wait_for_t.started,fixation_wait_for_t.stopped,real_timestamp_trial_start,image.started,image.stopped,fixation.started,fixation.stopped,repeat_response.keys,repeat_response.started,repeat_response.stopped,fixation_null.started,fixation_null.stopped,repeat_response.rt,end_text.started,end_text.stopped,participant,run,date,expName,psychopyVersion,frameRate,
,,,,,,,,,,,8.570008900016546,None,return,64.09070860000793,8.570008900016546,None,,,,,,,,,,,,,,,,,,,,,,,,,,,,,,,,,,,,,,,,,,,,,,,,,,,,,,,22006,0001,2022_Apr_05_1057,localizer,2021.1.3,60.02361330856245,
,,,,,,,,,,,,,,,,,72.7137972000055,None,72.7137972000055,None,return,10.531522500037681,72.7137972000055,None,,,,,,,,,,,,,,,,,,,,,,,,,,,,,,,,,,,,,,,,,,,,,,,22006,0001,2022_Apr_05_1057,localizer,2021.1.3,60.02361330856245,
,,,0,0,0,0,,,,,,,,,,,,,,,,,,,83.27211070002522,None,84.2828787000035,None,y,184.29554350004764,84.2828787000035,None,268.6011208000127,None,b,2.387903399998322,268.6011208000127,None,271.01814560004277,None,y,1,2.009954800014384,271.01814560004277,None,,,,,,,,,,,,,,,,,,,,,,,,,,22006,0001,2022_Apr_05_1057,localizer,2021.1.3,60.02361330856245,
,,,1,0,1,0,,,,,,,,,,,,,,,,,,,273.0514278000337,None,274.0673382000532,None,y,2.133914200006984,274.0673382000532,None,276.21937990002334,None,b,4.85775000002468,276.21937990002334,None,281.10300010000356,None,n,0,5.829520899977069,281.10300010000356,None,,,,,,,,,,,,,,,,,,,,,,,,,,22006,0001,2022_Apr_05_1057,localizer,2021.1.3,60.02361330856245,
,,,,,,,,,,,,,,,,,,,,,,,,,,,,,,,,,,,,,,,,,,,,,,286.9520955000189,None,y,14.936171000008471,286.9520955000189,None,,,,,,,,,,,,,,,,,,,,22006,0001,2022_Apr_05_1057,localizer,2021.1.3,60.02361330856245,
block_start,scenes,scenes037.bmp,,,,,0,0,0,0,,,,,,,,,,,,,,,,,,,,,,,,,,,,,,,,,,,,,,,,,,t,36.061187999963295,301.9868293000036,None,301.9868293000036,None,2022-04-05-11:02:53.633316,338.07995250000386,338.3849027000251,338.07995250000386,None,None,338.07995250000386,None,338.8846142400522,None,,,,22006,0001,2022_Apr_05_1057,localizer,2021.1.3,60.02361330856245,
block,scenes,scenes054.bmp,,,,,0,1,1,1,,,,,,,,,,,,,,,,,,,,,,,,,,,,,,,,,,,,,,,,,,None,,338.8846142400522,None,338.8846142400522,None,2022-04-05-11:02:54.454444,338.90048050001496,339.20132490003016,338.90048050001496,None,None,338.90048050001496,None,339.7010417400394,None,,,,22006,0001,2022_Apr_05_1057,localizer,2021.1.3,60.02361330856245,
block,scenes,scenes032.bmp,,,,,0,2,2,2,,,,,,,,,,,,,,,,,,,,,,,,,,,,,,,,,,,,,,,,,,None,,339.7010417400394,None,339.7010417400394,None,2022-04-05-11:02:55.267897,339.71135700005107,340.0181646000128,339.71135700005107,None,None,339.71135700005107,None,340.51792954003906,None,,,,22006,0001,2022_Apr_05_1057,localizer,2021.1.3,60.02361330856245,
block,scenes,scenes090.bmp,,,,,0,3,3,3,,,,,,,,,,,,,,,,,,,,,,,,,,,,,,,,,,,,,,,,,,None,,340.51792954003906,None,340.51792954003906,None,2022-04-05-11:02:56.085816,340.5292751000379,340.8346449000528,340.5292751000379,None,None,340.5292751000379,None,341.3345198400435,None,,,,22006,0001,2022_Apr_05_1057,localizer,2021.1.3,60.02361330856245,
block,scenes,scenes057.bmp,,,,,0,4,4,4,,,,,,,,,,,,,,,,,,,,,,,,,,,,,,,,,,,,,,,,,,None,,341.3345198400435,None,341.3345198400435,None,2022-04-05-11:02:56.901464,341.3458304000087,341.65168570005335,341.3458304000087,None,None,341.3458304000087,None,342.1515331400093,None,,,,22006,0001,2022_Apr_05_1057,localizer,2021.1.3,60.02361330856245,
block,scenes,scenes064.bmp,,,,,0,5,5,5,,,,,,,,,,,,,,,,,,,,,,,,,,,,,,,,,,,,,,,,,,None,,342.1515331400093,None,342.1515331400093,None,2022-04-05-11:02:57.719193,342.1626560000004,342.46808180003427,342.1626560000004,None,None,342.1626560000004,None,342.9686964400113,None,,,,22006,0001,2022_Apr_05_1057,localizer,2021.1.3,60.02361330856245,
block,scenes,scenes006.bmp,,,,,0,6,6,6,,,,,,,,,,,,,,,,,,,,,,,,,,,,,,,,,,,,,,,,,,None,,342.9686964400113,None,342.9686964400113,None,2022-04-05-11:02:58.537310,342.98273710004287,343.28464260004694,342.98273710004287,None,None,342.98273710004287,None,343.7851839400479,None,,,,22006,0001,2022_Apr_05_1057,localizer,2021.1.3,60.02361330856245,
block,scenes,scenes074.bmp,,,,,0,7,7,7,,,,,,,,,,,,,,,,,,,,,,,,,,,,,,,,,,,,,,,,,,None,,343.7851839400479,None,343.7851839400479,None,2022-04-05-11:02:59.353006,343.7979677999974,344.1011822000146,343.7979677999974,None,None,343.7979677999974,None,344.600998440024,None,,,,22006,0001,2022_Apr_05_1057,localizer,2021.1.3,60.02361330856245,
block,scenes,scenes044.bmp,,,,,0,8,8,8,,,,,,,,,,,,,,,,,,,,,,,,,,,,,,,,,,,,,,,,,,None,,344.600998440024,None,344.600998440024,None,2022-04-05-11:03:00.167868,344.6113806000212,344.91817640000954,344.6113806000212,None,None,344.6113806000212,None,345.41802164000694,None,,,,22006,0001,2022_Apr_05_1057,localizer,2021.1.3,60.02361330856245,
block,scenes,scenes039.bmp,,,,,0,9,9,9,,,,,,,,,,,,,,,,,,,,,,,,,,,,,,,,,,,,,,,,,,None,,345.41802164000694,None,345.41802164000694,None,2022-04-05-11:03:00.985885,345.4286374000367,345.7347214000183,345.4286374000367,None,None,345.4286374000367,None,346.23443614001155,None,,,,22006,0001,2022_Apr_05_1057,localizer,2021.1.3,60.02361330856245,
block,scenes,scenes001.bmp,,,,,0,10,10,10,,,,,,,,,,,,,,,,,,,,,,,,,,,,,,,,,,,,,,,,,,None,,346.23443614001155,None,346.23443614001155,None,2022-04-05-11:03:01.801234,346.24590680003166,346.55142480001086,346.24590680003166,None,None,346.24590680003166,None,347.0513739400427,None,,,,22006,0001,2022_Apr_05_1057,localizer,2021.1.3,60.02361330856245,
block,scenes,scenes015.bmp,,,,,0,11,11,11,,,,,,,,,,,,,,,,,,,,,,,,,,,,,,,,,,,,,,,,,,None,,347.0513739400427,None,347.0513739400427,None,2022-04-05-11:03:02.619036,347.0635341000161,347.3744076000294,347.0635341000161,None,None,347.0635341000161,None,347.8687429400394,None,,,,22006,0001,2022_Apr_05_1057,localizer,2021.1.3,60.02361330856245,
block,scenes,scenes042.bmp,,,,,0,12,12,12,,,,,,,,,,,,,,,,,,,,,,,,,,,,,,,,,,,,,,,,,,None,,347.8687429400394,None,347.8687429400394,None,2022-04-05-11:03:03.437392,347.8778957000468,348.1847723000101,347.8778957000468,None,None,347.8778957000468,None,348.6844162400463,None,,,,22006,0001,2022_Apr_05_1057,localizer,2021.1.3,60.02361330856245,
block,scenes,scenes021.bmp,,,,,0,13,13,13,,,,,,,,,,,,,,,,,,,,,,,,,,,,,,,,,,,,,,,,,,None,,348.6844162400463,None,348.6844162400463,None,2022-04-05-11:03:04.251411,348.69580420001876,349.00127619999694,348.69580420001876,None,None,348.69580420001876,None,349.5010151399998,None,,,,22006,0001,2022_Apr_05_1057,localizer,2021.1.3,60.02361330856245,
block_end,scenes,scenes077.bmp,,,,,0,14,14,14,,,,,,,,,,,,,,,,,,,,,,,,,,,,,,,,,,,,,,,,,,None,,349.5010151399998,None,349.5010151399998,None,2022-04-05-11:03:05.067667,349.5114509999985,349.8183328000014,349.5114509999985,None,None,349.5114509999985,None,350.3180266400101,None,,,,22006,0001,2022_Apr_05_1057,localizer,2021.1.3,60.02361330856245,
block_start,objects,objects032.bmp,,,,,0,15,15,15,,,,,,,,,,,,,,,,,,,,,,,,,,,,,,,,,,,,,,,,,,t,1.7298404999892227,350.31832100002794,None,350.31832100002794,None,2022-04-05-11:03:07.634798,352.078206300037,352.3847804000252,352.078206300037,None,None,352.078206300037,None,352.88426504001256,None,,,,22006,0001,2022_Apr_05_1057,localizer,2021.1.3,60.02361330856245,
block,objects,objects082.bmp,,,,,0,16,16,16,,,,,,,,,,,,,,,,,,,,,,,,,,,,,,,,,,,,,,,,,,None,,352.88426504001256,None,352.88426504001256,None,2022-04-05-11:03:08.450960,352.89565170003334,353.20125189999817,352.89565170003334,None,None,352.89565170003334,None,353.70119164001665,None,,,,22006,0001,2022_Apr_05_1057,localizer,2021.1.3,60.02361330856245,
block,objects,objects052.bmp,,,,,0,17,17,17,,,,,,,,,,,,,,,,,,,,,,,,,,,,,,,,,,,,,,,,,,None,,353.70119164001665,None,353.70119164001665,None,2022-04-05-11:03:09.267859,353.7126572999987,354.01818830001866,353.7126572999987,None,None,353.7126572999987,None,354.51734614002055,None,,,,22006,0001,2022_Apr_05_1057,localizer,2021.1.3,60.02361330856245,
block,objects,objects050.bmp,,,,,0,18,18,18,,,,,,,,,,,,,,,,,,,,,,,,,,,,,,,,,,,,,,,,,,None,,354.51734614002055,None,354.51734614002055,None,2022-04-05-11:03:10.083784,354.52076790004503,354.8347777000163,354.52076790004503,None,None,354.52076790004503,None,355.3354772399995,None,,,,22006,0001,2022_Apr_05_1057,localizer,2021.1.3,60.02361330856245,
block,objects,objects078.bmp,,,,,0,19,19,19,,,,,,,,,,,,,,,,,,,,,,,,,,,,,,,,,,,,,,,,,,None,,355.3354772399995,None,355.3354772399995,None,2022-04-05-11:03:10.904129,355.34928840002976,355.651663800003,355.34928840002976,None,None,355.34928840002976,None,356.1507809400442,None,,,,22006,0001,2022_Apr_05_1057,localizer,2021.1.3,60.02361330856245,
block,objects,objects037.bmp,,,,,0,20,20,20,,,,,,,,,,,,,,,,,,,,,,,,,,,,,,,,,,,,,,,,,,None,,356.1507809400442,None,356.1507809400442,None,2022-04-05-11:03:11.717455,356.15952380001545,356.46891930000857,356.15952380001545,None,None,356.15952380001545,None,356.96846654000694,None,,,,22006,0001,2022_Apr_05_1057,localizer,2021.1.3,60.02361330856245,
block,objects,objects030.bmp,,,,,0,21,21,21,,,,,,,,,,,,,,,,,,,,,,,,,,,,,,,,,,,,,,,,,,None,,356.96846654000694,None,356.96846654000694,None,2022-04-05-11:03:12.536145,356.98049170000013,357.28482080000686,356.98049170000013,None,None,356.98049170000013,None,357.7844824400032,None,,,,22006,0001,2022_Apr_05_1057,localizer,2021.1.3,60.02361330856245,
block,objects,objects045.bmp,,,,,0,22,22,22,,,,,,,,,,,,,,,,,,,,,,,,,,,,,,,,,,,,,,,,,,None,,357.7844824400032,None,357.7844824400032,None,2022-04-05-11:03:13.351133,357.7959475000389,358.10156989999814,357.7959475000389,None,None,357.7959475000389,None,358.60130853999874,None,,,,22006,0001,2022_Apr_05_1057,localizer,2021.1.3,60.02361330856245,
block,objects,objects084.bmp,,,,,0,23,23,23,,,,,,,,,,,,,,,,,,,,,,,,,,,,,,,,,,,,,,,,,,None,,358.60130853999874,None,358.60130853999874,None,2022-04-05-11:03:14.168973,358.6090056000394,358.91814900003374,358.6090056000394,None,None,358.6090056000394,None,359.41793314003155,None,,,,22006,0001,2022_Apr_05_1057,localizer,2021.1.3,60.02361330856245,
block,objects,objects054.bmp,,,,,0,24,24,24,,,,,,,,,,,,,,,,,,,,,,,,,,,,,,,,,,,,,,,,,,None,,359.41793314003155,None,359.41793314003155,None,2022-04-05-11:03:14.984813,359.42802040005336,359.7347401000443,359.42802040005336,None,None,359.42802040005336,None,360.2345040400047,None,,,,22006,0001,2022_Apr_05_1057,localizer,2021.1.3,60.02361330856245,
block,objects,objects001.bmp,,,,,0,25,25,25,,,,,,,,,,,,,,,,,,,,,,,,,,,,,,,,,,,,,,,,,,None,,360.2345040400047,None,360.2345040400047,None,2022-04-05-11:03:15.801368,360.24488950002706,360.551297100028,360.24488950002706,None,None,360.24488950002706,None,361.0515167400241,None,,,,22006,0001,2022_Apr_05_1057,localizer,2021.1.3,60.02361330856245,
block,objects,objects046.bmp,,,,,0,26,26,26,,,,,,,,,,,,,,,,,,,,,,,,,,,,,,,,,,,,,,,,,,None,,361.0515167400241,None,361.0515167400241,None,2022-04-05-11:03:16.619179,361.0626092000166,361.368528800027,361.0626092000166,None,None,361.0626092000166,None,361.86781084004326,None,,,,22006,0001,2022_Apr_05_1057,localizer,2021.1.3,60.02361330856245,
block,objects,objects031.bmp,,,,,0,27,27,27,,,,,,,,,,,,,,,,,,,,,,,,,,,,,,,,,,,,,,,,,,None,,361.86781084004326,None,361.86781084004326,None,2022-04-05-11:03:17.434526,361.8743347999989,362.18546220002463,361.8743347999989,None,None,361.8743347999989,None,362.68454723999605,None,,,,22006,0001,2022_Apr_05_1057,localizer,2021.1.3,60.02361330856245,
block,objects,objects019.bmp,,,,,0,28,28,28,,,,,,,,,,,,,,,,,,,,,,,,,,,,,,,,,,,,,,,,,,None,,362.68454723999605,None,362.68454723999605,None,2022-04-05-11:03:18.251217,362.6959868000122,363.00156000000425,362.6959868000122,None,None,362.6959868000122,None,363.501287440036,None,,,,22006,0001,2022_Apr_05_1057,localizer,2021.1.3,60.02361330856245,
block_end,objects,objects070.bmp,,,,,0,29,29,29,,,,,,,,,,,,,,,,,,,,,,,,,,,,,,,,,,,,,,,,,,None,,363.501287440036,None,363.501287440036,None,2022-04-05-11:03:19.068148,363.5125738000497,363.81830110005103,363.5125738000497,None,None,363.5125738000497,None,364.319371240004,None,,,,22006,0001,2022_Apr_05_1057,localizer,2021.1.3,60.02361330856245,
block_start,faces,faces015.bmp,,,,,0,30,30,30,,,,,,,,,,,,,,,,,,,,,,,,,,,,,,,,,,,,,,,,,,t,1.7285546000348404,364.3196244999999,None,364.3196244999999,None,2022-04-05-11:03:21.634027,366.08465670002624,366.3849589000456,366.08465670002624,None,None,366.08465670002624,None,366.8856778400019,None,,,,22006,0001,2022_Apr_05_1057,localizer,2021.1.3,60.02361330856245,
block,faces,faces023.bmp,,,,,0,31,31,31,,,,,,,,,,,,,,,,,,,,,,,,,,,,,,,,,,,,,,,,,,None,,366.8856778400019,None,366.8856778400019,None,2022-04-05-11:03:22.453330,366.8984681000002,367.201308800024,366.8984681000002,None,None,366.8984681000002,None,367.70097174003024,None,,,,22006,0001,2022_Apr_05_1057,localizer,2021.1.3,60.02361330856245,
block,faces,faces034.bmp,,,,,0,32,32,32,,,,,,,,,,,,,,,,,,,,,,,,,,,,,,,,,,,,,,,,,,None,,367.70097174003024,None,367.70097174003024,None,2022-04-05-11:03:23.267647,367.7117386000464,368.01760800002376,367.7117386000464,None,None,367.7117386000464,None,368.51749574005373,None,,,,22006,0001,2022_Apr_05_1057,localizer,2021.1.3,60.02361330856245,
block,faces,faces053.bmp,,,,,0,33,33,33,,,,,,,,,,,,,,,,,,,,,,,,,,,,,,,,,,,,,,,,,,None,,368.51749574005373,None,368.51749574005373,None,2022-04-05-11:03:24.084174,368.5268080000533,368.8347486000275,368.5268080000533,None,None,368.5268080000533,None,369.3345758400043,None,,,,22006,0001,2022_Apr_05_1057,localizer,2021.1.3,60.02361330856245,
block,faces,faces046.bmp,,,,,0,34,34,34,,,,,,,,,,,,,,,,,,,,,,,,,,,,,,,,,,,,,,,,,,None,,369.3345758400043,None,369.3345758400043,None,2022-04-05-11:03:24.901935,369.34264170000097,369.65135920001194,369.34264170000097,None,None,369.34264170000097,None,370.15172394000695,None,,,,22006,0001,2022_Apr_05_1057,localizer,2021.1.3,60.02361330856245,
block,faces,faces006.bmp,,,,,0,35,35,35,,,,,,,,,,,,,,,,,,,,,,,,,,,,,,,,,,,,,,,,,,None,,370.15172394000695,None,370.15172394000695,None,2022-04-05-11:03:25.719385,370.16469580004923,370.4681588000385,370.16469580004923,None,None,370.16469580004923,None,370.96825464002325,None,,,,22006,0001,2022_Apr_05_1057,localizer,2021.1.3,60.02361330856245,
block,faces,faces082.bmp,,,,,0,36,36,36,,,,,,,,,,,,,,,,,,,,,,,,,,,,,,,,,,,,,,,,,,None,,370.96825464002325,None,370.96825464002325,None,2022-04-05-11:03:26.535956,370.98140760004753,371.28513780003414,370.98140760004753,None,None,370.98140760004753,None,371.7850134400302,None,,,,22006,0001,2022_Apr_05_1057,localizer,2021.1.3,60.02361330856245,
block,faces,faces011.bmp,,,,,0,37,37,37,,,,,,,,,,,,,,,,,,,,,,,,,,,,,,,,,,,,,,,,,,None,,371.7850134400302,None,371.7850134400302,None,2022-04-05-11:03:27.353670,371.79822029999923,372.10150310001336,371.79822029999923,None,None,371.79822029999923,None,372.60134884001457,None,,,,22006,0001,2022_Apr_05_1057,localizer,2021.1.3,60.02361330856245,
block,faces,faces062.bmp,,,,,0,38,38,38,,,,,,,,,,,,,,,,,,,,,,,,,,,,,,,,,,,,,,,,,,None,,372.60134884001457,None,372.60134884001457,None,2022-04-05-11:03:28.168018,372.6127035000245,372.9180355000426,372.6127035000245,None,None,372.6127035000245,None,373.4190993400058,None,,,,22006,0001,2022_Apr_05_1057,localizer,2021.1.3,60.02361330856245,
block,faces,faces014.bmp,,,,,0,39,39,39,,,,,,,,,,,,,,,,,,,,,,,,,,,,,,,,,,,,,,,,,,None,,373.4190993400058,None,373.4190993400058,None,2022-04-05-11:03:28.987831,373.43375820002984,373.73460510000587,373.43375820002984,None,None,373.43375820002984,None,374.2346797400038,None,,,,22006,0001,2022_Apr_05_1057,localizer,2021.1.3,60.02361330856245,
block,faces,faces052.bmp,,,,,0,40,40,40,,,,,,,,,,,,,,,,,,,,,,,,,,,,,,,,,,,,,,,,,,None,,374.2346797400038,None,374.2346797400038,None,2022-04-05-11:03:29.800097,374.24355910002487,374.55158010002924,374.24355910002487,None,None,374.24355910002487,None,375.0513455400011,None,,,,22006,0001,2022_Apr_05_1057,localizer,2021.1.3,60.02361330856245,
block,faces,faces078.bmp,,,,,0,41,41,41,,,,,,,,,,,,,,,,,,,,,,,,,,,,,,,,,,,,,,,,,,None,,375.0513455400011,None,375.0513455400011,None,2022-04-05-11:03:30.617781,375.0629631000338,375.3684441000223,375.0629631000338,None,None,375.0629631000338,None,375.868464540015,None,,,,22006,0001,2022_Apr_05_1057,localizer,2021.1.3,60.02361330856245,
block,faces,faces065.bmp,,,,,0,42,42,42,,,,,,,,,,,,,,,,,,,,,,,,,,,,,,,,,,,,,,,,,,None,,375.868464540015,None,375.868464540015,None,2022-04-05-11:03:31.436669,375.8872551000095,376.2018875000067,375.8872551000095,None,None,375.8872551000095,None,376.6857522400329,None,,,,22006,0001,2022_Apr_05_1057,localizer,2021.1.3,60.02361330856245,
block,faces,faces028.bmp,,,,,0,43,43,43,,,,,,,,,,,,,,,,,,,,,,,,,,,,,,,,,,,,,,,,,,None,,376.6857522400329,None,376.6857522400329,None,2022-04-05-11:03:32.255157,376.7012257000315,377.0017009000294,376.7012257000315,None,None,376.7012257000315,None,377.50156974003187,None,,,,22006,0001,2022_Apr_05_1057,localizer,2021.1.3,60.02361330856245,
block_end,faces,faces028.bmp,,,,,0,44,44,44,,,,,,,,,,,,,,,,,,,,,,,,,,,,,,,,,,,,,,,,,,None,,377.50156974003187,None,377.50156974003187,None,2022-04-05-11:03:33.068115,377.50270100001944,377.8182623000466,377.50270100001944,None,None,377.50270100001944,None,378.3179586400162,None,,,,22006,0001,2022_Apr_05_1057,localizer,2021.1.3,60.02361330856245,
null_block,null_block,null_block.bmp,,,,,0,45,45,45,,,,,,,,,,,,,,,,,,,,,,,,,,,,,,,,,,,,,,,,,,t,1.729876100027468,378.3182414000039,None,378.3182414000039,None,2022-04-05-11:03:35.634829,380.084432180028,None,380.084432180028,None,None,380.084432180028,None,380.0852001000312,None,,,,22006,0001,2022_Apr_05_1057,localizer,2021.1.3,60.02361330856245,
block_start,scrambled,scrambled005.bmp,,,,,0,46,46,46,,,,,,,,,,,,,,,,,,,,,,,,,,,,,,,,,,,,,,,,,,t,1.9636015999712981,392.084860700008,None,392.084860700008,None,2022-04-05-11:03:49.647370,394.0911002000212,394.4015253999969,394.0911002000212,None,None,394.0911002000212,None,394.885720540036,None,,,,22006,0001,2022_Apr_05_1057,localizer,2021.1.3,60.02361330856245,
block,scrambled,scrambled017.bmp,,,,,0,47,47,47,,,,,,,,,,,,,,,,,,,,,,,,,,,,,,,,,,,,,,,,,,None,,394.885720540036,None,394.885720540036,None,2022-04-05-11:03:50.454116,394.8995565000223,395.2016940000467,394.8995565000223,None,None,394.8995565000223,None,395.70184774000666,None,,,,22006,0001,2022_Apr_05_1057,localizer,2021.1.3,60.02361330856245,
block,scrambled,scrambled076.bmp,,,,,0,48,48,48,,,,,,,,,,,,,,,,,,,,,,,,,,,,,,,,,,,,,,,,,,None,,395.70184774000666,None,395.70184774000666,None,2022-04-05-11:03:51.269684,395.71397410001373,396.018434800033,395.71397410001373,None,None,395.71397410001373,None,396.5199545400334,None,,,,22006,0001,2022_Apr_05_1057,localizer,2021.1.3,60.02361330856245,
block,scrambled,scrambled036.bmp,,,,,0,49,49,49,,,,,,,,,,,,,,,,,,,,,,,,,,,,,,,,,,,,,,,,,,None,,396.5199545400334,None,396.5199545400334,None,2022-04-05-11:03:52.091686,396.5360064000124,396.83558830001857,396.5360064000124,None,None,396.5360064000124,None,397.3351703400491,None,,,,22006,0001,2022_Apr_05_1057,localizer,2021.1.3,60.02361330856245,
block,scrambled,scrambled038.bmp,,,,,0,50,50,50,,,,,,,,,,,,,,,,,,,,,,,,,,,,,,,,,,,,,,,,,,None,,397.3351703400491,None,397.3351703400491,None,2022-04-05-11:03:52.903022,397.3483755000052,397.65173490002053,397.3483755000052,None,None,397.3483755000052,None,398.1511735400069,None,,,,22006,0001,2022_Apr_05_1057,localizer,2021.1.3,60.02361330856245,
block,scrambled,scrambled081.bmp,,,,,0,51,51,51,,,,,,,,,,,,,,,,,,,,,,,,,,,,,,,,,,,,,,,,,,None,,398.1511735400069,None,398.1511735400069,None,2022-04-05-11:03:53.717944,398.16208960005315,398.46840910002356,398.16208960005315,None,None,398.16208960005315,None,398.9683758400148,None,,,,22006,0001,2022_Apr_05_1057,localizer,2021.1.3,60.02361330856245,
block,scrambled,scrambled074.bmp,,,,,0,52,52,52,,,,,,,,,,,,,,,,,,,,,,,,,,,,,,,,,,,,,,,,,,None,,398.9683758400148,None,398.9683758400148,None,2022-04-05-11:03:54.536041,398.97952450002776,399.28515950002475,398.97952450002776,None,None,398.97952450002776,None,399.78501874001233,None,,,,22006,0001,2022_Apr_05_1057,localizer,2021.1.3,60.02361330856245,
block,scrambled,scrambled088.bmp,,,,,0,53,53,53,,,,,,,,,,,,,,,,,,,,,,,,,,,,,,,,,,,,,,,,,,None,,399.78501874001233,None,399.78501874001233,None,2022-04-05-11:03:55.352888,399.79734109999845,400.10223690001294,399.79734109999845,None,None,399.79734109999845,None,400.60191544002157,None,,,,22006,0001,2022_Apr_05_1057,localizer,2021.1.3,60.02361330856245,
block,scrambled,scrambled064.bmp,,,,,0,54,54,54,,,,,,,,,,,,,,,,,,,,,,,,,,,,,,,,,,,,,,,,,,None,,400.60191544002157,None,400.60191544002157,None,2022-04-05-11:03:56.169601,400.6140607999987,400.91840710002,400.6140607999987,None,None,400.6140607999987,None,401.4181635400397,None,,,,22006,0001,2022_Apr_05_1057,localizer,2021.1.3,60.02361330856245,
block,scrambled,scrambled007.bmp,,,,,0,55,55,55,,,,,,,,,,,,,,,,,,,,,,,,,,,,,,,,,,,,,,,,,,None,,401.4181635400397,None,401.4181635400397,None,2022-04-05-11:03:56.984833,401.4296368000214,401.7351321000024,401.4296368000214,None,None,401.4296368000214,None,402.2353705400252,None,,,,22006,0001,2022_Apr_05_1057,localizer,2021.1.3,60.02361330856245,
block,scrambled,scrambled035.bmp,,,,,0,56,56,56,,,,,,,,,,,,,,,,,,,,,,,,,,,,,,,,,,,,,,,,,,None,,402.2353705400252,None,402.2353705400252,None,2022-04-05-11:03:57.803056,402.2474350000266,402.5516845000093,402.2474350000266,None,None,402.2474350000266,None,403.0409292400233,None,,,,22006,0001,2022_Apr_05_1057,localizer,2021.1.3,60.02361330856245,
block,scrambled,scrambled083.bmp,,,,,0,57,57,57,,,,,,,,,,,,,,,,,,,,,,,,,,,,,,,,,,,,,,,,,,None,,403.0409292400233,None,403.0409292400233,None,2022-04-05-11:03:58.615572,403.05774600000586,403.3685808000155,403.05774600000586,None,None,403.05774600000586,None,403.85151084002575,None,,,,22006,0001,2022_Apr_05_1057,localizer,2021.1.3,60.02361330856245,
block,scrambled,scrambled066.bmp,,,,,0,58,58,58,,,,,,,,,,,,,,,,,,,,,,,,,,,,,,,,,,,,,,,,,,None,,403.85151084002575,None,403.85151084002575,None,2022-04-05-11:03:59.418205,403.8619930000277,404.16851300001144,403.8619930000277,None,None,403.8619930000277,None,404.67410584000174,None,,,,22006,0001,2022_Apr_05_1057,localizer,2021.1.3,60.02361330856245,
block,scrambled,scrambled030.bmp,,,,,0,59,59,59,,,,,,,,,,,,,,,,,,,,,,,,,,,,,,,,,,,,,,,,,,None,,404.67410584000174,None,404.67410584000174,None,2022-04-05-11:04:00.248658,404.6940251000342,405.00192460004473,404.6940251000342,None,None,404.6940251000342,None,405.485499940021,None,,,,22006,0001,2022_Apr_05_1057,localizer,2021.1.3,60.02361330856245,
block_end,scrambled,scrambled019.bmp,,,,,0,60,60,60,,,,,,,,,,,,,,,,,,,,,,,,,,,,,,,,,,,,,,,,,,None,,405.485499940021,None,405.485499940021,None,2022-04-05-11:04:01.054343,405.4990068000043,405.8017412000336,405.4990068000043,None,None,405.4990068000043,None,406.30153014000973,None,,,,22006,0001,2022_Apr_05_1057,localizer,2021.1.3,60.02361330856245,
null_block,null_block,null_block.bmp,,,,,0,61,61,61,,,,,,,,,,,,,,,,,,,,,,,,,,,,,,,,,,,,,,,,,,t,1.7462103000143543,406.3018976000021,None,406.3018976000021,None,2022-04-05-11:04:03.635797,408.06815224003515,None,408.06815224003515,None,None,408.06815224003515,None,408.07427989999996,None,,,,22006,0001,2022_Apr_05_1057,localizer,2021.1.3,60.02361330856245,
block_start,scenes,scenes042.bmp,,,,,0,62,62,62,,,,,,,,,,,,,,,,,,,,,,,,,,,,,,,,,,,,,,,,,,t,1.9632820999831893,420.08476090000477,None,420.08476090000477,None,2022-04-05-11:04:17.635729,422.07022410002537,422.3852326000342,422.07022410002537,None,None,422.07022410002537,None,422.88512514004253,None,,,,22006,0001,2022_Apr_05_1057,localizer,2021.1.3,60.02361330856245,
block,scenes,scenes050.bmp,,,,,0,63,63,63,,,,,,,,,,,,,,,,,,,,,,,,,,,,,,,,,,,,,,,,,,None,,422.88512514004253,None,422.88512514004253,None,2022-04-05-11:04:18.452788,422.89678260002984,423.20150630001444,422.89678260002984,None,None,422.89678260002984,None,423.7013945400482,None,,,,22006,0001,2022_Apr_05_1057,localizer,2021.1.3,60.02361330856245,
block,scenes,scenes037.bmp,,,,,0,64,64,64,,,,,,,,,,,,,,,,,,,,,,,,,,,,,,,,,,,,,,,,,,None,,423.7013945400482,None,423.7013945400482,None,2022-04-05-11:04:19.268068,423.7028844000306,424.0184863000177,423.7028844000306,None,None,423.7028844000306,None,424.5181900400436,None,,,,22006,0001,2022_Apr_05_1057,localizer,2021.1.3,60.02361330856245,
block,scenes,scenes078.bmp,,,,,0,65,65,65,,,,,,,,,,,,,,,,,,,,,,,,,,,,,,,,,,,,,,,,,,None,,424.5181900400436,None,424.5181900400436,None,2022-04-05-11:04:20.084860,424.5295091000153,424.83515290002106,424.5295091000153,None,None,424.5295091000153,None,425.3354285400361,None,,,,22006,0001,2022_Apr_05_1057,localizer,2021.1.3,60.02361330856245,
block,scenes,scenes076.bmp,,,,,0,66,66,66,,,,,,,,,,,,,,,,,,,,,,,,,,,,,,,,,,,,,,,,,,None,,425.3354285400361,None,425.3354285400361,None,2022-04-05-11:04:20.902995,425.34748039999977,425.6519358000369,425.34748039999977,None,None,425.34748039999977,None,426.1515667400323,None,,,,22006,0001,2022_Apr_05_1057,localizer,2021.1.3,60.02361330856245,
block,scenes,scenes080.bmp,,,,,0,67,67,67,,,,,,,,,,,,,,,,,,,,,,,,,,,,,,,,,,,,,,,,,,None,,426.1515667400323,None,426.1515667400323,None,2022-04-05-11:04:21.718238,426.16231800004607,426.4687686000252,426.16231800004607,None,None,426.16231800004607,None,426.968219540047,None,,,,22006,0001,2022_Apr_05_1057,localizer,2021.1.3,60.02361330856245,
block,scenes,scenes087.bmp,,,,,0,68,68,68,,,,,,,,,,,,,,,,,,,,,,,,,,,,,,,,,,,,,,,,,,None,,426.968219540047,None,426.968219540047,None,2022-04-05-11:04:22.534889,426.97989529999904,427.28506840002956,426.97989529999904,None,None,426.97989529999904,None,427.7849054400227,None,,,,22006,0001,2022_Apr_05_1057,localizer,2021.1.3,60.02361330856245,
block,scenes,scenes062.bmp,,,,,0,69,69,69,,,,,,,,,,,,,,,,,,,,,,,,,,,,,,,,,,,,,,,,,,None,,427.7849054400227,None,427.7849054400227,None,2022-04-05-11:04:23.351575,427.79727150005056,428.10178280004766,427.79727150005056,None,None,427.79727150005056,None,428.6010457400349,None,,,,22006,0001,2022_Apr_05_1057,localizer,2021.1.3,60.02361330856245,
block,scenes,scenes058.bmp,,,,,0,70,70,70,,,,,,,,,,,,,,,,,,,,,,,,,,,,,,,,,,,,,,,,,,None,,428.6010457400349,None,428.6010457400349,None,2022-04-05-11:04:24.167720,428.6058975000051,428.91850470000645,428.6058975000051,None,None,428.6058975000051,None,429.4182007400319,None,,,,22006,0001,2022_Apr_05_1057,localizer,2021.1.3,60.02361330856245,
block,scenes,scenes068.bmp,,,,,0,71,71,71,,,,,,,,,,,,,,,,,,,,,,,,,,,,,,,,,,,,,,,,,,None,,429.4182007400319,None,429.4182007400319,None,2022-04-05-11:04:24.984863,429.4246242000372,429.7351959000225,429.4246242000372,None,None,429.4246242000372,None,430.2349687400507,None,,,,22006,0001,2022_Apr_05_1057,localizer,2021.1.3,60.02361330856245,
block,scenes,scenes008.bmp,,,,,0,72,72,72,,,,,,,,,,,,,,,,,,,,,,,,,,,,,,,,,,,,,,,,,,None,,430.2349687400507,None,430.2349687400507,None,2022-04-05-11:04:25.801845,430.24656759999925,430.5519830000121,430.24656759999925,None,None,430.24656759999925,None,431.0513139400515,None,,,,22006,0001,2022_Apr_05_1057,localizer,2021.1.3,60.02361330856245,
block,scenes,scenes004.bmp,,,,,0,73,73,73,,,,,,,,,,,,,,,,,,,,,,,,,,,,,,,,,,,,,,,,,,None,,431.0513139400515,None,431.0513139400515,None,2022-04-05-11:04:26.616685,431.0653325000312,431.36914980004076,431.0653325000312,None,None,431.0653325000312,None,431.87014174003855,None,,,,22006,0001,2022_Apr_05_1057,localizer,2021.1.3,60.02361330856245,
block,scenes,scenes057.bmp,,,,,0,74,74,74,,,,,,,,,,,,,,,,,,,,,,,,,,,,,,,,,,,,,,,,,,None,,431.87014174003855,None,431.87014174003855,None,2022-04-05-11:04:27.440810,431.8747778000543,432.1854827000061,431.8747778000543,None,None,431.8747778000543,None,432.68477804000725,None,,,,22006,0001,2022_Apr_05_1057,localizer,2021.1.3,60.02361330856245,
block,scenes,scenes012.bmp,,,,,0,75,75,75,,,,,,,,,,,,,,,,,,,,,,,,,,,,,,,,,,,,,,,,,,None,,432.68477804000725,None,432.68477804000725,None,2022-04-05-11:04:28.251452,432.6953730000532,433.0018408000469,432.6953730000532,None,None,432.6953730000532,None,433.50527634002503,None,,,,22006,0001,2022_Apr_05_1057,localizer,2021.1.3,60.02361330856245,
block_end,scenes,scenes021.bmp,,,,,0,76,76,76,,,,,,,,,,,,,,,,,,,,,,,,,,,,,,,,,,,,,,,,,,None,,433.50527634002503,None,433.50527634002503,None,2022-04-05-11:04:29.079914,433.51518090005266,433.81904200004647,433.51518090005266,None,None,433.51518090005266,None,434.31828264003855,None,,,,22006,0001,2022_Apr_05_1057,localizer,2021.1.3,60.02361330856245,
block_start,scrambled,scrambled040.bmp,,,,,0,77,77,77,,,,,,,,,,,,,,,,,,,,,,,,,,,,,,,,,,,,,,,,,,t,1.7293882999802008,434.3186574000283,None,434.3186574000283,None,2022-04-05-11:04:31.633695,436.0778414000524,436.38555880001513,436.0778414000524,None,None,436.0778414000524,None,436.8849467400229,None,,,,22006,0001,2022_Apr_05_1057,localizer,2021.1.3,60.02361330856245,
block,scrambled,scrambled021.bmp,,,,,0,78,78,78,,,,,,,,,,,,,,,,,,,,,,,,,,,,,,,,,,,,,,,,,,None,,436.8849467400229,None,436.8849467400229,None,2022-04-05-11:04:32.452471,436.89745730004506,437.2018013000488,436.89745730004506,None,None,436.89745730004506,None,437.7015821400215,None,,,,22006,0001,2022_Apr_05_1057,localizer,2021.1.3,60.02361330856245,
block,scrambled,scrambled063.bmp,,,,,0,79,79,79,,,,,,,,,,,,,,,,,,,,,,,,,,,,,,,,,,,,,,,,,,None,,437.7015821400215,None,437.7015821400215,None,2022-04-05-11:04:33.268567,437.71299810003256,438.0185535000055,437.71299810003256,None,None,437.71299810003256,None,438.50782914002195,None,,,,22006,0001,2022_Apr_05_1057,localizer,2021.1.3,60.02361330856245,
block,scrambled,scrambled014.bmp,,,,,0,80,80,80,,,,,,,,,,,,,,,,,,,,,,,,,,,,,,,,,,,,,,,,,,None,,438.50782914002195,None,438.50782914002195,None,2022-04-05-11:04:34.082296,438.524433100014,438.8355284000281,438.524433100014,None,None,438.524433100014,None,439.31820634003964,None,,,,22006,0001,2022_Apr_05_1057,localizer,2021.1.3,60.02361330856245,
block,scrambled,scrambled066.bmp,,,,,0,81,81,81,,,,,,,,,,,,,,,,,,,,,,,,,,,,,,,,,,,,,,,,,,None,,439.31820634003964,None,439.31820634003964,None,2022-04-05-11:04:34.884879,439.31935220002197,439.63528919999953,439.31935220002197,None,None,439.31935220002197,None,440.12176443999635,None,,,,22006,0001,2022_Apr_05_1057,localizer,2021.1.3,60.02361330856245,
block,scrambled,scrambled015.bmp,,,,,0,82,82,82,,,,,,,,,,,,,,,,,,,,,,,,,,,,,,,,,,,,,,,,,,None,,440.12176443999635,None,440.12176443999635,None,2022-04-05-11:04:35.697462,440.14270920003764,440.452277400007,440.14270920003764,440.14270920003764,None,440.14270920003764,440.14270920003764,440.9348713400192,None,,,,22006,0001,2022_Apr_05_1057,localizer,2021.1.3,60.02361330856245,
block,scrambled,scrambled068.bmp,,,,,0,83,83,83,,,,,,,,,,,,,,,,,,,,,,,,,,,,,,,,,,,,,,,,,,None,,440.9348713400192,None,440.9348713400192,None,2022-04-05-11:04:36.501544,440.9455114000011,441.25198330002604,440.9455114000011,None,None,440.9455114000011,None,441.75139644005105,None,,,,22006,0001,2022_Apr_05_1057,localizer,2021.1.3,60.02361330856245,
block,scrambled,scrambled039.bmp,,,,,0,84,84,84,,,,,,,,,,,,,,,,,,,,,,,,,,,,,,,,,,,,,,,,,,None,,441.75139644005105,None,441.75139644005105,None,2022-04-05-11:04:37.318071,441.7609066000441,442.0691177000408,441.7609066000441,None,None,441.7609066000441,None,442.56823434002,None,,,,22006,0001,2022_Apr_05_1057,localizer,2021.1.3,60.02361330856245,
block,scrambled,scrambled004.bmp,,,,,0,85,85,85,,,,,,,,,,,,,,,,,,,,,,,,,,,,,,,,,,,,,,,,,,None,,442.56823434002,None,442.56823434002,None,2022-04-05-11:04:38.134960,442.578710300033,442.8848815000383,442.578710300033,None,None,442.578710300033,None,443.38450904000786,None,,,,22006,0001,2022_Apr_05_1057,localizer,2021.1.3,60.02361330856245,
block,scrambled,scrambled004.bmp,,,,,0,86,86,86,,,,,,,,,,,,,,,,,,,,,,,,,,,,,,,,,,,,,,,,,,None,,443.38450904000786,None,443.38450904000786,None,2022-04-05-11:04:38.951188,443.38602320000064,443.7019967000233,443.38602320000064,None,y,443.38602320000064,None,444.20112364002273,None,0.5998738000052981,,,22006,0001,2022_Apr_05_1057,localizer,2021.1.3,60.02361330856245,
block,scrambled,scrambled064.bmp,,,,,0,87,87,87,,,,,,,,,,,,,,,,,,,,,,,,,,,,,,,,,,,,,,,,,,None,,444.20112364002273,None,444.20112364002273,None,2022-04-05-11:04:39.767800,444.20299810002325,444.5082634999999,444.20299810002325,None,None,444.20299810002325,None,445.0185323400307,None,,,,22006,0001,2022_Apr_05_1057,localizer,2021.1.3,60.02361330856245,
block,scrambled,scrambled011.bmp,,,,,0,88,88,88,,,,,,,,,,,,,,,,,,,,,,,,,,,,,,,,,,,,,,,,,,None,,445.0185323400307,None,445.0185323400307,None,2022-04-05-11:04:40.586172,445.02992600004654,445.33530090004206,445.02992600004654,None,None,445.02992600004654,None,445.8349970400101,None,,,,22006,0001,2022_Apr_05_1057,localizer,2021.1.3,60.02361330856245,
block,scrambled,scrambled070.bmp,,,,,0,89,89,89,,,,,,,,,,,,,,,,,,,,,,,,,,,,,,,,,,,,,,,,,,None,,445.8349970400101,None,445.8349970400101,None,2022-04-05-11:04:41.401668,445.8464385000407,446.1516429000185,445.8464385000407,None,None,445.8464385000407,None,446.6514839400421,None,,,,22006,0001,2022_Apr_05_1057,localizer,2021.1.3,60.02361330856245,
block,scrambled,scrambled012.bmp,,,,,0,90,90,90,,,,,,,,,,,,,,,,,,,,,,,,,,,,,,,,,,,,,,,,,,None,,446.6514839400421,None,446.6514839400421,None,2022-04-05-11:04:42.218488,446.66208000003826,446.9688405000488,446.66208000003826,None,None,446.66208000003826,None,447.4685249400442,None,,,,22006,0001,2022_Apr_05_1057,localizer,2021.1.3,60.02361330856245,
block_end,scrambled,scrambled054.bmp,,,,,0,91,91,91,,,,,,,,,,,,,,,,,,,,,,,,,,,,,,,,,,,,,,,,,,None,,447.4685249400442,None,447.4685249400442,None,2022-04-05-11:04:43.036191,447.4797409000457,447.7852895000251,447.4797409000457,None,None,447.4797409000457,None,448.2849018400535,None,,,,22006,0001,2022_Apr_05_1057,localizer,2021.1.3,60.02361330856245,
block_start,faces,faces036.bmp,,,,,0,92,92,92,,,,,,,,,,,,,,,,,,,,,,,,,,,,,,,,,,,,,,,,,,t,1.7631716000032611,448.28528599999845,None,448.28528599999845,None,2022-04-05-11:04:45.646398,450.09149449999677,450.40192840003874,450.09149449999677,None,None,450.09149449999677,None,450.88518694004745,None,,,,22006,0001,2022_Apr_05_1057,localizer,2021.1.3,60.02361330856245,
block,faces,faces010.bmp,,,,,0,93,93,93,,,,,,,,,,,,,,,,,,,,,,,,,,,,,,,,,,,,,,,,,,None,,450.88518694004745,None,450.88518694004745,None,2022-04-05-11:04:46.452099,450.8979392000474,451.2019644000102,450.8979392000474,None,None,450.8979392000474,None,451.70155284003124,None,,,,22006,0001,2022_Apr_05_1057,localizer,2021.1.3,60.02361330856245,
block,faces,faces013.bmp,,,,,0,94,94,94,,,,,,,,,,,,,,,,,,,,,,,,,,,,,,,,,,,,,,,,,,None,,451.70155284003124,None,451.70155284003124,None,2022-04-05-11:04:47.268232,451.7073139999993,452.01922630000627,451.7073139999993,None,None,451.7073139999993,None,452.5186776400311,None,,,,22006,0001,2022_Apr_05_1057,localizer,2021.1.3,60.02361330856245,
block,faces,faces016.bmp,,,,,0,95,95,95,,,,,,,,,,,,,,,,,,,,,,,,,,,,,,,,,,,,,,,,,,None,,452.5186776400311,None,452.5186776400311,None,2022-04-05-11:04:48.085547,452.5308743000496,452.83522980002454,452.5308743000496,None,None,452.5308743000496,None,453.3347261400428,None,,,,22006,0001,2022_Apr_05_1057,localizer,2021.1.3,60.02361330856245,
block,faces,faces006.bmp,,,,,0,96,96,96,,,,,,,,,,,,,,,,,,,,,,,,,,,,,,,,,,,,,,,,,,None,,453.3347261400428,None,453.3347261400428,None,2022-04-05-11:04:48.901402,453.3362099000369,453.65169730002526,453.3362099000369,None,None,453.3362099000369,None,454.1517100400175,None,,,,22006,0001,2022_Apr_05_1057,localizer,2021.1.3,60.02361330856245,
block,faces,faces085.bmp,,,,,0,97,97,97,,,,,,,,,,,,,,,,,,,,,,,,,,,,,,,,,,,,,,,,,,None,,454.1517100400175,None,454.1517100400175,None,2022-04-05-11:04:49.718382,454.163173500041,454.4689373000292,454.163173500041,None,None,454.163173500041,None,454.9683994400199,None,,,,22006,0001,2022_Apr_05_1057,localizer,2021.1.3,60.02361330856245,
block,faces,faces022.bmp,,,,,0,98,98,98,,,,,,,,,,,,,,,,,,,,,,,,,,,,,,,,,,,,,,,,,,None,,454.9683994400199,None,454.9683994400199,None,2022-04-05-11:04:50.535264,454.98072190000676,455.29180870001437,454.98072190000676,None,None,454.98072190000676,None,455.78612914002736,None,,,,22006,0001,2022_Apr_05_1057,localizer,2021.1.3,60.02361330856245,
block,faces,faces041.bmp,,,,,0,99,99,99,,,,,,,,,,,,,,,,,,,,,,,,,,,,,,,,,,,,,,,,,,None,,455.78612914002736,None,455.78612914002736,None,2022-04-05-11:04:51.353964,455.79984020005213,456.101908200013,455.79984020005213,None,None,455.79984020005213,None,456.6040594400489,None,,,,22006,0001,2022_Apr_05_1057,localizer,2021.1.3,60.02361330856245,
block,faces,faces005.bmp,,,,,0,100,100,100,,,,,,,,,,,,,,,,,,,,,,,,,,,,,,,,,,,,,,,,,,None,,456.6040594400489,None,456.6040594400489,None,2022-04-05-11:04:52.177824,456.6241957000457,456.9353741000523,456.6241957000457,None,None,456.6241957000457,None,457.41833344005283,None,,,,22006,0001,2022_Apr_05_1057,localizer,2021.1.3,60.02361330856245,
block,faces,faces065.bmp,,,,,0,101,101,101,,,,,,,,,,,,,,,,,,,,,,,,,,,,,,,,,,,,,,,,,,None,,457.41833344005283,None,457.41833344005283,None,2022-04-05-11:04:52.985053,457.4194618000183,457.7354073000024,457.4194618000183,None,None,457.4194618000183,None,458.2185517400154,None,,,,22006,0001,2022_Apr_05_1057,localizer,2021.1.3,60.02361330856245,
block,faces,faces060.bmp,,,,,0,102,102,102,,,,,,,,,,,,,,,,,,,,,,,,,,,,,,,,,,,,,,,,,,None,,458.2185517400154,None,458.2185517400154,None,2022-04-05-11:04:53.787423,458.23231800005306,458.53565750003327,458.23231800005306,458.23231800005306,None,458.23231800005306,458.23231800005306,459.03547714001036,None,,,,22006,0001,2022_Apr_05_1057,localizer,2021.1.3,60.02361330856245,
block,faces,faces035.bmp,,,,,0,103,103,103,,,,,,,,,,,,,,,,,,,,,,,,,,,,,,,,,,,,,,,,,,None,,459.03547714001036,None,459.03547714001036,None,2022-04-05-11:04:54.603136,459.0488048000261,459.35212789999787,459.0488048000261,None,None,459.0488048000261,None,459.85161204003964,None,,,,22006,0001,2022_Apr_05_1057,localizer,2021.1.3,60.02361330856245,
block,faces,faces014.bmp,,,,,0,104,104,104,,,,,,,,,,,,,,,,,,,,,,,,,,,,,,,,,,,,,,,,,,None,,459.85161204003964,None,459.85161204003964,None,2022-04-05-11:04:55.418285,459.85296310001286,460.1682795000379,459.85296310001286,None,None,459.85296310001286,None,460.6683902400197,None,,,,22006,0001,2022_Apr_05_1057,localizer,2021.1.3,60.02361330856245,
block,faces,faces001.bmp,,,,,0,105,105,105,,,,,,,,,,,,,,,,,,,,,,,,,,,,,,,,,,,,,,,,,,None,,460.6683902400197,None,460.6683902400197,None,2022-04-05-11:04:56.235100,460.68080220004776,460.98526700004004,460.68080220004776,None,None,460.68080220004776,None,461.4850153399981,None,,,,22006,0001,2022_Apr_05_1057,localizer,2021.1.3,60.02361330856245,
block_end,faces,faces061.bmp,,,,,0,106,106,106,,,,,,,,,,,,,,,,,,,,,,,,,,,,,,,,,,,,,,,,,,None,,461.4850153399981,None,461.4850153399981,None,2022-04-05-11:04:57.051686,461.49719060002826,461.8020371000166,461.49719060002826,None,None,461.49719060002826,None,462.3021855400526,None,,,,22006,0001,2022_Apr_05_1057,localizer,2021.1.3,60.02361330856245,
block_start,objects,objects060.bmp,,,,,0,107,107,107,,,,,,,,,,,,,,,,,,,,,,,,,,,,,,,,,,,,,,,,,,t,1.7442951999837533,462.30269100004807,None,462.30269100004807,None,2022-04-05-11:04:59.633605,464.07623930001864,464.38547520001885,464.07623930001864,None,None,464.07623930001864,None,464.8852797399974,None,,,,22006,0001,2022_Apr_05_1057,localizer,2021.1.3,60.02361330856245,
block,objects,objects003.bmp,,,,,0,108,108,108,,,,,,,,,,,,,,,,,,,,,,,,,,,,,,,,,,,,,,,,,,None,,464.8852797399974,None,464.8852797399974,None,2022-04-05-11:05:00.452011,464.8965609000297,465.20209490001434,464.8965609000297,None,None,464.8965609000297,None,465.7018129400327,None,,,,22006,0001,2022_Apr_05_1057,localizer,2021.1.3,60.02361330856245,
block,objects,objects024.bmp,,,,,0,109,109,109,,,,,,,,,,,,,,,,,,,,,,,,,,,,,,,,,,,,,,,,,,None,,465.7018129400327,None,465.7018129400327,None,2022-04-05-11:05:01.268683,465.7120982000488,466.01832050003577,465.7120982000488,None,None,465.7120982000488,None,466.5080986400368,None,,,,22006,0001,2022_Apr_05_1057,localizer,2021.1.3,60.02361330856245,
block,objects,objects006.bmp,,,,,0,110,110,110,,,,,,,,,,,,,,,,,,,,,,,,,,,,,,,,,,,,,,,,,,None,,466.5080986400368,None,466.5080986400368,None,2022-04-05-11:05:02.082714,466.52449510002043,466.8353820000193,466.52449510002043,None,None,466.52449510002043,None,467.3193200400216,None,,,,22006,0001,2022_Apr_05_1057,localizer,2021.1.3,60.02361330856245,
block,objects,objects033.bmp,,,,,0,111,111,111,,,,,,,,,,,,,,,,,,,,,,,,,,,,,,,,,,,,,,,,,,None,,467.3193200400216,None,467.3193200400216,None,2022-04-05-11:05:02.887158,467.33232970000245,467.63543150003534,467.33232970000245,None,None,467.33232970000245,None,468.13494714002593,None,,,,22006,0001,2022_Apr_05_1057,localizer,2021.1.3,60.02361330856245,
block,objects,objects002.bmp,,,,,0,112,112,112,,,,,,,,,,,,,,,,,,,,,,,,,,,,,,,,,,,,,,,,,,None,,468.13494714002593,None,468.13494714002593,None,2022-04-05-11:05:03.701620,468.1417634000536,468.45234220003476,468.1417634000536,None,None,468.1417634000536,None,468.95139424004594,None,,,,22006,0001,2022_Apr_05_1057,localizer,2021.1.3,60.02361330856245,
block,objects,objects045.bmp,,,,,0,113,113,113,,,,,,,,,,,,,,,,,,,,,,,,,,,,,,,,,,,,,,,,,,None,,468.95139424004594,None,468.95139424004594,None,2022-04-05-11:05:04.518065,468.9529866000521,469.2687685000128,468.9529866000521,None,None,468.9529866000521,None,469.76810634004653,None,,,,22006,0001,2022_Apr_05_1057,localizer,2021.1.3,60.02361330856245,
block,objects,objects070.bmp,,,,,0,114,114,114,,,,,,,,,,,,,,,,,,,,,,,,,,,,,,,,,,,,,,,,,,None,,469.76810634004653,None,469.76810634004653,None,2022-04-05-11:05:05.334944,469.7694627000019,470.08530510001583,469.7694627000019,None,None,469.7694627000019,None,470.56856044000017,None,,,,22006,0001,2022_Apr_05_1057,localizer,2021.1.3,60.02361330856245,
block,objects,objects053.bmp,,,,,0,115,115,115,,,,,,,,,,,,,,,,,,,,,,,,,,,,,,,,,,,,,,,,,,None,,470.56856044000017,None,470.56856044000017,None,2022-04-05-11:05:06.137207,470.58097000001,470.8853980000131,470.58097000001,470.58097000001,None,470.58097000001,470.58097000001,471.38494034003236,None,,,,22006,0001,2022_Apr_05_1057,localizer,2021.1.3,60.02361330856245,
block,objects,objects082.bmp,,,,,0,116,116,116,,,,,,,,,,,,,,,,,,,,,,,,,,,,,,,,,,,,,,,,,,None,,471.38494034003236,None,471.38494034003236,None,2022-04-05-11:05:06.952396,471.38633780000964,471.68617290002294,471.38633780000964,None,None,471.38633780000964,None,472.18555784000785,None,,,,22006,0001,2022_Apr_05_1057,localizer,2021.1.3,60.02361330856245,
block,objects,objects032.bmp,,,,,0,117,117,117,,,,,,,,,,,,,,,,,,,,,,,,,,,,,,,,,,,,,,,,,,None,,472.18555784000785,None,472.18555784000785,None,2022-04-05-11:05:07.755388,472.1890932000242,472.5019717999967,472.1890932000242,472.1890932000242,None,472.1890932000242,472.1890932000242,473.00223964001054,None,,,,22006,0001,2022_Apr_05_1057,localizer,2021.1.3,60.02361330856245,
block,objects,objects081.bmp,,,,,0,118,118,118,,,,,,,,,,,,,,,,,,,,,,,,,,,,,,,,,,,,,,,,,,None,,473.00223964001054,None,473.00223964001054,None,2022-04-05-11:05:08.569902,473.01331910002045,473.31860840000445,473.01331910002045,None,None,473.01331910002045,None,473.8184723400278,None,,,,22006,0001,2022_Apr_05_1057,localizer,2021.1.3,60.02361330856245,
block,objects,objects016.bmp,,,,,0,119,119,119,,,,,,,,,,,,,,,,,,,,,,,,,,,,,,,,,,,,,,,,,,None,,473.8184723400278,None,473.8184723400278,None,2022-04-05-11:05:09.385145,473.8239939000341,474.13549170002807,473.8239939000341,None,None,473.8239939000341,None,474.63505004005276,None,,,,22006,0001,2022_Apr_05_1057,localizer,2021.1.3,60.02361330856245,
block,objects,objects047.bmp,,,,,0,120,120,120,,,,,,,,,,,,,,,,,,,,,,,,,,,,,,,,,,,,,,,,,,None,,474.63505004005276,None,474.63505004005276,None,2022-04-05-11:05:10.201723,474.6415546000353,474.95177300000796,474.6415546000353,None,None,474.6415546000353,None,475.4515620400431,None,,,,22006,0001,2022_Apr_05_1057,localizer,2021.1.3,60.02361330856245,
block_end,objects,objects041.bmp,,,,,0,121,121,121,,,,,,,,,,,,,,,,,,,,,,,,,,,,,,,,,,,,,,,,,,None,,475.4515620400431,None,475.4515620400431,None,2022-04-05-11:05:11.018232,475.46244910004316,475.7690797999967,475.46244910004316,None,None,475.46244910004316,None,476.2679186400143,None,,,,22006,0001,2022_Apr_05_1057,localizer,2021.1.3,60.02361330856245,
block_start,scenes,scenes063.bmp,,,,,0,122,122,122,,,,,,,,,,,,,,,,,,,,,,,,,,,,,,,,,,,,,,,,,,t,1.7783051999867894,476.26873270003125,None,476.26873270003125,None,2022-04-05-11:05:13.634701,478.0795382000506,478.38554070005193,478.0795382000506,None,None,478.0795382000506,None,478.88529844002335,None,,,,22006,0001,2022_Apr_05_1057,localizer,2021.1.3,60.02361330856245,
block,scenes,scenes018.bmp,,,,,0,123,123,123,,,,,,,,,,,,,,,,,,,,,,,,,,,,,,,,,,,,,,,,,,None,,478.88529844002335,None,478.88529844002335,None,2022-04-05-11:05:14.452029,478.89626690000296,479.20245270000305,478.89626690000296,None,None,478.89626690000296,None,479.70204314003934,None,,,,22006,0001,2022_Apr_05_1057,localizer,2021.1.3,60.02361330856245,
block,scenes,scenes005.bmp,,,,,0,124,124,124,,,,,,,,,,,,,,,,,,,,,,,,,,,,,,,,,,,,,,,,,,None,,479.70204314003934,None,479.70204314003934,None,2022-04-05-11:05:15.268955,479.7123845000169,480.0189731999999,479.7123845000169,None,None,479.7123845000169,None,480.5197060400038,None,,,,22006,0001,2022_Apr_05_1057,localizer,2021.1.3,60.02361330856245,
block,scenes,scenes013.bmp,,,,,0,125,125,125,,,,,,,,,,,,,,,,,,,,,,,,,,,,,,,,,,,,,,,,,,None,,480.5197060400038,None,480.5197060400038,None,2022-04-05-11:05:16.088022,480.53243540000403,480.8355362000293,480.53243540000403,None,None,480.53243540000403,None,481.3350908400258,None,,,,22006,0001,2022_Apr_05_1057,localizer,2021.1.3,60.02361330856245,
block,scenes,scenes045.bmp,,,,,0,126,126,126,,,,,,,,,,,,,,,,,,,,,,,,,,,,,,,,,,,,,,,,,,None,,481.3350908400258,None,481.3350908400258,None,2022-04-05-11:05:16.901764,481.3451415000018,481.65220080001745,481.3451415000018,None,None,481.3451415000018,None,482.1515510400292,None,,,,22006,0001,2022_Apr_05_1057,localizer,2021.1.3,60.02361330856245,
block,scenes,scenes064.bmp,,,,,0,127,127,127,,,,,,,,,,,,,,,,,,,,,,,,,,,,,,,,,,,,,,,,,,None,,482.1515510400292,None,482.1515510400292,None,2022-04-05-11:05:17.717681,482.1538700000383,482.4687518000137,482.1538700000383,None,None,482.1538700000383,None,482.96901214002867,None,,,,22006,0001,2022_Apr_05_1057,localizer,2021.1.3,60.02361330856245,
block,scenes,scenes027.bmp,,,,,0,128,128,128,,,,,,,,,,,,,,,,,,,,,,,,,,,,,,,,,,,,,,,,,,None,,482.96901214002867,None,482.96901214002867,None,2022-04-05-11:05:18.535882,482.98012660001405,483.28572330001043,482.98012660001405,None,None,482.98012660001405,None,483.7854834400001,None,,,,22006,0001,2022_Apr_05_1057,localizer,2021.1.3,60.02361330856245,
block,scenes,scenes083.bmp,,,,,0,129,129,129,,,,,,,,,,,,,,,,,,,,,,,,,,,,,,,,,,,,,,,,,,None,,483.7854834400001,None,483.7854834400001,None,2022-04-05-11:05:19.352148,483.79574500001036,484.10212900000624,483.79574500001036,None,None,483.79574500001036,None,484.6029393400182,None,,,,22006,0001,2022_Apr_05_1057,localizer,2021.1.3,60.02361330856245,
block,scenes,scenes061.bmp,,,,,0,130,130,130,,,,,,,,,,,,,,,,,,,,,,,,,,,,,,,,,,,,,,,,,,None,,484.6029393400182,None,484.6029393400182,None,2022-04-05-11:05:20.171255,484.6121697000344,484.9192781000165,484.6121697000344,None,None,484.6121697000344,None,485.41869303999704,None,,,,22006,0001,2022_Apr_05_1057,localizer,2021.1.3,60.02361330856245,
block,scenes,scenes088.bmp,,,,,0,131,131,131,,,,,,,,,,,,,,,,,,,,,,,,,,,,,,,,,,,,,,,,,,None,,485.41869303999704,None,485.41869303999704,None,2022-04-05-11:05:20.985360,485.4291290999972,485.7355826999992,485.4291290999972,None,None,485.4291290999972,None,486.235298039997,None,,,,22006,0001,2022_Apr_05_1057,localizer,2021.1.3,60.02361330856245,
block,scenes,scenes077.bmp,,,,,0,132,132,132,,,,,,,,,,,,,,,,,,,,,,,,,,,,,,,,,,,,,,,,,,None,,486.235298039997,None,486.235298039997,None,2022-04-05-11:05:21.802182,486.2364456000505,486.5519354999997,486.2364456000505,None,None,486.2364456000505,None,487.05232674002184,None,,,,22006,0001,2022_Apr_05_1057,localizer,2021.1.3,60.02361330856245,
block,scenes,scenes057.bmp,,,,,0,133,133,133,,,,,,,,,,,,,,,,,,,,,,,,,,,,,,,,,,,,,,,,,,None,,487.05232674002184,None,487.05232674002184,None,2022-04-05-11:05:22.618993,487.0534497000044,487.36897130002035,487.0534497000044,None,None,487.0534497000044,None,487.8687245400157,None,,,,22006,0001,2022_Apr_05_1057,localizer,2021.1.3,60.02361330856245,
block,scenes,scenes003.bmp,,,,,0,134,134,134,,,,,,,,,,,,,,,,,,,,,,,,,,,,,,,,,,,,,,,,,,None,,487.8687245400157,None,487.8687245400157,None,2022-04-05-11:05:23.435614,487.88003210001625,488.18584460002603,487.88003210001625,None,None,487.88003210001625,None,488.6861823400483,None,,,,22006,0001,2022_Apr_05_1057,localizer,2021.1.3,60.02361330856245,
block,scenes,scenes049.bmp,,,,,0,135,135,135,,,,,,,,,,,,,,,,,,,,,,,,,,,,,,,,,,,,,,,,,,None,,488.6861823400483,None,488.6861823400483,None,2022-04-05-11:05:24.252846,488.69701870001154,489.0023448000429,488.69701870001154,None,None,488.69701870001154,None,489.50135964000367,None,,,,22006,0001,2022_Apr_05_1057,localizer,2021.1.3,60.02361330856245,
block_end,scenes,scenes056.bmp,,,,,0,136,136,136,,,,,,,,,,,,,,,,,,,,,,,,,,,,,,,,,,,,,,,,,,None,,489.50135964000367,None,489.50135964000367,None,2022-04-05-11:05:25.067041,489.50530900002923,489.8189196000458,489.50530900002923,None,None,489.50530900002923,None,490.32056044003696,None,,,,22006,0001,2022_Apr_05_1057,localizer,2021.1.3,60.02361330856245,
block_start,objects,objects050.bmp,,,,,0,137,137,137,,,,,,,,,,,,,,,,,,,,,,,,,,,,,,,,,,,,,,,,,,t,1.7244232000084594,490.3225451000035,None,490.3225451000035,None,2022-04-05-11:05:27.632874,492.0699886000366,492.3855809000088,492.0699886000366,None,None,492.0699886000366,None,492.8691278400016,None,,,,22006,0001,2022_Apr_05_1057,localizer,2021.1.3,60.02361330856245,
block,objects,objects064.bmp,,,,,0,138,138,138,,,,,,,,,,,,,,,,,,,,,,,,,,,,,,,,,,,,,,,,,,None,,492.8691278400016,None,492.8691278400016,None,2022-04-05-11:05:28.437981,492.88223210000433,493.185873200011,492.88223210000433,492.88223210000433,None,492.88223210000433,492.88223210000433,493.68751664002195,None,,,,22006,0001,2022_Apr_05_1057,localizer,2021.1.3,60.02361330856245,
block,objects,objects064.bmp,,,,,0,139,139,139,,,,,,,,,,,,,,,,,,,,,,,,,,,,,,,,,,,,,,,,,,None,,493.68751664002195,None,493.68751664002195,None,2022-04-05-11:05:29.256318,493.6960300000501,494.0028167000273,493.6960300000501,None,None,493.6960300000501,None,494.5020131400321,None,,,,22006,0001,2022_Apr_05_1057,localizer,2021.1.3,60.02361330856245,
block,objects,objects011.bmp,,,,,0,140,140,140,,,,,,,,,,,,,,,,,,,,,,,,,,,,,,,,,,,,,,,,,,None,,494.5020131400321,None,494.5020131400321,None,2022-04-05-11:05:30.068678,494.50855160003994,494.8192044000025,494.50855160003994,None,y,494.50855160003994,None,495.3191028399975,None,0.025901599961798638,,,22006,0001,2022_Apr_05_1057,localizer,2021.1.3,60.02361330856245,
block,objects,objects039.bmp,,,,,0,141,141,141,,,,,,,,,,,,,,,,,,,,,,,,,,,,,,,,,,,,,,,,,,None,,495.3191028399975,None,495.3191028399975,None,2022-04-05-11:05:30.885767,495.32922760001384,495.63628160004737,495.32922760001384,None,None,495.32922760001384,None,496.12500084001806,None,,,,22006,0001,2022_Apr_05_1057,localizer,2021.1.3,60.02361330856245,
block,objects,objects058.bmp,,,,,0,142,142,142,,,,,,,,,,,,,,,,,,,,,,,,,,,,,,,,,,,,,,,,,,None,,496.12500084001806,None,496.12500084001806,None,2022-04-05-11:05:31.694276,496.13666920003016,496.45234770001844,496.13666920003016,None,None,496.13666920003016,None,496.93547324000394,None,,,,22006,0001,2022_Apr_05_1057,localizer,2021.1.3,60.02361330856245,
block,objects,objects056.bmp,,,,,0,143,143,143,,,,,,,,,,,,,,,,,,,,,,,,,,,,,,,,,,,,,,,,,,None,,496.93547324000394,None,496.93547324000394,None,2022-04-05-11:05:32.502338,496.94484460004605,497.25239930005046,496.94484460004605,None,None,496.94484460004605,None,497.7519706399995,None,,,,22006,0001,2022_Apr_05_1057,localizer,2021.1.3,60.02361330856245,
block,objects,objects020.bmp,,,,,0,144,144,144,,,,,,,,,,,,,,,,,,,,,,,,,,,,,,,,,,,,,,,,,,None,,497.7519706399995,None,497.7519706399995,None,2022-04-05-11:05:33.318998,497.76221410004655,498.0690331000369,497.76221410004655,None,None,497.76221410004655,None,498.5680530400365,None,,,,22006,0001,2022_Apr_05_1057,localizer,2021.1.3,60.02361330856245,
block,objects,objects012.bmp,,,,,0,145,145,145,,,,,,,,,,,,,,,,,,,,,,,,,,,,,,,,,,,,,,,,,,None,,498.5680530400365,None,498.5680530400365,None,2022-04-05-11:05:34.133734,498.5758368000388,498.8886336000287,498.5758368000388,None,None,498.5758368000388,None,499.38528604004534,None,,,,22006,0001,2022_Apr_05_1057,localizer,2021.1.3,60.02361330856245,
block,objects,objects007.bmp,,,,,0,146,146,146,,,,,,,,,,,,,,,,,,,,,,,,,,,,,,,,,,,,,,,,,,None,,499.38528604004534,None,499.38528604004534,None,2022-04-05-11:05:34.952378,499.39617900003213,499.70284959999844,499.39617900003213,None,None,499.39617900003213,None,500.20187054000564,None,,,,22006,0001,2022_Apr_05_1057,localizer,2021.1.3,60.02361330856245,
block,objects,objects054.bmp,,,,,0,147,147,147,,,,,,,,,,,,,,,,,,,,,,,,,,,,,,,,,,,,,,,,,,None,,500.20187054000564,None,500.20187054000564,None,2022-04-05-11:05:35.768543,500.20320280001033,500.508933300036,500.20320280001033,None,None,500.20320280001033,None,501.01868884,None,,,,22006,0001,2022_Apr_05_1057,localizer,2021.1.3,60.02361330856245,
block,objects,objects052.bmp,,,,,0,148,148,148,,,,,,,,,,,,,,,,,,,,,,,,,,,,,,,,,,,,,,,,,,None,,501.01868884,None,501.01868884,None,2022-04-05-11:05:36.585360,501.01998860004824,501.33575320005184,501.01998860004824,None,None,501.01998860004824,None,501.83435784003234,None,,,,22006,0001,2022_Apr_05_1057,localizer,2021.1.3,60.02361330856245,
block,objects,objects001.bmp,,,,,0,149,149,149,,,,,,,,,,,,,,,,,,,,,,,,,,,,,,,,,,,,,,,,,,None,,501.83435784003234,None,501.83435784003234,None,2022-04-05-11:05:37.399837,501.8370938000153,502.15192730003037,501.8370938000153,None,None,501.8370938000153,None,502.65127324000935,None,,,,22006,0001,2022_Apr_05_1057,localizer,2021.1.3,60.02361330856245,
block,objects,objects072.bmp,,,,,0,150,150,150,,,,,,,,,,,,,,,,,,,,,,,,,,,,,,,,,,,,,,,,,,None,,502.65127324000935,None,502.65127324000935,None,2022-04-05-11:05:38.217391,502.6549608000205,502.96807050000643,502.6549608000205,None,None,502.6549608000205,None,503.4687639400014,None,,,,22006,0001,2022_Apr_05_1057,localizer,2021.1.3,60.02361330856245,
block_end,objects,objects069.bmp,,,,,0,151,151,151,,,,,,,,,,,,,,,,,,,,,,,,,,,,,,,,,,,,,,,,,,None,,503.4687639400014,None,503.4687639400014,None,2022-04-05-11:05:39.034765,503.4744107000297,503.78586970001925,503.4744107000297,None,None,503.4744107000297,None,504.28655214004687,None,,,,22006,0001,2022_Apr_05_1057,localizer,2021.1.3,60.02361330856245,
block_start,faces,faces059.bmp,,,,,0,152,152,152,,,,,,,,,,,,,,,,,,,,,,,,,,,,,,,,,,,,,,,,,,t,1.760015800013207,504.286963200022,None,504.286963200022,None,2022-04-05-11:05:41.640928,506.08714670001063,506.4028102000011,506.08714670001063,None,None,506.08714670001063,None,506.88481694002405,None,,,,22006,0001,2022_Apr_05_1057,localizer,2021.1.3,60.02361330856245,
block,faces,faces034.bmp,,,,,0,153,153,153,,,,,,,,,,,,,,,,,,,,,,,,,,,,,,,,,,,,,,,,,,None,,506.88481694002405,None,506.88481694002405,None,2022-04-05-11:05:42.450585,506.8870600000373,507.2023382000043,506.8870600000373,None,None,506.8870600000373,None,507.7019043400302,None,,,,22006,0001,2022_Apr_05_1057,localizer,2021.1.3,60.02361330856245,
block,faces,faces015.bmp,,,,,0,154,154,154,,,,,,,,,,,,,,,,,,,,,,,,,,,,,,,,,,,,,,,,,,None,,507.7019043400302,None,507.7019043400302,None,2022-04-05-11:05:43.268578,507.7032577000209,508.00266810000176,507.7032577000209,None,None,507.7032577000209,None,508.5026094400324,None,,,,22006,0001,2022_Apr_05_1057,localizer,2021.1.3,60.02361330856245,
block,faces,faces082.bmp,,,,,0,155,155,155,,,,,,,,,,,,,,,,,,,,,,,,,,,,,,,,,,,,,,,,,,None,,508.5026094400324,None,508.5026094400324,None,2022-04-05-11:05:44.071473,508.50515490002,508.81887260003714,508.50515490002,508.50515490002,None,508.50515490002,508.50515490002,509.30820834004555,None,,,,22006,0001,2022_Apr_05_1057,localizer,2021.1.3,60.02361330856245,
block,faces,faces088.bmp,,,,,0,156,156,156,,,,,,,,,,,,,,,,,,,,,,,,,,,,,,,,,,,,,,,,,,None,,509.30820834004555,None,509.30820834004555,None,2022-04-05-11:05:44.881485,509.32069250004133,509.63574500003597,509.32069250004133,509.32069250004133,None,509.32069250004133,509.32069250004133,510.12236164000353,None,,,,22006,0001,2022_Apr_05_1057,localizer,2021.1.3,60.02361330856245,
block,faces,faces042.bmp,,,,,0,157,157,157,,,,,,,,,,,,,,,,,,,,,,,,,,,,,,,,,,,,,,,,,,None,,510.12236164000353,None,510.12236164000353,None,2022-04-05-11:05:45.696891,510.1396507000318,510.45237920002546,510.1396507000318,None,None,510.1396507000318,None,510.93552654000234,None,,,,22006,0001,2022_Apr_05_1057,localizer,2021.1.3,60.02361330856245,
block,faces,faces025.bmp,,,,,0,158,158,158,,,,,,,,,,,,,,,,,,,,,,,,,,,,,,,,,,,,,,,,,,None,,510.93552654000234,None,510.93552654000234,None,2022-04-05-11:05:46.502194,510.94591420004144,511.2521725000115,510.94591420004144,None,None,510.94591420004144,None,511.75219404001257,None,,,,22006,0001,2022_Apr_05_1057,localizer,2021.1.3,60.02361330856245,
block,faces,faces039.bmp,,,,,0,159,159,159,,,,,,,,,,,,,,,,,,,,,,,,,,,,,,,,,,,,,,,,,,None,,511.75219404001257,None,511.75219404001257,None,2022-04-05-11:05:47.318862,511.7596764000482,512.0695526000345,511.7596764000482,None,None,511.7596764000482,None,512.568842440052,None,,,,22006,0001,2022_Apr_05_1057,localizer,2021.1.3,60.02361330856245,
block,faces,faces084.bmp,,,,,0,160,160,160,,,,,,,,,,,,,,,,,,,,,,,,,,,,,,,,,,,,,,,,,,None,,512.568842440052,None,512.568842440052,None,2022-04-05-11:05:48.135797,512.5799543000176,512.8859321000054,512.5799543000176,None,None,512.5799543000176,None,513.3864808400045,None,,,,22006,0001,2022_Apr_05_1057,localizer,2021.1.3,60.02361330856245,
block,faces,faces051.bmp,,,,,0,161,161,161,,,,,,,,,,,,,,,,,,,,,,,,,,,,,,,,,,,,,,,,,,None,,513.3864808400045,None,513.3864808400045,None,2022-04-05-11:05:48.955760,513.401988800033,513.7086449000053,513.401988800033,None,None,513.401988800033,None,514.2022164400202,None,,,,22006,0001,2022_Apr_05_1057,localizer,2021.1.3,60.02361330856245,
block,faces,faces002.bmp,,,,,0,162,162,162,,,,,,,,,,,,,,,,,,,,,,,,,,,,,,,,,,,,,,,,,,None,,514.2022164400202,None,514.2022164400202,None,2022-04-05-11:05:49.768883,514.2130130000296,514.5190584000084,514.2130130000296,None,None,514.2130130000296,None,515.018638740026,None,,,,22006,0001,2022_Apr_05_1057,localizer,2021.1.3,60.02361330856245,
block,faces,faces049.bmp,,,,,0,163,163,163,,,,,,,,,,,,,,,,,,,,,,,,,,,,,,,,,,,,,,,,,,None,,515.018638740026,None,515.018638740026,None,2022-04-05-11:05:50.585500,515.0282835000544,515.3365074000321,515.0282835000544,None,None,515.0282835000544,None,515.8359837400145,None,,,,22006,0001,2022_Apr_05_1057,localizer,2021.1.3,60.02361330856245,
block,faces,faces072.bmp,,,,,0,164,164,164,,,,,,,,,,,,,,,,,,,,,,,,,,,,,,,,,,,,,,,,,,None,,515.8359837400145,None,515.8359837400145,None,2022-04-05-11:05:51.402475,515.8473142000148,516.1524334000424,515.8473142000148,None,None,515.8473142000148,None,516.6520478400286,None,,,,22006,0001,2022_Apr_05_1057,localizer,2021.1.3,60.02361330856245,
block,faces,faces010.bmp,,,,,0,165,165,165,,,,,,,,,,,,,,,,,,,,,,,,,,,,,,,,,,,,,,,,,,None,,516.6520478400286,None,516.6520478400286,None,2022-04-05-11:05:52.217530,516.653273700038,516.9691083000507,516.653273700038,None,None,516.653273700038,None,517.4531323400093,None,,,,22006,0001,2022_Apr_05_1057,localizer,2021.1.3,60.02361330856245,
block_end,faces,faces057.bmp,,,,,0,166,166,166,,,,,,,,,,,,,,,,,,,,,,,,,,,,,,,,,,,,,,,,,,None,,517.4531323400093,None,517.4531323400093,None,2022-04-05-11:05:53.023759,517.4701858000481,517.7859456000151,517.4701858000481,517.4701858000481,None,517.4701858000481,517.4701858000481,518.2688077400322,None,,,,22006,0001,2022_Apr_05_1057,localizer,2021.1.3,60.02361330856245,
null_block,null_block,null_block.bmp,,,,,0,167,167,167,,,,,,,,,,,,,,,,,,,,,,,,,,,,,,,,,,,,,,,,,,t,1.7776672000181861,518.2692574000102,None,518.2692574000102,None,2022-04-05-11:05:55.633496,520.0685943400255,None,520.0685943400255,None,None,520.0685943400255,None,520.0693670000182,None,,,,22006,0001,2022_Apr_05_1057,localizer,2021.1.3,60.02361330856245,
block_start,scrambled,scrambled034.bmp,,,,,0,168,168,168,,,,,,,,,,,,,,,,,,,,,,,,,,,,,,,,,,,,,,,,,,t,1.9774984000250697,532.0695264000096,None,532.0695264000096,None,2022-04-05-11:06:09.637697,534.0799913000083,534.385870500002,534.0799913000083,None,None,534.0799913000083,None,534.8854217400309,None,,,,22006,0001,2022_Apr_05_1057,localizer,2021.1.3,60.02361330856245,
block,scrambled,scrambled018.bmp,,,,,0,169,169,169,,,,,,,,,,,,,,,,,,,,,,,,,,,,,,,,,,,,,,,,,,None,,534.8854217400309,None,534.8854217400309,None,2022-04-05-11:06:10.452215,534.8952870000503,535.2036943000276,534.8952870000503,None,None,534.8952870000503,None,535.7033511400456,None,,,,22006,0001,2022_Apr_05_1057,localizer,2021.1.3,60.02361330856245,
block,scrambled,scrambled068.bmp,,,,,0,170,170,170,,,,,,,,,,,,,,,,,,,,,,,,,,,,,,,,,,,,,,,,,,None,,535.7033511400456,None,535.7033511400456,None,2022-04-05-11:06:11.271013,535.7044374000398,536.020341000054,535.7044374000398,None,None,535.7044374000398,None,536.5199877400534,None,,,,22006,0001,2022_Apr_05_1057,localizer,2021.1.3,60.02361330856245,
block,scrambled,scrambled012.bmp,,,,,0,171,171,171,,,,,,,,,,,,,,,,,,,,,,,,,,,,,,,,,,,,,,,,,,None,,536.5199877400534,None,536.5199877400534,None,2022-04-05-11:06:12.087818,536.521186500031,536.8370073999977,536.521186500031,None,None,536.521186500031,None,537.3366089400021,None,,,,22006,0001,2022_Apr_05_1057,localizer,2021.1.3,60.02361330856245,
block,scrambled,scrambled023.bmp,,,,,0,172,172,172,,,,,,,,,,,,,,,,,,,,,,,,,,,,,,,,,,,,,,,,,,None,,537.3366089400021,None,537.3366089400021,None,2022-04-05-11:06:12.904262,537.3483215000015,537.6524575000512,537.3483215000015,None,None,537.3483215000015,None,538.1523464400321,None,,,,22006,0001,2022_Apr_05_1057,localizer,2021.1.3,60.02361330856245,
block,scrambled,scrambled086.bmp,,,,,0,173,173,173,,,,,,,,,,,,,,,,,,,,,,,,,,,,,,,,,,,,,,,,,,None,,538.1523464400321,None,538.1523464400321,None,2022-04-05-11:06:13.719229,538.1626583000179,538.4687533000251,538.1626583000179,None,None,538.1626583000179,None,538.9690835400485,None,,,,22006,0001,2022_Apr_05_1057,localizer,2021.1.3,60.02361330856245,
block,scrambled,scrambled008.bmp,,,,,0,174,174,174,,,,,,,,,,,,,,,,,,,,,,,,,,,,,,,,,,,,,,,,,,None,,538.9690835400485,None,538.9690835400485,None,2022-04-05-11:06:14.535965,538.9796551000327,539.2861568000517,538.9796551000327,None,None,538.9796551000327,None,539.7853971400415,None,,,,22006,0001,2022_Apr_05_1057,localizer,2021.1.3,60.02361330856245,
block,scrambled,scrambled031.bmp,,,,,0,175,175,175,,,,,,,,,,,,,,,,,,,,,,,,,,,,,,,,,,,,,,,,,,None,,539.7853971400415,None,539.7853971400415,None,2022-04-05-11:06:15.352067,539.7938260000083,540.1031085000141,539.7938260000083,None,None,539.7938260000083,None,540.60182984001,None,,,,22006,0001,2022_Apr_05_1057,localizer,2021.1.3,60.02361330856245,
block,scrambled,scrambled063.bmp,,,,,0,176,176,176,,,,,,,,,,,,,,,,,,,,,,,,,,,,,,,,,,,,,,,,,,None,,540.60182984001,None,540.60182984001,None,2022-04-05-11:06:16.167765,540.6040670000366,540.9192202000413,540.6040670000366,None,None,540.6040670000366,None,541.4191161400173,None,,,,22006,0001,2022_Apr_05_1057,localizer,2021.1.3,60.02361330856245,
block,scrambled,scrambled032.bmp,,,,,0,177,177,177,,,,,,,,,,,,,,,,,,,,,,,,,,,,,,,,,,,,,,,,,,None,,541.4191161400173,None,541.4191161400173,None,2022-04-05-11:06:16.985783,541.4296139000216,541.7358227000223,541.4296139000216,None,None,541.4296139000216,None,542.2358254399966,None,,,,22006,0001,2022_Apr_05_1057,localizer,2021.1.3,60.02361330856245,
block,scrambled,scrambled027.bmp,,,,,0,178,178,178,,,,,,,,,,,,,,,,,,,,,,,,,,,,,,,,,,,,,,,,,,None,,542.2358254399966,None,542.2358254399966,None,2022-04-05-11:06:17.802492,542.2457152000279,542.5523685000371,542.2457152000279,None,None,542.2457152000279,None,543.0522482400062,None,,,,22006,0001,2022_Apr_05_1057,localizer,2021.1.3,60.02361330856245,
block,scrambled,scrambled041.bmp,,,,,0,179,179,179,,,,,,,,,,,,,,,,,,,,,,,,,,,,,,,,,,,,,,,,,,None,,543.0522482400062,None,543.0522482400062,None,2022-04-05-11:06:18.619143,543.0578200000455,543.3692482000333,543.0578200000455,None,None,543.0578200000455,None,543.869352340023,None,,,,22006,0001,2022_Apr_05_1057,localizer,2021.1.3,60.02361330856245,
block,scrambled,scrambled007.bmp,,,,,0,180,180,180,,,,,,,,,,,,,,,,,,,,,,,,,,,,,,,,,,,,,,,,,,None,,543.869352340023,None,543.869352340023,None,2022-04-05-11:06:19.436019,543.8701249000151,544.1858386000386,543.8701249000151,None,None,543.8701249000151,None,544.6693030400435,None,,,,22006,0001,2022_Apr_05_1057,localizer,2021.1.3,60.02361330856245,
block,scrambled,scrambled042.bmp,,,,,0,181,181,181,,,,,,,,,,,,,,,,,,,,,,,,,,,,,,,,,,,,,,,,,,None,,544.6693030400435,None,544.6693030400435,None,2022-04-05-11:06:20.237056,544.676242400019,544.9864547000034,544.676242400019,544.676242400019,None,544.676242400019,544.676242400019,545.4855439400068,None,,,,22006,0001,2022_Apr_05_1057,localizer,2021.1.3,60.02361330856245,
block_end,scrambled,scrambled051.bmp,,,,,0,182,182,182,,,,,,,,,,,,,,,,,,,,,,,,,,,,,,,,,,,,,,,,,,None,,545.4855439400068,None,545.4855439400068,None,2022-04-05-11:06:21.051224,545.4931677000131,545.8028552000178,545.4931677000131,None,None,545.4931677000131,None,546.3022894400289,None,,,,22006,0001,2022_Apr_05_1057,localizer,2021.1.3,60.02361330856245,
null_block,null_block,null_block.bmp,,,,,0,183,183,183,,,,,,,,,,,,,,,,,,,,,,,,,,,,,,,,,,,,,,,,,,t,1.7443392000277527,546.3026710000122,None,546.3026710000122,None,2022-04-05-11:06:23.632460,548.0685065399972,None,548.0685065399972,None,None,548.0685065399972,None,548.068960900011,None,,,,22006,0001,2022_Apr_05_1057,localizer,2021.1.3,60.02361330856245,
block_start,objects,objects024.bmp,,,,,0,184,184,184,,,,,,,,,,,,,,,,,,,,,,,,,,,,,,,,,,,,,,,,,,t,1.977237100014463,560.0696999000502,None,560.0696999000502,None,2022-04-05-11:06:37.635416,562.0700857000193,562.3860763999983,562.0700857000193,None,None,562.0700857000193,None,562.8710244400078,None,,,,22006,0001,2022_Apr_05_1057,localizer,2021.1.3,60.02361330856245,
block,objects,objects015.bmp,,,,,0,185,185,185,,,,,,,,,,,,,,,,,,,,,,,,,,,,,,,,,,,,,,,,,,None,,562.8710244400078,None,562.8710244400078,None,2022-04-05-11:06:38.442683,562.8847695000004,563.1862094000098,562.8847695000004,562.8847695000004,None,562.8847695000004,562.8847695000004,563.6861594400485,None,,,,22006,0001,2022_Apr_05_1057,localizer,2021.1.3,60.02361330856245,
block,objects,objects011.bmp,,,,,0,186,186,186,,,,,,,,,,,,,,,,,,,,,,,,,,,,,,,,,,,,,,,,,,None,,563.6861594400485,None,563.6861594400485,None,2022-04-05-11:06:39.253018,563.6871451000334,563.9865798000246,563.6871451000334,None,None,563.6871451000334,None,564.5028220400214,None,,,,22006,0001,2022_Apr_05_1057,localizer,2021.1.3,60.02361330856245,
block,objects,objects046.bmp,,,,,0,187,187,187,,,,,,,,,,,,,,,,,,,,,,,,,,,,,,,,,,,,,,,,,,None,,564.5028220400214,None,564.5028220400214,None,2022-04-05-11:06:40.069673,564.5039249000256,564.8189240000211,564.5039249000256,None,None,564.5039249000256,None,565.3192160400446,None,,,,22006,0001,2022_Apr_05_1057,localizer,2021.1.3,60.02361330856245,
block,objects,objects056.bmp,,,,,0,188,188,188,,,,,,,,,,,,,,,,,,,,,,,,,,,,,,,,,,,,,,,,,,None,,565.3192160400446,None,565.3192160400446,None,2022-04-05-11:06:40.885885,565.3202435999992,565.6362669000519,565.3202435999992,None,None,565.3202435999992,None,566.1357406400144,None,,,,22006,0001,2022_Apr_05_1057,localizer,2021.1.3,60.02361330856245,
block,objects,objects029.bmp,,,,,0,189,189,189,,,,,,,,,,,,,,,,,,,,,,,,,,,,,,,,,,,,,,,,,,None,,566.1357406400144,None,566.1357406400144,None,2022-04-05-11:06:41.702817,566.1462401000317,566.453260600043,566.1462401000317,None,None,566.1462401000317,None,566.9527614400373,None,,,,22006,0001,2022_Apr_05_1057,localizer,2021.1.3,60.02361330856245,
block,objects,objects080.bmp,,,,,0,190,190,190,,,,,,,,,,,,,,,,,,,,,,,,,,,,,,,,,,,,,,,,,,None,,566.9527614400373,None,566.9527614400373,None,2022-04-05-11:06:42.519597,566.9639524000231,567.2700986000127,566.9639524000231,None,None,566.9639524000231,None,567.7695552400197,None,,,,22006,0001,2022_Apr_05_1057,localizer,2021.1.3,60.02361330856245,
block,objects,objects043.bmp,,,,,0,191,191,191,,,,,,,,,,,,,,,,,,,,,,,,,,,,,,,,,,,,,,,,,,None,,567.7695552400197,None,567.7695552400197,None,2022-04-05-11:06:43.336416,567.7807284000446,568.086091300007,567.7807284000446,None,None,567.7807284000446,None,568.5857612400083,None,,,,22006,0001,2022_Apr_05_1057,localizer,2021.1.3,60.02361330856245,
block,objects,objects081.bmp,,,,,0,192,192,192,,,,,,,,,,,,,,,,,,,,,,,,,,,,,,,,,,,,,,,,,,None,,568.5857612400083,None,568.5857612400083,None,2022-04-05-11:06:44.152839,568.5868749000365,568.9028043000144,568.5868749000365,None,None,568.5868749000365,None,569.4024464400369,None,,,,22006,0001,2022_Apr_05_1057,localizer,2021.1.3,60.02361330856245,
block,objects,objects049.bmp,,,,,0,193,193,193,,,,,,,,,,,,,,,,,,,,,,,,,,,,,,,,,,,,,,,,,,None,,569.4024464400369,None,569.4024464400369,None,2022-04-05-11:06:44.969115,569.411958700046,569.7193847000017,569.411958700046,None,None,569.411958700046,None,570.2188866400044,None,,,,22006,0001,2022_Apr_05_1057,localizer,2021.1.3,60.02361330856245,
block,objects,objects088.bmp,,,,,0,194,194,194,,,,,,,,,,,,,,,,,,,,,,,,,,,,,,,,,,,,,,,,,,None,,570.2188866400044,None,570.2188866400044,None,2022-04-05-11:06:45.784873,570.226864300028,570.5373708000407,570.226864300028,None,None,570.226864300028,None,571.037050640001,None,,,,22006,0001,2022_Apr_05_1057,localizer,2021.1.3,60.02361330856245,
block,objects,objects077.bmp,,,,,0,195,195,195,,,,,,,,,,,,,,,,,,,,,,,,,,,,,,,,,,,,,,,,,,None,,571.037050640001,None,571.037050640001,None,2022-04-05-11:06:46.605637,571.0457764000166,571.3524575000047,571.0457764000166,None,None,571.0457764000166,None,571.8522948400001,None,,,,22006,0001,2022_Apr_05_1057,localizer,2021.1.3,60.02361330856245,
block,objects,objects033.bmp,,,,,0,196,196,196,,,,,,,,,,,,,,,,,,,,,,,,,,,,,,,,,,,,,,,,,,None,,571.8522948400001,None,571.8522948400001,None,2022-04-05-11:06:47.419182,571.8535524000181,572.1694644000381,571.8535524000181,None,None,571.8535524000181,None,572.6691460400122,None,,,,22006,0001,2022_Apr_05_1057,localizer,2021.1.3,60.02361330856245,
block,objects,objects082.bmp,,,,,0,197,197,197,,,,,,,,,,,,,,,,,,,,,,,,,,,,,,,,,,,,,,,,,,None,,572.6691460400122,None,572.6691460400122,None,2022-04-05-11:06:48.235814,572.6704141000519,572.9861236000434,572.6704141000519,None,None,572.6704141000519,None,573.4701076400466,None,,,,22006,0001,2022_Apr_05_1057,localizer,2021.1.3,60.02361330856245,
block_end,objects,objects018.bmp,,,,,0,198,198,198,,,,,,,,,,,,,,,,,,,,,,,,,,,,,,,,,,,,,,,,,,None,,573.4701076400466,None,573.4701076400466,None,2022-04-05-11:06:49.040678,573.4850044000195,573.7861956999986,573.4850044000195,573.4850044000195,None,573.4850044000195,573.4850044000195,574.2859520400176,None,,,,22006,0001,2022_Apr_05_1057,localizer,2021.1.3,60.02361330856245,
block_start,scenes,scenes032.bmp,,,,,0,199,199,199,,,,,,,,,,,,,,,,,,,,,,,,,,,,,,,,,,,,,,,,,,t,1.7607972999685444,574.2864673000295,None,574.2864673000295,None,2022-04-05-11:06:51.645973,576.0787814000505,576.3859361000359,576.0787814000505,None,None,576.0787814000505,None,576.8858485400211,None,,,,22006,0001,2022_Apr_05_1057,localizer,2021.1.3,60.02361330856245,
block,scenes,scenes050.bmp,,,,,0,200,200,200,,,,,,,,,,,,,,,,,,,,,,,,,,,,,,,,,,,,,,,,,,None,,576.8858485400211,None,576.8858485400211,None,2022-04-05-11:06:52.452753,576.8869753000326,577.1862126000342,576.8869753000326,None,None,576.8869753000326,None,577.7027353400132,None,,,,22006,0001,2022_Apr_05_1057,localizer,2021.1.3,60.02361330856245,
block,scenes,scenes005.bmp,,,,,0,201,201,201,,,,,,,,,,,,,,,,,,,,,,,,,,,,,,,,,,,,,,,,,,None,,577.7027353400132,None,577.7027353400132,None,2022-04-05-11:06:53.269501,577.7036009000149,578.002909700037,577.7036009000149,None,None,577.7036009000149,None,578.5192232400528,None,,,,22006,0001,2022_Apr_05_1057,localizer,2021.1.3,60.02361330856245,
block,scenes,scenes033.bmp,,,,,0,202,202,202,,,,,,,,,,,,,,,,,,,,,,,,,,,,,,,,,,,,,,,,,,None,,578.5192232400528,None,578.5192232400528,None,2022-04-05-11:06:54.085893,578.5256950000185,578.8363098000409,578.5256950000185,None,None,578.5256950000185,None,579.3360572400503,None,,,,22006,0001,2022_Apr_05_1057,localizer,2021.1.3,60.02361330856245,
block,scenes,scenes042.bmp,,,,,0,203,203,203,,,,,,,,,,,,,,,,,,,,,,,,,,,,,,,,,,,,,,,,,,None,,579.3360572400503,None,579.3360572400503,None,2022-04-05-11:06:54.902936,579.3369593000389,579.6364376000129,579.3369593000389,None,None,579.3369593000389,None,580.1360074400087,None,,,,22006,0001,2022_Apr_05_1057,localizer,2021.1.3,60.02361330856245,
block,scenes,scenes027.bmp,,,,,0,204,204,204,,,,,,,,,,,,,,,,,,,,,,,,,,,,,,,,,,,,,,,,,,None,,580.1360074400087,None,580.1360074400087,None,2022-04-05-11:06:55.704876,580.1380674000247,580.4532059000339,580.1380674000247,580.1380674000247,None,580.1380674000247,580.1380674000247,580.937802240043,None,,,,22006,0001,2022_Apr_05_1057,localizer,2021.1.3,60.02361330856245,
block,scenes,scenes007.bmp,,,,,0,205,205,205,,,,,,,,,,,,,,,,,,,,,,,,,,,,,,,,,,,,,,,,,,None,,580.937802240043,None,580.937802240043,None,2022-04-05-11:06:56.509412,580.9558632000117,581.2694587000296,580.9558632000117,580.9558632000117,None,580.9558632000117,580.9558632000117,581.7525577400462,None,,,,22006,0001,2022_Apr_05_1057,localizer,2021.1.3,60.02361330856245,
block,scenes,scenes002.bmp,,,,,0,206,206,206,,,,,,,,,,,,,,,,,,,,,,,,,,,,,,,,,,,,,,,,,,None,,581.7525577400462,None,581.7525577400462,None,2022-04-05-11:06:57.319228,581.7629669000162,582.0694426000118,581.7629669000162,None,None,581.7629669000162,None,582.5685078400071,None,,,,22006,0001,2022_Apr_05_1057,localizer,2021.1.3,60.02361330856245,
block,scenes,scenes044.bmp,,,,,0,207,207,207,,,,,,,,,,,,,,,,,,,,,,,,,,,,,,,,,,,,,,,,,,None,,582.5685078400071,None,582.5685078400071,None,2022-04-05-11:06:58.134186,582.5711359000416,582.8862377000041,582.5711359000416,None,None,582.5711359000416,None,583.3860764400102,None,,,,22006,0001,2022_Apr_05_1057,localizer,2021.1.3,60.02361330856245,
block,scenes,scenes091.bmp,,,,,0,208,208,208,,,,,,,,,,,,,,,,,,,,,,,,,,,,,,,,,,,,,,,,,,None,,583.3860764400102,None,583.3860764400102,None,2022-04-05-11:06:58.952891,583.3961922000162,583.7026391000254,583.3961922000162,None,None,583.3961922000162,None,584.2030283400323,None,,,,22006,0001,2022_Apr_05_1057,localizer,2021.1.3,60.02361330856245,
block,scenes,scenes049.bmp,,,,,0,209,209,209,,,,,,,,,,,,,,,,,,,,,,,,,,,,,,,,,,,,,,,,,,None,,584.2030283400323,None,584.2030283400323,None,2022-04-05-11:06:59.769691,584.204331200046,584.5192823000252,584.204331200046,None,None,584.204331200046,None,585.019474340044,None,,,,22006,0001,2022_Apr_05_1057,localizer,2021.1.3,60.02361330856245,
block,scenes,scenes049.bmp,,,,,0,210,210,210,,,,,,,,,,,,,,,,,,,,,,,,,,,,,,,,,,,,,,,,,,None,,585.019474340044,None,585.019474340044,None,2022-04-05-11:07:00.586285,585.0204176999978,585.3364961000043,585.0204176999978,None,y,585.0204176999978,None,585.8358060400002,None,0.6753386000054888,,,22006,0001,2022_Apr_05_1057,localizer,2021.1.3,60.02361330856245,
block,scenes,scenes064.bmp,,,,,0,211,211,211,,,,,,,,,,,,,,,,,,,,,,,,,,,,,,,,,,,,,,,,,,None,,585.8358060400002,None,585.8358060400002,None,2022-04-05-11:07:01.402479,585.837150300038,586.1527819000185,585.837150300038,None,None,585.837150300038,None,586.6526408400038,None,,,,22006,0001,2022_Apr_05_1057,localizer,2021.1.3,60.02361330856245,
block,scenes,scenes054.bmp,,,,,0,212,212,212,,,,,,,,,,,,,,,,,,,,,,,,,,,,,,,,,,,,,,,,,,None,,586.6526408400038,None,586.6526408400038,None,2022-04-05-11:07:02.219585,586.6537230000249,586.9693653000286,586.6537230000249,None,None,586.6537230000249,None,587.4691691400018,None,,,,22006,0001,2022_Apr_05_1057,localizer,2021.1.3,60.02361330856245,
block_end,scenes,scenes073.bmp,,,,,0,213,213,213,,,,,,,,,,,,,,,,,,,,,,,,,,,,,,,,,,,,,,,,,,None,,587.4691691400018,None,587.4691691400018,None,2022-04-05-11:07:03.036197,587.4812291000271,587.7861774000339,587.4812291000271,None,None,587.4812291000271,None,588.2861950400053,None,,,,22006,0001,2022_Apr_05_1057,localizer,2021.1.3,60.02361330856245,
block_start,scrambled,scrambled066.bmp,,,,,0,214,214,214,,,,,,,,,,,,,,,,,,,,,,,,,,,,,,,,,,,,,,,,,,t,1.760471099987626,588.2867426000303,None,588.2867426000303,None,2022-04-05-11:07:05.638173,590.0736005000072,590.3862378000049,590.0736005000072,None,None,590.0736005000072,None,590.8859385400079,None,,,,22006,0001,2022_Apr_05_1057,localizer,2021.1.3,60.02361330856245,
block,scrambled,scrambled053.bmp,,,,,0,215,215,215,,,,,,,,,,,,,,,,,,,,,,,,,,,,,,,,,,,,,,,,,,None,,590.8859385400079,None,590.8859385400079,None,2022-04-05-11:07:06.452607,590.8958716000197,591.2032026000088,590.8958716000197,None,None,590.8958716000197,None,591.7027584400145,None,,,,22006,0001,2022_Apr_05_1057,localizer,2021.1.3,60.02361330856245,
block,scrambled,scrambled055.bmp,,,,,0,216,216,216,,,,,,,,,,,,,,,,,,,,,,,,,,,,,,,,,,,,,,,,,,None,,591.7027584400145,None,591.7027584400145,None,2022-04-05-11:07:07.269626,591.7128466000431,592.019626000023,591.7128466000431,None,None,591.7128466000431,None,592.5198485400412,None,,,,22006,0001,2022_Apr_05_1057,localizer,2021.1.3,60.02361330856245,
block,scrambled,scrambled038.bmp,,,,,0,217,217,217,,,,,,,,,,,,,,,,,,,,,,,,,,,,,,,,,,,,,,,,,,None,,592.5198485400412,None,592.5198485400412,None,2022-04-05-11:07:08.086696,592.5210667000501,592.8359341000323,592.5210667000501,None,None,592.5210667000501,None,593.3210346400389,None,,,,22006,0001,2022_Apr_05_1057,localizer,2021.1.3,60.02361330856245,
block,scrambled,scrambled014.bmp,,,,,0,218,218,218,,,,,,,,,,,,,,,,,,,,,,,,,,,,,,,,,,,,,,,,,,None,,593.3210346400389,None,593.3210346400389,None,2022-04-05-11:07:08.892795,593.3269797000103,593.6367457000306,593.3269797000103,593.3269797000103,None,593.3269797000103,593.3269797000103,594.1363167400356,None,,,,22006,0001,2022_Apr_05_1057,localizer,2021.1.3,60.02361330856245,
block,scrambled,scrambled071.bmp,,,,,0,219,219,219,,,,,,,,,,,,,,,,,,,,,,,,,,,,,,,,,,,,,,,,,,None,,594.1363167400356,None,594.1363167400356,None,2022-04-05-11:07:09.702979,594.1461625000229,594.4529114000034,594.1461625000229,None,None,594.1461625000229,None,594.9530141400406,None,,,,22006,0001,2022_Apr_05_1057,localizer,2021.1.3,60.02361330856245,
block,scrambled,scrambled013.bmp,,,,,0,220,220,220,,,,,,,,,,,,,,,,,,,,,,,,,,,,,,,,,,,,,,,,,,None,,594.9530141400406,None,594.9530141400406,None,2022-04-05-11:07:10.519847,594.9643457000493,595.2693061000318,594.9643457000493,None,None,594.9643457000493,None,595.7696028400329,None,,,,22006,0001,2022_Apr_05_1057,localizer,2021.1.3,60.02361330856245,
block,scrambled,scrambled061.bmp,,,,,0,221,221,221,,,,,,,,,,,,,,,,,,,,,,,,,,,,,,,,,,,,,,,,,,None,,595.7696028400329,None,595.7696028400329,None,2022-04-05-11:07:11.336159,595.7799334000447,596.0865654000081,595.7799334000447,None,None,595.7799334000447,None,596.5862325400464,None,,,,22006,0001,2022_Apr_05_1057,localizer,2021.1.3,60.02361330856245,
block,scrambled,scrambled036.bmp,,,,,0,222,222,222,,,,,,,,,,,,,,,,,,,,,,,,,,,,,,,,,,,,,,,,,,None,,596.5862325400464,None,596.5862325400464,None,2022-04-05-11:07:12.152897,596.5873807000462,596.9030413000146,596.5873807000462,None,None,596.5873807000462,None,597.4026165400516,None,,,,22006,0001,2022_Apr_05_1057,localizer,2021.1.3,60.02361330856245,
block,scrambled,scrambled056.bmp,,,,,0,223,223,223,,,,,,,,,,,,,,,,,,,,,,,,,,,,,,,,,,,,,,,,,,None,,597.4026165400516,None,597.4026165400516,None,2022-04-05-11:07:12.969287,597.4122245000326,597.7200725000002,597.4122245000326,None,None,597.4122245000326,None,598.2196662400034,None,,,,22006,0001,2022_Apr_05_1057,localizer,2021.1.3,60.02361330856245,
block,scrambled,scrambled022.bmp,,,,,0,224,224,224,,,,,,,,,,,,,,,,,,,,,,,,,,,,,,,,,,,,,,,,,,None,,598.2196662400034,None,598.2196662400034,None,2022-04-05-11:07:13.786328,598.2298997000325,598.5362013000413,598.2298997000325,None,None,598.2298997000325,None,599.0360757400282,None,,,,22006,0001,2022_Apr_05_1057,localizer,2021.1.3,60.02361330856245,
block,scrambled,scrambled041.bmp,,,,,0,225,225,225,,,,,,,,,,,,,,,,,,,,,,,,,,,,,,,,,,,,,,,,,,None,,599.0360757400282,None,599.0360757400282,None,2022-04-05-11:07:14.602744,599.037277800031,599.3530678000534,599.037277800031,None,None,599.037277800031,None,599.8363476400497,None,,,,22006,0001,2022_Apr_05_1057,localizer,2021.1.3,60.02361330856245,
block,scrambled,scrambled054.bmp,,,,,0,226,226,226,,,,,,,,,,,,,,,,,,,,,,,,,,,,,,,,,,,,,,,,,,None,,599.8363476400497,None,599.8363476400497,None,2022-04-05-11:07:15.405182,599.8383957000333,600.1525423999992,599.8383957000333,599.8383957000333,None,599.8383957000333,599.8383957000333,600.6522401400376,None,,,,22006,0001,2022_Apr_05_1057,localizer,2021.1.3,60.02361330856245,
block,scrambled,scrambled015.bmp,,,,,0,227,227,227,,,,,,,,,,,,,,,,,,,,,,,,,,,,,,,,,,,,,,,,,,None,,600.6522401400376,None,600.6522401400376,None,2022-04-05-11:07:16.217922,600.6542998000514,600.969775000005,600.6542998000514,None,None,600.6542998000514,None,601.4695666400017,None,,,,22006,0001,2022_Apr_05_1057,localizer,2021.1.3,60.02361330856245,
block_end,scrambled,scrambled043.bmp,,,,,0,228,228,228,,,,,,,,,,,,,,,,,,,,,,,,,,,,,,,,,,,,,,,,,,None,,601.4695666400017,None,601.4695666400017,None,2022-04-05-11:07:17.036232,601.4807313000201,601.7862634000485,601.4807313000201,None,None,601.4807313000201,None,602.2859943400487,None,,,,22006,0001,2022_Apr_05_1057,localizer,2021.1.3,60.02361330856245,
block_start,faces,faces081.bmp,,,,,0,229,229,229,,,,,,,,,,,,,,,,,,,,,,,,,,,,,,,,,,,,,,,,,,t,1.7595358000253327,602.2863369000261,None,602.2863369000261,None,2022-04-05-11:07:19.635652,604.0808155999985,604.3864855000284,604.0808155999985,None,None,604.0808155999985,None,604.8860393400188,None,,,,22006,0001,2022_Apr_05_1057,localizer,2021.1.3,60.02361330856245,
block,faces,faces027.bmp,,,,,0,230,230,230,,,,,,,,,,,,,,,,,,,,,,,,,,,,,,,,,,,,,,,,,,None,,604.8860393400188,None,604.8860393400188,None,2022-04-05-11:07:20.452709,604.8934495000285,605.2035883000353,604.8934495000285,None,None,604.8934495000285,None,605.7031687400537,None,,,,22006,0001,2022_Apr_05_1057,localizer,2021.1.3,60.02361330856245,
block,faces,faces041.bmp,,,,,0,231,231,231,,,,,,,,,,,,,,,,,,,,,,,,,,,,,,,,,,,,,,,,,,None,,605.7031687400537,None,605.7031687400537,None,2022-04-05-11:07:21.270540,605.7045263000182,606.0195609000511,605.7045263000182,None,None,605.7045263000182,None,606.5193576400285,None,,,,22006,0001,2022_Apr_05_1057,localizer,2021.1.3,60.02361330856245,
block,faces,faces039.bmp,,,,,0,232,232,232,,,,,,,,,,,,,,,,,,,,,,,,,,,,,,,,,,,,,,,,,,None,,606.5193576400285,None,606.5193576400285,None,2022-04-05-11:07:22.086083,606.5206471999991,606.8358016000129,606.5206471999991,None,None,606.5206471999991,None,607.3362984400243,None,,,,22006,0001,2022_Apr_05_1057,localizer,2021.1.3,60.02361330856245,
block,faces,faces082.bmp,,,,,0,233,233,233,,,,,,,,,,,,,,,,,,,,,,,,,,,,,,,,,,,,,,,,,,None,,607.3362984400243,None,607.3362984400243,None,2022-04-05-11:07:22.902965,607.337447500031,607.6532623000094,607.337447500031,None,None,607.337447500031,None,608.1364551400417,None,,,,22006,0001,2022_Apr_05_1057,localizer,2021.1.3,60.02361330856245,
block,faces,faces084.bmp,,,,,0,234,234,234,,,,,,,,,,,,,,,,,,,,,,,,,,,,,,,,,,,,,,,,,,None,,608.1364551400417,None,608.1364551400417,None,2022-04-05-11:07:23.705129,608.138309300004,608.4535098000197,608.138309300004,608.138309300004,None,608.138309300004,608.138309300004,608.9526738400106,None,,,,22006,0001,2022_Apr_05_1057,localizer,2021.1.3,60.02361330856245,
block,faces,faces026.bmp,,,,,0,235,235,235,,,,,,,,,,,,,,,,,,,,,,,,,,,,,,,,,,,,,,,,,,None,,608.9526738400106,None,608.9526738400106,None,2022-04-05-11:07:24.519343,608.9902226999984,609.3030415000394,608.9902226999984,None,None,608.9902226999984,None,609.7699067400187,None,,,,22006,0001,2022_Apr_05_1057,localizer,2021.1.3,60.02361330856245,
block,faces,faces064.bmp,,,,,0,236,236,236,,,,,,,,,,,,,,,,,,,,,,,,,,,,,,,,,,,,,,,,,,None,,609.7699067400187,None,609.7699067400187,None,2022-04-05-11:07:25.336570,609.7811111000483,610.0865960000083,609.7811111000483,None,None,609.7811111000483,None,610.5863202400157,None,,,,22006,0001,2022_Apr_05_1057,localizer,2021.1.3,60.02361330856245,
block,faces,faces008.bmp,,,,,0,237,237,237,,,,,,,,,,,,,,,,,,,,,,,,,,,,,,,,,,,,,,,,,,None,,610.5863202400157,None,610.5863202400157,None,2022-04-05-11:07:26.152983,610.598647100036,610.90297190001,610.598647100036,None,None,610.598647100036,None,611.4030153400032,None,,,,22006,0001,2022_Apr_05_1057,localizer,2021.1.3,60.02361330856245,
block,faces,faces061.bmp,,,,,0,238,238,238,,,,,,,,,,,,,,,,,,,,,,,,,,,,,,,,,,,,,,,,,,None,,611.4030153400032,None,611.4030153400032,None,2022-04-05-11:07:26.968861,611.4040976000251,611.7047111000284,611.4040976000251,None,None,611.4040976000251,None,612.2198274400085,None,,,,22006,0001,2022_Apr_05_1057,localizer,2021.1.3,60.02361330856245,
block,faces,faces005.bmp,,,,,0,239,239,239,,,,,,,,,,,,,,,,,,,,,,,,,,,,,,,,,,,,,,,,,,None,,612.2198274400085,None,612.2198274400085,None,2022-04-05-11:07:27.786685,612.2211258000461,612.5431017000228,612.2211258000461,None,None,612.2211258000461,None,613.0361628400511,None,,,,22006,0001,2022_Apr_05_1057,localizer,2021.1.3,60.02361330856245,
block,faces,faces016.bmp,,,,,0,240,240,240,,,,,,,,,,,,,,,,,,,,,,,,,,,,,,,,,,,,,,,,,,None,,613.0361628400511,None,613.0361628400511,None,2022-04-05-11:07:28.603042,613.0371968999971,613.3530574000324,613.0371968999971,None,None,613.0371968999971,None,613.8527402400156,None,,,,22006,0001,2022_Apr_05_1057,localizer,2021.1.3,60.02361330856245,
block,faces,faces002.bmp,,,,,0,241,241,241,,,,,,,,,,,,,,,,,,,,,,,,,,,,,,,,,,,,,,,,,,None,,613.8527402400156,None,613.8527402400156,None,2022-04-05-11:07:29.419593,613.8538013000507,614.1532030000235,613.8538013000507,None,None,613.8538013000507,None,614.6565287400387,None,,,,22006,0001,2022_Apr_05_1057,localizer,2021.1.3,60.02361330856245,
block,faces,faces067.bmp,,,,,0,242,242,242,,,,,,,,,,,,,,,,,,,,,,,,,,,,,,,,,,,,,,,,,,None,,614.6565287400387,None,614.6565287400387,None,2022-04-05-11:07:30.226404,614.6699627000489,614.986066100013,614.6699627000489,614.6699627000489,None,614.6699627000489,614.6699627000489,615.4728283400415,None,,,,22006,0001,2022_Apr_05_1057,localizer,2021.1.3,60.02361330856245,
block_end,faces,faces017.bmp,,,,,0,243,243,243,,,,,,,,,,,,,,,,,,,,,,,,,,,,,,,,,,,,,,,,,,None,,615.4728283400415,None,615.4728283400415,None,2022-04-05-11:07:31.041990,615.4888447000412,615.8036966000218,615.4888447000412,None,None,615.4888447000412,None,616.2855160400155,None,,,,22006,0001,2022_Apr_05_1057,localizer,2021.1.3,60.02361330856245,
,,,,,,,,,,,,,,,,,,,,,,,,,,,,,,,,,,,,,,,,,,,,,,,,,,,,,,,,,,,,,,,,,,,,,616.2856129000429,None,,,,,,,
