block_type,condition,img_name,Button.thisRepN,Button.thisTrialN,Button.thisN,Button.thisIndex,trials.thisRepN,trials.thisTrialN,trials.thisN,trials.thisIndex,Ready_experimenter_text.started,Ready_experimenter_text.stopped,Ready_experimenter_resp.keys,Ready_experimenter_resp.rt,Ready_experimenter_resp.started,Ready_experimenter_resp.stopped,Alignment_background.started,Alignment_background.stopped,Alignment_image.started,Alignment_image.stopped,Alignment_resp.keys,Alignment_resp.rt,Alignment_resp.started,Alignment_resp.stopped,Button_text.started,Button_text.stopped,Index_text.started,Index_text.stopped,Index_resp.keys,Index_resp.rt,Index_resp.started,Index_resp.stopped,Middle_text.started,Middle_text.stopped,Middle_resp.keys,Middle_resp.rt,Middle_resp.started,Middle_resp.stopped,Repeat_text.started,Repeat_text.stopped,Repeat_resp.keys,Repeat_resp.corr,Repeat_resp.rt,Repeat_resp.started,Repeat_resp.stopped,instruction_text.started,instruction_text.stopped,key_resp.keys,key_resp.rt,key_resp.started,key_resp.stopped,scanner_t.keys,scanner_t.rt,scanner_t.started,scanner_t.stopped,fixation_wait_for_t.started,fixation_wait_for_t.stopped,real_timestamp_trial_start,image.started,image.stopped,fixation.started,fixation.stopped,repeat_response.keys,repeat_response.started,repeat_response.stopped,fixation_null.started,fixation_null.stopped,repeat_response.rt,end_text.started,end_text.stopped,participant,run,date,expName,psychopyVersion,frameRate,
,,,,,,,,,,,14.24905340000987,None,return,104.52802189998329,14.24905340000987,None,,,,,,,,,,,,,,,,,,,,,,,,,,,,,,,,,,,,,,,,,,,,,,,,,,,,,,,12006,0002,2021_Nov_16_1140,localizer,2021.1.3,59.679794164809614,
,,,,,,,,,,,,,,,,,118.82083670049906,None,118.82083670049906,None,return,1.5194910997524858,118.82083670049906,None,,,,,,,,,,,,,,,,,,,,,,,,,,,,,,,,,,,,,,,,,,,,,,,12006,0002,2021_Nov_16_1140,localizer,2021.1.3,59.679794164809614,
,,,0,0,0,0,,,,,,,,,,,,,,,,,,,120.3522966997698,None,121.35181890055537,None,y,2.797507400624454,121.35181890055537,None,124.16825240012258,None,b,1.7690342999994755,124.16825240012258,None,125.97537020035088,None,n,0,2.5937697999179363,125.97537020035088,None,,,,,,,,,,,,,,,,,,,,,,,,,,12006,0002,2021_Nov_16_1140,localizer,2021.1.3,59.679794164809614,
,,,,,,,,,,,,,,,,,,,,,,,,,,,,,,,,,,,,,,,,,,,,,,128.58564900048077,None,y,14.999683300033212,128.58564900048077,None,,,,,,,,,,,,,,,,,,,,12006,0002,2021_Nov_16_1140,localizer,2021.1.3,59.679794164809614,
block_start,faces,faces043.bmp,,,,,0,0,0,0,,,,,,,,,,,,,,,,,,,,,,,,,,,,,,,,,,,,,,,,,,t,15.835406399331987,143.62992409989238,None,143.62992409989238,None,2021-11-16-11:43:18.296213,159.49951339978725,159.80236770026386,159.49951339978725,None,None,159.49951339978725,None,160.3030131502077,None,,,,12006,0002,2021_Nov_16_1140,localizer,2021.1.3,59.679794164809614,
block,faces,faces007.bmp,,,,,0,1,1,1,,,,,,,,,,,,,,,,,,,,,,,,,,,,,,,,,,,,,,,,,,None,,160.3030131502077,None,160.3030131502077,None,2021-11-16-11:43:19.117518,160.32034790050238,160.6355106998235,160.32034790050238,None,None,160.32034790050238,None,161.12572244983167,None,,,,12006,0002,2021_Nov_16_1140,localizer,2021.1.3,59.679794164809614,
block,faces,faces081.bmp,,,,,0,2,2,2,,,,,,,,,,,,,,,,,,,,,,,,,,,,,,,,,,,,,,,,,,None,,161.12572244983167,None,161.12572244983167,None,2021-11-16-11:43:19.941066,161.1300729997456,161.43580370023847,161.1300729997456,None,None,161.1300729997456,None,161.9357517497614,None,,,,12006,0002,2021_Nov_16_1140,localizer,2021.1.3,59.679794164809614,
block,faces,faces021.bmp,,,,,0,3,3,3,,,,,,,,,,,,,,,,,,,,,,,,,,,,,,,,,,,,,,,,,,None,,161.9357517497614,None,161.9357517497614,None,2021-11-16-11:43:20.747115,161.94750820007175,162.2525866003707,161.94750820007175,None,None,161.94750820007175,None,162.75277285054327,None,,,,12006,0002,2021_Nov_16_1140,localizer,2021.1.3,59.679794164809614,
block,faces,faces075.bmp,,,,,0,4,4,4,,,,,,,,,,,,,,,,,,,,,,,,,,,,,,,,,,,,,,,,,,None,,162.75277285054327,None,162.75277285054327,None,2021-11-16-11:43:21.564331,162.76367489993572,163.06890489999205,162.76367489993572,None,None,162.76367489993572,None,163.56909295041115,None,,,,12006,0002,2021_Nov_16_1140,localizer,2021.1.3,59.679794164809614,
block,faces,faces052.bmp,,,,,0,5,5,5,,,,,,,,,,,,,,,,,,,,,,,,,,,,,,,,,,,,,,,,,,None,,163.56909295041115,None,163.56909295041115,None,2021-11-16-11:43:22.380932,163.57061529997736,163.8856631005183,163.57061529997736,None,None,163.57061529997736,None,164.38609775025398,None,,,,12006,0002,2021_Nov_16_1140,localizer,2021.1.3,59.679794164809614,
block,faces,faces045.bmp,,,,,0,6,6,6,,,,,,,,,,,,,,,,,,,,,,,,,,,,,,,,,,,,,,,,,,None,,164.38609775025398,None,164.38609775025398,None,2021-11-16-11:43:23.197457,164.39688950031996,164.70248380023986,164.39688950031996,None,None,164.39688950031996,None,165.20239695031196,None,,,,12006,0002,2021_Nov_16_1140,localizer,2021.1.3,59.679794164809614,
block,faces,faces080.bmp,,,,,0,7,7,7,,,,,,,,,,,,,,,,,,,,,,,,,,,,,,,,,,,,,,,,,,None,,165.20239695031196,None,165.20239695031196,None,2021-11-16-11:43:24.013759,165.21455190051347,165.51906049996614,165.21455190051347,None,None,165.21455190051347,None,166.01972745042295,None,,,,12006,0002,2021_Nov_16_1140,localizer,2021.1.3,59.679794164809614,
block,faces,faces033.bmp,,,,,0,8,8,8,,,,,,,,,,,,,,,,,,,,,,,,,,,,,,,,,,,,,,,,,,None,,166.01972745042295,None,166.01972745042295,None,2021-11-16-11:43:24.832076,166.03877579979599,166.35232350043952,166.03877579979599,None,None,166.03877579979599,None,166.83569335062057,None,,,,12006,0002,2021_Nov_16_1140,localizer,2021.1.3,59.679794164809614,
block,faces,faces008.bmp,,,,,0,9,9,9,,,,,,,,,,,,,,,,,,,,,,,,,,,,,,,,,,,,,,,,,,None,,166.83569335062057,None,166.83569335062057,None,2021-11-16-11:43:25.647309,166.8367715002969,167.15239700023085,166.8367715002969,None,None,166.8367715002969,None,167.65257015042008,None,,,,12006,0002,2021_Nov_16_1140,localizer,2021.1.3,59.679794164809614,
block,faces,faces005.bmp,,,,,0,10,10,10,,,,,,,,,,,,,,,,,,,,,,,,,,,,,,,,,,,,,,,,,,None,,167.65257015042008,None,167.65257015042008,None,2021-11-16-11:43:26.464180,167.65339830052108,167.96902239974588,167.65339830052108,None,None,167.65339830052108,None,168.45247855000198,None,,,,12006,0002,2021_Nov_16_1140,localizer,2021.1.3,59.679794164809614,
block,faces,faces014.bmp,,,,,0,11,11,11,,,,,,,,,,,,,,,,,,,,,,,,,,,,,,,,,,,,,,,,,,None,,168.45247855000198,None,168.45247855000198,None,2021-11-16-11:43:27.265903,168.45386660005897,168.7689741998911,168.45386660005897,168.45386660005897,None,168.45386660005897,168.45386660005897,169.2692839499563,None,,,,12006,0002,2021_Nov_16_1140,localizer,2021.1.3,59.679794164809614,
block,faces,faces029.bmp,,,,,0,12,12,12,,,,,,,,,,,,,,,,,,,,,,,,,,,,,,,,,,,,,,,,,,None,,169.2692839499563,None,169.2692839499563,None,2021-11-16-11:43:28.080644,169.285892999731,169.5858974000439,169.285892999731,None,None,169.285892999731,None,170.08679345026613,None,,,,12006,0002,2021_Nov_16_1140,localizer,2021.1.3,59.679794164809614,
block,faces,faces072.bmp,,,,,0,13,13,13,,,,,,,,,,,,,,,,,,,,,,,,,,,,,,,,,,,,,,,,,,None,,170.08679345026613,None,170.08679345026613,None,2021-11-16-11:43:28.896949,170.0868041999638,170.4022797998041,170.0868041999638,None,None,170.0868041999638,None,170.902538850531,None,,,,12006,0002,2021_Nov_16_1140,localizer,2021.1.3,59.679794164809614,
block_end,faces,faces050.bmp,,,,,0,14,14,14,,,,,,,,,,,,,,,,,,,,,,,,,,,,,,,,,,,,,,,,,,None,,170.902538850531,None,170.902538850531,None,2021-11-16-11:43:29.714463,170.91357550024986,171.21917549986392,170.91357550024986,None,None,170.91357550024986,None,171.71908205058426,None,,,,12006,0002,2021_Nov_16_1140,localizer,2021.1.3,59.679794164809614,
block_start,scenes,scenes028.bmp,,,,,0,15,15,15,,,,,,,,,,,,,,,,,,,,,,,,,,,,,,,,,,,,,,,,,,t,1.7462063999846578,171.71911870036274,None,171.71911870036274,None,2021-11-16-11:43:32.297823,173.49730299971998,173.80235350038856,173.49730299971998,None,None,173.49730299971998,None,174.3027736503631,None,,,,12006,0002,2021_Nov_16_1140,localizer,2021.1.3,59.679794164809614,
block,scenes,scenes064.bmp,,,,,0,16,16,16,,,,,,,,,,,,,,,,,,,,,,,,,,,,,,,,,,,,,,,,,,None,,174.3027736503631,None,174.3027736503631,None,2021-11-16-11:43:33.115363,174.30346440058202,174.60616770014167,174.30346440058202,None,None,174.30346440058202,None,175.10251115038992,None,,,,12006,0002,2021_Nov_16_1140,localizer,2021.1.3,59.679794164809614,
block,scenes,scenes016.bmp,,,,,0,17,17,17,,,,,,,,,,,,,,,,,,,,,,,,,,,,,,,,,,,,,,,,,,None,,175.10251115038992,None,175.10251115038992,None,2021-11-16-11:43:33.915320,175.1164624998346,175.42356680054218,175.1164624998346,175.1164624998346,None,175.1164624998346,175.1164624998346,175.91982154976577,None,,,,12006,0002,2021_Nov_16_1140,localizer,2021.1.3,59.679794164809614,
block,scenes,scenes090.bmp,,,,,0,18,18,18,,,,,,,,,,,,,,,,,,,,,,,,,,,,,,,,,,,,,,,,,,None,,175.91982154976577,None,175.91982154976577,None,2021-11-16-11:43:34.732325,175.92196589987725,176.23656390048563,175.92196589987725,None,None,175.92196589987725,None,176.73656064979733,None,,,,12006,0002,2021_Nov_16_1140,localizer,2021.1.3,59.679794164809614,
block,scenes,scenes077.bmp,,,,,0,19,19,19,,,,,,,,,,,,,,,,,,,,,,,,,,,,,,,,,,,,,,,,,,None,,176.73656064979733,None,176.73656064979733,None,2021-11-16-11:43:35.549096,176.7386314002797,177.05305809993297,176.7386314002797,None,None,176.7386314002797,None,177.54242915064097,None,,,,12006,0002,2021_Nov_16_1140,localizer,2021.1.3,59.679794164809614,
block,scenes,scenes018.bmp,,,,,0,20,20,20,,,,,,,,,,,,,,,,,,,,,,,,,,,,,,,,,,,,,,,,,,None,,177.54242915064097,None,177.54242915064097,None,2021-11-16-11:43:36.357733,177.5467525003478,177.85256730020046,177.5467525003478,None,None,177.5467525003478,None,178.35260665006936,None,,,,12006,0002,2021_Nov_16_1140,localizer,2021.1.3,59.679794164809614,
block,scenes,scenes008.bmp,,,,,0,21,21,21,,,,,,,,,,,,,,,,,,,,,,,,,,,,,,,,,,,,,,,,,,None,,178.35260665006936,None,178.35260665006936,None,2021-11-16-11:43:37.163970,178.35337460041046,178.66891460027546,178.35337460041046,None,None,178.35337460041046,None,179.15247144978494,None,,,,12006,0002,2021_Nov_16_1140,localizer,2021.1.3,59.679794164809614,
block,scenes,scenes009.bmp,,,,,0,22,22,22,,,,,,,,,,,,,,,,,,,,,,,,,,,,,,,,,,,,,,,,,,None,,179.15247144978494,None,179.15247144978494,None,2021-11-16-11:43:37.964833,179.163547700271,179.4691732004285,179.163547700271,179.163547700271,None,179.163547700271,179.163547700271,179.96940955016763,None,,,,12006,0002,2021_Nov_16_1140,localizer,2021.1.3,59.679794164809614,
block,scenes,scenes085.bmp,,,,,0,23,23,23,,,,,,,,,,,,,,,,,,,,,,,,,,,,,,,,,,,,,,,,,,None,,179.96940955016763,None,179.96940955016763,None,2021-11-16-11:43:38.780769,179.9767701998353,180.28581750020385,179.9767701998353,None,None,179.9767701998353,None,180.78589655049146,None,,,,12006,0002,2021_Nov_16_1140,localizer,2021.1.3,59.679794164809614,
block,scenes,scenes085.bmp,,,,,0,24,24,24,,,,,,,,,,,,,,,,,,,,,,,,,,,,,,,,,,,,,,,,,,None,,180.78589655049146,None,180.78589655049146,None,2021-11-16-11:43:39.597438,180.78675470035523,181.10222620051354,180.78675470035523,None,y,180.78675470035523,None,181.5860086498782,None,0.5232916995882988,,,12006,0002,2021_Nov_16_1140,localizer,2021.1.3,59.679794164809614,
block,scenes,scenes003.bmp,,,,,0,25,25,25,,,,,,,,,,,,,,,,,,,,,,,,,,,,,,,,,,,,,,,,,,None,,181.5860086498782,None,181.5860086498782,None,2021-11-16-11:43:40.399365,181.58734459988773,181.9025284005329,181.58734459988773,181.58734459988773,None,181.58734459988773,181.58734459988773,182.40241965055466,None,,,,12006,0002,2021_Nov_16_1140,localizer,2021.1.3,59.679794164809614,
block,scenes,scenes056.bmp,,,,,0,26,26,26,,,,,,,,,,,,,,,,,,,,,,,,,,,,,,,,,,,,,,,,,,None,,182.40241965055466,None,182.40241965055466,None,2021-11-16-11:43:41.213784,182.40341509971768,182.7032511997968,182.40341509971768,None,None,182.40341509971768,None,183.20322835035623,None,,,,12006,0002,2021_Nov_16_1140,localizer,2021.1.3,59.679794164809614,
block,scenes,scenes005.bmp,,,,,0,27,27,27,,,,,,,,,,,,,,,,,,,,,,,,,,,,,,,,,,,,,,,,,,None,,183.20322835035623,None,183.20322835035623,None,2021-11-16-11:43:42.017552,183.20625950023532,183.51913060061634,183.20625950023532,183.20625950023532,None,183.20625950023532,183.20625950023532,184.01948464997113,None,,,,12006,0002,2021_Nov_16_1140,localizer,2021.1.3,59.679794164809614,
block,scenes,scenes068.bmp,,,,,0,28,28,28,,,,,,,,,,,,,,,,,,,,,,,,,,,,,,,,,,,,,,,,,,None,,184.01948464997113,None,184.01948464997113,None,2021-11-16-11:43:42.830810,184.0201246002689,184.32043670024723,184.0201246002689,None,None,184.0201246002689,None,184.81940675023944,None,,,,12006,0002,2021_Nov_16_1140,localizer,2021.1.3,59.679794164809614,
block_end,scenes,scenes021.bmp,,,,,0,29,29,29,,,,,,,,,,,,,,,,,,,,,,,,,,,,,,,,,,,,,,,,,,None,,184.81940675023944,None,184.81940675023944,None,2021-11-16-11:43:43.632352,184.8206609999761,185.13610129989684,184.8206609999761,184.8206609999761,None,184.8206609999761,184.8206609999761,185.63609285056592,None,,,,12006,0002,2021_Nov_16_1140,localizer,2021.1.3,59.679794164809614,
null_block,null_block,null_block.bmp,,,,,0,30,30,30,,,,,,,,,,,,,,,,,,,,,,,,,,,,,,,,,,,,,,,,,,t,1.8292630007490516,185.63601979985833,None,185.63601979985833,None,2021-11-16-11:43:46.299101,187.48655785024167,None,187.48655785024167,None,None,187.48655785024167,None,187.49344130046666,None,,,,12006,0002,2021_Nov_16_1140,localizer,2021.1.3,59.679794164809614,
block_start,scrambled,scrambled069.bmp,,,,,0,31,31,31,,,,,,,,,,,,,,,,,,,,,,,,,,,,,,,,,,,,,,,,,,t,1.9603786002844572,199.50379480049014,None,199.50379480049014,None,2021-11-16-11:44:00.298420,201.49815400037915,201.8030866999179,201.49815400037915,None,None,201.49815400037915,None,202.30253665018827,None,,,,12006,0002,2021_Nov_16_1140,localizer,2021.1.3,59.679794164809614,
block,scrambled,scrambled075.bmp,,,,,0,32,32,32,,,,,,,,,,,,,,,,,,,,,,,,,,,,,,,,,,,,,,,,,,None,,202.30253665018827,None,202.30253665018827,None,2021-11-16-11:44:01.113902,202.31272040028125,202.61920570023358,202.31272040028125,None,None,202.31272040028125,None,203.1194411503151,None,,,,12006,0002,2021_Nov_16_1140,localizer,2021.1.3,59.679794164809614,
block,scrambled,scrambled019.bmp,,,,,0,33,33,33,,,,,,,,,,,,,,,,,,,,,,,,,,,,,,,,,,,,,,,,,,None,,203.1194411503151,None,203.1194411503151,None,2021-11-16-11:44:01.930998,203.12025700043887,203.41930640023202,203.12025700043887,None,None,203.12025700043887,None,203.92055545058102,None,,,,12006,0002,2021_Nov_16_1140,localizer,2021.1.3,59.679794164809614,
block,scrambled,scrambled084.bmp,,,,,0,34,34,34,,,,,,,,,,,,,,,,,,,,,,,,,,,,,,,,,,,,,,,,,,None,,203.92055545058102,None,203.92055545058102,None,2021-11-16-11:44:02.737855,203.93806670047343,204.2530433004722,203.93806670047343,203.93806670047343,None,203.93806670047343,203.93806670047343,204.73631044998766,None,,,,12006,0002,2021_Nov_16_1140,localizer,2021.1.3,59.679794164809614,
block,scrambled,scrambled041.bmp,,,,,0,35,35,35,,,,,,,,,,,,,,,,,,,,,,,,,,,,,,,,,,,,,,,,,,None,,204.73631044998766,None,204.73631044998766,None,2021-11-16-11:44:03.547668,204.73700360022485,205.03615840058774,204.73700360022485,None,None,204.73700360022485,None,205.55250215027482,None,,,,12006,0002,2021_Nov_16_1140,localizer,2021.1.3,59.679794164809614,
block,scrambled,scrambled010.bmp,,,,,0,36,36,36,,,,,,,,,,,,,,,,,,,,,,,,,,,,,,,,,,,,,,,,,,None,,205.55250215027482,None,205.55250215027482,None,2021-11-16-11:44:04.364127,205.56204900052398,205.86928089987487,205.56204900052398,None,None,205.56204900052398,None,206.36964565012605,None,,,,12006,0002,2021_Nov_16_1140,localizer,2021.1.3,59.679794164809614,
block,scrambled,scrambled036.bmp,,,,,0,37,37,37,,,,,,,,,,,,,,,,,,,,,,,,,,,,,,,,,,,,,,,,,,None,,206.36964565012605,None,206.36964565012605,None,2021-11-16-11:44:05.182204,206.3703193999827,206.66957650054246,206.3703193999827,None,None,206.3703193999827,None,207.1860747501254,None,,,,12006,0002,2021_Nov_16_1140,localizer,2021.1.3,59.679794164809614,
block,scrambled,scrambled053.bmp,,,,,0,38,38,38,,,,,,,,,,,,,,,,,,,,,,,,,,,,,,,,,,,,,,,,,,None,,207.1860747501254,None,207.1860747501254,None,2021-11-16-11:44:05.997714,207.18686079978943,207.48593060020357,207.18686079978943,None,None,207.18686079978943,None,207.9872441502288,None,,,,12006,0002,2021_Nov_16_1140,localizer,2021.1.3,59.679794164809614,
block,scrambled,scrambled050.bmp,,,,,0,39,39,39,,,,,,,,,,,,,,,,,,,,,,,,,,,,,,,,,,,,,,,,,,None,,207.9872441502288,None,207.9872441502288,None,2021-11-16-11:44:06.804722,208.0045785997063,208.31927850004286,208.0045785997063,208.0045785997063,None,208.0045785997063,208.0045785997063,208.80276885032654,None,,,,12006,0002,2021_Nov_16_1140,localizer,2021.1.3,59.679794164809614,
block,scrambled,scrambled063.bmp,,,,,0,40,40,40,,,,,,,,,,,,,,,,,,,,,,,,,,,,,,,,,,,,,,,,,,None,,208.80276885032654,None,208.80276885032654,None,2021-11-16-11:44:07.613953,208.80344520043582,209.10575430002064,208.80344520043582,None,None,208.80344520043582,None,209.60901625044644,None,,,,12006,0002,2021_Nov_16_1140,localizer,2021.1.3,59.679794164809614,
block,scrambled,scrambled067.bmp,,,,,0,41,41,41,,,,,,,,,,,,,,,,,,,,,,,,,,,,,,,,,,,,,,,,,,None,,209.60901625044644,None,209.60901625044644,None,2021-11-16-11:44:08.428341,209.62707789987326,209.9360901005566,209.62707789987326,None,None,209.62707789987326,None,210.41977675035596,None,,,,12006,0002,2021_Nov_16_1140,localizer,2021.1.3,59.679794164809614,
block,scrambled,scrambled022.bmp,,,,,0,42,42,42,,,,,,,,,,,,,,,,,,,,,,,,,,,,,,,,,,,,,,,,,,None,,210.41977675035596,None,210.41977675035596,None,2021-11-16-11:44:09.232435,210.42061910033226,210.73586750030518,210.42061910033226,None,None,210.42061910033226,None,211.23600904978812,None,,,,12006,0002,2021_Nov_16_1140,localizer,2021.1.3,59.679794164809614,
block,scrambled,scrambled080.bmp,,,,,0,43,43,43,,,,,,,,,,,,,,,,,,,,,,,,,,,,,,,,,,,,,,,,,,None,,211.23600904978812,None,211.23600904978812,None,2021-11-16-11:44:10.047373,211.24593560025096,211.55276229977608,211.24593560025096,None,None,211.24593560025096,None,212.05483275055886,None,,,,12006,0002,2021_Nov_16_1140,localizer,2021.1.3,59.679794164809614,
block,scrambled,scrambled025.bmp,,,,,0,44,44,44,,,,,,,,,,,,,,,,,,,,,,,,,,,,,,,,,,,,,,,,,,None,,212.05483275055886,None,212.05483275055886,None,2021-11-16-11:44:10.870332,212.07177270017564,212.38580759987235,212.07177270017564,None,None,212.07177270017564,None,212.86962804999203,None,,,,12006,0002,2021_Nov_16_1140,localizer,2021.1.3,59.679794164809614,
block_end,scrambled,scrambled073.bmp,,,,,0,45,45,45,,,,,,,,,,,,,,,,,,,,,,,,,,,,,,,,,,,,,,,,,,None,,212.86962804999203,None,212.86962804999203,None,2021-11-16-11:44:11.680988,212.87945600040257,213.18654290027916,212.87945600040257,None,None,212.87945600040257,None,213.68605675045401,None,,,,12006,0002,2021_Nov_16_1140,localizer,2021.1.3,59.679794164809614,
block_start,objects,objects005.bmp,,,,,0,46,46,46,,,,,,,,,,,,,,,,,,,,,,,,,,,,,,,,,,,,,,,,,,t,1.7783010993152857,213.68598620034754,None,213.68598620034754,None,2021-11-16-11:44:14.295835,215.49613660015166,215.80257089994848,215.49613660015166,None,None,215.49613660015166,None,216.3025873504579,None,,,,12006,0002,2021_Nov_16_1140,localizer,2021.1.3,59.679794164809614,
block,objects,objects067.bmp,,,,,0,47,47,47,,,,,,,,,,,,,,,,,,,,,,,,,,,,,,,,,,,,,,,,,,None,,216.3025873504579,None,216.3025873504579,None,2021-11-16-11:44:15.114760,216.3094412004575,216.6194502003491,216.3094412004575,None,None,216.3094412004575,None,217.11962674986572,None,,,,12006,0002,2021_Nov_16_1140,localizer,2021.1.3,59.679794164809614,
block,objects,objects008.bmp,,,,,0,48,48,48,,,,,,,,,,,,,,,,,,,,,,,,,,,,,,,,,,,,,,,,,,None,,217.11962674986572,None,217.11962674986572,None,2021-11-16-11:44:15.931200,217.13054460007697,217.43701979983598,217.13054460007697,None,None,217.13054460007697,None,217.93596745058895,None,,,,12006,0002,2021_Nov_16_1140,localizer,2021.1.3,59.679794164809614,
block,objects,objects040.bmp,,,,,0,49,49,49,,,,,,,,,,,,,,,,,,,,,,,,,,,,,,,,,,,,,,,,,,None,,217.93596745058895,None,217.93596745058895,None,2021-11-16-11:44:16.747547,217.94527180027217,218.2527688005939,217.94527180027217,None,None,217.94527180027217,None,218.75328265000135,None,,,,12006,0002,2021_Nov_16_1140,localizer,2021.1.3,59.679794164809614,
block,objects,objects032.bmp,,,,,0,50,50,50,,,,,,,,,,,,,,,,,,,,,,,,,,,,,,,,,,,,,,,,,,None,,218.75328265000135,None,218.75328265000135,None,2021-11-16-11:44:17.565768,218.75509520061314,219.06917749997228,218.75509520061314,None,None,218.75509520061314,None,219.56955354996026,None,,,,12006,0002,2021_Nov_16_1140,localizer,2021.1.3,59.679794164809614,
block,objects,objects065.bmp,,,,,0,51,51,51,,,,,,,,,,,,,,,,,,,,,,,,,,,,,,,,,,,,,,,,,,None,,219.56955354996026,None,219.56955354996026,None,2021-11-16-11:44:18.381134,219.58329960051924,219.88621459994465,219.58329960051924,None,None,219.58329960051924,None,220.38668855056167,None,,,,12006,0002,2021_Nov_16_1140,localizer,2021.1.3,59.679794164809614,
block,objects,objects071.bmp,,,,,0,52,52,52,,,,,,,,,,,,,,,,,,,,,,,,,,,,,,,,,,,,,,,,,,None,,220.38668855056167,None,220.38668855056167,None,2021-11-16-11:44:19.199018,220.39827600028366,220.70258649997413,220.39827600028366,None,None,220.39827600028366,None,221.20495094973595,None,,,,12006,0002,2021_Nov_16_1140,localizer,2021.1.3,59.679794164809614,
block,objects,objects054.bmp,,,,,0,53,53,53,,,,,,,,,,,,,,,,,,,,,,,,,,,,,,,,,,,,,,,,,,None,,221.20495094973595,None,221.20495094973595,None,2021-11-16-11:44:20.019982,221.21113719977438,221.51994340028614,221.21113719977438,None,None,221.21113719977438,None,222.019275550358,None,,,,12006,0002,2021_Nov_16_1140,localizer,2021.1.3,59.679794164809614,
block,objects,objects050.bmp,,,,,0,54,54,54,,,,,,,,,,,,,,,,,,,,,,,,,,,,,,,,,,,,,,,,,,None,,222.019275550358,None,222.019275550358,None,2021-11-16-11:44:20.830637,222.02130519971251,222.3359375,222.02130519971251,None,None,222.02130519971251,None,222.8361063502729,None,,,,12006,0002,2021_Nov_16_1140,localizer,2021.1.3,59.679794164809614,
block,objects,objects018.bmp,,,,,0,55,55,55,,,,,,,,,,,,,,,,,,,,,,,,,,,,,,,,,,,,,,,,,,None,,222.8361063502729,None,222.8361063502729,None,2021-11-16-11:44:21.647721,222.8368735006079,223.15264939982444,222.8368735006079,None,None,222.8368735006079,None,223.63597235046328,None,,,,12006,0002,2021_Nov_16_1140,localizer,2021.1.3,59.679794164809614,
block,objects,objects001.bmp,,,,,0,56,56,56,,,,,,,,,,,,,,,,,,,,,,,,,,,,,,,,,,,,,,,,,,None,,223.63597235046328,None,223.63597235046328,None,2021-11-16-11:44:22.448336,223.63697629980743,223.93661439977586,223.63697629980743,223.63697629980743,None,223.63697629980743,223.63697629980743,224.4363696506247,None,,,,12006,0002,2021_Nov_16_1140,localizer,2021.1.3,59.679794164809614,
block,objects,objects003.bmp,,,,,0,57,57,57,,,,,,,,,,,,,,,,,,,,,,,,,,,,,,,,,,,,,,,,,,None,,224.4363696506247,None,224.4363696506247,None,2021-11-16-11:44:23.250924,224.43928780034184,224.75269290059805,224.43928780034184,224.43928780034184,None,224.43928780034184,224.43928780034184,225.25271655023099,None,,,,12006,0002,2021_Nov_16_1140,localizer,2021.1.3,59.679794164809614,
block,objects,objects073.bmp,,,,,0,58,58,58,,,,,,,,,,,,,,,,,,,,,,,,,,,,,,,,,,,,,,,,,,None,,225.25271655023099,None,225.25271655023099,None,2021-11-16-11:44:24.064301,225.26262560021132,225.56936920061707,225.26262560021132,None,None,225.26262560021132,None,226.06928345058114,None,,,,12006,0002,2021_Nov_16_1140,localizer,2021.1.3,59.679794164809614,
block,objects,objects070.bmp,,,,,0,59,59,59,,,,,,,,,,,,,,,,,,,,,,,,,,,,,,,,,,,,,,,,,,None,,226.06928345058114,None,226.06928345058114,None,2021-11-16-11:44:24.880647,226.07028769981116,226.36943880002946,226.07028769981116,None,None,226.07028769981116,None,226.86935775037855,None,,,,12006,0002,2021_Nov_16_1140,localizer,2021.1.3,59.679794164809614,
block_end,objects,objects058.bmp,,,,,0,60,60,60,,,,,,,,,,,,,,,,,,,,,,,,,,,,,,,,,,,,,,,,,,None,,226.86935775037855,None,226.86935775037855,None,2021-11-16-11:44:25.681686,226.87039980012923,227.1861573997885,226.87039980012923,226.87039980012923,None,226.87039980012923,226.87039980012923,227.67062715031207,None,,,,12006,0002,2021_Nov_16_1140,localizer,2021.1.3,59.679794164809614,
block_start,faces,faces018.bmp,,,,,0,61,61,61,,,,,,,,,,,,,,,,,,,,,,,,,,,,,,,,,,,,,,,,,,t,1.792794299311936,227.67147540021688,None,227.67147540021688,None,2021-11-16-11:44:28.300823,229.49670390039682,229.80251690000296,229.49670390039682,None,None,229.49670390039682,None,230.30278565045447,None,,,,12006,0002,2021_Nov_16_1140,localizer,2021.1.3,59.679794164809614,
block,faces,faces022.bmp,,,,,0,62,62,62,,,,,,,,,,,,,,,,,,,,,,,,,,,,,,,,,,,,,,,,,,None,,230.30278565045447,None,230.30278565045447,None,2021-11-16-11:44:29.113874,230.3036428000778,230.61936150025576,230.3036428000778,None,None,230.3036428000778,None,231.1098735505715,None,,,,12006,0002,2021_Nov_16_1140,localizer,2021.1.3,59.679794164809614,
block,faces,faces032.bmp,,,,,0,63,63,63,,,,,,,,,,,,,,,,,,,,,,,,,,,,,,,,,,,,,,,,,,None,,231.1098735505715,None,231.1098735505715,None,2021-11-16-11:44:29.927877,231.12353979982436,231.4360646000132,231.12353979982436,None,None,231.12353979982436,None,231.9199774503708,None,,,,12006,0002,2021_Nov_16_1140,localizer,2021.1.3,59.679794164809614,
block,faces,faces032.bmp,,,,,0,64,64,64,,,,,,,,,,,,,,,,,,,,,,,,,,,,,,,,,,,,,,,,,,None,,231.9199774503708,None,231.9199774503708,None,2021-11-16-11:44:30.732447,231.92069230042398,232.23651980049908,231.92069230042398,None,None,231.92069230042398,None,232.73599975053222,None,,,,12006,0002,2021_Nov_16_1140,localizer,2021.1.3,59.679794164809614,
block,faces,faces019.bmp,,,,,0,65,65,65,,,,,,,,,,,,,,,,,,,,,,,,,,,,,,,,,,,,,,,,,,None,,232.73599975053222,None,232.73599975053222,None,2021-11-16-11:44:31.547365,232.75118810031563,233.0527076004073,232.75118810031563,None,y,232.75118810031563,None,233.55279265027494,None,0.13297520019114017,,,12006,0002,2021_Nov_16_1140,localizer,2021.1.3,59.679794164809614,
block,faces,faces046.bmp,,,,,0,66,66,66,,,,,,,,,,,,,,,,,,,,,,,,,,,,,,,,,,,,,,,,,,None,,233.55279265027494,None,233.55279265027494,None,2021-11-16-11:44:32.364154,233.55362750031054,233.85268920008093,233.55362750031054,None,None,233.55362750031054,None,234.3691778505221,None,,,,12006,0002,2021_Nov_16_1140,localizer,2021.1.3,59.679794164809614,
block,faces,faces009.bmp,,,,,0,67,67,67,,,,,,,,,,,,,,,,,,,,,,,,,,,,,,,,,,,,,,,,,,None,,234.3691778505221,None,234.3691778505221,None,2021-11-16-11:44:33.180506,234.37981620058417,234.68579640053213,234.37981620058417,None,None,234.37981620058417,None,235.1861800501123,None,,,,12006,0002,2021_Nov_16_1140,localizer,2021.1.3,59.679794164809614,
block,faces,faces067.bmp,,,,,0,68,68,68,,,,,,,,,,,,,,,,,,,,,,,,,,,,,,,,,,,,,,,,,,None,,235.1861800501123,None,235.1861800501123,None,2021-11-16-11:44:33.997541,235.1869884999469,235.48610940016806,235.1869884999469,None,None,235.1869884999469,None,235.98732825051994,None,,,,12006,0002,2021_Nov_16_1140,localizer,2021.1.3,59.679794164809614,
block,faces,faces062.bmp,,,,,0,69,69,69,,,,,,,,,,,,,,,,,,,,,,,,,,,,,,,,,,,,,,,,,,None,,235.98732825051994,None,235.98732825051994,None,2021-11-16-11:44:34.802659,235.99135950021446,236.3035279000178,235.99135950021446,235.99135950021446,None,235.99135950021446,235.99135950021446,236.80298075042666,None,,,,12006,0002,2021_Nov_16_1140,localizer,2021.1.3,59.679794164809614,
block,faces,faces048.bmp,,,,,0,70,70,70,,,,,,,,,,,,,,,,,,,,,,,,,,,,,,,,,,,,,,,,,,None,,236.80298075042666,None,236.80298075042666,None,2021-11-16-11:44:35.614344,236.81398370023817,237.11979479994625,236.81398370023817,None,None,236.81398370023817,None,237.60954815018923,None,,,,12006,0002,2021_Nov_16_1140,localizer,2021.1.3,59.679794164809614,
block,faces,faces066.bmp,,,,,0,71,71,71,,,,,,,,,,,,,,,,,,,,,,,,,,,,,,,,,,,,,,,,,,None,,237.60954815018923,None,237.60954815018923,None,2021-11-16-11:44:36.426695,237.62791430018842,237.93596100062132,237.62791430018842,None,None,237.62791430018842,None,238.4194623498246,None,,,,12006,0002,2021_Nov_16_1140,localizer,2021.1.3,59.679794164809614,
block,faces,faces056.bmp,,,,,0,72,72,72,,,,,,,,,,,,,,,,,,,,,,,,,,,,,,,,,,,,,,,,,,None,,238.4194623498246,None,238.4194623498246,None,2021-11-16-11:44:37.230825,238.42580570001155,238.73569320049137,238.42580570001155,None,None,238.42580570001155,None,239.23628945052624,None,,,,12006,0002,2021_Nov_16_1140,localizer,2021.1.3,59.679794164809614,
block,faces,faces026.bmp,,,,,0,73,73,73,,,,,,,,,,,,,,,,,,,,,,,,,,,,,,,,,,,,,,,,,,None,,239.23628945052624,None,239.23628945052624,None,2021-11-16-11:44:38.047648,239.2369795003906,239.5526625001803,239.2369795003906,None,None,239.2369795003906,None,240.03628965057433,None,,,,12006,0002,2021_Nov_16_1140,localizer,2021.1.3,59.679794164809614,
block,faces,faces057.bmp,,,,,0,74,74,74,,,,,,,,,,,,,,,,,,,,,,,,,,,,,,,,,,,,,,,,,,None,,240.03628965057433,None,240.03628965057433,None,2021-11-16-11:44:38.849646,240.03760090004653,240.35277870018035,240.03760090004653,240.03760090004653,None,240.03760090004653,240.03760090004653,240.83702124990523,None,,,,12006,0002,2021_Nov_16_1140,localizer,2021.1.3,59.679794164809614,
block_end,faces,faces015.bmp,,,,,0,75,75,75,,,,,,,,,,,,,,,,,,,,,,,,,,,,,,,,,,,,,,,,,,None,,240.83702124990523,None,240.83702124990523,None,2021-11-16-11:44:39.650800,240.83937870059162,241.15267660003155,240.83937870059162,240.83937870059162,None,240.83937870059162,240.83937870059162,241.6529367506504,None,,,,12006,0002,2021_Nov_16_1140,localizer,2021.1.3,59.679794164809614,
null_block,null_block,null_block.bmp,,,,,0,76,76,76,,,,,,,,,,,,,,,,,,,,,,,,,,,,,,,,,,,,,,,,,,t,1.8112947000190616,241.65291010029614,None,241.65291010029614,None,2021-11-16-11:44:42.300995,243.4875028502196,None,243.4875028502196,None,None,243.4875028502196,None,243.4952630000189,None,,,,12006,0002,2021_Nov_16_1140,localizer,2021.1.3,59.679794164809614,
block_start,scrambled,scrambled086.bmp,,,,,0,77,77,77,,,,,,,,,,,,,,,,,,,,,,,,,,,,,,,,,,,,,,,,,,t,1.961438799276948,255.50284059997648,None,255.50284059997648,None,2021-11-16-11:44:56.298695,257.486972800456,257.7861553998664,257.486972800456,None,None,257.486972800456,None,258.28644455000756,None,,,,12006,0002,2021_Nov_16_1140,localizer,2021.1.3,59.679794164809614,
block,scrambled,scrambled074.bmp,,,,,0,78,78,78,,,,,,,,,,,,,,,,,,,,,,,,,,,,,,,,,,,,,,,,,,None,,258.28644455000756,None,258.28644455000756,None,2021-11-16-11:44:57.099988,258.2882097000256,258.58578650001436,258.2882097000256,258.2882097000256,None,258.2882097000256,258.2882097000256,259.103203250654,None,,,,12006,0002,2021_Nov_16_1140,localizer,2021.1.3,59.679794164809614,
block,scrambled,scrambled075.bmp,,,,,0,79,79,79,,,,,,,,,,,,,,,,,,,,,,,,,,,,,,,,,,,,,,,,,,None,,259.103203250654,None,259.103203250654,None,2021-11-16-11:44:57.914562,259.1038028001785,259.41951080039144,259.1038028001785,None,None,259.1038028001785,None,259.9030688503757,None,,,,12006,0002,2021_Nov_16_1140,localizer,2021.1.3,59.679794164809614,
block,scrambled,scrambled033.bmp,,,,,0,80,80,80,,,,,,,,,,,,,,,,,,,,,,,,,,,,,,,,,,,,,,,,,,None,,259.9030688503757,None,259.9030688503757,None,2021-11-16-11:44:58.716656,259.94447899982333,260.25356139987707,259.94447899982333,259.94447899982333,None,259.94447899982333,259.94447899982333,260.72096295058725,None,,,,12006,0002,2021_Nov_16_1140,localizer,2021.1.3,59.679794164809614,
block,scrambled,scrambled070.bmp,,,,,0,81,81,81,,,,,,,,,,,,,,,,,,,,,,,,,,,,,,,,,,,,,,,,,,None,,260.72096295058725,None,260.72096295058725,None,2021-11-16-11:44:59.533500,260.7233746005222,261.0365351000801,260.7233746005222,None,None,260.7233746005222,None,261.53645284995434,None,,,,12006,0002,2021_Nov_16_1140,localizer,2021.1.3,59.679794164809614,
block,scrambled,scrambled053.bmp,,,,,0,82,82,82,,,,,,,,,,,,,,,,,,,,,,,,,,,,,,,,,,,,,,,,,,None,,261.53645284995434,None,261.53645284995434,None,2021-11-16-11:45:00.348028,261.53713089972734,261.8359345998615,261.53713089972734,None,None,261.53713089972734,None,262.3374858504161,None,,,,12006,0002,2021_Nov_16_1140,localizer,2021.1.3,59.679794164809614,
block,scrambled,scrambled029.bmp,,,,,0,83,83,83,,,,,,,,,,,,,,,,,,,,,,,,,,,,,,,,,,,,,,,,,,None,,262.3374858504161,None,262.3374858504161,None,2021-11-16-11:45:01.154043,262.35435910057276,262.6695269998163,262.35435910057276,262.35435910057276,None,262.35435910057276,262.35435910057276,263.1529426505789,None,,,,12006,0002,2021_Nov_16_1140,localizer,2021.1.3,59.679794164809614,
block,scrambled,scrambled001.bmp,,,,,0,84,84,84,,,,,,,,,,,,,,,,,,,,,,,,,,,,,,,,,,,,,,,,,,None,,263.1529426505789,None,263.1529426505789,None,2021-11-16-11:45:01.964306,263.1620041001588,263.46959550026804,263.1620041001588,None,None,263.1620041001588,None,263.96984215043483,None,,,,12006,0002,2021_Nov_16_1140,localizer,2021.1.3,59.679794164809614,
block,scrambled,scrambled003.bmp,,,,,0,85,85,85,,,,,,,,,,,,,,,,,,,,,,,,,,,,,,,,,,,,,,,,,,None,,263.96984215043483,None,263.96984215043483,None,2021-11-16-11:45:02.781203,263.98071509972215,264.2867173999548,263.98071509972215,None,None,263.98071509972215,None,264.78967175036667,None,,,,12006,0002,2021_Nov_16_1140,localizer,2021.1.3,59.679794164809614,
block,scrambled,scrambled081.bmp,,,,,0,86,86,86,,,,,,,,,,,,,,,,,,,,,,,,,,,,,,,,,,,,,,,,,,None,,264.78967175036667,None,264.78967175036667,None,2021-11-16-11:45:03.604905,264.79492540005594,265.10325680021197,264.79492540005594,None,None,264.79492540005594,None,265.602810450457,None,,,,12006,0002,2021_Nov_16_1140,localizer,2021.1.3,59.679794164809614,
block,scrambled,scrambled016.bmp,,,,,0,87,87,87,,,,,,,,,,,,,,,,,,,,,,,,,,,,,,,,,,,,,,,,,,None,,265.602810450457,None,265.602810450457,None,2021-11-16-11:45:04.414177,265.61119470000267,265.9196167001501,265.61119470000267,None,None,265.61119470000267,None,266.4198594499379,None,,,,12006,0002,2021_Nov_16_1140,localizer,2021.1.3,59.679794164809614,
block,scrambled,scrambled080.bmp,,,,,0,88,88,88,,,,,,,,,,,,,,,,,,,,,,,,,,,,,,,,,,,,,,,,,,None,,266.4198594499379,None,266.4198594499379,None,2021-11-16-11:45:05.231425,266.4205637006089,266.7361208004877,266.4205637006089,None,None,266.4205637006089,None,267.2197145499289,None,,,,12006,0002,2021_Nov_16_1140,localizer,2021.1.3,59.679794164809614,
block,scrambled,scrambled027.bmp,,,,,0,89,89,89,,,,,,,,,,,,,,,,,,,,,,,,,,,,,,,,,,,,,,,,,,None,,267.2197145499289,None,267.2197145499289,None,2021-11-16-11:45:06.033072,267.22102070041,267.5363293001428,267.22102070041,267.22102070041,None,267.22102070041,267.22102070041,268.03652225024996,None,,,,12006,0002,2021_Nov_16_1140,localizer,2021.1.3,59.679794164809614,
block,scrambled,scrambled031.bmp,,,,,0,90,90,90,,,,,,,,,,,,,,,,,,,,,,,,,,,,,,,,,,,,,,,,,,None,,268.03652225024996,None,268.03652225024996,None,2021-11-16-11:45:06.847883,268.0372112998739,268.33642620034516,268.0372112998739,None,None,268.0372112998739,None,268.83701635021714,None,,,,12006,0002,2021_Nov_16_1140,localizer,2021.1.3,59.679794164809614,
block_end,scrambled,scrambled042.bmp,,,,,0,91,91,91,,,,,,,,,,,,,,,,,,,,,,,,,,,,,,,,,,,,,,,,,,None,,268.83701635021714,None,268.83701635021714,None,2021-11-16-11:45:07.650407,268.8374509001151,269.152919200249,268.8374509001151,268.8374509001151,None,268.8374509001151,268.8374509001151,269.63840735014526,None,,,,12006,0002,2021_Nov_16_1140,localizer,2021.1.3,59.679794164809614,
block_start,objects,objects019.bmp,,,,,0,92,92,92,,,,,,,,,,,,,,,,,,,,,,,,,,,,,,,,,,,,,,,,,,t,1.825492799282074,269.63859650027007,None,269.63859650027007,None,2021-11-16-11:45:10.297647,271.48716989997774,271.8029241003096,271.48716989997774,None,None,271.48716989997774,None,272.2876628503203,None,,,,12006,0002,2021_Nov_16_1140,localizer,2021.1.3,59.679794164809614,
block,objects,objects025.bmp,,,,,0,93,93,93,,,,,,,,,,,,,,,,,,,,,,,,,,,,,,,,,,,,,,,,,,None,,272.2876628503203,None,272.2876628503203,None,2021-11-16-11:45:11.104993,272.3042943002656,272.6196023002267,272.3042943002656,272.3042943002656,None,272.3042943002656,272.3042943002656,273.1030641501769,None,,,,12006,0002,2021_Nov_16_1140,localizer,2021.1.3,59.679794164809614,
block,objects,objects087.bmp,,,,,0,94,94,94,,,,,,,,,,,,,,,,,,,,,,,,,,,,,,,,,,,,,,,,,,None,,273.1030641501769,None,273.1030641501769,None,2021-11-16-11:45:11.914427,273.1125356005505,273.41968130040914,273.1125356005505,None,None,273.1125356005505,None,273.9197361502796,None,,,,12006,0002,2021_Nov_16_1140,localizer,2021.1.3,59.679794164809614,
block,objects,objects076.bmp,,,,,0,95,95,95,,,,,,,,,,,,,,,,,,,,,,,,,,,,,,,,,,,,,,,,,,None,,273.9197361502796,None,273.9197361502796,None,2021-11-16-11:45:12.731095,273.92916580010206,274.2362195001915,273.92916580010206,None,None,273.92916580010206,None,274.7366680499166,None,,,,12006,0002,2021_Nov_16_1140,localizer,2021.1.3,59.679794164809614,
block,objects,objects085.bmp,,,,,0,96,96,96,,,,,,,,,,,,,,,,,,,,,,,,,,,,,,,,,,,,,,,,,,None,,274.7366680499166,None,274.7366680499166,None,2021-11-16-11:45:13.549023,274.7477561002597,275.05290460027754,274.7477561002597,None,None,274.7477561002597,None,275.5537641501054,None,,,,12006,0002,2021_Nov_16_1140,localizer,2021.1.3,59.679794164809614,
block,objects,objects049.bmp,,,,,0,97,97,97,,,,,,,,,,,,,,,,,,,,,,,,,,,,,,,,,,,,,,,,,,None,,275.5537641501054,None,275.5537641501054,None,2021-11-16-11:45:14.366240,275.5542349005118,275.85352759994566,275.5542349005118,None,None,275.5542349005118,None,276.35351395010946,None,,,,12006,0002,2021_Nov_16_1140,localizer,2021.1.3,59.679794164809614,
block,objects,objects079.bmp,,,,,0,98,98,98,,,,,,,,,,,,,,,,,,,,,,,,,,,,,,,,,,,,,,,,,,None,,276.35351395010946,None,276.35351395010946,None,2021-11-16-11:45:15.168014,276.36764989979565,276.66944060008973,276.36764989979565,276.36764989979565,None,276.36764989979565,276.36764989979565,277.1695492506027,None,,,,12006,0002,2021_Nov_16_1140,localizer,2021.1.3,59.679794164809614,
block,objects,objects018.bmp,,,,,0,99,99,99,,,,,,,,,,,,,,,,,,,,,,,,,,,,,,,,,,,,,,,,,,None,,277.1695492506027,None,277.1695492506027,None,2021-11-16-11:45:15.979920,277.17052649986,277.4696374004707,277.17052649986,None,None,277.17052649986,None,277.9699524497613,None,,,,12006,0002,2021_Nov_16_1140,localizer,2021.1.3,59.679794164809614,
block,objects,objects015.bmp,,,,,0,100,100,100,,,,,,,,,,,,,,,,,,,,,,,,,,,,,,,,,,,,,,,,,,None,,277.9699524497613,None,277.9699524497613,None,2021-11-16-11:45:16.783307,277.9728597002104,278.2863835003227,277.9728597002104,277.9728597002104,None,277.9728597002104,277.9728597002104,278.7869178500026,None,,,,12006,0002,2021_Nov_16_1140,localizer,2021.1.3,59.679794164809614,
block,objects,objects050.bmp,,,,,0,101,101,101,,,,,,,,,,,,,,,,,,,,,,,,,,,,,,,,,,,,,,,,,,None,,278.7869178500026,None,278.7869178500026,None,2021-11-16-11:45:17.599464,278.78903140034527,279.10295460000634,278.78903140034527,None,None,278.78903140034527,None,279.6031204504892,None,,,,12006,0002,2021_Nov_16_1140,localizer,2021.1.3,59.679794164809614,
block,objects,objects071.bmp,,,,,0,102,102,102,,,,,,,,,,,,,,,,,,,,,,,,,,,,,,,,,,,,,,,,,,None,,279.6031204504892,None,279.6031204504892,None,2021-11-16-11:45:18.414687,279.6038728998974,279.90304089989513,279.6038728998974,None,None,279.6038728998974,None,280.4194021500647,None,,,,12006,0002,2021_Nov_16_1140,localizer,2021.1.3,59.679794164809614,
block,objects,objects010.bmp,,,,,0,103,103,103,,,,,,,,,,,,,,,,,,,,,,,,,,,,,,,,,,,,,,,,,,None,,280.4194021500647,None,280.4194021500647,None,2021-11-16-11:45:19.230844,280.4244737001136,280.7360778003931,280.4244737001136,None,None,280.4244737001136,None,281.23591894991694,None,,,,12006,0002,2021_Nov_16_1140,localizer,2021.1.3,59.679794164809614,
block,objects,objects024.bmp,,,,,0,104,104,104,,,,,,,,,,,,,,,,,,,,,,,,,,,,,,,,,,,,,,,,,,None,,281.23591894991694,None,281.23591894991694,None,2021-11-16-11:45:20.046710,281.2366602001712,281.53640910051763,281.2366602001712,None,None,281.2366602001712,None,282.03632575049994,None,,,,12006,0002,2021_Nov_16_1140,localizer,2021.1.3,59.679794164809614,
block,objects,objects055.bmp,,,,,0,105,105,105,,,,,,,,,,,,,,,,,,,,,,,,,,,,,,,,,,,,,,,,,,None,,282.03632575049994,None,282.03632575049994,None,2021-11-16-11:45:20.848688,282.04740929976106,282.35270639974624,282.04740929976106,282.04740929976106,None,282.04740929976106,282.04740929976106,282.8531046506017,None,,,,12006,0002,2021_Nov_16_1140,localizer,2021.1.3,59.679794164809614,
block_end,objects,objects060.bmp,,,,,0,106,106,106,,,,,,,,,,,,,,,,,,,,,,,,,,,,,,,,,,,,,,,,,,None,,282.8531046506017,None,282.8531046506017,None,2021-11-16-11:45:21.664469,282.85392040014267,283.15296030044556,282.85392040014267,None,None,282.85392040014267,None,283.6531438497826,None,,,,12006,0002,2021_Nov_16_1140,localizer,2021.1.3,59.679794164809614,
block_start,scenes,scenes060.bmp,,,,,0,107,107,107,,,,,,,,,,,,,,,,,,,,,,,,,,,,,,,,,,,,,,,,,,t,1.8110531000420451,283.6530264997855,None,283.6530264997855,None,2021-11-16-11:45:24.297991,285.4976327000186,285.8028287999332,285.4976327000186,None,None,285.4976327000186,None,286.30517085045574,None,,,,12006,0002,2021_Nov_16_1140,localizer,2021.1.3,59.679794164809614,
block,scenes,scenes008.bmp,,,,,0,108,108,108,,,,,,,,,,,,,,,,,,,,,,,,,,,,,,,,,,,,,,,,,,None,,286.30517085045574,None,286.30517085045574,None,2021-11-16-11:45:25.121494,286.310494299978,286.6203126003966,286.310494299978,None,None,286.310494299978,None,287.1197750499472,None,,,,12006,0002,2021_Nov_16_1140,localizer,2021.1.3,59.679794164809614,
block,scenes,scenes043.bmp,,,,,0,109,109,109,,,,,,,,,,,,,,,,,,,,,,,,,,,,,,,,,,,,,,,,,,None,,287.1197750499472,None,287.1197750499472,None,2021-11-16-11:45:25.931455,287.129027900286,287.43650100007653,287.129027900286,None,None,287.129027900286,None,287.9376581503078,None,,,,12006,0002,2021_Nov_16_1140,localizer,2021.1.3,59.679794164809614,
block,scenes,scenes058.bmp,,,,,0,110,110,110,,,,,,,,,,,,,,,,,,,,,,,,,,,,,,,,,,,,,,,,,,None,,287.9376581503078,None,287.9376581503078,None,2021-11-16-11:45:26.750136,287.9402624005452,288.2527521001175,287.9402624005452,None,None,287.9402624005452,None,288.75306585021315,None,,,,12006,0002,2021_Nov_16_1140,localizer,2021.1.3,59.679794164809614,
block,scenes,scenes048.bmp,,,,,0,111,111,111,,,,,,,,,,,,,,,,,,,,,,,,,,,,,,,,,,,,,,,,,,None,,288.75306585021315,None,288.75306585021315,None,2021-11-16-11:45:27.564187,288.7650536997244,289.0738697005436,288.7650536997244,None,None,288.7650536997244,None,289.5705129500478,None,,,,12006,0002,2021_Nov_16_1140,localizer,2021.1.3,59.679794164809614,
block,scenes,scenes067.bmp,,,,,0,112,112,112,,,,,,,,,,,,,,,,,,,,,,,,,,,,,,,,,,,,,,,,,,None,,289.5705129500478,None,289.5705129500478,None,2021-11-16-11:45:28.382844,289.5821903999895,289.88654140010476,289.5821903999895,None,None,289.5821903999895,None,290.38676384985445,None,,,,12006,0002,2021_Nov_16_1140,localizer,2021.1.3,59.679794164809614,
block,scenes,scenes016.bmp,,,,,0,113,113,113,,,,,,,,,,,,,,,,,,,,,,,,,,,,,,,,,,,,,,,,,,None,,290.38676384985445,None,290.38676384985445,None,2021-11-16-11:45:29.198194,290.3874487001449,290.6867470005527,290.3874487001449,None,None,290.3874487001449,None,291.1864864505827,None,,,,12006,0002,2021_Nov_16_1140,localizer,2021.1.3,59.679794164809614,
block,scenes,scenes087.bmp,,,,,0,114,114,114,,,,,,,,,,,,,,,,,,,,,,,,,,,,,,,,,,,,,,,,,,None,,291.1864864505827,None,291.1864864505827,None,2021-11-16-11:45:29.999432,291.1873754998669,291.5032125003636,291.1873754998669,291.1873754998669,None,291.1873754998669,291.1873754998669,291.986404049769,None,,,,12006,0002,2021_Nov_16_1140,localizer,2021.1.3,59.679794164809614,
block,scenes,scenes046.bmp,,,,,0,115,115,115,,,,,,,,,,,,,,,,,,,,,,,,,,,,,,,,,,,,,,,,,,None,,291.986404049769,None,291.986404049769,None,2021-11-16-11:45:30.798769,291.99638510029763,292.3038488002494,291.99638510029763,291.99638510029763,None,291.99638510029763,291.99638510029763,292.8030596502125,None,,,,12006,0002,2021_Nov_16_1140,localizer,2021.1.3,59.679794164809614,
block,scenes,scenes049.bmp,,,,,0,116,116,116,,,,,,,,,,,,,,,,,,,,,,,,,,,,,,,,,,,,,,,,,,None,,292.8030596502125,None,292.8030596502125,None,2021-11-16-11:45:31.614422,292.8040489004925,293.1032653003931,292.8040489004925,None,None,292.8040489004925,None,293.60378835033623,None,,,,12006,0002,2021_Nov_16_1140,localizer,2021.1.3,59.679794164809614,
block,scenes,scenes051.bmp,,,,,0,117,117,117,,,,,,,,,,,,,,,,,,,,,,,,,,,,,,,,,,,,,,,,,,None,,293.60378835033623,None,293.60378835033623,None,2021-11-16-11:45:32.418335,293.6194094000384,293.9196268003434,293.6194094000384,293.6194094000384,None,293.6194094000384,293.6194094000384,294.42103835064916,None,,,,12006,0002,2021_Nov_16_1140,localizer,2021.1.3,59.679794164809614,
block,scenes,scenes015.bmp,,,,,0,118,118,118,,,,,,,,,,,,,,,,,,,,,,,,,,,,,,,,,,,,,,,,,,None,,294.42103835064916,None,294.42103835064916,None,2021-11-16-11:45:33.233381,294.4233734998852,294.73683730047196,294.4233734998852,None,None,294.4233734998852,None,295.23686794992534,None,,,,12006,0002,2021_Nov_16_1140,localizer,2021.1.3,59.679794164809614,
block,scenes,scenes032.bmp,,,,,0,119,119,119,,,,,,,,,,,,,,,,,,,,,,,,,,,,,,,,,,,,,,,,,,None,,295.23686794992534,None,295.23686794992534,None,2021-11-16-11:45:34.049221,295.23761580046266,295.53690140042454,295.23761580046266,None,None,295.23761580046266,None,296.05330435056237,None,,,,12006,0002,2021_Nov_16_1140,localizer,2021.1.3,59.679794164809614,
block,scenes,scenes078.bmp,,,,,0,120,120,120,,,,,,,,,,,,,,,,,,,,,,,,,,,,,,,,,,,,,,,,,,None,,296.05330435056237,None,296.05330435056237,None,2021-11-16-11:45:34.864846,296.0541583998129,296.35321670025587,296.0541583998129,None,None,296.0541583998129,None,296.86949495002625,None,,,,12006,0002,2021_Nov_16_1140,localizer,2021.1.3,59.679794164809614,
block_end,scenes,scenes073.bmp,,,,,0,121,121,121,,,,,,,,,,,,,,,,,,,,,,,,,,,,,,,,,,,,,,,,,,None,,296.86949495002625,None,296.86949495002625,None,2021-11-16-11:45:35.680687,296.8712897002697,297.1865070005879,296.8712897002697,None,None,296.8712897002697,None,297.68603284992275,None,,,,12006,0002,2021_Nov_16_1140,localizer,2021.1.3,59.679794164809614,
null_block,null_block,null_block.bmp,,,,,0,122,122,122,,,,,,,,,,,,,,,,,,,,,,,,,,,,,,,,,,,,,,,,,,t,1.7777538001537323,297.6862994004041,None,297.6862994004041,None,2021-11-16-11:45:38.296238,299.4866806497797,None,299.4866806497797,None,None,299.4866806497797,None,299.4875212004408,None,,,,12006,0002,2021_Nov_16_1140,localizer,2021.1.3,59.679794164809614,
block_start,faces,faces016.bmp,,,,,0,123,123,123,,,,,,,,,,,,,,,,,,,,,,,,,,,,,,,,,,,,,,,,,,t,1.976991199888289,311.4870640002191,None,311.4870640002191,None,2021-11-16-11:45:52.299281,313.4888212000951,313.8031342998147,313.4888212000951,None,None,313.4888212000951,None,314.3035230502486,None,,,,12006,0002,2021_Nov_16_1140,localizer,2021.1.3,59.679794164809614,
block,faces,faces001.bmp,,,,,0,124,124,124,,,,,,,,,,,,,,,,,,,,,,,,,,,,,,,,,,,,,,,,,,None,,314.3035230502486,None,314.3035230502486,None,2021-11-16-11:45:53.114883,314.30416909977794,314.61976510006934,314.30416909977794,None,None,314.30416909977794,None,315.1199063505977,None,,,,12006,0002,2021_Nov_16_1140,localizer,2021.1.3,59.679794164809614,
block,faces,faces080.bmp,,,,,0,125,125,125,,,,,,,,,,,,,,,,,,,,,,,,,,,,,,,,,,,,,,,,,,None,,315.1199063505977,None,315.1199063505977,None,2021-11-16-11:45:53.931273,315.1214172001928,315.4365209005773,315.1214172001928,None,None,315.1214172001928,None,315.9205809501931,None,,,,12006,0002,2021_Nov_16_1140,localizer,2021.1.3,59.679794164809614,
block,faces,faces023.bmp,,,,,0,126,126,126,,,,,,,,,,,,,,,,,,,,,,,,,,,,,,,,,,,,,,,,,,None,,315.9205809501931,None,315.9205809501931,None,2021-11-16-11:45:54.734874,315.9240110004321,316.2372633004561,315.9240110004321,315.9240110004321,None,315.9240110004321,315.9240110004321,316.73784074988214,None,,,,12006,0002,2021_Nov_16_1140,localizer,2021.1.3,59.679794164809614,
block,faces,faces007.bmp,,,,,0,127,127,127,,,,,,,,,,,,,,,,,,,,,,,,,,,,,,,,,,,,,,,,,,None,,316.73784074988214,None,316.73784074988214,None,2021-11-16-11:45:55.552164,316.74084139987826,317.0538864005357,316.74084139987826,None,None,316.74084139987826,None,317.5537867505103,None,,,,12006,0002,2021_Nov_16_1140,localizer,2021.1.3,59.679794164809614,
block,faces,faces045.bmp,,,,,0,128,128,128,,,,,,,,,,,,,,,,,,,,,,,,,,,,,,,,,,,,,,,,,,None,,317.5537867505103,None,317.5537867505103,None,2021-11-16-11:45:56.366297,317.5556276002899,317.8704348001629,317.5556276002899,None,None,317.5556276002899,None,318.3701097505167,None,,,,12006,0002,2021_Nov_16_1140,localizer,2021.1.3,59.679794164809614,
block,faces,faces033.bmp,,,,,0,129,129,129,,,,,,,,,,,,,,,,,,,,,,,,,,,,,,,,,,,,,,,,,,None,,318.3701097505167,None,318.3701097505167,None,2021-11-16-11:45:57.181491,318.3708640001714,318.6865496998653,318.3708640001714,None,None,318.3708640001714,None,319.1699315501377,None,,,,12006,0002,2021_Nov_16_1140,localizer,2021.1.3,59.679794164809614,
block,faces,faces070.bmp,,,,,0,130,130,130,,,,,,,,,,,,,,,,,,,,,,,,,,,,,,,,,,,,,,,,,,None,,319.1699315501377,None,319.1699315501377,None,2021-11-16-11:45:57.983451,319.18197510018945,319.4865733003244,319.18197510018945,319.18197510018945,None,319.18197510018945,319.18197510018945,319.9868468498811,None,,,,12006,0002,2021_Nov_16_1140,localizer,2021.1.3,59.679794164809614,
block,faces,faces038.bmp,,,,,0,131,131,131,,,,,,,,,,,,,,,,,,,,,,,,,,,,,,,,,,,,,,,,,,None,,319.9868468498811,None,319.9868468498811,None,2021-11-16-11:45:58.798207,320.0035618999973,320.30305590014905,320.0035618999973,None,None,320.0035618999973,None,320.8047172497958,None,,,,12006,0002,2021_Nov_16_1140,localizer,2021.1.3,59.679794164809614,
block,faces,faces012.bmp,,,,,0,132,132,132,,,,,,,,,,,,,,,,,,,,,,,,,,,,,,,,,,,,,,,,,,None,,320.8047172497958,None,320.8047172497958,None,2021-11-16-11:45:59.619205,320.82077240012586,321.1197456000373,320.82077240012586,None,None,320.82077240012586,None,321.6220137501135,None,,,,12006,0002,2021_Nov_16_1140,localizer,2021.1.3,59.679794164809614,
block,faces,faces058.bmp,,,,,0,133,133,133,,,,,,,,,,,,,,,,,,,,,,,,,,,,,,,,,,,,,,,,,,None,,321.6220137501135,None,321.6220137501135,None,2021-11-16-11:46:00.432384,321.63118339981884,321.9382789004594,321.63118339981884,None,None,321.63118339981884,None,322.43722955007104,None,,,,12006,0002,2021_Nov_16_1140,localizer,2021.1.3,59.679794164809614,
block,faces,faces057.bmp,,,,,0,134,134,134,,,,,,,,,,,,,,,,,,,,,,,,,,,,,,,,,,,,,,,,,,None,,322.43722955007104,None,322.43722955007104,None,2021-11-16-11:46:01.249753,322.4381167003885,322.7531658997759,322.4381167003885,None,None,322.4381167003885,None,323.2532738499343,None,,,,12006,0002,2021_Nov_16_1140,localizer,2021.1.3,59.679794164809614,
block,faces,faces053.bmp,,,,,0,135,135,135,,,,,,,,,,,,,,,,,,,,,,,,,,,,,,,,,,,,,,,,,,None,,323.2532738499343,None,323.2532738499343,None,2021-11-16-11:46:02.064638,323.2541608000174,323.5532864006236,323.2541608000174,None,None,323.2541608000174,None,324.05389475040135,None,,,,12006,0002,2021_Nov_16_1140,localizer,2021.1.3,59.679794164809614,
block,faces,faces018.bmp,,,,,0,136,136,136,,,,,,,,,,,,,,,,,,,,,,,,,,,,,,,,,,,,,,,,,,None,,324.05389475040135,None,324.05389475040135,None,2021-11-16-11:46:02.868437,324.0571108004078,324.37032879982144,324.0571108004078,324.0571108004078,None,324.0571108004078,324.0571108004078,324.8701324505731,None,,,,12006,0002,2021_Nov_16_1140,localizer,2021.1.3,59.679794164809614,
block_end,faces,faces064.bmp,,,,,0,137,137,137,,,,,,,,,,,,,,,,,,,,,,,,,,,,,,,,,,,,,,,,,,None,,324.8701324505731,None,324.8701324505731,None,2021-11-16-11:46:03.681496,324.8708442002535,325.170005700551,324.8708442002535,None,None,324.8708442002535,None,325.67061394974587,None,,,,12006,0002,2021_Nov_16_1140,localizer,2021.1.3,59.679794164809614,
block_start,scenes,scenes023.bmp,,,,,0,138,138,138,,,,,,,,,,,,,,,,,,,,,,,,,,,,,,,,,,,,,,,,,,t,1.7934847995638847,325.6705573005602,None,325.6705573005602,None,2021-11-16-11:46:06.300000,327.50024760048836,327.8032408999279,327.50024760048836,None,None,327.50024760048836,None,328.30411244984714,None,,,,12006,0002,2021_Nov_16_1140,localizer,2021.1.3,59.679794164809614,
block,scenes,scenes020.bmp,,,,,0,139,139,139,,,,,,,,,,,,,,,,,,,,,,,,,,,,,,,,,,,,,,,,,,None,,328.30411244984714,None,328.30411244984714,None,2021-11-16-11:46:07.117378,328.31680790055543,328.62187040038407,328.31680790055543,None,None,328.31680790055543,None,329.1203280497342,None,,,,12006,0002,2021_Nov_16_1140,localizer,2021.1.3,59.679794164809614,
block,scenes,scenes079.bmp,,,,,0,140,140,140,,,,,,,,,,,,,,,,,,,,,,,,,,,,,,,,,,,,,,,,,,None,,329.1203280497342,None,329.1203280497342,None,2021-11-16-11:46:07.932681,329.13123270031065,329.4366161003709,329.13123270031065,None,None,329.13123270031065,None,329.9364328501746,None,,,,12006,0002,2021_Nov_16_1140,localizer,2021.1.3,59.679794164809614,
block,scenes,scenes030.bmp,,,,,0,141,141,141,,,,,,,,,,,,,,,,,,,,,,,,,,,,,,,,,,,,,,,,,,None,,329.9364328501746,None,329.9364328501746,None,2021-11-16-11:46:08.747799,329.9458193005994,330.25393899995834,329.9458193005994,None,None,329.9458193005994,None,330.7556421501562,None,,,,12006,0002,2021_Nov_16_1140,localizer,2021.1.3,59.679794164809614,
block,scenes,scenes003.bmp,,,,,0,142,142,142,,,,,,,,,,,,,,,,,,,,,,,,,,,,,,,,,,,,,,,,,,None,,330.7556421501562,None,330.7556421501562,None,2021-11-16-11:46:09.570849,330.7610272001475,331.0701959002763,330.7610272001475,None,None,330.7610272001475,None,331.57086785007266,None,,,,12006,0002,2021_Nov_16_1140,localizer,2021.1.3,59.679794164809614,
block,scenes,scenes012.bmp,,,,,0,143,143,143,,,,,,,,,,,,,,,,,,,,,,,,,,,,,,,,,,,,,,,,,,None,,331.57086785007266,None,331.57086785007266,None,2021-11-16-11:46:10.383217,331.5729752006009,331.8716312004253,331.5729752006009,None,None,331.5729752006009,None,332.3874392505735,None,,,,12006,0002,2021_Nov_16_1140,localizer,2021.1.3,59.679794164809614,
block,scenes,scenes046.bmp,,,,,0,144,144,144,,,,,,,,,,,,,,,,,,,,,,,,,,,,,,,,,,,,,,,,,,None,,332.3874392505735,None,332.3874392505735,None,2021-11-16-11:46:11.199767,332.3893138002604,332.70411430019885,332.3893138002604,None,None,332.3893138002604,None,333.2041818505153,None,,,,12006,0002,2021_Nov_16_1140,localizer,2021.1.3,59.679794164809614,
block,scenes,scenes081.bmp,,,,,0,145,145,145,,,,,,,,,,,,,,,,,,,,,,,,,,,,,,,,,,,,,,,,,,None,,333.2041818505153,None,333.2041818505153,None,2021-11-16-11:46:12.016635,333.2157316002995,333.5198049005121,333.2157316002995,None,None,333.2157316002995,None,334.02171834986655,None,,,,12006,0002,2021_Nov_16_1140,localizer,2021.1.3,59.679794164809614,
block,scenes,scenes033.bmp,,,,,0,146,146,146,,,,,,,,,,,,,,,,,,,,,,,,,,,,,,,,,,,,,,,,,,None,,334.02171834986655,None,334.02171834986655,None,2021-11-16-11:46:12.834061,334.0235515004024,334.3368301000446,334.0235515004024,None,None,334.0235515004024,None,334.8370173504576,None,,,,12006,0002,2021_Nov_16_1140,localizer,2021.1.3,59.679794164809614,
block,scenes,scenes041.bmp,,,,,0,147,147,147,,,,,,,,,,,,,,,,,,,,,,,,,,,,,,,,,,,,,,,,,,None,,334.8370173504576,None,334.8370173504576,None,2021-11-16-11:46:13.648376,334.84788290038705,335.1536079002544,334.84788290038705,None,None,334.84788290038705,None,335.6538385502994,None,,,,12006,0002,2021_Nov_16_1140,localizer,2021.1.3,59.679794164809614,
block,scenes,scenes056.bmp,,,,,0,148,148,148,,,,,,,,,,,,,,,,,,,,,,,,,,,,,,,,,,,,,,,,,,None,,335.6538385502994,None,335.6538385502994,None,2021-11-16-11:46:14.466435,335.6546237003058,335.97020060010254,335.6546237003058,None,None,335.6546237003058,None,336.4704735498875,None,,,,12006,0002,2021_Nov_16_1140,localizer,2021.1.3,59.679794164809614,
block,scenes,scenes014.bmp,,,,,0,149,149,149,,,,,,,,,,,,,,,,,,,,,,,,,,,,,,,,,,,,,,,,,,None,,336.4704735498875,None,336.4704735498875,None,2021-11-16-11:46:15.282808,336.4822527002543,336.78672050032765,336.4822527002543,None,None,336.4822527002543,None,337.28795255031434,None,,,,12006,0002,2021_Nov_16_1140,localizer,2021.1.3,59.679794164809614,
block,scenes,scenes048.bmp,,,,,0,150,150,150,,,,,,,,,,,,,,,,,,,,,,,,,,,,,,,,,,,,,,,,,,None,,337.28795255031434,None,337.28795255031434,None,2021-11-16-11:46:16.100295,337.28999960049987,337.60326340049505,337.28999960049987,None,None,337.28999960049987,None,338.10335085038093,None,,,,12006,0002,2021_Nov_16_1140,localizer,2021.1.3,59.679794164809614,
block,scenes,scenes073.bmp,,,,,0,151,151,151,,,,,,,,,,,,,,,,,,,,,,,,,,,,,,,,,,,,,,,,,,None,,338.10335085038093,None,338.10335085038093,None,2021-11-16-11:46:16.914833,338.1050370000303,338.42021950054914,338.1050370000303,None,None,338.1050370000303,None,338.9200294498354,None,,,,12006,0002,2021_Nov_16_1140,localizer,2021.1.3,59.679794164809614,
block_end,scenes,scenes075.bmp,,,,,0,152,152,152,,,,,,,,,,,,,,,,,,,,,,,,,,,,,,,,,,,,,,,,,,None,,338.9200294498354,None,338.9200294498354,None,2021-11-16-11:46:17.731392,338.93067300040275,339.23672100063413,338.93067300040275,None,None,338.93067300040275,None,339.7380440501496,None,,,,12006,0002,2021_Nov_16_1140,localizer,2021.1.3,59.679794164809614,
block_start,scrambled,scrambled008.bmp,,,,,0,153,153,153,,,,,,,,,,,,,,,,,,,,,,,,,,,,,,,,,,,,,,,,,,t,1.7262856997549534,339.7378976000473,None,339.7378976000473,None,2021-11-16-11:46:20.297940,341.48758270032704,341.8033440997824,341.48758270032704,None,None,341.48758270032704,None,342.2869419498369,None,,,,12006,0002,2021_Nov_16_1140,localizer,2021.1.3,59.679794164809614,
block,scrambled,scrambled056.bmp,,,,,0,154,154,154,,,,,,,,,,,,,,,,,,,,,,,,,,,,,,,,,,,,,,,,,,None,,342.2869419498369,None,342.2869419498369,None,2021-11-16-11:46:21.100309,342.28815389983356,342.60301529988647,342.28815389983356,342.28815389983356,None,342.28815389983356,342.28815389983356,343.10330714993177,None,,,,12006,0002,2021_Nov_16_1140,localizer,2021.1.3,59.679794164809614,
block,scrambled,scrambled036.bmp,,,,,0,155,155,155,,,,,,,,,,,,,,,,,,,,,,,,,,,,,,,,,,,,,,,,,,None,,343.10330714993177,None,343.10330714993177,None,2021-11-16-11:46:21.914671,343.10419770050794,343.40363090019673,343.10419770050794,None,None,343.10419770050794,None,343.9033982498571,None,,,,12006,0002,2021_Nov_16_1140,localizer,2021.1.3,59.679794164809614,
block,scrambled,scrambled068.bmp,,,,,0,156,156,156,,,,,,,,,,,,,,,,,,,,,,,,,,,,,,,,,,,,,,,,,,None,,343.9033982498571,None,343.9033982498571,None,2021-11-16-11:46:22.716493,343.90423570014536,344.2200156999752,343.90423570014536,343.90423570014536,None,343.90423570014536,343.90423570014536,344.70351604986934,None,,,,12006,0002,2021_Nov_16_1140,localizer,2021.1.3,59.679794164809614,
block,scrambled,scrambled034.bmp,,,,,0,157,157,157,,,,,,,,,,,,,,,,,,,,,,,,,,,,,,,,,,,,,,,,,,None,,344.70351604986934,None,344.70351604986934,None,2021-11-16-11:46:23.516209,344.70417490042746,345.0033771004528,344.70417490042746,344.70417490042746,None,344.70417490042746,344.70417490042746,345.50356114991007,None,,,,12006,0002,2021_Nov_16_1140,localizer,2021.1.3,59.679794164809614,
block,scrambled,scrambled027.bmp,,,,,0,158,158,158,,,,,,,,,,,,,,,,,,,,,,,,,,,,,,,,,,,,,,,,,,None,,345.50356114991007,None,345.50356114991007,None,2021-11-16-11:46:24.316920,345.50638070050627,345.82017489988357,345.50638070050627,345.50638070050627,None,345.50638070050627,345.50638070050627,346.32019764985887,None,,,,12006,0002,2021_Nov_16_1140,localizer,2021.1.3,59.679794164809614,
block,scrambled,scrambled052.bmp,,,,,0,159,159,159,,,,,,,,,,,,,,,,,,,,,,,,,,,,,,,,,,,,,,,,,,None,,346.32019764985887,None,346.32019764985887,None,2021-11-16-11:46:25.131925,346.3311448004097,346.63639840018004,346.3311448004097,None,None,346.3311448004097,None,347.1367820497602,None,,,,12006,0002,2021_Nov_16_1140,localizer,2021.1.3,59.679794164809614,
block,scrambled,scrambled083.bmp,,,,,0,160,160,160,,,,,,,,,,,,,,,,,,,,,,,,,,,,,,,,,,,,,,,,,,None,,347.1367820497602,None,347.1367820497602,None,2021-11-16-11:46:25.948145,347.13754430040717,347.43669280037284,347.13754430040717,None,None,347.13754430040717,None,347.93716185037044,None,,,,12006,0002,2021_Nov_16_1140,localizer,2021.1.3,59.679794164809614,
block,scrambled,scrambled084.bmp,,,,,0,161,161,161,,,,,,,,,,,,,,,,,,,,,,,,,,,,,,,,,,,,,,,,,,None,,347.93716185037044,None,347.93716185037044,None,2021-11-16-11:46:26.751512,347.93982810061425,348.25376609992236,347.93982810061425,347.93982810061425,None,347.93982810061425,347.93982810061425,348.75381714999673,None,,,,12006,0002,2021_Nov_16_1140,localizer,2021.1.3,59.679794164809614,
block,scrambled,scrambled054.bmp,,,,,0,162,162,162,,,,,,,,,,,,,,,,,,,,,,,,,,,,,,,,,,,,,,,,,,None,,348.75381714999673,None,348.75381714999673,None,2021-11-16-11:46:27.566171,348.75437610037625,349.0538058001548,348.75437610037625,None,None,348.75437610037625,None,349.5538611501455,None,,,,12006,0002,2021_Nov_16_1140,localizer,2021.1.3,59.679794164809614,
block,scrambled,scrambled060.bmp,,,,,0,163,163,163,,,,,,,,,,,,,,,,,,,,,,,,,,,,,,,,,,,,,,,,,,None,,349.5538611501455,None,349.5538611501455,None,2021-11-16-11:46:28.368217,349.5664065005258,349.87005930021405,349.5664065005258,349.5664065005258,None,349.5664065005258,349.5664065005258,350.37015854995695,None,,,,12006,0002,2021_Nov_16_1140,localizer,2021.1.3,59.679794164809614,
block,scrambled,scrambled081.bmp,,,,,0,164,164,164,,,,,,,,,,,,,,,,,,,,,,,,,,,,,,,,,,,,,,,,,,None,,350.37015854995695,None,350.37015854995695,None,2021-11-16-11:46:29.181524,350.3708886997774,350.686579500325,350.3708886997774,None,None,350.3708886997774,None,351.16997525058684,None,,,,12006,0002,2021_Nov_16_1140,localizer,2021.1.3,59.679794164809614,
block,scrambled,scrambled024.bmp,,,,,0,165,165,165,,,,,,,,,,,,,,,,,,,,,,,,,,,,,,,,,,,,,,,,,,None,,351.16997525058684,None,351.16997525058684,None,2021-11-16-11:46:29.983504,351.1810673000291,351.48682140000165,351.1810673000291,351.1810673000291,None,351.1810673000291,351.1810673000291,351.9865893503651,None,,,,12006,0002,2021_Nov_16_1140,localizer,2021.1.3,59.679794164809614,
block,scrambled,scrambled075.bmp,,,,,0,166,166,166,,,,,,,,,,,,,,,,,,,,,,,,,,,,,,,,,,,,,,,,,,None,,351.9865893503651,None,351.9865893503651,None,2021-11-16-11:46:30.797953,351.98766180034727,352.28672930039465,351.98766180034727,None,None,351.98766180034727,None,352.7866698499769,None,,,,12006,0002,2021_Nov_16_1140,localizer,2021.1.3,59.679794164809614,
block_end,scrambled,scrambled066.bmp,,,,,0,167,167,167,,,,,,,,,,,,,,,,,,,,,,,,,,,,,,,,,,,,,,,,,,None,,352.7866698499769,None,352.7866698499769,None,2021-11-16-11:46:31.600481,352.7887578001246,353.09419860038906,352.7887578001246,352.7887578001246,None,352.7887578001246,352.7887578001246,353.60313534978775,None,,,,12006,0002,2021_Nov_16_1140,localizer,2021.1.3,59.679794164809614,
block_start,objects,objects065.bmp,,,,,0,168,168,168,,,,,,,,,,,,,,,,,,,,,,,,,,,,,,,,,,,,,,,,,,t,1.861140800639987,353.6030262000859,None,353.6030262000859,None,2021-11-16-11:46:34.297633,355.4877083003521,355.7869277000427,355.4877083003521,None,None,355.4877083003521,None,356.2869912503287,None,,,,12006,0002,2021_Nov_16_1140,localizer,2021.1.3,59.679794164809614,
block,objects,objects030.bmp,,,,,0,169,169,169,,,,,,,,,,,,,,,,,,,,,,,,,,,,,,,,,,,,,,,,,,None,,356.2869912503287,None,356.2869912503287,None,2021-11-16-11:46:35.100345,356.28984910063446,356.61015670001507,356.28984910063446,356.28984910063446,None,356.28984910063446,356.28984910063446,357.10403665024785,None,,,,12006,0002,2021_Nov_16_1140,localizer,2021.1.3,59.679794164809614,
block,objects,objects025.bmp,,,,,0,170,170,170,,,,,,,,,,,,,,,,,,,,,,,,,,,,,,,,,,,,,,,,,,None,,357.10403665024785,None,357.10403665024785,None,2021-11-16-11:46:35.916386,357.104729000479,357.40395190007985,357.104729000479,None,None,357.104729000479,None,357.90389895029364,None,,,,12006,0002,2021_Nov_16_1140,localizer,2021.1.3,59.679794164809614,
block,objects,objects040.bmp,,,,,0,171,171,171,,,,,,,,,,,,,,,,,,,,,,,,,,,,,,,,,,,,,,,,,,None,,357.90389895029364,None,357.90389895029364,None,2021-11-16-11:46:36.717473,357.9057523002848,358.21992699988186,357.9057523002848,357.9057523002848,None,357.9057523002848,357.9057523002848,358.7200965505093,None,,,,12006,0002,2021_Nov_16_1140,localizer,2021.1.3,59.679794164809614,
block,objects,objects008.bmp,,,,,0,172,172,172,,,,,,,,,,,,,,,,,,,,,,,,,,,,,,,,,,,,,,,,,,None,,358.7200965505093,None,358.7200965505093,None,2021-11-16-11:46:37.531461,358.72106570005417,359.03663810063154,358.72106570005417,None,None,358.72106570005417,None,359.5208739504218,None,,,,12006,0002,2021_Nov_16_1140,localizer,2021.1.3,59.679794164809614,
block,objects,objects007.bmp,,,,,0,173,173,173,,,,,,,,,,,,,,,,,,,,,,,,,,,,,,,,,,,,,,,,,,None,,359.5208739504218,None,359.5208739504218,None,2021-11-16-11:46:38.335219,359.52379909995943,359.8367828000337,359.52379909995943,359.52379909995943,None,359.52379909995943,359.52379909995943,360.33800044991074,None,,,,12006,0002,2021_Nov_16_1140,localizer,2021.1.3,59.679794164809614,
block,objects,objects071.bmp,,,,,0,174,174,174,,,,,,,,,,,,,,,,,,,,,,,,,,,,,,,,,,,,,,,,,,None,,360.33800044991074,None,360.33800044991074,None,2021-11-16-11:46:39.150520,360.34037540014833,360.6374463997781,360.34037540014833,None,None,360.34037540014833,None,361.1534412499517,None,,,,12006,0002,2021_Nov_16_1140,localizer,2021.1.3,59.679794164809614,
block,objects,objects029.bmp,,,,,0,175,175,175,,,,,,,,,,,,,,,,,,,,,,,,,,,,,,,,,,,,,,,,,,None,,361.1534412499517,None,361.1534412499517,None,2021-11-16-11:46:39.963816,361.1543153002858,361.4538432005793,361.1543153002858,None,None,361.1543153002858,None,361.95430455040184,None,,,,12006,0002,2021_Nov_16_1140,localizer,2021.1.3,59.679794164809614,
block,objects,objects005.bmp,,,,,0,176,176,176,,,,,,,,,,,,,,,,,,,,,,,,,,,,,,,,,,,,,,,,,,None,,361.95430455040184,None,361.95430455040184,None,2021-11-16-11:46:40.768636,361.9573236005381,362.2557666003704,361.9573236005381,361.9573236005381,None,361.9573236005381,361.9573236005381,362.772305650264,None,,,,12006,0002,2021_Nov_16_1140,localizer,2021.1.3,59.679794164809614,
block,objects,objects005.bmp,,,,,0,177,177,177,,,,,,,,,,,,,,,,,,,,,,,,,,,,,,,,,,,,,,,,,,None,,362.772305650264,None,362.772305650264,None,2021-11-16-11:46:41.587629,362.77658350020647,363.08666609972715,362.77658350020647,None,y,362.77658350020647,None,363.58657645024357,None,0.632268900051713,,,12006,0002,2021_Nov_16_1140,localizer,2021.1.3,59.679794164809614,
block,objects,objects047.bmp,,,,,0,178,178,178,,,,,,,,,,,,,,,,,,,,,,,,,,,,,,,,,,,,,,,,,,None,,363.58657645024357,None,363.58657645024357,None,2021-11-16-11:46:42.397940,363.5878058997914,363.9033620003611,363.5878058997914,None,None,363.5878058997914,None,364.38773074988273,None,,,,12006,0002,2021_Nov_16_1140,localizer,2021.1.3,59.679794164809614,
block,objects,objects045.bmp,,,,,0,179,179,179,,,,,,,,,,,,,,,,,,,,,,,,,,,,,,,,,,,,,,,,,,None,,364.38773074988273,None,364.38773074988273,None,2021-11-16-11:46:43.207083,364.39866339974105,364.7041070004925,364.39866339974105,364.39866339974105,None,364.39866339974105,364.39866339974105,365.2032876504585,None,,,,12006,0002,2021_Nov_16_1140,localizer,2021.1.3,59.679794164809614,
block,objects,objects050.bmp,,,,,0,180,180,180,,,,,,,,,,,,,,,,,,,,,,,,,,,,,,,,,,,,,,,,,,None,,365.2032876504585,None,365.2032876504585,None,2021-11-16-11:46:44.013461,365.2047739997506,365.5207071006298,365.2047739997506,None,None,365.2047739997506,None,366.00482044983653,None,,,,12006,0002,2021_Nov_16_1140,localizer,2021.1.3,59.679794164809614,
block,objects,objects044.bmp,,,,,0,181,181,181,,,,,,,,,,,,,,,,,,,,,,,,,,,,,,,,,,,,,,,,,,None,,366.00482044983653,None,366.00482044983653,None,2021-11-16-11:46:44.820227,366.04651280026883,366.3541870005429,366.04651280026883,366.04651280026883,None,366.04651280026883,366.04651280026883,366.82147084977476,None,,,,12006,0002,2021_Nov_16_1140,localizer,2021.1.3,59.679794164809614,
block_end,objects,objects036.bmp,,,,,0,182,182,182,,,,,,,,,,,,,,,,,,,,,,,,,,,,,,,,,,,,,,,,,,None,,366.82147084977476,None,366.82147084977476,None,2021-11-16-11:46:45.634949,366.83386710006744,367.13721740059555,366.83386710006744,None,None,366.83386710006744,None,367.6394906505942,None,,,,12006,0002,2021_Nov_16_1140,localizer,2021.1.3,59.679794164809614,
null_block,null_block,null_block.bmp,,,,,0,183,183,183,,,,,,,,,,,,,,,,,,,,,,,,,,,,,,,,,,,,,,,,,,t,1.8241563001647592,367.63883750047535,None,367.63883750047535,None,2021-11-16-11:46:48.300291,369.48774925023315,None,369.48774925023315,None,None,369.48774925023315,None,369.49458209984004,None,,,,12006,0002,2021_Nov_16_1140,localizer,2021.1.3,59.679794164809614,
block_start,scenes,scenes003.bmp,,,,,0,184,184,184,,,,,,,,,,,,,,,,,,,,,,,,,,,,,,,,,,,,,,,,,,t,1.9583920994773507,381.50456469971687,None,381.50456469971687,None,2021-11-16-11:47:02.302011,383.49710690043867,383.8038175003603,383.49710690043867,None,None,383.49710690043867,None,384.3039153503254,None,,,,12006,0002,2021_Nov_16_1140,localizer,2021.1.3,59.679794164809614,
block,scenes,scenes018.bmp,,,,,0,185,185,185,,,,,,,,,,,,,,,,,,,,,,,,,,,,,,,,,,,,,,,,,,None,,384.3039153503254,None,384.3039153503254,None,2021-11-16-11:47:03.115273,384.3047957997769,384.6199563005939,384.3047957997769,None,None,384.3047957997769,None,385.11051455009726,None,,,,12006,0002,2021_Nov_16_1140,localizer,2021.1.3,59.679794164809614,
block,scenes,scenes025.bmp,,,,,0,186,186,186,,,,,,,,,,,,,,,,,,,,,,,,,,,,,,,,,,,,,,,,,,None,,385.11051455009726,None,385.11051455009726,None,2021-11-16-11:47:03.926756,385.13060630019754,385.43722390010953,385.13060630019754,None,None,385.13060630019754,None,385.920655750297,None,,,,12006,0002,2021_Nov_16_1140,localizer,2021.1.3,59.679794164809614,
block,scenes,scenes008.bmp,,,,,0,187,187,187,,,,,,,,,,,,,,,,,,,,,,,,,,,,,,,,,,,,,,,,,,None,,385.920655750297,None,385.920655750297,None,2021-11-16-11:47:04.733209,385.92153630033135,386.22059509996325,385.92153630033135,None,None,385.92153630033135,None,386.7207159498706,None,,,,12006,0002,2021_Nov_16_1140,localizer,2021.1.3,59.679794164809614,
block,scenes,scenes015.bmp,,,,,0,188,188,188,,,,,,,,,,,,,,,,,,,,,,,,,,,,,,,,,,,,,,,,,,None,,386.7207159498706,None,386.7207159498706,None,2021-11-16-11:47:05.535261,386.7236695000902,387.0373868001625,386.7236695000902,386.7236695000902,None,386.7236695000902,386.7236695000902,387.53745275046674,None,,,,12006,0002,2021_Nov_16_1140,localizer,2021.1.3,59.679794164809614,
block,scenes,scenes089.bmp,,,,,0,189,189,189,,,,,,,,,,,,,,,,,,,,,,,,,,,,,,,,,,,,,,,,,,None,,387.53745275046674,None,387.53745275046674,None,2021-11-16-11:47:06.348810,387.5483905002475,387.85350910015404,387.5483905002475,None,None,387.5483905002475,None,388.3543129503727,None,,,,12006,0002,2021_Nov_16_1140,localizer,2021.1.3,59.679794164809614,
block,scenes,scenes087.bmp,,,,,0,190,190,190,,,,,,,,,,,,,,,,,,,,,,,,,,,,,,,,,,,,,,,,,,None,,388.3543129503727,None,388.3543129503727,None,2021-11-16-11:47:07.166486,388.35517220012844,388.6706242002547,388.35517220012844,None,None,388.35517220012844,None,389.17009565010665,None,,,,12006,0002,2021_Nov_16_1140,localizer,2021.1.3,59.679794164809614,
block,scenes,scenes052.bmp,,,,,0,191,191,191,,,,,,,,,,,,,,,,,,,,,,,,,,,,,,,,,,,,,,,,,,None,,389.17009565010665,None,389.17009565010665,None,2021-11-16-11:47:07.981698,389.1796043999493,389.4870309000835,389.1796043999493,None,None,389.1796043999493,None,389.9870454497635,None,,,,12006,0002,2021_Nov_16_1140,localizer,2021.1.3,59.679794164809614,
block,scenes,scenes073.bmp,,,,,0,192,192,192,,,,,,,,,,,,,,,,,,,,,,,,,,,,,,,,,,,,,,,,,,None,,389.9870454497635,None,389.9870454497635,None,2021-11-16-11:47:08.798408,389.98845600057393,390.3034592997283,389.98845600057393,None,None,389.98845600057393,None,390.8036463499069,None,,,,12006,0002,2021_Nov_16_1140,localizer,2021.1.3,59.679794164809614,
block,scenes,scenes012.bmp,,,,,0,193,193,193,,,,,,,,,,,,,,,,,,,,,,,,,,,,,,,,,,,,,,,,,,None,,390.8036463499069,None,390.8036463499069,None,2021-11-16-11:47:09.615551,390.8047861000523,391.1203399999067,390.8047861000523,None,None,390.8047861000523,None,391.6038781503215,None,,,,12006,0002,2021_Nov_16_1140,localizer,2021.1.3,59.679794164809614,
block,scenes,scenes081.bmp,,,,,0,194,194,194,,,,,,,,,,,,,,,,,,,,,,,,,,,,,,,,,,,,,,,,,,None,,391.6038781503215,None,391.6038781503215,None,2021-11-16-11:47:10.417232,391.60682660061866,391.9205545997247,391.60682660061866,391.60682660061866,None,391.60682660061866,391.60682660061866,392.420501550287,None,,,,12006,0002,2021_Nov_16_1140,localizer,2021.1.3,59.679794164809614,
block,scenes,scenes024.bmp,,,,,0,195,195,195,,,,,,,,,,,,,,,,,,,,,,,,,,,,,,,,,,,,,,,,,,None,,392.420501550287,None,392.420501550287,None,2021-11-16-11:47:11.232084,392.42924270033836,392.7372738998383,392.42924270033836,None,None,392.42924270033836,None,393.2373278500512,None,,,,12006,0002,2021_Nov_16_1140,localizer,2021.1.3,59.679794164809614,
block,scenes,scenes009.bmp,,,,,0,196,196,196,,,,,,,,,,,,,,,,,,,,,,,,,,,,,,,,,,,,,,,,,,None,,393.2373278500512,None,393.2373278500512,None,2021-11-16-11:47:12.048687,393.23808389995247,393.55366970039904,393.23808389995247,None,None,393.23808389995247,None,394.03823464978484,None,,,,12006,0002,2021_Nov_16_1140,localizer,2021.1.3,59.679794164809614,
block,scenes,scenes026.bmp,,,,,0,197,197,197,,,,,,,,,,,,,,,,,,,,,,,,,,,,,,,,,,,,,,,,,,None,,394.03823464978484,None,394.03823464978484,None,2021-11-16-11:47:12.854126,394.0551040004939,394.37021190021187,394.0551040004939,394.0551040004939,None,394.0551040004939,394.0551040004939,394.85376075059173,None,,,,12006,0002,2021_Nov_16_1140,localizer,2021.1.3,59.679794164809614,
block_end,scenes,scenes065.bmp,,,,,0,198,198,198,,,,,,,,,,,,,,,,,,,,,,,,,,,,,,,,,,,,,,,,,,None,,394.85376075059173,None,394.85376075059173,None,2021-11-16-11:47:13.665123,394.863088699989,395.1704341005534,394.863088699989,None,None,394.863088699989,None,395.67111604996023,None,,,,12006,0002,2021_Nov_16_1140,localizer,2021.1.3,59.679794164809614,
block_start,scrambled,scrambled023.bmp,,,,,0,199,199,199,,,,,,,,,,,,,,,,,,,,,,,,,,,,,,,,,,,,,,,,,,t,1.791791600175202,395.6711712004617,None,395.6711712004617,None,2021-11-16-11:47:16.300302,397.4904348999262,397.80359780043364,397.4904348999262,None,None,397.4904348999262,None,398.30380994975565,None,,,,12006,0002,2021_Nov_16_1140,localizer,2021.1.3,59.679794164809614,
block,scrambled,scrambled082.bmp,,,,,0,200,200,200,,,,,,,,,,,,,,,,,,,,,,,,,,,,,,,,,,,,,,,,,,None,,398.30380994975565,None,398.30380994975565,None,2021-11-16-11:47:17.115179,398.3130844999105,398.6207932997495,398.3130844999105,None,None,398.3130844999105,None,399.12041635029016,None,,,,12006,0002,2021_Nov_16_1140,localizer,2021.1.3,59.679794164809614,
block,scrambled,scrambled049.bmp,,,,,0,201,201,201,,,,,,,,,,,,,,,,,,,,,,,,,,,,,,,,,,,,,,,,,,None,,399.12041635029016,None,399.12041635029016,None,2021-11-16-11:47:17.931780,399.13045299984515,399.4371432000771,399.13045299984515,None,None,399.13045299984515,None,399.9367834502831,None,,,,12006,0002,2021_Nov_16_1140,localizer,2021.1.3,59.679794164809614,
block,scrambled,scrambled075.bmp,,,,,0,202,202,202,,,,,,,,,,,,,,,,,,,,,,,,,,,,,,,,,,,,,,,,,,None,,399.9367834502831,None,399.9367834502831,None,2021-11-16-11:47:18.748147,399.93801330029964,400.2536057997495,399.93801330029964,None,None,399.93801330029964,None,400.7534911498427,None,,,,12006,0002,2021_Nov_16_1140,localizer,2021.1.3,59.679794164809614,
block,scrambled,scrambled004.bmp,,,,,0,203,203,203,,,,,,,,,,,,,,,,,,,,,,,,,,,,,,,,,,,,,,,,,,None,,400.7534911498427,None,400.7534911498427,None,2021-11-16-11:47:19.564852,400.7545920005068,401.05371860042214,400.7545920005068,None,None,400.7545920005068,None,401.5702152499929,None,,,,12006,0002,2021_Nov_16_1140,localizer,2021.1.3,59.679794164809614,
block,scrambled,scrambled048.bmp,,,,,0,204,204,204,,,,,,,,,,,,,,,,,,,,,,,,,,,,,,,,,,,,,,,,,,None,,401.5702152499929,None,401.5702152499929,None,2021-11-16-11:47:20.380491,401.57343210000545,401.8866657000035,401.57343210000545,None,None,401.57343210000545,None,402.3724896503612,None,,,,12006,0002,2021_Nov_16_1140,localizer,2021.1.3,59.679794164809614,
block,scrambled,scrambled070.bmp,,,,,0,205,205,205,,,,,,,,,,,,,,,,,,,,,,,,,,,,,,,,,,,,,,,,,,None,,402.3724896503612,None,402.3724896503612,None,2021-11-16-11:47:21.189879,402.37980320025235,402.68773450050503,402.37980320025235,402.37980320025235,None,402.37980320025235,402.37980320025235,403.1877369504422,None,,,,12006,0002,2021_Nov_16_1140,localizer,2021.1.3,59.679794164809614,
block,scrambled,scrambled067.bmp,,,,,0,206,206,206,,,,,,,,,,,,,,,,,,,,,,,,,,,,,,,,,,,,,,,,,,None,,403.1877369504422,None,403.1877369504422,None,2021-11-16-11:47:22.000267,403.1899469997734,403.504304099828,403.1899469997734,None,None,403.1899469997734,None,404.00512305051086,None,,,,12006,0002,2021_Nov_16_1140,localizer,2021.1.3,59.679794164809614,
block,scrambled,scrambled036.bmp,,,,,0,207,207,207,,,,,,,,,,,,,,,,,,,,,,,,,,,,,,,,,,,,,,,,,,None,,404.00512305051086,None,404.00512305051086,None,2021-11-16-11:47:22.818464,404.0072709005326,404.32026840001345,404.0072709005326,None,None,404.0072709005326,None,404.82050885036585,None,,,,12006,0002,2021_Nov_16_1140,localizer,2021.1.3,59.679794164809614,
block,scrambled,scrambled036.bmp,,,,,0,208,208,208,,,,,,,,,,,,,,,,,,,,,,,,,,,,,,,,,,,,,,,,,,None,,404.82050885036585,None,404.82050885036585,None,2021-11-16-11:47:23.632109,404.82135159987956,405.1203837003559,404.82135159987956,None,y,404.82135159987956,None,405.6214816501364,None,0.6364829996600747,,,12006,0002,2021_Nov_16_1140,localizer,2021.1.3,59.679794164809614,
block,scrambled,scrambled079.bmp,,,,,0,209,209,209,,,,,,,,,,,,,,,,,,,,,,,,,,,,,,,,,,,,,,,,,,None,,405.6214816501364,None,405.6214816501364,None,2021-11-16-11:47:24.437754,405.6620914004743,405.9710119999945,405.6620914004743,405.6620914004743,None,405.6620914004743,405.6620914004743,406.4378089500591,None,,,,12006,0002,2021_Nov_16_1140,localizer,2021.1.3,59.679794164809614,
block,scrambled,scrambled034.bmp,,,,,0,210,210,210,,,,,,,,,,,,,,,,,,,,,,,,,,,,,,,,,,,,,,,,,,None,,406.4378089500591,None,406.4378089500591,None,2021-11-16-11:47:25.250349,406.4398998999968,406.7543010003865,406.4398998999968,None,None,406.4398998999968,None,407.2539022505283,None,,,,12006,0002,2021_Nov_16_1140,localizer,2021.1.3,59.679794164809614,
block,scrambled,scrambled043.bmp,,,,,0,211,211,211,,,,,,,,,,,,,,,,,,,,,,,,,,,,,,,,,,,,,,,,,,None,,407.2539022505283,None,407.2539022505283,None,2021-11-16-11:47:26.065275,407.25459340028465,407.5537748001516,407.25459340028465,None,None,407.25459340028465,None,408.0539213499054,None,,,,12006,0002,2021_Nov_16_1140,localizer,2021.1.3,59.679794164809614,
block,scrambled,scrambled064.bmp,,,,,0,212,212,212,,,,,,,,,,,,,,,,,,,,,,,,,,,,,,,,,,,,,,,,,,None,,408.0539213499054,None,408.0539213499054,None,2021-11-16-11:47:26.867403,408.05645950045437,408.3705003997311,408.05645950045437,408.05645950045437,None,408.05645950045437,408.05645950045437,408.8558668499812,None,,,,12006,0002,2021_Nov_16_1140,localizer,2021.1.3,59.679794164809614,
block_end,scrambled,scrambled021.bmp,,,,,0,213,213,213,,,,,,,,,,,,,,,,,,,,,,,,,,,,,,,,,,,,,,,,,,None,,408.8558668499812,None,408.8558668499812,None,2021-11-16-11:47:27.673322,408.86349789984524,409.17102310061455,408.86349789984524,408.86349789984524,None,408.86349789984524,408.86349789984524,409.67114825043825,None,,,,12006,0002,2021_Nov_16_1140,localizer,2021.1.3,59.679794164809614,
block_start,faces,faces048.bmp,,,,,0,214,214,214,,,,,,,,,,,,,,,,,,,,,,,,,,,,,,,,,,,,,,,,,,t,1.7919541001319885,409.6709519997239,None,409.6709519997239,None,2021-11-16-11:47:30.301896,411.4976499006152,411.80434329994023,411.4976499006152,None,None,411.4976499006152,None,412.3046413497999,None,,,,12006,0002,2021_Nov_16_1140,localizer,2021.1.3,59.679794164809614,
block,faces,faces014.bmp,,,,,0,215,215,215,,,,,,,,,,,,,,,,,,,,,,,,,,,,,,,,,,,,,,,,,,None,,412.3046413497999,None,412.3046413497999,None,2021-11-16-11:47:31.117129,412.3069206001237,412.62027280032635,412.3069206001237,None,None,412.3069206001237,None,413.1203684505075,None,,,,12006,0002,2021_Nov_16_1140,localizer,2021.1.3,59.679794164809614,
block,faces,faces082.bmp,,,,,0,216,216,216,,,,,,,,,,,,,,,,,,,,,,,,,,,,,,,,,,,,,,,,,,None,,413.1203684505075,None,413.1203684505075,None,2021-11-16-11:47:31.931732,413.1214121999219,413.4369224002585,413.1214121999219,None,None,413.1214121999219,None,413.9370660498738,None,,,,12006,0002,2021_Nov_16_1140,localizer,2021.1.3,59.679794164809614,
block,faces,faces062.bmp,,,,,0,217,217,217,,,,,,,,,,,,,,,,,,,,,,,,,,,,,,,,,,,,,,,,,,None,,413.9370660498738,None,413.9370660498738,None,2021-11-16-11:47:32.748430,413.9379984000698,414.23706340044737,413.9379984000698,None,None,413.9379984000698,None,414.7371616499498,None,,,,12006,0002,2021_Nov_16_1140,localizer,2021.1.3,59.679794164809614,
block,faces,faces083.bmp,,,,,0,218,218,218,,,,,,,,,,,,,,,,,,,,,,,,,,,,,,,,,,,,,,,,,,None,,414.7371616499498,None,414.7371616499498,None,2021-11-16-11:47:33.550528,414.7457907004282,415.0545295001939,414.7457907004282,414.7457907004282,None,414.7457907004282,414.7457907004282,415.5545247500762,None,,,,12006,0002,2021_Nov_16_1140,localizer,2021.1.3,59.679794164809614,
block,faces,faces047.bmp,,,,,0,219,219,219,,,,,,,,,,,,,,,,,,,,,,,,,,,,,,,,,,,,,,,,,,None,,415.5545247500762,None,415.5545247500762,None,2021-11-16-11:47:34.367065,415.5686029000208,415.8702337006107,415.5686029000208,None,None,415.5686029000208,None,416.3703434500843,None,,,,12006,0002,2021_Nov_16_1140,localizer,2021.1.3,59.679794164809614,
block,faces,faces085.bmp,,,,,0,220,220,220,,,,,,,,,,,,,,,,,,,,,,,,,,,,,,,,,,,,,,,,,,None,,416.3703434500843,None,416.3703434500843,None,2021-11-16-11:47:35.181710,416.37143820058554,416.6870328001678,416.37143820058554,None,None,416.37143820058554,None,417.187048750557,None,,,,12006,0002,2021_Nov_16_1140,localizer,2021.1.3,59.679794164809614,
block,faces,faces068.bmp,,,,,0,221,221,221,,,,,,,,,,,,,,,,,,,,,,,,,,,,,,,,,,,,,,,,,,None,,417.187048750557,None,417.187048750557,None,2021-11-16-11:47:35.998413,417.1980423005298,417.5036997003481,417.1980423005298,None,None,417.1980423005298,None,418.0035910500213,None,,,,12006,0002,2021_Nov_16_1140,localizer,2021.1.3,59.679794164809614,
block,faces,faces051.bmp,,,,,0,222,222,222,,,,,,,,,,,,,,,,,,,,,,,,,,,,,,,,,,,,,,,,,,None,,418.0035910500213,None,418.0035910500213,None,2021-11-16-11:47:36.814953,418.0047035999596,418.32048569992185,418.0047035999596,None,None,418.0047035999596,None,418.8042351497337,None,,,,12006,0002,2021_Nov_16_1140,localizer,2021.1.3,59.679794164809614,
block,faces,faces027.bmp,,,,,0,223,223,223,,,,,,,,,,,,,,,,,,,,,,,,,,,,,,,,,,,,,,,,,,None,,418.8042351497337,None,418.8042351497337,None,2021-11-16-11:47:37.617588,418.8070171000436,419.12082730047405,418.8070171000436,418.8070171000436,None,418.8070171000436,418.8070171000436,419.6208733502775,None,,,,12006,0002,2021_Nov_16_1140,localizer,2021.1.3,59.679794164809614,
block,faces,faces060.bmp,,,,,0,224,224,224,,,,,,,,,,,,,,,,,,,,,,,,,,,,,,,,,,,,,,,,,,None,,419.6208733502775,None,419.6208733502775,None,2021-11-16-11:47:38.433421,419.6223849002272,419.93722099997103,419.6223849002272,None,None,419.6223849002272,None,420.436739250645,None,,,,12006,0002,2021_Nov_16_1140,localizer,2021.1.3,59.679794164809614,
block,faces,faces054.bmp,,,,,0,225,225,225,,,,,,,,,,,,,,,,,,,,,,,,,,,,,,,,,,,,,,,,,,None,,420.436739250645,None,420.436739250645,None,2021-11-16-11:47:39.248338,420.44590190052986,420.7545656999573,420.44590190052986,None,None,420.44590190052986,None,421.25517155006526,None,,,,12006,0002,2021_Nov_16_1140,localizer,2021.1.3,59.679794164809614,
block,faces,faces063.bmp,,,,,0,226,226,226,,,,,,,,,,,,,,,,,,,,,,,,,,,,,,,,,,,,,,,,,,None,,421.25517155006526,None,421.25517155006526,None,2021-11-16-11:47:40.068595,421.26981850061566,421.5704688997939,421.26981850061566,None,None,421.26981850061566,None,422.0705064503476,None,,,,12006,0002,2021_Nov_16_1140,localizer,2021.1.3,59.679794164809614,
block,faces,faces080.bmp,,,,,0,227,227,227,,,,,,,,,,,,,,,,,,,,,,,,,,,,,,,,,,,,,,,,,,None,,422.0705064503476,None,422.0705064503476,None,2021-11-16-11:47:40.881867,422.07335480023175,422.38738169986755,422.07335480023175,None,None,422.07335480023175,None,422.88754865024237,None,,,,12006,0002,2021_Nov_16_1140,localizer,2021.1.3,59.679794164809614,
block_end,faces,faces045.bmp,,,,,0,228,228,228,,,,,,,,,,,,,,,,,,,,,,,,,,,,,,,,,,,,,,,,,,None,,422.88754865024237,None,422.88754865024237,None,2021-11-16-11:47:41.699903,422.8885305998847,423.2037928001955,422.8885305998847,None,None,422.8885305998847,None,423.7038154505193,None,,,,12006,0002,2021_Nov_16_1140,localizer,2021.1.3,59.679794164809614,
block_start,objects,objects005.bmp,,,,,0,229,229,229,,,,,,,,,,,,,,,,,,,,,,,,,,,,,,,,,,,,,,,,,,t,1.7592246001586318,423.70366670005023,None,423.70366670005023,None,2021-11-16-11:47:44.298200,425.48796010017395,425.7870979998261,425.48796010017395,None,None,425.48796010017395,None,426.2872466506436,None,,,,12006,0002,2021_Nov_16_1140,localizer,2021.1.3,59.679794164809614,
block,objects,objects020.bmp,,,,,0,230,230,230,,,,,,,,,,,,,,,,,,,,,,,,,,,,,,,,,,,,,,,,,,None,,426.2872466506436,None,426.2872466506436,None,2021-11-16-11:47:45.100603,426.2900972003117,426.6040617004037,426.2900972003117,426.2900972003117,None,426.2900972003117,426.2900972003117,427.10363175030795,None,,,,12006,0002,2021_Nov_16_1140,localizer,2021.1.3,59.679794164809614,
block,objects,objects003.bmp,,,,,0,231,231,231,,,,,,,,,,,,,,,,,,,,,,,,,,,,,,,,,,,,,,,,,,None,,427.10363175030795,None,427.10363175030795,None,2021-11-16-11:47:45.914674,427.1048861006275,427.4204638004303,427.1048861006275,None,None,427.1048861006275,None,427.90458484981207,None,,,,12006,0002,2021_Nov_16_1140,localizer,2021.1.3,59.679794164809614,
block,objects,objects001.bmp,,,,,0,232,232,232,,,,,,,,,,,,,,,,,,,,,,,,,,,,,,,,,,,,,,,,,,None,,427.90458484981207,None,427.90458484981207,None,2021-11-16-11:47:46.719173,427.90802730061114,428.22125739976764,427.90802730061114,427.90802730061114,None,427.90802730061114,427.90802730061114,428.7212044499814,None,,,,12006,0002,2021_Nov_16_1140,localizer,2021.1.3,59.679794164809614,
block,objects,objects048.bmp,,,,,0,233,233,233,,,,,,,,,,,,,,,,,,,,,,,,,,,,,,,,,,,,,,,,,,None,,428.7212044499814,None,428.7212044499814,None,2021-11-16-11:47:47.534341,428.7338601006195,429.0371519997716,428.7338601006195,None,None,428.7338601006195,None,429.5372473500669,None,,,,12006,0002,2021_Nov_16_1140,localizer,2021.1.3,59.679794164809614,
block,objects,objects051.bmp,,,,,0,234,234,234,,,,,,,,,,,,,,,,,,,,,,,,,,,,,,,,,,,,,,,,,,None,,429.5372473500669,None,429.5372473500669,None,2021-11-16-11:47:48.348610,429.54732319992036,429.86049349978566,429.54732319992036,None,None,429.54732319992036,None,430.3540795497596,None,,,,12006,0002,2021_Nov_16_1140,localizer,2021.1.3,59.679794164809614,
block,objects,objects026.bmp,,,,,0,235,235,235,,,,,,,,,,,,,,,,,,,,,,,,,,,,,,,,,,,,,,,,,,None,,430.3540795497596,None,430.3540795497596,None,2021-11-16-11:47:49.165649,430.3646994000301,430.67037300020456,430.3646994000301,None,None,430.3646994000301,None,431.1706707501784,None,,,,12006,0002,2021_Nov_16_1140,localizer,2021.1.3,59.679794164809614,
block,objects,objects014.bmp,,,,,0,236,236,236,,,,,,,,,,,,,,,,,,,,,,,,,,,,,,,,,,,,,,,,,,None,,431.1706707501784,None,431.1706707501784,None,2021-11-16-11:47:49.982034,431.18167209997773,431.48699040059,431.18167209997773,None,None,431.18167209997773,None,431.9873169498518,None,,,,12006,0002,2021_Nov_16_1140,localizer,2021.1.3,59.679794164809614,
block,objects,objects054.bmp,,,,,0,237,237,237,,,,,,,,,,,,,,,,,,,,,,,,,,,,,,,,,,,,,,,,,,None,,431.9873169498518,None,431.9873169498518,None,2021-11-16-11:47:50.798677,431.98801320046186,432.28745230007917,431.98801320046186,None,None,431.98801320046186,None,432.7873085500672,None,,,,12006,0002,2021_Nov_16_1140,localizer,2021.1.3,59.679794164809614,
block,objects,objects031.bmp,,,,,0,238,238,238,,,,,,,,,,,,,,,,,,,,,,,,,,,,,,,,,,,,,,,,,,None,,432.7873085500672,None,432.7873085500672,None,2021-11-16-11:47:51.600556,432.7884423006326,433.1040078001097,432.7884423006326,432.7884423006326,None,432.7884423006326,432.7884423006326,433.6040770500898,None,,,,12006,0002,2021_Nov_16_1140,localizer,2021.1.3,59.679794164809614,
block,objects,objects045.bmp,,,,,0,239,239,239,,,,,,,,,,,,,,,,,,,,,,,,,,,,,,,,,,,,,,,,,,None,,433.6040770500898,None,433.6040770500898,None,2021-11-16-11:47:52.415661,433.60502430051565,433.92070639971644,433.60502430051565,None,None,433.60502430051565,None,434.40427015032617,None,,,,12006,0002,2021_Nov_16_1140,localizer,2021.1.3,59.679794164809614,
block,objects,objects086.bmp,,,,,0,240,240,240,,,,,,,,,,,,,,,,,,,,,,,,,,,,,,,,,,,,,,,,,,None,,434.40427015032617,None,434.40427015032617,None,2021-11-16-11:47:53.218892,434.4176556998864,434.7205519005656,434.4176556998864,434.4176556998864,None,434.4176556998864,434.4176556998864,435.22092905044553,None,,,,12006,0002,2021_Nov_16_1140,localizer,2021.1.3,59.679794164809614,
block,objects,objects055.bmp,,,,,0,241,241,241,,,,,,,,,,,,,,,,,,,,,,,,,,,,,,,,,,,,,,,,,,None,,435.22092905044553,None,435.22092905044553,None,2021-11-16-11:47:54.033283,435.2215784005821,435.5208491999656,435.2215784005821,None,None,435.2215784005821,None,436.0206775503233,None,,,,12006,0002,2021_Nov_16_1140,localizer,2021.1.3,59.679794164809614,
block,objects,objects004.bmp,,,,,0,242,242,242,,,,,,,,,,,,,,,,,,,,,,,,,,,,,,,,,,,,,,,,,,None,,436.0206775503233,None,436.0206775503233,None,2021-11-16-11:47:54.834233,436.0326081998646,436.3372892998159,436.0326081998646,436.0326081998646,None,436.0326081998646,436.0326081998646,436.83758045043794,None,,,,12006,0002,2021_Nov_16_1140,localizer,2021.1.3,59.679794164809614,
block_end,objects,objects073.bmp,,,,,0,243,243,243,,,,,,,,,,,,,,,,,,,,,,,,,,,,,,,,,,,,,,,,,,None,,436.83758045043794,None,436.83758045043794,None,2021-11-16-11:47:55.650126,436.83819250017405,437.13751790020615,436.83819250017405,None,None,436.83819250017405,None,437.6378806499764,None,,,,12006,0002,2021_Nov_16_1140,localizer,2021.1.3,59.679794164809614,
,,,,,,,,,,,,,,,,,,,,,,,,,,,,,,,,,,,,,,,,,,,,,,,,,,,,,,,,,,,,,,,,,,,,,437.6418137997389,None,,,,,,,
