block_type,condition,img_name,Button.thisRepN,Button.thisTrialN,Button.thisN,Button.thisIndex,trials.thisRepN,trials.thisTrialN,trials.thisN,trials.thisIndex,Ready_experimenter_text.started,Ready_experimenter_text.stopped,Ready_experimenter_resp.keys,Ready_experimenter_resp.rt,Ready_experimenter_resp.started,Ready_experimenter_resp.stopped,Alignment_background.started,Alignment_background.stopped,Alignment_image.started,Alignment_image.stopped,Alignment_resp.keys,Alignment_resp.rt,Alignment_resp.started,Alignment_resp.stopped,Button_text.started,Button_text.stopped,Index_text.started,Index_text.stopped,Index_resp.keys,Index_resp.rt,Index_resp.started,Index_resp.stopped,Middle_text.started,Middle_text.stopped,Middle_resp.keys,Middle_resp.rt,Middle_resp.started,Middle_resp.stopped,Repeat_text.started,Repeat_text.stopped,Repeat_resp.keys,Repeat_resp.corr,Repeat_resp.rt,Repeat_resp.started,Repeat_resp.stopped,instruction_text.started,instruction_text.stopped,key_resp.keys,key_resp.rt,key_resp.started,key_resp.stopped,scanner_t.keys,scanner_t.rt,scanner_t.started,scanner_t.stopped,fixation_wait_for_t.started,fixation_wait_for_t.stopped,real_timestamp_trial_start,image.started,image.stopped,fixation.started,fixation.stopped,repeat_response.keys,repeat_response.started,repeat_response.stopped,fixation_null.started,fixation_null.stopped,repeat_response.rt,end_text.started,end_text.stopped,participant,run,date,expName,psychopyVersion,frameRate,
,,,,,,,,,,,8.406036600004882,None,return,44.82384119997732,8.406036600004882,None,,,,,,,,,,,,,,,,,,,,,,,,,,,,,,,,,,,,,,,,,,,,,,,,,,,,,,,21003,0001,2022_Mar_01_1526,localizer,2021.1.3,61.31933454757772,
,,,,,,,,,,,,,,,,,53.27454710006714,None,53.27454710006714,None,return,6.055157499969937,53.27454710006714,None,,,,,,,,,,,,,,,,,,,,,,,,,,,,,,,,,,,,,,,,,,,,,,,21003,0001,2022_Mar_01_1526,localizer,2021.1.3,61.31933454757772,
,,,0,0,0,0,,,,,,,,,,,,,,,,,,,59.35635799996089,None,60.37375779997092,None,y,2.2524259999627247,60.37375779997092,None,62.655532800010405,None,b,1.3895799000747502,62.655532800010405,None,64.06779030000325,None,n,0,28.100996499997564,64.06779030000325,None,,,,,,,,,,,,,,,,,,,,,,,,,,21003,0001,2022_Mar_01_1526,localizer,2021.1.3,61.31933454757772,
,,,,,,,,,,,,,,,,,,,,,,,,,,,,,,,,,,,,,,,,,,,,,,92.184956699959,None,y,12.200380600057542,92.184956699959,None,,,,,,,,,,,,,,,,,,,,21003,0001,2022_Mar_01_1526,localizer,2021.1.3,61.31933454757772,
null_block,null_block,null_block.bmp,,,,,0,0,0,0,,,,,,,,,,,,,,,,,,,,,,,,,,,,,,,,,,,,,,,,,,t,15.84737070009578,104.46868779999204,None,104.46868779999204,None,2022-03-01-15:27:57.759532,120.35162241996733,None,120.35162241996733,None,None,120.35162241996733,None,120.35146050003823,None,,,,21003,0001,2022_Mar_01_1526,localizer,2021.1.3,61.31933454757772,
block_start,objects,objects082.bmp,,,,,0,1,1,1,,,,,,,,,,,,,,,,,,,,,,,,,,,,,,,,,,,,,,,,,,t,1.9647109000943601,132.35137270006817,None,132.35137270006817,None,2022-03-01-15:28:11.764705,134.348230100004,134.65189219999593,134.348230100004,None,None,134.348230100004,None,135.1411462100572,None,,,,21003,0001,2022_Mar_01_1526,localizer,2021.1.3,61.31933454757772,
block,objects,objects029.bmp,,,,,0,2,2,2,,,,,,,,,,,,,,,,,,,,,,,,,,,,,,,,,,,,,,,,,,None,,135.1411462100572,None,135.1411462100572,None,2022-03-01-15:28:12.572848,135.15997829998378,135.46853750001173,135.15997829998378,None,None,135.15997829998378,None,135.95197180999676,None,,,,21003,0001,2022_Mar_01_1526,localizer,2021.1.3,61.31933454757772,
block,objects,objects071.bmp,,,,,0,3,3,3,,,,,,,,,,,,,,,,,,,,,,,,,,,,,,,,,,,,,,,,,,None,,135.95197180999676,None,135.95197180999676,None,2022-03-01-15:28:13.379059,135.96296210004948,136.26850550004747,135.96296210004948,None,None,135.96296210004948,None,136.7686817100388,None,,,,21003,0001,2022_Mar_01_1526,localizer,2021.1.3,61.31933454757772,
block,objects,objects045.bmp,,,,,0,4,4,4,,,,,,,,,,,,,,,,,,,,,,,,,,,,,,,,,,,,,,,,,,None,,136.7686817100388,None,136.7686817100388,None,2022-03-01-15:28:14.196887,136.78125740005635,137.08447610004805,136.78125740005635,None,None,136.78125740005635,None,137.5847617100575,None,,,,21003,0001,2022_Mar_01_1526,localizer,2021.1.3,61.31933454757772,
block,objects,objects037.bmp,,,,,0,5,5,5,,,,,,,,,,,,,,,,,,,,,,,,,,,,,,,,,,,,,,,,,,None,,137.5847617100575,None,137.5847617100575,None,2022-03-01-15:28:15.010903,137.59098880004603,137.90103040006943,137.59098880004603,None,None,137.59098880004603,None,138.40217340997188,None,,,,21003,0001,2022_Mar_01_1526,localizer,2021.1.3,61.31933454757772,
block,objects,objects020.bmp,,,,,0,6,6,6,,,,,,,,,,,,,,,,,,,,,,,,,,,,,,,,,,,,,,,,,,None,,138.40217340997188,None,138.40217340997188,None,2022-03-01-15:28:15.829315,138.4134161999682,138.71778790000826,138.4134161999682,None,None,138.4134161999682,None,139.2194145099842,None,,,,21003,0001,2022_Mar_01_1526,localizer,2021.1.3,61.31933454757772,
block,objects,objects050.bmp,,,,,0,7,7,7,,,,,,,,,,,,,,,,,,,,,,,,,,,,,,,,,,,,,,,,,,None,,139.2194145099842,None,139.2194145099842,None,2022-03-01-15:28:16.647767,139.23457530001178,139.5357526000589,139.23457530001178,None,None,139.23457530001178,None,140.03600820995635,None,,,,21003,0001,2022_Mar_01_1526,localizer,2021.1.3,61.31933454757772,
block,objects,objects080.bmp,,,,,0,8,8,8,,,,,,,,,,,,,,,,,,,,,,,,,,,,,,,,,,,,,,,,,,None,,140.03600820995635,None,140.03600820995635,None,2022-03-01-15:28:17.463726,140.0490901999874,140.3512171000475,140.0490901999874,None,None,140.0490901999874,None,140.85137521001744,None,,,,21003,0001,2022_Mar_01_1526,localizer,2021.1.3,61.31933454757772,
block,objects,objects010.bmp,,,,,0,9,9,9,,,,,,,,,,,,,,,,,,,,,,,,,,,,,,,,,,,,,,,,,,None,,140.85137521001744,None,140.85137521001744,None,2022-03-01-15:28:18.277606,140.8613622999983,141.16854480002075,140.8613622999983,None,None,140.8613622999983,None,141.66863720995607,None,,,,21003,0001,2022_Mar_01_1526,localizer,2021.1.3,61.31933454757772,
block,objects,objects064.bmp,,,,,0,10,10,10,,,,,,,,,,,,,,,,,,,,,,,,,,,,,,,,,,,,,,,,,,None,,141.66863720995607,None,141.66863720995607,None,2022-03-01-15:28:19.095880,141.6804070000071,141.9844428000506,141.6804070000071,None,None,141.6804070000071,None,142.4843619100633,None,,,,21003,0001,2022_Mar_01_1526,localizer,2021.1.3,61.31933454757772,
block,objects,objects019.bmp,,,,,0,11,11,11,,,,,,,,,,,,,,,,,,,,,,,,,,,,,,,,,,,,,,,,,,None,,142.4843619100633,None,142.4843619100633,None,2022-03-01-15:28:19.910519,142.4931386000244,142.80184169998392,142.4931386000244,None,None,142.4931386000244,None,143.30306631004206,None,,,,21003,0001,2022_Mar_01_1526,localizer,2021.1.3,61.31933454757772,
block,objects,objects028.bmp,,,,,0,12,12,12,,,,,,,,,,,,,,,,,,,,,,,,,,,,,,,,,,,,,,,,,,None,,143.30306631004206,None,143.30306631004206,None,2022-03-01-15:28:20.732364,143.31715899996925,143.61791819997597,143.31715899996925,None,None,143.31715899996925,None,144.11805000997848,None,,,,21003,0001,2022_Mar_01_1526,localizer,2021.1.3,61.31933454757772,
block,objects,objects039.bmp,,,,,0,13,13,13,,,,,,,,,,,,,,,,,,,,,,,,,,,,,,,,,,,,,,,,,,None,,144.11805000997848,None,144.11805000997848,None,2022-03-01-15:28:21.544374,144.12303739995696,144.4352879000362,144.12303739995696,None,None,144.12303739995696,None,144.9359353100066,None,,,,21003,0001,2022_Mar_01_1526,localizer,2021.1.3,61.31933454757772,
block,objects,objects054.bmp,,,,,0,14,14,14,,,,,,,,,,,,,,,,,,,,,,,,,,,,,,,,,,,,,,,,,,None,,144.9359353100066,None,144.9359353100066,None,2022-03-01-15:28:22.365255,144.94943060004152,145.2519106999971,144.94943060004152,None,None,144.94943060004152,None,145.7519874100457,None,,,,21003,0001,2022_Mar_01_1526,localizer,2021.1.3,61.31933454757772,
block_end,objects,objects036.bmp,,,,,0,15,15,15,,,,,,,,,,,,,,,,,,,,,,,,,,,,,,,,,,,,,,,,,,None,,145.7519874100457,None,145.7519874100457,None,2022-03-01-15:28:23.179601,145.76351860002615,146.06803279998712,145.76351860002615,None,None,145.76351860002615,None,146.568459610024,None,,,,21003,0001,2022_Mar_01_1526,localizer,2021.1.3,61.31933454757772,
block_start,faces,faces036.bmp,,,,,0,16,16,16,,,,,,,,,,,,,,,,,,,,,,,,,,,,,,,,,,,,,,,,,,t,1.7477862000232562,146.5682510000188,None,146.5682510000188,None,2022-03-01-15:28:25.764408,148.34956770006102,148.65134650003165,148.34956770006102,None,None,148.34956770006102,None,149.15161291001132,None,,,,21003,0001,2022_Mar_01_1526,localizer,2021.1.3,61.31933454757772,
block,faces,faces085.bmp,,,,,0,17,17,17,,,,,,,,,,,,,,,,,,,,,,,,,,,,,,,,,,,,,,,,,,None,,149.15161291001132,None,149.15161291001132,None,2022-03-01-15:28:26.578455,149.15865520003717,149.46857989998534,149.15865520003717,None,None,149.15865520003717,None,149.96865821004613,None,,,,21003,0001,2022_Mar_01_1526,localizer,2021.1.3,61.31933454757772,
block,faces,faces024.bmp,,,,,0,18,18,18,,,,,,,,,,,,,,,,,,,,,,,,,,,,,,,,,,,,,,,,,,None,,149.96865821004613,None,149.96865821004613,None,2022-03-01-15:28:27.396126,149.9813602999784,150.28448879998177,149.9813602999784,None,None,149.9813602999784,None,150.7847923100111,None,,,,21003,0001,2022_Mar_01_1526,localizer,2021.1.3,61.31933454757772,
block,faces,faces080.bmp,,,,,0,19,19,19,,,,,,,,,,,,,,,,,,,,,,,,,,,,,,,,,,,,,,,,,,None,,150.7847923100111,None,150.7847923100111,None,2022-03-01-15:28:28.211294,150.79868070001248,151.10529129998758,150.79868070001248,None,None,150.79868070001248,None,151.60144091005205,None,,,,21003,0001,2022_Mar_01_1526,localizer,2021.1.3,61.31933454757772,
block,faces,faces065.bmp,,,,,0,20,20,20,,,,,,,,,,,,,,,,,,,,,,,,,,,,,,,,,,,,,,,,,,None,,151.60144091005205,None,151.60144091005205,None,2022-03-01-15:28:29.028286,151.61852110002656,151.91861270007212,151.61852110002656,None,None,151.61852110002656,None,152.41984161004657,None,,,,21003,0001,2022_Mar_01_1526,localizer,2021.1.3,61.31933454757772,
block,faces,faces010.bmp,,,,,0,21,21,21,,,,,,,,,,,,,,,,,,,,,,,,,,,,,,,,,,,,,,,,,,None,,152.41984161004657,None,152.41984161004657,None,2022-03-01-15:28:29.847369,152.43370739999227,152.73496270005126,152.43370739999227,None,None,152.43370739999227,None,153.2349373100209,None,,,,21003,0001,2022_Mar_01_1526,localizer,2021.1.3,61.31933454757772,
block,faces,faces006.bmp,,,,,0,22,22,22,,,,,,,,,,,,,,,,,,,,,,,,,,,,,,,,,,,,,,,,,,None,,153.2349373100209,None,153.2349373100209,None,2022-03-01-15:28:30.661505,153.24474780005403,153.5519820000045,153.24474780005403,None,None,153.24474780005403,None,154.0527707100031,None,,,,21003,0001,2022_Mar_01_1526,localizer,2021.1.3,61.31933454757772,
block,faces,faces047.bmp,,,,,0,23,23,23,,,,,,,,,,,,,,,,,,,,,,,,,,,,,,,,,,,,,,,,,,None,,154.0527707100031,None,154.0527707100031,None,2022-03-01-15:28:31.479545,154.0667211000109,154.3678910000017,154.0667211000109,None,None,154.0667211000109,None,154.86934561006493,None,,,,21003,0001,2022_Mar_01_1526,localizer,2021.1.3,61.31933454757772,
block,faces,faces055.bmp,,,,,0,24,24,24,,,,,,,,,,,,,,,,,,,,,,,,,,,,,,,,,,,,,,,,,,None,,154.86934561006493,None,154.86934561006493,None,2022-03-01-15:28:32.297957,154.88311040005647,155.18463230005,154.88311040005647,None,None,154.88311040005647,None,155.6851030100719,None,,,,21003,0001,2022_Mar_01_1526,localizer,2021.1.3,61.31933454757772,
block,faces,faces075.bmp,,,,,0,25,25,25,,,,,,,,,,,,,,,,,,,,,,,,,,,,,,,,,,,,,,,,,,None,,155.6851030100719,None,155.6851030100719,None,2022-03-01-15:28:33.111963,155.69597360002808,156.00160439999308,155.69597360002808,None,None,155.69597360002808,None,156.50268450999866,None,,,,21003,0001,2022_Mar_01_1526,localizer,2021.1.3,61.31933454757772,
block,faces,faces066.bmp,,,,,0,26,26,26,,,,,,,,,,,,,,,,,,,,,,,,,,,,,,,,,,,,,,,,,,None,,156.50268450999866,None,156.50268450999866,None,2022-03-01-15:28:33.930520,156.5155673000263,156.8180493999971,156.5155673000263,None,None,156.5155673000263,None,157.31829011001392,None,,,,21003,0001,2022_Mar_01_1526,localizer,2021.1.3,61.31933454757772,
block,faces,faces030.bmp,,,,,0,27,27,27,,,,,,,,,,,,,,,,,,,,,,,,,,,,,,,,,,,,,,,,,,None,,157.31829011001392,None,157.31829011001392,None,2022-03-01-15:28:34.744972,157.33004589995835,157.63471590005793,157.33004589995835,None,None,157.33004589995835,None,158.124444410007,None,,,,21003,0001,2022_Mar_01_1526,localizer,2021.1.3,61.31933454757772,
block,faces,faces078.bmp,,,,,0,28,28,28,,,,,,,,,,,,,,,,,,,,,,,,,,,,,,,,,,,,,,,,,,None,,158.124444410007,None,158.124444410007,None,2022-03-01-15:28:35.559094,158.14013089996297,158.4519219000358,158.14013089996297,None,None,158.14013089996297,None,158.9350099100615,None,,,,21003,0001,2022_Mar_01_1526,localizer,2021.1.3,61.31933454757772,
block,faces,faces070.bmp,,,,,0,29,29,29,,,,,,,,,,,,,,,,,,,,,,,,,,,,,,,,,,,,,,,,,,None,,158.9350099100615,None,158.9350099100615,None,2022-03-01-15:28:36.361733,158.94634090003092,159.2519517999608,158.94634090003092,None,None,158.94634090003092,None,159.75353101004148,None,,,,21003,0001,2022_Mar_01_1526,localizer,2021.1.3,61.31933454757772,
block_end,faces,faces044.bmp,,,,,0,30,30,30,,,,,,,,,,,,,,,,,,,,,,,,,,,,,,,,,,,,,,,,,,None,,159.75353101004148,None,159.75353101004148,None,2022-03-01-15:28:37.184399,159.7695315000601,160.08471610001288,159.7695315000601,None,None,159.7695315000601,None,160.56788311005803,None,,,,21003,0001,2022_Mar_01_1526,localizer,2021.1.3,61.31933454757772,
block_start,scrambled,scrambled032.bmp,,,,,0,31,31,31,,,,,,,,,,,,,,,,,,,,,,,,,,,,,,,,,,,,,,,,,,t,1.7480416999896988,160.56803820002824,None,160.56803820002824,None,2022-03-01-15:28:39.762201,162.34748150000814,162.65157079999335,162.34748150000814,None,None,162.34748150000814,None,163.13941931006266,None,,,,21003,0001,2022_Mar_01_1526,localizer,2021.1.3,61.31933454757772,
block,scrambled,scrambled005.bmp,,,,,0,32,32,32,,,,,,,,,,,,,,,,,,,,,,,,,,,,,,,,,,,,,,,,,,None,,163.13941931006266,None,163.13941931006266,None,2022-03-01-15:28:40.571233,163.15604190004524,163.46818219998386,163.15604190004524,None,None,163.15604190004524,None,163.95134701001226,None,,,,21003,0001,2022_Mar_01_1526,localizer,2021.1.3,61.31933454757772,
block,scrambled,scrambled047.bmp,,,,,0,33,33,33,,,,,,,,,,,,,,,,,,,,,,,,,,,,,,,,,,,,,,,,,,None,,163.95134701001226,None,163.95134701001226,None,2022-03-01-15:28:41.378776,163.96106280002277,164.26811960001942,163.96106280002277,None,None,163.96106280002277,None,164.76806581000565,None,,,,21003,0001,2022_Mar_01_1526,localizer,2021.1.3,61.31933454757772,
block,scrambled,scrambled064.bmp,,,,,0,34,34,34,,,,,,,,,,,,,,,,,,,,,,,,,,,,,,,,,,,,,,,,,,None,,164.76806581000565,None,164.76806581000565,None,2022-03-01-15:28:42.194954,164.77350670006126,165.08453430002555,164.77350670006126,None,None,164.77350670006126,None,165.5845576100168,None,,,,21003,0001,2022_Mar_01_1526,localizer,2021.1.3,61.31933454757772,
block,scrambled,scrambled074.bmp,,,,,0,35,35,35,,,,,,,,,,,,,,,,,,,,,,,,,,,,,,,,,,,,,,,,,,None,,165.5845576100168,None,165.5845576100168,None,2022-03-01-15:28:43.011466,165.59352770005353,165.90161319996696,165.59352770005353,None,None,165.59352770005353,None,166.40111551006558,None,,,,21003,0001,2022_Mar_01_1526,localizer,2021.1.3,61.31933454757772,
block,scrambled,scrambled044.bmp,,,,,0,36,36,36,,,,,,,,,,,,,,,,,,,,,,,,,,,,,,,,,,,,,,,,,,None,,166.40111551006558,None,166.40111551006558,None,2022-03-01-15:28:43.828295,166.40991579997353,166.71811110002454,166.40991579997353,None,None,166.40991579997353,None,167.21765630998416,None,,,,21003,0001,2022_Mar_01_1526,localizer,2021.1.3,61.31933454757772,
block,scrambled,scrambled061.bmp,,,,,0,37,37,37,,,,,,,,,,,,,,,,,,,,,,,,,,,,,,,,,,,,,,,,,,None,,167.21765630998416,None,167.21765630998416,None,2022-03-01-15:28:44.644610,167.22625880001578,167.5357772000134,167.22625880001578,None,None,167.22625880001578,None,168.02209770997288,None,,,,21003,0001,2022_Mar_01_1526,localizer,2021.1.3,61.31933454757772,
block,scrambled,scrambled035.bmp,,,,,0,38,38,38,,,,,,,,,,,,,,,,,,,,,,,,,,,,,,,,,,,,,,,,,,None,,168.02209770997288,None,168.02209770997288,None,2022-03-01-15:28:45.449289,168.03191060002428,168.3348769999575,168.03191060002428,None,None,168.03191060002428,None,168.83495451001218,None,,,,21003,0001,2022_Mar_01_1526,localizer,2021.1.3,61.31933454757772,
block,scrambled,scrambled011.bmp,,,,,0,39,39,39,,,,,,,,,,,,,,,,,,,,,,,,,,,,,,,,,,,,,,,,,,None,,168.83495451001218,None,168.83495451001218,None,2022-03-01-15:28:46.261948,168.84622559999116,169.15304450003896,168.84622559999116,None,None,168.84622559999116,None,169.65273780996213,None,,,,21003,0001,2022_Mar_01_1526,localizer,2021.1.3,61.31933454757772,
block,scrambled,scrambled056.bmp,,,,,0,40,40,40,,,,,,,,,,,,,,,,,,,,,,,,,,,,,,,,,,,,,,,,,,None,,169.65273780996213,None,169.65273780996213,None,2022-03-01-15:28:47.081749,169.66556980006862,169.96823190001305,169.66556980006862,None,None,169.66556980006862,None,170.46828170997324,None,,,,21003,0001,2022_Mar_01_1526,localizer,2021.1.3,61.31933454757772,
block,scrambled,scrambled033.bmp,,,,,0,41,41,41,,,,,,,,,,,,,,,,,,,,,,,,,,,,,,,,,,,,,,,,,,None,,170.46828170997324,None,170.46828170997324,None,2022-03-01-15:28:47.895321,170.47835380001925,170.785124200047,170.47835380001925,None,None,170.47835380001925,None,171.28505671004532,None,,,,21003,0001,2022_Mar_01_1526,localizer,2021.1.3,61.31933454757772,
block,scrambled,scrambled082.bmp,,,,,0,42,42,42,,,,,,,,,,,,,,,,,,,,,,,,,,,,,,,,,,,,,,,,,,None,,171.28505671004532,None,171.28505671004532,None,2022-03-01-15:28:48.712116,171.29499970003963,171.60156420001294,171.29499970003963,None,y,171.29499970003963,None,172.10170520996908,None,0.49983099999371916,,,21003,0001,2022_Mar_01_1526,localizer,2021.1.3,61.31933454757772,
block,scrambled,scrambled042.bmp,,,,,0,43,43,43,,,,,,,,,,,,,,,,,,,,,,,,,,,,,,,,,,,,,,,,,,None,,172.10170520996908,None,172.10170520996908,None,2022-03-01-15:28:49.529783,172.112741000019,172.4182433000533,172.112741000019,None,None,172.112741000019,None,172.91843501004624,None,,,,21003,0001,2022_Mar_01_1526,localizer,2021.1.3,61.31933454757772,
block,scrambled,scrambled071.bmp,,,,,0,44,44,44,,,,,,,,,,,,,,,,,,,,,,,,,,,,,,,,,,,,,,,,,,None,,172.91843501004624,None,172.91843501004624,None,2022-03-01-15:28:50.345537,172.92885839997325,173.23536519997288,172.92885839997325,None,None,172.92885839997325,None,173.73551731001353,None,,,,21003,0001,2022_Mar_01_1526,localizer,2021.1.3,61.31933454757772,
block_end,scrambled,scrambled025.bmp,,,,,0,45,45,45,,,,,,,,,,,,,,,,,,,,,,,,,,,,,,,,,,,,,,,,,,None,,173.73551731001353,None,173.73551731001353,None,2022-03-01-15:28:51.163583,173.7489135999931,174.05224440002348,173.7489135999931,None,None,173.7489135999931,None,174.55173211001093,None,,,,21003,0001,2022_Mar_01_1526,localizer,2021.1.3,61.31933454757772,
block_start,scenes,scenes048.bmp,,,,,0,46,46,46,,,,,,,,,,,,,,,,,,,,,,,,,,,,,,,,,,,,,,,,,,t,1.7644182000076398,174.55164810002316,None,174.55164810002316,None,2022-03-01-15:28:53.760559,176.34997790004127,176.6514609999722,176.34997790004127,None,None,176.34997790004127,None,177.15162941002055,None,,,,21003,0001,2022_Mar_01_1526,localizer,2021.1.3,61.31933454757772,
block,scenes,scenes088.bmp,,,,,0,47,47,47,,,,,,,,,,,,,,,,,,,,,,,,,,,,,,,,,,,,,,,,,,None,,177.15162941002055,None,177.15162941002055,None,2022-03-01-15:28:54.578660,177.16183210001327,177.46776230004616,177.16183210001327,None,None,177.16183210001327,None,177.96840670999373,None,,,,21003,0001,2022_Mar_01_1526,localizer,2021.1.3,61.31933454757772,
block,scenes,scenes047.bmp,,,,,0,48,48,48,,,,,,,,,,,,,,,,,,,,,,,,,,,,,,,,,,,,,,,,,,None,,177.96840670999373,None,177.96840670999373,None,2022-03-01-15:28:55.395844,177.97950749995653,178.2845607000636,177.97950749995653,None,None,177.97950749995653,None,178.78541171007092,None,,,,21003,0001,2022_Mar_01_1526,localizer,2021.1.3,61.31933454757772,
block,scenes,scenes042.bmp,,,,,0,49,49,49,,,,,,,,,,,,,,,,,,,,,,,,,,,,,,,,,,,,,,,,,,None,,178.78541171007092,None,178.78541171007092,None,2022-03-01-15:28:56.213667,178.7960507000098,179.10119099996518,178.7960507000098,None,None,178.7960507000098,None,179.6015748100239,None,,,,21003,0001,2022_Mar_01_1526,localizer,2021.1.3,61.31933454757772,
block,scenes,scenes089.bmp,,,,,0,50,50,50,,,,,,,,,,,,,,,,,,,,,,,,,,,,,,,,,,,,,,,,,,None,,179.6015748100239,None,179.6015748100239,None,2022-03-01-15:28:57.028859,179.61090630001854,179.91816760005895,179.61090630001854,None,None,179.61090630001854,None,180.41875761005795,None,,,,21003,0001,2022_Mar_01_1526,localizer,2021.1.3,61.31933454757772,
block,scenes,scenes009.bmp,,,,,0,51,51,51,,,,,,,,,,,,,,,,,,,,,,,,,,,,,,,,,,,,,,,,,,None,,180.41875761005795,None,180.41875761005795,None,2022-03-01-15:28:57.846305,180.42984290001914,180.73489500000142,180.42984290001914,None,None,180.42984290001914,None,181.23874601003482,None,,,,21003,0001,2022_Mar_01_1526,localizer,2021.1.3,61.31933454757772,
block,scenes,scenes080.bmp,,,,,0,52,52,52,,,,,,,,,,,,,,,,,,,,,,,,,,,,,,,,,,,,,,,,,,None,,181.23874601003482,None,181.23874601003482,None,2022-03-01-15:28:58.673623,181.26365059998352,181.56786499998998,181.26365059998352,None,None,181.26365059998352,None,182.05149820997613,None,,,,21003,0001,2022_Mar_01_1526,localizer,2021.1.3,61.31933454757772,
block,scenes,scenes054.bmp,,,,,0,53,53,53,,,,,,,,,,,,,,,,,,,,,,,,,,,,,,,,,,,,,,,,,,None,,182.05149820997613,None,182.05149820997613,None,2022-03-01-15:28:59.478852,182.06249839998782,182.36804790003225,182.06249839998782,None,None,182.06249839998782,None,182.86814651001478,None,,,,21003,0001,2022_Mar_01_1526,localizer,2021.1.3,61.31933454757772,
block,scenes,scenes068.bmp,,,,,0,54,54,54,,,,,,,,,,,,,,,,,,,,,,,,,,,,,,,,,,,,,,,,,,None,,182.86814651001478,None,182.86814651001478,None,2022-03-01-15:29:00.295521,182.8782702999888,183.18446560006123,182.8782702999888,None,None,182.8782702999888,None,183.68578751004534,None,,,,21003,0001,2022_Mar_01_1526,localizer,2021.1.3,61.31933454757772,
block,scenes,scenes033.bmp,,,,,0,55,55,55,,,,,,,,,,,,,,,,,,,,,,,,,,,,,,,,,,,,,,,,,,None,,183.68578751004534,None,183.68578751004534,None,2022-03-01-15:29:01.114360,183.69852470001206,184.0014114000369,183.69852470001206,None,None,183.69852470001206,None,184.5014632100123,None,,,,21003,0001,2022_Mar_01_1526,localizer,2021.1.3,61.31933454757772,
block,scenes,scenes011.bmp,,,,,0,56,56,56,,,,,,,,,,,,,,,,,,,,,,,,,,,,,,,,,,,,,,,,,,None,,184.5014632100123,None,184.5014632100123,None,2022-03-01-15:29:01.929100,184.51140860002488,184.81818389997352,184.51140860002488,None,None,184.51140860002488,None,185.319460909965,None,,,,21003,0001,2022_Mar_01_1526,localizer,2021.1.3,61.31933454757772,
block,scenes,scenes011.bmp,,,,,0,57,57,57,,,,,,,,,,,,,,,,,,,,,,,,,,,,,,,,,,,,,,,,,,None,,185.319460909965,None,185.319460909965,None,2022-03-01-15:29:02.748066,185.32168649998493,185.6359087000601,185.32168649998493,None,y,185.32168649998493,None,186.13479391,None,0.7163348000030965,,,21003,0001,2022_Mar_01_1526,localizer,2021.1.3,61.31933454757772,
block,scenes,scenes061.bmp,,,,,0,58,58,58,,,,,,,,,,,,,,,,,,,,,,,,,,,,,,,,,,,,,,,,,,None,,186.13479391,None,186.13479391,None,2022-03-01-15:29:03.562235,186.145404699957,186.4514993999619,186.145404699957,None,None,186.145404699957,None,186.95219670996303,None,,,,21003,0001,2022_Mar_01_1526,localizer,2021.1.3,61.31933454757772,
block,scenes,scenes040.bmp,,,,,0,59,59,59,,,,,,,,,,,,,,,,,,,,,,,,,,,,,,,,,,,,,,,,,,None,,186.95219670996303,None,186.95219670996303,None,2022-03-01-15:29:04.380670,186.95937489997596,187.2683283999795,186.95937489997596,None,None,186.95937489997596,None,187.76960660998012,None,,,,21003,0001,2022_Mar_01_1526,localizer,2021.1.3,61.31933454757772,
block_end,scenes,scenes050.bmp,,,,,0,60,60,60,,,,,,,,,,,,,,,,,,,,,,,,,,,,,,,,,,,,,,,,,,None,,187.76960660998012,None,187.76960660998012,None,2022-03-01-15:29:05.199274,187.78265820001252,188.0847597999964,187.78265820001252,None,None,187.78265820001252,None,188.58618101003813,None,,,,21003,0001,2022_Mar_01_1526,localizer,2021.1.3,61.31933454757772,
block_start,scenes,scenes055.bmp,,,,,0,61,61,61,,,,,,,,,,,,,,,,,,,,,,,,,,,,,,,,,,,,,,,,,,t,1.7299309000372887,188.5860409999732,None,188.5860409999732,None,2022-03-01-15:29:07.761492,190.34458420006558,190.65188290004153,190.34458420006558,None,None,190.34458420006558,None,191.15159530999372,None,,,,21003,0001,2022_Mar_01_1526,localizer,2021.1.3,61.31933454757772,
block,scenes,scenes016.bmp,,,,,0,62,62,62,,,,,,,,,,,,,,,,,,,,,,,,,,,,,,,,,,,,,,,,,,None,,191.15159530999372,None,191.15159530999372,None,2022-03-01-15:29:08.579199,191.1662247000495,191.4682843000628,191.1662247000495,None,None,191.1662247000495,None,191.96808640999953,None,,,,21003,0001,2022_Mar_01_1526,localizer,2021.1.3,61.31933454757772,
block,scenes,scenes032.bmp,,,,,0,63,63,63,,,,,,,,,,,,,,,,,,,,,,,,,,,,,,,,,,,,,,,,,,None,,191.96808640999953,None,191.96808640999953,None,2022-03-01-15:29:09.395953,191.9766621000599,192.28495040000416,191.9766621000599,None,None,191.9766621000599,None,192.78513291004347,None,,,,21003,0001,2022_Mar_01_1526,localizer,2021.1.3,61.31933454757772,
block,scenes,scenes052.bmp,,,,,0,64,64,64,,,,,,,,,,,,,,,,,,,,,,,,,,,,,,,,,,,,,,,,,,None,,192.78513291004347,None,192.78513291004347,None,2022-03-01-15:29:10.212779,192.7940307999961,193.10535480000544,192.7940307999961,None,None,192.7940307999961,None,193.60362411002862,None,,,,21003,0001,2022_Mar_01_1526,localizer,2021.1.3,61.31933454757772,
block,scenes,scenes026.bmp,,,,,0,65,65,65,,,,,,,,,,,,,,,,,,,,,,,,,,,,,,,,,,,,,,,,,,None,,193.60362411002862,None,193.60362411002862,None,2022-03-01-15:29:11.031751,193.61479410005268,193.91819990007207,193.61479410005268,None,None,193.61479410005268,None,194.41840910996544,None,,,,21003,0001,2022_Mar_01_1526,localizer,2021.1.3,61.31933454757772,
block,scenes,scenes023.bmp,,,,,0,66,66,66,,,,,,,,,,,,,,,,,,,,,,,,,,,,,,,,,,,,,,,,,,None,,194.41840910996544,None,194.41840910996544,None,2022-03-01-15:29:11.846099,194.4283231999725,194.73487619997468,194.4283231999725,None,None,194.4283231999725,None,195.23492641005433,None,,,,21003,0001,2022_Mar_01_1526,localizer,2021.1.3,61.31933454757772,
block,scenes,scenes091.bmp,,,,,0,67,67,67,,,,,,,,,,,,,,,,,,,,,,,,,,,,,,,,,,,,,,,,,,None,,195.23492641005433,None,195.23492641005433,None,2022-03-01-15:29:12.662828,195.24501109996345,195.55163929995615,195.24501109996345,None,None,195.24501109996345,None,196.05185501001543,None,,,,21003,0001,2022_Mar_01_1526,localizer,2021.1.3,61.31933454757772,
block,scenes,scenes056.bmp,,,,,0,68,68,68,,,,,,,,,,,,,,,,,,,,,,,,,,,,,,,,,,,,,,,,,,None,,196.05185501001543,None,196.05185501001543,None,2022-03-01-15:29:13.479584,196.06226260005496,196.368370900047,196.06226260005496,None,None,196.06226260005496,None,196.8685457100277,None,,,,21003,0001,2022_Mar_01_1526,localizer,2021.1.3,61.31933454757772,
block,scenes,scenes037.bmp,,,,,0,69,69,69,,,,,,,,,,,,,,,,,,,,,,,,,,,,,,,,,,,,,,,,,,None,,196.8685457100277,None,196.8685457100277,None,2022-03-01-15:29:14.296492,196.87856310000643,197.18458220001776,196.87856310000643,None,None,196.87856310000643,None,197.68466701001162,None,,,,21003,0001,2022_Mar_01_1526,localizer,2021.1.3,61.31933454757772,
block,scenes,scenes079.bmp,,,,,0,70,70,70,,,,,,,,,,,,,,,,,,,,,,,,,,,,,,,,,,,,,,,,,,None,,197.68466701001162,None,197.68466701001162,None,2022-03-01-15:29:15.112217,197.69261490006465,198.0020564000588,197.69261490006465,None,None,197.69261490006465,None,198.50084530996392,None,,,,21003,0001,2022_Mar_01_1526,localizer,2021.1.3,61.31933454757772,
block,scenes,scenes030.bmp,,,,,0,71,71,71,,,,,,,,,,,,,,,,,,,,,,,,,,,,,,,,,,,,,,,,,,None,,198.50084530996392,None,198.50084530996392,None,2022-03-01-15:29:15.927372,198.50873270002194,198.81771780003328,198.50873270002194,None,None,198.50873270002194,None,199.31842380998424,None,,,,21003,0001,2022_Mar_01_1526,localizer,2021.1.3,61.31933454757772,
block,scenes,scenes063.bmp,,,,,0,72,72,72,,,,,,,,,,,,,,,,,,,,,,,,,,,,,,,,,,,,,,,,,,None,,199.31842380998424,None,199.31842380998424,None,2022-03-01-15:29:16.746250,199.3292303000344,199.6349721000297,199.3292303000344,None,None,199.3292303000344,None,200.12489670995856,None,,,,21003,0001,2022_Mar_01_1526,localizer,2021.1.3,61.31933454757772,
block,scenes,scenes020.bmp,,,,,0,73,73,73,,,,,,,,,,,,,,,,,,,,,,,,,,,,,,,,,,,,,,,,,,None,,200.12489670995856,None,200.12489670995856,None,2022-03-01-15:29:17.560687,200.14119280001614,200.45167780003976,200.14119280001614,None,None,200.14119280001614,None,200.93532250999706,None,,,,21003,0001,2022_Mar_01_1526,localizer,2021.1.3,61.31933454757772,
block,scenes,scenes008.bmp,,,,,0,74,74,74,,,,,,,,,,,,,,,,,,,,,,,,,,,,,,,,,,,,,,,,,,None,,200.93532250999706,None,200.93532250999706,None,2022-03-01-15:29:18.363503,200.9461967999814,201.2522878999589,200.9461967999814,None,None,200.9461967999814,None,201.75244711005362,None,,,,21003,0001,2022_Mar_01_1526,localizer,2021.1.3,61.31933454757772,
block_end,scenes,scenes002.bmp,,,,,0,75,75,75,,,,,,,,,,,,,,,,,,,,,,,,,,,,,,,,,,,,,,,,,,None,,201.75244711005362,None,201.75244711005362,None,2022-03-01-15:29:19.181305,201.7639446000103,202.06892300001346,201.7639446000103,None,None,201.7639446000103,None,202.57229350999697,None,,,,21003,0001,2022_Mar_01_1526,localizer,2021.1.3,61.31933454757772,
null_block,null_block,null_block.bmp,,,,,0,76,76,76,,,,,,,,,,,,,,,,,,,,,,,,,,,,,,,,,,,,,,,,,,t,1.7415378000587225,202.57443719997536,None,202.57443719997536,None,2022-03-01-15:29:21.762200,204.3352375100716,None,204.3352375100716,None,None,204.3352375100716,None,204.33763329999056,None,,,,21003,0001,2022_Mar_01_1526,localizer,2021.1.3,61.31933454757772,
block_start,faces,faces062.bmp,,,,,0,77,77,77,,,,,,,,,,,,,,,,,,,,,,,,,,,,,,,,,,,,,,,,,,t,1.9643186000175774,216.35154870001134,None,216.35154870001134,None,2022-03-01-15:29:35.763722,218.3454827000387,218.6518138999818,218.3454827000387,None,None,218.3454827000387,None,219.14219801003347,None,,,,21003,0001,2022_Mar_01_1526,localizer,2021.1.3,61.31933454757772,
block,faces,faces070.bmp,,,,,0,78,78,78,,,,,,,,,,,,,,,,,,,,,,,,,,,,,,,,,,,,,,,,,,None,,219.14219801003347,None,219.14219801003347,None,2022-03-01-15:29:36.576390,219.14907779998612,219.4518425000133,219.14907779998612,None,None,219.14907779998612,None,219.95199261003873,None,,,,21003,0001,2022_Mar_01_1526,localizer,2021.1.3,61.31933454757772,
block,faces,faces065.bmp,,,,,0,79,79,79,,,,,,,,,,,,,,,,,,,,,,,,,,,,,,,,,,,,,,,,,,None,,219.95199261003873,None,219.95199261003873,None,2022-03-01-15:29:37.380555,219.9527369000716,220.25163119996432,219.9527369000716,None,None,219.9527369000716,None,220.75202470998047,None,,,,21003,0001,2022_Mar_01_1526,localizer,2021.1.3,61.31933454757772,
block,faces,faces015.bmp,,,,,0,80,80,80,,,,,,,,,,,,,,,,,,,,,,,,,,,,,,,,,,,,,,,,,,None,,220.75202470998047,None,220.75202470998047,None,2022-03-01-15:29:38.182464,220.77031040005386,221.0851853999775,220.77031040005386,220.77031040005386,None,220.77031040005386,220.77031040005386,221.56978310997366,None,,,,21003,0001,2022_Mar_01_1526,localizer,2021.1.3,61.31933454757772,
block,faces,faces069.bmp,,,,,0,81,81,81,,,,,,,,,,,,,,,,,,,,,,,,,,,,,,,,,,,,,,,,,,None,,221.56978310997366,None,221.56978310997366,None,2022-03-01-15:29:39.000205,221.58397310005967,221.885269899969,221.58397310005967,None,None,221.58397310005967,None,222.38592601000565,None,,,,21003,0001,2022_Mar_01_1526,localizer,2021.1.3,61.31933454757772,
block,faces,faces074.bmp,,,,,0,82,82,82,,,,,,,,,,,,,,,,,,,,,,,,,,,,,,,,,,,,,,,,,,None,,222.38592601000565,None,222.38592601000565,None,2022-03-01-15:29:39.814380,222.396084100008,222.70287769997958,222.396084100008,None,None,222.396084100008,None,223.2032229099772,None,,,,21003,0001,2022_Mar_01_1526,localizer,2021.1.3,61.31933454757772,
block,faces,faces064.bmp,,,,,0,83,83,83,,,,,,,,,,,,,,,,,,,,,,,,,,,,,,,,,,,,,,,,,,None,,223.2032229099772,None,223.2032229099772,None,2022-03-01-15:29:40.632853,223.216466999962,223.51853240001947,223.216466999962,None,None,223.216466999962,None,224.01918791005156,None,,,,21003,0001,2022_Mar_01_1526,localizer,2021.1.3,61.31933454757772,
block,faces,faces087.bmp,,,,,0,84,84,84,,,,,,,,,,,,,,,,,,,,,,,,,,,,,,,,,,,,,,,,,,None,,224.01918791005156,None,224.01918791005156,None,2022-03-01-15:29:41.448579,224.031791800051,224.33639429998584,224.031791800051,None,None,224.031791800051,None,224.83554161005887,None,,,,21003,0001,2022_Mar_01_1526,localizer,2021.1.3,61.31933454757772,
block,faces,faces056.bmp,,,,,0,85,85,85,,,,,,,,,,,,,,,,,,,,,,,,,,,,,,,,,,,,,,,,,,None,,224.83554161005887,None,224.83554161005887,None,2022-03-01-15:29:42.264251,224.84642880002502,225.1531584999757,224.84642880002502,None,None,224.84642880002502,None,225.65238181004534,None,,,,21003,0001,2022_Mar_01_1526,localizer,2021.1.3,61.31933454757772,
block,faces,faces042.bmp,,,,,0,86,86,86,,,,,,,,,,,,,,,,,,,,,,,,,,,,,,,,,,,,,,,,,,None,,225.65238181004534,None,225.65238181004534,None,2022-03-01-15:29:43.082117,225.66392159997486,225.9688641000539,225.66392159997486,None,None,225.66392159997486,None,226.46853891006904,None,,,,21003,0001,2022_Mar_01_1526,localizer,2021.1.3,61.31933454757772,
block,faces,faces072.bmp,,,,,0,87,87,87,,,,,,,,,,,,,,,,,,,,,,,,,,,,,,,,,,,,,,,,,,None,,226.46853891006904,None,226.46853891006904,None,2022-03-01-15:29:43.897105,226.47228900005575,226.7849050000077,226.47228900005575,None,None,226.47228900005575,None,227.28650921004592,None,,,,21003,0001,2022_Mar_01_1526,localizer,2021.1.3,61.31933454757772,
block,faces,faces072.bmp,,,,,0,88,88,88,,,,,,,,,,,,,,,,,,,,,,,,,,,,,,,,,,,,,,,,,,None,,227.28650921004592,None,227.28650921004592,None,2022-03-01-15:29:44.717253,227.28869389998727,227.60157990001608,227.28869389998727,None,y,227.28869389998727,None,228.10324171002722,None,0.6453004999784753,,,21003,0001,2022_Mar_01_1526,localizer,2021.1.3,61.31933454757772,
block,faces,faces057.bmp,,,,,0,89,89,89,,,,,,,,,,,,,,,,,,,,,,,,,,,,,,,,,,,,,,,,,,None,,228.10324171002722,None,228.10324171002722,None,2022-03-01-15:29:45.531853,228.11354030005168,228.42156359995715,228.11354030005168,None,None,228.11354030005168,None,228.918191410054,None,,,,21003,0001,2022_Mar_01_1526,localizer,2021.1.3,61.31933454757772,
block,faces,faces061.bmp,,,,,0,90,90,90,,,,,,,,,,,,,,,,,,,,,,,,,,,,,,,,,,,,,,,,,,None,,228.918191410054,None,228.918191410054,None,2022-03-01-15:29:46.346799,228.92870160005987,229.2354619000107,228.92870160005987,None,None,228.92870160005987,None,229.73592991001206,None,,,,21003,0001,2022_Mar_01_1526,localizer,2021.1.3,61.31933454757772,
block_end,faces,faces073.bmp,,,,,0,91,91,91,,,,,,,,,,,,,,,,,,,,,,,,,,,,,,,,,,,,,,,,,,None,,229.73592991001206,None,229.73592991001206,None,2022-03-01-15:29:47.165646,229.7480135000078,230.05144559999462,229.7480135000078,None,None,229.7480135000078,None,230.5521402099752,None,,,,21003,0001,2022_Mar_01_1526,localizer,2021.1.3,61.31933454757772,
block_start,objects,objects052.bmp,,,,,0,92,92,92,,,,,,,,,,,,,,,,,,,,,,,,,,,,,,,,,,,,,,,,,,t,1.7639413001015782,230.55202130007092,None,230.55202130007092,None,2022-03-01-15:29:49.764580,232.34674880001694,232.65245429996867,232.34674880001694,None,None,232.34674880001694,None,233.15274321000325,None,,,,21003,0001,2022_Mar_01_1526,localizer,2021.1.3,61.31933454757772,
block,objects,objects003.bmp,,,,,0,93,93,93,,,,,,,,,,,,,,,,,,,,,,,,,,,,,,,,,,,,,,,,,,None,,233.15274321000325,None,233.15274321000325,None,2022-03-01-15:29:50.582338,233.16324400005396,233.46846919995733,233.16324400005396,None,None,233.16324400005396,None,233.96927860999713,None,,,,21003,0001,2022_Mar_01_1526,localizer,2021.1.3,61.31933454757772,
block,objects,objects049.bmp,,,,,0,94,94,94,,,,,,,,,,,,,,,,,,,,,,,,,,,,,,,,,,,,,,,,,,None,,233.96927860999713,None,233.96927860999713,None,2022-03-01-15:29:51.399033,233.98025160003453,234.28523769997992,233.98025160003453,None,None,233.98025160003453,None,234.78574261002942,None,,,,21003,0001,2022_Mar_01_1526,localizer,2021.1.3,61.31933454757772,
block,objects,objects001.bmp,,,,,0,95,95,95,,,,,,,,,,,,,,,,,,,,,,,,,,,,,,,,,,,,,,,,,,None,,234.78574261002942,None,234.78574261002942,None,2022-03-01-15:29:52.214719,234.79616300005,235.10126300004777,234.79616300005,None,None,234.79616300005,None,235.6023277100525,None,,,,21003,0001,2022_Mar_01_1526,localizer,2021.1.3,61.31933454757772,
block,objects,objects042.bmp,,,,,0,96,96,96,,,,,,,,,,,,,,,,,,,,,,,,,,,,,,,,,,,,,,,,,,None,,235.6023277100525,None,235.6023277100525,None,2022-03-01-15:29:53.032327,235.61324820003938,235.91864339995664,235.61324820003938,None,None,235.61324820003938,None,236.4199939100421,None,,,,21003,0001,2022_Mar_01_1526,localizer,2021.1.3,61.31933454757772,
block,objects,objects032.bmp,,,,,0,97,97,97,,,,,,,,,,,,,,,,,,,,,,,,,,,,,,,,,,,,,,,,,,None,,236.4199939100421,None,236.4199939100421,None,2022-03-01-15:29:53.849998,236.43214859999716,236.73807960003614,236.43214859999716,None,None,236.43214859999716,None,237.23670121006435,None,,,,21003,0001,2022_Mar_01_1526,localizer,2021.1.3,61.31933454757772,
block,objects,objects047.bmp,,,,,0,98,98,98,,,,,,,,,,,,,,,,,,,,,,,,,,,,,,,,,,,,,,,,,,None,,237.23670121006435,None,237.23670121006435,None,2022-03-01-15:29:54.667125,237.24939420004375,237.55168220004998,237.24939420004375,None,None,237.24939420004375,None,238.05325991000282,None,,,,21003,0001,2022_Mar_01_1526,localizer,2021.1.3,61.31933454757772,
block,objects,objects083.bmp,,,,,0,99,99,99,,,,,,,,,,,,,,,,,,,,,,,,,,,,,,,,,,,,,,,,,,None,,238.05325991000282,None,238.05325991000282,None,2022-03-01-15:29:55.484257,238.06628150003962,238.36844420002308,238.06628150003962,None,None,238.06628150003962,None,238.8692952100304,None,,,,21003,0001,2022_Mar_01_1526,localizer,2021.1.3,61.31933454757772,
block,objects,objects036.bmp,,,,,0,100,100,100,,,,,,,,,,,,,,,,,,,,,,,,,,,,,,,,,,,,,,,,,,None,,238.8692952100304,None,238.8692952100304,None,2022-03-01-15:29:56.299184,238.8696168999886,239.1690091000637,238.8696168999886,None,None,238.8696168999886,None,239.66907501003007,None,,,,21003,0001,2022_Mar_01_1526,localizer,2021.1.3,61.31933454757772,
block,objects,objects027.bmp,,,,,0,101,101,101,,,,,,,,,,,,,,,,,,,,,,,,,,,,,,,,,,,,,,,,,,None,,239.66907501003007,None,239.66907501003007,None,2022-03-01-15:29:57.100966,239.68279230000917,239.98562150006182,239.68279230000917,239.68279230000917,None,239.68279230000917,239.68279230000917,240.48533351001097,None,,,,21003,0001,2022_Mar_01_1526,localizer,2021.1.3,61.31933454757772,
block,objects,objects021.bmp,,,,,0,102,102,102,,,,,,,,,,,,,,,,,,,,,,,,,,,,,,,,,,,,,,,,,,None,,240.48533351001097,None,240.48533351001097,None,2022-03-01-15:29:57.914414,240.49520880007185,240.80204700003378,240.49520880007185,None,None,240.49520880007185,None,241.3033642099821,None,,,,21003,0001,2022_Mar_01_1526,localizer,2021.1.3,61.31933454757772,
block,objects,objects084.bmp,,,,,0,103,103,103,,,,,,,,,,,,,,,,,,,,,,,,,,,,,,,,,,,,,,,,,,None,,241.3033642099821,None,241.3033642099821,None,2022-03-01-15:29:58.734205,241.31679970002733,241.61867950006854,241.31679970002733,None,None,241.31679970002733,None,242.12492521005916,None,,,,21003,0001,2022_Mar_01_1526,localizer,2021.1.3,61.31933454757772,
block,objects,objects059.bmp,,,,,0,104,104,104,,,,,,,,,,,,,,,,,,,,,,,,,,,,,,,,,,,,,,,,,,None,,242.12492521005916,None,242.12492521005916,None,2022-03-01-15:29:59.561844,242.14111049997155,242.452223100001,242.14111049997155,None,None,242.14111049997155,None,242.93680550999707,None,,,,21003,0001,2022_Mar_01_1526,localizer,2021.1.3,61.31933454757772,
block,objects,objects011.bmp,,,,,0,105,105,105,,,,,,,,,,,,,,,,,,,,,,,,,,,,,,,,,,,,,,,,,,None,,242.93680550999707,None,242.93680550999707,None,2022-03-01-15:30:00.367317,242.94997930002864,243.25187609996647,242.94997930002864,None,None,242.94997930002864,None,243.75269780998352,None,,,,21003,0001,2022_Mar_01_1526,localizer,2021.1.3,61.31933454757772,
block_end,objects,objects079.bmp,,,,,0,106,106,106,,,,,,,,,,,,,,,,,,,,,,,,,,,,,,,,,,,,,,,,,,None,,243.75269780998352,None,243.75269780998352,None,2022-03-01-15:30:01.182912,243.76423239998985,244.0687405000208,243.76423239998985,None,None,243.76423239998985,None,244.56907211003127,None,,,,21003,0001,2022_Mar_01_1526,localizer,2021.1.3,61.31933454757772,
block_start,scrambled,scrambled052.bmp,,,,,0,107,107,107,,,,,,,,,,,,,,,,,,,,,,,,,,,,,,,,,,,,,,,,,,t,1.7461942000081763,244.5688512000488,None,244.5688512000488,None,2022-03-01-15:30:03.764031,246.344282999984,246.6518135999795,246.344282999984,None,None,246.344282999984,None,247.14202420999064,None,,,,21003,0001,2022_Mar_01_1526,localizer,2021.1.3,61.31933454757772,
block,scrambled,scrambled049.bmp,,,,,0,108,108,108,,,,,,,,,,,,,,,,,,,,,,,,,,,,,,,,,,,,,,,,,,None,,247.14202420999064,None,247.14202420999064,None,2022-03-01-15:30:04.575186,247.15844589995686,247.46932350005955,247.15844589995686,None,None,247.15844589995686,None,247.95279220995727,None,,,,21003,0001,2022_Mar_01_1526,localizer,2021.1.3,61.31933454757772,
block,scrambled,scrambled084.bmp,,,,,0,109,109,109,,,,,,,,,,,,,,,,,,,,,,,,,,,,,,,,,,,,,,,,,,None,,247.95279220995727,None,247.95279220995727,None,2022-03-01-15:30:05.382963,247.96531959995627,248.26847030001227,247.96531959995627,None,None,247.96531959995627,None,248.7699497100315,None,,,,21003,0001,2022_Mar_01_1526,localizer,2021.1.3,61.31933454757772,
block,scrambled,scrambled027.bmp,,,,,0,110,110,110,,,,,,,,,,,,,,,,,,,,,,,,,,,,,,,,,,,,,,,,,,None,,248.7699497100315,None,248.7699497100315,None,2022-03-01-15:30:06.201080,248.77893090003636,249.08543179999106,248.77893090003636,None,None,248.77893090003636,None,249.5874830100569,None,,,,21003,0001,2022_Mar_01_1526,localizer,2021.1.3,61.31933454757772,
block,scrambled,scrambled032.bmp,,,,,0,111,111,111,,,,,,,,,,,,,,,,,,,,,,,,,,,,,,,,,,,,,,,,,,None,,249.5874830100569,None,249.5874830100569,None,2022-03-01-15:30:07.019758,249.59066149999853,249.90238560002763,249.59066149999853,None,None,249.59066149999853,None,250.39196180998115,None,,,,21003,0001,2022_Mar_01_1526,localizer,2021.1.3,61.31933454757772,
block,scrambled,scrambled030.bmp,,,,,0,112,112,112,,,,,,,,,,,,,,,,,,,,,,,,,,,,,,,,,,,,,,,,,,None,,250.39196180998115,None,250.39196180998115,None,2022-03-01-15:30:07.825211,250.40770520002116,250.71877549996134,250.40770520002116,250.40770520002116,None,250.40770520002116,250.40770520002116,251.20206320999424,None,,,,21003,0001,2022_Mar_01_1526,localizer,2021.1.3,61.31933454757772,
block,scrambled,scrambled039.bmp,,,,,0,113,113,113,,,,,,,,,,,,,,,,,,,,,,,,,,,,,,,,,,,,,,,,,,None,,251.20206320999424,None,251.20206320999424,None,2022-03-01-15:30:08.631131,251.21018349996302,251.51912289997563,251.21018349996302,None,None,251.21018349996302,None,252.01892461002572,None,,,,21003,0001,2022_Mar_01_1526,localizer,2021.1.3,61.31933454757772,
block,scrambled,scrambled015.bmp,,,,,0,114,114,114,,,,,,,,,,,,,,,,,,,,,,,,,,,,,,,,,,,,,,,,,,None,,252.01892461002572,None,252.01892461002572,None,2022-03-01-15:30:09.448396,252.02703530003782,252.3361520000035,252.02703530003782,None,None,252.02703530003782,None,252.83506371002878,None,,,,21003,0001,2022_Mar_01_1526,localizer,2021.1.3,61.31933454757772,
block,scrambled,scrambled037.bmp,,,,,0,115,115,115,,,,,,,,,,,,,,,,,,,,,,,,,,,,,,,,,,,,,,,,,,None,,252.83506371002878,None,252.83506371002878,None,2022-03-01-15:30:10.263349,252.84246399998665,253.15315879997797,252.84246399998665,None,None,252.84246399998665,None,253.6418455100269,None,,,,21003,0001,2022_Mar_01_1526,localizer,2021.1.3,61.31933454757772,
block,scrambled,scrambled073.bmp,,,,,0,116,116,116,,,,,,,,,,,,,,,,,,,,,,,,,,,,,,,,,,,,,,,,,,None,,253.6418455100269,None,253.6418455100269,None,2022-03-01-15:30:11.073199,253.653554599965,253.96821119997185,253.653554599965,None,None,253.653554599965,None,254.4526555099641,None,,,,21003,0001,2022_Mar_01_1526,localizer,2021.1.3,61.31933454757772,
block,scrambled,scrambled008.bmp,,,,,0,117,117,117,,,,,,,,,,,,,,,,,,,,,,,,,,,,,,,,,,,,,,,,,,None,,254.4526555099641,None,254.4526555099641,None,2022-03-01-15:30:11.881978,254.46235290006734,254.76933689997531,254.46235290006734,None,None,254.46235290006734,None,255.2700069100014,None,,,,21003,0001,2022_Mar_01_1526,localizer,2021.1.3,61.31933454757772,
block,scrambled,scrambled002.bmp,,,,,0,118,118,118,,,,,,,,,,,,,,,,,,,,,,,,,,,,,,,,,,,,,,,,,,None,,255.2700069100014,None,255.2700069100014,None,2022-03-01-15:30:12.700333,255.28259710001294,255.58538730000146,255.28259710001294,None,None,255.28259710001294,None,256.08583211005896,None,,,,21003,0001,2022_Mar_01_1526,localizer,2021.1.3,61.31933454757772,
block,scrambled,scrambled031.bmp,,,,,0,119,119,119,,,,,,,,,,,,,,,,,,,,,,,,,,,,,,,,,,,,,,,,,,None,,256.08583211005896,None,256.08583211005896,None,2022-03-01-15:30:13.515407,256.09556849999353,256.40184790000785,256.09556849999353,None,None,256.09556849999353,None,256.90245701003585,None,,,,21003,0001,2022_Mar_01_1526,localizer,2021.1.3,61.31933454757772,
block,scrambled,scrambled056.bmp,,,,,0,120,120,120,,,,,,,,,,,,,,,,,,,,,,,,,,,,,,,,,,,,,,,,,,None,,256.90245701003585,None,256.90245701003585,None,2022-03-01-15:30:14.331845,256.9029631000012,257.20233390002977,256.9029631000012,None,None,256.9029631000012,None,257.70252651002954,None,,,,21003,0001,2022_Mar_01_1526,localizer,2021.1.3,61.31933454757772,
block_end,scrambled,scrambled044.bmp,,,,,0,121,121,121,,,,,,,,,,,,,,,,,,,,,,,,,,,,,,,,,,,,,,,,,,None,,257.70252651002954,None,257.70252651002954,None,2022-03-01-15:30:15.134158,257.7043095000554,258.01902320003137,257.7043095000554,257.7043095000554,None,257.7043095000554,257.7043095000554,258.5034222100279,None,,,,21003,0001,2022_Mar_01_1526,localizer,2021.1.3,61.31933454757772,
block_start,scenes,scenes034.bmp,,,,,0,122,122,122,,,,,,,,,,,,,,,,,,,,,,,,,,,,,,,,,,,,,,,,,,t,1.8106301999650896,258.5041813000571,None,258.5041813000571,None,2022-03-01-15:30:17.762431,260.3427739000181,260.6525488999905,260.3427739000181,None,None,260.3427739000181,None,261.1526757100713,None,,,,21003,0001,2022_Mar_01_1526,localizer,2021.1.3,61.31933454757772,
block,scenes,scenes057.bmp,,,,,0,123,123,123,,,,,,,,,,,,,,,,,,,,,,,,,,,,,,,,,,,,,,,,,,None,,261.1526757100713,None,261.1526757100713,None,2022-03-01-15:30:18.582657,261.16303439997137,261.4685607999563,261.16303439997137,None,None,261.16303439997137,None,261.96900451000545,None,,,,21003,0001,2022_Mar_01_1526,localizer,2021.1.3,61.31933454757772,
block,scenes,scenes038.bmp,,,,,0,124,124,124,,,,,,,,,,,,,,,,,,,,,,,,,,,,,,,,,,,,,,,,,,None,,261.96900451000545,None,261.96900451000545,None,2022-03-01-15:30:19.398530,261.97883839998394,262.2854234999977,261.97883839998394,None,None,261.97883839998394,None,262.785972810036,None,,,,21003,0001,2022_Mar_01_1526,localizer,2021.1.3,61.31933454757772,
block,scenes,scenes028.bmp,,,,,0,125,125,125,,,,,,,,,,,,,,,,,,,,,,,,,,,,,,,,,,,,,,,,,,None,,262.785972810036,None,262.785972810036,None,2022-03-01-15:30:20.215668,262.7956821999978,263.10598640004173,262.7956821999978,None,None,262.7956821999978,None,263.6024904100108,None,,,,21003,0001,2022_Mar_01_1526,localizer,2021.1.3,61.31933454757772,
block,scenes,scenes082.bmp,,,,,0,126,126,126,,,,,,,,,,,,,,,,,,,,,,,,,,,,,,,,,,,,,,,,,,None,,263.6024904100108,None,263.6024904100108,None,2022-03-01-15:30:21.031042,263.6101631000638,263.91884850000497,263.6101631000638,None,None,263.6101631000638,None,264.41897920999907,None,,,,21003,0001,2022_Mar_01_1526,localizer,2021.1.3,61.31933454757772,
block,scenes,scenes074.bmp,,,,,0,127,127,127,,,,,,,,,,,,,,,,,,,,,,,,,,,,,,,,,,,,,,,,,,None,,264.41897920999907,None,264.41897920999907,None,2022-03-01-15:30:21.848570,264.4270907000173,264.73533529997803,264.4270907000173,None,None,264.4270907000173,None,265.23546650997594,None,,,,21003,0001,2022_Mar_01_1526,localizer,2021.1.3,61.31933454757772,
block,scenes,scenes059.bmp,,,,,0,128,128,128,,,,,,,,,,,,,,,,,,,,,,,,,,,,,,,,,,,,,,,,,,None,,265.23546650997594,None,265.23546650997594,None,2022-03-01-15:30:22.665488,265.2439878999721,265.5524723000126,265.2439878999721,None,None,265.2439878999721,None,266.0527644100715,None,,,,21003,0001,2022_Mar_01_1526,localizer,2021.1.3,61.31933454757772,
block,scenes,scenes076.bmp,,,,,0,129,129,129,,,,,,,,,,,,,,,,,,,,,,,,,,,,,,,,,,,,,,,,,,None,,266.0527644100715,None,266.0527644100715,None,2022-03-01-15:30:23.482235,266.06313120003324,266.3687294999836,266.06313120003324,None,None,266.06313120003324,None,266.8693580100429,None,,,,21003,0001,2022_Mar_01_1526,localizer,2021.1.3,61.31933454757772,
block,scenes,scenes029.bmp,,,,,0,130,130,130,,,,,,,,,,,,,,,,,,,,,,,,,,,,,,,,,,,,,,,,,,None,,266.8693580100429,None,266.8693580100429,None,2022-03-01-15:30:24.299216,266.878965800046,267.1850608000532,266.878965800046,None,None,266.878965800046,None,267.685485110071,None,,,,21003,0001,2022_Mar_01_1526,localizer,2021.1.3,61.31933454757772,
block,scenes,scenes060.bmp,,,,,0,131,131,131,,,,,,,,,,,,,,,,,,,,,,,,,,,,,,,,,,,,,,,,,,None,,267.685485110071,None,267.685485110071,None,2022-03-01-15:30:25.115390,267.69611050002277,268.0021035000682,267.69611050002277,None,None,267.69611050002277,None,268.5034597099642,None,,,,21003,0001,2022_Mar_01_1526,localizer,2021.1.3,61.31933454757772,
block,scenes,scenes035.bmp,,,,,0,132,132,132,,,,,,,,,,,,,,,,,,,,,,,,,,,,,,,,,,,,,,,,,,None,,268.5034597099642,None,268.5034597099642,None,2022-03-01-15:30:25.933332,268.51465490006376,268.8186768000014,268.51465490006376,None,None,268.51465490006376,None,269.31951291001167,None,,,,21003,0001,2022_Mar_01_1526,localizer,2021.1.3,61.31933454757772,
block,scenes,scenes018.bmp,,,,,0,133,133,133,,,,,,,,,,,,,,,,,,,,,,,,,,,,,,,,,,,,,,,,,,None,,269.31951291001167,None,269.31951291001167,None,2022-03-01-15:30:26.749410,269.3295684000477,269.63823380006943,269.3295684000477,None,None,269.3295684000477,None,270.1367679100134,None,,,,21003,0001,2022_Mar_01_1526,localizer,2021.1.3,61.31933454757772,
block,scenes,scenes071.bmp,,,,,0,134,134,134,,,,,,,,,,,,,,,,,,,,,,,,,,,,,,,,,,,,,,,,,,None,,270.1367679100134,None,270.1367679100134,None,2022-03-01-15:30:27.568498,270.14897990005556,270.45230080001056,270.14897990005556,None,None,270.14897990005556,None,270.95268690997034,None,,,,21003,0001,2022_Mar_01_1526,localizer,2021.1.3,61.31933454757772,
block,scenes,scenes013.bmp,,,,,0,135,135,135,,,,,,,,,,,,,,,,,,,,,,,,,,,,,,,,,,,,,,,,,,None,,270.95268690997034,None,270.95268690997034,None,2022-03-01-15:30:28.382454,270.9632771000033,271.2694470999995,270.9632771000033,None,None,270.9632771000033,None,271.7691393100307,None,,,,21003,0001,2022_Mar_01_1526,localizer,2021.1.3,61.31933454757772,
block_end,scenes,scenes046.bmp,,,,,0,136,136,136,,,,,,,,,,,,,,,,,,,,,,,,,,,,,,,,,,,,,,,,,,None,,271.7691393100307,None,271.7691393100307,None,2022-03-01-15:30:29.199153,271.7786544000264,272.08576659997925,271.7786544000264,None,None,271.7786544000264,None,272.5867267100024,None,,,,21003,0001,2022_Mar_01_1526,localizer,2021.1.3,61.31933454757772,
block_start,faces,faces075.bmp,,,,,0,137,137,137,,,,,,,,,,,,,,,,,,,,,,,,,,,,,,,,,,,,,,,,,,t,1.7279336000792682,272.58698570006527,None,272.58698570006527,None,2022-03-01-15:30:31.765142,274.3369759999914,274.65218940004706,274.3369759999914,None,None,274.3369759999914,None,275.1523880099761,None,,,,21003,0001,2022_Mar_01_1526,localizer,2021.1.3,61.31933454757772,
block,faces,faces067.bmp,,,,,0,138,138,138,,,,,,,,,,,,,,,,,,,,,,,,,,,,,,,,,,,,,,,,,,None,,275.1523880099761,None,275.1523880099761,None,2022-03-01-15:30:32.582865,275.1645358999958,275.46866370004136,275.1645358999958,None,None,275.1645358999958,None,275.96908911006756,None,,,,21003,0001,2022_Mar_01_1526,localizer,2021.1.3,61.31933454757772,
block,faces,faces008.bmp,,,,,0,139,139,139,,,,,,,,,,,,,,,,,,,,,,,,,,,,,,,,,,,,,,,,,,None,,275.96908911006756,None,275.96908911006756,None,2022-03-01-15:30:33.398995,275.9795679000672,276.2855285999831,275.9795679000672,None,None,275.9795679000672,None,276.78584230997365,None,,,,21003,0001,2022_Mar_01_1526,localizer,2021.1.3,61.31933454757772,
block,faces,faces022.bmp,,,,,0,140,140,140,,,,,,,,,,,,,,,,,,,,,,,,,,,,,,,,,,,,,,,,,,None,,276.78584230997365,None,276.78584230997365,None,2022-03-01-15:30:34.215767,276.7977469000034,277.1016600000439,276.7977469000034,None,None,276.7977469000034,None,277.6026715099928,None,,,,21003,0001,2022_Mar_01_1526,localizer,2021.1.3,61.31933454757772,
block,faces,faces016.bmp,,,,,0,141,141,141,,,,,,,,,,,,,,,,,,,,,,,,,,,,,,,,,,,,,,,,,,None,,277.6026715099928,None,277.6026715099928,None,2022-03-01-15:30:35.031600,277.61202870006673,277.91891919996124,277.61202870006673,None,None,277.61202870006673,None,278.4195623100153,None,,,,21003,0001,2022_Mar_01_1526,localizer,2021.1.3,61.31933454757772,
block,faces,faces055.bmp,,,,,0,142,142,142,,,,,,,,,,,,,,,,,,,,,,,,,,,,,,,,,,,,,,,,,,None,,278.4195623100153,None,278.4195623100153,None,2022-03-01-15:30:35.849532,278.41975050000474,278.7198677000124,278.41975050000474,None,None,278.41975050000474,None,279.21892771000273,None,,,,21003,0001,2022_Mar_01_1526,localizer,2021.1.3,61.31933454757772,
block,faces,faces049.bmp,,,,,0,143,143,143,,,,,,,,,,,,,,,,,,,,,,,,,,,,,,,,,,,,,,,,,,None,,279.21892771000273,None,279.21892771000273,None,2022-03-01-15:30:36.649921,279.22485890006647,279.5352152000414,279.22485890006647,279.22485890006647,None,279.22485890006647,279.22485890006647,280.0359107100288,None,,,,21003,0001,2022_Mar_01_1526,localizer,2021.1.3,61.31933454757772,
block,faces,faces073.bmp,,,,,0,144,144,144,,,,,,,,,,,,,,,,,,,,,,,,,,,,,,,,,,,,,,,,,,None,,280.0359107100288,None,280.0359107100288,None,2022-03-01-15:30:37.465926,280.0363312000409,280.33478939998895,280.0363312000409,None,None,280.0363312000409,None,280.83673301005035,None,,,,21003,0001,2022_Mar_01_1526,localizer,2021.1.3,61.31933454757772,
block,faces,faces011.bmp,,,,,0,145,145,145,,,,,,,,,,,,,,,,,,,,,,,,,,,,,,,,,,,,,,,,,,None,,280.83673301005035,None,280.83673301005035,None,2022-03-01-15:30:38.271931,280.8522551000351,281.1520240000682,280.8522551000351,280.8522551000351,None,280.8522551000351,280.8522551000351,281.65273541006025,None,,,,21003,0001,2022_Mar_01_1526,localizer,2021.1.3,61.31933454757772,
block,faces,faces050.bmp,,,,,0,146,146,146,,,,,,,,,,,,,,,,,,,,,,,,,,,,,,,,,,,,,,,,,,None,,281.65273541006025,None,281.65273541006025,None,2022-03-01-15:30:39.082741,281.6624147000257,281.9688455000287,281.6624147000257,None,None,281.6624147000257,None,282.47028911000814,None,,,,21003,0001,2022_Mar_01_1526,localizer,2021.1.3,61.31933454757772,
block,faces,faces059.bmp,,,,,0,147,147,147,,,,,,,,,,,,,,,,,,,,,,,,,,,,,,,,,,,,,,,,,,None,,282.47028911000814,None,282.47028911000814,None,2022-03-01-15:30:39.901230,282.4823684999719,282.7862111000577,282.4823684999719,None,None,282.4823684999719,None,283.2855597100337,None,,,,21003,0001,2022_Mar_01_1526,localizer,2021.1.3,61.31933454757772,
block,faces,faces040.bmp,,,,,0,148,148,148,,,,,,,,,,,,,,,,,,,,,,,,,,,,,,,,,,,,,,,,,,None,,283.2855597100337,None,283.2855597100337,None,2022-03-01-15:30:40.714668,283.29410309996456,283.60187600005884,283.29410309996456,None,None,283.29410309996456,None,284.1026973099564,None,,,,21003,0001,2022_Mar_01_1526,localizer,2021.1.3,61.31933454757772,
block,faces,faces086.bmp,,,,,0,149,149,149,,,,,,,,,,,,,,,,,,,,,,,,,,,,,,,,,,,,,,,,,,None,,284.1026973099564,None,284.1026973099564,None,2022-03-01-15:30:41.532145,284.11054070002865,284.4190436999779,284.11054070002865,None,None,284.11054070002865,None,284.92014771004904,None,,,,21003,0001,2022_Mar_01_1526,localizer,2021.1.3,61.31933454757772,
block,faces,faces029.bmp,,,,,0,150,150,150,,,,,,,,,,,,,,,,,,,,,,,,,,,,,,,,,,,,,,,,,,None,,284.92014771004904,None,284.92014771004904,None,2022-03-01-15:30:42.351355,284.9344239999773,285.2356540999608,284.9344239999773,None,None,284.9344239999773,None,285.73598321006864,None,,,,21003,0001,2022_Mar_01_1526,localizer,2021.1.3,61.31933454757772,
block_end,faces,faces043.bmp,,,,,0,151,151,151,,,,,,,,,,,,,,,,,,,,,,,,,,,,,,,,,,,,,,,,,,None,,285.73598321006864,None,285.73598321006864,None,2022-03-01-15:30:43.166365,285.74760250002146,286.0524948000675,285.74760250002146,None,None,285.74760250002146,None,286.5526667100261,None,,,,21003,0001,2022_Mar_01_1526,localizer,2021.1.3,61.31933454757772,
null_block,null_block,null_block.bmp,,,,,0,152,152,152,,,,,,,,,,,,,,,,,,,,,,,,,,,,,,,,,,,,,,,,,,t,1.76268110005185,286.5522562999977,None,286.5522562999977,None,2022-03-01-15:30:45.764499,288.33576981005024,None,288.33576981005024,None,None,288.33576981005024,None,288.33638420002535,None,,,,21003,0001,2022_Mar_01_1526,localizer,2021.1.3,61.31933454757772,
block_start,objects,objects087.bmp,,,,,0,153,153,153,,,,,,,,,,,,,,,,,,,,,,,,,,,,,,,,,,,,,,,,,,t,1.9779900000430644,300.33697429997846,None,300.33697429997846,None,2022-03-01-15:30:59.766515,302.3444950999692,302.65218680002727,302.3444950999692,None,None,302.3444950999692,None,303.1586704099667,None,,,,21003,0001,2022_Mar_01_1526,localizer,2021.1.3,61.31933454757772,
block,objects,objects064.bmp,,,,,0,154,154,154,,,,,,,,,,,,,,,,,,,,,,,,,,,,,,,,,,,,,,,,,,None,,303.1586704099667,None,303.1586704099667,None,2022-03-01-15:31:00.595732,303.16395399998873,303.4689002999803,303.16395399998873,None,None,303.16395399998873,None,303.9692137099686,None,,,,21003,0001,2022_Mar_01_1526,localizer,2021.1.3,61.31933454757772,
block,objects,objects039.bmp,,,,,0,155,155,155,,,,,,,,,,,,,,,,,,,,,,,,,,,,,,,,,,,,,,,,,,None,,303.9692137099686,None,303.9692137099686,None,2022-03-01-15:31:01.400103,303.9698639999842,304.26925220002886,303.9698639999842,None,None,303.9698639999842,None,304.77032650999024,None,,,,21003,0001,2022_Mar_01_1526,localizer,2021.1.3,61.31933454757772,
block,objects,objects069.bmp,,,,,0,156,156,156,,,,,,,,,,,,,,,,,,,,,,,,,,,,,,,,,,,,,,,,,,None,,304.77032650999024,None,304.77032650999024,None,2022-03-01-15:31:02.204185,304.78430569998454,305.08601790003013,304.78430569998454,304.78430569998454,None,304.78430569998454,304.78430569998454,305.5863393099629,None,,,,21003,0001,2022_Mar_01_1526,localizer,2021.1.3,61.31933454757772,
block,objects,objects075.bmp,,,,,0,157,157,157,,,,,,,,,,,,,,,,,,,,,,,,,,,,,,,,,,,,,,,,,,None,,305.5863393099629,None,305.5863393099629,None,2022-03-01-15:31:03.017022,305.5950482999906,305.9022209000541,305.5950482999906,None,None,305.5950482999906,None,306.4025264099822,None,,,,21003,0001,2022_Mar_01_1526,localizer,2021.1.3,61.31933454757772,
block,objects,objects083.bmp,,,,,0,158,158,158,,,,,,,,,,,,,,,,,,,,,,,,,,,,,,,,,,,,,,,,,,None,,306.4025264099822,None,306.4025264099822,None,2022-03-01-15:31:03.833261,306.40328049997333,306.70249669998884,306.40328049997333,None,None,306.40328049997333,None,307.2036857100087,None,,,,21003,0001,2022_Mar_01_1526,localizer,2021.1.3,61.31933454757772,
block,objects,objects030.bmp,,,,,0,159,159,159,,,,,,,,,,,,,,,,,,,,,,,,,,,,,,,,,,,,,,,,,,None,,307.2036857100087,None,307.2036857100087,None,2022-03-01-15:31:04.637594,307.21691289998125,307.5190321999835,307.21691289998125,307.21691289998125,None,307.21691289998125,307.21691289998125,308.01934430996187,None,,,,21003,0001,2022_Mar_01_1526,localizer,2021.1.3,61.31933454757772,
block,objects,objects002.bmp,,,,,0,160,160,160,,,,,,,,,,,,,,,,,,,,,,,,,,,,,,,,,,,,,,,,,,None,,308.01934430996187,None,308.01934430996187,None,2022-03-01-15:31:05.450138,308.028894099989,308.335969000007,308.028894099989,None,None,308.028894099989,None,308.8370625099982,None,,,,21003,0001,2022_Mar_01_1526,localizer,2021.1.3,61.31933454757772,
block,objects,objects082.bmp,,,,,0,161,161,161,,,,,,,,,,,,,,,,,,,,,,,,,,,,,,,,,,,,,,,,,,None,,308.8370625099982,None,308.8370625099982,None,2022-03-01-15:31:06.268845,308.8376358000096,309.15714480006136,308.8376358000096,None,None,308.8376358000096,None,309.653087410063,None,,,,21003,0001,2022_Mar_01_1526,localizer,2021.1.3,61.31933454757772,
block,objects,objects022.bmp,,,,,0,162,162,162,,,,,,,,,,,,,,,,,,,,,,,,,,,,,,,,,,,,,,,,,,None,,309.653087410063,None,309.653087410063,None,2022-03-01-15:31:07.085098,309.6645961999893,309.9690973999677,309.6645961999893,None,None,309.6645961999893,None,310.46914551003135,None,,,,21003,0001,2022_Mar_01_1526,localizer,2021.1.3,61.31933454757772,
block,objects,objects003.bmp,,,,,0,163,163,163,,,,,,,,,,,,,,,,,,,,,,,,,,,,,,,,,,,,,,,,,,None,,310.46914551003135,None,310.46914551003135,None,2022-03-01-15:31:07.900026,310.4699696999742,310.76916789996903,310.4699696999742,None,None,310.4699696999742,None,311.28577241002347,None,,,,21003,0001,2022_Mar_01_1526,localizer,2021.1.3,61.31933454757772,
block,objects,objects068.bmp,,,,,0,164,164,164,,,,,,,,,,,,,,,,,,,,,,,,,,,,,,,,,,,,,,,,,,None,,311.28577241002347,None,311.28577241002347,None,2022-03-01-15:31:08.716644,311.2949069000315,311.60202810005285,311.2949069000315,None,None,311.2949069000315,None,312.1026953100576,None,,,,21003,0001,2022_Mar_01_1526,localizer,2021.1.3,61.31933454757772,
block,objects,objects088.bmp,,,,,0,165,165,165,,,,,,,,,,,,,,,,,,,,,,,,,,,,,,,,,,,,,,,,,,None,,312.1026953100576,None,312.1026953100576,None,2022-03-01-15:31:09.532588,312.1105277000461,312.419087999966,312.1105277000461,None,None,312.1105277000461,None,312.9202772099874,None,,,,21003,0001,2022_Mar_01_1526,localizer,2021.1.3,61.31933454757772,
block,objects,objects042.bmp,,,,,0,166,166,166,,,,,,,,,,,,,,,,,,,,,,,,,,,,,,,,,,,,,,,,,,None,,312.9202772099874,None,312.9202772099874,None,2022-03-01-15:31:10.351360,312.92081949999556,313.2355321999639,312.92081949999556,None,None,312.92081949999556,None,313.73580801001515,None,,,,21003,0001,2022_Mar_01_1526,localizer,2021.1.3,61.31933454757772,
block_end,objects,objects010.bmp,,,,,0,167,167,167,,,,,,,,,,,,,,,,,,,,,,,,,,,,,,,,,,,,,,,,,,None,,313.73580801001515,None,313.73580801001515,None,2022-03-01-15:31:11.166745,313.7365410999628,314.0591140000615,313.7365410999628,None,None,313.7365410999628,None,314.53700500997945,None,,,,21003,0001,2022_Mar_01_1526,localizer,2021.1.3,61.31933454757772,
block_start,scrambled,scrambled055.bmp,,,,,0,168,168,168,,,,,,,,,,,,,,,,,,,,,,,,,,,,,,,,,,,,,,,,,,t,1.7774784000357613,314.53752760007046,None,314.53752760007046,None,2022-03-01-15:31:13.764441,316.3431878000265,316.65245880000293,316.3431878000265,None,None,316.3431878000265,None,317.14232191004555,None,,,,21003,0001,2022_Mar_01_1526,localizer,2021.1.3,61.31933454757772,
block,scrambled,scrambled046.bmp,,,,,0,169,169,169,,,,,,,,,,,,,,,,,,,,,,,,,,,,,,,,,,,,,,,,,,None,,317.14232191004555,None,317.14232191004555,None,2022-03-01-15:31:14.579387,317.1596715999767,317.4691926999949,317.1596715999767,None,None,317.1596715999767,None,317.9522795100114,None,,,,21003,0001,2022_Mar_01_1526,localizer,2021.1.3,61.31933454757772,
block,scrambled,scrambled046.bmp,,,,,0,170,170,170,,,,,,,,,,,,,,,,,,,,,,,,,,,,,,,,,,,,,,,,,,None,,317.9522795100114,None,317.9522795100114,None,2022-03-01-15:31:15.381987,317.95411890000105,318.2688608999597,317.95411890000105,None,y,317.95411890000105,None,318.7545828100177,None,0.5586949000135064,,,21003,0001,2022_Mar_01_1526,localizer,2021.1.3,61.31933454757772,
block,scrambled,scrambled006.bmp,,,,,0,171,171,171,,,,,,,,,,,,,,,,,,,,,,,,,,,,,,,,,,,,,,,,,,None,,318.7545828100177,None,318.7545828100177,None,2022-03-01-15:31:16.190371,318.77114169998094,319.0857840999961,318.77114169998094,318.77114169998094,None,318.77114169998094,318.77114169998094,319.56934691002823,None,,,,21003,0001,2022_Mar_01_1526,localizer,2021.1.3,61.31933454757772,
block,scrambled,scrambled068.bmp,,,,,0,172,172,172,,,,,,,,,,,,,,,,,,,,,,,,,,,,,,,,,,,,,,,,,,None,,319.56934691002823,None,319.56934691002823,None,2022-03-01-15:31:17.000550,319.577868900029,319.88630420004483,319.577868900029,None,None,319.577868900029,None,320.38522241000317,None,,,,21003,0001,2022_Mar_01_1526,localizer,2021.1.3,61.31933454757772,
block,scrambled,scrambled015.bmp,,,,,0,173,173,173,,,,,,,,,,,,,,,,,,,,,,,,,,,,,,,,,,,,,,,,,,None,,320.38522241000317,None,320.38522241000317,None,2022-03-01-15:31:17.815344,320.38719619996846,320.7024298000615,320.38719619996846,None,None,320.38719619996846,None,321.20241420998934,None,,,,21003,0001,2022_Mar_01_1526,localizer,2021.1.3,61.31933454757772,
block,scrambled,scrambled053.bmp,,,,,0,174,174,174,,,,,,,,,,,,,,,,,,,,,,,,,,,,,,,,,,,,,,,,,,None,,321.20241420998934,None,321.20241420998934,None,2022-03-01-15:31:18.633552,321.2111712000333,321.5190776999807,321.2111712000333,None,None,321.2111712000333,None,322.01930421000577,None,,,,21003,0001,2022_Mar_01_1526,localizer,2021.1.3,61.31933454757772,
block,scrambled,scrambled013.bmp,,,,,0,175,175,175,,,,,,,,,,,,,,,,,,,,,,,,,,,,,,,,,,,,,,,,,,None,,322.01930421000577,None,322.01930421000577,None,2022-03-01-15:31:19.450464,322.02848800003994,322.33776649995707,322.02848800003994,None,None,322.02848800003994,None,322.8364244100288,None,,,,21003,0001,2022_Mar_01_1526,localizer,2021.1.3,61.31933454757772,
block,scrambled,scrambled078.bmp,,,,,0,176,176,176,,,,,,,,,,,,,,,,,,,,,,,,,,,,,,,,,,,,,,,,,,None,,322.8364244100288,None,322.8364244100288,None,2022-03-01-15:31:20.267790,322.8461956999963,323.1524233999662,322.8461956999963,None,None,322.8461956999963,None,323.65267481006447,None,,,,21003,0001,2022_Mar_01_1526,localizer,2021.1.3,61.31933454757772,
block,scrambled,scrambled073.bmp,,,,,0,177,177,177,,,,,,,,,,,,,,,,,,,,,,,,,,,,,,,,,,,,,,,,,,None,,323.65267481006447,None,323.65267481006447,None,2022-03-01-15:31:21.083877,323.65340469998773,323.95259940007236,323.65340469998773,None,None,323.65340469998773,None,324.4535499100224,None,,,,21003,0001,2022_Mar_01_1526,localizer,2021.1.3,61.31933454757772,
block,scrambled,scrambled071.bmp,,,,,0,178,178,178,,,,,,,,,,,,,,,,,,,,,,,,,,,,,,,,,,,,,,,,,,None,,324.4535499100224,None,324.4535499100224,None,2022-03-01-15:31:21.887950,324.45651759998873,324.76895060006063,324.45651759998873,324.45651759998873,None,324.45651759998873,324.45651759998873,325.2695903099724,None,,,,21003,0001,2022_Mar_01_1526,localizer,2021.1.3,61.31933454757772,
block,scrambled,scrambled051.bmp,,,,,0,179,179,179,,,,,,,,,,,,,,,,,,,,,,,,,,,,,,,,,,,,,,,,,,None,,325.2695903099724,None,325.2695903099724,None,2022-03-01-15:31:22.700835,325.2782547000097,325.5858985000523,325.2782547000097,None,None,325.2782547000097,None,326.08607301003065,None,,,,21003,0001,2022_Mar_01_1526,localizer,2021.1.3,61.31933454757772,
block,scrambled,scrambled047.bmp,,,,,0,180,180,180,,,,,,,,,,,,,,,,,,,,,,,,,,,,,,,,,,,,,,,,,,None,,326.08607301003065,None,326.08607301003065,None,2022-03-01-15:31:23.517344,326.0868233999936,326.4019706000108,326.0868233999936,None,None,326.0868233999936,None,326.88651790997244,None,,,,21003,0001,2022_Mar_01_1526,localizer,2021.1.3,61.31933454757772,
block,scrambled,scrambled049.bmp,,,,,0,181,181,181,,,,,,,,,,,,,,,,,,,,,,,,,,,,,,,,,,,,,,,,,,None,,326.88651790997244,None,326.88651790997244,None,2022-03-01-15:31:24.319992,326.8883724999614,327.2030936999945,326.8883724999614,326.8883724999614,None,326.8883724999614,326.8883724999614,327.70247450998284,None,,,,21003,0001,2022_Mar_01_1526,localizer,2021.1.3,61.31933454757772,
block_end,scrambled,scrambled061.bmp,,,,,0,182,182,182,,,,,,,,,,,,,,,,,,,,,,,,,,,,,,,,,,,,,,,,,,None,,327.70247450998284,None,327.70247450998284,None,2022-03-01-15:31:25.132797,327.70388060004916,328.0191261,327.70388060004916,None,None,327.70388060004916,None,328.50320681001756,None,,,,21003,0001,2022_Mar_01_1526,localizer,2021.1.3,61.31933454757772,
block_start,objects,objects054.bmp,,,,,0,183,183,183,,,,,,,,,,,,,,,,,,,,,,,,,,,,,,,,,,,,,,,,,,t,1.811910800053738,328.5032207999611,None,328.5032207999611,None,2022-03-01-15:31:27.769138,330.3376779999817,330.6524746000068,330.3376779999817,None,None,330.3376779999817,None,331.15253591005455,None,,,,21003,0001,2022_Mar_01_1526,localizer,2021.1.3,61.31933454757772,
block,objects,objects048.bmp,,,,,0,184,184,184,,,,,,,,,,,,,,,,,,,,,,,,,,,,,,,,,,,,,,,,,,None,,331.15253591005455,None,331.15253591005455,None,2022-03-01-15:31:28.583084,331.16118100006133,331.46918320003897,331.16118100006133,None,None,331.16118100006133,None,331.9704279100173,None,,,,21003,0001,2022_Mar_01_1526,localizer,2021.1.3,61.31933454757772,
block,objects,objects023.bmp,,,,,0,185,185,185,,,,,,,,,,,,,,,,,,,,,,,,,,,,,,,,,,,,,,,,,,None,,331.9704279100173,None,331.9704279100173,None,2022-03-01-15:31:29.403023,331.98151229997166,332.286417299998,331.98151229997166,None,None,331.98151229997166,None,332.7858121099765,None,,,,21003,0001,2022_Mar_01_1526,localizer,2021.1.3,61.31933454757772,
block,objects,objects082.bmp,,,,,0,186,186,186,,,,,,,,,,,,,,,,,,,,,,,,,,,,,,,,,,,,,,,,,,None,,332.7858121099765,None,332.7858121099765,None,2022-03-01-15:31:30.217266,332.78674240002874,333.08678630006034,332.78674240002874,None,None,332.78674240002874,None,333.5866301099653,None,,,,21003,0001,2022_Mar_01_1526,localizer,2021.1.3,61.31933454757772,
block,objects,objects024.bmp,,,,,0,187,187,187,,,,,,,,,,,,,,,,,,,,,,,,,,,,,,,,,,,,,,,,,,None,,333.5866301099653,None,333.5866301099653,None,2022-03-01-15:31:31.020141,333.59957900003064,333.90256509999745,333.59957900003064,333.59957900003064,None,333.59957900003064,333.59957900003064,334.4026473099715,None,,,,21003,0001,2022_Mar_01_1526,localizer,2021.1.3,61.31933454757772,
block,objects,objects063.bmp,,,,,0,188,188,188,,,,,,,,,,,,,,,,,,,,,,,,,,,,,,,,,,,,,,,,,,None,,334.4026473099715,None,334.4026473099715,None,2022-03-01-15:31:31.833150,334.4110925999703,334.719889500062,334.4110925999703,None,None,334.4110925999703,None,335.2204517099657,None,,,,21003,0001,2022_Mar_01_1526,localizer,2021.1.3,61.31933454757772,
block,objects,objects074.bmp,,,,,0,189,189,189,,,,,,,,,,,,,,,,,,,,,,,,,,,,,,,,,,,,,,,,,,None,,335.2204517099657,None,335.2204517099657,None,2022-03-01-15:31:32.653816,335.2326076000463,335.53606920002494,335.2326076000463,None,None,335.2326076000463,None,336.0361051099957,None,,,,21003,0001,2022_Mar_01_1526,localizer,2021.1.3,61.31933454757772,
block,objects,objects084.bmp,,,,,0,190,190,190,,,,,,,,,,,,,,,,,,,,,,,,,,,,,,,,,,,,,,,,,,None,,336.0361051099957,None,336.0361051099957,None,2022-03-01-15:31:33.467645,336.0367665999802,336.33581890002824,336.0367665999802,None,None,336.0367665999802,None,336.83657721002817,None,,,,21003,0001,2022_Mar_01_1526,localizer,2021.1.3,61.31933454757772,
block,objects,objects067.bmp,,,,,0,191,191,191,,,,,,,,,,,,,,,,,,,,,,,,,,,,,,,,,,,,,,,,,,None,,336.83657721002817,None,336.83657721002817,None,2022-03-01-15:31:34.271122,336.8495933000231,337.1522341000382,336.8495933000231,336.8495933000231,None,336.8495933000231,336.8495933000231,337.65276511005356,None,,,,21003,0001,2022_Mar_01_1526,localizer,2021.1.3,61.31933454757772,
block,objects,objects008.bmp,,,,,0,192,192,192,,,,,,,,,,,,,,,,,,,,,,,,,,,,,,,,,,,,,,,,,,None,,337.65276511005356,None,337.65276511005356,None,2022-03-01-15:31:35.084349,337.66274569998495,337.9694227,337.66274569998495,None,None,337.66274569998495,None,338.4697857100167,None,,,,21003,0001,2022_Mar_01_1526,localizer,2021.1.3,61.31933454757772,
block,objects,objects034.bmp,,,,,0,193,193,193,,,,,,,,,,,,,,,,,,,,,,,,,,,,,,,,,,,,,,,,,,None,,338.4697857100167,None,338.4697857100167,None,2022-03-01-15:31:35.901389,338.47958449996077,338.7860292000696,338.47958449996077,None,None,338.47958449996077,None,339.28608401006784,None,,,,21003,0001,2022_Mar_01_1526,localizer,2021.1.3,61.31933454757772,
block,objects,objects002.bmp,,,,,0,194,194,194,,,,,,,,,,,,,,,,,,,,,,,,,,,,,,,,,,,,,,,,,,None,,339.28608401006784,None,339.28608401006784,None,2022-03-01-15:31:36.718441,339.2866256000707,339.5859119000379,339.2866256000707,None,None,339.2866256000707,None,340.0861323100165,None,,,,21003,0001,2022_Mar_01_1526,localizer,2021.1.3,61.31933454757772,
block,objects,objects002.bmp,,,,,0,195,195,195,,,,,,,,,,,,,,,,,,,,,,,,,,,,,,,,,,,,,,,,,,None,,340.0861323100165,None,340.0861323100165,None,2022-03-01-15:31:37.519990,340.0868691999931,340.38598000002094,340.0868691999931,340.0868691999931,None,340.0868691999931,340.0868691999931,340.9022375099943,None,,,,21003,0001,2022_Mar_01_1526,localizer,2021.1.3,61.31933454757772,
block,objects,objects032.bmp,,,,,0,196,196,196,,,,,,,,,,,,,,,,,,,,,,,,,,,,,,,,,,,,,,,,,,None,,340.9022375099943,None,340.9022375099943,None,2022-03-01-15:31:38.332916,340.9037826000713,341.2033447000431,340.9037826000713,None,None,340.9037826000713,None,341.7038552100188,None,,,,21003,0001,2022_Mar_01_1526,localizer,2021.1.3,61.31933454757772,
block_end,objects,objects004.bmp,,,,,0,197,197,197,,,,,,,,,,,,,,,,,,,,,,,,,,,,,,,,,,,,,,,,,,None,,341.7038552100188,None,341.7038552100188,None,2022-03-01-15:31:39.138710,341.7141158999875,342.01922759995796,341.7141158999875,341.7141158999875,None,341.7141158999875,341.7141158999875,342.5193735100678,None,,,,21003,0001,2022_Mar_01_1526,localizer,2021.1.3,61.31933454757772,
block_start,scenes,scenes092.bmp,,,,,0,198,198,198,,,,,,,,,,,,,,,,,,,,,,,,,,,,,,,,,,,,,,,,,,t,1.7956601999467239,342.5191949000582,None,342.5191949000582,None,2022-03-01-15:31:41.770058,344.3487166999839,344.6520277999807,344.3487166999839,None,None,344.3487166999839,None,345.1428469099686,None,,,,21003,0001,2022_Mar_01_1526,localizer,2021.1.3,61.31933454757772,
block,scenes,scenes036.bmp,,,,,0,199,199,199,,,,,,,,,,,,,,,,,,,,,,,,,,,,,,,,,,,,,,,,,,None,,345.1428469099686,None,345.1428469099686,None,2022-03-01-15:31:42.579618,345.1588897999609,345.46925910003483,345.1588897999609,None,None,345.1588897999609,None,345.95389560997717,None,,,,21003,0001,2022_Mar_01_1526,localizer,2021.1.3,61.31933454757772,
block,scenes,scenes075.bmp,,,,,0,200,200,200,,,,,,,,,,,,,,,,,,,,,,,,,,,,,,,,,,,,,,,,,,None,,345.95389560997717,None,345.95389560997717,None,2022-03-01-15:31:43.386341,345.96626690006815,346.2699413000373,345.96626690006815,None,None,345.96626690006815,None,346.76883980996206,None,,,,21003,0001,2022_Mar_01_1526,localizer,2021.1.3,61.31933454757772,
block,scenes,scenes018.bmp,,,,,0,201,201,201,,,,,,,,,,,,,,,,,,,,,,,,,,,,,,,,,,,,,,,,,,None,,346.76883980996206,None,346.76883980996206,None,2022-03-01-15:31:44.199979,346.7705827000318,347.0857658999739,346.7705827000318,None,None,346.7705827000318,None,347.56982271004233,None,,,,21003,0001,2022_Mar_01_1526,localizer,2021.1.3,61.31933454757772,
block,scenes,scenes060.bmp,,,,,0,202,202,202,,,,,,,,,,,,,,,,,,,,,,,,,,,,,,,,,,,,,,,,,,None,,347.56982271004233,None,347.56982271004233,None,2022-03-01-15:31:45.003666,347.5710277999751,347.87158549996093,347.5710277999751,347.5710277999751,None,347.5710277999751,347.5710277999751,348.37007171000585,None,,,,21003,0001,2022_Mar_01_1526,localizer,2021.1.3,61.31933454757772,
block,scenes,scenes037.bmp,,,,,0,203,203,203,,,,,,,,,,,,,,,,,,,,,,,,,,,,,,,,,,,,,,,,,,None,,348.37007171000585,None,348.37007171000585,None,2022-03-01-15:31:45.804045,348.37194980005734,348.6866467000218,348.37194980005734,348.37194980005734,None,348.37194980005734,348.37194980005734,349.18670231002613,None,,,,21003,0001,2022_Mar_01_1526,localizer,2021.1.3,61.31933454757772,
block,scenes,scenes005.bmp,,,,,0,204,204,204,,,,,,,,,,,,,,,,,,,,,,,,,,,,,,,,,,,,,,,,,,None,,349.18670231002613,None,349.18670231002613,None,2022-03-01-15:31:46.618593,349.19744839996565,349.50250429997686,349.19744839996565,None,None,349.19744839996565,None,350.0031552099739,None,,,,21003,0001,2022_Mar_01_1526,localizer,2021.1.3,61.31933454757772,
block,scenes,scenes069.bmp,,,,,0,205,205,205,,,,,,,,,,,,,,,,,,,,,,,,,,,,,,,,,,,,,,,,,,None,,350.0031552099739,None,350.0031552099739,None,2022-03-01-15:31:47.435051,350.0124473000178,350.31930149998516,350.0124473000178,None,None,350.0124473000178,None,350.8195627100416,None,,,,21003,0001,2022_Mar_01_1526,localizer,2021.1.3,61.31933454757772,
block,scenes,scenes061.bmp,,,,,0,206,206,206,,,,,,,,,,,,,,,,,,,,,,,,,,,,,,,,,,,,,,,,,,None,,350.8195627100416,None,350.8195627100416,None,2022-03-01-15:31:48.251827,350.82006810000166,351.11879149999004,350.82006810000166,None,None,350.82006810000166,None,351.6231043100473,None,,,,21003,0001,2022_Mar_01_1526,localizer,2021.1.3,61.31933454757772,
block,scenes,scenes035.bmp,,,,,0,207,207,207,,,,,,,,,,,,,,,,,,,,,,,,,,,,,,,,,,,,,,,,,,None,,351.6231043100473,None,351.6231043100473,None,2022-03-01-15:31:49.063677,351.6336030999664,351.9371428999584,351.6336030999664,351.6336030999664,None,351.6336030999664,351.6336030999664,352.43596370999,None,,,,21003,0001,2022_Mar_01_1526,localizer,2021.1.3,61.31933454757772,
block,scenes,scenes074.bmp,,,,,0,208,208,208,,,,,,,,,,,,,,,,,,,,,,,,,,,,,,,,,,,,,,,,,,None,,352.43596370999,None,352.43596370999,None,2022-03-01-15:31:49.867868,352.4365969999926,352.7523399000056,352.4365969999926,None,y,352.4365969999926,None,353.2361380099668,None,0.11411169997882098,,,21003,0001,2022_Mar_01_1526,localizer,2021.1.3,61.31933454757772,
block,scenes,scenes010.bmp,,,,,0,209,209,209,,,,,,,,,,,,,,,,,,,,,,,,,,,,,,,,,,,,,,,,,,None,,353.2361380099668,None,353.2361380099668,None,2022-03-01-15:31:50.669739,353.2470852000406,353.5524615000468,353.2470852000406,353.2470852000406,None,353.2470852000406,353.2470852000406,354.0537038100068,None,,,,21003,0001,2022_Mar_01_1526,localizer,2021.1.3,61.31933454757772,
block,scenes,scenes039.bmp,,,,,0,210,210,210,,,,,,,,,,,,,,,,,,,,,,,,,,,,,,,,,,,,,,,,,,None,,354.0537038100068,None,354.0537038100068,None,2022-03-01-15:31:51.486570,354.0661747000413,354.3692221000092,354.0661747000413,None,None,354.0661747000413,None,354.87055351006563,None,,,,21003,0001,2022_Mar_01_1526,localizer,2021.1.3,61.31933454757772,
block,scenes,scenes003.bmp,,,,,0,211,211,211,,,,,,,,,,,,,,,,,,,,,,,,,,,,,,,,,,,,,,,,,,None,,354.87055351006563,None,354.87055351006563,None,2022-03-01-15:31:52.303436,354.88419500004966,355.18698240001686,354.88419500004966,None,None,354.88419500004966,None,355.68647201001875,None,,,,21003,0001,2022_Mar_01_1526,localizer,2021.1.3,61.31933454757772,
block_end,scenes,scenes001.bmp,,,,,0,212,212,212,,,,,,,,,,,,,,,,,,,,,,,,,,,,,,,,,,,,,,,,,,None,,355.68647201001875,None,355.68647201001875,None,2022-03-01-15:31:53.118471,355.6970671999734,356.0032523999689,355.6970671999734,None,None,355.6970671999734,None,356.5028365099919,None,,,,21003,0001,2022_Mar_01_1526,localizer,2021.1.3,61.31933454757772,
block_start,scrambled,scrambled041.bmp,,,,,0,213,213,213,,,,,,,,,,,,,,,,,,,,,,,,,,,,,,,,,,,,,,,,,,t,1.8122169999405742,356.50254320004024,None,356.50254320004024,None,2022-03-01-15:31:55.766325,358.33866200002376,358.65210589999333,358.33866200002376,None,None,358.33866200002376,None,359.153293310001,None,,,,21003,0001,2022_Mar_01_1526,localizer,2021.1.3,61.31933454757772,
block,scrambled,scrambled077.bmp,,,,,0,214,214,214,,,,,,,,,,,,,,,,,,,,,,,,,,,,,,,,,,,,,,,,,,None,,359.153293310001,None,359.153293310001,None,2022-03-01-15:31:56.585433,359.16389129997697,359.4710460000206,359.16389129997697,None,None,359.16389129997697,None,359.9699743100558,None,,,,21003,0001,2022_Mar_01_1526,localizer,2021.1.3,61.31933454757772,
block,scrambled,scrambled074.bmp,,,,,0,215,215,215,,,,,,,,,,,,,,,,,,,,,,,,,,,,,,,,,,,,,,,,,,None,,359.9699743100558,None,359.9699743100558,None,2022-03-01-15:31:57.402047,359.97080500004813,360.269902799977,359.97080500004813,None,None,359.97080500004813,None,360.7861831100075,None,,,,21003,0001,2022_Mar_01_1526,localizer,2021.1.3,61.31933454757772,
block,scrambled,scrambled006.bmp,,,,,0,216,216,216,,,,,,,,,,,,,,,,,,,,,,,,,,,,,,,,,,,,,,,,,,None,,360.7861831100075,None,360.7861831100075,None,2022-03-01-15:31:58.218410,360.7868326000171,361.08666030003224,360.7868326000171,None,None,360.7868326000171,None,361.58615830998167,None,,,,21003,0001,2022_Mar_01_1526,localizer,2021.1.3,61.31933454757772,
block,scrambled,scrambled060.bmp,,,,,0,217,217,217,,,,,,,,,,,,,,,,,,,,,,,,,,,,,,,,,,,,,,,,,,None,,361.58615830998167,None,361.58615830998167,None,2022-03-01-15:31:59.019060,361.5959786999738,361.90383079997264,361.5959786999738,361.5959786999738,None,361.5959786999738,361.5959786999738,362.4040146100218,None,,,,21003,0001,2022_Mar_01_1526,localizer,2021.1.3,61.31933454757772,
block,scrambled,scrambled045.bmp,,,,,0,218,218,218,,,,,,,,,,,,,,,,,,,,,,,,,,,,,,,,,,,,,,,,,,None,,362.4040146100218,None,362.4040146100218,None,2022-03-01-15:31:59.838089,362.4176612000447,362.7199780000374,362.4176612000447,None,None,362.4176612000447,None,363.22100881001677,None,,,,21003,0001,2022_Mar_01_1526,localizer,2021.1.3,61.31933454757772,
block,scrambled,scrambled067.bmp,,,,,0,219,219,219,,,,,,,,,,,,,,,,,,,,,,,,,,,,,,,,,,,,,,,,,,None,,363.22100881001677,None,363.22100881001677,None,2022-03-01-15:32:00.655976,363.2351492999587,363.5360480999807,363.2351492999587,None,None,363.2351492999587,None,364.03641331001415,None,,,,21003,0001,2022_Mar_01_1526,localizer,2021.1.3,61.31933454757772,
block,scrambled,scrambled015.bmp,,,,,0,220,220,220,,,,,,,,,,,,,,,,,,,,,,,,,,,,,,,,,,,,,,,,,,None,,364.03641331001415,None,364.03641331001415,None,2022-03-01-15:32:01.468499,364.0369588000467,364.3373629000271,364.0369588000467,None,None,364.0369588000467,None,364.83658340995896,None,,,,21003,0001,2022_Mar_01_1526,localizer,2021.1.3,61.31933454757772,
block,scrambled,scrambled085.bmp,,,,,0,221,221,221,,,,,,,,,,,,,,,,,,,,,,,,,,,,,,,,,,,,,,,,,,None,,364.83658340995896,None,364.83658340995896,None,2022-03-01-15:32:02.270478,364.84969409997575,365.15222310007084,364.84969409997575,364.84969409997575,None,364.84969409997575,364.84969409997575,365.65928140996255,None,,,,21003,0001,2022_Mar_01_1526,localizer,2021.1.3,61.31933454757772,
block,scrambled,scrambled016.bmp,,,,,0,222,222,222,,,,,,,,,,,,,,,,,,,,,,,,,,,,,,,,,,,,,,,,,,None,,365.65928140996255,None,365.65928140996255,None,2022-03-01-15:32:03.094090,365.67244100000244,365.98594609997235,365.67244100000244,None,None,365.67244100000244,None,366.4706855099997,None,,,,21003,0001,2022_Mar_01_1526,localizer,2021.1.3,61.31933454757772,
block,scrambled,scrambled054.bmp,,,,,0,223,223,223,,,,,,,,,,,,,,,,,,,,,,,,,,,,,,,,,,,,,,,,,,None,,366.4706855099997,None,366.4706855099997,None,2022-03-01-15:32:03.904555,366.4829557000194,366.7873186999932,366.4829557000194,None,None,366.4829557000194,None,367.2874007099657,None,,,,21003,0001,2022_Mar_01_1526,localizer,2021.1.3,61.31933454757772,
block,scrambled,scrambled082.bmp,,,,,0,224,224,224,,,,,,,,,,,,,,,,,,,,,,,,,,,,,,,,,,,,,,,,,,None,,367.2874007099657,None,367.2874007099657,None,2022-03-01-15:32:04.721284,367.28919180005323,367.60245010000654,367.28919180005323,None,None,367.28919180005323,None,368.10298721006836,None,,,,21003,0001,2022_Mar_01_1526,localizer,2021.1.3,61.31933454757772,
block,scrambled,scrambled010.bmp,,,,,0,225,225,225,,,,,,,,,,,,,,,,,,,,,,,,,,,,,,,,,,,,,,,,,,None,,368.10298721006836,None,368.10298721006836,None,2022-03-01-15:32:05.534209,368.11071709997486,368.4191626000684,368.11071709997486,None,None,368.11071709997486,None,368.92310540998585,None,,,,21003,0001,2022_Mar_01_1526,localizer,2021.1.3,61.31933454757772,
block,scrambled,scrambled076.bmp,,,,,0,226,226,226,,,,,,,,,,,,,,,,,,,,,,,,,,,,,,,,,,,,,,,,,,None,,368.92310540998585,None,368.92310540998585,None,2022-03-01-15:32:06.357928,368.9378777999664,369.2525988999987,368.9378777999664,None,None,368.9378777999664,None,369.7363677099696,None,,,,21003,0001,2022_Mar_01_1526,localizer,2021.1.3,61.31933454757772,
block_end,scrambled,scrambled014.bmp,,,,,0,227,227,227,,,,,,,,,,,,,,,,,,,,,,,,,,,,,,,,,,,,,,,,,,None,,369.7363677099696,None,369.7363677099696,None,2022-03-01-15:32:07.168537,369.7464857000159,370.0523167999927,369.7464857000159,None,None,369.7464857000159,None,370.5529401100124,None,,,,21003,0001,2022_Mar_01_1526,localizer,2021.1.3,61.31933454757772,
null_block,null_block,null_block.bmp,,,,,0,228,228,228,,,,,,,,,,,,,,,,,,,,,,,,,,,,,,,,,,,,,,,,,,t,1.7623241000110283,370.5525871999562,None,370.5525871999562,None,2022-03-01-15:32:09.767218,372.3363119099871,None,372.3363119099871,None,None,372.3363119099871,None,372.3375207000645,None,,,,21003,0001,2022_Mar_01_1526,localizer,2021.1.3,61.31933454757772,
block_start,faces,faces034.bmp,,,,,0,229,229,229,,,,,,,,,,,,,,,,,,,,,,,,,,,,,,,,,,,,,,,,,,t,1.9770308999577537,384.3369316000026,None,384.3369316000026,None,2022-03-01-15:32:23.772372,386.348869199981,386.6526831999654,386.348869199981,None,None,386.348869199981,None,387.1540224099648,None,,,,21003,0001,2022_Mar_01_1526,localizer,2021.1.3,61.31933454757772,
block,faces,faces069.bmp,,,,,0,230,230,230,,,,,,,,,,,,,,,,,,,,,,,,,,,,,,,,,,,,,,,,,,None,,387.1540224099648,None,387.1540224099648,None,2022-03-01-15:32:24.587897,387.1559325000271,387.4696350999875,387.1559325000271,None,None,387.1559325000271,None,387.97003191002875,None,,,,21003,0001,2022_Mar_01_1526,localizer,2021.1.3,61.31933454757772,
block,faces,faces018.bmp,,,,,0,231,231,231,,,,,,,,,,,,,,,,,,,,,,,,,,,,,,,,,,,,,,,,,,None,,387.97003191002875,None,387.97003191002875,None,2022-03-01-15:32:25.401913,387.97949940001126,388.2871728000464,387.97949940001126,None,None,387.97949940001126,None,388.7870157100609,None,,,,21003,0001,2022_Mar_01_1526,localizer,2021.1.3,61.31933454757772,
block,faces,faces027.bmp,,,,,0,232,232,232,,,,,,,,,,,,,,,,,,,,,,,,,,,,,,,,,,,,,,,,,,None,,388.7870157100609,None,388.7870157100609,None,2022-03-01-15:32:26.219092,388.79860290000215,389.10232299997006,388.79860290000215,None,None,388.79860290000215,None,389.6028792100609,None,,,,21003,0001,2022_Mar_01_1526,localizer,2021.1.3,61.31933454757772,
block,faces,faces002.bmp,,,,,0,233,233,233,,,,,,,,,,,,,,,,,,,,,,,,,,,,,,,,,,,,,,,,,,None,,389.6028792100609,None,389.6028792100609,None,2022-03-01-15:32:27.035298,389.61276210006326,389.9193921000697,389.61276210006326,None,None,389.61276210006326,None,390.4208709099679,None,,,,21003,0001,2022_Mar_01_1526,localizer,2021.1.3,61.31933454757772,
block,faces,faces086.bmp,,,,,0,234,234,234,,,,,,,,,,,,,,,,,,,,,,,,,,,,,,,,,,,,,,,,,,None,,390.4208709099679,None,390.4208709099679,None,2022-03-01-15:32:27.854762,390.42305830004625,390.7364011000609,390.42305830004625,None,None,390.42305830004625,None,391.2360619099694,None,,,,21003,0001,2022_Mar_01_1526,localizer,2021.1.3,61.31933454757772,
block,faces,faces047.bmp,,,,,0,235,235,235,,,,,,,,,,,,,,,,,,,,,,,,,,,,,,,,,,,,,,,,,,None,,391.2360619099694,None,391.2360619099694,None,2022-03-01-15:32:28.667976,391.2371806000592,391.53635379998013,391.2371806000592,None,None,391.2371806000592,None,392.0525398099911,None,,,,21003,0001,2022_Mar_01_1526,localizer,2021.1.3,61.31933454757772,
block,faces,faces053.bmp,,,,,0,236,236,236,,,,,,,,,,,,,,,,,,,,,,,,,,,,,,,,,,,,,,,,,,None,,392.0525398099911,None,392.0525398099911,None,2022-03-01-15:32:29.483204,392.0595518000191,392.36983930005226,392.0595518000191,None,None,392.0595518000191,None,392.8704783099587,None,,,,21003,0001,2022_Mar_01_1526,localizer,2021.1.3,61.31933454757772,
block,faces,faces082.bmp,,,,,0,237,237,237,,,,,,,,,,,,,,,,,,,,,,,,,,,,,,,,,,,,,,,,,,None,,392.8704783099587,None,392.8704783099587,None,2022-03-01-15:32:30.302405,392.886323899962,393.18593529995997,392.886323899962,None,None,392.886323899962,None,393.6871236099745,None,,,,21003,0001,2022_Mar_01_1526,localizer,2021.1.3,61.31933454757772,
block,faces,faces065.bmp,,,,,0,238,238,238,,,,,,,,,,,,,,,,,,,,,,,,,,,,,,,,,,,,,,,,,,None,,393.6871236099745,None,393.6871236099745,None,2022-03-01-15:32:31.119029,393.68766339996364,393.9867064000573,393.68766339996364,None,None,393.68766339996364,None,394.4869924100698,None,,,,21003,0001,2022_Mar_01_1526,localizer,2021.1.3,61.31933454757772,
block,faces,faces025.bmp,,,,,0,239,239,239,,,,,,,,,,,,,,,,,,,,,,,,,,,,,,,,,,,,,,,,,,None,,394.4869924100698,None,394.4869924100698,None,2022-03-01-15:32:31.921088,394.4995525999693,394.8025232000509,394.4995525999693,394.4995525999693,None,394.4995525999693,394.4995525999693,395.3031805099803,None,,,,21003,0001,2022_Mar_01_1526,localizer,2021.1.3,61.31933454757772,
block,faces,faces026.bmp,,,,,0,240,240,240,,,,,,,,,,,,,,,,,,,,,,,,,,,,,,,,,,,,,,,,,,None,,395.3031805099803,None,395.3031805099803,None,2022-03-01-15:32:32.735301,395.3401465000352,395.6529115999583,395.3401465000352,None,None,395.3401465000352,None,396.1191860100138,None,,,,21003,0001,2022_Mar_01_1526,localizer,2021.1.3,61.31933454757772,
block,faces,faces033.bmp,,,,,0,241,241,241,,,,,,,,,,,,,,,,,,,,,,,,,,,,,,,,,,,,,,,,,,None,,396.1191860100138,None,396.1191860100138,None,2022-03-01-15:32:33.550108,396.13485530007165,396.43696870002896,396.13485530007165,None,None,396.13485530007165,None,396.93704820998244,None,,,,21003,0001,2022_Mar_01_1526,localizer,2021.1.3,61.31933454757772,
block,faces,faces074.bmp,,,,,0,242,242,242,,,,,,,,,,,,,,,,,,,,,,,,,,,,,,,,,,,,,,,,,,None,,396.93704820998244,None,396.93704820998244,None,2022-03-01-15:32:34.368853,396.9376662999857,397.2369217000669,396.9376662999857,None,None,396.9376662999857,None,397.7370246099657,None,,,,21003,0001,2022_Mar_01_1526,localizer,2021.1.3,61.31933454757772,
block_end,faces,faces013.bmp,,,,,0,243,243,243,,,,,,,,,,,,,,,,,,,,,,,,,,,,,,,,,,,,,,,,,,None,,397.7370246099657,None,397.7370246099657,None,2022-03-01-15:32:35.170977,397.74993389996234,398.0528006000677,397.74993389996234,397.74993389996234,None,397.74993389996234,397.74993389996234,398.5534558099811,None,,,,21003,0001,2022_Mar_01_1526,localizer,2021.1.3,61.31933454757772,
,,,,,,,,,,,,,,,,,,,,,,,,,,,,,,,,,,,,,,,,,,,,,,,,,,,,,,,,,,,,,,,,,,,,,398.5523577000713,None,,,,,,,
