block_type,condition,img_name,Button.thisRepN,Button.thisTrialN,Button.thisN,Button.thisIndex,trials.thisRepN,trials.thisTrialN,trials.thisN,trials.thisIndex,Ready_experimenter_text.started,Ready_experimenter_text.stopped,Ready_experimenter_resp.keys,Ready_experimenter_resp.rt,Ready_experimenter_resp.started,Ready_experimenter_resp.stopped,Alignment_background.started,Alignment_background.stopped,Alignment_image.started,Alignment_image.stopped,Alignment_resp.keys,Alignment_resp.rt,Alignment_resp.started,Alignment_resp.stopped,Button_text.started,Button_text.stopped,Index_text.started,Index_text.stopped,Index_resp.keys,Index_resp.rt,Index_resp.started,Index_resp.stopped,Middle_text.started,Middle_text.stopped,Middle_resp.keys,Middle_resp.rt,Middle_resp.started,Middle_resp.stopped,Repeat_text.started,Repeat_text.stopped,Repeat_resp.keys,Repeat_resp.corr,Repeat_resp.rt,Repeat_resp.started,Repeat_resp.stopped,instruction_text.started,instruction_text.stopped,key_resp.keys,key_resp.rt,key_resp.started,key_resp.stopped,scanner_t.keys,scanner_t.rt,scanner_t.started,scanner_t.stopped,fixation_wait_for_t.started,fixation_wait_for_t.stopped,real_timestamp_trial_start,image.started,image.stopped,fixation.started,fixation.stopped,repeat_response.keys,repeat_response.started,repeat_response.stopped,fixation_null.started,fixation_null.stopped,repeat_response.rt,end_text.started,end_text.stopped,participant,run,date,expName,psychopyVersion,frameRate,
,,,,,,,,,,,11.211191099951975,None,return,472.380112899933,11.211191099951975,None,,,,,,,,,,,,,,,,,,,,,,,,,,,,,,,,,,,,,,,,,,,,,,,,,,,,,,,22005,0002,2022_Mar_04_1157,localizer,2021.1.3,61.40258233292635,
,,,,,,,,,,,,,,,,,483.6384798999643,None,483.6384798999643,None,return,1.1771355000091717,483.6384798999643,None,,,,,,,,,,,,,,,,,,,,,,,,,,,,,,,,,,,,,,,,,,,,,,,22005,0002,2022_Mar_04_1157,localizer,2021.1.3,61.40258233292635,
,,,0,0,0,0,,,,,,,,,,,,,,,,,,,484.83462979993783,None,485.83441659994423,None,y,2.8197377000469714,485.83441659994423,None,488.6908411999466,None,b,1.6124301999807358,488.6908411999466,None,490.3183865000028,None,n,0,21.29877979995217,490.3183865000028,None,,,,,,,,,,,,,,,,,,,,,,,,,,22005,0002,2022_Mar_04_1157,localizer,2021.1.3,61.40258233292635,
,,,,,,,,,,,,,,,,,,,,,,,,,,,,,,,,,,,,,,,,,,,,,,511.6356728998944,None,y,4.438481600023806,511.6356728998944,None,,,,,,,,,,,,,,,,,,,,22005,0002,2022_Mar_04_1157,localizer,2021.1.3,61.40258233292635,
block_start,scenes,scenes034.bmp,,,,,0,0,0,0,,,,,,,,,,,,,,,,,,,,,,,,,,,,,,,,,,,,,,,,,,t,16.012635700055398,516.1286292999284,None,516.1286292999284,None,2022-03-04-12:06:37.454698,532.1838083999464,532.4848087999271,532.1838083999464,None,None,532.1838083999464,None,532.9851450600079,None,,,,22005,0002,2022_Mar_04_1157,localizer,2021.1.3,61.40258233292635,
block,scenes,scenes023.bmp,,,,,0,1,1,1,,,,,,,,,,,,,,,,,,,,,,,,,,,,,,,,,,,,,,,,,,None,,532.9851450600079,None,532.9851450600079,None,2022-03-04-12:06:38.270853,532.9874889999628,533.3022423000075,532.9874889999628,None,None,532.9874889999628,None,533.8022546599502,None,,,,22005,0002,2022_Mar_04_1157,localizer,2021.1.3,61.40258233292635,
block,scenes,scenes084.bmp,,,,,0,2,2,2,,,,,,,,,,,,,,,,,,,,,,,,,,,,,,,,,,,,,,,,,,None,,533.8022546599502,None,533.8022546599502,None,2022-03-04-12:06:39.087750,533.8038019000087,534.117755199899,533.8038019000087,None,None,533.8038019000087,None,534.6183778599486,None,,,,22005,0002,2022_Mar_04_1157,localizer,2021.1.3,61.40258233292635,
block,scenes,scenes019.bmp,,,,,0,3,3,3,,,,,,,,,,,,,,,,,,,,,,,,,,,,,,,,,,,,,,,,,,None,,534.6183778599486,None,534.6183778599486,None,2022-03-04-12:06:39.902854,534.6287321998971,534.9347604999784,534.6287321998971,None,None,534.6287321998971,None,535.4348784599104,None,,,,22005,0002,2022_Mar_04_1157,localizer,2021.1.3,61.40258233292635,
block,scenes,scenes082.bmp,,,,,0,4,4,4,,,,,,,,,,,,,,,,,,,,,,,,,,,,,,,,,,,,,,,,,,None,,535.4348784599104,None,535.4348784599104,None,2022-03-04-12:06:40.719357,535.4457675999729,535.7514942999696,535.4457675999729,None,None,535.4457675999729,None,536.251332859986,None,,,,22005,0002,2022_Mar_04_1157,localizer,2021.1.3,61.40258233292635,
block,scenes,scenes044.bmp,,,,,0,5,5,5,,,,,,,,,,,,,,,,,,,,,,,,,,,,,,,,,,,,,,,,,,None,,536.251332859986,None,536.251332859986,None,2022-03-04-12:06:41.536036,536.2523183999583,536.5518389999634,536.2523183999583,None,None,536.2523183999583,None,537.051560859906,None,,,,22005,0002,2022_Mar_04_1157,localizer,2021.1.3,61.40258233292635,
block,scenes,scenes073.bmp,,,,,0,6,6,6,,,,,,,,,,,,,,,,,,,,,,,,,,,,,,,,,,,,,,,,,,None,,537.051560859906,None,537.051560859906,None,2022-03-04-12:06:42.338035,537.065609299927,537.3683659998933,537.065609299927,537.065609299927,None,537.065609299927,537.065609299927,537.8681095600011,None,,,,22005,0002,2022_Mar_04_1157,localizer,2021.1.3,61.40258233292635,
block,scenes,scenes047.bmp,,,,,0,7,7,7,,,,,,,,,,,,,,,,,,,,,,,,,,,,,,,,,,,,,,,,,,None,,537.8681095600011,None,537.8681095600011,None,2022-03-04-12:06:43.152588,537.869346399908,538.1848605999257,537.869346399908,None,None,537.869346399908,None,538.6689624599064,None,,,,22005,0002,2022_Mar_04_1157,localizer,2021.1.3,61.40258233292635,
block,scenes,scenes054.bmp,,,,,0,8,8,8,,,,,,,,,,,,,,,,,,,,,,,,,,,,,,,,,,,,,,,,,,None,,538.6689624599064,None,538.6689624599064,None,2022-03-04-12:06:43.956403,538.6718783999095,538.9845990999602,538.6718783999095,538.6718783999095,None,538.6718783999095,538.6718783999095,539.4848683599964,None,,,,22005,0002,2022_Mar_04_1157,localizer,2021.1.3,61.40258233292635,
block,scenes,scenes065.bmp,,,,,0,9,9,9,,,,,,,,,,,,,,,,,,,,,,,,,,,,,,,,,,,,,,,,,,None,,539.4848683599964,None,539.4848683599964,None,2022-03-04-12:06:44.769349,539.485880299937,539.7848816999467,539.485880299937,None,None,539.485880299937,None,540.3014358600019,None,,,,22005,0002,2022_Mar_04_1157,localizer,2021.1.3,61.40258233292635,
block,scenes,scenes083.bmp,,,,,0,10,10,10,,,,,,,,,,,,,,,,,,,,,,,,,,,,,,,,,,,,,,,,,,None,,540.3014358600019,None,540.3014358600019,None,2022-03-04-12:06:45.585917,540.3024554000003,540.6179325999692,540.3024554000003,None,None,540.3024554000003,None,541.1017813600017,None,,,,22005,0002,2022_Mar_04_1157,localizer,2021.1.3,61.40258233292635,
block,scenes,scenes045.bmp,,,,,0,11,11,11,,,,,,,,,,,,,,,,,,,,,,,,,,,,,,,,,,,,,,,,,,None,,541.1017813600017,None,541.1017813600017,None,2022-03-04-12:06:46.388467,541.1145788999274,541.4182311999612,541.1145788999274,541.1145788999274,None,541.1145788999274,541.1145788999274,541.9179197599994,None,,,,22005,0002,2022_Mar_04_1157,localizer,2021.1.3,61.40258233292635,
block,scenes,scenes062.bmp,,,,,0,12,12,12,,,,,,,,,,,,,,,,,,,,,,,,,,,,,,,,,,,,,,,,,,None,,541.9179197599994,None,541.9179197599994,None,2022-03-04-12:06:47.202573,541.9288319000043,542.2349790999433,541.9288319000043,None,None,541.9288319000043,None,542.7351969599374,None,,,,22005,0002,2022_Mar_04_1157,localizer,2021.1.3,61.40258233292635,
block,scenes,scenes080.bmp,,,,,0,13,13,13,,,,,,,,,,,,,,,,,,,,,,,,,,,,,,,,,,,,,,,,,,None,,542.7351969599374,None,542.7351969599374,None,2022-03-04-12:06:48.020881,542.7359022999881,543.0512220999226,542.7359022999881,None,None,542.7359022999881,None,543.5514100599219,None,,,,22005,0002,2022_Mar_04_1157,localizer,2021.1.3,61.40258233292635,
block_end,scenes,scenes005.bmp,,,,,0,14,14,14,,,,,,,,,,,,,,,,,,,,,,,,,,,,,,,,,,,,,,,,,,None,,543.5514100599219,None,543.5514100599219,None,2022-03-04-12:06:48.835606,543.5525820999173,543.8685157999862,543.5525820999173,None,None,543.5525820999173,None,544.3589354599942,None,,,,22005,0002,2022_Mar_04_1157,localizer,2021.1.3,61.40258233292635,
block_start,scrambled,scrambled079.bmp,,,,,0,15,15,15,,,,,,,,,,,,,,,,,,,,,,,,,,,,,,,,,,,,,,,,,,t,1.7846991000697017,544.3565643999027,None,544.3565643999027,None,2022-03-04-12:06:51.456082,546.1719557999168,546.4856047999347,546.1719557999168,None,None,546.1719557999168,None,546.9850964599871,None,,,,22005,0002,2022_Mar_04_1157,localizer,2021.1.3,61.40258233292635,
block,scrambled,scrambled014.bmp,,,,,0,16,16,16,,,,,,,,,,,,,,,,,,,,,,,,,,,,,,,,,,,,,,,,,,None,,546.9850964599871,None,546.9850964599871,None,2022-03-04-12:06:52.269582,546.9857295999536,547.2848166999174,546.9857295999536,None,None,546.9857295999536,None,547.7857768599758,None,,,,22005,0002,2022_Mar_04_1157,localizer,2021.1.3,61.40258233292635,
block,scrambled,scrambled051.bmp,,,,,0,17,17,17,,,,,,,,,,,,,,,,,,,,,,,,,,,,,,,,,,,,,,,,,,None,,547.7857768599758,None,547.7857768599758,None,2022-03-04-12:06:53.073334,547.7887582998956,548.1024045000086,547.7887582998956,547.7887582998956,None,547.7887582998956,547.7887582998956,548.6060243599466,None,,,,22005,0002,2022_Mar_04_1157,localizer,2021.1.3,61.40258233292635,
block,scrambled,scrambled087.bmp,,,,,0,18,18,18,,,,,,,,,,,,,,,,,,,,,,,,,,,,,,,,,,,,,,,,,,None,,548.6060243599466,None,548.6060243599466,None,2022-03-04-12:06:53.900426,548.6278373999521,548.9348591999151,548.6278373999521,None,None,548.6278373999521,None,549.4185707599506,None,,,,22005,0002,2022_Mar_04_1157,localizer,2021.1.3,61.40258233292635,
block,scrambled,scrambled027.bmp,,,,,0,19,19,19,,,,,,,,,,,,,,,,,,,,,,,,,,,,,,,,,,,,,,,,,,None,,549.4185707599506,None,549.4185707599506,None,2022-03-04-12:06:54.703032,549.4295033999952,549.734853999922,549.4295033999952,None,None,549.4295033999952,None,550.2354818600113,None,,,,22005,0002,2022_Mar_04_1157,localizer,2021.1.3,61.40258233292635,
block,scrambled,scrambled037.bmp,,,,,0,20,20,20,,,,,,,,,,,,,,,,,,,,,,,,,,,,,,,,,,,,,,,,,,None,,550.2354818600113,None,550.2354818600113,None,2022-03-04-12:06:55.520853,550.2359466999769,550.5514528999338,550.2359466999769,None,None,550.2359466999769,None,551.0352037599193,None,,,,22005,0002,2022_Mar_04_1157,localizer,2021.1.3,61.40258233292635,
block,scrambled,scrambled020.bmp,,,,,0,21,21,21,,,,,,,,,,,,,,,,,,,,,,,,,,,,,,,,,,,,,,,,,,None,,551.0352037599193,None,551.0352037599193,None,2022-03-04-12:06:56.321708,551.0467893999303,551.3515739999712,551.0467893999303,551.0467893999303,None,551.0467893999303,551.0467893999303,551.8518228599685,None,,,,22005,0002,2022_Mar_04_1157,localizer,2021.1.3,61.40258233292635,
block,scrambled,scrambled011.bmp,,,,,0,22,22,22,,,,,,,,,,,,,,,,,,,,,,,,,,,,,,,,,,,,,,,,,,None,,551.8518228599685,None,551.8518228599685,None,2022-03-04-12:06:57.136530,551.8524386999197,552.1551544999238,551.8524386999197,None,None,551.8524386999197,None,552.652024159918,None,,,,22005,0002,2022_Mar_04_1157,localizer,2021.1.3,61.40258233292635,
block,scrambled,scrambled011.bmp,,,,,0,23,23,23,,,,,,,,,,,,,,,,,,,,,,,,,,,,,,,,,,,,,,,,,,None,,552.652024159918,None,552.652024159918,None,2022-03-04-12:06:57.939491,552.6542121999664,552.9682426999789,552.6542121999664,552.6542121999664,y,552.6542121999664,552.6542121999664,553.4684720599441,None,0.3788189999759197,,,22005,0002,2022_Mar_04_1157,localizer,2021.1.3,61.40258233292635,
block,scrambled,scrambled046.bmp,,,,,0,24,24,24,,,,,,,,,,,,,,,,,,,,,,,,,,,,,,,,,,,,,,,,,,None,,553.4684720599441,None,553.4684720599441,None,2022-03-04-12:06:58.753165,553.4793552999618,553.7849542999174,553.4793552999618,None,None,553.4793552999618,None,554.2848545599379,None,,,,22005,0002,2022_Mar_04_1157,localizer,2021.1.3,61.40258233292635,
block,scrambled,scrambled057.bmp,,,,,0,25,25,25,,,,,,,,,,,,,,,,,,,,,,,,,,,,,,,,,,,,,,,,,,None,,554.2848545599379,None,554.2848545599379,None,2022-03-04-12:06:59.569345,554.2936086999252,554.6014841999859,554.2936086999252,None,None,554.2936086999252,None,555.1015829600044,None,,,,22005,0002,2022_Mar_04_1157,localizer,2021.1.3,61.40258233292635,
block,scrambled,scrambled023.bmp,,,,,0,26,26,26,,,,,,,,,,,,,,,,,,,,,,,,,,,,,,,,,,,,,,,,,,None,,555.1015829600044,None,555.1015829600044,None,2022-03-04-12:07:00.386257,555.1029253999004,555.4181444999995,555.1029253999004,None,None,555.1029253999004,None,555.9182104600011,None,,,,22005,0002,2022_Mar_04_1157,localizer,2021.1.3,61.40258233292635,
block,scrambled,scrambled038.bmp,,,,,0,27,27,27,,,,,,,,,,,,,,,,,,,,,,,,,,,,,,,,,,,,,,,,,,None,,555.9182104600011,None,555.9182104600011,None,2022-03-04-12:07:01.202692,555.9292724999832,556.234897499904,555.9292724999832,None,None,555.9292724999832,None,556.7348486599628,None,,,,22005,0002,2022_Mar_04_1157,localizer,2021.1.3,61.40258233292635,
block,scrambled,scrambled048.bmp,,,,,0,28,28,28,,,,,,,,,,,,,,,,,,,,,,,,,,,,,,,,,,,,,,,,,,None,,556.7348486599628,None,556.7348486599628,None,2022-03-04-12:07:02.019329,556.7359413999366,557.0518111999845,556.7359413999366,None,None,556.7359413999366,None,557.5349730599089,None,,,,22005,0002,2022_Mar_04_1157,localizer,2021.1.3,61.40258233292635,
block_end,scrambled,scrambled004.bmp,,,,,0,29,29,29,,,,,,,,,,,,,,,,,,,,,,,,,,,,,,,,,,,,,,,,,,None,,557.5349730599089,None,557.5349730599089,None,2022-03-04-12:07:02.820453,557.5358171999687,557.8350310999667,557.5358171999687,557.5358171999687,None,557.5358171999687,557.5358171999687,558.336256059946,None,,,,22005,0002,2022_Mar_04_1157,localizer,2021.1.3,61.40258233292635,
block_start,objects,objects050.bmp,,,,,0,30,30,30,,,,,,,,,,,,,,,,,,,,,,,,,,,,,,,,,,,,,,,,,,t,1.803405600017868,558.3368543999968,None,558.3368543999968,None,2022-03-04-12:07:05.452393,560.1693514999934,560.4682083999505,560.1693514999934,None,None,560.1693514999934,None,560.9849171599024,None,,,,22005,0002,2022_Mar_04_1157,localizer,2021.1.3,61.40258233292635,
block,objects,objects047.bmp,,,,,0,31,31,31,,,,,,,,,,,,,,,,,,,,,,,,,,,,,,,,,,,,,,,,,,None,,560.9849171599024,None,560.9849171599024,None,2022-03-04-12:07:06.269399,560.9857159999665,561.284938299912,560.9857159999665,None,None,560.9857159999665,None,561.7849993599928,None,,,,22005,0002,2022_Mar_04_1157,localizer,2021.1.3,61.40258233292635,
block,objects,objects069.bmp,,,,,0,32,32,32,,,,,,,,,,,,,,,,,,,,,,,,,,,,,,,,,,,,,,,,,,None,,561.7849993599928,None,561.7849993599928,None,2022-03-04-12:07:07.071415,561.7963906999212,562.1017023999011,561.7963906999212,561.7963906999212,None,561.7963906999212,561.7963906999212,562.6017559599247,None,,,,22005,0002,2022_Mar_04_1157,localizer,2021.1.3,61.40258233292635,
block,objects,objects014.bmp,,,,,0,33,33,33,,,,,,,,,,,,,,,,,,,,,,,,,,,,,,,,,,,,,,,,,,None,,562.6017559599247,None,562.6017559599247,None,2022-03-04-12:07:07.892318,562.6129065999994,562.9178397000069,562.6129065999994,None,None,562.6129065999994,None,563.4182527599739,None,,,,22005,0002,2022_Mar_04_1157,localizer,2021.1.3,61.40258233292635,
block,objects,objects068.bmp,,,,,0,34,34,34,,,,,,,,,,,,,,,,,,,,,,,,,,,,,,,,,,,,,,,,,,None,,563.4182527599739,None,563.4182527599739,None,2022-03-04-12:07:08.702750,563.419125599903,563.7349066999741,563.419125599903,None,None,563.419125599903,None,564.2185959599562,None,,,,22005,0002,2022_Mar_04_1157,localizer,2021.1.3,61.40258233292635,
block,objects,objects016.bmp,,,,,0,35,35,35,,,,,,,,,,,,,,,,,,,,,,,,,,,,,,,,,,,,,,,,,,None,,564.2185959599562,None,564.2185959599562,None,2022-03-04-12:07:09.505286,564.2312760999193,564.5349791999906,564.2312760999193,564.2312760999193,None,564.2312760999193,564.2312760999193,565.035137259995,None,,,,22005,0002,2022_Mar_04_1157,localizer,2021.1.3,61.40258233292635,
block,objects,objects029.bmp,,,,,0,36,36,36,,,,,,,,,,,,,,,,,,,,,,,,,,,,,,,,,,,,,,,,,,None,,565.035137259995,None,565.035137259995,None,2022-03-04-12:07:10.320121,565.0455731999828,565.3522329999832,565.0455731999828,None,None,565.0455731999828,None,565.8525171599001,None,,,,22005,0002,2022_Mar_04_1157,localizer,2021.1.3,61.40258233292635,
block,objects,objects081.bmp,,,,,0,37,37,37,,,,,,,,,,,,,,,,,,,,,,,,,,,,,,,,,,,,,,,,,,None,,565.8525171599001,None,565.8525171599001,None,2022-03-04-12:07:11.138178,565.8640060999896,566.1689840999898,565.8640060999896,None,None,565.8640060999896,None,566.6681677599088,None,,,,22005,0002,2022_Mar_04_1157,localizer,2021.1.3,61.40258233292635,
block,objects,objects071.bmp,,,,,0,38,38,38,,,,,,,,,,,,,,,,,,,,,,,,,,,,,,,,,,,,,,,,,,None,,566.6681677599088,None,566.6681677599088,None,2022-03-04-12:07:11.952651,566.6764104999602,566.9851776999421,566.6764104999602,None,None,566.6764104999602,None,567.4852745599462,None,,,,22005,0002,2022_Mar_04_1157,localizer,2021.1.3,61.40258233292635,
block,objects,objects077.bmp,,,,,0,39,39,39,,,,,,,,,,,,,,,,,,,,,,,,,,,,,,,,,,,,,,,,,,None,,567.4852745599462,None,567.4852745599462,None,2022-03-04-12:07:12.770092,567.4858047999442,567.7850543999812,567.4858047999442,None,None,567.4858047999442,None,568.2852322599035,None,,,,22005,0002,2022_Mar_04_1157,localizer,2021.1.3,61.40258233292635,
block,objects,objects039.bmp,,,,,0,40,40,40,,,,,,,,,,,,,,,,,,,,,,,,,,,,,,,,,,,,,,,,,,None,,568.2852322599035,None,568.2852322599035,None,2022-03-04-12:07:13.571703,568.2878610999323,568.6017263999674,568.2878610999323,568.2878610999323,None,568.2878610999323,568.2878610999323,569.101198459987,None,,,,22005,0002,2022_Mar_04_1157,localizer,2021.1.3,61.40258233292635,
block,objects,objects019.bmp,,,,,0,41,41,41,,,,,,,,,,,,,,,,,,,,,,,,,,,,,,,,,,,,,,,,,,None,,569.101198459987,None,569.101198459987,None,2022-03-04-12:07:14.391876,569.1122955000028,569.4211357999593,569.1122955000028,None,None,569.1122955000028,None,569.9180196599452,None,,,,22005,0002,2022_Mar_04_1157,localizer,2021.1.3,61.40258233292635,
block,objects,objects064.bmp,,,,,0,42,42,42,,,,,,,,,,,,,,,,,,,,,,,,,,,,,,,,,,,,,,,,,,None,,569.9180196599452,None,569.9180196599452,None,2022-03-04-12:07:15.201508,569.927073800005,570.2355274999281,569.927073800005,None,None,569.927073800005,None,570.7354544599191,None,,,,22005,0002,2022_Mar_04_1157,localizer,2021.1.3,61.40258233292635,
block,objects,objects059.bmp,,,,,0,43,43,43,,,,,,,,,,,,,,,,,,,,,,,,,,,,,,,,,,,,,,,,,,None,,570.7354544599191,None,570.7354544599191,None,2022-03-04-12:07:16.020927,570.7461638000095,571.0519826998934,570.7461638000095,None,None,570.7461638000095,None,571.5520509599125,None,,,,22005,0002,2022_Mar_04_1157,localizer,2021.1.3,61.40258233292635,
block_end,objects,objects033.bmp,,,,,0,44,44,44,,,,,,,,,,,,,,,,,,,,,,,,,,,,,,,,,,,,,,,,,,None,,571.5520509599125,None,571.5520509599125,None,2022-03-04-12:07:16.836585,571.5628489999799,571.8687760999892,571.5628489999799,None,None,571.5628489999799,None,572.3685574599192,None,,,,22005,0002,2022_Mar_04_1157,localizer,2021.1.3,61.40258233292635,
block_start,faces,faces065.bmp,,,,,0,45,45,45,,,,,,,,,,,,,,,,,,,,,,,,,,,,,,,,,,,,,,,,,,t,1.7719482000684366,572.3682134998962,None,572.3682134998962,None,2022-03-04-12:07:19.454504,574.1888356999261,574.5017381999642,574.1888356999261,None,None,574.1888356999261,None,574.9855820599594,None,,,,22005,0002,2022_Mar_04_1157,localizer,2021.1.3,61.40258233292635,
block,faces,faces062.bmp,,,,,0,46,46,46,,,,,,,,,,,,,,,,,,,,,,,,,,,,,,,,,,,,,,,,,,None,,574.9855820599594,None,574.9855820599594,None,2022-03-04-12:07:20.271055,574.9862409000052,575.2853453999851,574.9862409000052,None,None,574.9862409000052,None,575.7854430599953,None,,,,22005,0002,2022_Mar_04_1157,localizer,2021.1.3,61.40258233292635,
block,faces,faces076.bmp,,,,,0,47,47,47,,,,,,,,,,,,,,,,,,,,,,,,,,,,,,,,,,,,,,,,,,None,,575.7854430599953,None,575.7854430599953,None,2022-03-04-12:07:21.072910,575.7882423999254,576.1083221998997,575.7882423999254,575.7882423999254,None,575.7882423999254,575.7882423999254,576.6014858599635,None,,,,22005,0002,2022_Mar_04_1157,localizer,2021.1.3,61.40258233292635,
block,faces,faces073.bmp,,,,,0,48,48,48,,,,,,,,,,,,,,,,,,,,,,,,,,,,,,,,,,,,,,,,,,None,,576.6014858599635,None,576.6014858599635,None,2022-03-04-12:07:21.884974,576.6096685999073,576.9186350998934,576.6096685999073,None,None,576.6096685999073,None,577.4188691600109,None,,,,22005,0002,2022_Mar_04_1157,localizer,2021.1.3,61.40258233292635,
block,faces,faces033.bmp,,,,,0,49,49,49,,,,,,,,,,,,,,,,,,,,,,,,,,,,,,,,,,,,,,,,,,None,,577.4188691600109,None,577.4188691600109,None,2022-03-04-12:07:22.703349,577.419292400009,577.7184395999648,577.419292400009,None,None,577.419292400009,None,578.2184204599005,None,,,,22005,0002,2022_Mar_04_1157,localizer,2021.1.3,61.40258233292635,
block,faces,faces079.bmp,,,,,0,50,50,50,,,,,,,,,,,,,,,,,,,,,,,,,,,,,,,,,,,,,,,,,,None,,578.2184204599005,None,578.2184204599005,None,2022-03-04-12:07:23.504900,578.2194729999173,578.5351959998952,578.2194729999173,578.2194729999173,None,578.2194729999173,578.2194729999173,579.0186723600025,None,,,,22005,0002,2022_Mar_04_1157,localizer,2021.1.3,61.40258233292635,
block,faces,faces087.bmp,,,,,0,51,51,51,,,,,,,,,,,,,,,,,,,,,,,,,,,,,,,,,,,,,,,,,,None,,579.0186723600025,None,579.0186723600025,None,2022-03-04-12:07:24.305120,579.0213657999411,579.3353000999196,579.0213657999411,579.0213657999411,None,579.0213657999411,579.0213657999411,579.8353634599014,None,,,,22005,0002,2022_Mar_04_1157,localizer,2021.1.3,61.40258233292635,
block,faces,faces034.bmp,,,,,0,52,52,52,,,,,,,,,,,,,,,,,,,,,,,,,,,,,,,,,,,,,,,,,,None,,579.8353634599014,None,579.8353634599014,None,2022-03-04-12:07:25.119895,579.8459006999619,580.1517858000007,579.8459006999619,None,None,579.8459006999619,None,580.6531906599528,None,,,,22005,0002,2022_Mar_04_1157,localizer,2021.1.3,61.40258233292635,
block,faces,faces039.bmp,,,,,0,53,53,53,,,,,,,,,,,,,,,,,,,,,,,,,,,,,,,,,,,,,,,,,,None,,580.6531906599528,None,580.6531906599528,None,2022-03-04-12:07:25.939234,580.6681993999518,580.9684341999236,580.6681993999518,None,None,580.6681993999518,None,581.4687114599044,None,,,,22005,0002,2022_Mar_04_1157,localizer,2021.1.3,61.40258233292635,
block,faces,faces025.bmp,,,,,0,54,54,54,,,,,,,,,,,,,,,,,,,,,,,,,,,,,,,,,,,,,,,,,,None,,581.4687114599044,None,581.4687114599044,None,2022-03-04-12:07:26.753189,581.4797776999185,581.7852077999851,581.4797776999185,None,None,581.4797776999185,None,582.2854133600019,None,,,,22005,0002,2022_Mar_04_1157,localizer,2021.1.3,61.40258233292635,
block,faces,faces067.bmp,,,,,0,55,55,55,,,,,,,,,,,,,,,,,,,,,,,,,,,,,,,,,,,,,,,,,,None,,582.2854133600019,None,582.2854133600019,None,2022-03-04-12:07:27.570099,582.2983395999763,582.6019045999274,582.2983395999763,None,None,582.2983395999763,None,583.1032709599356,None,,,,22005,0002,2022_Mar_04_1157,localizer,2021.1.3,61.40258233292635,
block,faces,faces047.bmp,,,,,0,56,56,56,,,,,,,,,,,,,,,,,,,,,,,,,,,,,,,,,,,,,,,,,,None,,583.1032709599356,None,583.1032709599356,None,2022-03-04-12:07:28.386597,583.1169986999594,583.4192216999363,583.1169986999594,None,None,583.1169986999594,None,583.9185835599317,None,,,,22005,0002,2022_Mar_04_1157,localizer,2021.1.3,61.40258233292635,
block,faces,faces050.bmp,,,,,0,57,57,57,,,,,,,,,,,,,,,,,,,,,,,,,,,,,,,,,,,,,,,,,,None,,583.9185835599317,None,583.9185835599317,None,2022-03-04-12:07:29.203127,583.9294698999729,584.2351805999642,583.9294698999729,None,None,583.9294698999729,None,584.7353213599533,None,,,,22005,0002,2022_Mar_04_1157,localizer,2021.1.3,61.40258233292635,
block,faces,faces044.bmp,,,,,0,58,58,58,,,,,,,,,,,,,,,,,,,,,,,,,,,,,,,,,,,,,,,,,,None,,584.7353213599533,None,584.7353213599533,None,2022-03-04-12:07:30.019803,584.7454400999704,585.0578438999364,584.7454400999704,None,None,584.7454400999704,None,585.5523077600053,None,,,,22005,0002,2022_Mar_04_1157,localizer,2021.1.3,61.40258233292635,
block_end,faces,faces057.bmp,,,,,0,59,59,59,,,,,,,,,,,,,,,,,,,,,,,,,,,,,,,,,,,,,,,,,,None,,585.5523077600053,None,585.5523077600053,None,2022-03-04-12:07:30.838001,585.5658533999231,585.8688650999684,585.5658533999231,None,None,585.5658533999231,None,586.3689189599943,None,,,,22005,0002,2022_Mar_04_1157,localizer,2021.1.3,61.40258233292635,
null_block,null_block,null_block.bmp,,,,,0,60,60,60,,,,,,,,,,,,,,,,,,,,,,,,,,,,,,,,,,,,,,,,,,t,1.771540299989283,586.3686609999277,None,586.3686609999277,None,2022-03-04-12:07:33.452596,588.1690950599848,None,588.1690950599848,None,None,588.1690950599848,None,588.1737184999511,None,,,,22005,0002,2022_Mar_04_1157,localizer,2021.1.3,61.40258233292635,
block_start,objects,objects044.bmp,,,,,0,61,61,61,,,,,,,,,,,,,,,,,,,,,,,,,,,,,,,,,,,,,,,,,,t,1.95504659996368,600.1851851999527,None,600.1851851999527,None,2022-03-04-12:07:47.455039,602.1708634999814,602.4852175998967,602.1708634999814,None,None,602.1708634999814,None,602.9859324599499,None,,,,22005,0002,2022_Mar_04_1157,localizer,2021.1.3,61.40258233292635,
block,objects,objects029.bmp,,,,,0,62,62,62,,,,,,,,,,,,,,,,,,,,,,,,,,,,,,,,,,,,,,,,,,None,,602.9859324599499,None,602.9859324599499,None,2022-03-04-12:07:48.271595,602.9878162998939,603.3014637999004,602.9878162998939,None,None,602.9878162998939,None,603.8015896600089,None,,,,22005,0002,2022_Mar_04_1157,localizer,2021.1.3,61.40258233292635,
block,objects,objects031.bmp,,,,,0,63,63,63,,,,,,,,,,,,,,,,,,,,,,,,,,,,,,,,,,,,,,,,,,None,,603.8015896600089,None,603.8015896600089,None,2022-03-04-12:07:49.086071,603.8106420999393,604.1248735999689,603.8106420999393,None,None,603.8106420999393,None,604.6199626599089,None,,,,22005,0002,2022_Mar_04_1157,localizer,2021.1.3,61.40258233292635,
block,objects,objects022.bmp,,,,,0,64,64,64,,,,,,,,,,,,,,,,,,,,,,,,,,,,,,,,,,,,,,,,,,None,,604.6199626599089,None,604.6199626599089,None,2022-03-04-12:07:49.906345,604.6228271999862,604.9358414999442,604.6228271999862,None,None,604.6228271999862,None,605.4357026600162,None,,,,22005,0002,2022_Mar_04_1157,localizer,2021.1.3,61.40258233292635,
block,objects,objects041.bmp,,,,,0,65,65,65,,,,,,,,,,,,,,,,,,,,,,,,,,,,,,,,,,,,,,,,,,None,,605.4357026600162,None,605.4357026600162,None,2022-03-04-12:07:50.721174,605.4365086999023,605.7355677000014,605.4365086999023,None,None,605.4365086999023,None,606.2357772599323,None,,,,22005,0002,2022_Mar_04_1157,localizer,2021.1.3,61.40258233292635,
block,objects,objects046.bmp,,,,,0,66,66,66,,,,,,,,,,,,,,,,,,,,,,,,,,,,,,,,,,,,,,,,,,None,,606.2357772599323,None,606.2357772599323,None,2022-03-04-12:07:51.523445,606.2385309999809,606.5522666999605,606.2385309999809,606.2385309999809,None,606.2385309999809,606.2385309999809,607.0519694599905,None,,,,22005,0002,2022_Mar_04_1157,localizer,2021.1.3,61.40258233292635,
block,objects,objects087.bmp,,,,,0,67,67,67,,,,,,,,,,,,,,,,,,,,,,,,,,,,,,,,,,,,,,,,,,None,,607.0519694599905,None,607.0519694599905,None,2022-03-04-12:07:52.336451,607.052675099927,607.3517259999644,607.052675099927,None,None,607.052675099927,None,607.8520214599673,None,,,,22005,0002,2022_Mar_04_1157,localizer,2021.1.3,61.40258233292635,
block,objects,objects077.bmp,,,,,0,68,68,68,,,,,,,,,,,,,,,,,,,,,,,,,,,,,,,,,,,,,,,,,,None,,607.8520214599673,None,607.8520214599673,None,2022-03-04-12:07:53.138721,607.8548643999966,608.1685646999395,607.8548643999966,607.8548643999966,None,607.8548643999966,607.8548643999966,608.6684654599637,None,,,,22005,0002,2022_Mar_04_1157,localizer,2021.1.3,61.40258233292635,
block,objects,objects067.bmp,,,,,0,69,69,69,,,,,,,,,,,,,,,,,,,,,,,,,,,,,,,,,,,,,,,,,,None,,608.6684654599637,None,608.6684654599637,None,2022-03-04-12:07:53.952947,608.669307300006,608.9685906999512,608.669307300006,None,None,608.669307300006,None,609.4698740599094,None,,,,22005,0002,2022_Mar_04_1157,localizer,2021.1.3,61.40258233292635,
block,objects,objects021.bmp,,,,,0,70,70,70,,,,,,,,,,,,,,,,,,,,,,,,,,,,,,,,,,,,,,,,,,None,,609.4698740599094,None,609.4698740599094,None,2022-03-04-12:07:54.760303,609.487290799967,609.8018371999497,609.487290799967,609.487290799967,None,609.487290799967,609.487290799967,610.2854092599707,None,,,,22005,0002,2022_Mar_04_1157,localizer,2021.1.3,61.40258233292635,
block,objects,objects006.bmp,,,,,0,71,71,71,,,,,,,,,,,,,,,,,,,,,,,,,,,,,,,,,,,,,,,,,,None,,610.2854092599707,None,610.2854092599707,None,2022-03-04-12:07:55.569890,610.295735499938,610.6015290999785,610.295735499938,None,None,610.295735499938,None,611.1020157599239,None,,,,22005,0002,2022_Mar_04_1157,localizer,2021.1.3,61.40258233292635,
block,objects,objects008.bmp,,,,,0,72,72,72,,,,,,,,,,,,,,,,,,,,,,,,,,,,,,,,,,,,,,,,,,None,,611.1020157599239,None,611.1020157599239,None,2022-03-04-12:07:56.386497,611.1027054999722,611.401792199933,611.1027054999722,None,None,611.1027054999722,None,611.902083859907,None,,,,22005,0002,2022_Mar_04_1157,localizer,2021.1.3,61.40258233292635,
block,objects,objects059.bmp,,,,,0,73,73,73,,,,,,,,,,,,,,,,,,,,,,,,,,,,,,,,,,,,,,,,,,None,,611.902083859907,None,611.902083859907,None,2022-03-04-12:07:57.188557,611.9032511999831,612.2021983999293,611.9032511999831,611.9032511999831,None,611.9032511999831,611.9032511999831,612.7183635599329,None,,,,22005,0002,2022_Mar_04_1157,localizer,2021.1.3,61.40258233292635,
block,objects,objects049.bmp,,,,,0,74,74,74,,,,,,,,,,,,,,,,,,,,,,,,,,,,,,,,,,,,,,,,,,None,,612.7183635599329,None,612.7183635599329,None,2022-03-04-12:07:58.002846,612.7195807999233,613.0185849999543,612.7195807999233,None,None,612.7195807999233,None,613.5357877599424,None,,,,22005,0002,2022_Mar_04_1157,localizer,2021.1.3,61.40258233292635,
block_end,objects,objects061.bmp,,,,,0,75,75,75,,,,,,,,,,,,,,,,,,,,,,,,,,,,,,,,,,,,,,,,,,None,,613.5357877599424,None,613.5357877599424,None,2022-03-04-12:07:58.820351,613.5438387999311,613.8517884999746,613.5438387999311,None,None,613.5438387999311,None,614.3520225599757,None,,,,22005,0002,2022_Mar_04_1157,localizer,2021.1.3,61.40258233292635,
block_start,scrambled,scrambled076.bmp,,,,,0,76,76,76,,,,,,,,,,,,,,,,,,,,,,,,,,,,,,,,,,,,,,,,,,t,1.7882953999796882,614.3518884999212,None,614.3518884999212,None,2022-03-04-12:08:01.452448,616.1696329999249,616.4853785999585,616.1696329999249,None,None,616.1696329999249,None,616.968683459924,None,,,,22005,0002,2022_Mar_04_1157,localizer,2021.1.3,61.40258233292635,
block,scrambled,scrambled042.bmp,,,,,0,77,77,77,,,,,,,,,,,,,,,,,,,,,,,,,,,,,,,,,,,,,,,,,,None,,616.968683459924,None,616.968683459924,None,2022-03-04-12:08:02.255157,616.9698590999469,617.285190399969,616.9698590999469,616.9698590999469,None,616.9698590999469,616.9698590999469,617.7854440600029,None,,,,22005,0002,2022_Mar_04_1157,localizer,2021.1.3,61.40258233292635,
block,scrambled,scrambled059.bmp,,,,,0,78,78,78,,,,,,,,,,,,,,,,,,,,,,,,,,,,,,,,,,,,,,,,,,None,,617.7854440600029,None,617.7854440600029,None,2022-03-04-12:08:03.070365,617.7961811999558,618.1025864999974,617.7961811999558,None,None,617.7961811999558,None,618.602652059996,None,,,,22005,0002,2022_Mar_04_1157,localizer,2021.1.3,61.40258233292635,
block,scrambled,scrambled082.bmp,,,,,0,79,79,79,,,,,,,,,,,,,,,,,,,,,,,,,,,,,,,,,,,,,,,,,,None,,618.602652059996,None,618.602652059996,None,2022-03-04-12:08:03.888120,618.6138210999779,618.9184605999617,618.6138210999779,None,None,618.6138210999779,None,619.418928359996,None,,,,22005,0002,2022_Mar_04_1157,localizer,2021.1.3,61.40258233292635,
block,scrambled,scrambled068.bmp,,,,,0,80,80,80,,,,,,,,,,,,,,,,,,,,,,,,,,,,,,,,,,,,,,,,,,None,,619.418928359996,None,619.418928359996,None,2022-03-04-12:08:04.703619,619.4296301999129,619.7350850999355,619.4296301999129,None,None,619.4296301999129,None,620.2355566599988,None,,,,22005,0002,2022_Mar_04_1157,localizer,2021.1.3,61.40258233292635,
block,scrambled,scrambled043.bmp,,,,,0,81,81,81,,,,,,,,,,,,,,,,,,,,,,,,,,,,,,,,,,,,,,,,,,None,,620.2355566599988,None,620.2355566599988,None,2022-03-04-12:08:05.520034,620.2464756999398,620.5521267999429,620.2464756999398,None,None,620.2464756999398,None,621.0520800599013,None,,,,22005,0002,2022_Mar_04_1157,localizer,2021.1.3,61.40258233292635,
block,scrambled,scrambled079.bmp,,,,,0,82,82,82,,,,,,,,,,,,,,,,,,,,,,,,,,,,,,,,,,,,,,,,,,None,,621.0520800599013,None,621.0520800599013,None,2022-03-04-12:08:06.336925,621.0529044999275,621.3684194999514,621.0529044999275,None,None,621.0529044999275,None,621.8520171599346,None,,,,22005,0002,2022_Mar_04_1157,localizer,2021.1.3,61.40258233292635,
block,scrambled,scrambled045.bmp,,,,,0,83,83,83,,,,,,,,,,,,,,,,,,,,,,,,,,,,,,,,,,,,,,,,,,None,,621.8520171599346,None,621.8520171599346,None,2022-03-04-12:08:07.137497,621.862978399964,622.1682309999596,621.862978399964,621.862978399964,None,621.862978399964,621.862978399964,622.6698556599556,None,,,,22005,0002,2022_Mar_04_1157,localizer,2021.1.3,61.40258233292635,
block,scrambled,scrambled063.bmp,,,,,0,84,84,84,,,,,,,,,,,,,,,,,,,,,,,,,,,,,,,,,,,,,,,,,,None,,622.6698556599556,None,622.6698556599556,None,2022-03-04-12:08:07.955508,622.682001399924,622.985294999904,622.682001399924,None,None,622.682001399924,None,623.4854609599686,None,,,,22005,0002,2022_Mar_04_1157,localizer,2021.1.3,61.40258233292635,
block,scrambled,scrambled037.bmp,,,,,0,85,85,85,,,,,,,,,,,,,,,,,,,,,,,,,,,,,,,,,,,,,,,,,,None,,623.4854609599686,None,623.4854609599686,None,2022-03-04-12:08:08.769941,623.4861056999071,623.7852860999992,623.4861056999071,None,None,623.4861056999071,None,624.2852518599364,None,,,,22005,0002,2022_Mar_04_1157,localizer,2021.1.3,61.40258233292635,
block,scrambled,scrambled003.bmp,,,,,0,86,86,86,,,,,,,,,,,,,,,,,,,,,,,,,,,,,,,,,,,,,,,,,,None,,624.2852518599364,None,624.2852518599364,None,2022-03-04-12:08:09.571965,624.2964611999923,624.6020199999912,624.2964611999923,624.2964611999923,None,624.2964611999923,624.2964611999923,625.10223585997,None,,,,22005,0002,2022_Mar_04_1157,localizer,2021.1.3,61.40258233292635,
block,scrambled,scrambled035.bmp,,,,,0,87,87,87,,,,,,,,,,,,,,,,,,,,,,,,,,,,,,,,,,,,,,,,,,None,,625.10223585997,None,625.10223585997,None,2022-03-04-12:08:10.385614,625.1105006999569,625.4186714999378,625.1105006999569,None,None,625.1105006999569,None,625.918644359929,None,,,,22005,0002,2022_Mar_04_1157,localizer,2021.1.3,61.40258233292635,
block,scrambled,scrambled038.bmp,,,,,0,88,88,88,,,,,,,,,,,,,,,,,,,,,,,,,,,,,,,,,,,,,,,,,,None,,625.918644359929,None,625.918644359929,None,2022-03-04-12:08:11.203125,625.9193659999873,626.2181960999733,625.9193659999873,None,None,625.9193659999873,None,626.7194128600065,None,,,,22005,0002,2022_Mar_04_1157,localizer,2021.1.3,61.40258233292635,
block,scrambled,scrambled061.bmp,,,,,0,89,89,89,,,,,,,,,,,,,,,,,,,,,,,,,,,,,,,,,,,,,,,,,,None,,626.7194128600065,None,626.7194128600065,None,2022-03-04-12:08:12.006874,626.7222270999337,627.0352535999846,626.7222270999337,626.7222270999337,None,626.7222270999337,626.7222270999337,627.5355743599473,None,,,,22005,0002,2022_Mar_04_1157,localizer,2021.1.3,61.40258233292635,
block_end,scrambled,scrambled017.bmp,,,,,0,90,90,90,,,,,,,,,,,,,,,,,,,,,,,,,,,,,,,,,,,,,,,,,,None,,627.5355743599473,None,627.5355743599473,None,2022-03-04-12:08:12.820053,627.547055699979,627.8521353999386,627.547055699979,None,None,627.547055699979,None,628.3521136599709,None,,,,22005,0002,2022_Mar_04_1157,localizer,2021.1.3,61.40258233292635,
block_start,scenes,scenes045.bmp,,,,,0,91,91,91,,,,,,,,,,,,,,,,,,,,,,,,,,,,,,,,,,,,,,,,,,t,1.7879400999518111,628.3521685999585,None,628.3521685999585,None,2022-03-04-12:08:15.452229,630.1694267999846,630.4685757999541,630.1694267999846,None,None,630.1694267999846,None,630.968931359949,None,,,,22005,0002,2022_Mar_04_1157,localizer,2021.1.3,61.40258233292635,
block,scenes,scenes028.bmp,,,,,0,92,92,92,,,,,,,,,,,,,,,,,,,,,,,,,,,,,,,,,,,,,,,,,,None,,630.968931359949,None,630.968931359949,None,2022-03-04-12:08:16.255119,630.9696885999292,631.2689051999478,630.9696885999292,630.9696885999292,None,630.9696885999292,630.9696885999292,631.7689274599659,None,,,,22005,0002,2022_Mar_04_1157,localizer,2021.1.3,61.40258233292635,
block,scenes,scenes011.bmp,,,,,0,93,93,93,,,,,,,,,,,,,,,,,,,,,,,,,,,,,,,,,,,,,,,,,,None,,631.7689274599659,None,631.7689274599659,None,2022-03-04-12:08:17.055401,631.7716667999048,632.0854251999408,631.7716667999048,631.7716667999048,None,631.7716667999048,631.7716667999048,632.5856461599585,None,,,,22005,0002,2022_Mar_04_1157,localizer,2021.1.3,61.40258233292635,
block,scenes,scenes092.bmp,,,,,0,94,94,94,,,,,,,,,,,,,,,,,,,,,,,,,,,,,,,,,,,,,,,,,,None,,632.5856461599585,None,632.5856461599585,None,2022-03-04-12:08:17.870309,632.5863171999808,632.8854254999897,632.5863171999808,None,None,632.5863171999808,None,633.3855152599397,None,,,,22005,0002,2022_Mar_04_1157,localizer,2021.1.3,61.40258233292635,
block,scenes,scenes021.bmp,,,,,0,95,95,95,,,,,,,,,,,,,,,,,,,,,,,,,,,,,,,,,,,,,,,,,,None,,633.3855152599397,None,633.3855152599397,None,2022-03-04-12:08:18.670994,633.3993013999425,633.7019281999674,633.3993013999425,633.3993013999425,None,633.3993013999425,633.3993013999425,634.2185451199998,None,,,,22005,0002,2022_Mar_04_1157,localizer,2021.1.3,61.40258233292635,
block,scenes,scenes016.bmp,,,,,0,96,96,96,,,,,,,,,,,,,,,,,,,,,,,,,,,,,,,,,,,,,,,,,,None,,634.2185451199998,None,634.2185451199998,None,2022-03-04-12:08:19.514927,634.2436500999611,634.552573599969,634.2436500999611,None,None,634.2436500999611,None,635.0355519600096,None,,,,22005,0002,2022_Mar_04_1157,localizer,2021.1.3,61.40258233292635,
block,scenes,scenes027.bmp,,,,,0,97,97,97,,,,,,,,,,,,,,,,,,,,,,,,,,,,,,,,,,,,,,,,,,None,,635.0355519600096,None,635.0355519600096,None,2022-03-04-12:08:20.320014,635.0362378999125,635.3357035999652,635.0362378999125,None,None,635.0362378999125,None,635.8356802599853,None,,,,22005,0002,2022_Mar_04_1157,localizer,2021.1.3,61.40258233292635,
block,scenes,scenes020.bmp,,,,,0,98,98,98,,,,,,,,,,,,,,,,,,,,,,,,,,,,,,,,,,,,,,,,,,None,,635.8356802599853,None,635.8356802599853,None,2022-03-04-12:08:21.122348,635.8372140999418,636.1518804999068,635.8372140999418,635.8372140999418,None,635.8372140999418,635.8372140999418,636.6415431599714,None,,,,22005,0002,2022_Mar_04_1157,localizer,2021.1.3,61.40258233292635,
block,scenes,scenes070.bmp,,,,,0,99,99,99,,,,,,,,,,,,,,,,,,,,,,,,,,,,,,,,,,,,,,,,,,None,,636.6415431599714,None,636.6415431599714,None,2022-03-04-12:08:21.935095,636.6595252999105,636.9686432000017,636.6595252999105,636.6595252999105,None,636.6595252999105,636.6595252999105,637.4543138599372,None,,,,22005,0002,2022_Mar_04_1157,localizer,2021.1.3,61.40258233292635,
block,scenes,scenes041.bmp,,,,,0,100,100,100,,,,,,,,,,,,,,,,,,,,,,,,,,,,,,,,,,,,,,,,,,None,,637.4543138599372,None,637.4543138599372,None,2022-03-04-12:08:22.743765,637.4594525999855,637.769029899966,637.4594525999855,None,None,637.4594525999855,None,638.2689399599446,None,,,,22005,0002,2022_Mar_04_1157,localizer,2021.1.3,61.40258233292635,
block,scenes,scenes044.bmp,,,,,0,101,101,101,,,,,,,,,,,,,,,,,,,,,,,,,,,,,,,,,,,,,,,,,,None,,638.2689399599446,None,638.2689399599446,None,2022-03-04-12:08:23.553630,638.2696861999575,638.5688522999408,638.2696861999575,None,None,638.2696861999575,None,639.068865060003,None,,,,22005,0002,2022_Mar_04_1157,localizer,2021.1.3,61.40258233292635,
block,scenes,scenes005.bmp,,,,,0,102,102,102,,,,,,,,,,,,,,,,,,,,,,,,,,,,,,,,,,,,,,,,,,None,,639.068865060003,None,639.068865060003,None,2022-03-04-12:08:24.354391,639.0696513999719,639.3686648999574,639.0696513999719,639.0696513999719,None,639.0696513999719,639.0696513999719,639.8852309599868,None,,,,22005,0002,2022_Mar_04_1157,localizer,2021.1.3,61.40258233292635,
block,scenes,scenes086.bmp,,,,,0,103,103,103,,,,,,,,,,,,,,,,,,,,,,,,,,,,,,,,,,,,,,,,,,None,,639.8852309599868,None,639.8852309599868,None,2022-03-04-12:08:25.169713,639.8944245999446,640.2018946999451,639.8944245999446,None,None,639.8944245999446,None,640.701810959971,None,,,,22005,0002,2022_Mar_04_1157,localizer,2021.1.3,61.40258233292635,
block,scenes,scenes029.bmp,,,,,0,104,104,104,,,,,,,,,,,,,,,,,,,,,,,,,,,,,,,,,,,,,,,,,,None,,640.701810959971,None,640.701810959971,None,2022-03-04-12:08:25.986294,640.7106324000051,641.0186504999874,640.7106324000051,None,None,640.7106324000051,None,641.519591060013,None,,,,22005,0002,2022_Mar_04_1157,localizer,2021.1.3,61.40258233292635,
block_end,scenes,scenes046.bmp,,,,,0,105,105,105,,,,,,,,,,,,,,,,,,,,,,,,,,,,,,,,,,,,,,,,,,None,,641.519591060013,None,641.519591060013,None,2022-03-04-12:08:26.805239,641.5215131998993,641.8359423999209,641.5215131998993,None,None,641.5215131998993,None,642.3351871599559,None,,,,22005,0002,2022_Mar_04_1157,localizer,2021.1.3,61.40258233292635,
block_start,faces,faces036.bmp,,,,,0,106,106,106,,,,,,,,,,,,,,,,,,,,,,,,,,,,,,,,,,,,,,,,,,t,1.8056465999688953,642.3349279999966,None,642.3349279999966,None,2022-03-04-12:08:29.463859,644.1894525999669,644.5020513999043,644.1894525999669,None,None,644.1894525999669,None,644.9853856599773,None,,,,22005,0002,2022_Mar_04_1157,localizer,2021.1.3,61.40258233292635,
block,faces,faces048.bmp,,,,,0,107,107,107,,,,,,,,,,,,,,,,,,,,,,,,,,,,,,,,,,,,,,,,,,None,,644.9853856599773,None,644.9853856599773,None,2022-03-04-12:08:30.269887,644.9973274999065,645.3020154999103,644.9973274999065,None,None,644.9973274999065,None,645.8024581599864,None,,,,22005,0002,2022_Mar_04_1157,localizer,2021.1.3,61.40258233292635,
block,faces,faces070.bmp,,,,,0,108,108,108,,,,,,,,,,,,,,,,,,,,,,,,,,,,,,,,,,,,,,,,,,None,,645.8024581599864,None,645.8024581599864,None,2022-03-04-12:08:31.088134,645.8031158999074,646.1025321999332,645.8031158999074,None,None,645.8031158999074,None,646.6023856599465,None,,,,22005,0002,2022_Mar_04_1157,localizer,2021.1.3,61.40258233292635,
block,faces,faces070.bmp,,,,,0,109,109,109,,,,,,,,,,,,,,,,,,,,,,,,,,,,,,,,,,,,,,,,,,None,,646.6023856599465,None,646.6023856599465,None,2022-03-04-12:08:31.888855,646.6051466999343,646.9189496999606,646.6051466999343,646.6051466999343,y,646.6051466999343,646.6051466999343,647.4088361599831,None,0.7237530000275001,,,22005,0002,2022_Mar_04_1157,localizer,2021.1.3,61.40258233292635,
block,faces,faces077.bmp,,,,,0,110,110,110,,,,,,,,,,,,,,,,,,,,,,,,,,,,,,,,,,,,,,,,,,None,,647.4088361599831,None,647.4088361599831,None,2022-03-04-12:08:32.698289,647.4141287999228,647.7193587999791,647.4141287999228,647.4141287999228,None,647.4141287999228,647.4141287999228,648.2200797599623,None,,,,22005,0002,2022_Mar_04_1157,localizer,2021.1.3,61.40258233292635,
block,faces,faces018.bmp,,,,,0,111,111,111,,,,,,,,,,,,,,,,,,,,,,,,,,,,,,,,,,,,,,,,,,None,,648.2200797599623,None,648.2200797599623,None,2022-03-04-12:08:33.507093,648.2330431999872,648.5354520999826,648.2330431999872,None,None,648.2330431999872,None,649.0355802599922,None,,,,22005,0002,2022_Mar_04_1157,localizer,2021.1.3,61.40258233292635,
block,faces,faces053.bmp,,,,,0,112,112,112,,,,,,,,,,,,,,,,,,,,,,,,,,,,,,,,,,,,,,,,,,None,,649.0355802599922,None,649.0355802599922,None,2022-03-04-12:08:34.320060,649.0456001999555,649.3578472000081,649.0456001999555,None,None,649.0456001999555,None,649.8521923599881,None,,,,22005,0002,2022_Mar_04_1157,localizer,2021.1.3,61.40258233292635,
block,faces,faces004.bmp,,,,,0,113,113,113,,,,,,,,,,,,,,,,,,,,,,,,,,,,,,,,,,,,,,,,,,None,,649.8521923599881,None,649.8521923599881,None,2022-03-04-12:08:35.136697,649.8530444999924,650.1524208999472,649.8530444999924,None,None,649.8530444999924,None,650.65230355995,None,,,,22005,0002,2022_Mar_04_1157,localizer,2021.1.3,61.40258233292635,
block,faces,faces015.bmp,,,,,0,114,114,114,,,,,,,,,,,,,,,,,,,,,,,,,,,,,,,,,,,,,,,,,,None,,650.65230355995,None,650.65230355995,None,2022-03-04-12:08:35.938776,650.6670879999874,650.9685496999882,650.6670879999874,650.6670879999874,None,650.6670879999874,650.6670879999874,651.468952159991,None,,,,22005,0002,2022_Mar_04_1157,localizer,2021.1.3,61.40258233292635,
block,faces,faces061.bmp,,,,,0,115,115,115,,,,,,,,,,,,,,,,,,,,,,,,,,,,,,,,,,,,,,,,,,None,,651.468952159991,None,651.468952159991,None,2022-03-04-12:08:36.753644,651.4697952999268,651.7691150999162,651.4697952999268,None,None,651.4697952999268,None,652.2853404599125,None,,,,22005,0002,2022_Mar_04_1157,localizer,2021.1.3,61.40258233292635,
block,faces,faces081.bmp,,,,,0,116,116,116,,,,,,,,,,,,,,,,,,,,,,,,,,,,,,,,,,,,,,,,,,None,,652.2853404599125,None,652.2853404599125,None,2022-03-04-12:08:37.569823,652.2969384999014,652.6019710999681,652.2969384999014,None,None,652.2969384999014,None,653.1025245599565,None,,,,22005,0002,2022_Mar_04_1157,localizer,2021.1.3,61.40258233292635,
block,faces,faces002.bmp,,,,,0,117,117,117,,,,,,,,,,,,,,,,,,,,,,,,,,,,,,,,,,,,,,,,,,None,,653.1025245599565,None,653.1025245599565,None,2022-03-04-12:08:38.387033,653.1030729999766,653.4028126999037,653.1030729999766,None,None,653.1030729999766,None,653.9029158599558,None,,,,22005,0002,2022_Mar_04_1157,localizer,2021.1.3,61.40258233292635,
block,faces,faces049.bmp,,,,,0,118,118,118,,,,,,,,,,,,,,,,,,,,,,,,,,,,,,,,,,,,,,,,,,None,,653.9029158599558,None,653.9029158599558,None,2022-03-04-12:08:39.190572,653.9060466999654,654.2194012999535,653.9060466999654,653.9060466999654,None,653.9060466999654,653.9060466999654,654.7195119599462,None,,,,22005,0002,2022_Mar_04_1157,localizer,2021.1.3,61.40258233292635,
block,faces,faces030.bmp,,,,,0,119,119,119,,,,,,,,,,,,,,,,,,,,,,,,,,,,,,,,,,,,,,,,,,None,,654.7195119599462,None,654.7195119599462,None,2022-03-04-12:08:40.005190,654.7329299999401,655.0350160999224,654.7329299999401,None,None,654.7329299999401,None,655.5374850599444,None,,,,22005,0002,2022_Mar_04_1157,localizer,2021.1.3,61.40258233292635,
block_end,faces,faces006.bmp,,,,,0,120,120,120,,,,,,,,,,,,,,,,,,,,,,,,,,,,,,,,,,,,,,,,,,None,,655.5374850599444,None,655.5374850599444,None,2022-03-04-12:08:40.827106,655.542815499939,655.8524779999861,655.542815499939,None,None,655.542815499939,None,656.3522434599115,None,,,,22005,0002,2022_Mar_04_1157,localizer,2021.1.3,61.40258233292635,
null_block,null_block,null_block.bmp,,,,,0,121,121,121,,,,,,,,,,,,,,,,,,,,,,,,,,,,,,,,,,,,,,,,,,t,1.787799899931997,656.3521246999735,None,656.3521246999735,None,2022-03-04-12:08:43.452056,658.1685683599324,None,658.1685683599324,None,None,658.1685683599324,None,658.1705123999855,None,,,,22005,0002,2022_Mar_04_1157,localizer,2021.1.3,61.40258233292635,
block_start,scrambled,scrambled004.bmp,,,,,0,122,122,122,,,,,,,,,,,,,,,,,,,,,,,,,,,,,,,,,,,,,,,,,,t,1.9681038000853732,670.17191429995,None,670.17191429995,None,2022-03-04-12:08:57.458191,672.1732755999546,672.4855183999753,672.1732755999546,None,None,672.1732755999546,None,672.9857379599823,None,,,,22005,0002,2022_Mar_04_1157,localizer,2021.1.3,61.40258233292635,
block,scrambled,scrambled084.bmp,,,,,0,123,123,123,,,,,,,,,,,,,,,,,,,,,,,,,,,,,,,,,,,,,,,,,,None,,672.9857379599823,None,672.9857379599823,None,2022-03-04-12:08:58.270710,672.9976338999113,673.3022660999559,672.9976338999113,None,None,672.9976338999113,None,673.8026499599334,None,,,,22005,0002,2022_Mar_04_1157,localizer,2021.1.3,61.40258233292635,
block,scrambled,scrambled006.bmp,,,,,0,124,124,124,,,,,,,,,,,,,,,,,,,,,,,,,,,,,,,,,,,,,,,,,,None,,673.8026499599334,None,673.8026499599334,None,2022-03-04-12:08:59.087127,673.808951199986,674.1255475999787,673.808951199986,None,None,673.808951199986,None,674.625121259957,None,,,,22005,0002,2022_Mar_04_1157,localizer,2021.1.3,61.40258233292635,
block,scrambled,scrambled028.bmp,,,,,0,125,125,125,,,,,,,,,,,,,,,,,,,,,,,,,,,,,,,,,,,,,,,,,,None,,674.625121259957,None,674.625121259957,None,2022-03-04-12:08:59.917395,674.6344122999581,674.935591199901,674.6344122999581,None,None,674.6344122999581,None,675.4360959599842,None,,,,22005,0002,2022_Mar_04_1157,localizer,2021.1.3,61.40258233292635,
block,scrambled,scrambled050.bmp,,,,,0,126,126,126,,,,,,,,,,,,,,,,,,,,,,,,,,,,,,,,,,,,,,,,,,None,,675.4360959599842,None,675.4360959599842,None,2022-03-04-12:09:00.720503,675.4467437999556,675.7523209999781,675.4467437999556,None,None,675.4467437999556,None,676.2530533599318,None,,,,22005,0002,2022_Mar_04_1157,localizer,2021.1.3,61.40258233292635,
block,scrambled,scrambled048.bmp,,,,,0,127,127,127,,,,,,,,,,,,,,,,,,,,,,,,,,,,,,,,,,,,,,,,,,None,,676.2530533599318,None,676.2530533599318,None,2022-03-04-12:09:01.538519,676.2545278999023,676.5696388999932,676.2545278999023,None,None,676.2545278999023,None,677.0697990600136,None,,,,22005,0002,2022_Mar_04_1157,localizer,2021.1.3,61.40258233292635,
block,scrambled,scrambled011.bmp,,,,,0,128,128,128,,,,,,,,,,,,,,,,,,,,,,,,,,,,,,,,,,,,,,,,,,None,,677.0697990600136,None,677.0697990600136,None,2022-03-04-12:09:02.355457,677.0716186999343,677.3855892999563,677.0716186999343,None,None,677.0716186999343,None,677.8858004600158,None,,,,22005,0002,2022_Mar_04_1157,localizer,2021.1.3,61.40258233292635,
block,scrambled,scrambled068.bmp,,,,,0,129,129,129,,,,,,,,,,,,,,,,,,,,,,,,,,,,,,,,,,,,,,,,,,None,,677.8858004600158,None,677.8858004600158,None,2022-03-04-12:09:03.170286,677.8865249999799,678.2019767999882,677.8865249999799,None,None,677.8865249999799,None,678.7023606599657,None,,,,22005,0002,2022_Mar_04_1157,localizer,2021.1.3,61.40258233292635,
block,scrambled,scrambled076.bmp,,,,,0,130,130,130,,,,,,,,,,,,,,,,,,,,,,,,,,,,,,,,,,,,,,,,,,None,,678.7023606599657,None,678.7023606599657,None,2022-03-04-12:09:03.986537,678.7033650999656,679.0187305998988,678.7033650999656,None,None,678.7033650999656,None,679.5031549600069,None,,,,22005,0002,2022_Mar_04_1157,localizer,2021.1.3,61.40258233292635,
block,scrambled,scrambled072.bmp,,,,,0,131,131,131,,,,,,,,,,,,,,,,,,,,,,,,,,,,,,,,,,,,,,,,,,None,,679.5031549600069,None,679.5031549600069,None,2022-03-04-12:09:04.790807,679.5176139998948,679.8189657999901,679.5176139998948,679.5176139998948,None,679.5176139998948,679.5176139998948,680.3191542599932,None,,,,22005,0002,2022_Mar_04_1157,localizer,2021.1.3,61.40258233292635,
block,scrambled,scrambled016.bmp,,,,,0,132,132,132,,,,,,,,,,,,,,,,,,,,,,,,,,,,,,,,,,,,,,,,,,None,,680.3191542599932,None,680.3191542599932,None,2022-03-04-12:09:05.603762,680.3290153999114,680.6356568000047,680.3290153999114,None,None,680.3290153999114,None,681.1357872599153,None,,,,22005,0002,2022_Mar_04_1157,localizer,2021.1.3,61.40258233292635,
block,scrambled,scrambled010.bmp,,,,,0,133,133,133,,,,,,,,,,,,,,,,,,,,,,,,,,,,,,,,,,,,,,,,,,None,,681.1357872599153,None,681.1357872599153,None,2022-03-04-12:09:06.420266,681.1364914999576,681.435673299944,681.1364914999576,None,None,681.1364914999576,None,681.9357540599419,None,,,,22005,0002,2022_Mar_04_1157,localizer,2021.1.3,61.40258233292635,
block,scrambled,scrambled060.bmp,,,,,0,134,134,134,,,,,,,,,,,,,,,,,,,,,,,,,,,,,,,,,,,,,,,,,,None,,681.9357540599419,None,681.9357540599419,None,2022-03-04-12:09:07.222437,681.9371047999011,682.2521683999803,681.9371047999011,681.9371047999011,None,681.9371047999011,681.9371047999011,682.7525792599306,None,,,,22005,0002,2022_Mar_04_1157,localizer,2021.1.3,61.40258233292635,
block,scrambled,scrambled056.bmp,,,,,0,135,135,135,,,,,,,,,,,,,,,,,,,,,,,,,,,,,,,,,,,,,,,,,,None,,682.7525792599306,None,682.7525792599306,None,2022-03-04-12:09:08.037097,682.7532679999713,683.0525185998995,682.7532679999713,None,None,682.7532679999713,None,683.5589103599893,None,,,,22005,0002,2022_Mar_04_1157,localizer,2021.1.3,61.40258233292635,
block_end,scrambled,scrambled049.bmp,,,,,0,136,136,136,,,,,,,,,,,,,,,,,,,,,,,,,,,,,,,,,,,,,,,,,,None,,683.5589103599893,None,683.5589103599893,None,2022-03-04-12:09:08.851035,683.5690224999562,683.869645299972,683.5690224999562,None,None,683.5690224999562,None,684.3698817599914,None,,,,22005,0002,2022_Mar_04_1157,localizer,2021.1.3,61.40258233292635,
null_block,null_block,null_block.bmp,,,,,0,137,137,137,,,,,,,,,,,,,,,,,,,,,,,,,,,,,,,,,,,,,,,,,,t,1.7703336999984458,684.3696088999277,None,684.3696088999277,None,2022-03-04-12:09:11.453547,686.1690684600151,None,686.1690684600151,None,None,686.1690684600151,None,686.1723563999403,None,,,,22005,0002,2022_Mar_04_1157,localizer,2021.1.3,61.40258233292635,
block_start,scenes,scenes081.bmp,,,,,0,138,138,138,,,,,,,,,,,,,,,,,,,,,,,,,,,,,,,,,,,,,,,,,,t,1.9535988001152873,698.1855905998964,None,698.1855905998964,None,2022-03-04-12:09:25.460229,700.1793691999046,700.4856569999829,700.1793691999046,None,None,700.1793691999046,None,700.9870353599661,None,,,,22005,0002,2022_Mar_04_1157,localizer,2021.1.3,61.40258233292635,
block,scenes,scenes075.bmp,,,,,0,139,139,139,,,,,,,,,,,,,,,,,,,,,,,,,,,,,,,,,,,,,,,,,,None,,700.9870353599661,None,700.9870353599661,None,2022-03-04-12:09:26.273474,700.9893238999648,701.3027963999193,700.9893238999648,None,None,700.9893238999648,None,701.8026926599093,None,,,,22005,0002,2022_Mar_04_1157,localizer,2021.1.3,61.40258233292635,
block,scenes,scenes032.bmp,,,,,0,140,140,140,,,,,,,,,,,,,,,,,,,,,,,,,,,,,,,,,,,,,,,,,,None,,701.8026926599093,None,701.8026926599093,None,2022-03-04-12:09:27.088366,701.8143991999095,702.1190615999512,701.8143991999095,None,None,701.8143991999095,None,702.6193132599699,None,,,,22005,0002,2022_Mar_04_1157,localizer,2021.1.3,61.40258233292635,
block,scenes,scenes009.bmp,,,,,0,141,141,141,,,,,,,,,,,,,,,,,,,,,,,,,,,,,,,,,,,,,,,,,,None,,702.6193132599699,None,702.6193132599699,None,2022-03-04-12:09:27.903792,702.620083799935,702.9190533999354,702.620083799935,None,None,702.620083799935,None,703.4194394599297,None,,,,22005,0002,2022_Mar_04_1157,localizer,2021.1.3,61.40258233292635,
block,scenes,scenes003.bmp,,,,,0,142,142,142,,,,,,,,,,,,,,,,,,,,,,,,,,,,,,,,,,,,,,,,,,None,,703.4194394599297,None,703.4194394599297,None,2022-03-04-12:09:28.705749,703.4204036999727,703.7193995999405,703.4204036999727,703.4204036999727,None,703.4204036999727,703.4204036999727,704.2357218599761,None,,,,22005,0002,2022_Mar_04_1157,localizer,2021.1.3,61.40258233292635,
block,scenes,scenes068.bmp,,,,,0,143,143,143,,,,,,,,,,,,,,,,,,,,,,,,,,,,,,,,,,,,,,,,,,None,,704.2357218599761,None,704.2357218599761,None,2022-03-04-12:09:29.520509,704.2370850999141,704.5523287999677,704.2370850999141,None,None,704.2370850999141,None,705.0521389600005,None,,,,22005,0002,2022_Mar_04_1157,localizer,2021.1.3,61.40258233292635,
block,scenes,scenes073.bmp,,,,,0,144,144,144,,,,,,,,,,,,,,,,,,,,,,,,,,,,,,,,,,,,,,,,,,None,,705.0521389600005,None,705.0521389600005,None,2022-03-04-12:09:30.336621,705.0537786999485,705.3690586999292,705.0537786999485,None,None,705.0537786999485,None,705.8537694600061,None,,,,22005,0002,2022_Mar_04_1157,localizer,2021.1.3,61.40258233292635,
block,scenes,scenes052.bmp,,,,,0,145,145,145,,,,,,,,,,,,,,,,,,,,,,,,,,,,,,,,,,,,,,,,,,None,,705.8537694600061,None,705.8537694600061,None,2022-03-04-12:09:31.143247,705.8710288999137,706.185565099935,705.8710288999137,705.8710288999137,None,705.8710288999137,705.8710288999137,706.6693062599632,None,,,,22005,0002,2022_Mar_04_1157,localizer,2021.1.3,61.40258233292635,
block,scenes,scenes092.bmp,,,,,0,146,146,146,,,,,,,,,,,,,,,,,,,,,,,,,,,,,,,,,,,,,,,,,,None,,706.6693062599632,None,706.6693062599632,None,2022-03-04-12:09:31.953784,706.6699917999795,706.9692580999108,706.6699917999795,None,None,706.6699917999795,None,707.4695551599259,None,,,,22005,0002,2022_Mar_04_1157,localizer,2021.1.3,61.40258233292635,
block,scenes,scenes018.bmp,,,,,0,147,147,147,,,,,,,,,,,,,,,,,,,,,,,,,,,,,,,,,,,,,,,,,,None,,707.4695551599259,None,707.4695551599259,None,2022-03-04-12:09:32.757075,707.4790949999588,707.7856605999405,707.4790949999588,707.4790949999588,None,707.4790949999588,707.4790949999588,708.2857743599568,None,,,,22005,0002,2022_Mar_04_1157,localizer,2021.1.3,61.40258233292635,
block,scenes,scenes067.bmp,,,,,0,148,148,148,,,,,,,,,,,,,,,,,,,,,,,,,,,,,,,,,,,,,,,,,,None,,708.2857743599568,None,708.2857743599568,None,2022-03-04-12:09:33.570259,708.2954543000087,708.6024741999572,708.2954543000087,None,None,708.2954543000087,None,709.1028146599535,None,,,,22005,0002,2022_Mar_04_1157,localizer,2021.1.3,61.40258233292635,
block,scenes,scenes028.bmp,,,,,0,149,149,149,,,,,,,,,,,,,,,,,,,,,,,,,,,,,,,,,,,,,,,,,,None,,709.1028146599535,None,709.1028146599535,None,2022-03-04-12:09:34.387391,709.1034410999855,709.4026695999783,709.1034410999855,None,None,709.1034410999855,None,709.9027127599227,None,,,,22005,0002,2022_Mar_04_1157,localizer,2021.1.3,61.40258233292635,
block,scenes,scenes048.bmp,,,,,0,150,150,150,,,,,,,,,,,,,,,,,,,,,,,,,,,,,,,,,,,,,,,,,,None,,709.9027127599227,None,709.9027127599227,None,2022-03-04-12:09:35.189184,709.9207059999462,710.2357256999239,709.9207059999462,709.9207059999462,None,709.9207059999462,709.9207059999462,710.7192921599024,None,,,,22005,0002,2022_Mar_04_1157,localizer,2021.1.3,61.40258233292635,
block,scenes,scenes025.bmp,,,,,0,151,151,151,,,,,,,,,,,,,,,,,,,,,,,,,,,,,,,,,,,,,,,,,,None,,710.7192921599024,None,710.7192921599024,None,2022-03-04-12:09:36.003589,710.7200274999486,711.0191587998997,710.7200274999486,None,None,710.7200274999486,None,711.5193251599674,None,,,,22005,0002,2022_Mar_04_1157,localizer,2021.1.3,61.40258233292635,
block_end,scenes,scenes087.bmp,,,,,0,152,152,152,,,,,,,,,,,,,,,,,,,,,,,,,,,,,,,,,,,,,,,,,,None,,711.5193251599674,None,711.5193251599674,None,2022-03-04-12:09:36.805797,711.5312752999598,711.8360216999426,711.5312752999598,711.5312752999598,None,711.5312752999598,711.5312752999598,712.3358007599716,None,,,,22005,0002,2022_Mar_04_1157,localizer,2021.1.3,61.40258233292635,
block_start,objects,objects058.bmp,,,,,0,153,153,153,,,,,,,,,,,,,,,,,,,,,,,,,,,,,,,,,,,,,,,,,,t,1.8032301999628544,712.3358000000007,None,712.3358000000007,None,2022-03-04-12:09:39.463479,714.1921890999656,714.5027472999645,714.1921890999656,None,None,714.1921890999656,None,714.9858717599534,None,,,,22005,0002,2022_Mar_04_1157,localizer,2021.1.3,61.40258233292635,
block,objects,objects005.bmp,,,,,0,154,154,154,,,,,,,,,,,,,,,,,,,,,,,,,,,,,,,,,,,,,,,,,,None,,714.9858717599534,None,714.9858717599534,None,2022-03-04-12:09:40.270472,714.996034199954,715.302823200007,714.996034199954,None,None,714.996034199954,None,715.8028688599704,None,,,,22005,0002,2022_Mar_04_1157,localizer,2021.1.3,61.40258233292635,
block,objects,objects076.bmp,,,,,0,155,155,155,,,,,,,,,,,,,,,,,,,,,,,,,,,,,,,,,,,,,,,,,,None,,715.8028688599704,None,715.8028688599704,None,2022-03-04-12:09:41.087347,715.8136379999341,716.1191587999929,715.8136379999341,None,None,715.8136379999341,None,716.6191900599631,None,,,,22005,0002,2022_Mar_04_1157,localizer,2021.1.3,61.40258233292635,
block,objects,objects004.bmp,,,,,0,156,156,156,,,,,,,,,,,,,,,,,,,,,,,,,,,,,,,,,,,,,,,,,,None,,716.6191900599631,None,716.6191900599631,None,2022-03-04-12:09:41.903861,716.6292927999748,716.9358912999742,716.6292927999748,None,None,716.6292927999748,None,717.4360647599794,None,,,,22005,0002,2022_Mar_04_1157,localizer,2021.1.3,61.40258233292635,
block,objects,objects020.bmp,,,,,0,157,157,157,,,,,,,,,,,,,,,,,,,,,,,,,,,,,,,,,,,,,,,,,,None,,717.4360647599794,None,717.4360647599794,None,2022-03-04-12:09:42.720685,717.4368769999128,717.7526170999045,717.4368769999128,None,None,717.4368769999128,None,718.2360557599575,None,,,,22005,0002,2022_Mar_04_1157,localizer,2021.1.3,61.40258233292635,
block,objects,objects056.bmp,,,,,0,158,158,158,,,,,,,,,,,,,,,,,,,,,,,,,,,,,,,,,,,,,,,,,,None,,718.2360557599575,None,718.2360557599575,None,2022-03-04-12:09:43.522097,718.2366658999817,718.5359120999929,718.2366658999817,718.2366658999817,None,718.2366658999817,718.2366658999817,719.0360088599962,None,,,,22005,0002,2022_Mar_04_1157,localizer,2021.1.3,61.40258233292635,
block,objects,objects056.bmp,,,,,0,159,159,159,,,,,,,,,,,,,,,,,,,,,,,,,,,,,,,,,,,,,,,,,,None,,719.0360088599962,None,719.0360088599962,None,2022-03-04-12:09:44.322484,719.0370719999773,719.3365167999873,719.0370719999773,719.0370719999773,None,719.0370719999773,719.0370719999773,719.8366586599848,None,,,,22005,0002,2022_Mar_04_1157,localizer,2021.1.3,61.40258233292635,
block,objects,objects010.bmp,,,,,0,160,160,160,,,,,,,,,,,,,,,,,,,,,,,,,,,,,,,,,,,,,,,,,,None,,719.8366586599848,None,719.8366586599848,None,2022-03-04-12:09:45.124316,719.8507130999351,720.1524875999894,719.8507130999351,719.8507130999351,y,719.8507130999351,719.8507130999351,720.6524045599042,None,0.18919089995324612,,,22005,0002,2022_Mar_04_1157,localizer,2021.1.3,61.40258233292635,
block,objects,objects051.bmp,,,,,0,161,161,161,,,,,,,,,,,,,,,,,,,,,,,,,,,,,,,,,,,,,,,,,,None,,720.6524045599042,None,720.6524045599042,None,2022-03-04-12:09:45.936891,720.6536877999315,720.9692444999237,720.6536877999315,None,None,720.6536877999315,None,721.4537675599684,None,,,,22005,0002,2022_Mar_04_1157,localizer,2021.1.3,61.40258233292635,
block,objects,objects061.bmp,,,,,0,162,162,162,,,,,,,,,,,,,,,,,,,,,,,,,,,,,,,,,,,,,,,,,,None,,721.4537675599684,None,721.4537675599684,None,2022-03-04-12:09:46.743220,721.4588870999869,721.7690701999236,721.4588870999869,721.4588870999869,None,721.4588870999869,721.4588870999869,722.2714632599498,None,,,,22005,0002,2022_Mar_04_1157,localizer,2021.1.3,61.40258233292635,
block,objects,objects015.bmp,,,,,0,163,163,163,,,,,,,,,,,,,,,,,,,,,,,,,,,,,,,,,,,,,,,,,,None,,722.2714632599498,None,722.2714632599498,None,2022-03-04-12:09:47.560887,722.277861099923,722.5866620999295,722.277861099923,None,None,722.277861099923,None,723.0868382599554,None,,,,22005,0002,2022_Mar_04_1157,localizer,2021.1.3,61.40258233292635,
block,objects,objects024.bmp,,,,,0,164,164,164,,,,,,,,,,,,,,,,,,,,,,,,,,,,,,,,,,,,,,,,,,None,,723.0868382599554,None,723.0868382599554,None,2022-03-04-12:09:48.372337,723.0985163999721,723.4026158999186,723.0985163999721,None,None,723.0985163999721,None,723.9024627599981,None,,,,22005,0002,2022_Mar_04_1157,localizer,2021.1.3,61.40258233292635,
block,objects,objects017.bmp,,,,,0,165,165,165,,,,,,,,,,,,,,,,,,,,,,,,,,,,,,,,,,,,,,,,,,None,,723.9024627599981,None,723.9024627599981,None,2022-03-04-12:09:49.186943,723.9123852999182,724.219563899911,723.9123852999182,None,None,723.9123852999182,None,724.719379059982,None,,,,22005,0002,2022_Mar_04_1157,localizer,2021.1.3,61.40258233292635,
block,objects,objects029.bmp,,,,,0,166,166,166,,,,,,,,,,,,,,,,,,,,,,,,,,,,,,,,,,,,,,,,,,None,,724.719379059982,None,724.719379059982,None,2022-03-04-12:09:50.003917,724.7200204998953,725.0201320999768,724.7200204998953,None,None,724.7200204998953,None,725.519413159939,None,,,,22005,0002,2022_Mar_04_1157,localizer,2021.1.3,61.40258233292635,
block_end,objects,objects078.bmp,,,,,0,167,167,167,,,,,,,,,,,,,,,,,,,,,,,,,,,,,,,,,,,,,,,,,,None,,725.519413159939,None,725.519413159939,None,2022-03-04-12:09:50.805885,725.5322904000059,725.8367791000055,725.5322904000059,725.5322904000059,None,725.5322904000059,725.5322904000059,726.3367991600069,None,,,,22005,0002,2022_Mar_04_1157,localizer,2021.1.3,61.40258233292635,
block_start,faces,faces061.bmp,,,,,0,168,168,168,,,,,,,,,,,,,,,,,,,,,,,,,,,,,,,,,,,,,,,,,,t,1.8023689999245107,726.3366193999536,None,726.3366193999536,None,2022-03-04-12:09:53.455329,728.171560299932,728.4865591999842,728.171560299932,None,None,728.171560299932,None,728.9862351599265,None,,,,22005,0002,2022_Mar_04_1157,localizer,2021.1.3,61.40258233292635,
block,faces,faces034.bmp,,,,,0,169,169,169,,,,,,,,,,,,,,,,,,,,,,,,,,,,,,,,,,,,,,,,,,None,,728.9862351599265,None,728.9862351599265,None,2022-03-04-12:09:54.270714,728.9868417999242,729.2858694999013,728.9868417999242,None,None,728.9868417999242,None,729.7861206599162,None,,,,22005,0002,2022_Mar_04_1157,localizer,2021.1.3,61.40258233292635,
block,faces,faces071.bmp,,,,,0,170,170,170,,,,,,,,,,,,,,,,,,,,,,,,,,,,,,,,,,,,,,,,,,None,,729.7861206599162,None,729.7861206599162,None,2022-03-04-12:09:55.072122,729.7994590000017,730.1025484999409,729.7994590000017,729.7994590000017,None,729.7994590000017,729.7994590000017,730.602661959955,None,,,,22005,0002,2022_Mar_04_1157,localizer,2021.1.3,61.40258233292635,
block,faces,faces056.bmp,,,,,0,171,171,171,,,,,,,,,,,,,,,,,,,,,,,,,,,,,,,,,,,,,,,,,,None,,730.602661959955,None,730.602661959955,None,2022-03-04-12:09:55.887147,730.6039688999299,730.9192674999358,730.6039688999299,None,None,730.6039688999299,None,731.4193566599977,None,,,,22005,0002,2022_Mar_04_1157,localizer,2021.1.3,61.40258233292635,
block,faces,faces052.bmp,,,,,0,172,172,172,,,,,,,,,,,,,,,,,,,,,,,,,,,,,,,,,,,,,,,,,,None,,731.4193566599977,None,731.4193566599977,None,2022-03-04-12:09:56.704083,731.4202493999619,731.7200078999158,731.4202493999619,None,None,731.4202493999619,None,732.2199522599228,None,,,,22005,0002,2022_Mar_04_1157,localizer,2021.1.3,61.40258233292635,
block,faces,faces004.bmp,,,,,0,173,173,173,,,,,,,,,,,,,,,,,,,,,,,,,,,,,,,,,,,,,,,,,,None,,732.2199522599228,None,732.2199522599228,None,2022-03-04-12:09:57.507508,732.222875699983,732.5355023999,732.222875699983,732.222875699983,None,732.222875699983,732.222875699983,733.0226493599009,None,,,,22005,0002,2022_Mar_04_1157,localizer,2021.1.3,61.40258233292635,
block,faces,faces003.bmp,,,,,0,174,174,174,,,,,,,,,,,,,,,,,,,,,,,,,,,,,,,,,,,,,,,,,,None,,733.0226493599009,None,733.0226493599009,None,2022-03-04-12:09:58.311277,733.0365934999427,733.336034799926,733.0365934999427,733.0365934999427,None,733.0365934999427,733.0365934999427,733.8361361599643,None,,,,22005,0002,2022_Mar_04_1157,localizer,2021.1.3,61.40258233292635,
block,faces,faces043.bmp,,,,,0,175,175,175,,,,,,,,,,,,,,,,,,,,,,,,,,,,,,,,,,,,,,,,,,None,,733.8361361599643,None,733.8361361599643,None,2022-03-04-12:09:59.120618,733.8369087999454,734.1564042998943,733.8369087999454,None,None,733.8369087999454,None,734.6373911599046,None,,,,22005,0002,2022_Mar_04_1157,localizer,2021.1.3,61.40258233292635,
block,faces,faces028.bmp,,,,,0,176,176,176,,,,,,,,,,,,,,,,,,,,,,,,,,,,,,,,,,,,,,,,,,None,,734.6373911599046,None,734.6373911599046,None,2022-03-04-12:09:59.928020,734.6552914999193,734.969274199917,734.6552914999193,734.6552914999193,None,734.6552914999193,734.6552914999193,735.4527448599808,None,,,,22005,0002,2022_Mar_04_1157,localizer,2021.1.3,61.40258233292635,
block,faces,faces064.bmp,,,,,0,177,177,177,,,,,,,,,,,,,,,,,,,,,,,,,,,,,,,,,,,,,,,,,,None,,735.4527448599808,None,735.4527448599808,None,2022-03-04-12:10:00.737459,735.4624253999209,735.7697512999875,735.4624253999209,None,None,735.4624253999209,None,736.2693529599462,None,,,,22005,0002,2022_Mar_04_1157,localizer,2021.1.3,61.40258233292635,
block,faces,faces029.bmp,,,,,0,178,178,178,,,,,,,,,,,,,,,,,,,,,,,,,,,,,,,,,,,,,,,,,,None,,736.2693529599462,None,736.2693529599462,None,2022-03-04-12:10:01.554055,736.2808437999338,736.5859594999347,736.2808437999338,None,None,736.2808437999338,None,737.0759713599807,None,,,,22005,0002,2022_Mar_04_1157,localizer,2021.1.3,61.40258233292635,
block,faces,faces033.bmp,,,,,0,179,179,179,,,,,,,,,,,,,,,,,,,,,,,,,,,,,,,,,,,,,,,,,,None,,737.0759713599807,None,737.0759713599807,None,2022-03-04-12:10:02.365338,737.0812024999177,737.3858617999358,737.0812024999177,None,None,737.0812024999177,None,737.8864807599573,None,,,,22005,0002,2022_Mar_04_1157,localizer,2021.1.3,61.40258233292635,
block,faces,faces035.bmp,,,,,0,180,180,180,,,,,,,,,,,,,,,,,,,,,,,,,,,,,,,,,,,,,,,,,,None,,737.8864807599573,None,737.8864807599573,None,2022-03-04-12:10:03.172136,737.8868731999537,738.2024934999645,737.8868731999537,None,None,737.8868731999537,None,738.686883059924,None,,,,22005,0002,2022_Mar_04_1157,localizer,2021.1.3,61.40258233292635,
block,faces,faces045.bmp,,,,,0,181,181,181,,,,,,,,,,,,,,,,,,,,,,,,,,,,,,,,,,,,,,,,,,None,,738.686883059924,None,738.686883059924,None,2022-03-04-12:10:03.974541,738.6898717998993,738.9923596999142,738.6898717998993,738.6898717998993,None,738.6898717998993,738.6898717998993,739.5028588599641,None,,,,22005,0002,2022_Mar_04_1157,localizer,2021.1.3,61.40258233292635,
block_end,faces,faces080.bmp,,,,,0,182,182,182,,,,,,,,,,,,,,,,,,,,,,,,,,,,,,,,,,,,,,,,,,None,,739.5028588599641,None,739.5028588599641,None,2022-03-04-12:10:04.787480,739.5177030999912,739.8193742999574,739.5177030999912,None,None,739.5177030999912,None,740.3215391599922,None,,,,22005,0002,2022_Mar_04_1157,localizer,2021.1.3,61.40258233292635,
block_start,scenes,scenes030.bmp,,,,,0,183,183,183,,,,,,,,,,,,,,,,,,,,,,,,,,,,,,,,,,,,,,,,,,t,3.8159865000052378,740.3230138999643,None,740.3230138999643,None,2022-03-04-12:10:09.455131,744.1708836999023,744.4861791000003,744.1708836999023,None,None,744.1708836999023,None,744.9861713599064,None,,,,22005,0002,2022_Mar_04_1157,localizer,2021.1.3,61.40258233292635,
block,scenes,scenes089.bmp,,,,,0,184,184,184,,,,,,,,,,,,,,,,,,,,,,,,,,,,,,,,,,,,,,,,,,None,,744.9861713599064,None,744.9861713599064,None,2022-03-04-12:10:10.270844,744.9982552999863,745.3025645999005,744.9982552999863,None,None,744.9982552999863,None,745.8030315599287,None,,,,22005,0002,2022_Mar_04_1157,localizer,2021.1.3,61.40258233292635,
block,scenes,scenes066.bmp,,,,,0,185,185,185,,,,,,,,,,,,,,,,,,,,,,,,,,,,,,,,,,,,,,,,,,None,,745.8030315599287,None,745.8030315599287,None,2022-03-04-12:10:11.087509,745.8135248000035,746.125953199924,745.8135248000035,None,None,745.8135248000035,None,746.6194971599732,None,,,,22005,0002,2022_Mar_04_1157,localizer,2021.1.3,61.40258233292635,
block,scenes,scenes035.bmp,,,,,0,186,186,186,,,,,,,,,,,,,,,,,,,,,,,,,,,,,,,,,,,,,,,,,,None,,746.6194971599732,None,746.6194971599732,None,2022-03-04-12:10:11.903978,746.6296242999379,746.9361201999709,746.6296242999379,None,None,746.6296242999379,None,747.4359867599676,None,,,,22005,0002,2022_Mar_04_1157,localizer,2021.1.3,61.40258233292635,
block,scenes,scenes088.bmp,,,,,0,187,187,187,,,,,,,,,,,,,,,,,,,,,,,,,,,,,,,,,,,,,,,,,,None,,747.4359867599676,None,747.4359867599676,None,2022-03-04-12:10:12.720467,747.4369389999192,747.752609499963,747.4369389999192,None,None,747.4369389999192,None,748.2363016599672,None,,,,22005,0002,2022_Mar_04_1157,localizer,2021.1.3,61.40258233292635,
block,scenes,scenes007.bmp,,,,,0,188,188,188,,,,,,,,,,,,,,,,,,,,,,,,,,,,,,,,,,,,,,,,,,None,,748.2363016599672,None,748.2363016599672,None,2022-03-04-12:10:13.522774,748.2530717999907,748.5526956999674,748.2530717999907,748.2530717999907,None,748.2530717999907,748.2530717999907,749.0549884599284,None,,,,22005,0002,2022_Mar_04_1157,localizer,2021.1.3,61.40258233292635,
block,scenes,scenes040.bmp,,,,,0,189,189,189,,,,,,,,,,,,,,,,,,,,,,,,,,,,,,,,,,,,,,,,,,None,,749.0549884599284,None,749.0549884599284,None,2022-03-04-12:10:14.342561,749.0632308999775,749.369838399929,749.0632308999775,None,None,749.0632308999775,None,749.875798159989,None,,,,22005,0002,2022_Mar_04_1157,localizer,2021.1.3,61.40258233292635,
block,scenes,scenes087.bmp,,,,,0,190,190,190,,,,,,,,,,,,,,,,,,,,,,,,,,,,,,,,,,,,,,,,,,None,,749.875798159989,None,749.875798159989,None,2022-03-04-12:10:15.168543,749.8858025999507,750.186187199899,749.8858025999507,None,None,749.8858025999507,None,750.6857126599759,None,,,,22005,0002,2022_Mar_04_1157,localizer,2021.1.3,61.40258233292635,
block,scenes,scenes005.bmp,,,,,0,191,191,191,,,,,,,,,,,,,,,,,,,,,,,,,,,,,,,,,,,,,,,,,,None,,750.6857126599759,None,750.6857126599759,None,2022-03-04-12:10:15.970450,750.6869158999762,750.9867288999958,750.6869158999762,None,None,750.6869158999762,None,751.5027890600147,None,,,,22005,0002,2022_Mar_04_1157,localizer,2021.1.3,61.40258233292635,
block,scenes,scenes051.bmp,,,,,0,192,192,192,,,,,,,,,,,,,,,,,,,,,,,,,,,,,,,,,,,,,,,,,,None,,751.5027890600147,None,751.5027890600147,None,2022-03-04-12:10:16.787277,751.5037849999499,751.8189146999503,751.5037849999499,None,None,751.5037849999499,None,752.3033934600069,None,,,,22005,0002,2022_Mar_04_1157,localizer,2021.1.3,61.40258233292635,
block,scenes,scenes075.bmp,,,,,0,193,193,193,,,,,,,,,,,,,,,,,,,,,,,,,,,,,,,,,,,,,,,,,,None,,752.3033934600069,None,752.3033934600069,None,2022-03-04-12:10:17.590935,752.3064340999117,752.6192931999685,752.3064340999117,752.3064340999117,None,752.3064340999117,752.3064340999117,753.1190794599358,None,,,,22005,0002,2022_Mar_04_1157,localizer,2021.1.3,61.40258233292635,
block,scenes,scenes090.bmp,,,,,0,194,194,194,,,,,,,,,,,,,,,,,,,,,,,,,,,,,,,,,,,,,,,,,,None,,753.1190794599358,None,753.1190794599358,None,2022-03-04-12:10:18.403566,753.1296534999274,753.4357953999424,753.1296534999274,None,None,753.1296534999274,None,753.9368615599931,None,,,,22005,0002,2022_Mar_04_1157,localizer,2021.1.3,61.40258233292635,
block,scenes,scenes013.bmp,,,,,0,195,195,195,,,,,,,,,,,,,,,,,,,,,,,,,,,,,,,,,,,,,,,,,,None,,753.9368615599931,None,753.9368615599931,None,2022-03-04-12:10:19.222327,753.9383579998976,754.2393223999534,753.9383579998976,None,None,753.9383579998976,None,754.75271545992,None,,,,22005,0002,2022_Mar_04_1157,localizer,2021.1.3,61.40258233292635,
block,scenes,scenes013.bmp,,,,,0,196,196,196,,,,,,,,,,,,,,,,,,,,,,,,,,,,,,,,,,,,,,,,,,None,,754.75271545992,None,754.75271545992,None,2022-03-04-12:10:20.037201,754.7538252999075,755.0692219999619,754.7538252999075,None,y,754.7538252999075,None,755.5595147599349,None,0.5440953000215814,,,22005,0002,2022_Mar_04_1157,localizer,2021.1.3,61.40258233292635,
block_end,scenes,scenes014.bmp,,,,,0,197,197,197,,,,,,,,,,,,,,,,,,,,,,,,,,,,,,,,,,,,,,,,,,None,,755.5595147599349,None,755.5595147599349,None,2022-03-04-12:10:20.849872,755.5669374999125,755.8699591999175,755.5669374999125,None,None,755.5669374999125,None,756.3702514600125,None,,,,22005,0002,2022_Mar_04_1157,localizer,2021.1.3,61.40258233292635,
block_start,objects,objects057.bmp,,,,,0,198,198,198,,,,,,,,,,,,,,,,,,,,,,,,,,,,,,,,,,,,,,,,,,t,1.7690367000177503,756.369978099945,None,756.369978099945,None,2022-03-04-12:10:23.454311,758.1704359999858,758.4698895999463,758.1704359999858,None,None,758.1704359999858,None,758.9698491599527,None,,,,22005,0002,2022_Mar_04_1157,localizer,2021.1.3,61.40258233292635,
block,objects,objects001.bmp,,,,,0,199,199,199,,,,,,,,,,,,,,,,,,,,,,,,,,,,,,,,,,,,,,,,,,None,,758.9698491599527,None,758.9698491599527,None,2022-03-04-12:10:24.257529,758.9727036999539,759.2865292999195,758.9727036999539,758.9727036999539,None,758.9727036999539,758.9727036999539,759.7862490599625,None,,,,22005,0002,2022_Mar_04_1157,localizer,2021.1.3,61.40258233292635,
block,objects,objects003.bmp,,,,,0,200,200,200,,,,,,,,,,,,,,,,,,,,,,,,,,,,,,,,,,,,,,,,,,None,,759.7862490599625,None,759.7862490599625,None,2022-03-04-12:10:25.070695,759.7872893000022,760.087424499914,759.7872893000022,None,None,759.7872893000022,None,760.5875696599367,None,,,,22005,0002,2022_Mar_04_1157,localizer,2021.1.3,61.40258233292635,
block,objects,objects006.bmp,,,,,0,201,201,201,,,,,,,,,,,,,,,,,,,,,,,,,,,,,,,,,,,,,,,,,,None,,760.5875696599367,None,760.5875696599367,None,2022-03-04-12:10:25.876549,760.5919311000034,760.9035067999503,760.5919311000034,760.5919311000034,None,760.5919311000034,760.5919311000034,761.4030015599099,None,,,,22005,0002,2022_Mar_04_1157,localizer,2021.1.3,61.40258233292635,
block,objects,objects024.bmp,,,,,0,202,202,202,,,,,,,,,,,,,,,,,,,,,,,,,,,,,,,,,,,,,,,,,,None,,761.4030015599099,None,761.4030015599099,None,2022-03-04-12:10:26.687477,761.4036319999723,761.7027986999601,761.4036319999723,None,None,761.4036319999723,None,762.2193745599477,None,,,,22005,0002,2022_Mar_04_1157,localizer,2021.1.3,61.40258233292635,
block,objects,objects054.bmp,,,,,0,203,203,203,,,,,,,,,,,,,,,,,,,,,,,,,,,,,,,,,,,,,,,,,,None,,762.2193745599477,None,762.2193745599477,None,2022-03-04-12:10:27.504371,762.2285078999121,762.5359834999545,762.2285078999121,None,None,762.2285078999121,None,763.0361672599217,None,,,,22005,0002,2022_Mar_04_1157,localizer,2021.1.3,61.40258233292635,
block,objects,objects084.bmp,,,,,0,204,204,204,,,,,,,,,,,,,,,,,,,,,,,,,,,,,,,,,,,,,,,,,,None,,763.0361672599217,None,763.0361672599217,None,2022-03-04-12:10:28.320879,763.0369765999494,763.3369323000079,763.0369765999494,None,None,763.0369765999494,None,763.8368011599057,None,,,,22005,0002,2022_Mar_04_1157,localizer,2021.1.3,61.40258233292635,
block,objects,objects031.bmp,,,,,0,205,205,205,,,,,,,,,,,,,,,,,,,,,,,,,,,,,,,,,,,,,,,,,,None,,763.8368011599057,None,763.8368011599057,None,2022-03-04-12:10:29.124480,763.8399242999731,764.1523854999105,763.8399242999731,763.8399242999731,None,763.8399242999731,763.8399242999731,764.653150859999,None,,,,22005,0002,2022_Mar_04_1157,localizer,2021.1.3,61.40258233292635,
block,objects,objects043.bmp,,,,,0,206,206,206,,,,,,,,,,,,,,,,,,,,,,,,,,,,,,,,,,,,,,,,,,None,,764.653150859999,None,764.653150859999,None,2022-03-04-12:10:29.937628,764.6637603999116,764.9694001999451,764.6637603999116,None,None,764.6637603999116,None,765.4706989599042,None,,,,22005,0002,2022_Mar_04_1157,localizer,2021.1.3,61.40258233292635,
block,objects,objects015.bmp,,,,,0,207,207,207,,,,,,,,,,,,,,,,,,,,,,,,,,,,,,,,,,,,,,,,,,None,,765.4706989599042,None,765.4706989599042,None,2022-03-04-12:10:30.757332,765.4729337999597,765.7862416999415,765.4729337999597,None,None,765.4729337999597,None,766.2860814599669,None,,,,22005,0002,2022_Mar_04_1157,localizer,2021.1.3,61.40258233292635,
block,objects,objects038.bmp,,,,,0,208,208,208,,,,,,,,,,,,,,,,,,,,,,,,,,,,,,,,,,,,,,,,,,None,,766.2860814599669,None,766.2860814599669,None,2022-03-04-12:10:31.570735,766.2954742999282,766.603371599922,766.2954742999282,None,None,766.2954742999282,None,767.1035255600116,None,,,,22005,0002,2022_Mar_04_1157,localizer,2021.1.3,61.40258233292635,
block,objects,objects062.bmp,,,,,0,209,209,209,,,,,,,,,,,,,,,,,,,,,,,,,,,,,,,,,,,,,,,,,,None,,767.1035255600116,None,767.1035255600116,None,2022-03-04-12:10:32.387995,767.1122092999285,767.4193621999584,767.1122092999285,None,None,767.1122092999285,None,767.9197250600089,None,,,,22005,0002,2022_Mar_04_1157,localizer,2021.1.3,61.40258233292635,
block,objects,objects030.bmp,,,,,0,210,210,210,,,,,,,,,,,,,,,,,,,,,,,,,,,,,,,,,,,,,,,,,,None,,767.9197250600089,None,767.9197250600089,None,2022-03-04-12:10:33.204436,767.920231499942,768.2201570000034,767.920231499942,None,None,767.920231499942,None,768.7193933599744,None,,,,22005,0002,2022_Mar_04_1157,localizer,2021.1.3,61.40258233292635,
block,objects,objects075.bmp,,,,,0,211,211,211,,,,,,,,,,,,,,,,,,,,,,,,,,,,,,,,,,,,,,,,,,None,,768.7193933599744,None,768.7193933599744,None,2022-03-04-12:10:34.005802,768.7203256000066,769.0193517999724,768.7203256000066,768.7203256000066,None,768.7203256000066,768.7203256000066,769.5194625599659,None,,,,22005,0002,2022_Mar_04_1157,localizer,2021.1.3,61.40258233292635,
block_end,objects,objects041.bmp,,,,,0,212,212,212,,,,,,,,,,,,,,,,,,,,,,,,,,,,,,,,,,,,,,,,,,None,,769.5194625599659,None,769.5194625599659,None,2022-03-04-12:10:34.806935,769.522097799927,769.8364896998974,769.522097799927,769.522097799927,None,769.522097799927,769.522097799927,770.3364674599259,None,,,,22005,0002,2022_Mar_04_1157,localizer,2021.1.3,61.40258233292635,
block_start,scrambled,scrambled020.bmp,,,,,0,213,213,213,,,,,,,,,,,,,,,,,,,,,,,,,,,,,,,,,,,,,,,,,,t,1.8026173000689596,770.3363668998936,None,770.3363668998936,None,2022-03-04-12:10:37.453297,772.1707643999252,772.4862453999231,772.1707643999252,None,None,772.1707643999252,None,772.9858376599266,None,,,,22005,0002,2022_Mar_04_1157,localizer,2021.1.3,61.40258233292635,
block,scrambled,scrambled070.bmp,,,,,0,214,214,214,,,,,,,,,,,,,,,,,,,,,,,,,,,,,,,,,,,,,,,,,,None,,772.9858376599266,None,772.9858376599266,None,2022-03-04-12:10:38.270333,772.9944726999383,773.3033281998942,772.9944726999383,None,None,772.9944726999383,None,773.8031218599178,None,,,,22005,0002,2022_Mar_04_1157,localizer,2021.1.3,61.40258233292635,
block,scrambled,scrambled078.bmp,,,,,0,215,215,215,,,,,,,,,,,,,,,,,,,,,,,,,,,,,,,,,,,,,,,,,,None,,773.8031218599178,None,773.8031218599178,None,2022-03-04-12:10:39.087602,773.8126475999597,774.1194052000064,773.8126475999597,None,None,773.8126475999597,None,774.619768259942,None,,,,22005,0002,2022_Mar_04_1157,localizer,2021.1.3,61.40258233292635,
block,scrambled,scrambled086.bmp,,,,,0,216,216,216,,,,,,,,,,,,,,,,,,,,,,,,,,,,,,,,,,,,,,,,,,None,,774.619768259942,None,774.619768259942,None,2022-03-04-12:10:39.904657,774.6296091999393,774.9363276999211,774.6296091999393,None,None,774.6296091999393,None,775.4365620599244,None,,,,22005,0002,2022_Mar_04_1157,localizer,2021.1.3,61.40258233292635,
block,scrambled,scrambled074.bmp,,,,,0,217,217,217,,,,,,,,,,,,,,,,,,,,,,,,,,,,,,,,,,,,,,,,,,None,,775.4365620599244,None,775.4365620599244,None,2022-03-04-12:10:40.721244,775.4470086999936,775.7549718999071,775.4470086999936,None,None,775.4470086999936,None,776.2526523599051,None,,,,22005,0002,2022_Mar_04_1157,localizer,2021.1.3,61.40258233292635,
block,scrambled,scrambled005.bmp,,,,,0,218,218,218,,,,,,,,,,,,,,,,,,,,,,,,,,,,,,,,,,,,,,,,,,None,,776.2526523599051,None,776.2526523599051,None,2022-03-04-12:10:41.537095,776.2538652999792,776.5696005999343,776.2538652999792,None,None,776.2538652999792,None,777.0538642599829,None,,,,22005,0002,2022_Mar_04_1157,localizer,2021.1.3,61.40258233292635,
block,scrambled,scrambled032.bmp,,,,,0,219,219,219,,,,,,,,,,,,,,,,,,,,,,,,,,,,,,,,,,,,,,,,,,None,,777.0538642599829,None,777.0538642599829,None,2022-03-04-12:10:42.340216,777.05507449992,777.3702395999571,777.05507449992,777.05507449992,None,777.05507449992,777.05507449992,777.8704013599897,None,,,,22005,0002,2022_Mar_04_1157,localizer,2021.1.3,61.40258233292635,
block,scrambled,scrambled022.bmp,,,,,0,220,220,220,,,,,,,,,,,,,,,,,,,,,,,,,,,,,,,,,,,,,,,,,,None,,777.8704013599897,None,777.8704013599897,None,2022-03-04-12:10:43.156027,777.8722521999152,778.1698252999922,777.8722521999152,None,None,777.8722521999152,None,778.6865998599794,None,,,,22005,0002,2022_Mar_04_1157,localizer,2021.1.3,61.40258233292635,
block,scrambled,scrambled003.bmp,,,,,0,221,221,221,,,,,,,,,,,,,,,,,,,,,,,,,,,,,,,,,,,,,,,,,,None,,778.6865998599794,None,778.6865998599794,None,2022-03-04-12:10:43.972268,778.687327099964,778.9866203999845,778.687327099964,None,None,778.687327099964,None,779.4871765599935,None,,,,22005,0002,2022_Mar_04_1157,localizer,2021.1.3,61.40258233292635,
block,scrambled,scrambled055.bmp,,,,,0,222,222,222,,,,,,,,,,,,,,,,,,,,,,,,,,,,,,,,,,,,,,,,,,None,,779.4871765599935,None,779.4871765599935,None,2022-03-04-12:10:44.774611,779.5011510999175,779.8032502999995,779.5011510999175,779.5011510999175,None,779.5011510999175,779.5011510999175,780.302933759999,None,,,,22005,0002,2022_Mar_04_1157,localizer,2021.1.3,61.40258233292635,
block,scrambled,scrambled035.bmp,,,,,0,223,223,223,,,,,,,,,,,,,,,,,,,,,,,,,,,,,,,,,,,,,,,,,,None,,780.302933759999,None,780.302933759999,None,2022-03-04-12:10:45.587416,780.303704299964,780.6029025999596,780.303704299964,None,None,780.303704299964,None,781.1029044599388,None,,,,22005,0002,2022_Mar_04_1157,localizer,2021.1.3,61.40258233292635,
block,scrambled,scrambled088.bmp,,,,,0,224,224,224,,,,,,,,,,,,,,,,,,,,,,,,,,,,,,,,,,,,,,,,,,None,,781.1029044599388,None,781.1029044599388,None,2022-03-04-12:10:46.389379,781.1040367999813,781.419583199895,781.1040367999813,781.1040367999813,None,781.1040367999813,781.1040367999813,781.9035927599878,None,,,,22005,0002,2022_Mar_04_1157,localizer,2021.1.3,61.40258233292635,
block,scrambled,scrambled053.bmp,,,,,0,225,225,225,,,,,,,,,,,,,,,,,,,,,,,,,,,,,,,,,,,,,,,,,,None,,781.9035927599878,None,781.9035927599878,None,2022-03-04-12:10:47.192036,781.9074274000013,782.2202984999167,781.9074274000013,781.9074274000013,None,781.9074274000013,781.9074274000013,782.7200988599914,None,,,,22005,0002,2022_Mar_04_1157,localizer,2021.1.3,61.40258233292635,
block,scrambled,scrambled061.bmp,,,,,0,226,226,226,,,,,,,,,,,,,,,,,,,,,,,,,,,,,,,,,,,,,,,,,,None,,782.7200988599914,None,782.7200988599914,None,2022-03-04-12:10:48.005776,782.7207390998956,783.0200070999563,782.7207390998956,None,None,782.7207390998956,None,783.5200943600037,None,,,,22005,0002,2022_Mar_04_1157,localizer,2021.1.3,61.40258233292635,
block_end,scrambled,scrambled081.bmp,,,,,0,227,227,227,,,,,,,,,,,,,,,,,,,,,,,,,,,,,,,,,,,,,,,,,,None,,783.5200943600037,None,783.5200943600037,None,2022-03-04-12:10:48.806746,783.5335562999826,783.8361898999428,783.5335562999826,783.5335562999826,None,783.5335562999826,783.5335562999826,784.3364858599496,None,,,,22005,0002,2022_Mar_04_1157,localizer,2021.1.3,61.40258233292635,
null_block,null_block,null_block.bmp,,,,,0,228,228,228,,,,,,,,,,,,,,,,,,,,,,,,,,,,,,,,,,,,,,,,,,t,1.8027651999145746,784.3363189999945,None,784.3363189999945,None,2022-03-04-12:10:51.454537,786.1698154599987,None,786.1698154599987,None,None,786.1698154599987,None,786.1735005999217,None,,,,22005,0002,2022_Mar_04_1157,localizer,2021.1.3,61.40258233292635,
block_start,faces,faces038.bmp,,,,,0,229,229,229,,,,,,,,,,,,,,,,,,,,,,,,,,,,,,,,,,,,,,,,,,t,1.9529570000013337,798.1861717998981,None,798.1861717998981,None,2022-03-04-12:11:05.455564,800.1893411999336,800.5029479999794,800.1893411999336,None,None,800.1893411999336,None,800.9863143599475,None,,,,22005,0002,2022_Mar_04_1157,localizer,2021.1.3,61.40258233292635,
block,faces,faces066.bmp,,,,,0,230,230,230,,,,,,,,,,,,,,,,,,,,,,,,,,,,,,,,,,,,,,,,,,None,,800.9863143599475,None,800.9863143599475,None,2022-03-04-12:11:06.270992,800.9961201999104,801.3029518999392,800.9961201999104,None,None,800.9961201999104,None,801.8033880599658,None,,,,22005,0002,2022_Mar_04_1157,localizer,2021.1.3,61.40258233292635,
block,faces,faces031.bmp,,,,,0,231,231,231,,,,,,,,,,,,,,,,,,,,,,,,,,,,,,,,,,,,,,,,,,None,,801.8033880599658,None,801.8033880599658,None,2022-03-04-12:11:07.088118,801.8042054999387,802.1193461999064,801.8042054999387,None,None,801.8042054999387,None,802.6041935599758,None,,,,22005,0002,2022_Mar_04_1157,localizer,2021.1.3,61.40258233292635,
block,faces,faces006.bmp,,,,,0,232,232,232,,,,,,,,,,,,,,,,,,,,,,,,,,,,,,,,,,,,,,,,,,None,,802.6041935599758,None,802.6041935599758,None,2022-03-04-12:11:07.892673,802.6083520998945,802.9202985999873,802.6083520998945,802.6083520998945,None,802.6083520998945,802.6083520998945,803.4199394600116,None,,,,22005,0002,2022_Mar_04_1157,localizer,2021.1.3,61.40258233292635,
block,faces,faces059.bmp,,,,,0,233,233,233,,,,,,,,,,,,,,,,,,,,,,,,,,,,,,,,,,,,,,,,,,None,,803.4199394600116,None,803.4199394600116,None,2022-03-04-12:11:08.704624,803.420731299906,803.7199516999535,803.420731299906,None,None,803.420731299906,None,804.2204986600088,None,,,,22005,0002,2022_Mar_04_1157,localizer,2021.1.3,61.40258233292635,
block,faces,faces041.bmp,,,,,0,234,234,234,,,,,,,,,,,,,,,,,,,,,,,,,,,,,,,,,,,,,,,,,,None,,804.2204986600088,None,804.2204986600088,None,2022-03-04-12:11:09.508042,804.2235188999912,804.5366762999911,804.2235188999912,804.2235188999912,None,804.2235188999912,804.2235188999912,805.0377370600006,None,,,,22005,0002,2022_Mar_04_1157,localizer,2021.1.3,61.40258233292635,
block,faces,faces046.bmp,,,,,0,235,235,235,,,,,,,,,,,,,,,,,,,,,,,,,,,,,,,,,,,,,,,,,,None,,805.0377370600006,None,805.0377370600006,None,2022-03-04-12:11:10.325117,805.0564156000037,805.3699441999197,805.0564156000037,None,None,805.0564156000037,None,805.8598272599163,None,,,,22005,0002,2022_Mar_04_1157,localizer,2021.1.3,61.40258233292635,
block,faces,faces052.bmp,,,,,0,236,236,236,,,,,,,,,,,,,,,,,,,,,,,,,,,,,,,,,,,,,,,,,,None,,805.8598272599163,None,805.8598272599163,None,2022-03-04-12:11:11.148234,805.8641153000062,806.1703988999361,805.8641153000062,None,None,805.8641153000062,None,806.6694653600105,None,,,,22005,0002,2022_Mar_04_1157,localizer,2021.1.3,61.40258233292635,
block,faces,faces071.bmp,,,,,0,237,237,237,,,,,,,,,,,,,,,,,,,,,,,,,,,,,,,,,,,,,,,,,,None,,806.6694653600105,None,806.6694653600105,None,2022-03-04-12:11:11.953951,806.6707695999648,806.9868952999823,806.6707695999648,None,None,806.6707695999648,None,807.4712005599984,None,,,,22005,0002,2022_Mar_04_1157,localizer,2021.1.3,61.40258233292635,
block,faces,faces049.bmp,,,,,0,238,238,238,,,,,,,,,,,,,,,,,,,,,,,,,,,,,,,,,,,,,,,,,,None,,807.4712005599984,None,807.4712005599984,None,2022-03-04-12:11:12.761649,807.477187499986,807.7863253999967,807.477187499986,807.477187499986,None,807.477187499986,807.477187499986,808.287806459947,None,,,,22005,0002,2022_Mar_04_1157,localizer,2021.1.3,61.40258233292635,
block,faces,faces018.bmp,,,,,0,239,239,239,,,,,,,,,,,,,,,,,,,,,,,,,,,,,,,,,,,,,,,,,,None,,808.287806459947,None,808.287806459947,None,2022-03-04-12:11:13.573448,808.2900235999841,808.6036102999933,808.2900235999841,None,None,808.2900235999841,None,809.1034981599194,None,,,,22005,0002,2022_Mar_04_1157,localizer,2021.1.3,61.40258233292635,
block,faces,faces065.bmp,,,,,0,240,240,240,,,,,,,,,,,,,,,,,,,,,,,,,,,,,,,,,,,,,,,,,,None,,809.1034981599194,None,809.1034981599194,None,2022-03-04-12:11:14.388171,809.1043867999688,809.4195949999848,809.1043867999688,None,None,809.1043867999688,None,809.9036405600025,None,,,,22005,0002,2022_Mar_04_1157,localizer,2021.1.3,61.40258233292635,
block,faces,faces072.bmp,,,,,0,241,241,241,,,,,,,,,,,,,,,,,,,,,,,,,,,,,,,,,,,,,,,,,,None,,809.9036405600025,None,809.9036405600025,None,2022-03-04-12:11:15.191252,809.9167233000044,810.2198154999642,809.9167233000044,809.9167233000044,None,809.9167233000044,809.9167233000044,810.7199283599737,None,,,,22005,0002,2022_Mar_04_1157,localizer,2021.1.3,61.40258233292635,
block,faces,faces035.bmp,,,,,0,242,242,242,,,,,,,,,,,,,,,,,,,,,,,,,,,,,,,,,,,,,,,,,,None,,810.7199283599737,None,810.7199283599737,None,2022-03-04-12:11:16.004564,810.7203656999627,811.0200155999046,810.7203656999627,None,None,810.7203656999627,None,811.519984759984,None,,,,22005,0002,2022_Mar_04_1157,localizer,2021.1.3,61.40258233292635,
block_end,faces,faces045.bmp,,,,,0,243,243,243,,,,,,,,,,,,,,,,,,,,,,,,,,,,,,,,,,,,,,,,,,None,,811.519984759984,None,811.519984759984,None,2022-03-04-12:11:16.806653,811.5225373998983,811.8365312999813,811.5225373998983,811.5225373998983,None,811.5225373998983,811.5225373998983,812.3371926599764,None,,,,22005,0002,2022_Mar_04_1157,localizer,2021.1.3,61.40258233292635,
,,,,,,,,,,,,,,,,,,,,,,,,,,,,,,,,,,,,,,,,,,,,,,,,,,,,,,,,,,,,,,,,,,,,,812.336097399937,None,,,,,,,
