block_type,condition,img_name,Button.thisRepN,Button.thisTrialN,Button.thisN,Button.thisIndex,trials.thisRepN,trials.thisTrialN,trials.thisN,trials.thisIndex,Ready_experimenter_text.started,Ready_experimenter_text.stopped,Ready_experimenter_resp.keys,Ready_experimenter_resp.rt,Ready_experimenter_resp.started,Ready_experimenter_resp.stopped,Alignment_background.started,Alignment_background.stopped,Alignment_image.started,Alignment_image.stopped,Alignment_resp.keys,Alignment_resp.rt,Alignment_resp.started,Alignment_resp.stopped,Button_text.started,Button_text.stopped,Index_text.started,Index_text.stopped,Index_resp.keys,Index_resp.rt,Index_resp.started,Index_resp.stopped,Middle_text.started,Middle_text.stopped,Middle_resp.keys,Middle_resp.rt,Middle_resp.started,Middle_resp.stopped,Repeat_text.started,Repeat_text.stopped,Repeat_resp.keys,Repeat_resp.corr,Repeat_resp.rt,Repeat_resp.started,Repeat_resp.stopped,instruction_text.started,instruction_text.stopped,key_resp.keys,key_resp.rt,key_resp.started,key_resp.stopped,scanner_t.keys,scanner_t.rt,scanner_t.started,scanner_t.stopped,fixation_wait_for_t.started,fixation_wait_for_t.stopped,real_timestamp_trial_start,image.started,image.stopped,fixation.started,fixation.stopped,repeat_response.keys,repeat_response.started,repeat_response.stopped,fixation_null.started,fixation_null.stopped,repeat_response.rt,end_text.started,end_text.stopped,participant,run,date,expName,psychopyVersion,frameRate,
,,,,,,,,,,,9.284786200034432,None,return,60.75278330000583,9.284786200034432,None,,,,,,,,,,,,,,,,,,,,,,,,,,,,,,,,,,,,,,,,,,,,,,,,,,,,,,,11012,0001,2022_Mar_07_1129,localizer,2021.1.3,59.27857968512602,
,,,,,,,,,,,,,,,,,70.08552239998244,None,70.08552239998244,None,return,8.545640800031833,70.08552239998244,None,,,,,,,,,,,,,,,,,,,,,,,,,,,,,,,,,,,,,,,,,,,,,,,11012,0001,2022_Mar_07_1129,localizer,2021.1.3,59.27857968512602,
,,,0,0,0,0,,,,,,,,,,,,,,,,,,,78.6576791999396,None,79.66370149992872,None,y,3.9076158999232575,79.66370149992872,None,83.60198329994455,None,b,1.3314900998957455,83.60198329994455,None,84.97221419995185,None,n,0,2.3386315000243485,84.97221419995185,None,,,,,,,,,,,,,,,,,,,,,,,,,,11012,0001,2022_Mar_07_1129,localizer,2021.1.3,59.27857968512602,
,,,,,,,,,,,,,,,,,,,,,,,,,,,,,,,,,,,,,,,,,,,,,,87.33149170002434,None,y,39.6317568999948,87.33149170002434,None,,,,,,,,,,,,,,,,,,,,11012,0001,2022_Mar_07_1129,localizer,2021.1.3,59.27857968512602,
block_start,objects,objects028.bmp,,,,,0,0,0,0,,,,,,,,,,,,,,,,,,,,,,,,,,,,,,,,,,,,,,,,,,t,16.14064480003435,127.07666899997275,None,127.07666899997275,None,2022-03-07-11:31:42.443695,143.24690339993685,143.5478729000315,143.24690339993685,None,None,143.24690339993685,None,144.05389855999965,None,,,,11012,0001,2022_Mar_07_1129,localizer,2021.1.3,59.27857968512602,
block,objects,objects070.bmp,,,,,0,1,1,1,,,,,,,,,,,,,,,,,,,,,,,,,,,,,,,,,,,,,,,,,,None,,144.05389855999965,None,144.05389855999965,None,2022-03-07-11:31:43.274032,144.07308390003163,144.38127110002097,144.07308390003163,None,None,144.07308390003163,None,144.8814609600231,None,,,,11012,0001,2022_Mar_07_1129,localizer,2021.1.3,59.27857968512602,
block,objects,objects065.bmp,,,,,0,2,2,2,,,,,,,,,,,,,,,,,,,,,,,,,,,,,,,,,,,,,,,,,,None,,144.8814609600231,None,144.8814609600231,None,2022-03-07-11:31:44.091761,144.892397299991,145.1979685999686,144.892397299991,None,None,144.892397299991,None,145.69824296003208,None,,,,11012,0001,2022_Mar_07_1129,localizer,2021.1.3,59.27857968512602,
block,objects,objects084.bmp,,,,,0,3,3,3,,,,,,,,,,,,,,,,,,,,,,,,,,,,,,,,,,,,,,,,,,None,,145.69824296003208,None,145.69824296003208,None,2022-03-07-11:31:44.909511,145.7062071999535,146.0162360999966,145.7062071999535,None,None,145.7062071999535,None,146.51579405996017,None,,,,11012,0001,2022_Mar_07_1129,localizer,2021.1.3,59.27857968512602,
block,objects,objects039.bmp,,,,,0,4,4,4,,,,,,,,,,,,,,,,,,,,,,,,,,,,,,,,,,,,,,,,,,None,,146.51579405996017,None,146.51579405996017,None,2022-03-07-11:31:45.728110,146.52819410001393,146.83116379997227,146.52819410001393,None,None,146.52819410001393,None,147.3333792600315,None,,,,11012,0001,2022_Mar_07_1129,localizer,2021.1.3,59.27857968512602,
block,objects,objects080.bmp,,,,,0,5,5,5,,,,,,,,,,,,,,,,,,,,,,,,,,,,,,,,,,,,,,,,,,None,,147.3333792600315,None,147.3333792600315,None,2022-03-07-11:31:46.548491,147.35395170003176,147.66494149994105,147.35395170003176,None,None,147.35395170003176,None,148.14849725994281,None,,,,11012,0001,2022_Mar_07_1129,localizer,2021.1.3,59.27857968512602,
block,objects,objects041.bmp,,,,,0,6,6,6,,,,,,,,,,,,,,,,,,,,,,,,,,,,,,,,,,,,,,,,,,None,,148.14849725994281,None,148.14849725994281,None,2022-03-07-11:31:47.359847,148.16032849997282,148.46437289996538,148.16032849997282,None,None,148.16032849997282,None,148.96460276003927,None,,,,11012,0001,2022_Mar_07_1129,localizer,2021.1.3,59.27857968512602,
block,objects,objects024.bmp,,,,,0,7,7,7,,,,,,,,,,,,,,,,,,,,,,,,,,,,,,,,,,,,,,,,,,None,,148.96460276003927,None,148.96460276003927,None,2022-03-07-11:31:48.174925,148.97478519997094,149.281225200044,148.97478519997094,None,None,148.97478519997094,None,149.78193575993646,None,,,,11012,0001,2022_Mar_07_1129,localizer,2021.1.3,59.27857968512602,
block,objects,objects033.bmp,,,,,0,8,8,8,,,,,,,,,,,,,,,,,,,,,,,,,,,,,,,,,,,,,,,,,,None,,149.78193575993646,None,149.78193575993646,None,2022-03-07-11:31:48.993286,149.793490299955,150.09849739994388,149.793490299955,None,None,149.793490299955,None,150.59912925993558,None,,,,11012,0001,2022_Mar_07_1129,localizer,2021.1.3,59.27857968512602,
block,objects,objects051.bmp,,,,,0,9,9,9,,,,,,,,,,,,,,,,,,,,,,,,,,,,,,,,,,,,,,,,,,None,,150.59912925993558,None,150.59912925993558,None,2022-03-07-11:31:49.812449,150.61417710001115,150.91422219993547,150.61417710001115,None,None,150.61417710001115,None,151.41526186000556,None,,,,11012,0001,2022_Mar_07_1129,localizer,2021.1.3,59.27857968512602,
block,objects,objects072.bmp,,,,,0,10,10,10,,,,,,,,,,,,,,,,,,,,,,,,,,,,,,,,,,,,,,,,,,None,,151.41526186000556,None,151.41526186000556,None,2022-03-07-11:31:50.626613,151.42689490003977,151.73124739993364,151.42689490003977,None,None,151.42689490003977,None,152.23141956003383,None,,,,11012,0001,2022_Mar_07_1129,localizer,2021.1.3,59.27857968512602,
block,objects,objects034.bmp,,,,,0,11,11,11,,,,,,,,,,,,,,,,,,,,,,,,,,,,,,,,,,,,,,,,,,None,,152.23141956003383,None,152.23141956003383,None,2022-03-07-11:31:51.441584,152.24133039999288,152.5479782000184,152.24133039999288,None,None,152.24133039999288,None,153.0476382599445,None,,,,11012,0001,2022_Mar_07_1129,localizer,2021.1.3,59.27857968512602,
block,objects,objects063.bmp,,,,,0,12,12,12,,,,,,,,,,,,,,,,,,,,,,,,,,,,,,,,,,,,,,,,,,None,,153.0476382599445,None,153.0476382599445,None,2022-03-07-11:31:52.257809,153.05635780002922,153.36462569993455,153.05635780002922,None,None,153.05635780002922,None,153.86705445998814,None,,,,11012,0001,2022_Mar_07_1129,localizer,2021.1.3,59.27857968512602,
block,objects,objects023.bmp,,,,,0,13,13,13,,,,,,,,,,,,,,,,,,,,,,,,,,,,,,,,,,,,,,,,,,None,,153.86705445998814,None,153.86705445998814,None,2022-03-07-11:31:53.081206,153.88066090003122,154.18195150000975,153.88066090003122,None,None,153.88066090003122,None,154.6815433599986,None,,,,11012,0001,2022_Mar_07_1129,localizer,2021.1.3,59.27857968512602,
block_end,objects,objects085.bmp,,,,,0,14,14,14,,,,,,,,,,,,,,,,,,,,,,,,,,,,,,,,,,,,,,,,,,None,,154.6815433599986,None,154.6815433599986,None,2022-03-07-11:31:53.893428,154.69044699997175,155.00029200001154,154.69044699997175,None,None,154.69044699997175,None,155.49924556002952,None,,,,11012,0001,2022_Mar_07_1129,localizer,2021.1.3,59.27857968512602,
block_start,scenes,scenes025.bmp,,,,,0,15,15,15,,,,,,,,,,,,,,,,,,,,,,,,,,,,,,,,,,,,,,,,,,t,1.7182007000083104,155.49907060002442,None,155.49907060002442,None,2022-03-07-11:31:56.444646,157.25221149995923,157.56471189996228,157.25221149995923,None,None,157.25221149995923,None,158.04757715994492,None,,,,11012,0001,2022_Mar_07_1129,localizer,2021.1.3,59.27857968512602,
block,scenes,scenes044.bmp,,,,,0,16,16,16,,,,,,,,,,,,,,,,,,,,,,,,,,,,,,,,,,,,,,,,,,None,,158.04757715994492,None,158.04757715994492,None,2022-03-07-11:31:57.257751,158.0563000999391,158.36488230002578,158.0563000999391,None,None,158.0563000999391,None,158.8657614600379,None,,,,11012,0001,2022_Mar_07_1129,localizer,2021.1.3,59.27857968512602,
block,scenes,scenes037.bmp,,,,,0,17,17,17,,,,,,,,,,,,,,,,,,,,,,,,,,,,,,,,,,,,,,,,,,None,,158.8657614600379,None,158.8657614600379,None,2022-03-07-11:31:58.077909,158.87842229998205,159.18144509999547,158.87842229998205,None,None,158.87842229998205,None,159.68145115999505,None,,,,11012,0001,2022_Mar_07_1129,localizer,2021.1.3,59.27857968512602,
block,scenes,scenes012.bmp,,,,,0,18,18,18,,,,,,,,,,,,,,,,,,,,,,,,,,,,,,,,,,,,,,,,,,None,,159.68145115999505,None,159.68145115999505,None,2022-03-07-11:31:58.891931,159.69353569997475,159.99824190000072,159.69353569997475,None,None,159.69353569997475,None,160.48741126002278,None,,,,11012,0001,2022_Mar_07_1129,localizer,2021.1.3,59.27857968512602,
block,scenes,scenes028.bmp,,,,,0,19,19,19,,,,,,,,,,,,,,,,,,,,,,,,,,,,,,,,,,,,,,,,,,None,,160.48741126002278,None,160.48741126002278,None,2022-03-07-11:31:59.705439,160.50835280003957,160.8144662999548,160.50835280003957,None,None,160.50835280003957,None,161.29795075999573,None,,,,11012,0001,2022_Mar_07_1129,localizer,2021.1.3,59.27857968512602,
block,scenes,scenes008.bmp,,,,,0,20,20,20,,,,,,,,,,,,,,,,,,,,,,,,,,,,,,,,,,,,,,,,,,None,,161.29795075999573,None,161.29795075999573,None,2022-03-07-11:32:00.508648,161.30812499998137,161.61464479996357,161.30812499998137,None,None,161.30812499998137,None,162.11492425994948,None,,,,11012,0001,2022_Mar_07_1129,localizer,2021.1.3,59.27857968512602,
block,scenes,scenes050.bmp,,,,,0,21,21,21,,,,,,,,,,,,,,,,,,,,,,,,,,,,,,,,,,,,,,,,,,None,,162.11492425994948,None,162.11492425994948,None,2022-03-07-11:32:01.326186,162.1229248000309,162.4313589000376,162.1229248000309,None,None,162.1229248000309,None,162.9311731599737,None,,,,11012,0001,2022_Mar_07_1129,localizer,2021.1.3,59.27857968512602,
block,scenes,scenes005.bmp,,,,,0,22,22,22,,,,,,,,,,,,,,,,,,,,,,,,,,,,,,,,,,,,,,,,,,None,,162.9311731599737,None,162.9311731599737,None,2022-03-07-11:32:02.141348,162.93949609994888,163.24847360001877,162.93949609994888,None,None,162.93949609994888,None,163.74829985992983,None,,,,11012,0001,2022_Mar_07_1129,localizer,2021.1.3,59.27857968512602,
block,scenes,scenes068.bmp,,,,,0,23,23,23,,,,,,,,,,,,,,,,,,,,,,,,,,,,,,,,,,,,,,,,,,None,,163.74829985992983,None,163.74829985992983,None,2022-03-07-11:32:02.959461,163.76031909999438,164.0647214000346,163.76031909999438,None,None,163.76031909999438,None,164.5644391599344,None,,,,11012,0001,2022_Mar_07_1129,localizer,2021.1.3,59.27857968512602,
block,scenes,scenes049.bmp,,,,,0,24,24,24,,,,,,,,,,,,,,,,,,,,,,,,,,,,,,,,,,,,,,,,,,None,,164.5644391599344,None,164.5644391599344,None,2022-03-07-11:32:03.774613,164.57401740003843,164.88127220002934,164.57401740003843,None,None,164.57401740003843,None,165.38134036003612,None,,,,11012,0001,2022_Mar_07_1129,localizer,2021.1.3,59.27857968512602,
block,scenes,scenes092.bmp,,,,,0,25,25,25,,,,,,,,,,,,,,,,,,,,,,,,,,,,,,,,,,,,,,,,,,None,,165.38134036003612,None,165.38134036003612,None,2022-03-07-11:32:04.591738,165.39130060002208,165.69787909998558,165.39130060002208,None,None,165.39130060002208,None,166.1975624599727,None,,,,11012,0001,2022_Mar_07_1129,localizer,2021.1.3,59.27857968512602,
block,scenes,scenes006.bmp,,,,,0,26,26,26,,,,,,,,,,,,,,,,,,,,,,,,,,,,,,,,,,,,,,,,,,None,,166.1975624599727,None,166.1975624599727,None,2022-03-07-11:32:05.407736,166.20611449994612,166.51468599995133,166.20611449994612,None,None,166.20611449994612,None,167.00437645998318,None,,,,11012,0001,2022_Mar_07_1129,localizer,2021.1.3,59.27857968512602,
block,scenes,scenes057.bmp,,,,,0,27,27,27,,,,,,,,,,,,,,,,,,,,,,,,,,,,,,,,,,,,,,,,,,None,,167.00437645998318,None,167.00437645998318,None,2022-03-07-11:32:06.218330,167.01957350003067,167.3313931999728,167.01957350003067,None,None,167.01957350003067,None,167.81470485997852,None,,,,11012,0001,2022_Mar_07_1129,localizer,2021.1.3,59.27857968512602,
block,scenes,scenes057.bmp,,,,,0,28,28,28,,,,,,,,,,,,,,,,,,,,,,,,,,,,,,,,,,,,,,,,,,None,,167.81470485997852,None,167.81470485997852,None,2022-03-07-11:32:07.024884,167.81552569998894,168.11485769995488,167.81552569998894,None,y,167.81552569998894,None,168.61461825994775,None,0.5765900000697002,,,11012,0001,2022_Mar_07_1129,localizer,2021.1.3,59.27857968512602,
block_end,scenes,scenes071.bmp,,,,,0,29,29,29,,,,,,,,,,,,,,,,,,,,,,,,,,,,,,,,,,,,,,,,,,None,,168.61461825994775,None,168.61461825994775,None,2022-03-07-11:32:07.826929,168.62656989996321,168.93128330004402,168.62656989996321,168.62656989996321,None,168.62656989996321,168.62656989996321,169.43171636003535,None,,,,11012,0001,2022_Mar_07_1129,localizer,2021.1.3,59.27857968512602,
block_start,faces,faces043.bmp,,,,,0,30,30,30,,,,,,,,,,,,,,,,,,,,,,,,,,,,,,,,,,,,,,,,,,t,1.7857252999674529,169.4316995999543,None,169.4316995999543,None,2022-03-07-11:32:10.457015,171.25788869999815,171.5647689999314,171.25788869999815,None,None,171.25788869999815,None,172.06468485994264,None,,,,11012,0001,2022_Mar_07_1129,localizer,2021.1.3,59.27857968512602,
block,faces,faces032.bmp,,,,,0,31,31,31,,,,,,,,,,,,,,,,,,,,,,,,,,,,,,,,,,,,,,,,,,None,,172.06468485994264,None,172.06468485994264,None,2022-03-07-11:32:11.274833,172.07090569997672,172.3814463999588,172.07090569997672,None,None,172.07090569997672,None,172.88145595998503,None,,,,11012,0001,2022_Mar_07_1129,localizer,2021.1.3,59.27857968512602,
block,faces,faces048.bmp,,,,,0,32,32,32,,,,,,,,,,,,,,,,,,,,,,,,,,,,,,,,,,,,,,,,,,None,,172.88145595998503,None,172.88145595998503,None,2022-03-07-11:32:12.091593,172.89297249994706,173.1987335999729,172.89297249994706,None,None,172.89297249994706,None,173.69823996000923,None,,,,11012,0001,2022_Mar_07_1129,localizer,2021.1.3,59.27857968512602,
block,faces,faces033.bmp,,,,,0,33,33,33,,,,,,,,,,,,,,,,,,,,,,,,,,,,,,,,,,,,,,,,,,None,,173.69823996000923,None,173.69823996000923,None,2022-03-07-11:32:12.908718,173.71539210004266,174.01529380003922,173.71539210004266,None,None,173.71539210004266,None,174.51468165998813,None,,,,11012,0001,2022_Mar_07_1129,localizer,2021.1.3,59.27857968512602,
block,faces,faces080.bmp,,,,,0,34,34,34,,,,,,,,,,,,,,,,,,,,,,,,,,,,,,,,,,,,,,,,,,None,,174.51468165998813,None,174.51468165998813,None,2022-03-07-11:32:13.724863,174.5277215000242,174.83150620001834,174.5277215000242,None,None,174.5277215000242,None,175.33198195998557,None,,,,11012,0001,2022_Mar_07_1129,localizer,2021.1.3,59.27857968512602,
block,faces,faces051.bmp,,,,,0,35,35,35,,,,,,,,,,,,,,,,,,,,,,,,,,,,,,,,,,,,,,,,,,None,,175.33198195998557,None,175.33198195998557,None,2022-03-07-11:32:14.543137,175.34577639994677,175.64877129998058,175.34577639994677,None,None,175.34577639994677,None,176.1377925600391,None,,,,11012,0001,2022_Mar_07_1129,localizer,2021.1.3,59.27857968512602,
block,faces,faces054.bmp,,,,,0,36,36,36,,,,,,,,,,,,,,,,,,,,,,,,,,,,,,,,,,,,,,,,,,None,,176.1377925600391,None,176.1377925600391,None,2022-03-07-11:32:15.351888,176.1535797000397,176.4647704999661,176.1535797000397,None,None,176.1535797000397,None,176.94775545992889,None,,,,11012,0001,2022_Mar_07_1129,localizer,2021.1.3,59.27857968512602,
block,faces,faces005.bmp,,,,,0,37,37,37,,,,,,,,,,,,,,,,,,,,,,,,,,,,,,,,,,,,,,,,,,None,,176.94775545992889,None,176.94775545992889,None,2022-03-07-11:32:16.157928,176.95253889996093,177.2646415999625,176.95253889996093,None,None,176.95253889996093,None,177.76500726002268,None,,,,11012,0001,2022_Mar_07_1129,localizer,2021.1.3,59.27857968512602,
block,faces,faces075.bmp,,,,,0,38,38,38,,,,,,,,,,,,,,,,,,,,,,,,,,,,,,,,,,,,,,,,,,None,,177.76500726002268,None,177.76500726002268,None,2022-03-07-11:32:16.975375,177.77646970003843,178.08210849994794,177.77646970003843,None,None,177.77646970003843,None,178.58209326001815,None,,,,11012,0001,2022_Mar_07_1129,localizer,2021.1.3,59.27857968512602,
block,faces,faces078.bmp,,,,,0,39,39,39,,,,,,,,,,,,,,,,,,,,,,,,,,,,,,,,,,,,,,,,,,None,,178.58209326001815,None,178.58209326001815,None,2022-03-07-11:32:17.793461,178.59575370000675,178.90161950001493,178.59575370000675,None,None,178.59575370000675,None,179.39951375999954,None,,,,11012,0001,2022_Mar_07_1129,localizer,2021.1.3,59.27857968512602,
block,faces,faces066.bmp,,,,,0,40,40,40,,,,,,,,,,,,,,,,,,,,,,,,,,,,,,,,,,,,,,,,,,None,,179.39951375999954,None,179.39951375999954,None,2022-03-07-11:32:18.612832,179.4164398999419,179.73199619993102,179.4164398999419,None,None,179.4164398999419,None,180.2153457599925,None,,,,11012,0001,2022_Mar_07_1129,localizer,2021.1.3,59.27857968512602,
block,faces,faces045.bmp,,,,,0,41,41,41,,,,,,,,,,,,,,,,,,,,,,,,,,,,,,,,,,,,,,,,,,None,,180.2153457599925,None,180.2153457599925,None,2022-03-07-11:32:19.426700,180.2269210999366,180.53754309995566,180.2269210999366,None,None,180.2269210999366,None,181.03127626003698,None,,,,11012,0001,2022_Mar_07_1129,localizer,2021.1.3,59.27857968512602,
block,faces,faces083.bmp,,,,,0,42,42,42,,,,,,,,,,,,,,,,,,,,,,,,,,,,,,,,,,,,,,,,,,None,,181.03127626003698,None,181.03127626003698,None,2022-03-07-11:32:20.241715,181.04092890000902,181.34803390002344,181.04092890000902,None,None,181.04092890000902,None,181.84823075996246,None,,,,11012,0001,2022_Mar_07_1129,localizer,2021.1.3,59.27857968512602,
block,faces,faces008.bmp,,,,,0,43,43,43,,,,,,,,,,,,,,,,,,,,,,,,,,,,,,,,,,,,,,,,,,None,,181.84823075996246,None,181.84823075996246,None,2022-03-07-11:32:21.058821,181.85880389995873,182.16480100003537,181.85880389995873,None,None,181.85880389995873,None,182.66494556004182,None,,,,11012,0001,2022_Mar_07_1129,localizer,2021.1.3,59.27857968512602,
block_end,faces,faces027.bmp,,,,,0,44,44,44,,,,,,,,,,,,,,,,,,,,,,,,,,,,,,,,,,,,,,,,,,None,,182.66494556004182,None,182.66494556004182,None,2022-03-07-11:32:21.875112,182.67725920001976,182.98114109993912,182.67725920001976,None,None,182.67725920001976,None,183.48170776001643,None,,,,11012,0001,2022_Mar_07_1129,localizer,2021.1.3,59.27857968512602,
null_block,null_block,null_block.bmp,,,,,0,45,45,45,,,,,,,,,,,,,,,,,,,,,,,,,,,,,,,,,,,,,,,,,,t,1.735554700018838,183.48181449994445,None,183.48181449994445,None,2022-03-07-11:32:24.445184,185.24953451997135,None,185.24953451997135,None,None,185.24953451997135,None,185.2511658000294,None,,,,11012,0001,2022_Mar_07_1129,localizer,2021.1.3,59.27857968512602,
block_start,scrambled,scrambled079.bmp,,,,,0,46,46,46,,,,,,,,,,,,,,,,,,,,,,,,,,,,,,,,,,,,,,,,,,t,1.9661473999731243,197.25115529994946,None,197.25115529994946,None,2022-03-07-11:32:38.459386,199.25781129999086,199.5647562999511,199.25781129999086,None,None,199.25781129999086,None,200.0646037600236,None,,,,11012,0001,2022_Mar_07_1129,localizer,2021.1.3,59.27857968512602,
block,scrambled,scrambled029.bmp,,,,,0,47,47,47,,,,,,,,,,,,,,,,,,,,,,,,,,,,,,,,,,,,,,,,,,None,,200.0646037600236,None,200.0646037600236,None,2022-03-07-11:32:39.274775,200.0734467000002,200.38128740002867,200.0734467000002,None,None,200.0734467000002,None,200.88173125998583,None,,,,11012,0001,2022_Mar_07_1129,localizer,2021.1.3,59.27857968512602,
block,scrambled,scrambled001.bmp,,,,,0,48,48,48,,,,,,,,,,,,,,,,,,,,,,,,,,,,,,,,,,,,,,,,,,None,,200.88173125998583,None,200.88173125998583,None,2022-03-07-11:32:40.092369,200.89267289999407,201.1985361999832,200.89267289999407,None,None,200.89267289999407,None,201.69899046001956,None,,,,11012,0001,2022_Mar_07_1129,localizer,2021.1.3,59.27857968512602,
block,scrambled,scrambled060.bmp,,,,,0,49,49,49,,,,,,,,,,,,,,,,,,,,,,,,,,,,,,,,,,,,,,,,,,None,,201.69899046001956,None,201.69899046001956,None,2022-03-07-11:32:40.910340,201.71055389998946,202.01468190003652,201.71055389998946,None,None,201.71055389998946,None,202.51469505997375,None,,,,11012,0001,2022_Mar_07_1129,localizer,2021.1.3,59.27857968512602,
block,scrambled,scrambled015.bmp,,,,,0,50,50,50,,,,,,,,,,,,,,,,,,,,,,,,,,,,,,,,,,,,,,,,,,None,,202.51469505997375,None,202.51469505997375,None,2022-03-07-11:32:41.724867,202.52338080003392,202.83153930003755,202.52338080003392,None,None,202.52338080003392,None,203.33232755993959,None,,,,11012,0001,2022_Mar_07_1129,localizer,2021.1.3,59.27857968512602,
block,scrambled,scrambled002.bmp,,,,,0,51,51,51,,,,,,,,,,,,,,,,,,,,,,,,,,,,,,,,,,,,,,,,,,None,,203.33232755993959,None,203.33232755993959,None,2022-03-07-11:32:42.543671,203.34552420000546,203.64797529997304,203.34552420000546,None,None,203.34552420000546,None,204.14841416000854,None,,,,11012,0001,2022_Mar_07_1129,localizer,2021.1.3,59.27857968512602,
block,scrambled,scrambled073.bmp,,,,,0,52,52,52,,,,,,,,,,,,,,,,,,,,,,,,,,,,,,,,,,,,,,,,,,None,,204.14841416000854,None,204.14841416000854,None,2022-03-07-11:32:43.358579,204.15817219996825,204.46566560002975,204.15817219996825,None,None,204.15817219996825,None,204.96630695997737,None,,,,11012,0001,2022_Mar_07_1129,localizer,2021.1.3,59.27857968512602,
block,scrambled,scrambled022.bmp,,,,,0,53,53,53,,,,,,,,,,,,,,,,,,,,,,,,,,,,,,,,,,,,,,,,,,None,,204.96630695997737,None,204.96630695997737,None,2022-03-07-11:32:44.176462,204.97461149992887,205.28186640003696,204.97461149992887,None,None,204.97461149992887,None,205.782456959947,None,,,,11012,0001,2022_Mar_07_1129,localizer,2021.1.3,59.27857968512602,
block,scrambled,scrambled051.bmp,,,,,0,54,54,54,,,,,,,,,,,,,,,,,,,,,,,,,,,,,,,,,,,,,,,,,,None,,205.782456959947,None,205.782456959947,None,2022-03-07-11:32:44.993799,205.79386089998297,206.0982429999858,205.79386089998297,None,None,205.79386089998297,None,206.60034545999952,None,,,,11012,0001,2022_Mar_07_1129,localizer,2021.1.3,59.27857968512602,
block,scrambled,scrambled019.bmp,,,,,0,55,55,55,,,,,,,,,,,,,,,,,,,,,,,,,,,,,,,,,,,,,,,,,,None,,206.60034545999952,None,206.60034545999952,None,2022-03-07-11:32:45.812564,206.61214029998519,206.91501300001983,206.61214029998519,None,None,206.61214029998519,None,207.4148720599478,None,,,,11012,0001,2022_Mar_07_1129,localizer,2021.1.3,59.27857968512602,
block,scrambled,scrambled084.bmp,,,,,0,56,56,56,,,,,,,,,,,,,,,,,,,,,,,,,,,,,,,,,,,,,,,,,,None,,207.4148720599478,None,207.4148720599478,None,2022-03-07-11:32:46.625040,207.42644960002508,207.731677499949,207.42644960002508,None,None,207.42644960002508,None,208.23163406003732,None,,,,11012,0001,2022_Mar_07_1129,localizer,2021.1.3,59.27857968512602,
block,scrambled,scrambled043.bmp,,,,,0,57,57,57,,,,,,,,,,,,,,,,,,,,,,,,,,,,,,,,,,,,,,,,,,None,,208.23163406003732,None,208.23163406003732,None,2022-03-07-11:32:47.441559,208.24117349996231,208.54838890000246,208.24117349996231,None,None,208.24117349996231,None,209.0481720599346,None,,,,11012,0001,2022_Mar_07_1129,localizer,2021.1.3,59.27857968512602,
block,scrambled,scrambled061.bmp,,,,,0,58,58,58,,,,,,,,,,,,,,,,,,,,,,,,,,,,,,,,,,,,,,,,,,None,,209.0481720599346,None,209.0481720599346,None,2022-03-07-11:32:48.258342,209.05815279996023,209.36498930002563,209.05815279996023,None,None,209.05815279996023,None,209.86623326002154,None,,,,11012,0001,2022_Mar_07_1129,localizer,2021.1.3,59.27857968512602,
block,scrambled,scrambled054.bmp,,,,,0,59,59,59,,,,,,,,,,,,,,,,,,,,,,,,,,,,,,,,,,,,,,,,,,None,,209.86623326002154,None,209.86623326002154,None,2022-03-07-11:32:49.077383,209.87905019999016,210.18193099997006,209.87905019999016,None,None,209.87905019999016,None,210.68193555995822,None,,,,11012,0001,2022_Mar_07_1129,localizer,2021.1.3,59.27857968512602,
block_end,scrambled,scrambled034.bmp,,,,,0,60,60,60,,,,,,,,,,,,,,,,,,,,,,,,,,,,,,,,,,,,,,,,,,None,,210.68193555995822,None,210.68193555995822,None,2022-03-07-11:32:49.892099,210.6928886999376,210.9981224000221,210.6928886999376,None,None,210.6928886999376,None,211.49832916003652,None,,,,11012,0001,2022_Mar_07_1129,localizer,2021.1.3,59.27857968512602,
block_start,faces,faces013.bmp,,,,,0,61,61,61,,,,,,,,,,,,,,,,,,,,,,,,,,,,,,,,,,,,,,,,,,t,1.717979000066407,211.49826629995368,None,211.49826629995368,None,2022-03-07-11:32:52.445074,213.24915309995413,213.56489769998007,213.24915309995413,None,None,213.24915309995413,None,214.04822966002394,None,,,,11012,0001,2022_Mar_07_1129,localizer,2021.1.3,59.27857968512602,
block,faces,faces028.bmp,,,,,0,62,62,62,,,,,,,,,,,,,,,,,,,,,,,,,,,,,,,,,,,,,,,,,,None,,214.04822966002394,None,214.04822966002394,None,2022-03-07-11:32:53.258401,214.0580120999366,214.36510039994027,214.0580120999366,None,None,214.0580120999366,None,214.86513885995373,None,,,,11012,0001,2022_Mar_07_1129,localizer,2021.1.3,59.27857968512602,
block,faces,faces080.bmp,,,,,0,63,63,63,,,,,,,,,,,,,,,,,,,,,,,,,,,,,,,,,,,,,,,,,,None,,214.86513885995373,None,214.86513885995373,None,2022-03-07-11:32:54.075306,214.86769430001732,215.18169140000828,214.86769430001732,None,None,214.86769430001732,None,215.6814675600035,None,,,,11012,0001,2022_Mar_07_1129,localizer,2021.1.3,59.27857968512602,
block,faces,faces034.bmp,,,,,0,64,64,64,,,,,,,,,,,,,,,,,,,,,,,,,,,,,,,,,,,,,,,,,,None,,215.6814675600035,None,215.6814675600035,None,2022-03-07-11:32:54.892629,215.69280890002847,216.00378469994757,215.69280890002847,None,None,215.69280890002847,None,216.48797826003283,None,,,,11012,0001,2022_Mar_07_1129,localizer,2021.1.3,59.27857968512602,
block,faces,faces075.bmp,,,,,0,65,65,65,,,,,,,,,,,,,,,,,,,,,,,,,,,,,,,,,,,,,,,,,,None,,216.48797826003283,None,216.48797826003283,None,2022-03-07-11:32:55.704780,216.49613119999412,216.79865849995986,216.49613119999412,None,None,216.49613119999412,None,217.29897145996802,None,,,,11012,0001,2022_Mar_07_1129,localizer,2021.1.3,59.27857968512602,
block,faces,faces007.bmp,,,,,0,66,66,66,,,,,,,,,,,,,,,,,,,,,,,,,,,,,,,,,,,,,,,,,,None,,217.29897145996802,None,217.29897145996802,None,2022-03-07-11:32:56.510318,217.31069159996696,217.615108900005,217.31069159996696,None,None,217.31069159996696,None,218.11623805994168,None,,,,11012,0001,2022_Mar_07_1129,localizer,2021.1.3,59.27857968512602,
block,faces,faces044.bmp,,,,,0,67,67,67,,,,,,,,,,,,,,,,,,,,,,,,,,,,,,,,,,,,,,,,,,None,,218.11623805994168,None,218.11623805994168,None,2022-03-07-11:32:57.327559,218.13135729997884,218.43194119993132,218.13135729997884,None,None,218.13135729997884,None,218.93232626002282,None,,,,11012,0001,2022_Mar_07_1129,localizer,2021.1.3,59.27857968512602,
block,faces,faces012.bmp,,,,,0,68,68,68,,,,,,,,,,,,,,,,,,,,,,,,,,,,,,,,,,,,,,,,,,None,,218.93232626002282,None,218.93232626002282,None,2022-03-07-11:32:58.144469,218.94696169998497,219.2486659999704,218.94696169998497,None,None,218.94696169998497,None,219.75057246000506,None,,,,11012,0001,2022_Mar_07_1129,localizer,2021.1.3,59.27857968512602,
block,faces,faces048.bmp,,,,,0,69,69,69,,,,,,,,,,,,,,,,,,,,,,,,,,,,,,,,,,,,,,,,,,None,,219.75057246000506,None,219.75057246000506,None,2022-03-07-11:32:58.965680,219.75703899993096,220.0650886000367,219.75703899993096,None,None,219.75703899993096,None,220.56534155993722,None,,,,11012,0001,2022_Mar_07_1129,localizer,2021.1.3,59.27857968512602,
block,faces,faces011.bmp,,,,,0,70,70,70,,,,,,,,,,,,,,,,,,,,,,,,,,,,,,,,,,,,,,,,,,None,,220.56534155993722,None,220.56534155993722,None,2022-03-07-11:32:59.776726,220.57630660000723,220.88145750004333,220.57630660000723,None,None,220.57630660000723,None,221.38196205999702,None,,,,11012,0001,2022_Mar_07_1129,localizer,2021.1.3,59.27857968512602,
block,faces,faces047.bmp,,,,,0,71,71,71,,,,,,,,,,,,,,,,,,,,,,,,,,,,,,,,,,,,,,,,,,None,,221.38196205999702,None,221.38196205999702,None,2022-03-07-11:33:00.592340,221.3957501000259,221.6981390999863,221.3957501000259,None,None,221.3957501000259,None,222.19830965995789,None,,,,11012,0001,2022_Mar_07_1129,localizer,2021.1.3,59.27857968512602,
block,faces,faces046.bmp,,,,,0,72,72,72,,,,,,,,,,,,,,,,,,,,,,,,,,,,,,,,,,,,,,,,,,None,,222.19830965995789,None,222.19830965995789,None,2022-03-07-11:33:01.408478,222.21059719996992,222.51500439993106,222.21059719996992,None,None,222.21059719996992,None,223.02141526003834,None,,,,11012,0001,2022_Mar_07_1129,localizer,2021.1.3,59.27857968512602,
block,faces,faces033.bmp,,,,,0,73,73,73,,,,,,,,,,,,,,,,,,,,,,,,,,,,,,,,,,,,,,,,,,None,,223.02141526003834,None,223.02141526003834,None,2022-03-07-11:33:02.239549,223.03102470003068,223.33226389996707,223.03102470003068,None,None,223.03102470003068,None,223.83225415996276,None,,,,11012,0001,2022_Mar_07_1129,localizer,2021.1.3,59.27857968512602,
block,faces,faces021.bmp,,,,,0,74,74,74,,,,,,,,,,,,,,,,,,,,,,,,,,,,,,,,,,,,,,,,,,None,,223.83225415996276,None,223.83225415996276,None,2022-03-07-11:33:03.043607,223.84502280002926,224.14864299993496,223.84502280002926,None,None,223.84502280002926,None,224.6484983599512,None,,,,11012,0001,2022_Mar_07_1129,localizer,2021.1.3,59.27857968512602,
block_end,faces,faces003.bmp,,,,,0,75,75,75,,,,,,,,,,,,,,,,,,,,,,,,,,,,,,,,,,,,,,,,,,None,,224.6484983599512,None,224.6484983599512,None,2022-03-07-11:33:03.858664,224.65951389994007,224.9644791999599,224.65951389994007,None,None,224.65951389994007,None,225.46516786003485,None,,,,11012,0001,2022_Mar_07_1129,localizer,2021.1.3,59.27857968512602,
null_block,null_block,null_block.bmp,,,,,0,76,76,76,,,,,,,,,,,,,,,,,,,,,,,,,,,,,,,,,,,,,,,,,,t,1.7511909999884665,225.4649333000416,None,225.4649333000416,None,2022-03-07-11:33:06.443639,227.2322902600281,None,227.2322902600281,None,None,227.2322902600281,None,227.23819980002008,None,,,,11012,0001,2022_Mar_07_1129,localizer,2021.1.3,59.27857968512602,
block_start,objects,objects063.bmp,,,,,0,77,77,77,,,,,,,,,,,,,,,,,,,,,,,,,,,,,,,,,,,,,,,,,,t,1.9666079999879003,239.2496370000299,None,239.2496370000299,None,2022-03-07-11:33:20.447062,241.23690849996638,241.54806659999304,241.23690849996638,None,None,241.23690849996638,None,242.04879596002866,None,,,,11012,0001,2022_Mar_07_1129,localizer,2021.1.3,59.27857968512602,
block,objects,objects003.bmp,,,,,0,78,78,78,,,,,,,,,,,,,,,,,,,,,,,,,,,,,,,,,,,,,,,,,,None,,242.04879596002866,None,242.04879596002866,None,2022-03-07-11:33:21.258926,242.0593489999883,242.3653694000095,242.0593489999883,None,None,242.0593489999883,None,242.8657055599615,None,,,,11012,0001,2022_Mar_07_1129,localizer,2021.1.3,59.27857968512602,
block,objects,objects077.bmp,,,,,0,79,79,79,,,,,,,,,,,,,,,,,,,,,,,,,,,,,,,,,,,,,,,,,,None,,242.8657055599615,None,242.8657055599615,None,2022-03-07-11:33:22.076846,242.87511699995957,243.18627249996644,242.87511699995957,None,None,242.87511699995957,None,243.68142226000782,None,,,,11012,0001,2022_Mar_07_1129,localizer,2021.1.3,59.27857968512602,
block,objects,objects073.bmp,,,,,0,80,80,80,,,,,,,,,,,,,,,,,,,,,,,,,,,,,,,,,,,,,,,,,,None,,243.68142226000782,None,243.68142226000782,None,2022-03-07-11:33:22.891596,243.68972070002928,243.99822219996713,243.68972070002928,None,None,243.68972070002928,None,244.49824115994852,None,,,,11012,0001,2022_Mar_07_1129,localizer,2021.1.3,59.27857968512602,
block,objects,objects018.bmp,,,,,0,81,81,81,,,,,,,,,,,,,,,,,,,,,,,,,,,,,,,,,,,,,,,,,,None,,244.49824115994852,None,244.49824115994852,None,2022-03-07-11:33:23.708710,244.50359720003325,244.8154333999846,244.50359720003325,None,None,244.50359720003325,None,245.3151462599635,None,,,,11012,0001,2022_Mar_07_1129,localizer,2021.1.3,59.27857968512602,
block,objects,objects002.bmp,,,,,0,82,82,82,,,,,,,,,,,,,,,,,,,,,,,,,,,,,,,,,,,,,,,,,,None,,245.3151462599635,None,245.3151462599635,None,2022-03-07-11:33:24.525746,245.32522430003155,245.63215149997268,245.32522430003155,None,None,245.32522430003155,None,246.13241245993413,None,,,,11012,0001,2022_Mar_07_1129,localizer,2021.1.3,59.27857968512602,
block,objects,objects076.bmp,,,,,0,83,83,83,,,,,,,,,,,,,,,,,,,,,,,,,,,,,,,,,,,,,,,,,,None,,246.13241245993413,None,246.13241245993413,None,2022-03-07-11:33:25.342918,246.14295010000933,246.44848120003007,246.14295010000933,None,None,246.14295010000933,None,246.94837646000087,None,,,,11012,0001,2022_Mar_07_1129,localizer,2021.1.3,59.27857968512602,
block,objects,objects076.bmp,,,,,0,84,84,84,,,,,,,,,,,,,,,,,,,,,,,,,,,,,,,,,,,,,,,,,,None,,246.94837646000087,None,246.94837646000087,None,2022-03-07-11:33:26.158761,246.94925870001316,247.24860970000736,246.94925870001316,None,y,246.94925870001316,None,247.74997646000702,None,0.45509569998830557,,,11012,0001,2022_Mar_07_1129,localizer,2021.1.3,59.27857968512602,
block,objects,objects057.bmp,,,,,0,85,85,85,,,,,,,,,,,,,,,,,,,,,,,,,,,,,,,,,,,,,,,,,,None,,247.74997646000702,None,247.74997646000702,None,2022-03-07-11:33:26.965341,247.7632406000048,248.06503269996028,247.7632406000048,247.7632406000048,None,247.7632406000048,247.7632406000048,248.5651703600306,None,,,,11012,0001,2022_Mar_07_1129,localizer,2021.1.3,59.27857968512602,
block,objects,objects084.bmp,,,,,0,86,86,86,,,,,,,,,,,,,,,,,,,,,,,,,,,,,,,,,,,,,,,,,,None,,248.5651703600306,None,248.5651703600306,None,2022-03-07-11:33:27.775338,248.56589910003822,248.8654191000387,248.56589910003822,None,None,248.56589910003822,None,249.36755036003888,None,,,,11012,0001,2022_Mar_07_1129,localizer,2021.1.3,59.27857968512602,
block,objects,objects021.bmp,,,,,0,87,87,87,,,,,,,,,,,,,,,,,,,,,,,,,,,,,,,,,,,,,,,,,,None,,249.36755036003888,None,249.36755036003888,None,2022-03-07-11:33:28.583858,249.38938770000823,249.6986210999312,249.38938770000823,249.38938770000823,None,249.38938770000823,249.38938770000823,250.1815762600163,None,,,,11012,0001,2022_Mar_07_1129,localizer,2021.1.3,59.27857968512602,
block,objects,objects050.bmp,,,,,0,88,88,88,,,,,,,,,,,,,,,,,,,,,,,,,,,,,,,,,,,,,,,,,,None,,250.1815762600163,None,250.1815762600163,None,2022-03-07-11:33:29.392056,250.19028430001345,250.49857279995922,250.19028430001345,None,None,250.19028430001345,None,250.99789515999146,None,,,,11012,0001,2022_Mar_07_1129,localizer,2021.1.3,59.27857968512602,
block,objects,objects004.bmp,,,,,0,89,89,89,,,,,,,,,,,,,,,,,,,,,,,,,,,,,,,,,,,,,,,,,,None,,250.99789515999146,None,250.99789515999146,None,2022-03-07-11:33:30.207071,251.00129639997613,251.31523659999948,251.00129639997613,None,None,251.00129639997613,None,251.81531996000558,None,,,,11012,0001,2022_Mar_07_1129,localizer,2021.1.3,59.27857968512602,
block,objects,objects037.bmp,,,,,0,90,90,90,,,,,,,,,,,,,,,,,,,,,,,,,,,,,,,,,,,,,,,,,,None,,251.81531996000558,None,251.81531996000558,None,2022-03-07-11:33:31.025485,251.8263883999316,252.13167219993193,251.8263883999316,None,None,251.8263883999316,None,252.63220776000526,None,,,,11012,0001,2022_Mar_07_1129,localizer,2021.1.3,59.27857968512602,
block_end,objects,objects033.bmp,,,,,0,91,91,91,,,,,,,,,,,,,,,,,,,,,,,,,,,,,,,,,,,,,,,,,,None,,252.63220776000526,None,252.63220776000526,None,2022-03-07-11:33:31.842374,252.6326269999845,252.93136549997143,252.6326269999845,None,None,252.6326269999845,None,253.43195385998115,None,,,,11012,0001,2022_Mar_07_1129,localizer,2021.1.3,59.27857968512602,
block_start,scrambled,scrambled053.bmp,,,,,0,92,92,92,,,,,,,,,,,,,,,,,,,,,,,,,,,,,,,,,,,,,,,,,,t,1.7844215999357402,253.4317374000093,None,253.4317374000093,None,2022-03-07-11:33:34.442023,255.24180489999708,255.54851500003133,255.24180489999708,None,None,255.24180489999708,None,256.0485137599753,None,,,,11012,0001,2022_Mar_07_1129,localizer,2021.1.3,59.27857968512602,
block,scrambled,scrambled065.bmp,,,,,0,93,93,93,,,,,,,,,,,,,,,,,,,,,,,,,,,,,,,,,,,,,,,,,,None,,256.0485137599753,None,256.0485137599753,None,2022-03-07-11:33:35.258679,256.05969659995753,256.36532790004276,256.05969659995753,None,None,256.05969659995753,None,256.86603915994056,None,,,,11012,0001,2022_Mar_07_1129,localizer,2021.1.3,59.27857968512602,
block,scrambled,scrambled087.bmp,,,,,0,94,94,94,,,,,,,,,,,,,,,,,,,,,,,,,,,,,,,,,,,,,,,,,,None,,256.86603915994056,None,256.86603915994056,None,2022-03-07-11:33:36.077193,256.8776201000437,257.1818809999386,256.8776201000437,None,y,256.8776201000437,None,257.6818613599753,None,0.24727829999756068,,,11012,0001,2022_Mar_07_1129,localizer,2021.1.3,59.27857968512602,
block,scrambled,scrambled002.bmp,,,,,0,95,95,95,,,,,,,,,,,,,,,,,,,,,,,,,,,,,,,,,,,,,,,,,,None,,257.6818613599753,None,257.6818613599753,None,2022-03-07-11:33:36.892557,257.6826617999468,257.9883011999773,257.6826617999468,None,None,257.6826617999468,None,258.48194315994624,None,,,,11012,0001,2022_Mar_07_1129,localizer,2021.1.3,59.27857968512602,
block,scrambled,scrambled033.bmp,,,,,0,96,96,96,,,,,,,,,,,,,,,,,,,,,,,,,,,,,,,,,,,,,,,,,,None,,258.48194315994624,None,258.48194315994624,None,2022-03-07-11:33:37.693110,258.4929862000281,258.7985741000157,258.4929862000281,258.4929862000281,None,258.4929862000281,258.4929862000281,259.2992041599937,None,,,,11012,0001,2022_Mar_07_1129,localizer,2021.1.3,59.27857968512602,
block,scrambled,scrambled044.bmp,,,,,0,97,97,97,,,,,,,,,,,,,,,,,,,,,,,,,,,,,,,,,,,,,,,,,,None,,259.2992041599937,None,259.2992041599937,None,2022-03-07-11:33:38.510443,259.31101629999466,259.6151675999863,259.31101629999466,None,None,259.31101629999466,None,260.11651655996684,None,,,,11012,0001,2022_Mar_07_1129,localizer,2021.1.3,59.27857968512602,
block,scrambled,scrambled005.bmp,,,,,0,98,98,98,,,,,,,,,,,,,,,,,,,,,,,,,,,,,,,,,,,,,,,,,,None,,260.11651655996684,None,260.11651655996684,None,2022-03-07-11:33:39.329293,260.1309876999585,260.43178620003164,260.1309876999585,None,None,260.1309876999585,None,260.9316432599444,None,,,,11012,0001,2022_Mar_07_1129,localizer,2021.1.3,59.27857968512602,
block,scrambled,scrambled011.bmp,,,,,0,99,99,99,,,,,,,,,,,,,,,,,,,,,,,,,,,,,,,,,,,,,,,,,,None,,260.9316432599444,None,260.9316432599444,None,2022-03-07-11:33:40.141824,260.9403803999303,261.24910879996605,260.9403803999303,None,None,260.9403803999303,None,261.7486145599978,None,,,,11012,0001,2022_Mar_07_1129,localizer,2021.1.3,59.27857968512602,
block,scrambled,scrambled081.bmp,,,,,0,100,100,100,,,,,,,,,,,,,,,,,,,,,,,,,,,,,,,,,,,,,,,,,,None,,261.7486145599978,None,261.7486145599978,None,2022-03-07-11:33:40.958780,261.7600379999494,262.06525690003764,261.7600379999494,None,None,261.7600379999494,None,262.5652940600412,None,,,,11012,0001,2022_Mar_07_1129,localizer,2021.1.3,59.27857968512602,
block,scrambled,scrambled046.bmp,,,,,0,101,101,101,,,,,,,,,,,,,,,,,,,,,,,,,,,,,,,,,,,,,,,,,,None,,262.5652940600412,None,262.5652940600412,None,2022-03-07-11:33:41.775462,262.5750813999912,262.8818042000057,262.5750813999912,None,None,262.5750813999912,None,263.38223755999934,None,,,,11012,0001,2022_Mar_07_1129,localizer,2021.1.3,59.27857968512602,
block,scrambled,scrambled017.bmp,,,,,0,102,102,102,,,,,,,,,,,,,,,,,,,,,,,,,,,,,,,,,,,,,,,,,,None,,263.38223755999934,None,263.38223755999934,None,2022-03-07-11:33:42.592401,263.3931772999931,263.69979450001847,263.3931772999931,None,None,263.3931772999931,None,264.19919505994767,None,,,,11012,0001,2022_Mar_07_1129,localizer,2021.1.3,59.27857968512602,
block,scrambled,scrambled071.bmp,,,,,0,103,103,103,,,,,,,,,,,,,,,,,,,,,,,,,,,,,,,,,,,,,,,,,,None,,264.19919505994767,None,264.19919505994767,None,2022-03-07-11:33:43.410350,264.2108998999465,264.51533670001663,264.2108998999465,None,None,264.2108998999465,None,265.01498095993884,None,,,,11012,0001,2022_Mar_07_1129,localizer,2021.1.3,59.27857968512602,
block,scrambled,scrambled015.bmp,,,,,0,104,104,104,,,,,,,,,,,,,,,,,,,,,,,,,,,,,,,,,,,,,,,,,,None,,265.01498095993884,None,265.01498095993884,None,2022-03-07-11:33:44.225153,265.01609209994785,265.3155281000072,265.01609209994785,None,None,265.01609209994785,None,265.8173945599701,None,,,,11012,0001,2022_Mar_07_1129,localizer,2021.1.3,59.27857968512602,
block,scrambled,scrambled018.bmp,,,,,0,105,105,105,,,,,,,,,,,,,,,,,,,,,,,,,,,,,,,,,,,,,,,,,,None,,265.8173945599701,None,265.8173945599701,None,2022-03-07-11:33:45.033694,265.83723750000354,266.14843760000076,265.83723750000354,265.83723750000354,None,265.83723750000354,265.83723750000354,266.6327432600083,None,,,,11012,0001,2022_Mar_07_1129,localizer,2021.1.3,59.27857968512602,
block_end,scrambled,scrambled083.bmp,,,,,0,106,106,106,,,,,,,,,,,,,,,,,,,,,,,,,,,,,,,,,,,,,,,,,,None,,266.6327432600083,None,266.6327432600083,None,2022-03-07-11:33:45.844256,266.64437849994283,266.95487769995816,266.64437849994283,None,None,266.64437849994283,None,267.44981606001966,None,,,,11012,0001,2022_Mar_07_1129,localizer,2021.1.3,59.27857968512602,
block_start,scenes,scenes072.bmp,,,,,0,107,107,107,,,,,,,,,,,,,,,,,,,,,,,,,,,,,,,,,,,,,,,,,,t,1.7669840999878943,267.4497894999804,None,267.4497894999804,None,2022-03-07-11:33:48.442448,269.2418553000316,269.54864399996586,269.2418553000316,None,None,269.2418553000316,None,270.0484098599991,None,,,,11012,0001,2022_Mar_07_1129,localizer,2021.1.3,59.27857968512602,
block,scenes,scenes079.bmp,,,,,0,108,108,108,,,,,,,,,,,,,,,,,,,,,,,,,,,,,,,,,,,,,,,,,,None,,270.0484098599991,None,270.0484098599991,None,2022-03-07-11:33:49.258576,270.0548265000107,270.36564610002097,270.0548265000107,None,None,270.0548265000107,None,270.86564275994897,None,,,,11012,0001,2022_Mar_07_1129,localizer,2021.1.3,59.27857968512602,
block,scenes,scenes061.bmp,,,,,0,109,109,109,,,,,,,,,,,,,,,,,,,,,,,,,,,,,,,,,,,,,,,,,,None,,270.86564275994897,None,270.86564275994897,None,2022-03-07-11:33:50.077002,270.87860469997395,271.1819261999335,270.87860469997395,None,None,270.87860469997395,None,271.68289076001383,None,,,,11012,0001,2022_Mar_07_1129,localizer,2021.1.3,59.27857968512602,
block,scenes,scenes010.bmp,,,,,0,110,110,110,,,,,,,,,,,,,,,,,,,,,,,,,,,,,,,,,,,,,,,,,,None,,271.68289076001383,None,271.68289076001383,None,2022-03-07-11:33:50.893967,271.6943866999354,272.00508229993284,271.6943866999354,None,None,271.6943866999354,None,272.49996186001226,None,,,,11012,0001,2022_Mar_07_1129,localizer,2021.1.3,59.27857968512602,
block,scenes,scenes016.bmp,,,,,0,111,111,111,,,,,,,,,,,,,,,,,,,,,,,,,,,,,,,,,,,,,,,,,,None,,272.49996186001226,None,272.49996186001226,None,2022-03-07-11:33:51.711298,272.5225585999433,272.83190310001373,272.5225585999433,None,None,272.5225585999433,None,273.3150039599277,None,,,,11012,0001,2022_Mar_07_1129,localizer,2021.1.3,59.27857968512602,
block,scenes,scenes032.bmp,,,,,0,112,112,112,,,,,,,,,,,,,,,,,,,,,,,,,,,,,,,,,,,,,,,,,,None,,273.3150039599277,None,273.3150039599277,None,2022-03-07-11:33:52.524177,273.3231930999318,273.63246310001705,273.3231930999318,None,None,273.3231930999318,None,274.1319923599949,None,,,,11012,0001,2022_Mar_07_1129,localizer,2021.1.3,59.27857968512602,
block,scenes,scenes048.bmp,,,,,0,113,113,113,,,,,,,,,,,,,,,,,,,,,,,,,,,,,,,,,,,,,,,,,,None,,274.1319923599949,None,274.1319923599949,None,2022-03-07-11:33:53.342380,274.14885290001985,274.44853839999996,274.14885290001985,None,None,274.14885290001985,None,274.94874265999533,None,,,,11012,0001,2022_Mar_07_1129,localizer,2021.1.3,59.27857968512602,
block,scenes,scenes029.bmp,,,,,0,114,114,114,,,,,,,,,,,,,,,,,,,,,,,,,,,,,,,,,,,,,,,,,,None,,274.94874265999533,None,274.94874265999533,None,2022-03-07-11:33:54.158908,274.9584565999685,275.2652917000232,274.9584565999685,None,None,274.9584565999685,None,275.7662605600199,None,,,,11012,0001,2022_Mar_07_1129,localizer,2021.1.3,59.27857968512602,
block,scenes,scenes056.bmp,,,,,0,115,115,115,,,,,,,,,,,,,,,,,,,,,,,,,,,,,,,,,,,,,,,,,,None,,275.7662605600199,None,275.7662605600199,None,2022-03-07-11:33:54.976416,275.77756199997384,276.0823892999906,275.77756199997384,None,None,275.77756199997384,None,276.5819223599974,None,,,,11012,0001,2022_Mar_07_1129,localizer,2021.1.3,59.27857968512602,
block,scenes,scenes058.bmp,,,,,0,116,116,116,,,,,,,,,,,,,,,,,,,,,,,,,,,,,,,,,,,,,,,,,,None,,276.5819223599974,None,276.5819223599974,None,2022-03-07-11:33:55.792094,276.59028939995915,276.8987330000382,276.59028939995915,None,None,276.59028939995915,None,277.3993720599683,None,,,,11012,0001,2022_Mar_07_1129,localizer,2021.1.3,59.27857968512602,
block,scenes,scenes071.bmp,,,,,0,117,117,117,,,,,,,,,,,,,,,,,,,,,,,,,,,,,,,,,,,,,,,,,,None,,277.3993720599683,None,277.3993720599683,None,2022-03-07-11:33:56.609712,277.40006469993386,277.715408799937,277.40006469993386,None,None,277.40006469993386,None,278.1993651599623,None,,,,11012,0001,2022_Mar_07_1129,localizer,2021.1.3,59.27857968512602,
block,scenes,scenes069.bmp,,,,,0,118,118,118,,,,,,,,,,,,,,,,,,,,,,,,,,,,,,,,,,,,,,,,,,None,,278.1993651599623,None,278.1993651599623,None,2022-03-07-11:33:57.412720,278.21413879992906,278.51575290004257,278.21413879992906,278.21413879992906,None,278.21413879992906,278.21413879992906,279.01503445999697,None,,,,11012,0001,2022_Mar_07_1129,localizer,2021.1.3,59.27857968512602,
block,scenes,scenes084.bmp,,,,,0,119,119,119,,,,,,,,,,,,,,,,,,,,,,,,,,,,,,,,,,,,,,,,,,None,,279.01503445999697,None,279.01503445999697,None,2022-03-07-11:33:58.224210,279.02599049999844,279.33176650002133,279.02599049999844,None,None,279.02599049999844,None,279.83255276002456,None,,,,11012,0001,2022_Mar_07_1129,localizer,2021.1.3,59.27857968512602,
block,scenes,scenes081.bmp,,,,,0,120,120,120,,,,,,,,,,,,,,,,,,,,,,,,,,,,,,,,,,,,,,,,,,None,,279.83255276002456,None,279.83255276002456,None,2022-03-07-11:33:59.043710,279.84442440001294,280.1488849000307,279.84442440001294,None,None,279.84442440001294,None,280.6490735600237,None,,,,11012,0001,2022_Mar_07_1129,localizer,2021.1.3,59.27857968512602,
block_end,scenes,scenes073.bmp,,,,,0,121,121,121,,,,,,,,,,,,,,,,,,,,,,,,,,,,,,,,,,,,,,,,,,None,,280.6490735600237,None,280.6490735600237,None,2022-03-07-11:33:59.859236,280.6614594999701,280.9651500999462,280.6614594999701,None,None,280.6614594999701,None,281.46527556004,None,,,,11012,0001,2022_Mar_07_1129,localizer,2021.1.3,59.27857968512602,
block_start,scrambled,scrambled034.bmp,,,,,0,122,122,122,,,,,,,,,,,,,,,,,,,,,,,,,,,,,,,,,,,,,,,,,,t,1.7507215000223368,281.4653088999912,None,281.4653088999912,None,2022-03-07-11:34:02.442004,283.2335215000203,283.54921039997134,283.2335215000203,None,None,283.2335215000203,None,284.032594159944,None,,,,11012,0001,2022_Mar_07_1129,localizer,2021.1.3,59.27857968512602,
block,scrambled,scrambled050.bmp,,,,,0,123,123,123,,,,,,,,,,,,,,,,,,,,,,,,,,,,,,,,,,,,,,,,,,None,,284.032594159944,None,284.032594159944,None,2022-03-07-11:34:03.244735,284.04126700002234,284.3490541999927,284.04126700002234,284.04126700002234,None,284.04126700002234,284.04126700002234,284.8493362599984,None,,,,11012,0001,2022_Mar_07_1129,localizer,2021.1.3,59.27857968512602,
block,scrambled,scrambled040.bmp,,,,,0,124,124,124,,,,,,,,,,,,,,,,,,,,,,,,,,,,,,,,,,,,,,,,,,None,,284.8493362599984,None,284.8493362599984,None,2022-03-07-11:34:04.059538,284.8553198999725,285.165972399991,284.8553198999725,None,None,284.8553198999725,None,285.6665576599771,None,,,,11012,0001,2022_Mar_07_1129,localizer,2021.1.3,59.27857968512602,
block,scrambled,scrambled037.bmp,,,,,0,125,125,125,,,,,,,,,,,,,,,,,,,,,,,,,,,,,,,,,,,,,,,,,,None,,285.6665576599771,None,285.6665576599771,None,2022-03-07-11:34:04.877883,285.67895490000956,285.9818484999705,285.67895490000956,None,None,285.67895490000956,None,286.48203915997874,None,,,,11012,0001,2022_Mar_07_1129,localizer,2021.1.3,59.27857968512602,
block,scrambled,scrambled017.bmp,,,,,0,126,126,126,,,,,,,,,,,,,,,,,,,,,,,,,,,,,,,,,,,,,,,,,,None,,286.48203915997874,None,286.48203915997874,None,2022-03-07-11:34:05.691463,286.4836849999847,286.79877240001224,286.4836849999847,None,None,286.4836849999847,None,287.29911886004265,None,,,,11012,0001,2022_Mar_07_1129,localizer,2021.1.3,59.27857968512602,
block,scrambled,scrambled067.bmp,,,,,0,127,127,127,,,,,,,,,,,,,,,,,,,,,,,,,,,,,,,,,,,,,,,,,,None,,287.29911886004265,None,287.29911886004265,None,2022-03-07-11:34:06.509473,287.308834400028,287.6158342999406,287.308834400028,None,None,287.308834400028,None,288.1156998600345,None,,,,11012,0001,2022_Mar_07_1129,localizer,2021.1.3,59.27857968512602,
block,scrambled,scrambled074.bmp,,,,,0,128,128,128,,,,,,,,,,,,,,,,,,,,,,,,,,,,,,,,,,,,,,,,,,None,,288.1156998600345,None,288.1156998600345,None,2022-03-07-11:34:07.325858,288.12640840001404,288.43243889999576,288.12640840001404,None,None,288.12640840001404,None,288.93249486002605,None,,,,11012,0001,2022_Mar_07_1129,localizer,2021.1.3,59.27857968512602,
block,scrambled,scrambled080.bmp,,,,,0,129,129,129,,,,,,,,,,,,,,,,,,,,,,,,,,,,,,,,,,,,,,,,,,None,,288.93249486002605,None,288.93249486002605,None,2022-03-07-11:34:08.141237,288.9382832000265,289.24884619994555,288.9382832000265,None,None,288.9382832000265,None,289.74895775993355,None,,,,11012,0001,2022_Mar_07_1129,localizer,2021.1.3,59.27857968512602,
block,scrambled,scrambled045.bmp,,,,,0,130,130,130,,,,,,,,,,,,,,,,,,,,,,,,,,,,,,,,,,,,,,,,,,None,,289.74895775993355,None,289.74895775993355,None,2022-03-07-11:34:08.958919,289.75393899995834,290.065468100016,289.75393899995834,None,None,289.75393899995834,None,290.56528375996277,None,,,,11012,0001,2022_Mar_07_1129,localizer,2021.1.3,59.27857968512602,
block,scrambled,scrambled070.bmp,,,,,0,131,131,131,,,,,,,,,,,,,,,,,,,,,,,,,,,,,,,,,,,,,,,,,,None,,290.56528375996277,None,290.56528375996277,None,2022-03-07-11:34:09.774625,290.5746349999681,290.88205739995465,290.5746349999681,None,None,290.5746349999681,None,291.3824233600171,None,,,,11012,0001,2022_Mar_07_1129,localizer,2021.1.3,59.27857968512602,
block,scrambled,scrambled025.bmp,,,,,0,132,132,132,,,,,,,,,,,,,,,,,,,,,,,,,,,,,,,,,,,,,,,,,,None,,291.3824233600171,None,291.3824233600171,None,2022-03-07-11:34:10.592781,291.3924325000262,291.69906699995045,291.3924325000262,None,None,291.3924325000262,None,292.1994384599384,None,,,,11012,0001,2022_Mar_07_1129,localizer,2021.1.3,59.27857968512602,
block,scrambled,scrambled025.bmp,,,,,0,133,133,133,,,,,,,,,,,,,,,,,,,,,,,,,,,,,,,,,,,,,,,,,,None,,292.1994384599384,None,292.1994384599384,None,2022-03-07-11:34:11.409586,292.20012860000134,292.50516139995307,292.20012860000134,None,None,292.20012860000134,None,293.0155254600104,None,,,,11012,0001,2022_Mar_07_1129,localizer,2021.1.3,59.27857968512602,
block,scrambled,scrambled088.bmp,,,,,0,134,134,134,,,,,,,,,,,,,,,,,,,,,,,,,,,,,,,,,,,,,,,,,,None,,293.0155254600104,None,293.0155254600104,None,2022-03-07-11:34:12.224697,293.02491569996346,293.33213250001427,293.02491569996346,None,None,293.02491569996346,None,293.83243166003376,None,,,,11012,0001,2022_Mar_07_1129,localizer,2021.1.3,59.27857968512602,
block,scrambled,scrambled086.bmp,,,,,0,135,135,135,,,,,,,,,,,,,,,,,,,,,,,,,,,,,,,,,,,,,,,,,,None,,293.83243166003376,None,293.83243166003376,None,2022-03-07-11:34:13.042603,293.84247669996694,294.1487538999645,293.84247669996694,None,None,293.84247669996694,None,294.64888035994954,None,,,,11012,0001,2022_Mar_07_1129,localizer,2021.1.3,59.27857968512602,
block_end,scrambled,scrambled060.bmp,,,,,0,136,136,136,,,,,,,,,,,,,,,,,,,,,,,,,,,,,,,,,,,,,,,,,,None,,294.64888035994954,None,294.64888035994954,None,2022-03-07-11:34:13.858050,294.64977320004255,294.9545056000352,294.64977320004255,None,None,294.64977320004255,None,295.4490472599864,None,,,,11012,0001,2022_Mar_07_1129,localizer,2021.1.3,59.27857968512602,
block_start,scenes,scenes015.bmp,,,,,0,137,137,137,,,,,,,,,,,,,,,,,,,,,,,,,,,,,,,,,,,,,,,,,,t,1.7673914999468252,295.4489007999655,None,295.4489007999655,None,2022-03-07-11:34:16.442093,297.25732309999876,297.5657462000381,297.25732309999876,None,None,297.25732309999876,None,298.04872225993313,None,,,,11012,0001,2022_Mar_07_1129,localizer,2021.1.3,59.27857968512602,
block,scenes,scenes053.bmp,,,,,0,138,138,138,,,,,,,,,,,,,,,,,,,,,,,,,,,,,,,,,,,,,,,,,,None,,298.04872225993313,None,298.04872225993313,None,2022-03-07-11:34:17.257898,298.0559876000043,298.3653389000101,298.0559876000043,None,None,298.0559876000043,None,298.86622395995073,None,,,,11012,0001,2022_Mar_07_1129,localizer,2021.1.3,59.27857968512602,
block,scenes,scenes007.bmp,,,,,0,139,139,139,,,,,,,,,,,,,,,,,,,,,,,,,,,,,,,,,,,,,,,,,,None,,298.86622395995073,None,298.86622395995073,None,2022-03-07-11:34:18.076593,298.8813957000384,299.18203869997524,298.8813957000384,None,None,298.8813957000384,None,299.68232666002586,None,,,,11012,0001,2022_Mar_07_1129,localizer,2021.1.3,59.27857968512602,
block,scenes,scenes087.bmp,,,,,0,140,140,140,,,,,,,,,,,,,,,,,,,,,,,,,,,,,,,,,,,,,,,,,,None,,299.68232666002586,None,299.68232666002586,None,2022-03-07-11:34:18.892491,299.69163949997164,299.9986125000287,299.69163949997164,None,None,299.69163949997164,None,300.49857815995347,None,,,,11012,0001,2022_Mar_07_1129,localizer,2021.1.3,59.27857968512602,
block,scenes,scenes004.bmp,,,,,0,141,141,141,,,,,,,,,,,,,,,,,,,,,,,,,,,,,,,,,,,,,,,,,,None,,300.49857815995347,None,300.49857815995347,None,2022-03-07-11:34:19.707757,300.5125016999664,300.815444799955,300.5125016999664,None,None,300.5125016999664,None,301.31548956001643,None,,,,11012,0001,2022_Mar_07_1129,localizer,2021.1.3,59.27857968512602,
block,scenes,scenes078.bmp,,,,,0,142,142,142,,,,,,,,,,,,,,,,,,,,,,,,,,,,,,,,,,,,,,,,,,None,,301.31548956001643,None,301.31548956001643,None,2022-03-07-11:34:20.524956,301.32449339993764,301.6322998999385,301.32449339993764,None,None,301.32449339993764,None,302.13339605997317,None,,,,11012,0001,2022_Mar_07_1129,localizer,2021.1.3,59.27857968512602,
block,scenes,scenes045.bmp,,,,,0,143,143,143,,,,,,,,,,,,,,,,,,,,,,,,,,,,,,,,,,,,,,,,,,None,,302.13339605997317,None,302.13339605997317,None,2022-03-07-11:34:21.344722,302.14580199995544,302.44890039996244,302.14580199995544,None,None,302.14580199995544,None,302.9491584600182,None,,,,11012,0001,2022_Mar_07_1129,localizer,2021.1.3,59.27857968512602,
block,scenes,scenes049.bmp,,,,,0,144,144,144,,,,,,,,,,,,,,,,,,,,,,,,,,,,,,,,,,,,,,,,,,None,,302.9491584600182,None,302.9491584600182,None,2022-03-07-11:34:22.158329,302.94980199995916,303.2654724000022,302.94980199995916,None,None,302.94980199995916,None,303.7655135600362,None,,,,11012,0001,2022_Mar_07_1129,localizer,2021.1.3,59.27857968512602,
block,scenes,scenes037.bmp,,,,,0,145,145,145,,,,,,,,,,,,,,,,,,,,,,,,,,,,,,,,,,,,,,,,,,None,,303.7655135600362,None,303.7655135600362,None,2022-03-07-11:34:22.974685,303.7670625000028,304.0820940999547,303.7670625000028,None,None,303.7670625000028,None,304.58229196001776,None,,,,11012,0001,2022_Mar_07_1129,localizer,2021.1.3,59.27857968512602,
block,scenes,scenes011.bmp,,,,,0,146,146,146,,,,,,,,,,,,,,,,,,,,,,,,,,,,,,,,,,,,,,,,,,None,,304.58229196001776,None,304.58229196001776,None,2022-03-07-11:34:23.791440,304.59147149999626,304.8990477999905,304.59147149999626,None,None,304.59147149999626,None,305.3981655599782,None,,,,11012,0001,2022_Mar_07_1129,localizer,2021.1.3,59.27857968512602,
block,scenes,scenes050.bmp,,,,,0,147,147,147,,,,,,,,,,,,,,,,,,,,,,,,,,,,,,,,,,,,,,,,,,None,,305.3981655599782,None,305.3981655599782,None,2022-03-07-11:34:24.607264,305.39949219999835,305.6995892999694,305.39949219999835,None,None,305.39949219999835,None,306.20099586003926,None,,,,11012,0001,2022_Mar_07_1129,localizer,2021.1.3,59.27857968512602,
block,scenes,scenes068.bmp,,,,,0,148,148,148,,,,,,,,,,,,,,,,,,,,,,,,,,,,,,,,,,,,,,,,,,None,,306.20099586003926,None,306.20099586003926,None,2022-03-07-11:34:25.416182,306.20665339997504,306.51547640003264,306.20665339997504,306.20665339997504,None,306.20665339997504,306.20665339997504,307.02185526001267,None,,,,11012,0001,2022_Mar_07_1129,localizer,2021.1.3,59.27857968512602,
block,scenes,scenes026.bmp,,,,,0,149,149,149,,,,,,,,,,,,,,,,,,,,,,,,,,,,,,,,,,,,,,,,,,None,,307.02185526001267,None,307.02185526001267,None,2022-03-07-11:34:26.235071,307.03857490001246,307.34874589997344,307.03857490001246,None,None,307.03857490001246,None,307.83199265995063,None,,,,11012,0001,2022_Mar_07_1129,localizer,2021.1.3,59.27857968512602,
block,scenes,scenes052.bmp,,,,,0,150,150,150,,,,,,,,,,,,,,,,,,,,,,,,,,,,,,,,,,,,,,,,,,None,,307.83199265995063,None,307.83199265995063,None,2022-03-07-11:34:27.041455,307.8357261000201,308.1492215000326,307.8357261000201,None,None,307.8357261000201,None,308.65113746002316,None,,,,11012,0001,2022_Mar_07_1129,localizer,2021.1.3,59.27857968512602,
block_end,scenes,scenes089.bmp,,,,,0,151,151,151,,,,,,,,,,,,,,,,,,,,,,,,,,,,,,,,,,,,,,,,,,None,,308.65113746002316,None,308.65113746002316,None,2022-03-07-11:34:27.863223,308.6648543999763,308.9655395000009,308.6648543999763,None,None,308.6648543999763,None,309.47194855997805,None,,,,11012,0001,2022_Mar_07_1129,localizer,2021.1.3,59.27857968512602,
block_start,faces,faces057.bmp,,,,,0,152,152,152,,,,,,,,,,,,,,,,,,,,,,,,,,,,,,,,,,,,,,,,,,t,1.750492800027132,309.46577010001056,None,309.46577010001056,None,2022-03-07-11:34:30.441199,311.2430378999561,311.54943390004337,311.2430378999561,None,None,311.2430378999561,None,312.04853925993666,None,,,,11012,0001,2022_Mar_07_1129,localizer,2021.1.3,59.27857968512602,
block,faces,faces085.bmp,,,,,0,153,153,153,,,,,,,,,,,,,,,,,,,,,,,,,,,,,,,,,,,,,,,,,,None,,312.04853925993666,None,312.04853925993666,None,2022-03-07-11:34:31.257715,312.0574862000067,312.3654576999834,312.0574862000067,None,None,312.0574862000067,None,312.8658672600286,None,,,,11012,0001,2022_Mar_07_1129,localizer,2021.1.3,59.27857968512602,
block,faces,faces089.bmp,,,,,0,154,154,154,,,,,,,,,,,,,,,,,,,,,,,,,,,,,,,,,,,,,,,,,,None,,312.8658672600286,None,312.8658672600286,None,2022-03-07-11:34:32.076031,312.87641819997225,313.18227360001765,312.87641819997225,None,None,312.87641819997225,None,313.68225755996536,None,,,,11012,0001,2022_Mar_07_1129,localizer,2021.1.3,59.27857968512602,
block,faces,faces053.bmp,,,,,0,155,155,155,,,,,,,,,,,,,,,,,,,,,,,,,,,,,,,,,,,,,,,,,,None,,313.68225755996536,None,313.68225755996536,None,2022-03-07-11:34:32.891501,313.69151759997476,313.9991425999906,313.69151759997476,None,None,313.69151759997476,None,314.4987144599436,None,,,,11012,0001,2022_Mar_07_1129,localizer,2021.1.3,59.27857968512602,
block,faces,faces070.bmp,,,,,0,156,156,156,,,,,,,,,,,,,,,,,,,,,,,,,,,,,,,,,,,,,,,,,,None,,314.4987144599436,None,314.4987144599436,None,2022-03-07-11:34:33.708880,314.50655049993657,314.81568789994344,314.50655049993657,None,None,314.50655049993657,None,315.3033253599424,None,,,,11012,0001,2022_Mar_07_1129,localizer,2021.1.3,59.27857968512602,
block,faces,faces041.bmp,,,,,0,157,157,157,,,,,,,,,,,,,,,,,,,,,,,,,,,,,,,,,,,,,,,,,,None,,315.3033253599424,None,315.3033253599424,None,2022-03-07-11:34:34.516638,315.3173022000119,315.6167163000209,315.3173022000119,None,None,315.3173022000119,None,316.11682495998684,None,,,,11012,0001,2022_Mar_07_1129,localizer,2021.1.3,59.27857968512602,
block,faces,faces028.bmp,,,,,0,158,158,158,,,,,,,,,,,,,,,,,,,,,,,,,,,,,,,,,,,,,,,,,,None,,316.11682495998684,None,316.11682495998684,None,2022-03-07-11:34:35.327612,316.1170422999421,316.4161923000356,316.1170422999421,None,None,316.1170422999421,None,316.9162384599913,None,,,,11012,0001,2022_Mar_07_1129,localizer,2021.1.3,59.27857968512602,
block,faces,faces078.bmp,,,,,0,159,159,159,,,,,,,,,,,,,,,,,,,,,,,,,,,,,,,,,,,,,,,,,,None,,316.9162384599913,None,316.9162384599913,None,2022-03-07-11:34:36.128577,316.9183765000198,317.21612590004224,316.9183765000198,316.9183765000198,None,316.9183765000198,316.9183765000198,317.7333134600194,None,,,,11012,0001,2022_Mar_07_1129,localizer,2021.1.3,59.27857968512602,
block,faces,faces062.bmp,,,,,0,160,160,160,,,,,,,,,,,,,,,,,,,,,,,,,,,,,,,,,,,,,,,,,,None,,317.7333134600194,None,317.7333134600194,None,2022-03-07-11:34:36.943560,317.7466521000024,318.05027869995683,317.7466521000024,None,None,317.7466521000024,None,318.5495513599599,None,,,,11012,0001,2022_Mar_07_1129,localizer,2021.1.3,59.27857968512602,
block,faces,faces003.bmp,,,,,0,161,161,161,,,,,,,,,,,,,,,,,,,,,,,,,,,,,,,,,,,,,,,,,,None,,318.5495513599599,None,318.5495513599599,None,2022-03-07-11:34:37.759903,318.5504376000026,318.8661027000053,318.5504376000026,None,None,318.5504376000026,None,319.3510293599684,None,,,,11012,0001,2022_Mar_07_1129,localizer,2021.1.3,59.27857968512602,
block,faces,faces022.bmp,,,,,0,162,162,162,,,,,,,,,,,,,,,,,,,,,,,,,,,,,,,,,,,,,,,,,,None,,319.3510293599684,None,319.3510293599684,None,2022-03-07-11:34:38.566242,319.3733830000274,319.68266739998944,319.3733830000274,319.3733830000274,None,319.3733830000274,319.3733830000274,320.16523965995293,None,,,,11012,0001,2022_Mar_07_1129,localizer,2021.1.3,59.27857968512602,
block,faces,faces019.bmp,,,,,0,163,163,163,,,,,,,,,,,,,,,,,,,,,,,,,,,,,,,,,,,,,,,,,,None,,320.16523965995293,None,320.16523965995293,None,2022-03-07-11:34:39.375405,320.183088199934,320.48328899999615,320.183088199934,None,None,320.183088199934,None,320.98259925993625,None,,,,11012,0001,2022_Mar_07_1129,localizer,2021.1.3,59.27857968512602,
block,faces,faces065.bmp,,,,,0,164,164,164,,,,,,,,,,,,,,,,,,,,,,,,,,,,,,,,,,,,,,,,,,None,,320.98259925993625,None,320.98259925993625,None,2022-03-07-11:34:40.192786,320.9994386000326,321.29873409995344,320.9994386000326,None,None,320.9994386000326,None,321.7995526599698,None,,,,11012,0001,2022_Mar_07_1129,localizer,2021.1.3,59.27857968512602,
block,faces,faces084.bmp,,,,,0,165,165,165,,,,,,,,,,,,,,,,,,,,,,,,,,,,,,,,,,,,,,,,,,None,,321.7995526599698,None,321.7995526599698,None,2022-03-07-11:34:41.009901,321.8102216999978,322.11617960000876,321.8102216999978,None,None,321.8102216999978,None,322.61623685993254,None,,,,11012,0001,2022_Mar_07_1129,localizer,2021.1.3,59.27857968512602,
block_end,faces,faces023.bmp,,,,,0,166,166,166,,,,,,,,,,,,,,,,,,,,,,,,,,,,,,,,,,,,,,,,,,None,,322.61623685993254,None,322.61623685993254,None,2022-03-07-11:34:41.826503,322.62694029998966,322.9360922999913,322.62694029998966,None,None,322.62694029998966,None,323.4322952600196,None,,,,11012,0001,2022_Mar_07_1129,localizer,2021.1.3,59.27857968512602,
block_start,objects,objects063.bmp,,,,,0,167,167,167,,,,,,,,,,,,,,,,,,,,,,,,,,,,,,,,,,,,,,,,,,t,1.7840930999955162,323.4318893000018,None,323.4318893000018,None,2022-03-07-11:34:44.440355,325.2336156000383,325.5489857000066,325.2336156000383,None,None,325.2336156000383,None,326.0490116600413,None,,,,11012,0001,2022_Mar_07_1129,localizer,2021.1.3,59.27857968512602,
block,objects,objects014.bmp,,,,,0,168,168,168,,,,,,,,,,,,,,,,,,,,,,,,,,,,,,,,,,,,,,,,,,None,,326.0490116600413,None,326.0490116600413,None,2022-03-07-11:34:45.258131,326.05728139996063,326.36573670001235,326.05728139996063,None,None,326.05728139996063,None,326.8653823599452,None,,,,11012,0001,2022_Mar_07_1129,localizer,2021.1.3,59.27857968512602,
block,objects,objects030.bmp,,,,,0,169,169,169,,,,,,,,,,,,,,,,,,,,,,,,,,,,,,,,,,,,,,,,,,None,,326.8653823599452,None,326.8653823599452,None,2022-03-07-11:34:46.075547,326.8751324999612,327.18233830004465,326.8751324999612,None,None,326.8751324999612,None,327.6824507600395,None,,,,11012,0001,2022_Mar_07_1129,localizer,2021.1.3,59.27857968512602,
block,objects,objects068.bmp,,,,,0,170,170,170,,,,,,,,,,,,,,,,,,,,,,,,,,,,,,,,,,,,,,,,,,None,,327.6824507600395,None,327.6824507600395,None,2022-03-07-11:34:46.892614,327.69314610003494,327.9990605999483,327.69314610003494,None,None,327.69314610003494,None,328.49903765995987,None,,,,11012,0001,2022_Mar_07_1129,localizer,2021.1.3,59.27857968512602,
block,objects,objects038.bmp,,,,,0,171,171,171,,,,,,,,,,,,,,,,,,,,,,,,,,,,,,,,,,,,,,,,,,None,,328.49903765995987,None,328.49903765995987,None,2022-03-07-11:34:47.709260,328.5078701999737,328.8162342000287,328.5078701999737,None,None,328.5078701999737,None,329.31628065998666,None,,,,11012,0001,2022_Mar_07_1129,localizer,2021.1.3,59.27857968512602,
block,objects,objects011.bmp,,,,,0,172,172,172,,,,,,,,,,,,,,,,,,,,,,,,,,,,,,,,,,,,,,,,,,None,,329.31628065998666,None,329.31628065998666,None,2022-03-07-11:34:48.526418,329.3269025000045,329.6319972999627,329.3269025000045,None,None,329.3269025000045,None,330.13474225997925,None,,,,11012,0001,2022_Mar_07_1129,localizer,2021.1.3,59.27857968512602,
block,objects,objects078.bmp,,,,,0,173,173,173,,,,,,,,,,,,,,,,,,,,,,,,,,,,,,,,,,,,,,,,,,None,,330.13474225997925,None,330.13474225997925,None,2022-03-07-11:34:49.346939,330.14763969997875,330.44945980003104,330.14763969997875,None,None,330.14763969997875,None,330.94925905996934,None,,,,11012,0001,2022_Mar_07_1129,localizer,2021.1.3,59.27857968512602,
block,objects,objects033.bmp,,,,,0,174,174,174,,,,,,,,,,,,,,,,,,,,,,,,,,,,,,,,,,,,,,,,,,None,,330.94925905996934,None,330.94925905996934,None,2022-03-07-11:34:50.159792,330.94998110004235,331.26549030002207,330.94998110004235,None,None,330.94998110004235,None,331.7501655599335,None,,,,11012,0001,2022_Mar_07_1129,localizer,2021.1.3,59.27857968512602,
block,objects,objects057.bmp,,,,,0,175,175,175,,,,,,,,,,,,,,,,,,,,,,,,,,,,,,,,,,,,,,,,,,None,,331.7501655599335,None,331.7501655599335,None,2022-03-07-11:34:50.963324,331.7529739999445,332.06591839995235,331.7529739999445,331.7529739999445,None,331.7529739999445,331.7529739999445,332.56648045999464,None,,,,11012,0001,2022_Mar_07_1129,localizer,2021.1.3,59.27857968512602,
block,objects,objects019.bmp,,,,,0,176,176,176,,,,,,,,,,,,,,,,,,,,,,,,,,,,,,,,,,,,,,,,,,None,,332.56648045999464,None,332.56648045999464,None,2022-03-07-11:34:51.775894,332.5737478999654,332.88275570003316,332.5737478999654,None,None,332.5737478999654,None,333.38325126003474,None,,,,11012,0001,2022_Mar_07_1129,localizer,2021.1.3,59.27857968512602,
block,objects,objects021.bmp,,,,,0,177,177,177,,,,,,,,,,,,,,,,,,,,,,,,,,,,,,,,,,,,,,,,,,None,,333.38325126003474,None,333.38325126003474,None,2022-03-07-11:34:52.594250,333.3839081999613,333.69954309996683,333.3839081999613,None,None,333.3839081999613,None,334.199489659979,None,,,,11012,0001,2022_Mar_07_1129,localizer,2021.1.3,59.27857968512602,
block,objects,objects074.bmp,,,,,0,178,178,178,,,,,,,,,,,,,,,,,,,,,,,,,,,,,,,,,,,,,,,,,,None,,334.199489659979,None,334.199489659979,None,2022-03-07-11:34:53.409648,334.209123800043,334.52170469996054,334.209123800043,None,None,334.209123800043,None,335.01541115995497,None,,,,11012,0001,2022_Mar_07_1129,localizer,2021.1.3,59.27857968512602,
block,objects,objects073.bmp,,,,,0,179,179,179,,,,,,,,,,,,,,,,,,,,,,,,,,,,,,,,,,,,,,,,,,None,,335.01541115995497,None,335.01541115995497,None,2022-03-07-11:34:54.225118,335.01730529998895,335.3163100000238,335.01730529998895,None,None,335.01730529998895,None,335.8330219599884,None,,,,11012,0001,2022_Mar_07_1129,localizer,2021.1.3,59.27857968512602,
block,objects,objects051.bmp,,,,,0,180,180,180,,,,,,,,,,,,,,,,,,,,,,,,,,,,,,,,,,,,,,,,,,None,,335.8330219599884,None,335.8330219599884,None,2022-03-07-11:34:55.043367,335.8336931000231,336.14873879996594,335.8336931000231,None,None,335.8336931000231,None,336.6492722600233,None,,,,11012,0001,2022_Mar_07_1129,localizer,2021.1.3,59.27857968512602,
block_end,objects,objects026.bmp,,,,,0,181,181,181,,,,,,,,,,,,,,,,,,,,,,,,,,,,,,,,,,,,,,,,,,None,,336.6492722600233,None,336.6492722600233,None,2022-03-07-11:34:55.859438,336.6592055000365,336.9654296999797,336.6592055000365,None,None,336.6592055000365,None,337.4677624600008,None,,,,11012,0001,2022_Mar_07_1129,localizer,2021.1.3,59.27857968512602,
null_block,null_block,null_block.bmp,,,,,0,182,182,182,,,,,,,,,,,,,,,,,,,,,,,,,,,,,,,,,,,,,,,,,,t,1.746964400052093,337.4693273999728,None,337.4693273999728,None,2022-03-07-11:34:58.441870,339.23259155999403,None,339.23259155999403,None,None,339.23259155999403,None,339.24259359994903,None,,,,11012,0001,2022_Mar_07_1129,localizer,2021.1.3,59.27857968512602,
block_start,scrambled,scrambled045.bmp,,,,,0,183,183,183,,,,,,,,,,,,,,,,,,,,,,,,,,,,,,,,,,,,,,,,,,t,1.9670937999617308,351.24907080002595,None,351.24907080002595,None,2022-03-07-11:35:12.445515,353.2350356000243,353.5349124999484,353.2350356000243,None,None,353.2350356000243,None,354.04958876001183,None,,,,11012,0001,2022_Mar_07_1129,localizer,2021.1.3,59.27857968512602,
block,scrambled,scrambled021.bmp,,,,,0,184,184,184,,,,,,,,,,,,,,,,,,,,,,,,,,,,,,,,,,,,,,,,,,None,,354.04958876001183,None,354.04958876001183,None,2022-03-07-11:35:13.259966,354.08853680000175,354.39931130001787,354.08853680000175,None,None,354.08853680000175,None,354.8660217600409,None,,,,11012,0001,2022_Mar_07_1129,localizer,2021.1.3,59.27857968512602,
block,scrambled,scrambled068.bmp,,,,,0,185,185,185,,,,,,,,,,,,,,,,,,,,,,,,,,,,,,,,,,,,,,,,,,None,,354.8660217600409,None,354.8660217600409,None,2022-03-07-11:35:14.076185,354.87212209997233,355.18258100003004,354.87212209997233,None,None,354.87212209997233,None,355.6825666599907,None,,,,11012,0001,2022_Mar_07_1129,localizer,2021.1.3,59.27857968512602,
block,scrambled,scrambled040.bmp,,,,,0,186,186,186,,,,,,,,,,,,,,,,,,,,,,,,,,,,,,,,,,,,,,,,,,None,,355.6825666599907,None,355.6825666599907,None,2022-03-07-11:35:14.892936,355.6834020999959,356.00296099996194,355.6834020999959,None,None,355.6834020999959,None,356.4861354599707,None,,,,11012,0001,2022_Mar_07_1129,localizer,2021.1.3,59.27857968512602,
block,scrambled,scrambled010.bmp,,,,,0,187,187,187,,,,,,,,,,,,,,,,,,,,,,,,,,,,,,,,,,,,,,,,,,None,,356.4861354599707,None,356.4861354599707,None,2022-03-07-11:35:15.701447,356.4988732000347,356.7988817000296,356.4988732000347,356.4988732000347,None,356.4988732000347,356.4988732000347,357.2990263600368,None,,,,11012,0001,2022_Mar_07_1129,localizer,2021.1.3,59.27857968512602,
block,scrambled,scrambled044.bmp,,,,,0,188,188,188,,,,,,,,,,,,,,,,,,,,,,,,,,,,,,,,,,,,,,,,,,None,,357.2990263600368,None,357.2990263600368,None,2022-03-07-11:35:16.508141,357.3004197999835,357.6158179999329,357.3004197999835,None,None,357.3004197999835,None,358.0994295600103,None,,,,11012,0001,2022_Mar_07_1129,localizer,2021.1.3,59.27857968512602,
block,scrambled,scrambled012.bmp,,,,,0,189,189,189,,,,,,,,,,,,,,,,,,,,,,,,,,,,,,,,,,,,,,,,,,None,,358.0994295600103,None,358.0994295600103,None,2022-03-07-11:35:17.311818,358.1118115000427,358.41611969994847,358.1118115000427,358.1118115000427,None,358.1118115000427,358.1118115000427,358.9158250599867,None,,,,11012,0001,2022_Mar_07_1129,localizer,2021.1.3,59.27857968512602,
block,scrambled,scrambled050.bmp,,,,,0,190,190,190,,,,,,,,,,,,,,,,,,,,,,,,,,,,,,,,,,,,,,,,,,None,,358.9158250599867,None,358.9158250599867,None,2022-03-07-11:35:18.125992,358.9166890999768,359.2160184000386,358.9166890999768,None,None,358.9166890999768,None,359.71609225997236,None,,,,11012,0001,2022_Mar_07_1129,localizer,2021.1.3,59.27857968512602,
block,scrambled,scrambled074.bmp,,,,,0,191,191,191,,,,,,,,,,,,,,,,,,,,,,,,,,,,,,,,,,,,,,,,,,None,,359.71609225997236,None,359.71609225997236,None,2022-03-07-11:35:18.928248,359.7170427000383,360.016278999974,359.7170427000383,359.7170427000383,None,359.7170427000383,359.7170427000383,360.5321012600325,None,,,,11012,0001,2022_Mar_07_1129,localizer,2021.1.3,59.27857968512602,
block,scrambled,scrambled053.bmp,,,,,0,192,192,192,,,,,,,,,,,,,,,,,,,,,,,,,,,,,,,,,,,,,,,,,,None,,360.5321012600325,None,360.5321012600325,None,2022-03-07-11:35:19.741357,360.5343223999953,360.8490163999377,360.5343223999953,None,None,360.5343223999953,None,361.34895886003505,None,,,,11012,0001,2022_Mar_07_1129,localizer,2021.1.3,59.27857968512602,
block,scrambled,scrambled081.bmp,,,,,0,193,193,193,,,,,,,,,,,,,,,,,,,,,,,,,,,,,,,,,,,,,,,,,,None,,361.34895886003505,None,361.34895886003505,None,2022-03-07-11:35:20.557958,361.3507221000036,361.66574980004225,361.3507221000036,None,None,361.3507221000036,None,362.1497950599296,None,,,,11012,0001,2022_Mar_07_1129,localizer,2021.1.3,59.27857968512602,
block,scrambled,scrambled015.bmp,,,,,0,194,194,194,,,,,,,,,,,,,,,,,,,,,,,,,,,,,,,,,,,,,,,,,,None,,362.1497950599296,None,362.1497950599296,None,2022-03-07-11:35:21.362145,362.15149780001957,362.4661834000144,362.15149780001957,362.15149780001957,None,362.15149780001957,362.15149780001957,362.96565165999345,None,,,,11012,0001,2022_Mar_07_1129,localizer,2021.1.3,59.27857968512602,
block,scrambled,scrambled071.bmp,,,,,0,195,195,195,,,,,,,,,,,,,,,,,,,,,,,,,,,,,,,,,,,,,,,,,,None,,362.96565165999345,None,362.96565165999345,None,2022-03-07-11:35:22.174827,362.9670904999366,363.2721573000308,362.9670904999366,None,None,362.9670904999366,None,363.7825371599756,None,,,,11012,0001,2022_Mar_07_1129,localizer,2021.1.3,59.27857968512602,
block,scrambled,scrambled035.bmp,,,,,0,196,196,196,,,,,,,,,,,,,,,,,,,,,,,,,,,,,,,,,,,,,,,,,,None,,363.7825371599756,None,363.7825371599756,None,2022-03-07-11:35:22.993125,363.79251199995633,364.0988523999695,363.79251199995633,None,None,363.79251199995633,None,364.59916195995174,None,,,,11012,0001,2022_Mar_07_1129,localizer,2021.1.3,59.27857968512602,
block_end,scrambled,scrambled069.bmp,,,,,0,197,197,197,,,,,,,,,,,,,,,,,,,,,,,,,,,,,,,,,,,,,,,,,,None,,364.59916195995174,None,364.59916195995174,None,2022-03-07-11:35:23.809326,364.6084991999669,364.9158962999936,364.6084991999669,None,None,364.6084991999669,None,365.41581346001476,None,,,,11012,0001,2022_Mar_07_1129,localizer,2021.1.3,59.27857968512602,
block_start,faces,faces049.bmp,,,,,0,198,198,198,,,,,,,,,,,,,,,,,,,,,,,,,,,,,,,,,,,,,,,,,,t,1.7995265000499785,365.4156745999353,None,365.4156745999353,None,2022-03-07-11:35:26.439798,367.23480770003516,367.5490872999653,367.23480770003516,None,None,367.23480770003516,None,368.05057365994435,None,,,,11012,0001,2022_Mar_07_1129,localizer,2021.1.3,59.27857968512602,
block,faces,faces051.bmp,,,,,0,199,199,199,,,,,,,,,,,,,,,,,,,,,,,,,,,,,,,,,,,,,,,,,,None,,368.05057365994435,None,368.05057365994435,None,2022-03-07-11:35:27.260907,368.0510327999946,368.3661400999408,368.0510327999946,None,None,368.0510327999946,None,368.86621355998795,None,,,,11012,0001,2022_Mar_07_1129,localizer,2021.1.3,59.27857968512602,
block,faces,faces075.bmp,,,,,0,200,200,200,,,,,,,,,,,,,,,,,,,,,,,,,,,,,,,,,,,,,,,,,,None,,368.86621355998795,None,368.86621355998795,None,2022-03-07-11:35:28.076562,368.86700810003094,369.1823561999481,368.86700810003094,None,None,368.86700810003094,None,369.6822846599389,None,,,,11012,0001,2022_Mar_07_1129,localizer,2021.1.3,59.27857968512602,
block,faces,faces072.bmp,,,,,0,201,201,201,,,,,,,,,,,,,,,,,,,,,,,,,,,,,,,,,,,,,,,,,,None,,369.6822846599389,None,369.6822846599389,None,2022-03-07-11:35:28.891458,369.69138360000215,370.00548880000133,369.69138360000215,None,None,369.69138360000215,None,370.4999673599377,None,,,,11012,0001,2022_Mar_07_1129,localizer,2021.1.3,59.27857968512602,
block,faces,faces067.bmp,,,,,0,202,202,202,,,,,,,,,,,,,,,,,,,,,,,,,,,,,,,,,,,,,,,,,,None,,370.4999673599377,None,370.4999673599377,None,2022-03-07-11:35:29.710306,370.5125450999476,370.81579100003,370.5125450999476,None,None,370.5125450999476,None,371.3157552599441,None,,,,11012,0001,2022_Mar_07_1129,localizer,2021.1.3,59.27857968512602,
block,faces,faces026.bmp,,,,,0,203,203,203,,,,,,,,,,,,,,,,,,,,,,,,,,,,,,,,,,,,,,,,,,None,,371.3157552599441,None,371.3157552599441,None,2022-03-07-11:35:30.524997,371.3528304999927,371.6657710999716,371.3528304999927,None,None,371.3528304999927,None,372.13377176003996,None,,,,11012,0001,2022_Mar_07_1129,localizer,2021.1.3,59.27857968512602,
block,faces,faces012.bmp,,,,,0,204,204,204,,,,,,,,,,,,,,,,,,,,,,,,,,,,,,,,,,,,,,,,,,None,,372.13377176003996,None,372.13377176003996,None,2022-03-07-11:35:31.344919,372.13475880003534,372.4336285999743,372.13475880003534,None,None,372.13475880003534,None,372.95034795999527,None,,,,11012,0001,2022_Mar_07_1129,localizer,2021.1.3,59.27857968512602,
block,faces,faces042.bmp,,,,,0,205,205,205,,,,,,,,,,,,,,,,,,,,,,,,,,,,,,,,,,,,,,,,,,None,,372.95034795999527,None,372.95034795999527,None,2022-03-07-11:35:32.162494,372.9623104999773,373.26595889998134,372.9623104999773,None,None,372.9623104999773,None,373.766879659961,None,,,,11012,0001,2022_Mar_07_1129,localizer,2021.1.3,59.27857968512602,
block,faces,faces080.bmp,,,,,0,206,206,206,,,,,,,,,,,,,,,,,,,,,,,,,,,,,,,,,,,,,,,,,,None,,373.766879659961,None,373.766879659961,None,2022-03-07-11:35:32.977245,373.7689276000019,374.08237580000423,373.7689276000019,None,None,373.7689276000019,None,374.582581560011,None,,,,11012,0001,2022_Mar_07_1129,localizer,2021.1.3,59.27857968512602,
block,faces,faces062.bmp,,,,,0,207,207,207,,,,,,,,,,,,,,,,,,,,,,,,,,,,,,,,,,,,,,,,,,None,,374.582581560011,None,374.582581560011,None,2022-03-07-11:35:33.792719,374.5839866999304,374.8992584999651,374.5839866999304,None,None,374.5839866999304,None,375.39924595993944,None,,,,11012,0001,2022_Mar_07_1129,localizer,2021.1.3,59.27857968512602,
block,faces,faces048.bmp,,,,,0,208,208,208,,,,,,,,,,,,,,,,,,,,,,,,,,,,,,,,,,,,,,,,,,None,,375.39924595993944,None,375.39924595993944,None,2022-03-07-11:35:34.609411,375.400159599958,375.6994749000296,375.400159599958,None,None,375.400159599958,None,376.19996275997255,None,,,,11012,0001,2022_Mar_07_1129,localizer,2021.1.3,59.27857968512602,
block,faces,faces068.bmp,,,,,0,209,209,209,,,,,,,,,,,,,,,,,,,,,,,,,,,,,,,,,,,,,,,,,,None,,376.19996275997255,None,376.19996275997255,None,2022-03-07-11:35:35.412243,376.2167546999408,376.5159195000306,376.2167546999408,376.2167546999408,None,376.2167546999408,376.2167546999408,377.01582205994055,None,,,,11012,0001,2022_Mar_07_1129,localizer,2021.1.3,59.27857968512602,
block,faces,faces046.bmp,,,,,0,210,210,210,,,,,,,,,,,,,,,,,,,,,,,,,,,,,,,,,,,,,,,,,,None,,377.01582205994055,None,377.01582205994055,None,2022-03-07-11:35:36.225479,377.0168666000245,377.3328032999998,377.0168666000245,None,None,377.0168666000245,None,377.81589485995937,None,,,,11012,0001,2022_Mar_07_1129,localizer,2021.1.3,59.27857968512602,
block,faces,faces046.bmp,,,,,0,211,211,211,,,,,,,,,,,,,,,,,,,,,,,,,,,,,,,,,,,,,,,,,,None,,377.81589485995937,None,377.81589485995937,None,2022-03-07-11:35:37.028094,377.81670369999483,378.1158635999309,377.81670369999483,377.81670369999483,None,377.81670369999483,377.81670369999483,378.61592926003505,None,,,,11012,0001,2022_Mar_07_1129,localizer,2021.1.3,59.27857968512602,
block_end,faces,faces003.bmp,,,,,0,212,212,212,,,,,,,,,,,,,,,,,,,,,,,,,,,,,,,,,,,,,,,,,,None,,378.61592926003505,None,378.61592926003505,None,2022-03-07-11:35:37.827542,378.6177509999834,378.93228009995073,378.6177509999834,378.6177509999834,None,378.6177509999834,378.6177509999834,379.4328369599534,None,,,,11012,0001,2022_Mar_07_1129,localizer,2021.1.3,59.27857968512602,
block_start,scenes,scenes061.bmp,,,,,0,213,213,213,,,,,,,,,,,,,,,,,,,,,,,,,,,,,,,,,,,,,,,,,,t,1.7823873000452295,379.4325585999759,None,379.4325585999759,None,2022-03-07-11:35:40.444699,381.2344487999799,381.54919589997735,381.2344487999799,None,None,381.2344487999799,None,382.04906195995864,None,,,,11012,0001,2022_Mar_07_1129,localizer,2021.1.3,59.27857968512602,
block,scenes,scenes079.bmp,,,,,0,214,214,214,,,,,,,,,,,,,,,,,,,,,,,,,,,,,,,,,,,,,,,,,,None,,382.04906195995864,None,382.04906195995864,None,2022-03-07-11:35:41.259231,382.05039590003435,382.366047999938,382.05039590003435,None,None,382.05039590003435,None,382.849508460029,None,,,,11012,0001,2022_Mar_07_1129,localizer,2021.1.3,59.27857968512602,
block,scenes,scenes038.bmp,,,,,0,215,215,215,,,,,,,,,,,,,,,,,,,,,,,,,,,,,,,,,,,,,,,,,,None,,382.849508460029,None,382.849508460029,None,2022-03-07-11:35:42.061881,382.8617348000407,383.1654725000262,382.8617348000407,382.8617348000407,None,382.8617348000407,382.8617348000407,383.6663884599693,None,,,,11012,0001,2022_Mar_07_1129,localizer,2021.1.3,59.27857968512602,
block,scenes,scenes089.bmp,,,,,0,216,216,216,,,,,,,,,,,,,,,,,,,,,,,,,,,,,,,,,,,,,,,,,,None,,383.6663884599693,None,383.6663884599693,None,2022-03-07-11:35:42.876758,383.66709410003386,383.9825247999979,383.66709410003386,None,None,383.66709410003386,None,384.46710025996435,None,,,,11012,0001,2022_Mar_07_1129,localizer,2021.1.3,59.27857968512602,
block,scenes,scenes087.bmp,,,,,0,217,217,217,,,,,,,,,,,,,,,,,,,,,,,,,,,,,,,,,,,,,,,,,,None,,384.46710025996435,None,384.46710025996435,None,2022-03-07-11:35:43.681226,384.4702311999863,384.78329659998417,384.4702311999863,384.4702311999863,None,384.4702311999863,384.4702311999863,385.28231065999717,None,,,,11012,0001,2022_Mar_07_1129,localizer,2021.1.3,59.27857968512602,
block,scenes,scenes006.bmp,,,,,0,218,218,218,,,,,,,,,,,,,,,,,,,,,,,,,,,,,,,,,,,,,,,,,,None,,385.28231065999717,None,385.28231065999717,None,2022-03-07-11:35:44.491488,385.2841420000186,385.5998468999751,385.2841420000186,None,None,385.2841420000186,None,386.09932346001733,None,,,,11012,0001,2022_Mar_07_1129,localizer,2021.1.3,59.27857968512602,
block,scenes,scenes090.bmp,,,,,0,219,219,219,,,,,,,,,,,,,,,,,,,,,,,,,,,,,,,,,,,,,,,,,,None,,386.09932346001733,None,386.09932346001733,None,2022-03-07-11:35:45.309493,386.1087070000358,386.4157822999405,386.1087070000358,None,None,386.1087070000358,None,386.9164050599793,None,,,,11012,0001,2022_Mar_07_1129,localizer,2021.1.3,59.27857968512602,
block,scenes,scenes008.bmp,,,,,0,220,220,220,,,,,,,,,,,,,,,,,,,,,,,,,,,,,,,,,,,,,,,,,,None,,386.9164050599793,None,386.9164050599793,None,2022-03-07-11:35:46.126626,386.9170317000244,387.2162798999343,386.9170317000244,None,None,386.9170317000244,None,387.7327051599277,None,,,,11012,0001,2022_Mar_07_1129,localizer,2021.1.3,59.27857968512602,
block,scenes,scenes080.bmp,,,,,0,221,221,221,,,,,,,,,,,,,,,,,,,,,,,,,,,,,,,,,,,,,,,,,,None,,387.7327051599277,None,387.7327051599277,None,2022-03-07-11:35:46.942871,387.7433086000383,388.049525899929,387.7433086000383,None,None,387.7433086000383,None,388.5393660599366,None,,,,11012,0001,2022_Mar_07_1129,localizer,2021.1.3,59.27857968512602,
block,scenes,scenes088.bmp,,,,,0,222,222,222,,,,,,,,,,,,,,,,,,,,,,,,,,,,,,,,,,,,,,,,,,None,,388.5393660599366,None,388.5393660599366,None,2022-03-07-11:35:47.754528,388.5587642999599,388.8677719000261,388.5587642999599,None,None,388.5587642999599,None,389.34898686001543,None,,,,11012,0001,2022_Mar_07_1129,localizer,2021.1.3,59.27857968512602,
block,scenes,scenes069.bmp,,,,,0,223,223,223,,,,,,,,,,,,,,,,,,,,,,,,,,,,,,,,,,,,,,,,,,None,,389.34898686001543,None,389.34898686001543,None,2022-03-07-11:35:48.558163,389.35043540003244,389.6660237000324,389.35043540003244,None,None,389.35043540003244,None,390.16623855999205,None,,,,11012,0001,2022_Mar_07_1129,localizer,2021.1.3,59.27857968512602,
block,scenes,scenes084.bmp,,,,,0,224,224,224,,,,,,,,,,,,,,,,,,,,,,,,,,,,,,,,,,,,,,,,,,None,,390.16623855999205,None,390.16623855999205,None,2022-03-07-11:35:49.376407,390.16693629999645,390.4662165000336,390.16693629999645,None,None,390.16693629999645,None,390.9661928600399,None,,,,11012,0001,2022_Mar_07_1129,localizer,2021.1.3,59.27857968512602,
block,scenes,scenes026.bmp,,,,,0,225,225,225,,,,,,,,,,,,,,,,,,,,,,,,,,,,,,,,,,,,,,,,,,None,,390.9661928600399,None,390.9661928600399,None,2022-03-07-11:35:50.177637,390.9670040999772,391.2662906999467,390.9670040999772,390.9670040999772,None,390.9670040999772,390.9670040999772,391.76603755995166,None,,,,11012,0001,2022_Mar_07_1129,localizer,2021.1.3,59.27857968512602,
block,scenes,scenes002.bmp,,,,,0,226,226,226,,,,,,,,,,,,,,,,,,,,,,,,,,,,,,,,,,,,,,,,,,None,,391.76603755995166,None,391.76603755995166,None,2022-03-07-11:35:50.978200,391.7767499999609,392.08276000001933,391.7767499999609,391.7767499999609,None,391.7767499999609,391.7767499999609,392.5823114599334,None,,,,11012,0001,2022_Mar_07_1129,localizer,2021.1.3,59.27857968512602,
block_end,scenes,scenes044.bmp,,,,,0,227,227,227,,,,,,,,,,,,,,,,,,,,,,,,,,,,,,,,,,,,,,,,,,None,,392.5823114599334,None,392.5823114599334,None,2022-03-07-11:35:51.791352,392.58450250001624,392.89932039997075,392.58450250001624,None,None,392.58450250001624,None,393.3994096600218,None,,,,11012,0001,2022_Mar_07_1129,localizer,2021.1.3,59.27857968512602,
block_start,objects,objects033.bmp,,,,,0,228,228,228,,,,,,,,,,,,,,,,,,,,,,,,,,,,,,,,,,,,,,,,,,t,1.8157235000981018,393.3992383000441,None,393.3992383000441,None,2022-03-07-11:35:54.443569,395.2338624999393,395.549172500032,395.2338624999393,None,None,395.2338624999393,None,396.049402559991,None,,,,11012,0001,2022_Mar_07_1129,localizer,2021.1.3,59.27857968512602,
block,objects,objects074.bmp,,,,,0,229,229,229,,,,,,,,,,,,,,,,,,,,,,,,,,,,,,,,,,,,,,,,,,None,,396.049402559991,None,396.049402559991,None,2022-03-07-11:35:55.259541,396.05024270003196,396.3494064999977,396.05024270003196,None,None,396.05024270003196,None,396.8493607599521,None,,,,11012,0001,2022_Mar_07_1129,localizer,2021.1.3,59.27857968512602,
block,objects,objects087.bmp,,,,,0,230,230,230,,,,,,,,,,,,,,,,,,,,,,,,,,,,,,,,,,,,,,,,,,None,,396.8493607599521,None,396.8493607599521,None,2022-03-07-11:35:56.061521,396.8604472000152,397.1671253000386,396.8604472000152,396.8604472000152,None,396.8604472000152,396.8604472000152,397.66732115997,None,,,,11012,0001,2022_Mar_07_1129,localizer,2021.1.3,59.27857968512602,
block,objects,objects063.bmp,,,,,0,231,231,231,,,,,,,,,,,,,,,,,,,,,,,,,,,,,,,,,,,,,,,,,,None,,397.66732115997,None,397.66732115997,None,2022-03-07-11:35:56.878653,397.66808740003034,397.96730769996066,397.66808740003034,None,None,397.66808740003034,None,398.4671736599412,None,,,,11012,0001,2022_Mar_07_1129,localizer,2021.1.3,59.27857968512602,
block,objects,objects004.bmp,,,,,0,232,232,232,,,,,,,,,,,,,,,,,,,,,,,,,,,,,,,,,,,,,,,,,,None,,398.4671736599412,None,398.4671736599412,None,2022-03-07-11:35:57.680505,398.4694097000174,398.78310490003787,398.4694097000174,398.4694097000174,None,398.4694097000174,398.4694097000174,399.2827250600094,None,,,,11012,0001,2022_Mar_07_1129,localizer,2021.1.3,59.27857968512602,
block,objects,objects054.bmp,,,,,0,233,233,233,,,,,,,,,,,,,,,,,,,,,,,,,,,,,,,,,,,,,,,,,,None,,399.2827250600094,None,399.2827250600094,None,2022-03-07-11:35:58.491903,399.29055619996507,399.5996847000206,399.29055619996507,None,None,399.29055619996507,None,400.0993367600022,None,,,,11012,0001,2022_Mar_07_1129,localizer,2021.1.3,59.27857968512602,
block,objects,objects046.bmp,,,,,0,234,234,234,,,,,,,,,,,,,,,,,,,,,,,,,,,,,,,,,,,,,,,,,,None,,400.0993367600022,None,400.0993367600022,None,2022-03-07-11:35:59.310003,400.1078551999526,400.41643540002406,400.1078551999526,None,None,400.1078551999526,None,400.9159960600082,None,,,,11012,0001,2022_Mar_07_1129,localizer,2021.1.3,59.27857968512602,
block,objects,objects077.bmp,,,,,0,235,235,235,,,,,,,,,,,,,,,,,,,,,,,,,,,,,,,,,,,,,,,,,,None,,400.9159960600082,None,400.9159960600082,None,2022-03-07-11:36:00.126164,400.9169166999636,401.2323143000249,400.9169166999636,None,None,400.9169166999636,None,401.7163091599941,None,,,,11012,0001,2022_Mar_07_1129,localizer,2021.1.3,59.27857968512602,
block,objects,objects005.bmp,,,,,0,236,236,236,,,,,,,,,,,,,,,,,,,,,,,,,,,,,,,,,,,,,,,,,,None,,401.7163091599941,None,401.7163091599941,None,2022-03-07-11:36:00.928364,401.7282581999898,402.032583000022,401.7282581999898,401.7282581999898,None,401.7282581999898,401.7282581999898,402.5327320599463,None,,,,11012,0001,2022_Mar_07_1129,localizer,2021.1.3,59.27857968512602,
block,objects,objects082.bmp,,,,,0,237,237,237,,,,,,,,,,,,,,,,,,,,,,,,,,,,,,,,,,,,,,,,,,None,,402.5327320599463,None,402.5327320599463,None,2022-03-07-11:36:01.742898,402.5419963999884,402.8494599999394,402.5419963999884,None,None,402.5419963999884,None,403.3496373599628,None,,,,11012,0001,2022_Mar_07_1129,localizer,2021.1.3,59.27857968512602,
block,objects,objects015.bmp,,,,,0,238,238,238,,,,,,,,,,,,,,,,,,,,,,,,,,,,,,,,,,,,,,,,,,None,,403.3496373599628,None,403.3496373599628,None,2022-03-07-11:36:02.559804,403.3594849000219,403.6657283999957,403.3594849000219,None,None,403.3594849000219,None,404.1665183600271,None,,,,11012,0001,2022_Mar_07_1129,localizer,2021.1.3,59.27857968512602,
block,objects,objects012.bmp,,,,,0,239,239,239,,,,,,,,,,,,,,,,,,,,,,,,,,,,,,,,,,,,,,,,,,None,,404.1665183600271,None,404.1665183600271,None,2022-03-07-11:36:03.376683,404.1774075999856,404.4831980000017,404.1774075999856,None,None,404.1774075999856,None,404.9864637600258,None,,,,11012,0001,2022_Mar_07_1129,localizer,2021.1.3,59.27857968512602,
block,objects,objects047.bmp,,,,,0,240,240,240,,,,,,,,,,,,,,,,,,,,,,,,,,,,,,,,,,,,,,,,,,None,,404.9864637600258,None,404.9864637600258,None,2022-03-07-11:36:04.202418,405.0019543999806,405.31650419998914,405.0019543999806,None,None,405.0019543999806,None,405.79964635998476,None,,,,11012,0001,2022_Mar_07_1129,localizer,2021.1.3,59.27857968512602,
block,objects,objects020.bmp,,,,,0,241,241,241,,,,,,,,,,,,,,,,,,,,,,,,,,,,,,,,,,,,,,,,,,None,,405.79964635998476,None,405.79964635998476,None,2022-03-07-11:36:05.009905,405.80968619999476,406.1165274999803,405.80968619999476,None,None,405.80968619999476,None,406.6162291599903,None,,,,11012,0001,2022_Mar_07_1129,localizer,2021.1.3,59.27857968512602,
block_end,objects,objects065.bmp,,,,,0,242,242,242,,,,,,,,,,,,,,,,,,,,,,,,,,,,,,,,,,,,,,,,,,None,,406.6162291599903,None,406.6162291599903,None,2022-03-07-11:36:05.826411,406.6172423999524,406.9364317000145,406.6172423999524,None,None,406.6172423999524,None,407.41636356001254,None,,,,11012,0001,2022_Mar_07_1129,localizer,2021.1.3,59.27857968512602,
null_block,null_block,null_block.bmp,,,,,0,243,243,243,,,,,,,,,,,,,,,,,,,,,,,,,,,,,,,,,,,,,,,,,,t,1.7993980000028387,407.4159806999378,None,407.4159806999378,None,2022-03-07-11:36:08.442104,409.2337315599434,None,409.2337315599434,None,None,409.2337315599434,None,409.23406359995715,None,,,,11012,0001,2022_Mar_07_1129,localizer,2021.1.3,59.27857968512602,
,,,,,,,,,,,,,,,,,,,,,,,,,,,,,,,,,,,,,,,,,,,,,,,,,,,,,,,,,,,,,,,,,,,,,421.2328167000087,None,,,,,,,
