block_type,condition,img_name,Button.thisRepN,Button.thisTrialN,Button.thisN,Button.thisIndex,trials.thisRepN,trials.thisTrialN,trials.thisN,trials.thisIndex,Ready_experimenter_text.started,Ready_experimenter_text.stopped,Ready_experimenter_resp.keys,Ready_experimenter_resp.rt,Ready_experimenter_resp.started,Ready_experimenter_resp.stopped,Alignment_background.started,Alignment_background.stopped,Alignment_image.started,Alignment_image.stopped,Alignment_resp.keys,Alignment_resp.rt,Alignment_resp.started,Alignment_resp.stopped,Button_text.started,Button_text.stopped,Index_text.started,Index_text.stopped,Index_resp.keys,Index_resp.rt,Index_resp.started,Index_resp.stopped,Middle_text.started,Middle_text.stopped,Middle_resp.keys,Middle_resp.rt,Middle_resp.started,Middle_resp.stopped,Repeat_text.started,Repeat_text.stopped,Repeat_resp.keys,Repeat_resp.corr,Repeat_resp.rt,Repeat_resp.started,Repeat_resp.stopped,instruction_text.started,instruction_text.stopped,key_resp.keys,key_resp.rt,key_resp.started,key_resp.stopped,scanner_t.keys,scanner_t.rt,scanner_t.started,scanner_t.stopped,fixation_wait_for_t.started,fixation_wait_for_t.stopped,real_timestamp_trial_start,image.started,image.stopped,fixation.started,fixation.stopped,repeat_response.keys,repeat_response.started,repeat_response.stopped,fixation_null.started,fixation_null.stopped,repeat_response.rt,end_text.started,end_text.stopped,participant,run,date,expName,psychopyVersion,frameRate,
,,,,,,,,,,,10.625073799863458,None,return,53.51280769985169,10.625073799863458,None,,,,,,,,,,,,,,,,,,,,,,,,,,,,,,,,,,,,,,,,,,,,,,,,,,,,,,,12017,0001,2022_May_20_1348,localizer,2021.1.3,59.43677715636204,
,,,,,,,,,,,,,,,,,64.184790099971,None,64.184790099971,None,return,6.213738100137562,64.184790099971,None,,,,,,,,,,,,,,,,,,,,,,,,,,,,,,,,,,,,,,,,,,,,,,,12017,0001,2022_May_20_1348,localizer,2021.1.3,59.43677715636204,
,,,0,0,0,0,,,,,,,,,,,,,,,,,,,70.4120888998732,None,71.41438619978726,None,y,2.4463360998779535,71.41438619978726,None,73.88378909998573,None,b,1.2820423999801278,73.88378909998573,None,75.18931819987483,None,n,0,1.6786686999257654,75.18931819987483,None,,,,,,,,,,,,,,,,,,,,,,,,,,12017,0001,2022_May_20_1348,localizer,2021.1.3,59.43677715636204,
,,,,,,,,,,,,,,,,,,,,,,,,,,,,,,,,,,,,,,,,,,,,,,76.89588859979995,None,y,34.96658040001057,76.89588859979995,None,,,,,,,,,,,,,,,,,,,,12017,0001,2022_May_20_1348,localizer,2021.1.3,59.43677715636204,
block_start,objects,objects031.bmp,,,,,0,0,0,0,,,,,,,,,,,,,,,,,,,,,,,,,,,,,,,,,,,,,,,,,,t,19.56826339988038,111.9361765999347,None,111.9361765999347,None,2022-05-20-13:50:40.473260,131.53206809982657,131.84607879980467,131.53206809982657,None,None,131.53206809982657,None,132.34593374994583,None,,,,12017,0001,2022_May_20_1348,localizer,2021.1.3,59.43677715636204,
block,objects,objects072.bmp,,,,,0,1,1,1,,,,,,,,,,,,,,,,,,,,,,,,,,,,,,,,,,,,,,,,,,None,,132.34593374994583,None,132.34593374994583,None,2022-05-20-13:50:41.292933,132.35816579987295,132.66281549981795,132.35816579987295,None,None,132.35816579987295,None,133.1631506498903,None,,,,12017,0001,2022_May_20_1348,localizer,2021.1.3,59.43677715636204,
block,objects,objects015.bmp,,,,,0,2,2,2,,,,,,,,,,,,,,,,,,,,,,,,,,,,,,,,,,,,,,,,,,None,,133.1631506498903,None,133.1631506498903,None,2022-05-20-13:50:42.110624,133.17419699998572,133.48232319997624,133.17419699998572,None,None,133.17419699998572,None,133.98069264986552,None,,,,12017,0001,2022_May_20_1348,localizer,2021.1.3,59.43677715636204,
block,objects,objects043.bmp,,,,,0,3,3,3,,,,,,,,,,,,,,,,,,,,,,,,,,,,,,,,,,,,,,,,,,None,,133.98069264986552,None,133.98069264986552,None,2022-05-20-13:50:42.928676,133.98841839982197,134.29929409991018,133.98841839982197,None,None,133.98841839982197,None,134.79558894983492,None,,,,12017,0001,2022_May_20_1348,localizer,2021.1.3,59.43677715636204,
block,objects,objects011.bmp,,,,,0,4,4,4,,,,,,,,,,,,,,,,,,,,,,,,,,,,,,,,,,,,,,,,,,None,,134.79558894983492,None,134.79558894983492,None,2022-05-20-13:50:43.741880,134.79824509983882,135.1123285999056,134.79824509983882,None,None,134.79824509983882,None,135.59796284991316,None,,,,12017,0001,2022_May_20_1348,localizer,2021.1.3,59.43677715636204,
block,objects,objects027.bmp,,,,,0,5,5,5,,,,,,,,,,,,,,,,,,,,,,,,,,,,,,,,,,,,,,,,,,None,,135.59796284991316,None,135.59796284991316,None,2022-05-20-13:50:44.550181,135.60675529995933,135.9134274998214,135.60675529995933,135.60675529995933,None,135.60675529995933,135.60675529995933,136.41366104981861,None,,,,12017,0001,2022_May_20_1348,localizer,2021.1.3,59.43677715636204,
block,objects,objects045.bmp,,,,,0,6,6,6,,,,,,,,,,,,,,,,,,,,,,,,,,,,,,,,,,,,,,,,,,None,,136.41366104981861,None,136.41366104981861,None,2022-05-20-13:50:45.361101,136.42053769994527,136.72902979981154,136.42053769994527,None,None,136.42053769994527,None,137.22948874989524,None,,,,12017,0001,2022_May_20_1348,localizer,2021.1.3,59.43677715636204,
block,objects,objects084.bmp,,,,,0,7,7,7,,,,,,,,,,,,,,,,,,,,,,,,,,,,,,,,,,,,,,,,,,None,,137.22948874989524,None,137.22948874989524,None,2022-05-20-13:50:46.176511,137.2416663998738,137.54561109980568,137.2416663998738,None,None,137.2416663998738,None,138.04591894978657,None,,,,12017,0001,2022_May_20_1348,localizer,2021.1.3,59.43677715636204,
block,objects,objects073.bmp,,,,,0,8,8,8,,,,,,,,,,,,,,,,,,,,,,,,,,,,,,,,,,,,,,,,,,None,,138.04591894978657,None,138.04591894978657,None,2022-05-20-13:50:46.992206,138.0520428000018,138.3628242998384,138.0520428000018,None,None,138.0520428000018,None,138.86284004980698,None,,,,12017,0001,2022_May_20_1348,localizer,2021.1.3,59.43677715636204,
block,objects,objects066.bmp,,,,,0,9,9,9,,,,,,,,,,,,,,,,,,,,,,,,,,,,,,,,,,,,,,,,,,None,,138.86284004980698,None,138.86284004980698,None,2022-05-20-13:50:47.809127,138.872246599989,139.17860509990714,138.872246599989,None,None,138.872246599989,None,139.6799181498587,None,,,,12017,0001,2022_May_20_1348,localizer,2021.1.3,59.43677715636204,
block,objects,objects030.bmp,,,,,0,10,10,10,,,,,,,,,,,,,,,,,,,,,,,,,,,,,,,,,,,,,,,,,,None,,139.6799181498587,None,139.6799181498587,None,2022-05-20-13:50:48.628366,139.68708439986221,139.99625809979625,139.68708439986221,None,None,139.68708439986221,None,140.49559444994665,None,,,,12017,0001,2022_May_20_1348,localizer,2021.1.3,59.43677715636204,
block,objects,objects071.bmp,,,,,0,11,11,11,,,,,,,,,,,,,,,,,,,,,,,,,,,,,,,,,,,,,,,,,,None,,140.49559444994665,None,140.49559444994665,None,2022-05-20-13:50:49.442102,140.50058819982223,140.81238389993086,140.50058819982223,None,None,140.50058819982223,None,141.31238534990698,None,,,,12017,0001,2022_May_20_1348,localizer,2021.1.3,59.43677715636204,
block,objects,objects001.bmp,,,,,0,12,12,12,,,,,,,,,,,,,,,,,,,,,,,,,,,,,,,,,,,,,,,,,,None,,141.31238534990698,None,141.31238534990698,None,2022-05-20-13:50:50.258682,141.32136789988726,141.6288836998865,141.32136789988726,None,None,141.32136789988726,None,142.1292096498888,None,,,,12017,0001,2022_May_20_1348,localizer,2021.1.3,59.43677715636204,
block,objects,objects008.bmp,,,,,0,13,13,13,,,,,,,,,,,,,,,,,,,,,,,,,,,,,,,,,,,,,,,,,,None,,142.1292096498888,None,142.1292096498888,None,2022-05-20-13:50:51.075944,142.139763899846,142.4456264998298,142.139763899846,None,None,142.139763899846,None,142.94787744982168,None,,,,12017,0001,2022_May_20_1348,localizer,2021.1.3,59.43677715636204,
block_end,objects,objects061.bmp,,,,,0,14,14,14,,,,,,,,,,,,,,,,,,,,,,,,,,,,,,,,,,,,,,,,,,None,,142.94787744982168,None,142.94787744982168,None,2022-05-20-13:50:51.898042,142.95481749996543,143.26314319996163,142.95481749996543,None,None,142.95481749996543,None,143.76305404994636,None,,,,12017,0001,2022_May_20_1348,localizer,2021.1.3,59.43677715636204,
null_block,null_block,null_block.bmp,,,,,0,15,15,15,,,,,,,,,,,,,,,,,,,,,,,,,,,,,,,,,,,,,,,,,,t,1.7414939000736922,143.76292209979147,None,143.76292209979147,None,2022-05-20-13:50:54.474296,145.52899654991924,None,145.52899654991924,None,None,145.52899654991924,None,145.53886749991216,None,,,,12017,0001,2022_May_20_1348,localizer,2021.1.3,59.43677715636204,
block_start,scrambled,scrambled086.bmp,,,,,0,16,16,16,,,,,,,,,,,,,,,,,,,,,,,,,,,,,,,,,,,,,,,,,,t,1.9579702001065016,157.54650429985486,None,157.54650429985486,None,2022-05-20-13:51:08.476906,159.53524050000124,159.84583080001175,159.53524050000124,None,None,159.53524050000124,None,160.3456085497979,None,,,,12017,0001,2022_May_20_1348,localizer,2021.1.3,59.43677715636204,
block,scrambled,scrambled064.bmp,,,,,0,17,17,17,,,,,,,,,,,,,,,,,,,,,,,,,,,,,,,,,,,,,,,,,,None,,160.3456085497979,None,160.3456085497979,None,2022-05-20-13:51:09.291491,160.35625049984083,160.66247429978102,160.35625049984083,None,None,160.35625049984083,None,161.16238114996813,None,,,,12017,0001,2022_May_20_1348,localizer,2021.1.3,59.43677715636204,
block,scrambled,scrambled085.bmp,,,,,0,18,18,18,,,,,,,,,,,,,,,,,,,,,,,,,,,,,,,,,,,,,,,,,,None,,161.16238114996813,None,161.16238114996813,None,2022-05-20-13:51:10.107699,161.16526569984853,161.4792045999784,161.16526569984853,None,None,161.16526569984853,None,161.9795108499471,None,,,,12017,0001,2022_May_20_1348,localizer,2021.1.3,59.43677715636204,
block,scrambled,scrambled069.bmp,,,,,0,19,19,19,,,,,,,,,,,,,,,,,,,,,,,,,,,,,,,,,,,,,,,,,,None,,161.9795108499471,None,161.9795108499471,None,2022-05-20-13:51:10.925801,161.9843350998126,162.28550379979424,161.9843350998126,None,None,161.9843350998126,None,162.79580904999747,None,,,,12017,0001,2022_May_20_1348,localizer,2021.1.3,59.43677715636204,
block,scrambled,scrambled080.bmp,,,,,0,20,20,20,,,,,,,,,,,,,,,,,,,,,,,,,,,,,,,,,,,,,,,,,,None,,162.79580904999747,None,162.79580904999747,None,2022-05-20-13:51:11.741703,162.8044113998767,163.11285809986293,162.8044113998767,None,None,162.8044113998767,None,163.61357584982179,None,,,,12017,0001,2022_May_20_1348,localizer,2021.1.3,59.43677715636204,
block,scrambled,scrambled084.bmp,,,,,0,21,21,21,,,,,,,,,,,,,,,,,,,,,,,,,,,,,,,,,,,,,,,,,,None,,163.61357584982179,None,163.61357584982179,None,2022-05-20-13:51:12.561053,163.6279134999495,163.92922729998827,163.6279134999495,None,None,163.6279134999495,None,164.4300604498945,None,,,,12017,0001,2022_May_20_1348,localizer,2021.1.3,59.43677715636204,
block,scrambled,scrambled060.bmp,,,,,0,22,22,22,,,,,,,,,,,,,,,,,,,,,,,,,,,,,,,,,,,,,,,,,,None,,164.4300604498945,None,164.4300604498945,None,2022-05-20-13:51:13.377360,164.4356691997964,164.74577489984222,164.4356691997964,None,None,164.4356691997964,None,165.24605104993097,None,,,,12017,0001,2022_May_20_1348,localizer,2021.1.3,59.43677715636204,
block,scrambled,scrambled057.bmp,,,,,0,23,23,23,,,,,,,,,,,,,,,,,,,,,,,,,,,,,,,,,,,,,,,,,,None,,165.24605104993097,None,165.24605104993097,None,2022-05-20-13:51:14.192364,165.2499555000104,165.56240679998882,165.2499555000104,None,y,165.2499555000104,None,166.063904049946,None,0.5284370000008494,,,12017,0001,2022_May_20_1348,localizer,2021.1.3,59.43677715636204,
block,scrambled,scrambled014.bmp,,,,,0,24,24,24,,,,,,,,,,,,,,,,,,,,,,,,,,,,,,,,,,,,,,,,,,None,,166.063904049946,None,166.063904049946,None,2022-05-20-13:51:15.012172,166.0722262999043,166.37912749988027,166.0722262999043,None,None,166.0722262999043,None,166.87960464986972,None,,,,12017,0001,2022_May_20_1348,localizer,2021.1.3,59.43677715636204,
block,scrambled,scrambled061.bmp,,,,,0,25,25,25,,,,,,,,,,,,,,,,,,,,,,,,,,,,,,,,,,,,,,,,,,None,,166.87960464986972,None,166.87960464986972,None,2022-05-20-13:51:15.825917,166.88996479986235,167.19575209985487,166.88996479986235,None,None,166.88996479986235,None,167.69596784994937,None,,,,12017,0001,2022_May_20_1348,localizer,2021.1.3,59.43677715636204,
block,scrambled,scrambled067.bmp,,,,,0,26,26,26,,,,,,,,,,,,,,,,,,,,,,,,,,,,,,,,,,,,,,,,,,None,,167.69596784994937,None,167.69596784994937,None,2022-05-20-13:51:16.642427,167.70021319994703,168.01246369979344,167.70021319994703,None,None,167.70021319994703,None,168.5132073498331,None,,,,12017,0001,2022_May_20_1348,localizer,2021.1.3,59.43677715636204,
block,scrambled,scrambled051.bmp,,,,,0,27,27,27,,,,,,,,,,,,,,,,,,,,,,,,,,,,,,,,,,,,,,,,,,None,,168.5132073498331,None,168.5132073498331,None,2022-05-20-13:51:17.460511,168.52453119982965,168.829234899953,168.52453119982965,None,y,168.52453119982965,None,169.32910424997098,None,0.13692059996537864,,,12017,0001,2022_May_20_1348,localizer,2021.1.3,59.43677715636204,
block,scrambled,scrambled053.bmp,,,,,0,28,28,28,,,,,,,,,,,,,,,,,,,,,,,,,,,,,,,,,,,,,,,,,,None,,169.32910424997098,None,169.32910424997098,None,2022-05-20-13:51:18.275424,169.33204189990647,169.6460296998266,169.33204189990647,None,None,169.33204189990647,None,170.1314853498712,None,,,,12017,0001,2022_May_20_1348,localizer,2021.1.3,59.43677715636204,
block,scrambled,scrambled052.bmp,,,,,0,29,29,29,,,,,,,,,,,,,,,,,,,,,,,,,,,,,,,,,,,,,,,,,,None,,170.1314853498712,None,170.1314853498712,None,2022-05-20-13:51:19.083892,170.14322039997205,170.4458560999483,170.14322039997205,170.14322039997205,None,170.14322039997205,170.14322039997205,170.9462556498125,None,,,,12017,0001,2022_May_20_1348,localizer,2021.1.3,59.43677715636204,
block_end,scrambled,scrambled045.bmp,,,,,0,30,30,30,,,,,,,,,,,,,,,,,,,,,,,,,,,,,,,,,,,,,,,,,,None,,170.9462556498125,None,170.9462556498125,None,2022-05-20-13:51:19.892571,170.95123169990256,171.26246519992128,170.95123169990256,None,None,170.95123169990256,None,171.76308554983697,None,,,,12017,0001,2022_May_20_1348,localizer,2021.1.3,59.43677715636204,
block_start,scenes,scenes046.bmp,,,,,0,31,31,31,,,,,,,,,,,,,,,,,,,,,,,,,,,,,,,,,,,,,,,,,,t,1.741872000042349,171.76266709994525,None,171.76266709994525,None,2022-05-20-13:51:22.475001,173.5334710997995,173.84575569978915,173.5334710997995,None,None,173.5334710997995,None,174.34666854995302,None,,,,12017,0001,2022_May_20_1348,localizer,2021.1.3,59.43677715636204,
block,scenes,scenes086.bmp,,,,,0,32,32,32,,,,,,,,,,,,,,,,,,,,,,,,,,,,,,,,,,,,,,,,,,None,,174.34666854995302,None,174.34666854995302,None,2022-05-20-13:51:23.293956,174.35766139999032,174.66242349985987,174.35766139999032,None,None,174.35766139999032,None,175.1631754498463,None,,,,12017,0001,2022_May_20_1348,localizer,2021.1.3,59.43677715636204,
block,scenes,scenes031.bmp,,,,,0,33,33,33,,,,,,,,,,,,,,,,,,,,,,,,,,,,,,,,,,,,,,,,,,None,,175.1631754498463,None,175.1631754498463,None,2022-05-20-13:51:24.109808,175.16724679991603,175.47979059978388,175.16724679991603,None,None,175.16724679991603,None,175.9806709498167,None,,,,12017,0001,2022_May_20_1348,localizer,2021.1.3,59.43677715636204,
block,scenes,scenes004.bmp,,,,,0,34,34,34,,,,,,,,,,,,,,,,,,,,,,,,,,,,,,,,,,,,,,,,,,None,,175.9806709498167,None,175.9806709498167,None,2022-05-20-13:51:24.928152,175.9933136999607,176.29563710000366,175.9933136999607,None,None,175.9933136999607,None,176.79652904989197,None,,,,12017,0001,2022_May_20_1348,localizer,2021.1.3,59.43677715636204,
block,scenes,scenes088.bmp,,,,,0,35,35,35,,,,,,,,,,,,,,,,,,,,,,,,,,,,,,,,,,,,,,,,,,None,,176.79652904989197,None,176.79652904989197,None,2022-05-20-13:51:25.743042,176.80200039991178,177.11250699986704,176.80200039991178,None,None,176.80200039991178,None,177.61243574987165,None,,,,12017,0001,2022_May_20_1348,localizer,2021.1.3,59.43677715636204,
block,scenes,scenes069.bmp,,,,,0,36,36,36,,,,,,,,,,,,,,,,,,,,,,,,,,,,,,,,,,,,,,,,,,None,,177.61243574987165,None,177.61243574987165,None,2022-05-20-13:51:26.558741,177.61501039983705,177.92931259982288,177.61501039983705,None,None,177.61501039983705,None,178.4298506499268,None,,,,12017,0001,2022_May_20_1348,localizer,2021.1.3,59.43677715636204,
block,scenes,scenes012.bmp,,,,,0,37,37,37,,,,,,,,,,,,,,,,,,,,,,,,,,,,,,,,,,,,,,,,,,None,,178.4298506499268,None,178.4298506499268,None,2022-05-20-13:51:27.377392,178.4363897999283,178.74626899999566,178.4363897999283,None,None,178.4363897999283,None,179.24590434986166,None,,,,12017,0001,2022_May_20_1348,localizer,2021.1.3,59.43677715636204,
block,scenes,scenes012.bmp,,,,,0,38,38,38,,,,,,,,,,,,,,,,,,,,,,,,,,,,,,,,,,,,,,,,,,None,,179.24590434986166,None,179.24590434986166,None,2022-05-20-13:51:28.191819,179.24784159986302,179.5624802999664,179.24784159986302,None,y,179.24784159986302,None,180.06281674993224,None,0.5936743000056595,,,12017,0001,2022_May_20_1348,localizer,2021.1.3,59.43677715636204,
block,scenes,scenes007.bmp,,,,,0,39,39,39,,,,,,,,,,,,,,,,,,,,,,,,,,,,,,,,,,,,,,,,,,None,,180.06281674993224,None,180.06281674993224,None,2022-05-20-13:51:29.009145,180.0726443999447,180.3793333999347,180.0726443999447,None,None,180.0726443999447,None,180.8794587498065,None,,,,12017,0001,2022_May_20_1348,localizer,2021.1.3,59.43677715636204,
block,scenes,scenes081.bmp,,,,,0,40,40,40,,,,,,,,,,,,,,,,,,,,,,,,,,,,,,,,,,,,,,,,,,None,,180.8794587498065,None,180.8794587498065,None,2022-05-20-13:51:29.826219,180.88490109983832,181.19590789987706,180.88490109983832,None,None,180.88490109983832,None,181.69592044982127,None,,,,12017,0001,2022_May_20_1348,localizer,2021.1.3,59.43677715636204,
block,scenes,scenes022.bmp,,,,,0,41,41,41,,,,,,,,,,,,,,,,,,,,,,,,,,,,,,,,,,,,,,,,,,None,,181.69592044982127,None,181.69592044982127,None,2022-05-20-13:51:30.642253,181.70007729995996,182.01261019986123,181.70007729995996,None,None,181.70007729995996,None,182.51301724989898,None,,,,12017,0001,2022_May_20_1348,localizer,2021.1.3,59.43677715636204,
block,scenes,scenes002.bmp,,,,,0,42,42,42,,,,,,,,,,,,,,,,,,,,,,,,,,,,,,,,,,,,,,,,,,None,,182.51301724989898,None,182.51301724989898,None,2022-05-20-13:51:31.460321,182.5182892999146,182.8291859999299,182.5182892999146,None,None,182.5182892999146,None,183.3292865498457,None,,,,12017,0001,2022_May_20_1348,localizer,2021.1.3,59.43677715636204,
block,scenes,scenes054.bmp,,,,,0,43,43,43,,,,,,,,,,,,,,,,,,,,,,,,,,,,,,,,,,,,,,,,,,None,,183.3292865498457,None,183.3292865498457,None,2022-05-20-13:51:32.275356,183.33343649981543,183.64589139982127,183.33343649981543,None,None,183.33343649981543,None,184.14594064992852,None,,,,12017,0001,2022_May_20_1348,localizer,2021.1.3,59.43677715636204,
block,scenes,scenes021.bmp,,,,,0,44,44,44,,,,,,,,,,,,,,,,,,,,,,,,,,,,,,,,,,,,,,,,,,None,,184.14594064992852,None,184.14594064992852,None,2022-05-20-13:51:33.092272,184.15620609978214,184.46289409999736,184.15620609978214,None,None,184.15620609978214,None,184.96282164999283,None,,,,12017,0001,2022_May_20_1348,localizer,2021.1.3,59.43677715636204,
block_end,scenes,scenes079.bmp,,,,,0,45,45,45,,,,,,,,,,,,,,,,,,,,,,,,,,,,,,,,,,,,,,,,,,None,,184.96282164999283,None,184.96282164999283,None,2022-05-20-13:51:33.909355,184.96778419986367,185.27916529984213,184.96778419986367,None,None,184.96778419986367,None,185.7858161499258,None,,,,12017,0001,2022_May_20_1348,localizer,2021.1.3,59.43677715636204,
block_start,faces,faces003.bmp,,,,,0,46,46,46,,,,,,,,,,,,,,,,,,,,,,,,,,,,,,,,,,,,,,,,,,t,1.7193347001448274,185.78524989983998,None,185.78524989983998,None,2022-05-20-13:51:36.475200,187.53411889984272,187.84583589993417,187.53411889984272,None,None,187.53411889984272,None,188.34611894995905,None,,,,12017,0001,2022_May_20_1348,localizer,2021.1.3,59.43677715636204,
block,faces,faces027.bmp,,,,,0,47,47,47,,,,,,,,,,,,,,,,,,,,,,,,,,,,,,,,,,,,,,,,,,None,,188.34611894995905,None,188.34611894995905,None,2022-05-20-13:51:37.292754,188.34979469981045,188.66267509991303,188.34979469981045,None,None,188.34979469981045,None,189.16662214989773,None,,,,12017,0001,2022_May_20_1348,localizer,2021.1.3,59.43677715636204,
block,faces,faces010.bmp,,,,,0,48,48,48,,,,,,,,,,,,,,,,,,,,,,,,,,,,,,,,,,,,,,,,,,None,,189.16662214989773,None,189.16662214989773,None,2022-05-20-13:51:38.120849,189.18138019996695,189.4960054999683,189.18138019996695,None,None,189.18138019996695,None,189.9795910498593,None,,,,12017,0001,2022_May_20_1348,localizer,2021.1.3,59.43677715636204,
block,faces,faces019.bmp,,,,,0,49,49,49,,,,,,,,,,,,,,,,,,,,,,,,,,,,,,,,,,,,,,,,,,None,,189.9795910498593,None,189.9795910498593,None,2022-05-20-13:51:38.925932,189.9953749999404,190.295804399997,189.9953749999404,None,None,189.9953749999404,None,190.79619604991748,None,,,,12017,0001,2022_May_20_1348,localizer,2021.1.3,59.43677715636204,
block,faces,faces087.bmp,,,,,0,50,50,50,,,,,,,,,,,,,,,,,,,,,,,,,,,,,,,,,,,,,,,,,,None,,190.79619604991748,None,190.79619604991748,None,2022-05-20-13:51:39.742533,190.807451199973,191.11258569988422,190.807451199973,None,None,190.807451199973,None,191.61266944990493,None,,,,12017,0001,2022_May_20_1348,localizer,2021.1.3,59.43677715636204,
block,faces,faces084.bmp,,,,,0,51,51,51,,,,,,,,,,,,,,,,,,,,,,,,,,,,,,,,,,,,,,,,,,None,,191.61266944990493,None,191.61266944990493,None,2022-05-20-13:51:40.558794,191.61672399984673,191.92933879978955,191.61672399984673,None,None,191.61672399984673,None,192.42969734980724,None,,,,12017,0001,2022_May_20_1348,localizer,2021.1.3,59.43677715636204,
block,faces,faces070.bmp,,,,,0,52,52,52,,,,,,,,,,,,,,,,,,,,,,,,,,,,,,,,,,,,,,,,,,None,,192.42969734980724,None,192.42969734980724,None,2022-05-20-13:51:41.376033,192.43541719997302,192.74591749999672,192.43541719997302,None,None,192.43541719997302,None,193.24687454979866,None,,,,12017,0001,2022_May_20_1348,localizer,2021.1.3,59.43677715636204,
block,faces,faces011.bmp,,,,,0,53,53,53,,,,,,,,,,,,,,,,,,,,,,,,,,,,,,,,,,,,,,,,,,None,,193.24687454979866,None,193.24687454979866,None,2022-05-20-13:51:42.194202,193.253671299899,193.56283919978887,193.253671299899,None,None,193.253671299899,None,194.06406994992867,None,,,,12017,0001,2022_May_20_1348,localizer,2021.1.3,59.43677715636204,
block,faces,faces026.bmp,,,,,0,54,54,54,,,,,,,,,,,,,,,,,,,,,,,,,,,,,,,,,,,,,,,,,,None,,194.06406994992867,None,194.06406994992867,None,2022-05-20-13:51:43.013067,194.10106039978564,194.4126344998367,194.10106039978564,None,None,194.10106039978564,None,194.88014194988645,None,,,,12017,0001,2022_May_20_1348,localizer,2021.1.3,59.43677715636204,
block,faces,faces056.bmp,,,,,0,55,55,55,,,,,,,,,,,,,,,,,,,,,,,,,,,,,,,,,,,,,,,,,,None,,194.88014194988645,None,194.88014194988645,None,2022-05-20-13:51:43.827448,194.88697699992917,195.1961902999319,194.88697699992917,None,None,194.88697699992917,None,195.6974000499118,None,,,,12017,0001,2022_May_20_1348,localizer,2021.1.3,59.43677715636204,
block,faces,faces007.bmp,,,,,0,56,56,56,,,,,,,,,,,,,,,,,,,,,,,,,,,,,,,,,,,,,,,,,,None,,195.6974000499118,None,195.6974000499118,None,2022-05-20-13:51:44.645854,195.7053848998621,196.013060499914,195.7053848998621,None,None,195.7053848998621,None,196.51307655000127,None,,,,12017,0001,2022_May_20_1348,localizer,2021.1.3,59.43677715636204,
block,faces,faces047.bmp,,,,,0,57,57,57,,,,,,,,,,,,,,,,,,,,,,,,,,,,,,,,,,,,,,,,,,None,,196.51307655000127,None,196.51307655000127,None,2022-05-20-13:51:45.459416,196.52344889985397,196.82938229991123,196.52344889985397,None,None,196.52344889985397,None,197.32978764981962,None,,,,12017,0001,2022_May_20_1348,localizer,2021.1.3,59.43677715636204,
block,faces,faces037.bmp,,,,,0,58,58,58,,,,,,,,,,,,,,,,,,,,,,,,,,,,,,,,,,,,,,,,,,None,,197.32978764981962,None,197.32978764981962,None,2022-05-20-13:51:46.276128,197.3360717999749,197.6467699999921,197.3360717999749,None,None,197.3360717999749,None,198.14676294978707,None,,,,12017,0001,2022_May_20_1348,localizer,2021.1.3,59.43677715636204,
block,faces,faces015.bmp,,,,,0,59,59,59,,,,,,,,,,,,,,,,,,,,,,,,,,,,,,,,,,,,,,,,,,None,,198.14676294978707,None,198.14676294978707,None,2022-05-20-13:51:47.094093,198.1597116999328,198.4626646998804,198.1597116999328,None,None,198.1597116999328,None,198.9630780498497,None,,,,12017,0001,2022_May_20_1348,localizer,2021.1.3,59.43677715636204,
block_end,faces,faces023.bmp,,,,,0,60,60,60,,,,,,,,,,,,,,,,,,,,,,,,,,,,,,,,,,,,,,,,,,None,,198.9630780498497,None,198.9630780498497,None,2022-05-20-13:51:47.909422,198.9675036999397,199.27900799992494,198.9675036999397,None,None,198.9675036999397,None,199.78054814985953,None,,,,12017,0001,2022_May_20_1348,localizer,2021.1.3,59.43677715636204,
null_block,null_block,null_block.bmp,,,,,0,61,61,61,,,,,,,,,,,,,,,,,,,,,,,,,,,,,,,,,,,,,,,,,,t,1.7232882999815047,199.78032949985936,None,199.78032949985936,None,2022-05-20-13:51:50.477608,201.53037344980984,None,201.53037344980984,None,None,201.53037344980984,None,201.5357230999507,None,,,,12017,0001,2022_May_20_1348,localizer,2021.1.3,59.43677715636204,
block_start,objects,objects059.bmp,,,,,0,62,62,62,,,,,,,,,,,,,,,,,,,,,,,,,,,,,,,,,,,,,,,,,,t,1.9576834999024868,213.54587409994565,None,213.54587409994565,None,2022-05-20-13:52:04.477525,215.53579529980198,215.8462249999866,215.53579529980198,None,None,215.53579529980198,None,216.34649714981205,None,,,,12017,0001,2022_May_20_1348,localizer,2021.1.3,59.43677715636204,
block,objects,objects080.bmp,,,,,0,63,63,63,,,,,,,,,,,,,,,,,,,,,,,,,,,,,,,,,,,,,,,,,,None,,216.34649714981205,None,216.34649714981205,None,2022-05-20-13:52:05.292856,216.35655209980905,216.66295369993895,216.35655209980905,None,None,216.35655209980905,None,217.164203949878,None,,,,12017,0001,2022_May_20_1348,localizer,2021.1.3,59.43677715636204,
block,objects,objects017.bmp,,,,,0,64,64,64,,,,,,,,,,,,,,,,,,,,,,,,,,,,,,,,,,,,,,,,,,None,,217.164203949878,None,217.164203949878,None,2022-05-20-13:52:06.111546,217.17095009982586,217.47914709988981,217.17095009982586,None,None,217.17095009982586,None,217.9803408499807,None,,,,12017,0001,2022_May_20_1348,localizer,2021.1.3,59.43677715636204,
block,objects,objects032.bmp,,,,,0,65,65,65,,,,,,,,,,,,,,,,,,,,,,,,,,,,,,,,,,,,,,,,,,None,,217.9803408499807,None,217.9803408499807,None,2022-05-20-13:52:06.927847,217.9870079997927,218.2962793998886,217.9870079997927,None,None,217.9870079997927,None,218.796302349912,None,,,,12017,0001,2022_May_20_1348,localizer,2021.1.3,59.43677715636204,
block,objects,objects087.bmp,,,,,0,66,66,66,,,,,,,,,,,,,,,,,,,,,,,,,,,,,,,,,,,,,,,,,,None,,218.796302349912,None,218.796302349912,None,2022-05-20-13:52:07.742694,218.79931309982203,219.11270049982704,218.79931309982203,None,None,218.79931309982203,None,219.61285414979793,None,,,,12017,0001,2022_May_20_1348,localizer,2021.1.3,59.43677715636204,
block,objects,objects016.bmp,,,,,0,67,67,67,,,,,,,,,,,,,,,,,,,,,,,,,,,,,,,,,,,,,,,,,,None,,219.61285414979793,None,219.61285414979793,None,2022-05-20-13:52:08.559422,219.62337289983407,219.93006369983777,219.62337289983407,None,None,219.62337289983407,None,220.4298576499801,None,,,,12017,0001,2022_May_20_1348,localizer,2021.1.3,59.43677715636204,
block,objects,objects086.bmp,,,,,0,68,68,68,,,,,,,,,,,,,,,,,,,,,,,,,,,,,,,,,,,,,,,,,,None,,220.4298576499801,None,220.4298576499801,None,2022-05-20-13:52:09.376269,220.4337473998312,220.746576000005,220.4337473998312,None,None,220.4337473998312,None,221.24682334987446,None,,,,12017,0001,2022_May_20_1348,localizer,2021.1.3,59.43677715636204,
block,objects,objects076.bmp,,,,,0,69,69,69,,,,,,,,,,,,,,,,,,,,,,,,,,,,,,,,,,,,,,,,,,None,,221.24682334987446,None,221.24682334987446,None,2022-05-20-13:52:10.194366,221.25216519995593,221.56268969993107,221.25216519995593,None,None,221.25216519995593,None,222.06347854984924,None,,,,12017,0001,2022_May_20_1348,localizer,2021.1.3,59.43677715636204,
block,objects,objects026.bmp,,,,,0,70,70,70,,,,,,,,,,,,,,,,,,,,,,,,,,,,,,,,,,,,,,,,,,None,,222.06347854984924,None,222.06347854984924,None,2022-05-20-13:52:11.011098,222.07546609989367,222.37953119981103,222.07546609989367,None,None,222.07546609989367,None,222.88001014981418,None,,,,12017,0001,2022_May_20_1348,localizer,2021.1.3,59.43677715636204,
block,objects,objects038.bmp,,,,,0,71,71,71,,,,,,,,,,,,,,,,,,,,,,,,,,,,,,,,,,,,,,,,,,None,,222.88001014981418,None,222.88001014981418,None,2022-05-20-13:52:11.826631,222.88526089978404,223.19585639983416,222.88526089978404,None,None,222.88526089978404,None,223.6966148499865,None,,,,12017,0001,2022_May_20_1348,localizer,2021.1.3,59.43677715636204,
block,objects,objects034.bmp,,,,,0,72,72,72,,,,,,,,,,,,,,,,,,,,,,,,,,,,,,,,,,,,,,,,,,None,,223.6966148499865,None,223.6966148499865,None,2022-05-20-13:52:12.643070,223.7014211998321,224.01303879986517,223.7014211998321,None,None,223.7014211998321,None,224.51345454985275,None,,,,12017,0001,2022_May_20_1348,localizer,2021.1.3,59.43677715636204,
block,objects,objects088.bmp,,,,,0,73,73,73,,,,,,,,,,,,,,,,,,,,,,,,,,,,,,,,,,,,,,,,,,None,,224.51345454985275,None,224.51345454985275,None,2022-05-20-13:52:13.460140,224.518583699828,224.82946649985388,224.518583699828,None,None,224.518583699828,None,225.3297525499016,None,,,,12017,0001,2022_May_20_1348,localizer,2021.1.3,59.43677715636204,
block,objects,objects056.bmp,,,,,0,74,74,74,,,,,,,,,,,,,,,,,,,,,,,,,,,,,,,,,,,,,,,,,,None,,225.3297525499016,None,225.3297525499016,None,2022-05-20-13:52:14.276234,225.33315579988994,225.64628729992546,225.33315579988994,None,None,225.33315579988994,None,226.14660604987293,None,,,,12017,0001,2022_May_20_1348,localizer,2021.1.3,59.43677715636204,
block,objects,objects068.bmp,,,,,0,75,75,75,,,,,,,,,,,,,,,,,,,,,,,,,,,,,,,,,,,,,,,,,,None,,226.14660604987293,None,226.14660604987293,None,2022-05-20-13:52:15.093185,226.15070039988495,226.46289539989084,226.15070039988495,None,None,226.15070039988495,None,226.96384824989363,None,,,,12017,0001,2022_May_20_1348,localizer,2021.1.3,59.43677715636204,
block_end,objects,objects053.bmp,,,,,0,76,76,76,,,,,,,,,,,,,,,,,,,,,,,,,,,,,,,,,,,,,,,,,,None,,226.96384824989363,None,226.96384824989363,None,2022-05-20-13:52:15.911173,226.97045119991526,227.2860330999829,226.97045119991526,None,None,226.97045119991526,None,227.7792512498796,None,,,,12017,0001,2022_May_20_1348,localizer,2021.1.3,59.43677715636204,
block_start,faces,faces058.bmp,,,,,0,77,77,77,,,,,,,,,,,,,,,,,,,,,,,,,,,,,,,,,,,,,,,,,,t,1.7246763999573886,227.77897629979998,None,227.77897629979998,None,2022-05-20-13:52:18.475520,229.53541159979068,229.846157199936,229.53541159979068,None,None,229.53541159979068,None,230.3464474500157,None,,,,12017,0001,2022_May_20_1348,localizer,2021.1.3,59.43677715636204,
block,faces,faces018.bmp,,,,,0,78,78,78,,,,,,,,,,,,,,,,,,,,,,,,,,,,,,,,,,,,,,,,,,None,,230.3464474500157,None,230.3464474500157,None,2022-05-20-13:52:19.293168,230.35145909991115,230.6629863998387,230.35145909991115,None,None,230.35145909991115,None,231.16338644982315,None,,,,12017,0001,2022_May_20_1348,localizer,2021.1.3,59.43677715636204,
block,faces,faces072.bmp,,,,,0,79,79,79,,,,,,,,,,,,,,,,,,,,,,,,,,,,,,,,,,,,,,,,,,None,,231.16338644982315,None,231.16338644982315,None,2022-05-20-13:52:20.109948,231.1737141998019,231.47938889986835,231.1737141998019,None,None,231.1737141998019,None,231.9801711499691,None,,,,12017,0001,2022_May_20_1348,localizer,2021.1.3,59.43677715636204,
block,faces,faces056.bmp,,,,,0,80,80,80,,,,,,,,,,,,,,,,,,,,,,,,,,,,,,,,,,,,,,,,,,None,,231.9801711499691,None,231.9801711499691,None,2022-05-20-13:52:20.927938,231.981029599905,232.2960904999636,231.981029599905,None,y,231.981029599905,None,232.78089584982953,None,0.5393483999650925,,,12017,0001,2022_May_20_1348,localizer,2021.1.3,59.43677715636204,
block,faces,faces053.bmp,,,,,0,81,81,81,,,,,,,,,,,,,,,,,,,,,,,,,,,,,,,,,,,,,,,,,,None,,232.78089584982953,None,232.78089584982953,None,2022-05-20-13:52:21.733611,232.79189579980448,233.09645329997875,232.79189579980448,232.79189579980448,None,232.79189579980448,232.79189579980448,233.59684134987182,None,,,,12017,0001,2022_May_20_1348,localizer,2021.1.3,59.43677715636204,
block,faces,faces065.bmp,,,,,0,82,82,82,,,,,,,,,,,,,,,,,,,,,,,,,,,,,,,,,,,,,,,,,,None,,233.59684134987182,None,233.59684134987182,None,2022-05-20-13:52:22.544623,233.61521269986406,233.93041299981996,233.61521269986406,None,None,233.61521269986406,None,234.4136194499675,None,,,,12017,0001,2022_May_20_1348,localizer,2021.1.3,59.43677715636204,
block,faces,faces086.bmp,,,,,0,83,83,83,,,,,,,,,,,,,,,,,,,,,,,,,,,,,,,,,,,,,,,,,,None,,234.4136194499675,None,234.4136194499675,None,2022-05-20-13:52:23.361223,234.41983719985,234.73035419988446,234.41983719985,None,None,234.41983719985,None,235.22970764981582,None,,,,12017,0001,2022_May_20_1348,localizer,2021.1.3,59.43677715636204,
block,faces,faces005.bmp,,,,,0,84,84,84,,,,,,,,,,,,,,,,,,,,,,,,,,,,,,,,,,,,,,,,,,None,,235.22970764981582,None,235.22970764981582,None,2022-05-20-13:52:24.176328,235.23330089985393,235.54671289981343,235.23330089985393,None,None,235.23330089985393,None,236.04698084983974,None,,,,12017,0001,2022_May_20_1348,localizer,2021.1.3,59.43677715636204,
block,faces,faces001.bmp,,,,,0,85,85,85,,,,,,,,,,,,,,,,,,,,,,,,,,,,,,,,,,,,,,,,,,None,,236.04698084983974,None,236.04698084983974,None,2022-05-20-13:52:24.994605,236.05406399979256,236.3629960999824,236.05406399979256,None,None,236.05406399979256,None,236.86384134986437,None,,,,12017,0001,2022_May_20_1348,localizer,2021.1.3,59.43677715636204,
block,faces,faces050.bmp,,,,,0,86,86,86,,,,,,,,,,,,,,,,,,,,,,,,,,,,,,,,,,,,,,,,,,None,,236.86384134986437,None,236.86384134986437,None,2022-05-20-13:52:25.811680,236.87099449988455,237.17930389987305,236.87099449988455,None,None,236.87099449988455,None,237.68014764986,None,,,,12017,0001,2022_May_20_1348,localizer,2021.1.3,59.43677715636204,
block,faces,faces034.bmp,,,,,0,87,87,87,,,,,,,,,,,,,,,,,,,,,,,,,,,,,,,,,,,,,,,,,,None,,237.68014764986,None,237.68014764986,None,2022-05-20-13:52:26.626803,237.68521579983644,237.99629179993644,237.68521579983644,None,None,237.68521579983644,None,238.4969264498446,None,,,,12017,0001,2022_May_20_1348,localizer,2021.1.3,59.43677715636204,
block,faces,faces003.bmp,,,,,0,88,88,88,,,,,,,,,,,,,,,,,,,,,,,,,,,,,,,,,,,,,,,,,,None,,238.4969264498446,None,238.4969264498446,None,2022-05-20-13:52:27.443822,238.4974020998925,238.79768019984476,238.4974020998925,None,y,238.4974020998925,None,239.31291174995712,None,0.5149493999779224,,,12017,0001,2022_May_20_1348,localizer,2021.1.3,59.43677715636204,
block,faces,faces076.bmp,,,,,0,89,89,89,,,,,,,,,,,,,,,,,,,,,,,,,,,,,,,,,,,,,,,,,,None,,239.31291174995712,None,239.31291174995712,None,2022-05-20-13:52:28.259598,239.32353279995732,239.62963059986942,239.32353279995732,None,None,239.32353279995732,None,240.1305027498398,None,,,,12017,0001,2022_May_20_1348,localizer,2021.1.3,59.43677715636204,
block,faces,faces031.bmp,,,,,0,90,90,90,,,,,,,,,,,,,,,,,,,,,,,,,,,,,,,,,,,,,,,,,,None,,240.1305027498398,None,240.1305027498398,None,2022-05-20-13:52:29.079150,240.13735299999826,240.44676789990626,240.13735299999826,None,None,240.13735299999826,None,240.94673744998872,None,,,,12017,0001,2022_May_20_1348,localizer,2021.1.3,59.43677715636204,
block_end,faces,faces029.bmp,,,,,0,91,91,91,,,,,,,,,,,,,,,,,,,,,,,,,,,,,,,,,,,,,,,,,,None,,240.94673744998872,None,240.94673744998872,None,2022-05-20-13:52:29.893634,240.9586910000071,241.26304899994284,240.9586910000071,None,None,240.9586910000071,None,241.7633165499661,None,,,,12017,0001,2022_May_20_1348,localizer,2021.1.3,59.43677715636204,
block_start,scenes,scenes012.bmp,,,,,0,92,92,92,,,,,,,,,,,,,,,,,,,,,,,,,,,,,,,,,,,,,,,,,,t,1.7410345999523997,241.76263499981724,None,241.76263499981724,None,2022-05-20-13:52:32.476783,243.53095519985072,243.83025729982182,243.53095519985072,None,y,243.53095519985072,None,244.33016495001502,None,0.6245978998485953,,,12017,0001,2022_May_20_1348,localizer,2021.1.3,59.43677715636204,
block,scenes,scenes004.bmp,,,,,0,93,93,93,,,,,,,,,,,,,,,,,,,,,,,,,,,,,,,,,,,,,,,,,,None,,244.33016495001502,None,244.33016495001502,None,2022-05-20-13:52:33.278906,244.33282779995352,244.64647099981084,244.33282779995352,244.33282779995352,y,244.33282779995352,244.33282779995352,245.14656144999898,None,0.5125215998850763,,,12017,0001,2022_May_20_1348,localizer,2021.1.3,59.43677715636204,
block,scenes,scenes050.bmp,,,,,0,94,94,94,,,,,,,,,,,,,,,,,,,,,,,,,,,,,,,,,,,,,,,,,,None,,245.14656144999898,None,245.14656144999898,None,2022-05-20-13:52:34.093323,245.15160539979115,245.4631784998346,245.15160539979115,None,None,245.15160539979115,None,245.96392794991843,None,,,,12017,0001,2022_May_20_1348,localizer,2021.1.3,59.43677715636204,
block,scenes,scenes074.bmp,,,,,0,95,95,95,,,,,,,,,,,,,,,,,,,,,,,,,,,,,,,,,,,,,,,,,,None,,245.96392794991843,None,245.96392794991843,None,2022-05-20-13:52:34.911691,245.97074469993822,246.27968789986335,245.97074469993822,None,None,245.97074469993822,None,246.78001404986716,None,,,,12017,0001,2022_May_20_1348,localizer,2021.1.3,59.43677715636204,
block,scenes,scenes089.bmp,,,,,0,96,96,96,,,,,,,,,,,,,,,,,,,,,,,,,,,,,,,,,,,,,,,,,,None,,246.78001404986716,None,246.78001404986716,None,2022-05-20-13:52:35.727146,246.7854014998302,247.09634149982594,246.7854014998302,None,None,246.7854014998302,None,247.59662654986604,None,,,,12017,0001,2022_May_20_1348,localizer,2021.1.3,59.43677715636204,
block,scenes,scenes064.bmp,,,,,0,97,97,97,,,,,,,,,,,,,,,,,,,,,,,,,,,,,,,,,,,,,,,,,,None,,247.59662654986604,None,247.59662654986604,None,2022-05-20-13:52:36.543647,247.60642039985396,247.91309239994735,247.60642039985396,None,None,247.60642039985396,None,248.41320304982364,None,,,,12017,0001,2022_May_20_1348,localizer,2021.1.3,59.43677715636204,
block,scenes,scenes013.bmp,,,,,0,98,98,98,,,,,,,,,,,,,,,,,,,,,,,,,,,,,,,,,,,,,,,,,,None,,248.41320304982364,None,248.41320304982364,None,2022-05-20-13:52:37.360016,248.42342519992962,248.7300751998555,248.42342519992962,None,None,248.42342519992962,None,249.2297778498847,None,,,,12017,0001,2022_May_20_1348,localizer,2021.1.3,59.43677715636204,
block,scenes,scenes060.bmp,,,,,0,99,99,99,,,,,,,,,,,,,,,,,,,,,,,,,,,,,,,,,,,,,,,,,,None,,249.2297778498847,None,249.2297778498847,None,2022-05-20-13:52:38.176605,249.23999789985828,249.54636219982058,249.23999789985828,None,None,249.23999789985828,None,250.04873394980095,None,,,,12017,0001,2022_May_20_1348,localizer,2021.1.3,59.43677715636204,
block,scenes,scenes073.bmp,,,,,0,100,100,100,,,,,,,,,,,,,,,,,,,,,,,,,,,,,,,,,,,,,,,,,,None,,250.04873394980095,None,250.04873394980095,None,2022-05-20-13:52:38.999534,250.0603933997918,250.36296819988638,250.0603933997918,None,None,250.0603933997918,None,250.86333824987523,None,,,,12017,0001,2022_May_20_1348,localizer,2021.1.3,59.43677715636204,
block,scenes,scenes083.bmp,,,,,0,101,101,101,,,,,,,,,,,,,,,,,,,,,,,,,,,,,,,,,,,,,,,,,,None,,250.86333824987523,None,250.86333824987523,None,2022-05-20-13:52:39.811573,250.86929469997995,251.17971349996515,250.86929469997995,None,None,250.86929469997995,None,251.68052164991386,None,,,,12017,0001,2022_May_20_1348,localizer,2021.1.3,59.43677715636204,
block,scenes,scenes027.bmp,,,,,0,102,102,102,,,,,,,,,,,,,,,,,,,,,,,,,,,,,,,,,,,,,,,,,,None,,251.68052164991386,None,251.68052164991386,None,2022-05-20-13:52:40.628407,251.69202149985358,251.99721099995077,251.69202149985358,None,None,251.69202149985358,None,252.49729924988932,None,,,,12017,0001,2022_May_20_1348,localizer,2021.1.3,59.43677715636204,
block,scenes,scenes072.bmp,,,,,0,103,103,103,,,,,,,,,,,,,,,,,,,,,,,,,,,,,,,,,,,,,,,,,,None,,252.49729924988932,None,252.49729924988932,None,2022-05-20-13:52:41.445139,252.50402669981122,252.81273649982177,252.50402669981122,None,None,252.50402669981122,None,253.31317865001037,None,,,,12017,0001,2022_May_20_1348,localizer,2021.1.3,59.43677715636204,
block,scenes,scenes029.bmp,,,,,0,104,104,104,,,,,,,,,,,,,,,,,,,,,,,,,,,,,,,,,,,,,,,,,,None,,253.31317865001037,None,253.31317865001037,None,2022-05-20-13:52:42.260314,253.31665349984542,253.6295853999909,253.31665349984542,None,None,253.31665349984542,None,254.13008704981766,None,,,,12017,0001,2022_May_20_1348,localizer,2021.1.3,59.43677715636204,
block,scenes,scenes076.bmp,,,,,0,105,105,105,,,,,,,,,,,,,,,,,,,,,,,,,,,,,,,,,,,,,,,,,,None,,254.13008704981766,None,254.13008704981766,None,2022-05-20-13:52:43.077011,254.14065829990432,254.44656849978492,254.14065829990432,None,None,254.14065829990432,None,254.9470396499615,None,,,,12017,0001,2022_May_20_1348,localizer,2021.1.3,59.43677715636204,
block_end,scenes,scenes078.bmp,,,,,0,106,106,106,,,,,,,,,,,,,,,,,,,,,,,,,,,,,,,,,,,,,,,,,,None,,254.9470396499615,None,254.9470396499615,None,2022-05-20-13:52:43.893916,254.95369589980692,255.26257749996148,254.95369589980692,None,None,254.95369589980692,None,255.76365064983256,None,,,,12017,0001,2022_May_20_1348,localizer,2021.1.3,59.43677715636204,
block_start,scrambled,scrambled018.bmp,,,,,0,107,107,107,,,,,,,,,,,,,,,,,,,,,,,,,,,,,,,,,,,,,,,,,,t,1.7400441002100706,255.7634536998812,None,255.7634536998812,None,2022-05-20-13:52:46.478325,257.53847159980796,257.8465276998468,257.53847159980796,None,y,257.53847159980796,None,258.3468063498382,None,0.5931295999325812,,,12017,0001,2022_May_20_1348,localizer,2021.1.3,59.43677715636204,
block,scrambled,scrambled039.bmp,,,,,0,108,108,108,,,,,,,,,,,,,,,,,,,,,,,,,,,,,,,,,,,,,,,,,,None,,258.3468063498382,None,258.3468063498382,None,2022-05-20-13:52:47.293972,258.35294029978104,258.6630754999351,258.35294029978104,None,None,258.35294029978104,None,259.1633678499144,None,,,,12017,0001,2022_May_20_1348,localizer,2021.1.3,59.43677715636204,
block,scrambled,scrambled050.bmp,,,,,0,109,109,109,,,,,,,,,,,,,,,,,,,,,,,,,,,,,,,,,,,,,,,,,,None,,259.1633678499144,None,259.1633678499144,None,2022-05-20-13:52:48.110336,259.16755959996954,259.4799170999322,259.16755959996954,None,None,259.16755959996954,None,259.98006414985286,None,,,,12017,0001,2022_May_20_1348,localizer,2021.1.3,59.43677715636204,
block,scrambled,scrambled083.bmp,,,,,0,110,110,110,,,,,,,,,,,,,,,,,,,,,,,,,,,,,,,,,,,,,,,,,,None,,259.98006414985286,None,259.98006414985286,None,2022-05-20-13:52:48.927256,259.98540659993887,260.29643159988336,259.98540659993887,None,y,259.98540659993887,None,260.7967497498263,None,0.466182200005278,,,12017,0001,2022_May_20_1348,localizer,2021.1.3,59.43677715636204,
block,scrambled,scrambled035.bmp,,,,,0,111,111,111,,,,,,,,,,,,,,,,,,,,,,,,,,,,,,,,,,,,,,,,,,None,,260.7967497498263,None,260.7967497498263,None,2022-05-20-13:52:49.743743,260.79962589987554,261.1135030000005,260.79962589987554,None,None,260.79962589987554,None,261.61346664992163,None,,,,12017,0001,2022_May_20_1348,localizer,2021.1.3,59.43677715636204,
block,scrambled,scrambled020.bmp,,,,,0,112,112,112,,,,,,,,,,,,,,,,,,,,,,,,,,,,,,,,,,,,,,,,,,None,,261.61346664992163,None,261.61346664992163,None,2022-05-20-13:52:50.560593,261.6179581999313,261.9298946999479,261.6179581999313,None,None,261.6179581999313,None,262.43128514979037,None,,,,12017,0001,2022_May_20_1348,localizer,2021.1.3,59.43677715636204,
block,scrambled,scrambled029.bmp,,,,,0,113,113,113,,,,,,,,,,,,,,,,,,,,,,,,,,,,,,,,,,,,,,,,,,None,,262.43128514979037,None,262.43128514979037,None,2022-05-20-13:52:51.380070,262.43910109996796,262.74608369986527,262.43910109996796,None,None,262.43910109996796,None,263.2465312498622,None,,,,12017,0001,2022_May_20_1348,localizer,2021.1.3,59.43677715636204,
block,scrambled,scrambled007.bmp,,,,,0,114,114,114,,,,,,,,,,,,,,,,,,,,,,,,,,,,,,,,,,,,,,,,,,None,,263.2465312498622,None,263.2465312498622,None,2022-05-20-13:52:52.193560,263.25607569981366,263.5633311998099,263.25607569981366,None,None,263.25607569981366,None,264.06357514988633,None,,,,12017,0001,2022_May_20_1348,localizer,2021.1.3,59.43677715636204,
block,scrambled,scrambled066.bmp,,,,,0,115,115,115,,,,,,,,,,,,,,,,,,,,,,,,,,,,,,,,,,,,,,,,,,None,,264.06357514988633,None,264.06357514988633,None,2022-05-20-13:52:53.010612,264.0684884998482,264.3798188997898,264.0684884998482,None,y,264.0684884998482,None,264.8804533499293,None,0.42188320006243885,,,12017,0001,2022_May_20_1348,localizer,2021.1.3,59.43677715636204,
block,scrambled,scrambled033.bmp,,,,,0,116,116,116,,,,,,,,,,,,,,,,,,,,,,,,,,,,,,,,,,,,,,,,,,None,,264.8804533499293,None,264.8804533499293,None,2022-05-20-13:52:53.827618,264.885583399795,265.19624399999157,264.885583399795,None,None,264.885583399795,None,265.69708954999226,None,,,,12017,0001,2022_May_20_1348,localizer,2021.1.3,59.43677715636204,
block,scrambled,scrambled033.bmp,,,,,0,117,117,117,,,,,,,,,,,,,,,,,,,,,,,,,,,,,,,,,,,,,,,,,,None,,265.69708954999226,None,265.69708954999226,None,2022-05-20-13:52:54.644375,265.6977410998661,265.99695539986715,265.6977410998661,None,y,265.6977410998661,None,266.5133829500061,None,0.6838058000430465,,,12017,0001,2022_May_20_1348,localizer,2021.1.3,59.43677715636204,
block,scrambled,scrambled058.bmp,,,,,0,118,118,118,,,,,,,,,,,,,,,,,,,,,,,,,,,,,,,,,,,,,,,,,,None,,266.5133829500061,None,266.5133829500061,None,2022-05-20-13:52:55.460528,266.5184047999792,266.8296089998912,266.5184047999792,None,None,266.5184047999792,None,267.3301420499571,None,,,,12017,0001,2022_May_20_1348,localizer,2021.1.3,59.43677715636204,
block,scrambled,scrambled065.bmp,,,,,0,119,119,119,,,,,,,,,,,,,,,,,,,,,,,,,,,,,,,,,,,,,,,,,,None,,267.3301420499571,None,267.3301420499571,None,2022-05-20-13:52:56.277223,267.3350910998415,267.6465960999485,267.3350910998415,None,None,267.3350910998415,None,268.14706534999425,None,,,,12017,0001,2022_May_20_1348,localizer,2021.1.3,59.43677715636204,
block,scrambled,scrambled057.bmp,,,,,0,120,120,120,,,,,,,,,,,,,,,,,,,,,,,,,,,,,,,,,,,,,,,,,,None,,268.14706534999425,None,268.14706534999425,None,2022-05-20-13:52:57.095132,268.14760089991614,268.44696119986475,268.14760089991614,None,None,268.14760089991614,None,268.947087149974,None,,,,12017,0001,2022_May_20_1348,localizer,2021.1.3,59.43677715636204,
block_end,scrambled,scrambled008.bmp,,,,,0,121,121,121,,,,,,,,,,,,,,,,,,,,,,,,,,,,,,,,,,,,,,,,,,None,,268.947087149974,None,268.947087149974,None,2022-05-20-13:52:57.897404,268.95485419989564,269.2633618998807,268.95485419989564,268.95485419989564,y,268.95485419989564,268.95485419989564,269.7634879498743,None,0.22396550001576543,,,12017,0001,2022_May_20_1348,localizer,2021.1.3,59.43677715636204,
block_start,scenes,scenes077.bmp,,,,,0,122,122,122,,,,,,,,,,,,,,,,,,,,,,,,,,,,,,,,,,,,,,,,,,t,1.7404391998425126,269.7632091999985,None,269.7632091999985,None,2022-05-20-13:53:00.476619,271.53374549979344,271.8464116998948,271.53374549979344,None,None,271.53374549979344,None,272.34797304999086,None,,,,12017,0001,2022_May_20_1348,localizer,2021.1.3,59.43677715636204,
block,scenes,scenes050.bmp,,,,,0,123,123,123,,,,,,,,,,,,,,,,,,,,,,,,,,,,,,,,,,,,,,,,,,None,,272.34797304999086,None,272.34797304999086,None,2022-05-20-13:53:01.298105,272.3508646998089,272.6636150998529,272.3508646998089,None,y,272.3508646998089,None,273.162973449938,None,0.541389900026843,,,12017,0001,2022_May_20_1348,localizer,2021.1.3,59.43677715636204,
block,scenes,scenes089.bmp,,,,,0,124,124,124,,,,,,,,,,,,,,,,,,,,,,,,,,,,,,,,,,,,,,,,,,None,,273.162973449938,None,273.162973449938,None,2022-05-20-13:53:02.110149,273.1645314998459,273.47971749980934,273.1645314998459,None,y,273.1645314998459,None,273.9801448498853,None,0.6858042001258582,,,12017,0001,2022_May_20_1348,localizer,2021.1.3,59.43677715636204,
block,scenes,scenes047.bmp,,,,,0,125,125,125,,,,,,,,,,,,,,,,,,,,,,,,,,,,,,,,,,,,,,,,,,None,,273.9801448498853,None,273.9801448498853,None,2022-05-20-13:53:02.927790,273.9911003999878,274.2966426999774,273.9911003999878,None,None,273.9911003999878,None,274.79798444979826,None,,,,12017,0001,2022_May_20_1348,localizer,2021.1.3,59.43677715636204,
block,scenes,scenes063.bmp,,,,,0,126,126,126,,,,,,,,,,,,,,,,,,,,,,,,,,,,,,,,,,,,,,,,,,None,,274.79798444979826,None,274.79798444979826,None,2022-05-20-13:53:03.748081,274.80764999985695,275.11347149987705,274.80764999985695,None,None,274.80764999985695,None,275.6139924499672,None,,,,12017,0001,2022_May_20_1348,localizer,2021.1.3,59.43677715636204,
block,scenes,scenes059.bmp,,,,,0,127,127,127,,,,,,,,,,,,,,,,,,,,,,,,,,,,,,,,,,,,,,,,,,None,,275.6139924499672,None,275.6139924499672,None,2022-05-20-13:53:04.562323,275.6209148999769,275.92989199981093,275.6209148999769,None,None,275.6209148999769,None,276.4302973499522,None,,,,12017,0001,2022_May_20_1348,localizer,2021.1.3,59.43677715636204,
block,scenes,scenes075.bmp,,,,,0,128,128,128,,,,,,,,,,,,,,,,,,,,,,,,,,,,,,,,,,,,,,,,,,None,,276.4302973499522,None,276.4302973499522,None,2022-05-20-13:53:05.377706,276.4361085998826,276.7487598999869,276.4361085998826,None,None,276.4361085998826,None,277.24695294993,None,,,,12017,0001,2022_May_20_1348,localizer,2021.1.3,59.43677715636204,
block,scenes,scenes064.bmp,,,,,0,129,129,129,,,,,,,,,,,,,,,,,,,,,,,,,,,,,,,,,,,,,,,,,,None,,277.24695294993,None,277.24695294993,None,2022-05-20-13:53:06.194378,277.2475435999222,277.54660189989954,277.2475435999222,None,None,277.2475435999222,None,278.0479781498667,None,,,,12017,0001,2022_May_20_1348,localizer,2021.1.3,59.43677715636204,
block,scenes,scenes055.bmp,,,,,0,130,130,130,,,,,,,,,,,,,,,,,,,,,,,,,,,,,,,,,,,,,,,,,,None,,278.0479781498667,None,278.0479781498667,None,2022-05-20-13:53:07.000416,278.05928079993464,278.3634224999696,278.05928079993464,278.05928079993464,y,278.05928079993464,278.05928079993464,278.86379835000264,None,0.10738870012573898,,,12017,0001,2022_May_20_1348,localizer,2021.1.3,59.43677715636204,
block,scenes,scenes060.bmp,,,,,0,131,131,131,,,,,,,,,,,,,,,,,,,,,,,,,,,,,,,,,,,,,,,,,,None,,278.86379835000264,None,278.86379835000264,None,2022-05-20-13:53:07.810952,278.86424719984643,279.17977069993503,278.86424719984643,None,y,278.86424719984643,None,279.6635229498148,None,0.5691606001928449,,,12017,0001,2022_May_20_1348,localizer,2021.1.3,59.43677715636204,
block,scenes,scenes053.bmp,,,,,0,132,132,132,,,,,,,,,,,,,,,,,,,,,,,,,,,,,,,,,,,,,,,,,,None,,279.6635229498148,None,279.6635229498148,None,2022-05-20-13:53:08.613020,279.6705923997797,279.97998969978653,279.6705923997797,279.6705923997797,None,279.6705923997797,279.6705923997797,280.4806133498438,None,,,,12017,0001,2022_May_20_1348,localizer,2021.1.3,59.43677715636204,
block,scenes,scenes033.bmp,,,,,0,133,133,133,,,,,,,,,,,,,,,,,,,,,,,,,,,,,,,,,,,,,,,,,,None,,280.4806133498438,None,280.4806133498438,None,2022-05-20-13:53:09.427685,280.4858098998666,280.786480799783,280.4858098998666,None,None,280.4858098998666,None,281.2970121499617,None,,,,12017,0001,2022_May_20_1348,localizer,2021.1.3,59.43677715636204,
block,scenes,scenes071.bmp,,,,,0,134,134,134,,,,,,,,,,,,,,,,,,,,,,,,,,,,,,,,,,,,,,,,,,None,,281.2970121499617,None,281.2970121499617,None,2022-05-20-13:53:10.244296,281.3019675000105,281.6134296997916,281.3019675000105,None,None,281.3019675000105,None,282.1135554498993,None,,,,12017,0001,2022_May_20_1348,localizer,2021.1.3,59.43677715636204,
block,scenes,scenes032.bmp,,,,,0,135,135,135,,,,,,,,,,,,,,,,,,,,,,,,,,,,,,,,,,,,,,,,,,None,,282.1135554498993,None,282.1135554498993,None,2022-05-20-13:53:11.060853,282.1178952998016,282.4181070998311,282.1178952998016,None,None,282.1178952998016,None,282.93051004982556,None,,,,12017,0001,2022_May_20_1348,localizer,2021.1.3,59.43677715636204,
block_end,scenes,scenes020.bmp,,,,,0,136,136,136,,,,,,,,,,,,,,,,,,,,,,,,,,,,,,,,,,,,,,,,,,None,,282.93051004982556,None,282.93051004982556,None,2022-05-20-13:53:11.878009,282.9369881998282,283.2469587000087,282.9369881998282,None,None,282.9369881998282,None,283.7467770498712,None,,,,12017,0001,2022_May_20_1348,localizer,2021.1.3,59.43677715636204,
block_start,scrambled,scrambled010.bmp,,,,,0,137,137,137,,,,,,,,,,,,,,,,,,,,,,,,,,,,,,,,,,,,,,,,,,t,1.75685100001283,283.7466620998457,None,283.7466620998457,None,2022-05-20-13:53:14.479633,285.53778289980255,285.84662769990973,285.53778289980255,None,None,285.53778289980255,None,286.34709464982154,None,,,,12017,0001,2022_May_20_1348,localizer,2021.1.3,59.43677715636204,
block,scrambled,scrambled014.bmp,,,,,0,138,138,138,,,,,,,,,,,,,,,,,,,,,,,,,,,,,,,,,,,,,,,,,,None,,286.34709464982154,None,286.34709464982154,None,2022-05-20-13:53:15.294682,286.3475588997826,286.6466822999064,286.3475588997826,None,None,286.3475588997826,None,287.14782654996964,None,,,,12017,0001,2022_May_20_1348,localizer,2021.1.3,59.43677715636204,
block,scrambled,scrambled001.bmp,,,,,0,139,139,139,,,,,,,,,,,,,,,,,,,,,,,,,,,,,,,,,,,,,,,,,,None,,287.14782654996964,None,287.14782654996964,None,2022-05-20-13:53:16.100164,287.1582162999548,287.4633158999495,287.1582162999548,287.1582162999548,None,287.1582162999548,287.1582162999548,287.9644895500038,None,,,,12017,0001,2022_May_20_1348,localizer,2021.1.3,59.43677715636204,
block,scrambled,scrambled004.bmp,,,,,0,140,140,140,,,,,,,,,,,,,,,,,,,,,,,,,,,,,,,,,,,,,,,,,,None,,287.9644895500038,None,287.9644895500038,None,2022-05-20-13:53:16.912996,287.97146099992096,288.279646899784,287.97146099992096,None,None,287.97146099992096,None,288.7797398498748,None,,,,12017,0001,2022_May_20_1348,localizer,2021.1.3,59.43677715636204,
block,scrambled,scrambled078.bmp,,,,,0,141,141,141,,,,,,,,,,,,,,,,,,,,,,,,,,,,,,,,,,,,,,,,,,None,,288.7797398498748,None,288.7797398498748,None,2022-05-20-13:53:17.727138,288.78749889996834,289.09692939999513,288.78749889996834,None,y,288.78749889996834,None,289.59713294999676,None,0.3201358998194337,,,12017,0001,2022_May_20_1348,localizer,2021.1.3,59.43677715636204,
block,scrambled,scrambled019.bmp,,,,,0,142,142,142,,,,,,,,,,,,,,,,,,,,,,,,,,,,,,,,,,,,,,,,,,None,,289.59713294999676,None,289.59713294999676,None,2022-05-20-13:53:18.544802,289.6022596999537,289.91386420000345,289.6022596999537,None,None,289.6022596999537,None,290.41344014988283,None,,,,12017,0001,2022_May_20_1348,localizer,2021.1.3,59.43677715636204,
block,scrambled,scrambled042.bmp,,,,,0,143,143,143,,,,,,,,,,,,,,,,,,,,,,,,,,,,,,,,,,,,,,,,,,None,,290.41344014988283,None,290.41344014988283,None,2022-05-20-13:53:19.360857,290.41949100000784,290.73009129986167,290.41949100000784,None,None,290.41949100000784,None,291.23043314986865,None,,,,12017,0001,2022_May_20_1348,localizer,2021.1.3,59.43677715636204,
block,scrambled,scrambled067.bmp,,,,,0,144,144,144,,,,,,,,,,,,,,,,,,,,,,,,,,,,,,,,,,,,,,,,,,None,,291.23043314986865,None,291.23043314986865,None,2022-05-20-13:53:20.177859,291.23097079992294,291.53024719981477,291.23097079992294,None,y,291.23097079992294,None,292.03045604997317,None,0.49756609997712076,,,12017,0001,2022_May_20_1348,localizer,2021.1.3,59.43677715636204,
block,scrambled,scrambled038.bmp,,,,,0,145,145,145,,,,,,,,,,,,,,,,,,,,,,,,,,,,,,,,,,,,,,,,,,None,,292.03045604997317,None,292.03045604997317,None,2022-05-20-13:53:20.979999,292.03884369996376,292.3467619000003,292.03884369996376,292.03884369996376,None,292.03884369996376,292.03884369996376,292.8472460498102,None,,,,12017,0001,2022_May_20_1348,localizer,2021.1.3,59.43677715636204,
block,scrambled,scrambled032.bmp,,,,,0,146,146,146,,,,,,,,,,,,,,,,,,,,,,,,,,,,,,,,,,,,,,,,,,None,,292.8472460498102,None,292.8472460498102,None,2022-05-20-13:53:21.794924,292.8522423999384,293.1641136999242,292.8522423999384,None,None,292.8522423999384,None,293.6631561498158,None,,,,12017,0001,2022_May_20_1348,localizer,2021.1.3,59.43677715636204,
block,scrambled,scrambled021.bmp,,,,,0,147,147,147,,,,,,,,,,,,,,,,,,,,,,,,,,,,,,,,,,,,,,,,,,None,,293.6631561498158,None,293.6631561498158,None,2022-05-20-13:53:22.610626,293.6660505000036,293.9798125999514,293.6660505000036,None,y,293.6660505000036,None,294.4803292498924,None,0.51039810013026,,,12017,0001,2022_May_20_1348,localizer,2021.1.3,59.43677715636204,
block,scrambled,scrambled016.bmp,,,,,0,148,148,148,,,,,,,,,,,,,,,,,,,,,,,,,,,,,,,,,,,,,,,,,,None,,294.4803292498924,None,294.4803292498924,None,2022-05-20-13:53:23.427802,294.4853096997831,294.79665749985725,294.4853096997831,None,None,294.4853096997831,None,295.29659544993194,None,,,,12017,0001,2022_May_20_1348,localizer,2021.1.3,59.43677715636204,
block,scrambled,scrambled013.bmp,,,,,0,149,149,149,,,,,,,,,,,,,,,,,,,,,,,,,,,,,,,,,,,,,,,,,,None,,295.29659544993194,None,295.29659544993194,None,2022-05-20-13:53:24.243251,295.30040409998037,295.61330799991265,295.30040409998037,None,None,295.30040409998037,None,296.1130095498171,None,,,,12017,0001,2022_May_20_1348,localizer,2021.1.3,59.43677715636204,
block,scrambled,scrambled054.bmp,,,,,0,150,150,150,,,,,,,,,,,,,,,,,,,,,,,,,,,,,,,,,,,,,,,,,,None,,296.1130095498171,None,296.1130095498171,None,2022-05-20-13:53:25.060516,296.1168960998766,296.4304306998383,296.1168960998766,None,None,296.1168960998766,None,296.93098744996826,None,,,,12017,0001,2022_May_20_1348,localizer,2021.1.3,59.43677715636204,
block_end,scrambled,scrambled028.bmp,,,,,0,151,151,151,,,,,,,,,,,,,,,,,,,,,,,,,,,,,,,,,,,,,,,,,,None,,296.93098744996826,None,296.93098744996826,None,2022-05-20-13:53:25.879672,296.93808509991504,297.2330792997964,296.93808509991504,None,None,296.93808509991504,None,297.7471620500088,None,,,,12017,0001,2022_May_20_1348,localizer,2021.1.3,59.43677715636204,
block_start,objects,objects043.bmp,,,,,0,152,152,152,,,,,,,,,,,,,,,,,,,,,,,,,,,,,,,,,,,,,,,,,,t,1.7571813999675214,297.7464781999588,None,297.7464781999588,None,2022-05-20-13:53:28.476942,299.53118179994635,299.84669309994206,299.53118179994635,None,y,299.53118179994635,None,300.33054674989546,None,0.6304079999681562,,,12017,0001,2022_May_20_1348,localizer,2021.1.3,59.43677715636204,
block,objects,objects044.bmp,,,,,0,153,153,153,,,,,,,,,,,,,,,,,,,,,,,,,,,,,,,,,,,,,,,,,,None,,300.33054674989546,None,300.33054674989546,None,2022-05-20-13:53:29.280304,300.3378273998387,300.6472397998441,300.3378273998387,300.3378273998387,None,300.3378273998387,300.3378273998387,301.1474002498668,None,,,,12017,0001,2022_May_20_1348,localizer,2021.1.3,59.43677715636204,
block,objects,objects031.bmp,,,,,0,154,154,154,,,,,,,,,,,,,,,,,,,,,,,,,,,,,,,,,,,,,,,,,,None,,301.1474002498668,None,301.1474002498668,None,2022-05-20-13:53:30.095997,301.14784229989164,301.4634364999365,301.14784229989164,None,y,301.14784229989164,None,301.9473423498217,None,0.6255293998401612,,,12017,0001,2022_May_20_1348,localizer,2021.1.3,59.43677715636204,
block,objects,objects012.bmp,,,,,0,155,155,155,,,,,,,,,,,,,,,,,,,,,,,,,,,,,,,,,,,,,,,,,,None,,301.9473423498217,None,301.9473423498217,None,2022-05-20-13:53:30.898131,301.95514289988205,302.26374979992397,301.95514289988205,301.95514289988205,None,301.95514289988205,301.95514289988205,302.7641098498367,None,,,,12017,0001,2022_May_20_1348,localizer,2021.1.3,59.43677715636204,
block,objects,objects027.bmp,,,,,0,156,156,156,,,,,,,,,,,,,,,,,,,,,,,,,,,,,,,,,,,,,,,,,,None,,302.7641098498367,None,302.7641098498367,None,2022-05-20-13:53:31.710705,302.76448869984597,303.0635857998859,302.76448869984597,None,y,302.76448869984597,None,303.5636564499233,None,0.4617916001006961,,,12017,0001,2022_May_20_1348,localizer,2021.1.3,59.43677715636204,
block,objects,objects058.bmp,,,,,0,157,157,157,,,,,,,,,,,,,,,,,,,,,,,,,,,,,,,,,,,,,,,,,,None,,303.5636564499233,None,303.5636564499233,None,2022-05-20-13:53:32.513260,303.569513999857,303.88024339987896,303.569513999857,303.569513999857,None,303.569513999857,303.569513999857,304.38057744982655,None,,,,12017,0001,2022_May_20_1348,localizer,2021.1.3,59.43677715636204,
block,objects,objects035.bmp,,,,,0,158,158,158,,,,,,,,,,,,,,,,,,,,,,,,,,,,,,,,,,,,,,,,,,None,,304.38057744982655,None,304.38057744982655,None,2022-05-20-13:53:33.328390,304.3857342998963,304.69665569998324,304.3857342998963,None,None,304.3857342998963,None,305.1976637499407,None,,,,12017,0001,2022_May_20_1348,localizer,2021.1.3,59.43677715636204,
block,objects,objects076.bmp,,,,,0,159,159,159,,,,,,,,,,,,,,,,,,,,,,,,,,,,,,,,,,,,,,,,,,None,,305.1976637499407,None,305.1976637499407,None,2022-05-20-13:53:34.146445,305.1994324999396,305.5135177997872,305.1994324999396,None,y,305.1994324999396,None,306.01393324988896,None,0.4987732998561114,,,12017,0001,2022_May_20_1348,localizer,2021.1.3,59.43677715636204,
block,objects,objects030.bmp,,,,,0,160,160,160,,,,,,,,,,,,,,,,,,,,,,,,,,,,,,,,,,,,,,,,,,None,,306.01393324988896,None,306.01393324988896,None,2022-05-20-13:53:34.961778,306.01435659988783,306.32978169992566,306.01435659988783,None,y,306.01435659988783,None,306.8140430498403,None,0.5990654001943767,,,12017,0001,2022_May_20_1348,localizer,2021.1.3,59.43677715636204,
block,objects,objects022.bmp,,,,,0,161,161,161,,,,,,,,,,,,,,,,,,,,,,,,,,,,,,,,,,,,,,,,,,None,,306.8140430498403,None,306.8140430498403,None,2022-05-20-13:53:35.763669,306.8214489999227,307.1302497999277,306.8214489999227,306.8214489999227,None,306.8214489999227,306.8214489999227,307.6306557498407,None,,,,12017,0001,2022_May_20_1348,localizer,2021.1.3,59.43677715636204,
block,objects,objects061.bmp,,,,,0,162,162,162,,,,,,,,,,,,,,,,,,,,,,,,,,,,,,,,,,,,,,,,,,None,,307.6306557498407,None,307.6306557498407,None,2022-05-20-13:53:36.579520,307.631049499847,307.9302263997961,307.631049499847,None,y,307.631049499847,None,308.4315327498131,None,0.6783294000197202,,,12017,0001,2022_May_20_1348,localizer,2021.1.3,59.43677715636204,
block,objects,objects016.bmp,,,,,0,163,163,163,,,,,,,,,,,,,,,,,,,,,,,,,,,,,,,,,,,,,,,,,,None,,308.4315327498131,None,308.4315327498131,None,2022-05-20-13:53:37.384356,308.43693629978225,308.7479843997862,308.43693629978225,308.43693629978225,y,308.43693629978225,308.43693629978225,309.24726254995915,None,0.48937670001760125,,,12017,0001,2022_May_20_1348,localizer,2021.1.3,59.43677715636204,
block,objects,objects063.bmp,,,,,0,164,164,164,,,,,,,,,,,,,,,,,,,,,,,,,,,,,,,,,,,,,,,,,,None,,309.24726254995915,None,309.24726254995915,None,2022-05-20-13:53:38.194949,309.2526316998992,309.5636256998405,309.2526316998992,None,None,309.2526316998992,None,310.0636888499372,None,,,,12017,0001,2022_May_20_1348,localizer,2021.1.3,59.43677715636204,
block,objects,objects057.bmp,,,,,0,165,165,165,,,,,,,,,,,,,,,,,,,,,,,,,,,,,,,,,,,,,,,,,,None,,310.0636888499372,None,310.0636888499372,None,2022-05-20-13:53:39.011610,310.06804509996437,310.3803695999086,310.06804509996437,None,None,310.06804509996437,None,310.8802795500029,None,,,,12017,0001,2022_May_20_1348,localizer,2021.1.3,59.43677715636204,
block_end,objects,objects046.bmp,,,,,0,166,166,166,,,,,,,,,,,,,,,,,,,,,,,,,,,,,,,,,,,,,,,,,,None,,310.8802795500029,None,310.8802795500029,None,2022-05-20-13:53:39.827990,310.88438919978216,311.1967724999413,310.88438919978216,None,None,310.88438919978216,None,311.69829074982556,None,,,,12017,0001,2022_May_20_1348,localizer,2021.1.3,59.43677715636204,
null_block,null_block,null_block.bmp,,,,,0,167,167,167,,,,,,,,,,,,,,,,,,,,,,,,,,,,,,,,,,,,,,,,,,t,1.8054983001202345,311.698087599827,None,311.698087599827,None,2022-05-20-13:53:42.476563,313.53061445001515,None,313.53061445001515,None,None,313.53061445001515,None,313.5332812999841,None,,,,12017,0001,2022_May_20_1348,localizer,2021.1.3,59.43677715636204,
block_start,faces,faces036.bmp,,,,,0,168,168,168,,,,,,,,,,,,,,,,,,,,,,,,,,,,,,,,,,,,,,,,,,t,1.9566522999666631,325.54590619984083,None,325.54590619984083,None,2022-05-20-13:53:56.479996,327.53783959988505,327.8467798999045,327.53783959988505,None,None,327.53783959988505,None,328.3479346499313,None,,,,12017,0001,2022_May_20_1348,localizer,2021.1.3,59.43677715636204,
block,faces,faces067.bmp,,,,,0,169,169,169,,,,,,,,,,,,,,,,,,,,,,,,,,,,,,,,,,,,,,,,,,None,,328.3479346499313,None,328.3479346499313,None,2022-05-20-13:53:57.296866,328.3556197998114,328.6636999999173,328.3556197998114,None,None,328.3556197998114,None,329.16415984989146,None,,,,12017,0001,2022_May_20_1348,localizer,2021.1.3,59.43677715636204,
block,faces,faces035.bmp,,,,,0,170,170,170,,,,,,,,,,,,,,,,,,,,,,,,,,,,,,,,,,,,,,,,,,None,,329.16415984989146,None,329.16415984989146,None,2022-05-20-13:53:58.112329,329.1719850997906,329.4808704999741,329.1719850997906,None,y,329.1719850997906,None,329.98070534984583,None,0.02328060008585453,,,12017,0001,2022_May_20_1348,localizer,2021.1.3,59.43677715636204,
block,faces,faces075.bmp,,,,,0,171,171,171,,,,,,,,,,,,,,,,,,,,,,,,,,,,,,,,,,,,,,,,,,None,,329.98070534984583,None,329.98070534984583,None,2022-05-20-13:53:58.928690,329.98561029997654,330.29686090000905,329.98561029997654,None,None,329.98561029997654,None,330.797080549784,None,,,,12017,0001,2022_May_20_1348,localizer,2021.1.3,59.43677715636204,
block,faces,faces063.bmp,,,,,0,172,172,172,,,,,,,,,,,,,,,,,,,,,,,,,,,,,,,,,,,,,,,,,,None,,330.797080549784,None,330.797080549784,None,2022-05-20-13:53:59.745085,330.8011281997897,331.11346379993483,330.8011281997897,None,None,330.8011281997897,None,331.6136374498252,None,,,,12017,0001,2022_May_20_1348,localizer,2021.1.3,59.43677715636204,
block,faces,faces077.bmp,,,,,0,173,173,173,,,,,,,,,,,,,,,,,,,,,,,,,,,,,,,,,,,,,,,,,,None,,331.6136374498252,None,331.6136374498252,None,2022-05-20-13:54:00.561670,331.6177552998997,331.92055739997886,331.6177552998997,None,None,331.6177552998997,None,332.43072354993785,None,,,,12017,0001,2022_May_20_1348,localizer,2021.1.3,59.43677715636204,
block,faces,faces054.bmp,,,,,0,174,174,174,,,,,,,,,,,,,,,,,,,,,,,,,,,,,,,,,,,,,,,,,,None,,332.43072354993785,None,332.43072354993785,None,2022-05-20-13:54:01.378743,332.4364882998634,332.74681859998964,332.4364882998634,None,None,332.4364882998634,None,333.24717844990084,None,,,,12017,0001,2022_May_20_1348,localizer,2021.1.3,59.43677715636204,
block,faces,faces017.bmp,,,,,0,175,175,175,,,,,,,,,,,,,,,,,,,,,,,,,,,,,,,,,,,,,,,,,,None,,333.24717844990084,None,333.24717844990084,None,2022-05-20-13:54:02.195210,333.2509290999733,333.563665199792,333.2509290999733,None,None,333.2509290999733,None,334.06506924997086,None,,,,12017,0001,2022_May_20_1348,localizer,2021.1.3,59.43677715636204,
block,faces,faces028.bmp,,,,,0,176,176,176,,,,,,,,,,,,,,,,,,,,,,,,,,,,,,,,,,,,,,,,,,None,,334.06506924997086,None,334.06506924997086,None,2022-05-20-13:54:03.015286,334.073172400007,334.3804773997981,334.073172400007,None,None,334.073172400007,None,334.8805413499009,None,,,,12017,0001,2022_May_20_1348,localizer,2021.1.3,59.43677715636204,
block,faces,faces086.bmp,,,,,0,177,177,177,,,,,,,,,,,,,,,,,,,,,,,,,,,,,,,,,,,,,,,,,,None,,334.8805413499009,None,334.8805413499009,None,2022-05-20-13:54:03.828595,334.88130989996716,335.1806017998606,334.88130989996716,None,None,334.88130989996716,None,335.6811076499522,None,,,,12017,0001,2022_May_20_1348,localizer,2021.1.3,59.43677715636204,
block,faces,faces052.bmp,,,,,0,178,178,178,,,,,,,,,,,,,,,,,,,,,,,,,,,,,,,,,,,,,,,,,,None,,335.6811076499522,None,335.6811076499522,None,2022-05-20-13:54:04.632346,335.6902216000017,335.99762679985724,335.6902216000017,335.6902216000017,None,335.6902216000017,335.6902216000017,336.49788784994746,None,,,,12017,0001,2022_May_20_1348,localizer,2021.1.3,59.43677715636204,
block,faces,faces020.bmp,,,,,0,179,179,179,,,,,,,,,,,,,,,,,,,,,,,,,,,,,,,,,,,,,,,,,,None,,336.49788784994746,None,336.49788784994746,None,2022-05-20-13:54:05.447132,336.50488819996826,336.813557599904,336.50488819996826,None,None,336.50488819996826,None,337.31408744994553,None,,,,12017,0001,2022_May_20_1348,localizer,2021.1.3,59.43677715636204,
block,faces,faces012.bmp,,,,,0,180,180,180,,,,,,,,,,,,,,,,,,,,,,,,,,,,,,,,,,,,,,,,,,None,,337.31408744994553,None,337.31408744994553,None,2022-05-20-13:54:06.262177,337.31906549981795,337.63073709979653,337.31906549981795,None,None,337.31906549981795,None,338.13116294997747,None,,,,12017,0001,2022_May_20_1348,localizer,2021.1.3,59.43677715636204,
block,faces,faces012.bmp,,,,,0,181,181,181,,,,,,,,,,,,,,,,,,,,,,,,,,,,,,,,,,,,,,,,,,None,,338.13116294997747,None,338.13116294997747,None,2022-05-20-13:54:07.080434,338.13299690000713,338.4476174998563,338.13299690000713,None,y,338.13299690000713,None,338.9474528498482,None,0.5104410999920219,,,12017,0001,2022_May_20_1348,localizer,2021.1.3,59.43677715636204,
block_end,faces,faces034.bmp,,,,,0,182,182,182,,,,,,,,,,,,,,,,,,,,,,,,,,,,,,,,,,,,,,,,,,None,,338.9474528498482,None,338.9474528498482,None,2022-05-20-13:54:07.895343,338.94796479982324,339.2474695998244,338.94796479982324,None,y,338.94796479982324,None,339.74765914995226,None,0.7073663000483066,,,12017,0001,2022_May_20_1348,localizer,2021.1.3,59.43677715636204,
block_start,faces,faces075.bmp,,,,,0,183,183,183,,,,,,,,,,,,,,,,,,,,,,,,,,,,,,,,,,,,,,,,,,t,1.7552383001893759,339.7472910999786,None,339.7472910999786,None,2022-05-20-13:54:10.477221,341.531473999843,341.84745839983225,341.531473999843,None,y,341.531473999843,None,342.3327258498408,None,0.5281686999369413,,,12017,0001,2022_May_20_1348,localizer,2021.1.3,59.43677715636204,
block,faces,faces073.bmp,,,,,0,184,184,184,,,,,,,,,,,,,,,,,,,,,,,,,,,,,,,,,,,,,,,,,,None,,342.3327258498408,None,342.3327258498408,None,2022-05-20-13:54:11.286985,342.3445260999724,342.64698099996895,342.3445260999724,342.3445260999724,None,342.3445260999724,342.3445260999724,343.1478913499974,None,,,,12017,0001,2022_May_20_1348,localizer,2021.1.3,59.43677715636204,
block,faces,faces043.bmp,,,,,0,185,185,185,,,,,,,,,,,,,,,,,,,,,,,,,,,,,,,,,,,,,,,,,,None,,343.1478913499974,None,343.1478913499974,None,2022-05-20-13:54:12.097992,343.15542729990557,343.46379959979095,343.15542729990557,None,None,343.15542729990557,None,343.9641715499107,None,,,,12017,0001,2022_May_20_1348,localizer,2021.1.3,59.43677715636204,
block,faces,faces018.bmp,,,,,0,186,186,186,,,,,,,,,,,,,,,,,,,,,,,,,,,,,,,,,,,,,,,,,,None,,343.9641715499107,None,343.9641715499107,None,2022-05-20-13:54:12.912470,343.9647435999941,344.2634611998219,343.9647435999941,None,y,343.9647435999941,None,344.7637714498211,None,0.4086445001885295,,,12017,0001,2022_May_20_1348,localizer,2021.1.3,59.43677715636204,
block,faces,faces011.bmp,,,,,0,187,187,187,,,,,,,,,,,,,,,,,,,,,,,,,,,,,,,,,,,,,,,,,,None,,344.7637714498211,None,344.7637714498211,None,2022-05-20-13:54:13.713969,344.76481729978696,345.063649199903,344.76481729978696,344.76481729978696,y,344.76481729978696,344.76481729978696,345.5804172499571,None,0.522467500064522,,,12017,0001,2022_May_20_1348,localizer,2021.1.3,59.43677715636204,
block,faces,faces038.bmp,,,,,0,188,188,188,,,,,,,,,,,,,,,,,,,,,,,,,,,,,,,,,,,,,,,,,,None,,345.5804172499571,None,345.5804172499571,None,2022-05-20-13:54:14.528849,345.5923295998946,345.89727789978497,345.5923295998946,None,None,345.5923295998946,None,346.39850974981675,None,,,,12017,0001,2022_May_20_1348,localizer,2021.1.3,59.43677715636204,
block,faces,faces058.bmp,,,,,0,189,189,189,,,,,,,,,,,,,,,,,,,,,,,,,,,,,,,,,,,,,,,,,,None,,346.39850974981675,None,346.39850974981675,None,2022-05-20-13:54:15.347845,346.4006422997918,346.71396109997295,346.4006422997918,None,y,346.4006422997918,None,347.21413524998354,None,0.43788799992762506,,,12017,0001,2022_May_20_1348,localizer,2021.1.3,59.43677715636204,
block,faces,faces014.bmp,,,,,0,190,190,190,,,,,,,,,,,,,,,,,,,,,,,,,,,,,,,,,,,,,,,,,,None,,347.21413524998354,None,347.21413524998354,None,2022-05-20-13:54:16.162572,347.22599760000594,347.5305381999351,347.22599760000594,None,None,347.22599760000594,None,348.03110494990835,None,,,,12017,0001,2022_May_20_1348,localizer,2021.1.3,59.43677715636204,
block,faces,faces002.bmp,,,,,0,191,191,191,,,,,,,,,,,,,,,,,,,,,,,,,,,,,,,,,,,,,,,,,,None,,348.03110494990835,None,348.03110494990835,None,2022-05-20-13:54:16.979347,348.0427788000088,348.3472984000109,348.0427788000088,None,None,348.0427788000088,None,348.84737855000424,None,,,,12017,0001,2022_May_20_1348,localizer,2021.1.3,59.43677715636204,
block,faces,faces025.bmp,,,,,0,192,192,192,,,,,,,,,,,,,,,,,,,,,,,,,,,,,,,,,,,,,,,,,,None,,348.84737855000424,None,348.84737855000424,None,2022-05-20-13:54:17.795768,348.85150699992664,349.16385249979794,348.85150699992664,None,None,348.85150699992664,None,349.66424814998174,None,,,,12017,0001,2022_May_20_1348,localizer,2021.1.3,59.43677715636204,
block,faces,faces034.bmp,,,,,0,193,193,193,,,,,,,,,,,,,,,,,,,,,,,,,,,,,,,,,,,,,,,,,,None,,349.66424814998174,None,349.66424814998174,None,2022-05-20-13:54:18.612518,349.6647223997861,349.96381230000407,349.6647223997861,None,y,349.6647223997861,None,350.4650091500022,None,0.5336092999204993,,,12017,0001,2022_May_20_1348,localizer,2021.1.3,59.43677715636204,
block,faces,faces088.bmp,,,,,0,194,194,194,,,,,,,,,,,,,,,,,,,,,,,,,,,,,,,,,,,,,,,,,,None,,350.4650091500022,None,350.4650091500022,None,2022-05-20-13:54:19.417429,350.4758042998146,350.7805055999197,350.4758042998146,350.4758042998146,None,350.4758042998146,350.4758042998146,351.2801767498255,None,,,,12017,0001,2022_May_20_1348,localizer,2021.1.3,59.43677715636204,
block,faces,faces021.bmp,,,,,0,195,195,195,,,,,,,,,,,,,,,,,,,,,,,,,,,,,,,,,,,,,,,,,,None,,351.2801767498255,None,351.2801767498255,None,2022-05-20-13:54:20.228475,351.28917409991845,351.59751379978843,351.28917409991845,None,None,351.28917409991845,None,352.09731354997496,None,,,,12017,0001,2022_May_20_1348,localizer,2021.1.3,59.43677715636204,
block,faces,faces076.bmp,,,,,0,196,196,196,,,,,,,,,,,,,,,,,,,,,,,,,,,,,,,,,,,,,,,,,,None,,352.09731354997496,None,352.09731354997496,None,2022-05-20-13:54:21.045617,352.0980473998934,352.39707429986447,352.0980473998934,None,y,352.0980473998934,None,352.89729114985096,None,0.657330899965018,,,12017,0001,2022_May_20_1348,localizer,2021.1.3,59.43677715636204,
block_end,faces,faces003.bmp,,,,,0,197,197,197,,,,,,,,,,,,,,,,,,,,,,,,,,,,,,,,,,,,,,,,,,None,,352.89729114985096,None,352.89729114985096,None,2022-05-20-13:54:21.847098,352.89795709983446,353.19692389992997,352.89795709983446,352.89795709983446,y,352.89795709983446,352.89795709983446,353.69745304984974,None,0.4501022999174893,,,12017,0001,2022_May_20_1348,localizer,2021.1.3,59.43677715636204,
block_start,scenes,scenes059.bmp,,,,,0,198,198,198,,,,,,,,,,,,,,,,,,,,,,,,,,,,,,,,,,,,,,,,,,t,1.805375900119543,353.6971666999161,None,353.6971666999161,None,2022-05-20-13:54:24.477346,355.5324195998255,355.83663229993545,355.5324195998255,None,y,355.5324195998255,None,356.3481128498912,None,0.6170495001133531,,,12017,0001,2022_May_20_1348,localizer,2021.1.3,59.43677715636204,
block,scenes,scenes030.bmp,,,,,0,199,199,199,,,,,,,,,,,,,,,,,,,,,,,,,,,,,,,,,,,,,,,,,,None,,356.3481128498912,None,356.3481128498912,None,2022-05-20-13:54:25.298459,356.3558694999665,356.66376429982483,356.3558694999665,None,None,356.3558694999665,None,357.1633406499401,None,,,,12017,0001,2022_May_20_1348,localizer,2021.1.3,59.43677715636204,
block,scenes,scenes037.bmp,,,,,0,200,200,200,,,,,,,,,,,,,,,,,,,,,,,,,,,,,,,,,,,,,,,,,,None,,357.1633406499401,None,357.1633406499401,None,2022-05-20-13:54:26.110973,357.1720247999765,357.480769299902,357.1720247999765,None,None,357.1720247999765,None,357.98206384982916,None,,,,12017,0001,2022_May_20_1348,localizer,2021.1.3,59.43677715636204,
block,scenes,scenes068.bmp,,,,,0,201,201,201,,,,,,,,,,,,,,,,,,,,,,,,,,,,,,,,,,,,,,,,,,None,,357.98206384982916,None,357.98206384982916,None,2022-05-20-13:54:26.933318,357.99612389993854,358.29732399992645,357.99612389993854,None,None,357.99612389993854,None,358.79701764988715,None,,,,12017,0001,2022_May_20_1348,localizer,2021.1.3,59.43677715636204,
block,scenes,scenes033.bmp,,,,,0,202,202,202,,,,,,,,,,,,,,,,,,,,,,,,,,,,,,,,,,,,,,,,,,None,,358.79701764988715,None,358.79701764988715,None,2022-05-20-13:54:27.745432,358.79824479995295,359.09743719990365,358.79824479995295,None,None,358.79824479995295,None,359.6137658498716,None,,,,12017,0001,2022_May_20_1348,localizer,2021.1.3,59.43677715636204,
block,scenes,scenes078.bmp,,,,,0,203,203,203,,,,,,,,,,,,,,,,,,,,,,,,,,,,,,,,,,,,,,,,,,None,,359.6137658498716,None,359.6137658498716,None,2022-05-20-13:54:28.562183,359.6149502999615,359.9139919998124,359.6149502999615,None,y,359.6149502999615,None,360.4167423498817,None,0.6626981000881642,,,12017,0001,2022_May_20_1348,localizer,2021.1.3,59.43677715636204,
block,scenes,scenes057.bmp,,,,,0,204,204,204,,,,,,,,,,,,,,,,,,,,,,,,,,,,,,,,,,,,,,,,,,None,,360.4167423498817,None,360.4167423498817,None,2022-05-20-13:54:29.371265,360.4342609997839,360.7470926998649,360.4342609997839,360.4342609997839,None,360.4342609997839,360.4342609997839,361.2319454498589,None,,,,12017,0001,2022_May_20_1348,localizer,2021.1.3,59.43677715636204,
block,scenes,scenes070.bmp,,,,,0,205,205,205,,,,,,,,,,,,,,,,,,,,,,,,,,,,,,,,,,,,,,,,,,None,,361.2319454498589,None,361.2319454498589,None,2022-05-20-13:54:30.184539,361.2430556998588,361.54713619989343,361.2430556998588,None,None,361.2430556998588,None,362.0475637499709,None,,,,12017,0001,2022_May_20_1348,localizer,2021.1.3,59.43677715636204,
block,scenes,scenes085.bmp,,,,,0,206,206,206,,,,,,,,,,,,,,,,,,,,,,,,,,,,,,,,,,,,,,,,,,None,,362.0475637499709,None,362.0475637499709,None,2022-05-20-13:54:30.996100,362.05265189986676,362.3636717000045,362.05265189986676,None,None,362.05265189986676,None,362.8641210500151,None,,,,12017,0001,2022_May_20_1348,localizer,2021.1.3,59.43677715636204,
block,scenes,scenes023.bmp,,,,,0,207,207,207,,,,,,,,,,,,,,,,,,,,,,,,,,,,,,,,,,,,,,,,,,None,,362.8641210500151,None,362.8641210500151,None,2022-05-20-13:54:31.812581,362.8690103997942,363.17036290001124,362.8690103997942,None,None,362.8690103997942,None,363.68154964982534,None,,,,12017,0001,2022_May_20_1348,localizer,2021.1.3,59.43677715636204,
block,scenes,scenes049.bmp,,,,,0,208,208,208,,,,,,,,,,,,,,,,,,,,,,,,,,,,,,,,,,,,,,,,,,None,,363.68154964982534,None,363.68154964982534,None,2022-05-20-13:54:32.631184,363.6883547999896,363.99827339989133,363.6883547999896,None,None,363.6883547999896,None,364.4972326498479,None,,,,12017,0001,2022_May_20_1348,localizer,2021.1.3,59.43677715636204,
block,scenes,scenes074.bmp,,,,,0,209,209,209,,,,,,,,,,,,,,,,,,,,,,,,,,,,,,,,,,,,,,,,,,None,,364.4972326498479,None,364.4972326498479,None,2022-05-20-13:54:33.446070,364.4980623999145,364.7973152999766,364.4980623999145,None,y,364.4980623999145,None,365.2975520499982,None,0.6415115999989212,,,12017,0001,2022_May_20_1348,localizer,2021.1.3,59.43677715636204,
block,scenes,scenes022.bmp,,,,,0,210,210,210,,,,,,,,,,,,,,,,,,,,,,,,,,,,,,,,,,,,,,,,,,None,,365.2975520499982,None,365.2975520499982,None,2022-05-20-13:54:34.248047,365.2986733999569,365.6139504997991,365.2986733999569,365.2986733999569,y,365.2986733999569,365.2986733999569,366.1138310499024,None,0.7257183000911027,,,12017,0001,2022_May_20_1348,localizer,2021.1.3,59.43677715636204,
block,scenes,scenes013.bmp,,,,,0,211,211,211,,,,,,,,,,,,,,,,,,,,,,,,,,,,,,,,,,,,,,,,,,None,,366.1138310499024,None,366.1138310499024,None,2022-05-20-13:54:35.062339,366.11484119994566,366.4141186999623,366.11484119994566,None,y,366.11484119994566,None,366.9144375497941,None,0.6158388999756426,,,12017,0001,2022_May_20_1348,localizer,2021.1.3,59.43677715636204,
block_end,scenes,scenes024.bmp,,,,,0,212,212,212,,,,,,,,,,,,,,,,,,,,,,,,,,,,,,,,,,,,,,,,,,None,,366.9144375497941,None,366.9144375497941,None,2022-05-20-13:54:35.865024,366.92748639988713,367.2316052999813,366.92748639988713,366.92748639988713,None,366.92748639988713,366.92748639988713,367.73185855001213,None,,,,12017,0001,2022_May_20_1348,localizer,2021.1.3,59.43677715636204,
block_start,objects,objects009.bmp,,,,,0,213,213,213,,,,,,,,,,,,,,,,,,,,,,,,,,,,,,,,,,,,,,,,,,t,1.7710158000700176,367.73162380000576,None,367.73162380000576,None,2022-05-20-13:54:38.480099,369.53763569984585,369.8475232999772,369.53763569984585,None,None,369.53763569984585,None,370.3475726499688,None,,,,12017,0001,2022_May_20_1348,localizer,2021.1.3,59.43677715636204,
block,objects,objects088.bmp,,,,,0,214,214,214,,,,,,,,,,,,,,,,,,,,,,,,,,,,,,,,,,,,,,,,,,None,,370.3475726499688,None,370.3475726499688,None,2022-05-20-13:54:39.296139,370.34810629999265,370.647347799968,370.34810629999265,None,y,370.34810629999265,None,371.14755304986613,None,0.5043039000593126,,,12017,0001,2022_May_20_1348,localizer,2021.1.3,59.43677715636204,
block,objects,objects025.bmp,,,,,0,215,215,215,,,,,,,,,,,,,,,,,,,,,,,,,,,,,,,,,,,,,,,,,,None,,371.14755304986613,None,371.14755304986613,None,2022-05-20-13:54:40.103865,371.1625069999136,371.4639383999165,371.1625069999136,371.1625069999136,None,371.1625069999136,371.1625069999136,371.96452994984577,None,,,,12017,0001,2022_May_20_1348,localizer,2021.1.3,59.43677715636204,
block,objects,objects069.bmp,,,,,0,216,216,216,,,,,,,,,,,,,,,,,,,,,,,,,,,,,,,,,,,,,,,,,,None,,371.96452994984577,None,371.96452994984577,None,2022-05-20-13:54:40.914271,371.97071829997003,372.28057219996117,371.97071829997003,None,None,371.97071829997003,None,372.78069644994105,None,,,,12017,0001,2022_May_20_1348,localizer,2021.1.3,59.43677715636204,
block,objects,objects032.bmp,,,,,0,217,217,217,,,,,,,,,,,,,,,,,,,,,,,,,,,,,,,,,,,,,,,,,,None,,372.78069644994105,None,372.78069644994105,None,2022-05-20-13:54:41.728310,372.7818270998541,373.0972835998982,372.7818270998541,None,y,372.7818270998541,None,373.58088754992934,None,0.45545649994164705,,,12017,0001,2022_May_20_1348,localizer,2021.1.3,59.43677715636204,
block,objects,objects037.bmp,,,,,0,218,218,218,,,,,,,,,,,,,,,,,,,,,,,,,,,,,,,,,,,,,,,,,,None,,373.58088754992934,None,373.58088754992934,None,2022-05-20-13:54:42.530937,373.587114199996,373.8982679999899,373.587114199996,373.587114199996,None,373.587114199996,373.587114199996,374.39823244991715,None,,,,12017,0001,2022_May_20_1348,localizer,2021.1.3,59.43677715636204,
block,objects,objects037.bmp,,,,,0,219,219,219,,,,,,,,,,,,,,,,,,,,,,,,,,,,,,,,,,,,,,,,,,None,,374.39823244991715,None,374.39823244991715,None,2022-05-20-13:54:43.347914,374.40004279999994,374.71360089979135,374.40004279999994,None,y,374.40004279999994,None,375.2139379499946,None,0.6984463999979198,,,12017,0001,2022_May_20_1348,localizer,2021.1.3,59.43677715636204,
block,objects,objects040.bmp,,,,,0,220,220,220,,,,,,,,,,,,,,,,,,,,,,,,,,,,,,,,,,,,,,,,,,None,,375.2139379499946,None,375.2139379499946,None,2022-05-20-13:54:44.161671,375.22176629980095,375.5304939998314,375.22176629980095,None,None,375.22176629980095,None,376.0311454498675,None,,,,12017,0001,2022_May_20_1348,localizer,2021.1.3,59.43677715636204,
block,objects,objects075.bmp,,,,,0,221,221,221,,,,,,,,,,,,,,,,,,,,,,,,,,,,,,,,,,,,,,,,,,None,,376.0311454498675,None,376.0311454498675,None,2022-05-20-13:54:44.980808,376.0367515999824,376.3474816000089,376.0367515999824,None,None,376.0367515999824,None,376.84681994994173,None,,,,12017,0001,2022_May_20_1348,localizer,2021.1.3,59.43677715636204,
block,objects,objects058.bmp,,,,,0,222,222,222,,,,,,,,,,,,,,,,,,,,,,,,,,,,,,,,,,,,,,,,,,None,,376.84681994994173,None,376.84681994994173,None,2022-05-20-13:54:45.794489,376.84930030000396,377.1637938998174,376.84930030000396,None,y,376.84930030000396,None,377.64858045000585,None,0.5120626001153141,,,12017,0001,2022_May_20_1348,localizer,2021.1.3,59.43677715636204,
block,objects,objects079.bmp,,,,,0,223,223,223,,,,,,,,,,,,,,,,,,,,,,,,,,,,,,,,,,,,,,,,,,None,,377.64858045000585,None,377.64858045000585,None,2022-05-20-13:54:46.601385,377.6572982999496,377.9641137998551,377.6572982999496,377.6572982999496,None,377.6572982999496,377.6572982999496,378.46425394983964,None,,,,12017,0001,2022_May_20_1348,localizer,2021.1.3,59.43677715636204,
block,objects,objects030.bmp,,,,,0,224,224,224,,,,,,,,,,,,,,,,,,,,,,,,,,,,,,,,,,,,,,,,,,None,,378.46425394983964,None,378.46425394983964,None,2022-05-20-13:54:47.412985,378.46485909982584,378.7640199000016,378.46485909982584,None,y,378.46485909982584,None,379.2644824498799,None,0.45862450008280575,,,12017,0001,2022_May_20_1348,localizer,2021.1.3,59.43677715636204,
block,objects,objects034.bmp,,,,,0,225,225,225,,,,,,,,,,,,,,,,,,,,,,,,,,,,,,,,,,,,,,,,,,None,,379.2644824498799,None,379.2644824498799,None,2022-05-20-13:54:48.221193,379.2751358000096,379.58040519990027,379.2751358000096,379.2751358000096,y,379.2751358000096,379.2751358000096,380.0815215498675,None,0.7133274998050183,,,12017,0001,2022_May_20_1348,localizer,2021.1.3,59.43677715636204,
block,objects,objects085.bmp,,,,,0,226,226,226,,,,,,,,,,,,,,,,,,,,,,,,,,,,,,,,,,,,,,,,,,None,,380.0815215498675,None,380.0815215498675,None,2022-05-20-13:54:49.031217,380.088184799999,380.3980211999733,380.088184799999,None,None,380.088184799999,None,380.89882414988244,None,,,,12017,0001,2022_May_20_1348,localizer,2021.1.3,59.43677715636204,
block_end,objects,objects024.bmp,,,,,0,227,227,227,,,,,,,,,,,,,,,,,,,,,,,,,,,,,,,,,,,,,,,,,,None,,380.89882414988244,None,380.89882414988244,None,2022-05-20-13:54:49.848705,380.90601809998043,381.21350769978017,380.90601809998043,None,None,380.90601809998043,None,381.7146959499456,None,,,,12017,0001,2022_May_20_1348,localizer,2021.1.3,59.43677715636204,
null_block,null_block,null_block.bmp,,,,,0,228,228,228,,,,,,,,,,,,,,,,,,,,,,,,,,,,,,,,,,,,,,,,,,t,1.7881686000619084,381.71436879993416,None,381.71436879993416,None,2022-05-20-13:54:52.478584,383.53081984994935,None,383.53081984994935,None,None,383.53081984994935,None,383.54092459985986,None,,,,12017,0001,2022_May_20_1348,localizer,2021.1.3,59.43677715636204,
block_start,scrambled,scrambled039.bmp,,,,,0,229,229,229,,,,,,,,,,,,,,,,,,,,,,,,,,,,,,,,,,,,,,,,,,t,1.9543173001147807,395.5483922997955,None,395.5483922997955,None,2022-05-20-13:55:06.484193,397.5407984999474,397.84744779998437,397.5407984999474,None,None,397.5407984999474,None,398.3476696500089,None,,,,12017,0001,2022_May_20_1348,localizer,2021.1.3,59.43677715636204,
block,scrambled,scrambled080.bmp,,,,,0,230,230,230,,,,,,,,,,,,,,,,,,,,,,,,,,,,,,,,,,,,,,,,,,None,,398.3476696500089,None,398.3476696500089,None,2022-05-20-13:55:07.297100,398.34830059995875,398.64773979992606,398.34830059995875,None,None,398.34830059995875,None,399.1476450498682,None,,,,12017,0001,2022_May_20_1348,localizer,2021.1.3,59.43677715636204,
block,scrambled,scrambled056.bmp,,,,,0,231,231,231,,,,,,,,,,,,,,,,,,,,,,,,,,,,,,,,,,,,,,,,,,None,,399.1476450498682,None,399.1476450498682,None,2022-05-20-13:55:08.099827,399.1549942998681,399.4643929998856,399.1549942998681,399.1549942998681,None,399.1549942998681,399.1549942998681,399.96507454980167,None,,,,12017,0001,2022_May_20_1348,localizer,2021.1.3,59.43677715636204,
block,scrambled,scrambled002.bmp,,,,,0,232,232,232,,,,,,,,,,,,,,,,,,,,,,,,,,,,,,,,,,,,,,,,,,None,,399.96507454980167,None,399.96507454980167,None,2022-05-20-13:55:08.915035,400.00699089979753,400.313750699861,400.00699089979753,None,None,400.00699089979753,None,400.7812261498999,None,,,,12017,0001,2022_May_20_1348,localizer,2021.1.3,59.43677715636204,
block,scrambled,scrambled065.bmp,,,,,0,233,233,233,,,,,,,,,,,,,,,,,,,,,,,,,,,,,,,,,,,,,,,,,,None,,400.7812261498999,None,400.7812261498999,None,2022-05-20-13:55:09.730252,400.7817495998461,401.0813655999955,400.7817495998461,None,y,400.7817495998461,None,401.581167949969,None,0.44069039984606206,,,12017,0001,2022_May_20_1348,localizer,2021.1.3,59.43677715636204,
block,scrambled,scrambled062.bmp,,,,,0,234,234,234,,,,,,,,,,,,,,,,,,,,,,,,,,,,,,,,,,,,,,,,,,None,,401.581167949969,None,401.581167949969,None,2022-05-20-13:55:10.531179,401.58701749984175,401.8976092999801,401.58701749984175,401.58701749984175,None,401.58701749984175,401.58701749984175,402.3979409499094,None,,,,12017,0001,2022_May_20_1348,localizer,2021.1.3,59.43677715636204,
block,scrambled,scrambled032.bmp,,,,,0,235,235,235,,,,,,,,,,,,,,,,,,,,,,,,,,,,,,,,,,,,,,,,,,None,,402.3979409499094,None,402.3979409499094,None,2022-05-20-13:55:11.347966,402.39850799995475,402.6976393999066,402.39850799995475,None,None,402.39850799995475,None,403.1980508499779,None,,,,12017,0001,2022_May_20_1348,localizer,2021.1.3,59.43677715636204,
block,scrambled,scrambled042.bmp,,,,,0,236,236,236,,,,,,,,,,,,,,,,,,,,,,,,,,,,,,,,,,,,,,,,,,None,,403.1980508499779,None,403.1980508499779,None,2022-05-20-13:55:12.149084,403.2004660998937,403.5146357999183,403.2004660998937,403.2004660998937,None,403.2004660998937,403.2004660998937,404.01458144993524,None,,,,12017,0001,2022_May_20_1348,localizer,2021.1.3,59.43677715636204,
block,scrambled,scrambled063.bmp,,,,,0,237,237,237,,,,,,,,,,,,,,,,,,,,,,,,,,,,,,,,,,,,,,,,,,None,,404.01458144993524,None,404.01458144993524,None,2022-05-20-13:55:12.963855,404.0205171999987,404.3308293998707,404.0205171999987,None,None,404.0205171999987,None,404.8309958499391,None,,,,12017,0001,2022_May_20_1348,localizer,2021.1.3,59.43677715636204,
block,scrambled,scrambled069.bmp,,,,,0,238,238,238,,,,,,,,,,,,,,,,,,,,,,,,,,,,,,,,,,,,,,,,,,None,,404.8309958499391,None,404.8309958499391,None,2022-05-20-13:55:13.779068,404.8318774998188,405.1300492999144,404.8318774998188,None,None,404.8318774998188,None,405.6311012498569,None,,,,12017,0001,2022_May_20_1348,localizer,2021.1.3,59.43677715636204,
block,scrambled,scrambled034.bmp,,,,,0,239,239,239,,,,,,,,,,,,,,,,,,,,,,,,,,,,,,,,,,,,,,,,,,None,,405.6311012498569,None,405.6311012498569,None,2022-05-20-13:55:14.581175,405.6369383998681,405.94772009993903,405.6369383998681,405.6369383998681,None,405.6369383998681,405.6369383998681,406.44768694988454,None,,,,12017,0001,2022_May_20_1348,localizer,2021.1.3,59.43677715636204,
block,scrambled,scrambled059.bmp,,,,,0,240,240,240,,,,,,,,,,,,,,,,,,,,,,,,,,,,,,,,,,,,,,,,,,None,,406.44768694988454,None,406.44768694988454,None,2022-05-20-13:55:15.396775,406.45134899998084,406.7642595998477,406.45134899998084,None,y,406.45134899998084,None,407.2644154498354,None,0.41887639998458326,,,12017,0001,2022_May_20_1348,localizer,2021.1.3,59.43677715636204,
block,scrambled,scrambled084.bmp,,,,,0,241,241,241,,,,,,,,,,,,,,,,,,,,,,,,,,,,,,,,,,,,,,,,,,None,,407.2644154498354,None,407.2644154498354,None,2022-05-20-13:55:16.213637,407.26524659991264,407.56411349982955,407.26524659991264,None,None,407.26524659991264,None,408.06476984978656,None,,,,12017,0001,2022_May_20_1348,localizer,2021.1.3,59.43677715636204,
block,scrambled,scrambled064.bmp,,,,,0,242,242,242,,,,,,,,,,,,,,,,,,,,,,,,,,,,,,,,,,,,,,,,,,None,,408.06476984978656,None,408.06476984978656,None,2022-05-20-13:55:17.016249,408.0669083998073,408.38115959987044,408.0669083998073,408.0669083998073,y,408.0669083998073,408.0669083998073,408.88111554984937,None,0.7043401000555605,,,12017,0001,2022_May_20_1348,localizer,2021.1.3,59.43677715636204,
block_end,scrambled,scrambled045.bmp,,,,,0,243,243,243,,,,,,,,,,,,,,,,,,,,,,,,,,,,,,,,,,,,,,,,,,None,,408.88111554984937,None,408.88111554984937,None,2022-05-20-13:55:17.830440,408.8818506000098,409.1807756999042,408.8818506000098,None,None,408.8818506000098,None,409.68122054999697,None,,,,12017,0001,2022_May_20_1348,localizer,2021.1.3,59.43677715636204,
,,,,,,,,,,,,,,,,,,,,,,,,,,,,,,,,,,,,,,,,,,,,,,,,,,,,,,,,,,,,,,,,,,,,,409.68139569996856,None,,,,,,,
