block_type,condition,img_name,Button.thisRepN,Button.thisTrialN,Button.thisN,Button.thisIndex,trials.thisRepN,trials.thisTrialN,trials.thisN,trials.thisIndex,Alignment_background.started,Alignment_background.stopped,Alignment_image.started,Alignment_image.stopped,Alignment_resp.keys,Alignment_resp.rt,Alignment_resp.started,Alignment_resp.stopped,Button_text.started,Button_text.stopped,Index_text.started,Index_text.stopped,Index_resp.keys,Index_resp.rt,Index_resp.started,Index_resp.stopped,Middle_text.started,Middle_text.stopped,Middle_resp.keys,Middle_resp.rt,Middle_resp.started,Middle_resp.stopped,Repeat_text.started,Repeat_text.stopped,Repeat_resp.keys,Repeat_resp.corr,Repeat_resp.rt,Repeat_resp.started,Repeat_resp.stopped,instruction_text.started,instruction_text.stopped,key_resp.keys,key_resp.rt,key_resp.started,key_resp.stopped,scanner_t.keys,scanner_t.rt,scanner_t.started,scanner_t.stopped,fixation_wait_for_t.started,fixation_wait_for_t.stopped,real_timestamp_trial_start,image.started,image.stopped,fixation.started,fixation.stopped,repeat_response.keys,repeat_response.started,repeat_response.stopped,fixation_null.started,fixation_null.stopped,participant,run,date,expName,psychopyVersion,frameRate,
,,,,,,,,,,,13.572370700072497,None,13.572370700072497,None,return,1.073214199859649,13.572370700072497,None,,,,,,,,,,,,,,,,,,,,,,,,,,,,,,,,,,,,,,,,,,,,00001,0001,2021_Sep_03_1048,localizer,2021.1.3,60.01511190627339,
,,,0,0,0,0,,,,,,,,,,,,,14.66780380019918,None,15.666960199829191,None,y,1.6184032997116446,15.666960199829191,None,17.30033680004999,None,b,0.14267490012571216,17.30033680004999,None,17.467065799981356,None,n,0,1.6910041999071836,17.467065799981356,None,,,,,,,,,,,,,,,,,,,,,,,00001,0001,2021_Sep_03_1048,localizer,2021.1.3,60.01511190627339,
,,,,,,,,,,,,,,,,,,,,,,,,,,,,,,,,,,,,,,,,19.183963200077415,None,y,4.715665199793875,19.183963200077415,None,,,,,,,,,,,,,,,,,00001,0001,2021_Sep_03_1048,localizer,2021.1.3,60.01511190627339,
block_start,scrambled,scrambled004.bmp,,,,,0,0,0,0,,,,,,,,,,,,,,,,,,,,,,,,,,,,,,,,,,,,t,21.958568799775094,23.968224099837244,None,23.968224099837244,None,2021-09-03-10:49:06.122144,45.95293270004913,46.26720710005611,45.95293270004913,None,None,45.95293270004913,None,46.76730157993734,None,00001,0001,2021_Sep_03_1048,localizer,2021.1.3,60.01511190627339,
block,scrambled,scrambled024.bmp,,,,,0,1,1,1,,,,,,,,,,,,,,,,,,,,,,,,,,,,,,,,,,,,None,,46.76730157993734,None,46.76730157993734,None,2021-09-03-10:49:06.953033,46.80430079996586,47.1173061998561,46.80430079996586,None,None,46.80430079996586,None,47.583684879820794,None,00001,0001,2021_Sep_03_1048,localizer,2021.1.3,60.01511190627339,
block,scrambled,scrambled060.bmp,,,,,0,2,2,2,,,,,,,,,,,,,,,,,,,,,,,,,,,,,,,,,,,,None,,47.583684879820794,None,47.583684879820794,None,2021-09-03-10:49:07.755507,47.593255899846554,47.90063880011439,47.593255899846554,None,None,47.593255899846554,None,48.4004901801236,None,00001,0001,2021_Sep_03_1048,localizer,2021.1.3,60.01511190627339,
block,scrambled,scrambled006.bmp,,,,,0,3,3,3,,,,,,,,,,,,,,,,,,,,,,,,,,,,,,,,,,,,None,,48.4004901801236,None,48.4004901801236,None,2021-09-03-10:49:08.577283,48.41054600011557,48.717329300008714,48.41054600011557,None,None,48.41054600011557,None,49.21718857996166,None,00001,0001,2021_Sep_03_1048,localizer,2021.1.3,60.01511190627339,
block,scrambled,scrambled030.bmp,,,,,0,4,4,4,,,,,,,,,,,,,,,,,,,,,,,,,,,,,,,,,,,,None,,49.21718857996166,None,49.21718857996166,None,2021-09-03-10:49:09.389193,49.22574560018256,49.533895700238645,49.22574560018256,None,None,49.22574560018256,None,50.03399437991902,None,00001,0001,2021_Sep_03_1048,localizer,2021.1.3,60.01511190627339,
block,scrambled,scrambled072.bmp,,,,,0,5,5,5,,,,,,,,,,,,,,,,,,,,,,,,,,,,,,,,,,,,None,,50.03399437991902,None,50.03399437991902,None,2021-09-03-10:49:10.213948,50.067047299817204,50.36734850006178,50.067047299817204,None,None,50.067047299817204,None,50.85075558023527,None,00001,0001,2021_Sep_03_1048,localizer,2021.1.3,60.01511190627339,
block,scrambled,scrambled047.bmp,,,,,0,6,6,6,,,,,,,,,,,,,,,,,,,,,,,,,,,,,,,,,,,,None,,50.85075558023527,None,50.85075558023527,None,2021-09-03-10:49:11.031150,50.87052300013602,51.184015000239015,50.87052300013602,None,None,50.87052300013602,None,51.666492079850286,None,00001,0001,2021_Sep_03_1048,localizer,2021.1.3,60.01511190627339,
block,scrambled,scrambled043.bmp,,,,,0,7,7,7,,,,,,,,,,,,,,,,,,,,,,,,,,,,,,,,,,,,None,,51.666492079850286,None,51.666492079850286,None,2021-09-03-10:49:11.838264,51.66753840027377,51.96737620001659,51.66753840027377,None,None,51.66753840027377,None,52.46736067999154,None,00001,0001,2021_Sep_03_1048,localizer,2021.1.3,60.01511190627339,
block,scrambled,scrambled016.bmp,,,,,0,8,8,8,,,,,,,,,,,,,,,,,,,,,,,,,,,,,,,,,,,,None,,52.46736067999154,None,52.46736067999154,None,2021-09-03-10:49:12.649229,52.502118499949574,52.817128099966794,52.502118499949574,52.502118499949574,None,52.502118499949574,52.502118499949574,53.28385287988931,None,00001,0001,2021_Sep_03_1048,localizer,2021.1.3,60.01511190627339,
block,scrambled,scrambled077.bmp,,,,,0,9,9,9,,,,,,,,,,,,,,,,,,,,,,,,,,,,,,,,,,,,None,,53.28385287988931,None,53.28385287988931,None,2021-09-03-10:49:13.462165,53.30019890004769,53.600546199828386,53.30019890004769,None,None,53.30019890004769,None,54.1003432800062,None,00001,0001,2021_Sep_03_1048,localizer,2021.1.3,60.01511190627339,
block,scrambled,scrambled034.bmp,,,,,0,10,10,10,,,,,,,,,,,,,,,,,,,,,,,,,,,,,,,,,,,,None,,54.1003432800062,None,54.1003432800062,None,2021-09-03-10:49:14.272200,54.101120200008154,54.40073100011796,54.101120200008154,None,None,54.101120200008154,None,54.9007327798754,None,00001,0001,2021_Sep_03_1048,localizer,2021.1.3,60.01511190627339,
block,scrambled,scrambled027.bmp,,,,,0,11,11,11,,,,,,,,,,,,,,,,,,,,,,,,,,,,,,,,,,,,None,,54.9007327798754,None,54.9007327798754,None,2021-09-03-10:49:15.083503,54.93650639988482,55.250268700066954,54.93650639988482,54.93650639988482,None,54.93650639988482,54.93650639988482,55.71736638015136,None,00001,0001,2021_Sep_03_1048,localizer,2021.1.3,60.01511190627339,
block,scrambled,scrambled074.bmp,,,,,0,12,12,12,,,,,,,,,,,,,,,,,,,,,,,,,,,,,,,,,,,,None,,55.71736638015136,None,55.71736638015136,None,2021-09-03-10:49:15.897341,55.73538239998743,56.03391489991918,55.73538239998743,None,None,55.73538239998743,None,56.53334697987884,None,00001,0001,2021_Sep_03_1048,localizer,2021.1.3,60.01511190627339,
block,scrambled,scrambled053.bmp,,,,,0,13,13,13,,,,,,,,,,,,,,,,,,,,,,,,,,,,,,,,,,,,None,,56.53334697987884,None,56.53334697987884,None,2021-09-03-10:49:16.706925,56.53695630002767,56.85065900022164,56.53695630002767,None,None,56.53695630002767,None,57.35069687990472,None,00001,0001,2021_Sep_03_1048,localizer,2021.1.3,60.01511190627339,
block_end,scrambled,scrambled062.bmp,,,,,0,14,14,14,,,,,,,,,,,,,,,,,,,,,,,,,,,,,,,,,,,,None,,57.35069687990472,None,57.35069687990472,None,2021-09-03-10:49:17.530908,57.37621450005099,57.684073199983686,57.37621450005099,None,None,57.37621450005099,None,58.167375380173326,None,00001,0001,2021_Sep_03_1048,localizer,2021.1.3,60.01511190627339,
block_start,objects,objects019.bmp,,,,,0,15,15,15,,,,,,,,,,,,,,,,,,,,,,,,,,,,,,,,,,,,t,1.7517507001757622,58.167399500031024,None,58.167399500031024,None,2021-09-03-10:49:20.121360,59.955168100073934,60.26743280002847,59.955168100073934,None,None,59.955168100073934,None,60.767131680157036,None,00001,0001,2021_Sep_03_1048,localizer,2021.1.3,60.01511190627339,
block,objects,objects071.bmp,,,,,0,16,16,16,,,,,,,,,,,,,,,,,,,,,,,,,,,,,,,,,,,,None,,60.767131680157036,None,60.767131680157036,None,2021-09-03-10:49:20.939005,60.771329400129616,61.08401839993894,60.771329400129616,None,None,60.771329400129616,None,61.58407628023997,None,00001,0001,2021_Sep_03_1048,localizer,2021.1.3,60.01511190627339,
block,objects,objects086.bmp,,,,,0,17,17,17,,,,,,,,,,,,,,,,,,,,,,,,,,,,,,,,,,,,None,,61.58407628023997,None,61.58407628023997,None,2021-09-03-10:49:21.764888,61.604478099849075,61.91743229981512,61.604478099849075,None,None,61.604478099849075,None,62.40051897987723,None,00001,0001,2021_Sep_03_1048,localizer,2021.1.3,60.01511190627339,
block,objects,objects084.bmp,,,,,0,18,18,18,,,,,,,,,,,,,,,,,,,,,,,,,,,,,,,,,,,,None,,62.40051897987723,None,62.40051897987723,None,2021-09-03-10:49:22.572403,62.40278110001236,62.71721629984677,62.40278110001236,None,None,62.40278110001236,None,63.2173882802017,None,00001,0001,2021_Sep_03_1048,localizer,2021.1.3,60.01511190627339,
block,objects,objects076.bmp,,,,,0,19,19,19,,,,,,,,,,,,,,,,,,,,,,,,,,,,,,,,,,,,None,,63.2173882802017,None,63.2173882802017,None,2021-09-03-10:49:23.397397,63.23531679995358,63.55059769982472,63.23531679995358,None,None,63.23531679995358,None,64.03411288000643,None,00001,0001,2021_Sep_03_1048,localizer,2021.1.3,60.01511190627339,
block,objects,objects082.bmp,,,,,0,20,20,20,,,,,,,,,,,,,,,,,,,,,,,,,,,,,,,,,,,,None,,64.03411288000643,None,64.03411288000643,None,2021-09-03-10:49:24.214132,64.05260520009324,64.36743550002575,64.05260520009324,None,None,64.05260520009324,None,64.85069358022884,None,00001,0001,2021_Sep_03_1048,localizer,2021.1.3,60.01511190627339,
block,objects,objects073.bmp,,,,,0,21,21,21,,,,,,,,,,,,,,,,,,,,,,,,,,,,,,,,,,,,None,,64.85069358022884,None,64.85069358022884,None,2021-09-03-10:49:25.026730,64.86663200007752,65.16747649991885,64.86663200007752,None,None,64.86663200007752,None,65.66728057991713,None,00001,0001,2021_Sep_03_1048,localizer,2021.1.3,60.01511190627339,
block,objects,objects013.bmp,,,,,0,22,22,22,,,,,,,,,,,,,,,,,,,,,,,,,,,,,,,,,,,,None,,65.66728057991713,None,65.66728057991713,None,2021-09-03-10:49:25.839339,65.6743669998832,65.98390020010993,65.6743669998832,None,None,65.6743669998832,None,66.48402308020741,None,00001,0001,2021_Sep_03_1048,localizer,2021.1.3,60.01511190627339,
block,objects,objects040.bmp,,,,,0,23,23,23,,,,,,,,,,,,,,,,,,,,,,,,,,,,,,,,,,,,None,,66.48402308020741,None,66.48402308020741,None,2021-09-03-10:49:26.664052,66.50278649991378,66.81713710026816,66.50278649991378,None,None,66.50278649991378,None,67.30060938000679,None,00001,0001,2021_Sep_03_1048,localizer,2021.1.3,60.01511190627339,
block,objects,objects025.bmp,,,,,0,24,24,24,,,,,,,,,,,,,,,,,,,,,,,,,,,,,,,,,,,,None,,67.30060938000679,None,67.30060938000679,None,2021-09-03-10:49:27.480630,67.33348330017179,67.63412750000134,67.33348330017179,None,None,67.33348330017179,None,68.11747997999191,None,00001,0001,2021_Sep_03_1048,localizer,2021.1.3,60.01511190627339,
block,objects,objects004.bmp,,,,,0,25,25,25,,,,,,,,,,,,,,,,,,,,,,,,,,,,,,,,,,,,None,,68.11747997999191,None,68.11747997999191,None,2021-09-03-10:49:28.297503,68.13555529993027,68.45054150000215,68.13555529993027,None,None,68.13555529993027,None,68.9338865801692,None,00001,0001,2021_Sep_03_1048,localizer,2021.1.3,60.01511190627339,
block,objects,objects088.bmp,,,,,0,26,26,26,,,,,,,,,,,,,,,,,,,,,,,,,,,,,,,,,,,,None,,68.9338865801692,None,68.9338865801692,None,2021-09-03-10:49:29.105801,68.93453179998323,69.23406209982932,68.93453179998323,None,None,68.93453179998323,None,69.73396228021011,None,00001,0001,2021_Sep_03_1048,localizer,2021.1.3,60.01511190627339,
block,objects,objects033.bmp,,,,,0,27,27,27,,,,,,,,,,,,,,,,,,,,,,,,,,,,,,,,,,,,None,,69.73396228021011,None,69.73396228021011,None,2021-09-03-10:49:29.913090,69.75424899999052,70.06741870008409,69.75424899999052,69.75424899999052,None,69.75424899999052,69.75424899999052,70.55067948019132,None,00001,0001,2021_Sep_03_1048,localizer,2021.1.3,60.01511190627339,
block,objects,objects055.bmp,,,,,0,28,28,28,,,,,,,,,,,,,,,,,,,,,,,,,,,,,,,,,,,,None,,70.55067948019132,None,70.55067948019132,None,2021-09-03-10:49:30.722623,70.55182089982554,70.85080230003223,70.55182089982554,None,None,70.55182089982554,None,71.36730547994375,None,00001,0001,2021_Sep_03_1048,localizer,2021.1.3,60.01511190627339,
block_end,objects,objects065.bmp,,,,,0,29,29,29,,,,,,,,,,,,,,,,,,,,,,,,,,,,,,,,,,,,None,,71.36730547994375,None,71.36730547994375,None,2021-09-03-10:49:31.539467,71.36981619987637,71.68400319991633,71.36981619987637,None,None,71.36981619987637,None,72.18418668024242,None,00001,0001,2021_Sep_03_1048,localizer,2021.1.3,60.01511190627339,
null_block,null_block,null_block.bmp,,,,,0,30,30,30,,,,,,,,,,,,,,,,,,,,,,,,,,,,,,,,,,,,t,0.6773446002043784,72.18422360019758,None,72.18422360019758,None,2021-09-03-10:49:33.060797,72.90062096016482,None,72.90062096016482,None,None,72.90062096016482,None,72.90121180005372,None,00001,0001,2021_Sep_03_1048,localizer,2021.1.3,60.01511190627339,
block_start,scenes,scenes087.bmp,,,,,0,31,31,31,,,,,,,,,,,,,,,,,,,,,,,,,,,,,,,,,,,,t,2.322933700401336,84.90034670010209,None,84.90034670010209,None,2021-09-03-10:49:47.430663,87.26036049984396,87.56752690020949,87.26036049984396,None,None,87.26036049984396,None,88.06742478022352,None,00001,0001,2021_Sep_03_1048,localizer,2021.1.3,60.01511190627339,
block,scenes,scenes049.bmp,,,,,0,32,32,32,,,,,,,,,,,,,,,,,,,,,,,,,,,,,,,,,,,,None,,88.06742478022352,None,88.06742478022352,None,2021-09-03-10:49:48.240634,88.07279689982533,88.38383059995249,88.07279689982533,None,None,88.07279689982533,None,88.88416827982292,None,00001,0001,2021_Sep_03_1048,localizer,2021.1.3,60.01511190627339,
block,scenes,scenes008.bmp,,,,,0,33,33,33,,,,,,,,,,,,,,,,,,,,,,,,,,,,,,,,,,,,None,,88.88416827982292,None,88.88416827982292,None,2021-09-03-10:49:49.062093,88.8977739000693,89.20078939991072,88.8977739000693,None,None,88.8977739000693,None,89.70077227987349,None,00001,0001,2021_Sep_03_1048,localizer,2021.1.3,60.01511190627339,
block,scenes,scenes084.bmp,,,,,0,34,34,34,,,,,,,,,,,,,,,,,,,,,,,,,,,,,,,,,,,,None,,89.70077227987349,None,89.70077227987349,None,2021-09-03-10:49:49.878446,89.71174110006541,90.01723009999841,89.71174110006541,None,None,89.71174110006541,None,90.51747018005699,None,00001,0001,2021_Sep_03_1048,localizer,2021.1.3,60.01511190627339,
block,scenes,scenes085.bmp,,,,,0,35,35,35,,,,,,,,,,,,,,,,,,,,,,,,,,,,,,,,,,,,None,,90.51747018005699,None,90.51747018005699,None,2021-09-03-10:49:50.695597,90.53367000026628,90.83422480011359,90.53367000026628,None,None,90.53367000026628,None,91.33428577985615,None,00001,0001,2021_Sep_03_1048,localizer,2021.1.3,60.01511190627339,
block,scenes,scenes022.bmp,,,,,0,36,36,36,,,,,,,,,,,,,,,,,,,,,,,,,,,,,,,,,,,,None,,91.33428577985615,None,91.33428577985615,None,2021-09-03-10:49:51.514416,91.35466179996729,91.66721250023693,91.35466179996729,None,None,91.35466179996729,None,92.15088998014107,None,00001,0001,2021_Sep_03_1048,localizer,2021.1.3,60.01511190627339,
block,scenes,scenes031.bmp,,,,,0,37,37,37,,,,,,,,,,,,,,,,,,,,,,,,,,,,,,,,,,,,None,,92.15088998014107,None,92.15088998014107,None,2021-09-03-10:49:52.332802,92.16736940015107,92.46763870026916,92.16736940015107,None,None,92.16736940015107,None,92.96761638019234,None,00001,0001,2021_Sep_03_1048,localizer,2021.1.3,60.01511190627339,
block,scenes,scenes015.bmp,,,,,0,38,38,38,,,,,,,,,,,,,,,,,,,,,,,,,,,,,,,,,,,,None,,92.96761638019234,None,92.96761638019234,None,2021-09-03-10:49:53.146551,92.99680570000783,93.30078440019861,92.99680570000783,None,None,92.99680570000783,None,93.7843176801689,None,00001,0001,2021_Sep_03_1048,localizer,2021.1.3,60.01511190627339,
block,scenes,scenes001.bmp,,,,,0,39,39,39,,,,,,,,,,,,,,,,,,,,,,,,,,,,,,,,,,,,None,,93.7843176801689,None,93.7843176801689,None,2021-09-03-10:49:53.965455,93.8145337998867,94.11708369990811,93.8145337998867,None,None,93.8145337998867,None,94.6005300800316,None,00001,0001,2021_Sep_03_1048,localizer,2021.1.3,60.01511190627339,
block,scenes,scenes037.bmp,,,,,0,40,40,40,,,,,,,,,,,,,,,,,,,,,,,,,,,,,,,,,,,,None,,94.6005300800316,None,94.6005300800316,None,2021-09-03-10:49:54.772904,94.60310130007565,94.91717009991407,94.60310130007565,None,None,94.60310130007565,None,95.41754727996886,None,00001,0001,2021_Sep_03_1048,localizer,2021.1.3,60.01511190627339,
block,scenes,scenes065.bmp,,,,,0,41,41,41,,,,,,,,,,,,,,,,,,,,,,,,,,,,,,,,,,,,None,,95.41754727996886,None,95.41754727996886,None,2021-09-03-10:49:55.594693,95.42866480024531,95.73420940013602,95.42866480024531,None,None,95.42866480024531,None,96.23432677984238,None,00001,0001,2021_Sep_03_1048,localizer,2021.1.3,60.01511190627339,
block,scenes,scenes077.bmp,,,,,0,42,42,42,,,,,,,,,,,,,,,,,,,,,,,,,,,,,,,,,,,,None,,96.23432677984238,None,96.23432677984238,None,2021-09-03-10:49:56.415260,96.24833430023864,96.55081679997966,96.24833430023864,None,None,96.24833430023864,None,97.05091358022764,None,00001,0001,2021_Sep_03_1048,localizer,2021.1.3,60.01511190627339,
block,scenes,scenes043.bmp,,,,,0,43,43,43,,,,,,,,,,,,,,,,,,,,,,,,,,,,,,,,,,,,None,,97.05091358022764,None,97.05091358022764,None,2021-09-03-10:49:57.222728,97.05152740003541,97.35095479991287,97.05152740003541,None,None,97.05152740003541,None,97.85083458013833,None,00001,0001,2021_Sep_03_1048,localizer,2021.1.3,60.01511190627339,
block,scenes,scenes002.bmp,,,,,0,44,44,44,,,,,,,,,,,,,,,,,,,,,,,,,,,,,,,,,,,,None,,97.85083458013833,None,97.85083458013833,None,2021-09-03-10:49:58.033939,97.87104600016028,98.18401380022988,97.87104600016028,97.87104600016028,None,97.87104600016028,97.87104600016028,98.6674684798345,None,00001,0001,2021_Sep_03_1048,localizer,2021.1.3,60.01511190627339,
block_end,scenes,scenes059.bmp,,,,,0,45,45,45,,,,,,,,,,,,,,,,,,,,,,,,,,,,,,,,,,,,None,,98.6674684798345,None,98.6674684798345,None,2021-09-03-10:49:58.848367,98.6884379000403,99.00061669992283,98.6884379000403,None,None,98.6884379000403,None,99.48392587993294,None,00001,0001,2021_Sep_03_1048,localizer,2021.1.3,60.01511190627339,
