block_type,condition,img_name,Button.thisRepN,Button.thisTrialN,Button.thisN,Button.thisIndex,trials.thisRepN,trials.thisTrialN,trials.thisN,trials.thisIndex,Ready_experimenter_text.started,Ready_experimenter_text.stopped,Ready_experimenter_resp.keys,Ready_experimenter_resp.rt,Ready_experimenter_resp.started,Ready_experimenter_resp.stopped,Alignment_background.started,Alignment_background.stopped,Alignment_image.started,Alignment_image.stopped,Alignment_resp.keys,Alignment_resp.rt,Alignment_resp.started,Alignment_resp.stopped,Button_text.started,Button_text.stopped,Index_text.started,Index_text.stopped,Index_resp.keys,Index_resp.rt,Index_resp.started,Index_resp.stopped,Middle_text.started,Middle_text.stopped,Middle_resp.keys,Middle_resp.rt,Middle_resp.started,Middle_resp.stopped,Repeat_text.started,Repeat_text.stopped,Repeat_resp.keys,Repeat_resp.corr,Repeat_resp.rt,Repeat_resp.started,Repeat_resp.stopped,instruction_text.started,instruction_text.stopped,key_resp.keys,key_resp.rt,key_resp.started,key_resp.stopped,scanner_t.keys,scanner_t.rt,scanner_t.started,scanner_t.stopped,fixation_wait_for_t.started,fixation_wait_for_t.stopped,real_timestamp_trial_start,image.started,image.stopped,fixation.started,fixation.stopped,repeat_response.keys,repeat_response.started,repeat_response.stopped,fixation_null.started,fixation_null.stopped,repeat_response.rt,end_text.started,end_text.stopped,participant,run,date,expName,psychopyVersion,frameRate,
,,,,,,,,,,,11.767777300032321,None,return,430.04535819997545,11.767777300032321,None,,,,,,,,,,,,,,,,,,,,,,,,,,,,,,,,,,,,,,,,,,,,,,,,,,,,,,,22006,0002,2022_Apr_05_1109,localizer,2021.1.3,60.88024307334411,
,,,,,,,,,,,,,,,,,441.8485401000362,None,441.8485401000362,None,return,1.4144409999717027,441.8485401000362,None,,,,,,,,,,,,,,,,,,,,,,,,,,,,,,,,,,,,,,,,,,,,,,,22006,0002,2022_Apr_05_1109,localizer,2021.1.3,60.88024307334411,
,,,0,0,0,0,,,,,,,,,,,,,,,,,,,443.2790002000402,None,444.278469700017,None,y,2.618791799992323,444.278469700017,None,446.91306729998905,None,b,1.215122799971141,446.91306729998905,None,448.14603509998415,None,y,1,3.1312144999974407,448.14603509998415,None,,,,,,,,,,,,,,,,,,,,,,,,,,22006,0002,2022_Apr_05_1109,localizer,2021.1.3,60.88024307334411,
,,,1,0,1,0,,,,,,,,,,,,,,,,,,,451.2958016000339,None,452.2955956000369,None,y,2.274468500050716,452.2955956000369,None,454.5960586000001,None,b,3.2430217000073753,454.5960586000001,None,457.8631507999962,None,n,0,1.5672871000133455,457.8631507999962,None,,,,,,,,,,,,,,,,,,,,,,,,,,22006,0002,2022_Apr_05_1109,localizer,2021.1.3,60.88024307334411,
,,,,,,,,,,,,,,,,,,,,,,,,,,,,,,,,,,,,,,,,,,,,,,459.4464452000102,None,y,25.87776160001522,459.4464452000102,None,,,,,,,,,,,,,,,,,,,,22006,0002,2022_Apr_05_1109,localizer,2021.1.3,60.88024307334411,
block_start,faces,faces043.bmp,,,,,0,0,0,0,,,,,,,,,,,,,,,,,,,,,,,,,,,,,,,,,,,,,,,,,,t,16.322528999997303,485.3715069000027,None,485.3715069000027,None,2022-04-05-11:17:14.843676,501.7353202000377,502.04580790002365,501.7353202000377,None,None,501.7353202000377,None,502.5306259800156,None,,,,22006,0002,2022_Apr_05_1109,localizer,2021.1.3,60.88024307334411,
block,faces,faces007.bmp,,,,,0,1,1,1,,,,,,,,,,,,,,,,,,,,,,,,,,,,,,,,,,,,,,,,,,None,,502.5306259800156,None,502.5306259800156,None,2022-04-05-11:17:15.666077,502.554466600006,502.8630058999988,502.554466600006,None,None,502.554466600006,None,503.3467344800185,None,,,,22006,0002,2022_Apr_05_1109,localizer,2021.1.3,60.88024307334411,
block,faces,faces081.bmp,,,,,0,2,2,2,,,,,,,,,,,,,,,,,,,,,,,,,,,,,,,,,,,,,,,,,,None,,503.3467344800185,None,503.3467344800185,None,2022-04-05-11:17:16.474894,503.3491799000185,503.6633979000035,503.3491799000185,None,None,503.3491799000185,None,504.15081828002,None,,,,22006,0002,2022_Apr_05_1109,localizer,2021.1.3,60.88024307334411,
block,faces,faces021.bmp,,,,,0,3,3,3,,,,,,,,,,,,,,,,,,,,,,,,,,,,,,,,,,,,,,,,,,None,,504.15081828002,None,504.15081828002,None,2022-04-05-11:17:17.281348,504.16575779998675,504.4797705000383,504.16575779998675,504.16575779998675,None,504.16575779998675,504.16575779998675,504.9641632799932,None,,,,22006,0002,2022_Apr_05_1109,localizer,2021.1.3,60.88024307334411,
block,faces,faces075.bmp,,,,,0,4,4,4,,,,,,,,,,,,,,,,,,,,,,,,,,,,,,,,,,,,,,,,,,None,,504.9641632799932,None,504.9641632799932,None,2022-04-05-11:17:18.092787,504.9784295000136,505.27912940003444,504.9784295000136,None,None,504.9784295000136,None,505.7793079799914,None,,,,22006,0002,2022_Apr_05_1109,localizer,2021.1.3,60.88024307334411,
block,faces,faces052.bmp,,,,,0,5,5,5,,,,,,,,,,,,,,,,,,,,,,,,,,,,,,,,,,,,,,,,,,None,,505.7793079799914,None,505.7793079799914,None,2022-04-05-11:17:18.904783,505.78072470001644,506.07920119998744,505.78072470001644,None,None,505.78072470001644,None,506.5799410800275,None,,,,22006,0002,2022_Apr_05_1109,localizer,2021.1.3,60.88024307334411,
block,faces,faces045.bmp,,,,,0,6,6,6,,,,,,,,,,,,,,,,,,,,,,,,,,,,,,,,,,,,,,,,,,None,,506.5799410800275,None,506.5799410800275,None,2022-04-05-11:17:19.709434,506.59389710001415,506.89633940003114,506.59389710001415,506.59389710001415,None,506.59389710001415,506.59389710001415,507.3975089800253,None,,,,22006,0002,2022_Apr_05_1109,localizer,2021.1.3,60.88024307334411,
block,faces,faces080.bmp,,,,,0,7,7,7,,,,,,,,,,,,,,,,,,,,,,,,,,,,,,,,,,,,,,,,,,None,,507.3975089800253,None,507.3975089800253,None,2022-04-05-11:17:20.526134,507.41465230000904,507.713345199998,507.41465230000904,None,None,507.41465230000904,None,508.2136750800011,None,,,,22006,0002,2022_Apr_05_1109,localizer,2021.1.3,60.88024307334411,
block,faces,faces033.bmp,,,,,0,8,8,8,,,,,,,,,,,,,,,,,,,,,,,,,,,,,,,,,,,,,,,,,,None,,508.2136750800011,None,508.2136750800011,None,2022-04-05-11:17:21.341155,508.2336205000174,508.54619359999197,508.2336205000174,None,None,508.2336205000174,None,509.02983178002177,None,,,,22006,0002,2022_Apr_05_1109,localizer,2021.1.3,60.88024307334411,
block,faces,faces008.bmp,,,,,0,9,9,9,,,,,,,,,,,,,,,,,,,,,,,,,,,,,,,,,,,,,,,,,,None,,509.02983178002177,None,509.02983178002177,None,2022-04-05-11:17:22.156292,509.0303874000092,509.3311254000291,509.0303874000092,None,None,509.0303874000092,None,509.8462963800004,None,,,,22006,0002,2022_Apr_05_1109,localizer,2021.1.3,60.88024307334411,
block,faces,faces005.bmp,,,,,0,10,10,10,,,,,,,,,,,,,,,,,,,,,,,,,,,,,,,,,,,,,,,,,,None,,509.8462963800004,None,509.8462963800004,None,2022-04-05-11:17:22.972949,509.8469945000252,510.14679289999185,509.8469945000252,None,None,509.8469945000252,None,510.64686927998554,None,,,,22006,0002,2022_Apr_05_1109,localizer,2021.1.3,60.88024307334411,
block,faces,faces014.bmp,,,,,0,11,11,11,,,,,,,,,,,,,,,,,,,,,,,,,,,,,,,,,,,,,,,,,,None,,510.64686927998554,None,510.64686927998554,None,2022-04-05-11:17:23.776497,510.6499717000406,510.9635416000383,510.6499717000406,510.6499717000406,None,510.6499717000406,510.6499717000406,511.46334068001596,None,,,,22006,0002,2022_Apr_05_1109,localizer,2021.1.3,60.88024307334411,
block,faces,faces029.bmp,,,,,0,12,12,12,,,,,,,,,,,,,,,,,,,,,,,,,,,,,,,,,,,,,,,,,,None,,511.46334068001596,None,511.46334068001596,None,2022-04-05-11:17:24.589805,511.475314899988,511.7857567000319,511.475314899988,None,None,511.475314899988,None,512.2808349800355,None,,,,22006,0002,2022_Apr_05_1109,localizer,2021.1.3,60.88024307334411,
block,faces,faces072.bmp,,,,,0,13,13,13,,,,,,,,,,,,,,,,,,,,,,,,,,,,,,,,,,,,,,,,,,None,,512.2808349800355,None,512.2808349800355,None,2022-04-05-11:17:25.409461,512.2828593000304,512.5964807000128,512.2828593000304,None,None,512.2828593000304,None,513.0970223799989,None,,,,22006,0002,2022_Apr_05_1109,localizer,2021.1.3,60.88024307334411,
block_end,faces,faces050.bmp,,,,,0,14,14,14,,,,,,,,,,,,,,,,,,,,,,,,,,,,,,,,,,,,,,,,,,None,,513.0970223799989,None,513.0970223799989,None,2022-04-05-11:17:26.224670,513.1088620999944,513.4127002999885,513.1088620999944,None,None,513.1088620999944,None,513.913429180003,None,,,,22006,0002,2022_Apr_05_1109,localizer,2021.1.3,60.88024307334411,
block_start,scenes,scenes028.bmp,,,,,0,15,15,15,,,,,,,,,,,,,,,,,,,,,,,,,,,,,,,,,,,,,,,,,,t,1.7808128999895416,513.9132313000155,None,513.9132313000155,None,2022-04-05-11:17:28.842752,515.7276981000323,516.0294261000236,515.7276981000323,None,None,515.7276981000323,None,516.5297155800101,None,,,,22006,0002,2022_Apr_05_1109,localizer,2021.1.3,60.88024307334411,
block,scenes,scenes064.bmp,,,,,0,16,16,16,,,,,,,,,,,,,,,,,,,,,,,,,,,,,,,,,,,,,,,,,,None,,516.5297155800101,None,516.5297155800101,None,2022-04-05-11:17:29.656180,516.5304798000143,516.8460854000296,516.5304798000143,None,None,516.5304798000143,None,517.3294935799961,None,,,,22006,0002,2022_Apr_05_1109,localizer,2021.1.3,60.88024307334411,
block,scenes,scenes016.bmp,,,,,0,17,17,17,,,,,,,,,,,,,,,,,,,,,,,,,,,,,,,,,,,,,,,,,,None,,517.3294935799961,None,517.3294935799961,None,2022-04-05-11:17:30.458004,517.3461716999882,517.6460614000098,517.3461716999882,517.3461716999882,None,517.3461716999882,517.3461716999882,518.1468146800355,None,,,,22006,0002,2022_Apr_05_1109,localizer,2021.1.3,60.88024307334411,
block,scenes,scenes090.bmp,,,,,0,18,18,18,,,,,,,,,,,,,,,,,,,,,,,,,,,,,,,,,,,,,,,,,,None,,518.1468146800355,None,518.1468146800355,None,2022-04-05-11:17:31.274267,518.1476993000251,518.4629974000272,518.1476993000251,None,None,518.1476993000251,None,518.9624060800008,None,,,,22006,0002,2022_Apr_05_1109,localizer,2021.1.3,60.88024307334411,
block,scenes,scenes077.bmp,,,,,0,19,19,19,,,,,,,,,,,,,,,,,,,,,,,,,,,,,,,,,,,,,,,,,,None,,518.9624060800008,None,518.9624060800008,None,2022-04-05-11:17:32.089317,518.9637919000234,519.2628100999864,518.9637919000234,None,None,518.9637919000234,None,519.7635067799886,None,,,,22006,0002,2022_Apr_05_1109,localizer,2021.1.3,60.88024307334411,
block,scenes,scenes018.bmp,,,,,0,20,20,20,,,,,,,,,,,,,,,,,,,,,,,,,,,,,,,,,,,,,,,,,,None,,519.7635067799886,None,519.7635067799886,None,2022-04-05-11:17:32.893142,519.7666407999932,520.079361799988,519.7666407999932,519.7666407999932,None,519.7666407999932,519.7666407999932,520.5820850799967,None,,,,22006,0002,2022_Apr_05_1109,localizer,2021.1.3,60.88024307334411,
block,scenes,scenes008.bmp,,,,,0,21,21,21,,,,,,,,,,,,,,,,,,,,,,,,,,,,,,,,,,,,,,,,,,None,,520.5820850799967,None,520.5820850799967,None,2022-04-05-11:17:33.709826,520.5899233000237,520.8985790000297,520.5899233000237,None,None,520.5899233000237,None,521.3965757800208,None,,,,22006,0002,2022_Apr_05_1109,localizer,2021.1.3,60.88024307334411,
block,scenes,scenes009.bmp,,,,,0,22,22,22,,,,,,,,,,,,,,,,,,,,,,,,,,,,,,,,,,,,,,,,,,None,,521.3965757800208,None,521.3965757800208,None,2022-04-05-11:17:34.524245,521.4075051000109,521.7130104000098,521.4075051000109,None,None,521.4075051000109,None,522.2134881800332,None,,,,22006,0002,2022_Apr_05_1109,localizer,2021.1.3,60.88024307334411,
block,scenes,scenes085.bmp,,,,,0,23,23,23,,,,,,,,,,,,,,,,,,,,,,,,,,,,,,,,,,,,,,,,,,None,,522.2134881800332,None,522.2134881800332,None,2022-04-05-11:17:35.340924,522.2207485000254,522.5295574000338,522.2207485000254,None,None,522.2207485000254,None,523.0298123799905,None,,,,22006,0002,2022_Apr_05_1109,localizer,2021.1.3,60.88024307334411,
block,scenes,scenes085.bmp,,,,,0,24,24,24,,,,,,,,,,,,,,,,,,,,,,,,,,,,,,,,,,,,,,,,,,None,,523.0298123799905,None,523.0298123799905,None,2022-04-05-11:17:36.156487,523.03040280001,523.3317434000201,523.03040280001,None,None,523.03040280001,None,523.8460413800378,None,,,,22006,0002,2022_Apr_05_1109,localizer,2021.1.3,60.88024307334411,
block,scenes,scenes003.bmp,,,,,0,25,25,25,,,,,,,,,,,,,,,,,,,,,,,,,,,,,,,,,,,,,,,,,,None,,523.8460413800378,None,523.8460413800378,None,2022-04-05-11:17:36.972649,523.8474398000399,524.1623533000238,523.8474398000399,None,None,523.8474398000399,None,524.6505190800119,None,,,,22006,0002,2022_Apr_05_1109,localizer,2021.1.3,60.88024307334411,
block,scenes,scenes056.bmp,,,,,0,26,26,26,,,,,,,,,,,,,,,,,,,,,,,,,,,,,,,,,,,,,,,,,,None,,524.6505190800119,None,524.6505190800119,None,2022-04-05-11:17:37.781039,524.654086399998,524.962984599988,524.654086399998,524.654086399998,None,524.654086399998,524.654086399998,525.4630810800184,None,,,,22006,0002,2022_Apr_05_1109,localizer,2021.1.3,60.88024307334411,
block,scenes,scenes005.bmp,,,,,0,27,27,27,,,,,,,,,,,,,,,,,,,,,,,,,,,,,,,,,,,,,,,,,,None,,525.4630810800184,None,525.4630810800184,None,2022-04-05-11:17:38.589771,525.4640250999946,525.7792848999961,525.4640250999946,None,None,525.4640250999946,None,526.2631346800074,None,,,,22006,0002,2022_Apr_05_1109,localizer,2021.1.3,60.88024307334411,
block,scenes,scenes068.bmp,,,,,0,28,28,28,,,,,,,,,,,,,,,,,,,,,,,,,,,,,,,,,,,,,,,,,,None,,526.2631346800074,None,526.2631346800074,None,2022-04-05-11:17:39.391568,526.2657089999993,526.5788343999884,526.2657089999993,526.2657089999993,None,526.2657089999993,526.2657089999993,527.079990579997,None,,,,22006,0002,2022_Apr_05_1109,localizer,2021.1.3,60.88024307334411,
block_end,scenes,scenes021.bmp,,,,,0,29,29,29,,,,,,,,,,,,,,,,,,,,,,,,,,,,,,,,,,,,,,,,,,None,,527.079990579997,None,527.079990579997,None,2022-04-05-11:17:40.207424,527.0808357000351,527.3957999999984,527.0808357000351,None,None,527.0808357000351,None,527.8961519799952,None,,,,22006,0002,2022_Apr_05_1109,localizer,2021.1.3,60.88024307334411,
null_block,null_block,null_block.bmp,,,,,0,30,30,30,,,,,,,,,,,,,,,,,,,,,,,,,,,,,,,,,,,,,,,,,,t,1.7981691000168212,527.8959537000046,None,527.8959537000046,None,2022-04-05-11:17:42.841214,529.7135665799899,None,529.7135665799899,None,None,529.7135665799899,None,529.7202587000211,None,,,,22006,0002,2022_Apr_05_1109,localizer,2021.1.3,60.88024307334411,
block_start,scrambled,scrambled069.bmp,,,,,0,31,31,31,,,,,,,,,,,,,,,,,,,,,,,,,,,,,,,,,,,,,,,,,,t,1.9633147999993525,541.7307729999884,None,541.7307729999884,None,2022-04-05-11:17:56.840878,543.7238266000059,544.0304451999837,543.7238266000059,None,None,543.7238266000059,None,544.5302155800339,None,,,,22006,0002,2022_Apr_05_1109,localizer,2021.1.3,60.88024307334411,
block,scrambled,scrambled075.bmp,,,,,0,32,32,32,,,,,,,,,,,,,,,,,,,,,,,,,,,,,,,,,,,,,,,,,,None,,544.5302155800339,None,544.5302155800339,None,2022-04-05-11:17:57.658070,544.5416373999906,544.8463554999908,544.5416373999906,None,None,544.5416373999906,None,545.3466404800013,None,,,,22006,0002,2022_Apr_05_1109,localizer,2021.1.3,60.88024307334411,
block,scrambled,scrambled019.bmp,,,,,0,33,33,33,,,,,,,,,,,,,,,,,,,,,,,,,,,,,,,,,,,,,,,,,,None,,545.3466404800013,None,545.3466404800013,None,2022-04-05-11:17:58.473104,545.3472216000082,545.6463244000333,545.3472216000082,None,None,545.3472216000082,None,546.1476800799894,None,,,,22006,0002,2022_Apr_05_1109,localizer,2021.1.3,60.88024307334411,
block,scrambled,scrambled084.bmp,,,,,0,34,34,34,,,,,,,,,,,,,,,,,,,,,,,,,,,,,,,,,,,,,,,,,,None,,546.1476800799894,None,546.1476800799894,None,2022-04-05-11:17:59.278485,546.163949800015,546.4630190000171,546.163949800015,546.163949800015,None,546.163949800015,546.163949800015,546.9630040800141,None,,,,22006,0002,2022_Apr_05_1109,localizer,2021.1.3,60.88024307334411,
block,scrambled,scrambled041.bmp,,,,,0,35,35,35,,,,,,,,,,,,,,,,,,,,,,,,,,,,,,,,,,,,,,,,,,None,,546.9630040800141,None,546.9630040800141,None,2022-04-05-11:18:00.089473,546.9639049000107,547.2630878000055,546.9639049000107,None,None,546.9639049000107,None,547.7797530800046,None,,,,22006,0002,2022_Apr_05_1109,localizer,2021.1.3,60.88024307334411,
block,scrambled,scrambled010.bmp,,,,,0,36,36,36,,,,,,,,,,,,,,,,,,,,,,,,,,,,,,,,,,,,,,,,,,None,,547.7797530800046,None,547.7797530800046,None,2022-04-05-11:18:00.906220,547.7903461999958,548.0962809000048,547.7903461999958,None,None,547.7903461999958,None,548.5966715800052,None,,,,22006,0002,2022_Apr_05_1109,localizer,2021.1.3,60.88024307334411,
block,scrambled,scrambled036.bmp,,,,,0,37,37,37,,,,,,,,,,,,,,,,,,,,,,,,,,,,,,,,,,,,,,,,,,None,,548.5966715800052,None,548.5966715800052,None,2022-04-05-11:18:01.723351,548.5972706000321,548.8961702000233,548.5972706000321,None,None,548.5972706000321,None,549.396758480015,None,,,,22006,0002,2022_Apr_05_1109,localizer,2021.1.3,60.88024307334411,
block,scrambled,scrambled053.bmp,,,,,0,38,38,38,,,,,,,,,,,,,,,,,,,,,,,,,,,,,,,,,,,,,,,,,,None,,549.396758480015,None,549.396758480015,None,2022-04-05-11:18:02.525398,549.3992917999858,549.7131744000362,549.3992917999858,549.3992917999858,None,549.3992917999858,549.3992917999858,550.2132253800112,None,,,,22006,0002,2022_Apr_05_1109,localizer,2021.1.3,60.88024307334411,
block,scrambled,scrambled050.bmp,,,,,0,39,39,39,,,,,,,,,,,,,,,,,,,,,,,,,,,,,,,,,,,,,,,,,,None,,550.2132253800112,None,550.2132253800112,None,2022-04-05-11:18:03.339902,550.22430240002,550.5302252999973,550.22430240002,None,None,550.22430240002,None,551.0304999799876,None,,,,22006,0002,2022_Apr_05_1109,localizer,2021.1.3,60.88024307334411,
block,scrambled,scrambled063.bmp,,,,,0,40,40,40,,,,,,,,,,,,,,,,,,,,,,,,,,,,,,,,,,,,,,,,,,None,,551.0304999799876,None,551.0304999799876,None,2022-04-05-11:18:04.158013,551.0321062000003,551.3526910000364,551.0321062000003,None,None,551.0321062000003,None,551.8468943800137,None,,,,22006,0002,2022_Apr_05_1109,localizer,2021.1.3,60.88024307334411,
block,scrambled,scrambled067.bmp,,,,,0,41,41,41,,,,,,,,,,,,,,,,,,,,,,,,,,,,,,,,,,,,,,,,,,None,,551.8468943800137,None,551.8468943800137,None,2022-04-05-11:18:04.974569,551.8572182999924,552.1634308000212,551.8572182999924,None,None,551.8572182999924,None,552.664389180037,None,,,,22006,0002,2022_Apr_05_1109,localizer,2021.1.3,60.88024307334411,
block,scrambled,scrambled022.bmp,,,,,0,42,42,42,,,,,,,,,,,,,,,,,,,,,,,,,,,,,,,,,,,,,,,,,,None,,552.664389180037,None,552.664389180037,None,2022-04-05-11:18:05.791815,552.6670374000096,552.9803295999882,552.6670374000096,None,None,552.6670374000096,None,553.47927567999,None,,,,22006,0002,2022_Apr_05_1109,localizer,2021.1.3,60.88024307334411,
block,scrambled,scrambled080.bmp,,,,,0,43,43,43,,,,,,,,,,,,,,,,,,,,,,,,,,,,,,,,,,,,,,,,,,None,,553.47927567999,None,553.47927567999,None,2022-04-05-11:18:06.604751,553.4870345999952,553.7961042000097,553.4870345999952,None,None,553.4870345999952,None,554.2965516800352,None,,,,22006,0002,2022_Apr_05_1109,localizer,2021.1.3,60.88024307334411,
block,scrambled,scrambled025.bmp,,,,,0,44,44,44,,,,,,,,,,,,,,,,,,,,,,,,,,,,,,,,,,,,,,,,,,None,,554.2965516800352,None,554.2965516800352,None,2022-04-05-11:18:07.422997,554.3064211999881,554.6131709000329,554.3064211999881,None,None,554.3064211999881,None,555.1134080800286,None,,,,22006,0002,2022_Apr_05_1109,localizer,2021.1.3,60.88024307334411,
block_end,scrambled,scrambled073.bmp,,,,,0,45,45,45,,,,,,,,,,,,,,,,,,,,,,,,,,,,,,,,,,,,,,,,,,None,,555.1134080800286,None,555.1134080800286,None,2022-04-05-11:18:08.240065,555.1233185000019,555.4292960999883,555.1233185000019,None,None,555.1233185000019,None,555.93001828001,None,,,,22006,0002,2022_Apr_05_1109,localizer,2021.1.3,60.88024307334411,
block_start,objects,objects005.bmp,,,,,0,46,46,46,,,,,,,,,,,,,,,,,,,,,,,,,,,,,,,,,,,,,,,,,,t,1.7643114000093192,555.9297189000063,None,555.9297189000063,None,2022-04-05-11:18:10.838333,557.7208260000334,558.0298667000025,557.7208260000334,None,None,557.7208260000334,None,558.5300855800335,None,,,,22006,0002,2022_Apr_05_1109,localizer,2021.1.3,60.88024307334411,
block,objects,objects067.bmp,,,,,0,47,47,47,,,,,,,,,,,,,,,,,,,,,,,,,,,,,,,,,,,,,,,,,,None,,558.5300855800335,None,558.5300855800335,None,2022-04-05-11:18:11.656725,558.5366278000292,558.8465880000149,558.5366278000292,None,None,558.5366278000292,None,559.3494365799882,None,,,,22006,0002,2022_Apr_05_1109,localizer,2021.1.3,60.88024307334411,
block,objects,objects008.bmp,,,,,0,48,48,48,,,,,,,,,,,,,,,,,,,,,,,,,,,,,,,,,,,,,,,,,,None,,559.3494365799882,None,559.3494365799882,None,2022-04-05-11:18:12.478793,559.3632627000334,559.6635476000374,559.3632627000334,None,None,559.3632627000334,None,560.1628354800225,None,,,,22006,0002,2022_Apr_05_1109,localizer,2021.1.3,60.88024307334411,
block,objects,objects040.bmp,,,,,0,49,49,49,,,,,,,,,,,,,,,,,,,,,,,,,,,,,,,,,,,,,,,,,,None,,560.1628354800225,None,560.1628354800225,None,2022-04-05-11:18:13.288310,560.1712289000279,560.4795995000168,560.1712289000279,None,None,560.1712289000279,None,560.9799292800192,None,,,,22006,0002,2022_Apr_05_1109,localizer,2021.1.3,60.88024307334411,
block,objects,objects032.bmp,,,,,0,50,50,50,,,,,,,,,,,,,,,,,,,,,,,,,,,,,,,,,,,,,,,,,,None,,560.9799292800192,None,560.9799292800192,None,2022-04-05-11:18:14.106047,560.9804626000114,561.2797095000278,560.9804626000114,None,None,560.9804626000114,None,561.7805805800192,None,,,,22006,0002,2022_Apr_05_1109,localizer,2021.1.3,60.88024307334411,
block,objects,objects065.bmp,,,,,0,51,51,51,,,,,,,,,,,,,,,,,,,,,,,,,,,,,,,,,,,,,,,,,,None,,561.7805805800192,None,561.7805805800192,None,2022-04-05-11:18:14.910053,561.794694399985,562.0967133000377,561.794694399985,561.794694399985,None,561.794694399985,561.794694399985,562.5967395799992,None,,,,22006,0002,2022_Apr_05_1109,localizer,2021.1.3,60.88024307334411,
block,objects,objects071.bmp,,,,,0,52,52,52,,,,,,,,,,,,,,,,,,,,,,,,,,,,,,,,,,,,,,,,,,None,,562.5967395799992,None,562.5967395799992,None,2022-04-05-11:18:15.724507,562.6065853000036,562.9130666999845,562.6065853000036,None,None,562.6065853000036,None,563.413932379993,None,,,,22006,0002,2022_Apr_05_1109,localizer,2021.1.3,60.88024307334411,
block,objects,objects054.bmp,,,,,0,53,53,53,,,,,,,,,,,,,,,,,,,,,,,,,,,,,,,,,,,,,,,,,,None,,563.413932379993,None,563.413932379993,None,2022-04-05-11:18:16.541388,563.4154945000191,563.7304558000178,563.4154945000191,None,None,563.4154945000191,None,564.2312100799929,None,,,,22006,0002,2022_Apr_05_1109,localizer,2021.1.3,60.88024307334411,
block,objects,objects050.bmp,,,,,0,54,54,54,,,,,,,,,,,,,,,,,,,,,,,,,,,,,,,,,,,,,,,,,,None,,564.2312100799929,None,564.2312100799929,None,2022-04-05-11:18:17.358833,564.233413000009,564.5471428000019,564.233413000009,None,None,564.233413000009,None,565.0467237800069,None,,,,22006,0002,2022_Apr_05_1109,localizer,2021.1.3,60.88024307334411,
block,objects,objects018.bmp,,,,,0,55,55,55,,,,,,,,,,,,,,,,,,,,,,,,,,,,,,,,,,,,,,,,,,None,,565.0467237800069,None,565.0467237800069,None,2022-04-05-11:18:18.173187,565.0473703999887,565.3466374999844,565.0473703999887,None,None,565.0473703999887,None,565.8467801800173,None,,,,22006,0002,2022_Apr_05_1109,localizer,2021.1.3,60.88024307334411,
block,objects,objects001.bmp,,,,,0,56,56,56,,,,,,,,,,,,,,,,,,,,,,,,,,,,,,,,,,,,,,,,,,None,,565.8467801800173,None,565.8467801800173,None,2022-04-05-11:18:18.975414,565.8493425000343,566.1633487000363,565.8493425000343,565.8493425000343,None,565.8493425000343,565.8493425000343,566.6634413800377,None,,,,22006,0002,2022_Apr_05_1109,localizer,2021.1.3,60.88024307334411,
block,objects,objects003.bmp,,,,,0,57,57,57,,,,,,,,,,,,,,,,,,,,,,,,,,,,,,,,,,,,,,,,,,None,,566.6634413800377,None,566.6634413800377,None,2022-04-05-11:18:19.790106,566.6639497000142,566.9630044000223,566.6639497000142,None,None,566.6639497000142,None,567.4633898800414,None,,,,22006,0002,2022_Apr_05_1109,localizer,2021.1.3,60.88024307334411,
block,objects,objects073.bmp,,,,,0,58,58,58,,,,,,,,,,,,,,,,,,,,,,,,,,,,,,,,,,,,,,,,,,None,,567.4633898800414,None,567.4633898800414,None,2022-04-05-11:18:20.590889,567.4730260000215,567.7796417000354,567.4730260000215,567.4730260000215,None,567.4730260000215,567.4730260000215,568.2794087800023,None,,,,22006,0002,2022_Apr_05_1109,localizer,2021.1.3,60.88024307334411,
block,objects,objects070.bmp,,,,,0,59,59,59,,,,,,,,,,,,,,,,,,,,,,,,,,,,,,,,,,,,,,,,,,None,,568.2794087800023,None,568.2794087800023,None,2022-04-05-11:18:21.404883,568.2807499000337,568.5796481000143,568.2807499000337,None,None,568.2807499000337,None,569.0801211800019,None,,,,22006,0002,2022_Apr_05_1109,localizer,2021.1.3,60.88024307334411,
block_end,objects,objects058.bmp,,,,,0,60,60,60,,,,,,,,,,,,,,,,,,,,,,,,,,,,,,,,,,,,,,,,,,None,,569.0801211800019,None,569.0801211800019,None,2022-04-05-11:18:22.207597,569.0806800000137,569.3797355000279,569.0806800000137,569.0806800000137,None,569.0806800000137,569.0806800000137,569.8799164800032,None,,,,22006,0002,2022_Apr_05_1109,localizer,2021.1.3,60.88024307334411,
block_start,faces,faces018.bmp,,,,,0,61,61,61,,,,,,,,,,,,,,,,,,,,,,,,,,,,,,,,,,,,,,,,,,t,1.8135559000074863,569.8796396999969,None,569.8796396999969,None,2022-04-05-11:18:24.839926,571.7248724999954,572.0300053000101,571.7248724999954,None,None,571.7248724999954,None,572.530156179989,None,,,,22006,0002,2022_Apr_05_1109,localizer,2021.1.3,60.88024307334411,
block,faces,faces022.bmp,,,,,0,62,62,62,,,,,,,,,,,,,,,,,,,,,,,,,,,,,,,,,,,,,,,,,,None,,572.530156179989,None,572.530156179989,None,2022-04-05-11:18:25.657125,572.530671400018,572.8300507999957,572.530671400018,None,None,572.530671400018,None,573.3300221800048,None,,,,22006,0002,2022_Apr_05_1109,localizer,2021.1.3,60.88024307334411,
block,faces,faces032.bmp,,,,,0,63,63,63,,,,,,,,,,,,,,,,,,,,,,,,,,,,,,,,,,,,,,,,,,None,,573.3300221800048,None,573.3300221800048,None,2022-04-05-11:18:26.457488,573.3409889999893,573.6464520000154,573.3409889999893,573.3409889999893,None,573.3409889999893,573.3409889999893,574.146962379996,None,,,,22006,0002,2022_Apr_05_1109,localizer,2021.1.3,60.88024307334411,
block,faces,faces032.bmp,,,,,0,64,64,64,,,,,,,,,,,,,,,,,,,,,,,,,,,,,,,,,,,,,,,,,,None,,574.146962379996,None,574.146962379996,None,2022-04-05-11:18:27.274419,574.1476520000142,574.4630406000069,574.1476520000142,None,None,574.1476520000142,None,574.9471263800108,None,,,,22006,0002,2022_Apr_05_1109,localizer,2021.1.3,60.88024307334411,
block,faces,faces019.bmp,,,,,0,65,65,65,,,,,,,,,,,,,,,,,,,,,,,,,,,,,,,,,,,,,,,,,,None,,574.9471263800108,None,574.9471263800108,None,2022-04-05-11:18:28.076577,574.965995000035,575.2798772000242,574.965995000035,574.965995000035,y,574.965995000035,574.965995000035,575.7636141799915,None,0.30406669998774305,,,22006,0002,2022_Apr_05_1109,localizer,2021.1.3,60.88024307334411,
block,faces,faces046.bmp,,,,,0,66,66,66,,,,,,,,,,,,,,,,,,,,,,,,,,,,,,,,,,,,,,,,,,None,,575.7636141799915,None,575.7636141799915,None,2022-04-05-11:18:28.890292,575.7639440000057,576.0633078000392,575.7639440000057,None,None,575.7639440000057,None,576.5635854799941,None,,,,22006,0002,2022_Apr_05_1109,localizer,2021.1.3,60.88024307334411,
block,faces,faces009.bmp,,,,,0,67,67,67,,,,,,,,,,,,,,,,,,,,,,,,,,,,,,,,,,,,,,,,,,None,,576.5635854799941,None,576.5635854799941,None,2022-04-05-11:18:29.691354,576.5742735000094,576.8796102000051,576.5742735000094,576.5742735000094,None,576.5742735000094,576.5742735000094,577.3804685800162,None,,,,22006,0002,2022_Apr_05_1109,localizer,2021.1.3,60.88024307334411,
block,faces,faces067.bmp,,,,,0,68,68,68,,,,,,,,,,,,,,,,,,,,,,,,,,,,,,,,,,,,,,,,,,None,,577.3804685800162,None,577.3804685800162,None,2022-04-05-11:18:30.508129,577.3811021000147,577.6961080000037,577.3811021000147,None,None,577.3811021000147,None,578.1805689800124,None,,,,22006,0002,2022_Apr_05_1109,localizer,2021.1.3,60.88024307334411,
block,faces,faces062.bmp,,,,,0,69,69,69,,,,,,,,,,,,,,,,,,,,,,,,,,,,,,,,,,,,,,,,,,None,,578.1805689800124,None,578.1805689800124,None,2022-04-05-11:18:31.310020,578.1830029000412,578.4964095000178,578.1830029000412,578.1830029000412,None,578.1830029000412,578.1830029000412,578.9975457799912,None,,,,22006,0002,2022_Apr_05_1109,localizer,2021.1.3,60.88024307334411,
block,faces,faces048.bmp,,,,,0,70,70,70,,,,,,,,,,,,,,,,,,,,,,,,,,,,,,,,,,,,,,,,,,None,,578.9975457799912,None,578.9975457799912,None,2022-04-05-11:18:32.123885,579.0060271000257,579.3178156000213,579.0060271000257,None,None,579.0060271000257,None,579.8145364800178,None,,,,22006,0002,2022_Apr_05_1109,localizer,2021.1.3,60.88024307334411,
block,faces,faces066.bmp,,,,,0,71,71,71,,,,,,,,,,,,,,,,,,,,,,,,,,,,,,,,,,,,,,,,,,None,,579.8145364800178,None,579.8145364800178,None,2022-04-05-11:18:32.942167,579.8273497000337,580.1311810000334,579.8273497000337,None,None,579.8273497000337,None,580.6321543799888,None,,,,22006,0002,2022_Apr_05_1109,localizer,2021.1.3,60.88024307334411,
block,faces,faces056.bmp,,,,,0,72,72,72,,,,,,,,,,,,,,,,,,,,,,,,,,,,,,,,,,,,,,,,,,None,,580.6321543799888,None,580.6321543799888,None,2022-04-05-11:18:33.763611,580.6482676999876,580.9634722000337,580.6482676999876,None,None,580.6482676999876,None,581.4486156800006,None,,,,22006,0002,2022_Apr_05_1109,localizer,2021.1.3,60.88024307334411,
block,faces,faces026.bmp,,,,,0,73,73,73,,,,,,,,,,,,,,,,,,,,,,,,,,,,,,,,,,,,,,,,,,None,,581.4486156800006,None,581.4486156800006,None,2022-04-05-11:18:34.576829,581.4570665000356,581.7636295999982,581.4570665000356,None,None,581.4570665000356,None,582.2633097800019,None,,,,22006,0002,2022_Apr_05_1109,localizer,2021.1.3,60.88024307334411,
block,faces,faces057.bmp,,,,,0,74,74,74,,,,,,,,,,,,,,,,,,,,,,,,,,,,,,,,,,,,,,,,,,None,,582.2633097800019,None,582.2633097800019,None,2022-04-05-11:18:35.389775,582.2641423000023,582.5632713999948,582.2641423000023,None,None,582.2641423000023,None,583.0647161799891,None,,,,22006,0002,2022_Apr_05_1109,localizer,2021.1.3,60.88024307334411,
block_end,faces,faces015.bmp,,,,,0,75,75,75,,,,,,,,,,,,,,,,,,,,,,,,,,,,,,,,,,,,,,,,,,None,,583.0647161799891,None,583.0647161799891,None,2022-04-05-11:18:36.195336,583.0688099000254,583.3798259000177,583.0688099000254,583.0688099000254,None,583.0688099000254,583.0688099000254,583.8800205800392,None,,,,22006,0002,2022_Apr_05_1109,localizer,2021.1.3,60.88024307334411,
null_block,null_block,null_block.bmp,,,,,0,76,76,76,,,,,,,,,,,,,,,,,,,,,,,,,,,,,,,,,,,,,,,,,,t,1.8132555999909528,583.8798011000035,None,583.8798011000035,None,2022-04-05-11:18:38.838249,585.7135820799915,None,585.7135820799915,None,None,585.7135820799915,None,585.7234254000359,None,,,,22006,0002,2022_Apr_05_1109,localizer,2021.1.3,60.88024307334411,
block_start,scrambled,scrambled086.bmp,,,,,0,77,77,77,,,,,,,,,,,,,,,,,,,,,,,,,,,,,,,,,,,,,,,,,,t,1.9626369000179693,597.7305194000364,None,597.7305194000364,None,2022-04-05-11:18:52.843038,599.7163354000077,600.0336388000287,599.7163354000077,None,None,599.7163354000077,None,600.5302737800114,None,,,,22006,0002,2022_Apr_05_1109,localizer,2021.1.3,60.88024307334411,
block,scrambled,scrambled074.bmp,,,,,0,78,78,78,,,,,,,,,,,,,,,,,,,,,,,,,,,,,,,,,,,,,,,,,,None,,600.5302737800114,None,600.5302737800114,None,2022-04-05-11:18:53.656752,600.5309301000088,600.8300766000175,600.5309301000088,None,None,600.5309301000088,None,601.3467623799982,None,,,,22006,0002,2022_Apr_05_1109,localizer,2021.1.3,60.88024307334411,
block,scrambled,scrambled075.bmp,,,,,0,79,79,79,,,,,,,,,,,,,,,,,,,,,,,,,,,,,,,,,,,,,,,,,,None,,601.3467623799982,None,601.3467623799982,None,2022-04-05-11:18:54.473230,601.3473539000261,601.6467079999857,601.3473539000261,None,None,601.3473539000261,None,602.1475224800117,None,,,,22006,0002,2022_Apr_05_1109,localizer,2021.1.3,60.88024307334411,
block,scrambled,scrambled033.bmp,,,,,0,80,80,80,,,,,,,,,,,,,,,,,,,,,,,,,,,,,,,,,,,,,,,,,,None,,602.1475224800117,None,602.1475224800117,None,2022-04-05-11:18:55.275879,602.1608026000322,602.4629442000296,602.1608026000322,602.1608026000322,None,602.1608026000322,602.1608026000322,602.9631415800134,None,,,,22006,0002,2022_Apr_05_1109,localizer,2021.1.3,60.88024307334411,
block,scrambled,scrambled070.bmp,,,,,0,81,81,81,,,,,,,,,,,,,,,,,,,,,,,,,,,,,,,,,,,,,,,,,,None,,602.9631415800134,None,602.9631415800134,None,2022-04-05-11:18:56.089874,602.9640581000131,603.2631753000314,602.9640581000131,None,None,602.9640581000131,None,603.7645213800308,None,,,,22006,0002,2022_Apr_05_1109,localizer,2021.1.3,60.88024307334411,
block,scrambled,scrambled053.bmp,,,,,0,82,82,82,,,,,,,,,,,,,,,,,,,,,,,,,,,,,,,,,,,,,,,,,,None,,603.7645213800308,None,603.7645213800308,None,2022-04-05-11:18:56.895109,603.7739238000358,604.0800073000137,603.7739238000358,603.7739238000358,None,603.7739238000358,603.7739238000358,604.5805300800305,None,,,,22006,0002,2022_Apr_05_1109,localizer,2021.1.3,60.88024307334411,
block,scrambled,scrambled029.bmp,,,,,0,83,83,83,,,,,,,,,,,,,,,,,,,,,,,,,,,,,,,,,,,,,,,,,,None,,604.5805300800305,None,604.5805300800305,None,2022-04-05-11:18:57.708098,604.5910892999964,604.8967335000052,604.5910892999964,None,None,604.5910892999964,None,605.39719748004,None,,,,22006,0002,2022_Apr_05_1109,localizer,2021.1.3,60.88024307334411,
block,scrambled,scrambled001.bmp,,,,,0,84,84,84,,,,,,,,,,,,,,,,,,,,,,,,,,,,,,,,,,,,,,,,,,None,,605.39719748004,None,605.39719748004,None,2022-04-05-11:18:58.524859,605.4078513000277,605.7133949000272,605.4078513000277,None,None,605.4078513000277,None,606.2137040799892,None,,,,22006,0002,2022_Apr_05_1109,localizer,2021.1.3,60.88024307334411,
block,scrambled,scrambled003.bmp,,,,,0,85,85,85,,,,,,,,,,,,,,,,,,,,,,,,,,,,,,,,,,,,,,,,,,None,,606.2137040799892,None,606.2137040799892,None,2022-04-05-11:18:59.340166,606.2245121999877,606.5301132000168,606.2245121999877,None,None,606.2245121999877,None,607.0305786800047,None,,,,22006,0002,2022_Apr_05_1109,localizer,2021.1.3,60.88024307334411,
block,scrambled,scrambled081.bmp,,,,,0,86,86,86,,,,,,,,,,,,,,,,,,,,,,,,,,,,,,,,,,,,,,,,,,None,,607.0305786800047,None,607.0305786800047,None,2022-04-05-11:19:00.157916,607.0309903000016,607.3464571000077,607.0309903000016,None,None,607.0309903000016,None,607.829995180032,None,,,,22006,0002,2022_Apr_05_1109,localizer,2021.1.3,60.88024307334411,
block,scrambled,scrambled016.bmp,,,,,0,87,87,87,,,,,,,,,,,,,,,,,,,,,,,,,,,,,,,,,,,,,,,,,,None,,607.829995180032,None,607.829995180032,None,2022-04-05-11:19:00.957458,607.8387346999953,608.1466877000057,607.8387346999953,607.8387346999953,None,607.8387346999953,607.8387346999953,608.6471008800029,None,,,,22006,0002,2022_Apr_05_1109,localizer,2021.1.3,60.88024307334411,
block,scrambled,scrambled080.bmp,,,,,0,88,88,88,,,,,,,,,,,,,,,,,,,,,,,,,,,,,,,,,,,,,,,,,,None,,608.6471008800029,None,608.6471008800029,None,2022-04-05-11:19:01.773778,608.64753810002,608.9465113999904,608.64753810002,None,None,608.64753810002,None,609.4471171799989,None,,,,22006,0002,2022_Apr_05_1109,localizer,2021.1.3,60.88024307334411,
block,scrambled,scrambled027.bmp,,,,,0,89,89,89,,,,,,,,,,,,,,,,,,,,,,,,,,,,,,,,,,,,,,,,,,None,,609.4471171799989,None,609.4471171799989,None,2022-04-05-11:19:02.575575,609.4496891000308,609.7637590999948,609.4496891000308,609.4496891000308,None,609.4496891000308,609.4496891000308,610.2493266799895,None,,,,22006,0002,2022_Apr_05_1109,localizer,2021.1.3,60.88024307334411,
block,scrambled,scrambled031.bmp,,,,,0,90,90,90,,,,,,,,,,,,,,,,,,,,,,,,,,,,,,,,,,,,,,,,,,None,,610.2493266799895,None,610.2493266799895,None,2022-04-05-11:19:03.381931,610.2568032999989,610.5628972999984,610.2568032999989,610.2568032999989,None,610.2568032999989,610.2568032999989,611.065765680006,None,,,,22006,0002,2022_Apr_05_1109,localizer,2021.1.3,60.88024307334411,
block_end,scrambled,scrambled042.bmp,,,,,0,91,91,91,,,,,,,,,,,,,,,,,,,,,,,,,,,,,,,,,,,,,,,,,,None,,611.065765680006,None,611.065765680006,None,2022-04-05-11:19:04.196185,611.0710143999895,611.3800311000086,611.0710143999895,None,None,611.0710143999895,None,611.8807858799876,None,,,,22006,0002,2022_Apr_05_1109,localizer,2021.1.3,60.88024307334411,
block_start,objects,objects019.bmp,,,,,0,92,92,92,,,,,,,,,,,,,,,,,,,,,,,,,,,,,,,,,,,,,,,,,,t,1.8127527000033297,611.880370000028,None,611.880370000028,None,2022-04-05-11:19:06.841538,613.7146046999842,614.0301409999956,613.7146046999842,None,None,613.7146046999842,None,614.5137919800065,None,,,,22006,0002,2022_Apr_05_1109,localizer,2021.1.3,60.88024307334411,
block,objects,objects025.bmp,,,,,0,93,93,93,,,,,,,,,,,,,,,,,,,,,,,,,,,,,,,,,,,,,,,,,,None,,614.5137919800065,None,614.5137919800065,None,2022-04-05-11:19:07.642456,614.5257125000353,614.8298365999945,614.5257125000353,614.5257125000353,None,614.5257125000353,614.5257125000353,615.3303384800267,None,,,,22006,0002,2022_Apr_05_1109,localizer,2021.1.3,60.88024307334411,
block,objects,objects087.bmp,,,,,0,94,94,94,,,,,,,,,,,,,,,,,,,,,,,,,,,,,,,,,,,,,,,,,,None,,615.3303384800267,None,615.3303384800267,None,2022-04-05-11:19:08.456802,615.3402150000329,615.6462727999897,615.3402150000329,None,None,615.3402150000329,None,616.1470876800188,None,,,,22006,0002,2022_Apr_05_1109,localizer,2021.1.3,60.88024307334411,
block,objects,objects076.bmp,,,,,0,95,95,95,,,,,,,,,,,,,,,,,,,,,,,,,,,,,,,,,,,,,,,,,,None,,616.1470876800188,None,616.1470876800188,None,2022-04-05-11:19:09.274832,616.1538658000063,616.4643829000415,616.1538658000063,None,None,616.1538658000063,None,616.9646079800034,None,,,,22006,0002,2022_Apr_05_1109,localizer,2021.1.3,60.88024307334411,
block,objects,objects085.bmp,,,,,0,96,96,96,,,,,,,,,,,,,,,,,,,,,,,,,,,,,,,,,,,,,,,,,,None,,616.9646079800034,None,616.9646079800034,None,2022-04-05-11:19:10.092237,616.9767572000274,617.2798785000341,616.9767572000274,None,None,616.9767572000274,None,617.7800514800067,None,,,,22006,0002,2022_Apr_05_1109,localizer,2021.1.3,60.88024307334411,
block,objects,objects049.bmp,,,,,0,97,97,97,,,,,,,,,,,,,,,,,,,,,,,,,,,,,,,,,,,,,,,,,,None,,617.7800514800067,None,617.7800514800067,None,2022-04-05-11:19:10.906501,617.7809266000404,618.079960300005,617.7809266000404,None,None,617.7809266000404,None,618.5805481799937,None,,,,22006,0002,2022_Apr_05_1109,localizer,2021.1.3,60.88024307334411,
block,objects,objects079.bmp,,,,,0,98,98,98,,,,,,,,,,,,,,,,,,,,,,,,,,,,,,,,,,,,,,,,,,None,,618.5805481799937,None,618.5805481799937,None,2022-04-05-11:19:11.709003,618.5938947999966,618.8991546999896,618.5938947999966,618.5938947999966,None,618.5938947999966,618.5938947999966,619.3980772799871,None,,,,22006,0002,2022_Apr_05_1109,localizer,2021.1.3,60.88024307334411,
block,objects,objects018.bmp,,,,,0,99,99,99,,,,,,,,,,,,,,,,,,,,,,,,,,,,,,,,,,,,,,,,,,None,,619.3980772799871,None,619.3980772799871,None,2022-04-05-11:19:12.525928,619.4003542999853,619.7138691000291,619.4003542999853,None,None,619.4003542999853,None,620.2134039800324,None,,,,22006,0002,2022_Apr_05_1109,localizer,2021.1.3,60.88024307334411,
block,objects,objects015.bmp,,,,,0,100,100,100,,,,,,,,,,,,,,,,,,,,,,,,,,,,,,,,,,,,,,,,,,None,,620.2134039800324,None,620.2134039800324,None,2022-04-05-11:19:13.339873,620.2142563000089,620.5136342000333,620.2142563000089,None,None,620.2142563000089,None,621.0138235800143,None,,,,22006,0002,2022_Apr_05_1109,localizer,2021.1.3,60.88024307334411,
block,objects,objects050.bmp,,,,,0,101,101,101,,,,,,,,,,,,,,,,,,,,,,,,,,,,,,,,,,,,,,,,,,None,,621.0138235800143,None,621.0138235800143,None,2022-04-05-11:19:14.142278,621.0148404000211,621.3295296999859,621.0148404000211,621.0148404000211,None,621.0148404000211,621.0148404000211,621.8300143800036,None,,,,22006,0002,2022_Apr_05_1109,localizer,2021.1.3,60.88024307334411,
block,objects,objects071.bmp,,,,,0,102,102,102,,,,,,,,,,,,,,,,,,,,,,,,,,,,,,,,,,,,,,,,,,None,,621.8300143800036,None,621.8300143800036,None,2022-04-05-11:19:14.956367,621.8310057999915,622.1309484000085,621.8310057999915,None,None,621.8310057999915,None,622.6307805800054,None,,,,22006,0002,2022_Apr_05_1109,localizer,2021.1.3,60.88024307334411,
block,objects,objects010.bmp,,,,,0,103,103,103,,,,,,,,,,,,,,,,,,,,,,,,,,,,,,,,,,,,,,,,,,None,,622.6307805800054,None,622.6307805800054,None,2022-04-05-11:19:15.760233,622.6442485000007,622.9465078000212,622.6442485000007,622.6442485000007,None,622.6442485000007,622.6442485000007,623.4476044799842,None,,,,22006,0002,2022_Apr_05_1109,localizer,2021.1.3,60.88024307334411,
block,objects,objects024.bmp,,,,,0,104,104,104,,,,,,,,,,,,,,,,,,,,,,,,,,,,,,,,,,,,,,,,,,None,,623.4476044799842,None,623.4476044799842,None,2022-04-05-11:19:16.576252,623.450253100018,623.7641365000163,623.450253100018,None,None,623.450253100018,None,624.2656712799974,None,,,,22006,0002,2022_Apr_05_1109,localizer,2021.1.3,60.88024307334411,
block,objects,objects055.bmp,,,,,0,105,105,105,,,,,,,,,,,,,,,,,,,,,,,,,,,,,,,,,,,,,,,,,,None,,624.2656712799974,None,624.2656712799974,None,2022-04-05-11:19:17.395392,624.2795007000095,624.5801152000204,624.2795007000095,None,None,624.2795007000095,None,625.0805183799996,None,,,,22006,0002,2022_Apr_05_1109,localizer,2021.1.3,60.88024307334411,
block_end,objects,objects060.bmp,,,,,0,106,106,106,,,,,,,,,,,,,,,,,,,,,,,,,,,,,,,,,,,,,,,,,,None,,625.0805183799996,None,625.0805183799996,None,2022-04-05-11:19:18.207175,625.081103500037,625.3801859000232,625.081103500037,None,None,625.081103500037,None,625.8804460800195,None,,,,22006,0002,2022_Apr_05_1109,localizer,2021.1.3,60.88024307334411,
block_start,scenes,scenes060.bmp,,,,,0,107,107,107,,,,,,,,,,,,,,,,,,,,,,,,,,,,,,,,,,,,,,,,,,t,1.8131521999603137,625.8799619000056,None,625.8799619000056,None,2022-04-05-11:19:20.841503,627.7258973999997,628.0302521000267,627.7258973999997,None,None,627.7258973999997,None,628.5300568799896,None,,,,22006,0002,2022_Apr_05_1109,localizer,2021.1.3,60.88024307334411,
block,scenes,scenes008.bmp,,,,,0,108,108,108,,,,,,,,,,,,,,,,,,,,,,,,,,,,,,,,,,,,,,,,,,None,,628.5300568799896,None,628.5300568799896,None,2022-04-05-11:19:21.655712,628.5316557000042,628.831782400026,628.5316557000042,None,None,628.5316557000042,None,629.3322045800335,None,,,,22006,0002,2022_Apr_05_1109,localizer,2021.1.3,60.88024307334411,
block,scenes,scenes043.bmp,,,,,0,109,109,109,,,,,,,,,,,,,,,,,,,,,,,,,,,,,,,,,,,,,,,,,,None,,629.3322045800335,None,629.3322045800335,None,2022-04-05-11:19:22.461687,629.344972699997,629.6465593000175,629.344972699997,629.344972699997,None,629.344972699997,629.344972699997,630.1482660800277,None,,,,22006,0002,2022_Apr_05_1109,localizer,2021.1.3,60.88024307334411,
block,scenes,scenes058.bmp,,,,,0,110,110,110,,,,,,,,,,,,,,,,,,,,,,,,,,,,,,,,,,,,,,,,,,None,,630.1482660800277,None,630.1482660800277,None,2022-04-05-11:19:23.276708,630.1502622000407,630.4635817999952,630.1502622000407,None,None,630.1502622000407,None,630.9657186800207,None,,,,22006,0002,2022_Apr_05_1109,localizer,2021.1.3,60.88024307334411,
block,scenes,scenes048.bmp,,,,,0,111,111,111,,,,,,,,,,,,,,,,,,,,,,,,,,,,,,,,,,,,,,,,,,None,,630.9657186800207,None,630.9657186800207,None,2022-04-05-11:19:24.093888,630.9833247000352,631.2962906000321,630.9833247000352,None,None,630.9833247000352,None,631.7804680800357,None,,,,22006,0002,2022_Apr_05_1109,localizer,2021.1.3,60.88024307334411,
block,scenes,scenes067.bmp,,,,,0,112,112,112,,,,,,,,,,,,,,,,,,,,,,,,,,,,,,,,,,,,,,,,,,None,,631.7804680800357,None,631.7804680800357,None,2022-04-05-11:19:24.906932,631.7904971000389,632.0968743999838,631.7904971000389,None,None,631.7904971000389,None,632.5976217800228,None,,,,22006,0002,2022_Apr_05_1109,localizer,2021.1.3,60.88024307334411,
block,scenes,scenes016.bmp,,,,,0,113,113,113,,,,,,,,,,,,,,,,,,,,,,,,,,,,,,,,,,,,,,,,,,None,,632.5976217800228,None,632.5976217800228,None,2022-04-05-11:19:25.724261,632.5983268999844,632.8974441000028,632.5983268999844,None,None,632.5983268999844,None,633.3977480800415,None,,,,22006,0002,2022_Apr_05_1109,localizer,2021.1.3,60.88024307334411,
block,scenes,scenes087.bmp,,,,,0,114,114,114,,,,,,,,,,,,,,,,,,,,,,,,,,,,,,,,,,,,,,,,,,None,,633.3977480800415,None,633.3977480800415,None,2022-04-05-11:19:26.526396,633.3994956000242,633.7139636999927,633.3994956000242,633.3994956000242,None,633.3994956000242,633.3994956000242,634.2142033800076,None,,,,22006,0002,2022_Apr_05_1109,localizer,2021.1.3,60.88024307334411,
block,scenes,scenes046.bmp,,,,,0,115,115,115,,,,,,,,,,,,,,,,,,,,,,,,,,,,,,,,,,,,,,,,,,None,,634.2142033800076,None,634.2142033800076,None,2022-04-05-11:19:27.340846,634.2247859000345,634.5300299000228,634.2247859000345,None,None,634.2247859000345,None,635.0197117800301,None,,,,22006,0002,2022_Apr_05_1109,localizer,2021.1.3,60.88024307334411,
block,scenes,scenes049.bmp,,,,,0,116,116,116,,,,,,,,,,,,,,,,,,,,,,,,,,,,,,,,,,,,,,,,,,None,,635.0197117800301,None,635.0197117800301,None,2022-04-05-11:19:28.149106,635.0230264000129,635.3303591000149,635.0230264000129,None,None,635.0230264000129,None,635.8344823800319,None,,,,22006,0002,2022_Apr_05_1109,localizer,2021.1.3,60.88024307334411,
block,scenes,scenes051.bmp,,,,,0,117,117,117,,,,,,,,,,,,,,,,,,,,,,,,,,,,,,,,,,,,,,,,,,None,,635.8344823800319,None,635.8344823800319,None,2022-04-05-11:19:28.964106,635.8489358000224,636.1634791000397,635.8489358000224,None,None,635.8489358000224,None,636.6476310800238,None,,,,22006,0002,2022_Apr_05_1109,localizer,2021.1.3,60.88024307334411,
block,scenes,scenes015.bmp,,,,,0,118,118,118,,,,,,,,,,,,,,,,,,,,,,,,,,,,,,,,,,,,,,,,,,None,,636.6476310800238,None,636.6476310800238,None,2022-04-05-11:19:29.774068,636.6483952000272,636.9474836000009,636.6483952000272,None,None,636.6483952000272,None,637.4484311799927,None,,,,22006,0002,2022_Apr_05_1109,localizer,2021.1.3,60.88024307334411,
block,scenes,scenes032.bmp,,,,,0,119,119,119,,,,,,,,,,,,,,,,,,,,,,,,,,,,,,,,,,,,,,,,,,None,,637.4484311799927,None,637.4484311799927,None,2022-04-05-11:19:30.579088,637.457179900026,637.7632079999894,637.457179900026,637.457179900026,None,637.457179900026,637.457179900026,638.2634568800161,None,,,,22006,0002,2022_Apr_05_1109,localizer,2021.1.3,60.88024307334411,
block,scenes,scenes078.bmp,,,,,0,120,120,120,,,,,,,,,,,,,,,,,,,,,,,,,,,,,,,,,,,,,,,,,,None,,638.2634568800161,None,638.2634568800161,None,2022-04-05-11:19:31.389190,638.2651085000252,638.5802338999929,638.2651085000252,None,None,638.2651085000252,None,639.0651002800034,None,,,,22006,0002,2022_Apr_05_1109,localizer,2021.1.3,60.88024307334411,
block_end,scenes,scenes073.bmp,,,,,0,121,121,121,,,,,,,,,,,,,,,,,,,,,,,,,,,,,,,,,,,,,,,,,,None,,639.0651002800034,None,639.0651002800034,None,2022-04-05-11:19:32.196536,639.0718916000333,639.3812226000009,639.0718916000333,639.0718916000333,None,639.0718916000333,639.0718916000333,639.8805239800306,None,,,,22006,0002,2022_Apr_05_1109,localizer,2021.1.3,60.88024307334411,
null_block,null_block,null_block.bmp,,,,,0,122,122,122,,,,,,,,,,,,,,,,,,,,,,,,,,,,,,,,,,,,,,,,,,t,1.8128249000292271,639.8802051999955,None,639.8802051999955,None,2022-04-05-11:19:34.842394,641.7149493800418,None,641.7149493800418,None,None,641.7149493800418,None,641.7195382000064,None,,,,22006,0002,2022_Apr_05_1109,localizer,2021.1.3,60.88024307334411,
block_start,faces,faces016.bmp,,,,,0,123,123,123,,,,,,,,,,,,,,,,,,,,,,,,,,,,,,,,,,,,,,,,,,t,1.9629854999948293,653.7300303000375,None,653.7300303000375,None,2022-04-05-11:19:48.843713,655.7170462000067,656.0303325999994,655.7170462000067,None,None,655.7170462000067,None,656.5314157800342,None,,,,22006,0002,2022_Apr_05_1109,localizer,2021.1.3,60.88024307334411,
block,faces,faces001.bmp,,,,,0,124,124,124,,,,,,,,,,,,,,,,,,,,,,,,,,,,,,,,,,,,,,,,,,None,,656.5314157800342,None,656.5314157800342,None,2022-04-05-11:19:49.656985,656.5317450999864,656.8306156999897,656.5317450999864,None,None,656.5317450999864,None,657.3308488800133,None,,,,22006,0002,2022_Apr_05_1109,localizer,2021.1.3,60.88024307334411,
block,faces,faces080.bmp,,,,,0,125,125,125,,,,,,,,,,,,,,,,,,,,,,,,,,,,,,,,,,,,,,,,,,None,,657.3308488800133,None,657.3308488800133,None,2022-04-05-11:19:50.459303,657.3348981000017,657.6469485000125,657.3348981000017,657.3348981000017,None,657.3348981000017,657.3348981000017,658.1471240800049,None,,,,22006,0002,2022_Apr_05_1109,localizer,2021.1.3,60.88024307334411,
block,faces,faces023.bmp,,,,,0,126,126,126,,,,,,,,,,,,,,,,,,,,,,,,,,,,,,,,,,,,,,,,,,None,,658.1471240800049,None,658.1471240800049,None,2022-04-05-11:19:51.273596,658.1487173000351,658.463651099999,658.1487173000351,None,None,658.1487173000351,None,658.9641094799911,None,,,,22006,0002,2022_Apr_05_1109,localizer,2021.1.3,60.88024307334411,
block,faces,faces007.bmp,,,,,0,127,127,127,,,,,,,,,,,,,,,,,,,,,,,,,,,,,,,,,,,,,,,,,,None,,658.9641094799911,None,658.9641094799911,None,2022-04-05-11:19:52.090759,658.9645703000133,659.2636831999989,658.9645703000133,None,None,658.9645703000133,None,659.7640463800228,None,,,,22006,0002,2022_Apr_05_1109,localizer,2021.1.3,60.88024307334411,
block,faces,faces045.bmp,,,,,0,128,128,128,,,,,,,,,,,,,,,,,,,,,,,,,,,,,,,,,,,,,,,,,,None,,659.7640463800228,None,659.7640463800228,None,2022-04-05-11:19:52.892505,659.765195999993,660.0800441000029,659.765195999993,659.765195999993,None,659.765195999993,659.765195999993,660.5807141800353,None,,,,22006,0002,2022_Apr_05_1109,localizer,2021.1.3,60.88024307334411,
block,faces,faces033.bmp,,,,,0,129,129,129,,,,,,,,,,,,,,,,,,,,,,,,,,,,,,,,,,,,,,,,,,None,,660.5807141800353,None,660.5807141800353,None,2022-04-05-11:19:53.707176,660.5812296000076,660.880387799989,660.5812296000076,None,None,660.5812296000076,None,661.3807809800085,None,,,,22006,0002,2022_Apr_05_1109,localizer,2021.1.3,60.88024307334411,
block,faces,faces070.bmp,,,,,0,130,130,130,,,,,,,,,,,,,,,,,,,,,,,,,,,,,,,,,,,,,,,,,,None,,661.3807809800085,None,661.3807809800085,None,2022-04-05-11:19:54.509278,661.4012091000332,661.7137508000014,661.4012091000332,661.4012091000332,None,661.4012091000332,661.4012091000332,662.19916467999,None,,,,22006,0002,2022_Apr_05_1109,localizer,2021.1.3,60.88024307334411,
block,faces,faces038.bmp,,,,,0,131,131,131,,,,,,,,,,,,,,,,,,,,,,,,,,,,,,,,,,,,,,,,,,None,,662.19916467999,None,662.19916467999,None,2022-04-05-11:19:55.329616,662.2215641000075,662.5300983000197,662.2215641000075,None,None,662.2215641000075,None,663.0148377799953,None,,,,22006,0002,2022_Apr_05_1109,localizer,2021.1.3,60.88024307334411,
block,faces,faces012.bmp,,,,,0,132,132,132,,,,,,,,,,,,,,,,,,,,,,,,,,,,,,,,,,,,,,,,,,None,,663.0148377799953,None,663.0148377799953,None,2022-04-05-11:19:56.142480,663.0271863000235,663.3306883000187,663.0271863000235,None,None,663.0271863000235,None,663.8307291800331,None,,,,22006,0002,2022_Apr_05_1109,localizer,2021.1.3,60.88024307334411,
block,faces,faces058.bmp,,,,,0,133,133,133,,,,,,,,,,,,,,,,,,,,,,,,,,,,,,,,,,,,,,,,,,None,,663.8307291800331,None,663.8307291800331,None,2022-04-05-11:19:56.957195,663.8427152000368,664.1532854000106,663.8427152000368,None,None,663.8427152000368,None,664.647364880034,None,,,,22006,0002,2022_Apr_05_1109,localizer,2021.1.3,60.88024307334411,
block,faces,faces057.bmp,,,,,0,134,134,134,,,,,,,,,,,,,,,,,,,,,,,,,,,,,,,,,,,,,,,,,,None,,664.647364880034,None,664.647364880034,None,2022-04-05-11:19:57.773828,664.6479303000378,664.9639016999863,664.6479303000378,None,None,664.6479303000378,None,665.4492476800399,None,,,,22006,0002,2022_Apr_05_1109,localizer,2021.1.3,60.88024307334411,
block,faces,faces053.bmp,,,,,0,135,135,135,,,,,,,,,,,,,,,,,,,,,,,,,,,,,,,,,,,,,,,,,,None,,665.4492476800399,None,665.4492476800399,None,2022-04-05-11:19:58.581693,665.4565863999887,665.764049999998,665.4565863999887,665.4565863999887,None,665.4565863999887,665.4565863999887,666.2641524800158,None,,,,22006,0002,2022_Apr_05_1109,localizer,2021.1.3,60.88024307334411,
block,faces,faces018.bmp,,,,,0,136,136,136,,,,,,,,,,,,,,,,,,,,,,,,,,,,,,,,,,,,,,,,,,None,,666.2641524800158,None,666.2641524800158,None,2022-04-05-11:19:59.390825,666.264634000021,666.5639425000409,666.264634000021,None,None,666.264634000021,None,667.0645066800237,None,,,,22006,0002,2022_Apr_05_1109,localizer,2021.1.3,60.88024307334411,
block_end,faces,faces064.bmp,,,,,0,137,137,137,,,,,,,,,,,,,,,,,,,,,,,,,,,,,,,,,,,,,,,,,,None,,667.0645066800237,None,667.0645066800237,None,2022-04-05-11:20:00.193902,667.0670977000264,667.3802494000411,667.0670977000264,667.0670977000264,None,667.0670977000264,667.0670977000264,667.8809492800094,None,,,,22006,0002,2022_Apr_05_1109,localizer,2021.1.3,60.88024307334411,
block_start,scenes,scenes023.bmp,,,,,0,138,138,138,,,,,,,,,,,,,,,,,,,,,,,,,,,,,,,,,,,,,,,,,,t,1.8126731000375003,667.8807301000343,None,667.8807301000343,None,2022-04-05-11:20:02.846941,669.7341284999857,670.0471284000087,669.7341284999857,None,None,669.7341284999857,None,670.5308230800031,None,,,,22006,0002,2022_Apr_05_1109,localizer,2021.1.3,60.88024307334411,
block,scenes,scenes020.bmp,,,,,0,139,139,139,,,,,,,,,,,,,,,,,,,,,,,,,,,,,,,,,,,,,,,,,,None,,670.5308230800031,None,670.5308230800031,None,2022-04-05-11:20:03.657564,670.5412364000222,670.8472058000043,670.5412364000222,None,None,670.5412364000222,None,671.3468756799878,None,,,,22006,0002,2022_Apr_05_1109,localizer,2021.1.3,60.88024307334411,
block,scenes,scenes079.bmp,,,,,0,140,140,140,,,,,,,,,,,,,,,,,,,,,,,,,,,,,,,,,,,,,,,,,,None,,671.3468756799878,None,671.3468756799878,None,2022-04-05-11:20:04.473562,671.3560699000373,671.6698707999894,671.3560699000373,None,None,671.3560699000373,None,672.1636589800066,None,,,,22006,0002,2022_Apr_05_1109,localizer,2021.1.3,60.88024307334411,
block,scenes,scenes030.bmp,,,,,0,141,141,141,,,,,,,,,,,,,,,,,,,,,,,,,,,,,,,,,,,,,,,,,,None,,672.1636589800066,None,672.1636589800066,None,2022-04-05-11:20:05.290129,672.1717264000326,672.4805643000291,672.1717264000326,None,None,672.1717264000326,None,672.9806990800018,None,,,,22006,0002,2022_Apr_05_1109,localizer,2021.1.3,60.88024307334411,
block,scenes,scenes003.bmp,,,,,0,142,142,142,,,,,,,,,,,,,,,,,,,,,,,,,,,,,,,,,,,,,,,,,,None,,672.9806990800018,None,672.9806990800018,None,2022-04-05-11:20:06.107161,672.9814216000377,673.2967027000268,672.9814216000377,None,None,672.9814216000377,None,673.7827743800183,None,,,,22006,0002,2022_Apr_05_1109,localizer,2021.1.3,60.88024307334411,
block,scenes,scenes012.bmp,,,,,0,143,143,143,,,,,,,,,,,,,,,,,,,,,,,,,,,,,,,,,,,,,,,,,,None,,673.7827743800183,None,673.7827743800183,None,2022-04-05-11:20:06.915158,673.7900302000344,674.0976294000284,673.7900302000344,673.7900302000344,None,673.7900302000344,673.7900302000344,674.5975159800321,None,,,,22006,0002,2022_Apr_05_1109,localizer,2021.1.3,60.88024307334411,
block,scenes,scenes046.bmp,,,,,0,144,144,144,,,,,,,,,,,,,,,,,,,,,,,,,,,,,,,,,,,,,,,,,,None,,674.5975159800321,None,674.5975159800321,None,2022-04-05-11:20:07.724180,674.5979475000058,674.8972843000083,674.5979475000058,None,None,674.5979475000058,None,675.3984466800059,None,,,,22006,0002,2022_Apr_05_1109,localizer,2021.1.3,60.88024307334411,
block,scenes,scenes081.bmp,,,,,0,145,145,145,,,,,,,,,,,,,,,,,,,,,,,,,,,,,,,,,,,,,,,,,,None,,675.3984466800059,None,675.3984466800059,None,2022-04-05-11:20:08.527732,675.4087705999846,675.7137331000413,675.4087705999846,675.4087705999846,None,675.4087705999846,675.4087705999846,676.2145676799876,None,,,,22006,0002,2022_Apr_05_1109,localizer,2021.1.3,60.88024307334411,
block,scenes,scenes033.bmp,,,,,0,146,146,146,,,,,,,,,,,,,,,,,,,,,,,,,,,,,,,,,,,,,,,,,,None,,676.2145676799876,None,676.2145676799876,None,2022-04-05-11:20:09.341995,676.2153441000264,676.5141898000147,676.2153441000264,None,None,676.2153441000264,None,677.014411880012,None,,,,22006,0002,2022_Apr_05_1109,localizer,2021.1.3,60.88024307334411,
block,scenes,scenes041.bmp,,,,,0,147,147,147,,,,,,,,,,,,,,,,,,,,,,,,,,,,,,,,,,,,,,,,,,None,,677.014411880012,None,677.014411880012,None,2022-04-05-11:20:10.143069,677.0279891000246,677.3308076999965,677.0279891000246,677.0279891000246,None,677.0279891000246,677.0279891000246,677.8304890800093,None,,,,22006,0002,2022_Apr_05_1109,localizer,2021.1.3,60.88024307334411,
block,scenes,scenes056.bmp,,,,,0,148,148,148,,,,,,,,,,,,,,,,,,,,,,,,,,,,,,,,,,,,,,,,,,None,,677.8304890800093,None,677.8304890800093,None,2022-04-05-11:20:10.957215,677.8312500999891,678.1311949000228,677.8312500999891,None,None,677.8312500999891,None,678.6308854799893,None,,,,22006,0002,2022_Apr_05_1109,localizer,2021.1.3,60.88024307334411,
block,scenes,scenes014.bmp,,,,,0,149,149,149,,,,,,,,,,,,,,,,,,,,,,,,,,,,,,,,,,,,,,,,,,None,,678.6308854799893,None,678.6308854799893,None,2022-04-05-11:20:11.759344,678.6440094999853,678.9471391999978,678.6440094999853,678.6440094999853,None,678.6440094999853,678.6440094999853,679.4494640799996,None,,,,22006,0002,2022_Apr_05_1109,localizer,2021.1.3,60.88024307334411,
block,scenes,scenes048.bmp,,,,,0,150,150,150,,,,,,,,,,,,,,,,,,,,,,,,,,,,,,,,,,,,,,,,,,None,,679.4494640799996,None,679.4494640799996,None,2022-04-05-11:20:12.578836,679.4537914000102,679.7534573000157,679.4537914000102,None,None,679.4537914000102,None,680.2645631799999,None,,,,22006,0002,2022_Apr_05_1109,localizer,2021.1.3,60.88024307334411,
block,scenes,scenes073.bmp,,,,,0,151,151,151,,,,,,,,,,,,,,,,,,,,,,,,,,,,,,,,,,,,,,,,,,None,,680.2645631799999,None,680.2645631799999,None,2022-04-05-11:20:13.392202,680.2671516999835,680.5805307999835,680.2671516999835,None,None,680.2671516999835,None,681.0816952799971,None,,,,22006,0002,2022_Apr_05_1109,localizer,2021.1.3,60.88024307334411,
block_end,scenes,scenes075.bmp,,,,,0,152,152,152,,,,,,,,,,,,,,,,,,,,,,,,,,,,,,,,,,,,,,,,,,None,,681.0816952799971,None,681.0816952799971,None,2022-04-05-11:20:14.209141,681.0945177000249,681.3971746999887,681.0945177000249,None,None,681.0945177000249,None,681.8974587799923,None,,,,22006,0002,2022_Apr_05_1109,localizer,2021.1.3,60.88024307334411,
block_start,scrambled,scrambled008.bmp,,,,,0,153,153,153,,,,,,,,,,,,,,,,,,,,,,,,,,,,,,,,,,,,,,,,,,t,1.7956131999962963,681.8974024000345,None,681.8974024000345,None,2022-04-05-11:20:16.839943,683.7150935000391,684.0306069999933,683.7150935000391,None,None,683.7150935000391,None,684.5143132800179,None,,,,22006,0002,2022_Apr_05_1109,localizer,2021.1.3,60.88024307334411,
block,scrambled,scrambled056.bmp,,,,,0,154,154,154,,,,,,,,,,,,,,,,,,,,,,,,,,,,,,,,,,,,,,,,,,None,,684.5143132800179,None,684.5143132800179,None,2022-04-05-11:20:17.643973,684.517050000024,684.836586999998,684.517050000024,684.517050000024,None,684.517050000024,684.517050000024,685.3319495800126,None,,,,22006,0002,2022_Apr_05_1109,localizer,2021.1.3,60.88024307334411,
block,scrambled,scrambled036.bmp,,,,,0,155,155,155,,,,,,,,,,,,,,,,,,,,,,,,,,,,,,,,,,,,,,,,,,None,,685.3319495800126,None,685.3319495800126,None,2022-04-05-11:20:18.460583,685.3349265999859,685.6477136000176,685.3349265999859,None,None,685.3349265999859,None,686.1474669799966,None,,,,22006,0002,2022_Apr_05_1109,localizer,2021.1.3,60.88024307334411,
block,scrambled,scrambled068.bmp,,,,,0,156,156,156,,,,,,,,,,,,,,,,,,,,,,,,,,,,,,,,,,,,,,,,,,None,,686.1474669799966,None,686.1474669799966,None,2022-04-05-11:20:19.274201,686.1480796000105,686.4470872000093,686.1480796000105,None,None,686.1480796000105,None,686.9475999800081,None,,,,22006,0002,2022_Apr_05_1109,localizer,2021.1.3,60.88024307334411,
block,scrambled,scrambled034.bmp,,,,,0,157,157,157,,,,,,,,,,,,,,,,,,,,,,,,,,,,,,,,,,,,,,,,,,None,,686.9475999800081,None,686.9475999800081,None,2022-04-05-11:20:20.077054,686.9498834999977,687.2637135999976,686.9498834999977,686.9498834999977,None,686.9498834999977,686.9498834999977,687.7640909800132,None,,,,22006,0002,2022_Apr_05_1109,localizer,2021.1.3,60.88024307334411,
block,scrambled,scrambled027.bmp,,,,,0,158,158,158,,,,,,,,,,,,,,,,,,,,,,,,,,,,,,,,,,,,,,,,,,None,,687.7640909800132,None,687.7640909800132,None,2022-04-05-11:20:20.890742,687.7646936000092,688.0638050999842,687.7646936000092,None,None,687.7646936000092,None,688.5645028799947,None,,,,22006,0002,2022_Apr_05_1109,localizer,2021.1.3,60.88024307334411,
block,scrambled,scrambled052.bmp,,,,,0,159,159,159,,,,,,,,,,,,,,,,,,,,,,,,,,,,,,,,,,,,,,,,,,None,,688.5645028799947,None,688.5645028799947,None,2022-04-05-11:20:21.694148,688.5786471000174,688.8814558000304,688.5786471000174,688.5786471000174,None,688.5786471000174,688.5786471000174,689.3857845800405,None,,,,22006,0002,2022_Apr_05_1109,localizer,2021.1.3,60.88024307334411,
block,scrambled,scrambled083.bmp,,,,,0,160,160,160,,,,,,,,,,,,,,,,,,,,,,,,,,,,,,,,,,,,,,,,,,None,,689.3857845800405,None,689.3857845800405,None,2022-04-05-11:20:22.516455,689.3889849000261,689.6973543000058,689.3889849000261,None,None,689.3889849000261,None,690.1977155800153,None,,,,22006,0002,2022_Apr_05_1109,localizer,2021.1.3,60.88024307334411,
block,scrambled,scrambled084.bmp,,,,,0,161,161,161,,,,,,,,,,,,,,,,,,,,,,,,,,,,,,,,,,,,,,,,,,None,,690.1977155800153,None,690.1977155800153,None,2022-04-05-11:20:23.324345,690.1981305000372,690.4974648000207,690.1981305000372,None,None,690.1981305000372,None,690.997625480016,None,,,,22006,0002,2022_Apr_05_1109,localizer,2021.1.3,60.88024307334411,
block,scrambled,scrambled054.bmp,,,,,0,162,162,162,,,,,,,,,,,,,,,,,,,,,,,,,,,,,,,,,,,,,,,,,,None,,690.997625480016,None,690.997625480016,None,2022-04-05-11:20:24.127275,691.000152099994,691.3141128999996,691.000152099994,691.000152099994,None,691.000152099994,691.000152099994,691.8140839800064,None,,,,22006,0002,2022_Apr_05_1109,localizer,2021.1.3,60.88024307334411,
block,scrambled,scrambled060.bmp,,,,,0,163,163,163,,,,,,,,,,,,,,,,,,,,,,,,,,,,,,,,,,,,,,,,,,None,,691.8140839800064,None,691.8140839800064,None,2022-04-05-11:20:24.940546,691.8250357999932,692.1309339000145,691.8250357999932,None,None,691.8250357999932,None,692.6351332800289,None,,,,22006,0002,2022_Apr_05_1109,localizer,2021.1.3,60.88024307334411,
block,scrambled,scrambled081.bmp,,,,,0,164,164,164,,,,,,,,,,,,,,,,,,,,,,,,,,,,,,,,,,,,,,,,,,None,,692.6351332800289,None,692.6351332800289,None,2022-04-05-11:20:25.766526,692.6413208000013,692.9483482000069,692.6413208000013,None,None,692.6413208000013,None,693.4471454800398,None,,,,22006,0002,2022_Apr_05_1109,localizer,2021.1.3,60.88024307334411,
block,scrambled,scrambled024.bmp,,,,,0,165,165,165,,,,,,,,,,,,,,,,,,,,,,,,,,,,,,,,,,,,,,,,,,None,,693.4471454800398,None,693.4471454800398,None,2022-04-05-11:20:26.574147,693.4575955999899,693.7638814999955,693.4575955999899,None,None,693.4575955999899,None,694.2646575800202,None,,,,22006,0002,2022_Apr_05_1109,localizer,2021.1.3,60.88024307334411,
block,scrambled,scrambled075.bmp,,,,,0,166,166,166,,,,,,,,,,,,,,,,,,,,,,,,,,,,,,,,,,,,,,,,,,None,,694.2646575800202,None,694.2646575800202,None,2022-04-05-11:20:27.392302,694.264968500007,694.5801874999888,694.264968500007,None,None,694.264968500007,None,695.0803481799842,None,,,,22006,0002,2022_Apr_05_1109,localizer,2021.1.3,60.88024307334411,
block_end,scrambled,scrambled066.bmp,,,,,0,167,167,167,,,,,,,,,,,,,,,,,,,,,,,,,,,,,,,,,,,,,,,,,,None,,695.0803481799842,None,695.0803481799842,None,2022-04-05-11:20:28.207074,695.0816114000045,695.3810936000082,695.0816114000045,None,None,695.0816114000045,None,695.8830896800093,None,,,,22006,0002,2022_Apr_05_1109,localizer,2021.1.3,60.88024307334411,
block_start,objects,objects065.bmp,,,,,0,168,168,168,,,,,,,,,,,,,,,,,,,,,,,,,,,,,,,,,,,,,,,,,,t,1.8101007000077516,695.88296300004,None,695.88296300004,None,2022-04-05-11:20:30.842358,697.7166874000104,698.0311604000162,697.7166874000104,None,None,697.7166874000104,None,698.531611480011,None,,,,22006,0002,2022_Apr_05_1109,localizer,2021.1.3,60.88024307334411,
block,objects,objects030.bmp,,,,,0,169,169,169,,,,,,,,,,,,,,,,,,,,,,,,,,,,,,,,,,,,,,,,,,None,,698.531611480011,None,698.531611480011,None,2022-04-05-11:20:31.657668,698.5315724000102,698.8321887000347,698.5315724000102,None,None,698.5315724000102,None,699.3467767799914,None,,,,22006,0002,2022_Apr_05_1109,localizer,2021.1.3,60.88024307334411,
block,objects,objects025.bmp,,,,,0,170,170,170,,,,,,,,,,,,,,,,,,,,,,,,,,,,,,,,,,,,,,,,,,None,,699.3467767799914,None,699.3467767799914,None,2022-04-05-11:20:32.473225,699.3488858999917,699.6640507000266,699.3488858999917,None,None,699.3488858999917,None,700.1643595799862,None,,,,22006,0002,2022_Apr_05_1109,localizer,2021.1.3,60.88024307334411,
block,objects,objects040.bmp,,,,,0,171,171,171,,,,,,,,,,,,,,,,,,,,,,,,,,,,,,,,,,,,,,,,,,None,,700.1643595799862,None,700.1643595799862,None,2022-04-05-11:20:33.290822,700.1648776000366,700.4646425000392,700.1648776000366,None,None,700.1648776000366,None,700.9642963800172,None,,,,22006,0002,2022_Apr_05_1109,localizer,2021.1.3,60.88024307334411,
block,objects,objects008.bmp,,,,,0,172,172,172,,,,,,,,,,,,,,,,,,,,,,,,,,,,,,,,,,,,,,,,,,None,,700.9642963800172,None,700.9642963800172,None,2022-04-05-11:20:34.093751,700.9668127000332,701.2813455000287,700.9668127000332,700.9668127000332,None,700.9668127000332,700.9668127000332,701.7808091800136,None,,,,22006,0002,2022_Apr_05_1109,localizer,2021.1.3,60.88024307334411,
block,objects,objects007.bmp,,,,,0,173,173,173,,,,,,,,,,,,,,,,,,,,,,,,,,,,,,,,,,,,,,,,,,None,,701.7808091800136,None,701.7808091800136,None,2022-04-05-11:20:34.907271,701.7814495000057,702.0804896000191,701.7814495000057,None,None,701.7814495000057,None,702.580654979992,None,,,,22006,0002,2022_Apr_05_1109,localizer,2021.1.3,60.88024307334411,
block,objects,objects071.bmp,,,,,0,174,174,174,,,,,,,,,,,,,,,,,,,,,,,,,,,,,,,,,,,,,,,,,,None,,702.580654979992,None,702.580654979992,None,2022-04-05-11:20:35.708346,702.5813159000245,702.8808040000149,702.5813159000245,702.5813159000245,None,702.5813159000245,702.5813159000245,703.382032879995,None,,,,22006,0002,2022_Apr_05_1109,localizer,2021.1.3,60.88024307334411,
block,objects,objects029.bmp,,,,,0,175,175,175,,,,,,,,,,,,,,,,,,,,,,,,,,,,,,,,,,,,,,,,,,None,,703.382032879995,None,703.382032879995,None,2022-04-05-11:20:36.513249,703.3872151999967,703.6974514999893,703.3872151999967,703.3872151999967,None,703.3872151999967,703.3872151999967,704.1973880800244,None,,,,22006,0002,2022_Apr_05_1109,localizer,2021.1.3,60.88024307334411,
block,objects,objects005.bmp,,,,,0,176,176,176,,,,,,,,,,,,,,,,,,,,,,,,,,,,,,,,,,,,,,,,,,None,,704.1973880800244,None,704.1973880800244,None,2022-04-05-11:20:37.323850,704.1981758000329,704.497286400001,704.1981758000329,None,None,704.1981758000329,None,704.9985068800336,None,,,,22006,0002,2022_Apr_05_1109,localizer,2021.1.3,60.88024307334411,
block,objects,objects005.bmp,,,,,0,177,177,177,,,,,,,,,,,,,,,,,,,,,,,,,,,,,,,,,,,,,,,,,,None,,704.9985068800336,None,704.9985068800336,None,2022-04-05-11:20:38.128989,705.0032008999842,705.3135421000188,705.0032008999842,705.0032008999842,y,705.0032008999842,705.0032008999842,705.8144739800075,None,0.7153621999896131,,,22006,0002,2022_Apr_05_1109,localizer,2021.1.3,60.88024307334411,
block,objects,objects047.bmp,,,,,0,178,178,178,,,,,,,,,,,,,,,,,,,,,,,,,,,,,,,,,,,,,,,,,,None,,705.8144739800075,None,705.8144739800075,None,2022-04-05-11:20:38.940949,705.8148646000191,706.113992300001,705.8148646000191,None,None,705.8148646000191,None,706.6144632800308,None,,,,22006,0002,2022_Apr_05_1109,localizer,2021.1.3,60.88024307334411,
block,objects,objects045.bmp,,,,,0,179,179,179,,,,,,,,,,,,,,,,,,,,,,,,,,,,,,,,,,,,,,,,,,None,,706.6144632800308,None,706.6144632800308,None,2022-04-05-11:20:39.743978,706.6170468000346,706.9313423000276,706.6170468000346,706.6170468000346,None,706.6170468000346,706.6170468000346,707.431373680028,None,,,,22006,0002,2022_Apr_05_1109,localizer,2021.1.3,60.88024307334411,
block,objects,objects050.bmp,,,,,0,180,180,180,,,,,,,,,,,,,,,,,,,,,,,,,,,,,,,,,,,,,,,,,,None,,707.431373680028,None,707.431373680028,None,2022-04-05-11:20:40.558919,707.4325488000177,707.7367043999839,707.4325488000177,None,None,707.4325488000177,None,708.2324048800103,None,,,,22006,0002,2022_Apr_05_1109,localizer,2021.1.3,60.88024307334411,
block,objects,objects044.bmp,,,,,0,181,181,181,,,,,,,,,,,,,,,,,,,,,,,,,,,,,,,,,,,,,,,,,,None,,708.2324048800103,None,708.2324048800103,None,2022-04-05-11:20:41.364330,708.2500942000188,708.5639658999862,708.2500942000188,708.2500942000188,None,708.2500942000188,708.2500942000188,709.0483018800326,None,,,,22006,0002,2022_Apr_05_1109,localizer,2021.1.3,60.88024307334411,
block_end,objects,objects036.bmp,,,,,0,182,182,182,,,,,,,,,,,,,,,,,,,,,,,,,,,,,,,,,,,,,,,,,,None,,709.0483018800326,None,709.0483018800326,None,2022-04-05-11:20:42.175936,709.0595647000009,709.3635562999989,709.0595647000009,None,None,709.0595647000009,None,709.866227180016,None,,,,22006,0002,2022_Apr_05_1109,localizer,2021.1.3,60.88024307334411,
null_block,null_block,null_block.bmp,,,,,0,183,183,183,,,,,,,,,,,,,,,,,,,,,,,,,,,,,,,,,,,,,,,,,,t,1.8244835999794304,709.8675550000044,None,709.8675550000044,None,2022-04-05-11:20:44.839450,711.713977780036,None,711.713977780036,None,None,711.713977780036,None,711.7154107000097,None,,,,22006,0002,2022_Apr_05_1109,localizer,2021.1.3,60.88024307334411,
block_start,scenes,scenes003.bmp,,,,,0,184,184,184,,,,,,,,,,,,,,,,,,,,,,,,,,,,,,,,,,,,,,,,,,t,1.9767087000072934,723.7152020999929,None,723.7152020999929,None,2022-04-05-11:20:58.841663,725.7156170000089,726.0306571000256,725.7156170000089,None,None,725.7156170000089,None,726.5313498799981,None,,,,22006,0002,2022_Apr_05_1109,localizer,2021.1.3,60.88024307334411,
block,scenes,scenes018.bmp,,,,,0,185,185,185,,,,,,,,,,,,,,,,,,,,,,,,,,,,,,,,,,,,,,,,,,None,,726.5313498799981,None,726.5313498799981,None,2022-04-05-11:20:59.658994,726.5317802000209,726.8474915000261,726.5317802000209,None,None,726.5317802000209,None,727.3310635800183,None,,,,22006,0002,2022_Apr_05_1109,localizer,2021.1.3,60.88024307334411,
block,scenes,scenes025.bmp,,,,,0,186,186,186,,,,,,,,,,,,,,,,,,,,,,,,,,,,,,,,,,,,,,,,,,None,,727.3310635800183,None,727.3310635800183,None,2022-04-05-11:21:00.459411,727.3437758000218,727.6478198000113,727.3437758000218,727.3437758000218,None,727.3437758000218,727.3437758000218,728.1479380800331,None,,,,22006,0002,2022_Apr_05_1109,localizer,2021.1.3,60.88024307334411,
block,scenes,scenes008.bmp,,,,,0,187,187,187,,,,,,,,,,,,,,,,,,,,,,,,,,,,,,,,,,,,,,,,,,None,,728.1479380800331,None,728.1479380800331,None,2022-04-05-11:21:01.275597,728.1486167000257,728.46418000001,728.1486167000257,None,None,728.1486167000257,None,728.9478326800338,None,,,,22006,0002,2022_Apr_05_1109,localizer,2021.1.3,60.88024307334411,
block,scenes,scenes015.bmp,,,,,0,188,188,188,,,,,,,,,,,,,,,,,,,,,,,,,,,,,,,,,,,,,,,,,,None,,728.9478326800338,None,728.9478326800338,None,2022-04-05-11:21:02.077280,728.9505754000274,729.2641179999919,728.9505754000274,728.9505754000274,None,728.9505754000274,728.9505754000274,729.7645501800173,None,,,,22006,0002,2022_Apr_05_1109,localizer,2021.1.3,60.88024307334411,
block,scenes,scenes089.bmp,,,,,0,189,189,189,,,,,,,,,,,,,,,,,,,,,,,,,,,,,,,,,,,,,,,,,,None,,729.7645501800173,None,729.7645501800173,None,2022-04-05-11:21:02.892265,729.7752395999851,730.0813709000358,729.7752395999851,None,None,729.7752395999851,None,730.5816684800259,None,,,,22006,0002,2022_Apr_05_1109,localizer,2021.1.3,60.88024307334411,
block,scenes,scenes087.bmp,,,,,0,190,190,190,,,,,,,,,,,,,,,,,,,,,,,,,,,,,,,,,,,,,,,,,,None,,730.5816684800259,None,730.5816684800259,None,2022-04-05-11:21:03.709121,730.5834421000327,730.8980004999903,730.5834421000327,None,None,730.5834421000327,None,731.3979297800281,None,,,,22006,0002,2022_Apr_05_1109,localizer,2021.1.3,60.88024307334411,
block,scenes,scenes052.bmp,,,,,0,191,191,191,,,,,,,,,,,,,,,,,,,,,,,,,,,,,,,,,,,,,,,,,,None,,731.3979297800281,None,731.3979297800281,None,2022-04-05-11:21:04.524394,731.409211900027,731.7142259000102,731.409211900027,None,None,731.409211900027,None,732.2141611800355,None,,,,22006,0002,2022_Apr_05_1109,localizer,2021.1.3,60.88024307334411,
block,scenes,scenes073.bmp,,,,,0,192,192,192,,,,,,,,,,,,,,,,,,,,,,,,,,,,,,,,,,,,,,,,,,None,,732.2141611800355,None,732.2141611800355,None,2022-04-05-11:21:05.340633,732.2159168000217,732.5313496000017,732.2159168000217,None,None,732.2159168000217,None,733.0316856799939,None,,,,22006,0002,2022_Apr_05_1109,localizer,2021.1.3,60.88024307334411,
block,scenes,scenes012.bmp,,,,,0,193,193,193,,,,,,,,,,,,,,,,,,,,,,,,,,,,,,,,,,,,,,,,,,None,,733.0316856799939,None,733.0316856799939,None,2022-04-05-11:21:06.159338,733.0340803000145,733.3477476999979,733.0340803000145,None,None,733.0340803000145,None,733.8373726800376,None,,,,22006,0002,2022_Apr_05_1109,localizer,2021.1.3,60.88024307334411,
block,scenes,scenes081.bmp,,,,,0,194,194,194,,,,,,,,,,,,,,,,,,,,,,,,,,,,,,,,,,,,,,,,,,None,,733.8373726800376,None,733.8373726800376,None,2022-04-05-11:21:06.967881,733.8410473000258,734.1476166000357,733.8410473000258,None,None,733.8410473000258,None,734.6482815800293,None,,,,22006,0002,2022_Apr_05_1109,localizer,2021.1.3,60.88024307334411,
block,scenes,scenes024.bmp,,,,,0,195,195,195,,,,,,,,,,,,,,,,,,,,,,,,,,,,,,,,,,,,,,,,,,None,,734.6482815800293,None,734.6482815800293,None,2022-04-05-11:21:07.775735,734.6597077000188,734.9641979000298,734.6597077000188,None,None,734.6597077000188,None,735.4641880800075,None,,,,22006,0002,2022_Apr_05_1109,localizer,2021.1.3,60.88024307334411,
block,scenes,scenes009.bmp,,,,,0,196,196,196,,,,,,,,,,,,,,,,,,,,,,,,,,,,,,,,,,,,,,,,,,None,,735.4641880800075,None,735.4641880800075,None,2022-04-05-11:21:08.590656,735.4652186000021,735.7642858999898,735.4652186000021,None,None,735.4652186000021,None,736.2644684800355,None,,,,22006,0002,2022_Apr_05_1109,localizer,2021.1.3,60.88024307334411,
block,scenes,scenes026.bmp,,,,,0,197,197,197,,,,,,,,,,,,,,,,,,,,,,,,,,,,,,,,,,,,,,,,,,None,,736.2644684800355,None,736.2644684800355,None,2022-04-05-11:21:09.392927,736.2780252000084,736.580944699992,736.2780252000084,736.2780252000084,None,736.2780252000084,736.2780252000084,737.0807976800309,None,,,,22006,0002,2022_Apr_05_1109,localizer,2021.1.3,60.88024307334411,
block_end,scenes,scenes065.bmp,,,,,0,198,198,198,,,,,,,,,,,,,,,,,,,,,,,,,,,,,,,,,,,,,,,,,,None,,737.0807976800309,None,737.0807976800309,None,2022-04-05-11:21:10.207267,737.0850849000271,737.3978507000138,737.0850849000271,None,None,737.0850849000271,None,737.8978686800285,None,,,,22006,0002,2022_Apr_05_1109,localizer,2021.1.3,60.88024307334411,
block_start,scrambled,scrambled023.bmp,,,,,0,199,199,199,,,,,,,,,,,,,,,,,,,,,,,,,,,,,,,,,,,,,,,,,,t,1.7946251999819651,737.8974397000275,None,737.8974397000275,None,2022-04-05-11:21:12.839152,739.7152301000315,740.0141933999839,739.7152301000315,None,None,739.7152301000315,None,740.5145343800134,None,,,,22006,0002,2022_Apr_05_1109,localizer,2021.1.3,60.88024307334411,
block,scrambled,scrambled082.bmp,,,,,0,200,200,200,,,,,,,,,,,,,,,,,,,,,,,,,,,,,,,,,,,,,,,,,,None,,740.5145343800134,None,740.5145343800134,None,2022-04-05-11:21:13.642993,740.5268077999935,740.8308350000298,740.5268077999935,740.5268077999935,None,740.5268077999935,740.5268077999935,741.3312644800346,None,,,,22006,0002,2022_Apr_05_1109,localizer,2021.1.3,60.88024307334411,
block,scrambled,scrambled049.bmp,,,,,0,201,201,201,,,,,,,,,,,,,,,,,,,,,,,,,,,,,,,,,,,,,,,,,,None,,741.3312644800346,None,741.3312644800346,None,2022-04-05-11:21:14.457547,741.3407370999921,741.6474876999855,741.3407370999921,None,None,741.3407370999921,None,742.1488499799918,None,,,,22006,0002,2022_Apr_05_1109,localizer,2021.1.3,60.88024307334411,
block,scrambled,scrambled075.bmp,,,,,0,202,202,202,,,,,,,,,,,,,,,,,,,,,,,,,,,,,,,,,,,,,,,,,,None,,742.1488499799918,None,742.1488499799918,None,2022-04-05-11:21:15.277456,742.1509826999973,742.4516054000123,742.1509826999973,None,None,742.1509826999973,None,742.9640762800293,None,,,,22006,0002,2022_Apr_05_1109,localizer,2021.1.3,60.88024307334411,
block,scrambled,scrambled004.bmp,,,,,0,203,203,203,,,,,,,,,,,,,,,,,,,,,,,,,,,,,,,,,,,,,,,,,,None,,742.9640762800293,None,742.9640762800293,None,2022-04-05-11:21:16.090548,742.9653915000381,743.2807918000035,742.9653915000381,None,None,742.9653915000381,None,743.764445880038,None,,,,22006,0002,2022_Apr_05_1109,localizer,2021.1.3,60.88024307334411,
block,scrambled,scrambled048.bmp,,,,,0,204,204,204,,,,,,,,,,,,,,,,,,,,,,,,,,,,,,,,,,,,,,,,,,None,,743.764445880038,None,743.764445880038,None,2022-04-05-11:21:16.892957,743.776324400038,744.0814410999883,743.776324400038,743.776324400038,None,743.776324400038,743.776324400038,744.5812234800135,None,,,,22006,0002,2022_Apr_05_1109,localizer,2021.1.3,60.88024307334411,
block,scrambled,scrambled070.bmp,,,,,0,205,205,205,,,,,,,,,,,,,,,,,,,,,,,,,,,,,,,,,,,,,,,,,,None,,744.5812234800135,None,744.5812234800135,None,2022-04-05-11:21:17.707901,744.5819155999925,744.8807728000102,744.5819155999925,None,None,744.5819155999925,None,745.3822056800302,None,,,,22006,0002,2022_Apr_05_1109,localizer,2021.1.3,60.88024307334411,
block,scrambled,scrambled067.bmp,,,,,0,206,206,206,,,,,,,,,,,,,,,,,,,,,,,,,,,,,,,,,,,,,,,,,,None,,745.3822056800302,None,745.3822056800302,None,2022-04-05-11:21:18.513000,745.386322300008,745.6981621999876,745.386322300008,745.386322300008,None,745.386322300008,745.386322300008,746.1982607800339,None,,,,22006,0002,2022_Apr_05_1109,localizer,2021.1.3,60.88024307334411,
block,scrambled,scrambled036.bmp,,,,,0,207,207,207,,,,,,,,,,,,,,,,,,,,,,,,,,,,,,,,,,,,,,,,,,None,,746.1982607800339,None,746.1982607800339,None,2022-04-05-11:21:19.325714,746.1995075999876,746.514808500011,746.1995075999876,None,None,746.1995075999876,None,747.0149157800072,None,,,,22006,0002,2022_Apr_05_1109,localizer,2021.1.3,60.88024307334411,
block,scrambled,scrambled036.bmp,,,,,0,208,208,208,,,,,,,,,,,,,,,,,,,,,,,,,,,,,,,,,,,,,,,,,,None,,747.0149157800072,None,747.0149157800072,None,2022-04-05-11:21:20.142369,747.0163126999978,747.3315111999982,747.0163126999978,None,None,747.0163126999978,None,747.8310635800183,None,,,,22006,0002,2022_Apr_05_1109,localizer,2021.1.3,60.88024307334411,
block,scrambled,scrambled079.bmp,,,,,0,209,209,209,,,,,,,,,,,,,,,,,,,,,,,,,,,,,,,,,,,,,,,,,,None,,747.8310635800183,None,747.8310635800183,None,2022-04-05-11:21:20.957531,747.8396650000359,748.1477659000084,747.8396650000359,None,None,747.8396650000359,None,748.6478155800316,None,,,,22006,0002,2022_Apr_05_1109,localizer,2021.1.3,60.88024307334411,
block,scrambled,scrambled034.bmp,,,,,0,210,210,210,,,,,,,,,,,,,,,,,,,,,,,,,,,,,,,,,,,,,,,,,,None,,748.6478155800316,None,748.6478155800316,None,2022-04-05-11:21:21.774279,748.648427200038,748.9477875999874,748.648427200038,None,None,748.648427200038,None,749.4482650800085,None,,,,22006,0002,2022_Apr_05_1109,localizer,2021.1.3,60.88024307334411,
block,scrambled,scrambled043.bmp,,,,,0,211,211,211,,,,,,,,,,,,,,,,,,,,,,,,,,,,,,,,,,,,,,,,,,None,,749.4482650800085,None,749.4482650800085,None,2022-04-05-11:21:22.577713,749.4510332000209,749.7649094000226,749.4510332000209,749.4510332000209,None,749.4510332000209,749.4510332000209,750.2645070800384,None,,,,22006,0002,2022_Apr_05_1109,localizer,2021.1.3,60.88024307334411,
block,scrambled,scrambled064.bmp,,,,,0,212,212,212,,,,,,,,,,,,,,,,,,,,,,,,,,,,,,,,,,,,,,,,,,None,,750.2645070800384,None,750.2645070800384,None,2022-04-05-11:21:23.391181,750.265171200037,750.564418599999,750.265171200037,None,None,750.265171200037,None,751.064563279989,None,,,,22006,0002,2022_Apr_05_1109,localizer,2021.1.3,60.88024307334411,
block_end,scrambled,scrambled021.bmp,,,,,0,213,213,213,,,,,,,,,,,,,,,,,,,,,,,,,,,,,,,,,,,,,,,,,,None,,751.064563279989,None,751.064563279989,None,2022-04-05-11:21:24.192977,751.0671763999853,751.3812661999837,751.0671763999853,751.0671763999853,None,751.0671763999853,751.0671763999853,751.868249379989,None,,,,22006,0002,2022_Apr_05_1109,localizer,2021.1.3,60.88024307334411,
block_start,faces,faces048.bmp,,,,,0,214,214,214,,,,,,,,,,,,,,,,,,,,,,,,,,,,,,,,,,,,,,,,,,t,1.824974299990572,751.8670146000222,None,751.8670146000222,None,2022-04-05-11:21:26.840928,753.715032600041,754.014146200032,753.715032600041,None,None,753.715032600041,None,754.5146330800083,None,,,,22006,0002,2022_Apr_05_1109,localizer,2021.1.3,60.88024307334411,
block,faces,faces014.bmp,,,,,0,215,215,215,,,,,,,,,,,,,,,,,,,,,,,,,,,,,,,,,,,,,,,,,,None,,754.5146330800083,None,754.5146330800083,None,2022-04-05-11:21:27.643294,754.5171127000358,754.8308982999879,754.5171127000358,754.5171127000358,None,754.5171127000358,754.5171127000358,755.3318939799967,None,,,,22006,0002,2022_Apr_05_1109,localizer,2021.1.3,60.88024307334411,
block,faces,faces082.bmp,,,,,0,216,216,216,,,,,,,,,,,,,,,,,,,,,,,,,,,,,,,,,,,,,,,,,,None,,755.3318939799967,None,755.3318939799967,None,2022-04-05-11:21:28.459328,755.3335979999974,755.6482898000395,755.3335979999974,None,None,755.3335979999974,None,756.1482380799891,None,,,,22006,0002,2022_Apr_05_1109,localizer,2021.1.3,60.88024307334411,
block,faces,faces062.bmp,,,,,0,217,217,217,,,,,,,,,,,,,,,,,,,,,,,,,,,,,,,,,,,,,,,,,,None,,756.1482380799891,None,756.1482380799891,None,2022-04-05-11:21:29.275862,756.1496353000402,756.464461800002,756.1496353000402,None,None,756.1496353000402,None,756.9645780800086,None,,,,22006,0002,2022_Apr_05_1109,localizer,2021.1.3,60.88024307334411,
block,faces,faces083.bmp,,,,,0,218,218,218,,,,,,,,,,,,,,,,,,,,,,,,,,,,,,,,,,,,,,,,,,None,,756.9645780800086,None,756.9645780800086,None,2022-04-05-11:21:30.091233,756.9754511000356,757.2818302999949,756.9754511000356,None,None,756.9754511000356,None,757.781316380034,None,,,,22006,0002,2022_Apr_05_1109,localizer,2021.1.3,60.88024307334411,
block,faces,faces047.bmp,,,,,0,219,219,219,,,,,,,,,,,,,,,,,,,,,,,,,,,,,,,,,,,,,,,,,,None,,757.781316380034,None,757.781316380034,None,2022-04-05-11:21:30.908976,757.7970743000042,758.0973227000213,757.7970743000042,None,None,757.7970743000042,None,758.5979757800408,None,,,,22006,0002,2022_Apr_05_1109,localizer,2021.1.3,60.88024307334411,
block,faces,faces085.bmp,,,,,0,220,220,220,,,,,,,,,,,,,,,,,,,,,,,,,,,,,,,,,,,,,,,,,,None,,758.5979757800408,None,758.5979757800408,None,2022-04-05-11:21:31.724546,758.5984855000279,758.8977675000206,758.5984855000279,None,None,758.5984855000279,None,759.3975311800198,None,,,,22006,0002,2022_Apr_05_1109,localizer,2021.1.3,60.88024307334411,
block,faces,faces068.bmp,,,,,0,221,221,221,,,,,,,,,,,,,,,,,,,,,,,,,,,,,,,,,,,,,,,,,,None,,759.3975311800198,None,759.3975311800198,None,2022-04-05-11:21:32.526990,759.4116353000281,759.7160524000064,759.4116353000281,759.4116353000281,None,759.4116353000281,759.4116353000281,760.2148506799888,None,,,,22006,0002,2022_Apr_05_1109,localizer,2021.1.3,60.88024307334411,
block,faces,faces051.bmp,,,,,0,222,222,222,,,,,,,,,,,,,,,,,,,,,,,,,,,,,,,,,,,,,,,,,,None,,760.2148506799888,None,760.2148506799888,None,2022-04-05-11:21:33.341114,760.215469799994,760.5305901000393,760.215469799994,None,None,760.215469799994,None,761.0149525799964,None,,,,22006,0002,2022_Apr_05_1109,localizer,2021.1.3,60.88024307334411,
block,faces,faces027.bmp,,,,,0,223,223,223,,,,,,,,,,,,,,,,,,,,,,,,,,,,,,,,,,,,,,,,,,None,,761.0149525799964,None,761.0149525799964,None,2022-04-05-11:21:34.144602,761.0180664000218,761.3306279000244,761.0180664000218,761.0180664000218,None,761.0180664000218,761.0180664000218,761.8315804799961,None,,,,22006,0002,2022_Apr_05_1109,localizer,2021.1.3,60.88024307334411,
block,faces,faces060.bmp,,,,,0,224,224,224,,,,,,,,,,,,,,,,,,,,,,,,,,,,,,,,,,,,,,,,,,None,,761.8315804799961,None,761.8315804799961,None,2022-04-05-11:21:34.959034,761.8320215999847,762.1313977999962,761.8320215999847,None,None,761.8320215999847,None,762.6313465800079,None,,,,22006,0002,2022_Apr_05_1109,localizer,2021.1.3,60.88024307334411,
block,faces,faces054.bmp,,,,,0,225,225,225,,,,,,,,,,,,,,,,,,,,,,,,,,,,,,,,,,,,,,,,,,None,,762.6313465800079,None,762.6313465800079,None,2022-04-05-11:21:35.759804,762.6438709000358,762.9475897999946,762.6438709000358,762.6438709000358,None,762.6438709000358,762.6438709000358,763.4488089800172,None,,,,22006,0002,2022_Apr_05_1109,localizer,2021.1.3,60.88024307334411,
block,faces,faces063.bmp,,,,,0,226,226,226,,,,,,,,,,,,,,,,,,,,,,,,,,,,,,,,,,,,,,,,,,None,,763.4488089800172,None,763.4488089800172,None,2022-04-05-11:21:36.576442,763.4627993000322,763.7647533999989,763.4627993000322,None,None,763.4627993000322,None,764.265522280027,None,,,,22006,0002,2022_Apr_05_1109,localizer,2021.1.3,60.88024307334411,
block,faces,faces080.bmp,,,,,0,227,227,227,,,,,,,,,,,,,,,,,,,,,,,,,,,,,,,,,,,,,,,,,,None,,764.265522280027,None,764.265522280027,None,2022-04-05-11:21:37.393966,764.2703752000234,764.5813874999876,764.2703752000234,None,None,764.2703752000234,None,765.0825987800083,None,,,,22006,0002,2022_Apr_05_1109,localizer,2021.1.3,60.88024307334411,
block_end,faces,faces045.bmp,,,,,0,228,228,228,,,,,,,,,,,,,,,,,,,,,,,,,,,,,,,,,,,,,,,,,,None,,765.0825987800083,None,765.0825987800083,None,2022-04-05-11:21:38.212008,765.0844657000271,765.3976575999986,765.0844657000271,None,None,765.0844657000271,None,765.8977278800041,None,,,,22006,0002,2022_Apr_05_1109,localizer,2021.1.3,60.88024307334411,
block_start,objects,objects005.bmp,,,,,0,229,229,229,,,,,,,,,,,,,,,,,,,,,,,,,,,,,,,,,,,,,,,,,,t,1.7943111000349745,765.897685700038,None,765.897685700038,None,2022-04-05-11:21:40.843127,767.7180687999935,768.030825600028,767.7180687999935,None,None,767.7180687999935,None,768.5313933800383,None,,,,22006,0002,2022_Apr_05_1109,localizer,2021.1.3,60.88024307334411,
block,objects,objects020.bmp,,,,,0,230,230,230,,,,,,,,,,,,,,,,,,,,,,,,,,,,,,,,,,,,,,,,,,None,,768.5313933800383,None,768.5313933800383,None,2022-04-05-11:21:41.658591,768.5318855000078,768.8311249000253,768.5318855000078,None,None,768.5318855000078,None,769.3314384800208,None,,,,22006,0002,2022_Apr_05_1109,localizer,2021.1.3,60.88024307334411,
block,objects,objects003.bmp,,,,,0,231,231,231,,,,,,,,,,,,,,,,,,,,,,,,,,,,,,,,,,,,,,,,,,None,,769.3314384800208,None,769.3314384800208,None,2022-04-05-11:21:42.460102,769.3330039000139,769.6475901000085,769.3330039000139,769.3330039000139,None,769.3330039000139,769.3330039000139,770.1322133800306,None,,,,22006,0002,2022_Apr_05_1109,localizer,2021.1.3,60.88024307334411,
block,objects,objects001.bmp,,,,,0,232,232,232,,,,,,,,,,,,,,,,,,,,,,,,,,,,,,,,,,,,,,,,,,None,,770.1322133800306,None,770.1322133800306,None,2022-04-05-11:21:43.261474,770.1349783000187,770.4477137000067,770.1349783000187,770.1349783000187,None,770.1349783000187,770.1349783000187,770.9479957799952,None,,,,22006,0002,2022_Apr_05_1109,localizer,2021.1.3,60.88024307334411,
block,objects,objects048.bmp,,,,,0,233,233,233,,,,,,,,,,,,,,,,,,,,,,,,,,,,,,,,,,,,,,,,,,None,,770.9479957799952,None,770.9479957799952,None,2022-04-05-11:21:44.074660,770.9588927000295,771.2640287000104,770.9588927000295,None,None,770.9588927000295,None,771.7650848800142,None,,,,22006,0002,2022_Apr_05_1109,localizer,2021.1.3,60.88024307334411,
block,objects,objects051.bmp,,,,,0,234,234,234,,,,,,,,,,,,,,,,,,,,,,,,,,,,,,,,,,,,,,,,,,None,,771.7650848800142,None,771.7650848800142,None,2022-04-05-11:21:44.892727,771.7765868999995,772.0811689000111,771.7765868999995,None,None,771.7765868999995,None,772.5814476800326,None,,,,22006,0002,2022_Apr_05_1109,localizer,2021.1.3,60.88024307334411,
block,objects,objects026.bmp,,,,,0,235,235,235,,,,,,,,,,,,,,,,,,,,,,,,,,,,,,,,,,,,,,,,,,None,,772.5814476800326,None,772.5814476800326,None,2022-04-05-11:21:45.707910,772.5881244000047,772.8971897999872,772.5881244000047,None,None,772.5881244000047,None,773.3982294800401,None,,,,22006,0002,2022_Apr_05_1109,localizer,2021.1.3,60.88024307334411,
block,objects,objects014.bmp,,,,,0,236,236,236,,,,,,,,,,,,,,,,,,,,,,,,,,,,,,,,,,,,,,,,,,None,,773.3982294800401,None,773.3982294800401,None,2022-04-05-11:21:46.524687,773.4077896000235,773.7146676999982,773.4077896000235,None,None,773.4077896000235,None,774.2146746799874,None,,,,22006,0002,2022_Apr_05_1109,localizer,2021.1.3,60.88024307334411,
block,objects,objects054.bmp,,,,,0,237,237,237,,,,,,,,,,,,,,,,,,,,,,,,,,,,,,,,,,,,,,,,,,None,,774.2146746799874,None,774.2146746799874,None,2022-04-05-11:21:47.341135,774.2151958000031,774.514308599988,774.2151958000031,None,None,774.2151958000031,None,775.0147816800338,None,,,,22006,0002,2022_Apr_05_1109,localizer,2021.1.3,60.88024307334411,
block,objects,objects031.bmp,,,,,0,238,238,238,,,,,,,,,,,,,,,,,,,,,,,,,,,,,,,,,,,,,,,,,,None,,775.0147816800338,None,775.0147816800338,None,2022-04-05-11:21:48.143240,775.0159347000299,775.3308847000008,775.0159347000299,775.0159347000299,None,775.0159347000299,775.0159347000299,775.8314463800227,None,,,,22006,0002,2022_Apr_05_1109,localizer,2021.1.3,60.88024307334411,
block,objects,objects045.bmp,,,,,0,239,239,239,,,,,,,,,,,,,,,,,,,,,,,,,,,,,,,,,,,,,,,,,,None,,775.8314463800227,None,775.8314463800227,None,2022-04-05-11:21:48.957963,775.8318290000316,776.1313515999936,775.8318290000316,None,None,775.8318290000316,None,776.6475690800173,None,,,,22006,0002,2022_Apr_05_1109,localizer,2021.1.3,60.88024307334411,
block,objects,objects086.bmp,,,,,0,240,240,240,,,,,,,,,,,,,,,,,,,,,,,,,,,,,,,,,,,,,,,,,,None,,776.6475690800173,None,776.6475690800173,None,2022-04-05-11:21:49.774040,776.6510522000026,776.9646114000352,776.6510522000026,None,None,776.6510522000026,None,777.4652431800089,None,,,,22006,0002,2022_Apr_05_1109,localizer,2021.1.3,60.88024307334411,
block,objects,objects055.bmp,,,,,0,241,241,241,,,,,,,,,,,,,,,,,,,,,,,,,,,,,,,,,,,,,,,,,,None,,777.4652431800089,None,777.4652431800089,None,2022-04-05-11:21:50.592877,777.4656873000204,777.765052200004,777.4656873000204,None,None,777.4656873000204,None,778.2652052799997,None,,,,22006,0002,2022_Apr_05_1109,localizer,2021.1.3,60.88024307334411,
block,objects,objects004.bmp,,,,,0,242,242,242,,,,,,,,,,,,,,,,,,,,,,,,,,,,,,,,,,,,,,,,,,None,,778.2652052799997,None,778.2652052799997,None,2022-04-05-11:21:51.394831,778.2784419000382,778.5812160000205,778.2784419000382,778.2784419000382,None,778.2784419000382,778.2784419000382,779.0820609799878,None,,,,22006,0002,2022_Apr_05_1109,localizer,2021.1.3,60.88024307334411,
block_end,objects,objects073.bmp,,,,,0,243,243,243,,,,,,,,,,,,,,,,,,,,,,,,,,,,,,,,,,,,,,,,,,None,,779.0820609799878,None,779.0820609799878,None,2022-04-05-11:21:52.209526,779.0838423999958,779.397645900026,779.0838423999958,None,None,779.0838423999958,None,779.8977756800189,None,,,,22006,0002,2022_Apr_05_1109,localizer,2021.1.3,60.88024307334411,
,,,,,,,,,,,,,,,,,,,,,,,,,,,,,,,,,,,,,,,,,,,,,,,,,,,,,,,,,,,,,,,,,,,,,779.9036818000022,None,,,,,,,
