block_type,condition,img_name,Button.thisRepN,Button.thisTrialN,Button.thisN,Button.thisIndex,trials.thisRepN,trials.thisTrialN,trials.thisN,trials.thisIndex,Ready_experimenter_text.started,Ready_experimenter_text.stopped,Ready_experimenter_resp.keys,Ready_experimenter_resp.rt,Ready_experimenter_resp.started,Ready_experimenter_resp.stopped,Alignment_background.started,Alignment_background.stopped,Alignment_image.started,Alignment_image.stopped,Alignment_resp.keys,Alignment_resp.rt,Alignment_resp.started,Alignment_resp.stopped,Button_text.started,Button_text.stopped,Index_text.started,Index_text.stopped,Index_resp.keys,Index_resp.rt,Index_resp.started,Index_resp.stopped,Middle_text.started,Middle_text.stopped,Middle_resp.keys,Middle_resp.rt,Middle_resp.started,Middle_resp.stopped,Repeat_text.started,Repeat_text.stopped,Repeat_resp.keys,Repeat_resp.corr,Repeat_resp.rt,Repeat_resp.started,Repeat_resp.stopped,instruction_text.started,instruction_text.stopped,key_resp.keys,key_resp.rt,key_resp.started,key_resp.stopped,scanner_t.keys,scanner_t.rt,scanner_t.started,scanner_t.stopped,fixation_wait_for_t.started,fixation_wait_for_t.stopped,real_timestamp_trial_start,image.started,image.stopped,fixation.started,fixation.stopped,repeat_response.keys,repeat_response.started,repeat_response.stopped,fixation_null.started,fixation_null.stopped,repeat_response.rt,end_text.started,end_text.stopped,participant,run,date,expName,psychopyVersion,frameRate,
,,,,,,,,,,,8.589461100054905,None,return,60.11316619999707,8.589461100054905,None,,,,,,,,,,,,,,,,,,,,,,,,,,,,,,,,,,,,,,,,,,,,,,,,,,,,,,,22007,0001,2022_Apr_13_1424,localizer,2021.1.3,59.89211035362238,
,,,,,,,,,,,,,,,,,68.74852940021083,None,68.74852940021083,None,return,4.596689200028777,68.74852940021083,None,,,,,,,,,,,,,,,,,,,,,,,,,,,,,,,,,,,,,,,,,,,,,,,22007,0001,2022_Apr_13_1424,localizer,2021.1.3,59.89211035362238,
,,,0,0,0,0,,,,,,,,,,,,,,,,,,,73.3749180000741,None,74.38620060007088,None,y,2.452337299939245,74.38620060007088,None,76.85317700006999,None,b,1.244359500007704,76.85317700006999,None,78.11978500010446,None,n,0,1.7131753000430763,78.11978500010446,None,,,,,,,,,,,,,,,,,,,,,,,,,,22007,0001,2022_Apr_13_1424,localizer,2021.1.3,59.89211035362238,
,,,,,,,,,,,,,,,,,,,,,,,,,,,,,,,,,,,,,,,,,,,,,,79.85490270005539,None,y,40.806991199962795,79.85490270005539,None,,,,,,,,,,,,,,,,,,,,22007,0001,2022_Apr_13_1424,localizer,2021.1.3,59.89211035362238,
block_start,scenes,scenes084.bmp,,,,,0,0,0,0,,,,,,,,,,,,,,,,,,,,,,,,,,,,,,,,,,,,,,,,,,t,16.254698100034148,120.7428587002214,None,120.7428587002214,None,2022-04-13-14:27:06.158523,137.03849960002117,137.33767560007982,137.03849960002117,None,None,137.03849960002117,None,137.83790993022268,None,,,,22007,0001,2022_Apr_13_1424,localizer,2021.1.3,59.89211035362238,
block,scenes,scenes092.bmp,,,,,0,1,1,1,,,,,,,,,,,,,,,,,,,,,,,,,,,,,,,,,,,,,,,,,,None,,137.83790993022268,None,137.83790993022268,None,2022-04-13-14:27:06.975734,137.8490203002002,138.15356380003504,137.8490203002002,None,None,137.8490203002002,None,138.6550390301971,None,,,,22007,0001,2022_Apr_13_1424,localizer,2021.1.3,59.89211035362238,
block,scenes,scenes034.bmp,,,,,0,2,2,2,,,,,,,,,,,,,,,,,,,,,,,,,,,,,,,,,,,,,,,,,,None,,138.6550390301971,None,138.6550390301971,None,2022-04-13-14:27:07.791653,138.66727930004708,138.97068450017832,138.66727930004708,None,None,138.66727930004708,None,139.47190253001173,None,,,,22007,0001,2022_Apr_13_1424,localizer,2021.1.3,59.89211035362238,
block,scenes,scenes076.bmp,,,,,0,3,3,3,,,,,,,,,,,,,,,,,,,,,,,,,,,,,,,,,,,,,,,,,,None,,139.47190253001173,None,139.47190253001173,None,2022-04-13-14:27:08.607705,139.4839639000129,139.7868455001153,139.4839639000129,None,None,139.4839639000129,None,140.28747643001844,None,,,,22007,0001,2022_Apr_13_1424,localizer,2021.1.3,59.89211035362238,
block,scenes,scenes015.bmp,,,,,0,4,4,4,,,,,,,,,,,,,,,,,,,,,,,,,,,,,,,,,,,,,,,,,,None,,140.28747643001844,None,140.28747643001844,None,2022-04-13-14:27:09.422436,140.2979800000321,140.6066504002083,140.2979800000321,None,None,140.2979800000321,None,141.1038254302228,None,,,,22007,0001,2022_Apr_13_1424,localizer,2021.1.3,59.89211035362238,
block,scenes,scenes027.bmp,,,,,0,5,5,5,,,,,,,,,,,,,,,,,,,,,,,,,,,,,,,,,,,,,,,,,,None,,141.1038254302228,None,141.1038254302228,None,2022-04-13-14:27:10.238478,141.1125613001641,141.42045640014112,141.1125613001641,None,None,141.1125613001641,None,141.92077633000446,None,,,,22007,0001,2022_Apr_13_1424,localizer,2021.1.3,59.89211035362238,
block,scenes,scenes081.bmp,,,,,0,6,6,6,,,,,,,,,,,,,,,,,,,,,,,,,,,,,,,,,,,,,,,,,,None,,141.92077633000446,None,141.92077633000446,None,2022-04-13-14:27:11.055426,141.93118150020018,142.23699990008026,141.93118150020018,None,None,141.93118150020018,None,142.73728873005604,None,,,,22007,0001,2022_Apr_13_1424,localizer,2021.1.3,59.89211035362238,
block,scenes,scenes038.bmp,,,,,0,7,7,7,,,,,,,,,,,,,,,,,,,,,,,,,,,,,,,,,,,,,,,,,,None,,142.73728873005604,None,142.73728873005604,None,2022-04-13-14:27:11.871941,142.74639170011505,143.05361090018414,142.74639170011505,None,None,142.74639170011505,None,143.5540177301271,None,,,,22007,0001,2022_Apr_13_1424,localizer,2021.1.3,59.89211035362238,
block,scenes,scenes080.bmp,,,,,0,8,8,8,,,,,,,,,,,,,,,,,,,,,,,,,,,,,,,,,,,,,,,,,,None,,143.5540177301271,None,143.5540177301271,None,2022-04-13-14:27:12.688970,143.5633555999957,143.87067550001666,143.5633555999957,None,None,143.5633555999957,None,144.37063783018385,None,,,,22007,0001,2022_Apr_13_1424,localizer,2021.1.3,59.89211035362238,
block,scenes,scenes053.bmp,,,,,0,9,9,9,,,,,,,,,,,,,,,,,,,,,,,,,,,,,,,,,,,,,,,,,,None,,144.37063783018385,None,144.37063783018385,None,2022-04-13-14:27:13.505426,144.37564540002495,144.68830220005475,144.37564540002495,None,None,144.37564540002495,None,145.18778993010056,None,,,,22007,0001,2022_Apr_13_1424,localizer,2021.1.3,59.89211035362238,
block,scenes,scenes045.bmp,,,,,0,10,10,10,,,,,,,,,,,,,,,,,,,,,,,,,,,,,,,,,,,,,,,,,,None,,145.18778993010056,None,145.18778993010056,None,2022-04-13-14:27:14.323433,145.19924000022002,145.50432270020247,145.19924000022002,None,None,145.19924000022002,None,146.00440593000968,None,,,,22007,0001,2022_Apr_13_1424,localizer,2021.1.3,59.89211035362238,
block,scenes,scenes052.bmp,,,,,0,11,11,11,,,,,,,,,,,,,,,,,,,,,,,,,,,,,,,,,,,,,,,,,,None,,146.00440593000968,None,146.00440593000968,None,2022-04-13-14:27:15.140166,146.01505570020527,146.32073830021545,146.01505570020527,None,None,146.01505570020527,None,146.80922313018237,None,,,,22007,0001,2022_Apr_13_1424,localizer,2021.1.3,59.89211035362238,
block,scenes,scenes035.bmp,,,,,0,12,12,12,,,,,,,,,,,,,,,,,,,,,,,,,,,,,,,,,,,,,,,,,,None,,146.80922313018237,None,146.80922313018237,None,2022-04-13-14:27:15.943885,146.81309350021183,147.12063520005904,146.81309350021183,None,None,146.81309350021183,None,147.62097003015225,None,,,,22007,0001,2022_Apr_13_1424,localizer,2021.1.3,59.89211035362238,
block,scenes,scenes018.bmp,,,,,0,13,13,13,,,,,,,,,,,,,,,,,,,,,,,,,,,,,,,,,,,,,,,,,,None,,147.62097003015225,None,147.62097003015225,None,2022-04-13-14:27:16.756620,147.62950390018523,147.93713940004818,147.62950390018523,None,None,147.62950390018523,None,148.43720943022055,None,,,,22007,0001,2022_Apr_13_1424,localizer,2021.1.3,59.89211035362238,
block_end,scenes,scenes059.bmp,,,,,0,14,14,14,,,,,,,,,,,,,,,,,,,,,,,,,,,,,,,,,,,,,,,,,,None,,148.43720943022055,None,148.43720943022055,None,2022-04-13-14:27:17.571866,148.44640530017205,148.75417190021835,148.44640530017205,None,None,148.44640530017205,None,149.25723313011696,None,,,,22007,0001,2022_Apr_13_1424,localizer,2021.1.3,59.89211035362238,
block_start,scrambled,scrambled053.bmp,,,,,0,15,15,15,,,,,,,,,,,,,,,,,,,,,,,,,,,,,,,,,,,,,,,,,,t,1.7410468999296427,149.25646780012175,None,149.25646780012175,None,2022-04-13-14:27:20.156932,151.03220960008912,151.33731269999407,151.03220960008912,None,None,151.03220960008912,None,151.83942873014604,None,,,,22007,0001,2022_Apr_13_1424,localizer,2021.1.3,59.89211035362238,
block,scrambled,scrambled004.bmp,,,,,0,16,16,16,,,,,,,,,,,,,,,,,,,,,,,,,,,,,,,,,,,,,,,,,,None,,151.83942873014604,None,151.83942873014604,None,2022-04-13-14:27:20.976964,151.85439630015753,152.15393670019694,151.85439630015753,None,None,151.85439630015753,None,152.6542162302183,None,,,,22007,0001,2022_Apr_13_1424,localizer,2021.1.3,59.89211035362238,
block,scrambled,scrambled041.bmp,,,,,0,17,17,17,,,,,,,,,,,,,,,,,,,,,,,,,,,,,,,,,,,,,,,,,,None,,152.6542162302183,None,152.6542162302183,None,2022-04-13-14:27:21.789068,152.6636592000723,152.97062830021605,152.6636592000723,None,None,152.6636592000723,None,153.4710563300876,None,,,,22007,0001,2022_Apr_13_1424,localizer,2021.1.3,59.89211035362238,
block,scrambled,scrambled019.bmp,,,,,0,18,18,18,,,,,,,,,,,,,,,,,,,,,,,,,,,,,,,,,,,,,,,,,,None,,153.4710563300876,None,153.4710563300876,None,2022-04-13-14:27:22.606701,153.48178790020756,153.78740110015497,153.48178790020756,None,None,153.48178790020756,None,154.2875986300176,None,,,,22007,0001,2022_Apr_13_1424,localizer,2021.1.3,59.89211035362238,
block,scrambled,scrambled017.bmp,,,,,0,19,19,19,,,,,,,,,,,,,,,,,,,,,,,,,,,,,,,,,,,,,,,,,,None,,154.2875986300176,None,154.2875986300176,None,2022-04-13-14:27:23.422448,154.29851940018125,154.60362110007554,154.29851940018125,None,None,154.29851940018125,None,155.1042947301874,None,,,,22007,0001,2022_Apr_13_1424,localizer,2021.1.3,59.89211035362238,
block,scrambled,scrambled049.bmp,,,,,0,20,20,20,,,,,,,,,,,,,,,,,,,,,,,,,,,,,,,,,,,,,,,,,,None,,155.1042947301874,None,155.1042947301874,None,2022-04-13-14:27:24.238946,155.11422960017808,155.42083950014785,155.11422960017808,None,None,155.11422960017808,None,155.9208683300065,None,,,,22007,0001,2022_Apr_13_1424,localizer,2021.1.3,59.89211035362238,
block,scrambled,scrambled052.bmp,,,,,0,21,21,21,,,,,,,,,,,,,,,,,,,,,,,,,,,,,,,,,,,,,,,,,,None,,155.9208683300065,None,155.9208683300065,None,2022-04-13-14:27:25.055521,155.9304508001078,156.2374650000129,155.9304508001078,None,None,155.9304508001078,None,156.73783893005458,None,,,,22007,0001,2022_Apr_13_1424,localizer,2021.1.3,59.89211035362238,
block,scrambled,scrambled079.bmp,,,,,0,22,22,22,,,,,,,,,,,,,,,,,,,,,,,,,,,,,,,,,,,,,,,,,,None,,156.73783893005458,None,156.73783893005458,None,2022-04-13-14:27:25.873662,156.74963830015622,157.05460720020346,156.74963830015622,None,None,156.74963830015622,None,157.55371653016192,None,,,,22007,0001,2022_Apr_13_1424,localizer,2021.1.3,59.89211035362238,
block,scrambled,scrambled027.bmp,,,,,0,23,23,23,,,,,,,,,,,,,,,,,,,,,,,,,,,,,,,,,,,,,,,,,,None,,157.55371653016192,None,157.55371653016192,None,2022-04-13-14:27:26.688370,157.56230000010692,157.87081650015898,157.56230000010692,None,None,157.56230000010692,None,158.370669530076,None,,,,22007,0001,2022_Apr_13_1424,localizer,2021.1.3,59.89211035362238,
block,scrambled,scrambled071.bmp,,,,,0,24,24,24,,,,,,,,,,,,,,,,,,,,,,,,,,,,,,,,,,,,,,,,,,None,,158.370669530076,None,158.370669530076,None,2022-04-13-14:27:27.505319,158.37888880004175,158.68726220005192,158.37888880004175,None,None,158.37888880004175,None,159.18920463004616,None,,,,22007,0001,2022_Apr_13_1424,localizer,2021.1.3,59.89211035362238,
block,scrambled,scrambled042.bmp,,,,,0,25,25,25,,,,,,,,,,,,,,,,,,,,,,,,,,,,,,,,,,,,,,,,,,None,,159.18920463004616,None,159.18920463004616,None,2022-04-13-14:27:28.326827,159.20341489999555,159.50439230003394,159.20341489999555,None,None,159.20341489999555,None,160.0041878300952,None,,,,22007,0001,2022_Apr_13_1424,localizer,2021.1.3,59.89211035362238,
block,scrambled,scrambled043.bmp,,,,,0,26,26,26,,,,,,,,,,,,,,,,,,,,,,,,,,,,,,,,,,,,,,,,,,None,,160.0041878300952,None,160.0041878300952,None,2022-04-13-14:27:29.139025,160.0138458001893,160.32589890016243,160.0138458001893,None,None,160.0138458001893,None,160.82134713006673,None,,,,22007,0001,2022_Apr_13_1424,localizer,2021.1.3,59.89211035362238,
block,scrambled,scrambled076.bmp,,,,,0,27,27,27,,,,,,,,,,,,,,,,,,,,,,,,,,,,,,,,,,,,,,,,,,None,,160.82134713006673,None,160.82134713006673,None,2022-04-13-14:27:29.958177,160.8342100000009,161.13793740002438,160.8342100000009,None,None,160.8342100000009,None,161.63757463016083,None,,,,22007,0001,2022_Apr_13_1424,localizer,2021.1.3,59.89211035362238,
block,scrambled,scrambled064.bmp,,,,,0,28,28,28,,,,,,,,,,,,,,,,,,,,,,,,,,,,,,,,,,,,,,,,,,None,,161.63757463016083,None,161.63757463016083,None,2022-04-13-14:27:30.772987,161.64734580018558,161.9540099001024,161.64734580018558,None,None,161.64734580018558,None,162.45432313003113,None,,,,22007,0001,2022_Apr_13_1424,localizer,2021.1.3,59.89211035362238,
block_end,scrambled,scrambled050.bmp,,,,,0,29,29,29,,,,,,,,,,,,,,,,,,,,,,,,,,,,,,,,,,,,,,,,,,None,,162.45432313003113,None,162.45432313003113,None,2022-04-13-14:27:31.588976,162.46391000016592,162.77060070005246,162.46391000016592,None,None,162.46391000016592,None,163.27055723017548,None,,,,22007,0001,2022_Apr_13_1424,localizer,2021.1.3,59.89211035362238,
block_start,faces,faces024.bmp,,,,,0,30,30,30,,,,,,,,,,,,,,,,,,,,,,,,,,,,,,,,,,,,,,,,,,t,1.7272327998653054,163.27029570005834,None,163.27029570005834,None,2022-04-13-14:27:34.157724,165.03490860015154,165.3377561001107,165.03490860015154,None,None,165.03490860015154,None,165.83745583014098,None,,,,22007,0001,2022_Apr_13_1424,localizer,2021.1.3,59.89211035362238,
block,faces,faces068.bmp,,,,,0,31,31,31,,,,,,,,,,,,,,,,,,,,,,,,,,,,,,,,,,,,,,,,,,None,,165.83745583014098,None,165.83745583014098,None,2022-04-13-14:27:34.972111,165.84717370010912,166.1538641001098,165.84717370010912,None,None,165.84717370010912,None,166.654500030051,None,,,,22007,0001,2022_Apr_13_1424,localizer,2021.1.3,59.89211035362238,
block,faces,faces031.bmp,,,,,0,32,32,32,,,,,,,,,,,,,,,,,,,,,,,,,,,,,,,,,,,,,,,,,,None,,166.654500030051,None,166.654500030051,None,2022-04-13-14:27:35.789342,166.66366469999775,166.97092190012336,166.66366469999775,None,None,166.66366469999775,None,167.47140263004695,None,,,,22007,0001,2022_Apr_13_1424,localizer,2021.1.3,59.89211035362238,
block,faces,faces071.bmp,,,,,0,33,33,33,,,,,,,,,,,,,,,,,,,,,,,,,,,,,,,,,,,,,,,,,,None,,167.47140263004695,None,167.47140263004695,None,2022-04-13-14:27:36.607060,167.48336220020428,167.78680370002985,167.48336220020428,None,None,167.48336220020428,None,168.28801933007782,None,,,,22007,0001,2022_Apr_13_1424,localizer,2021.1.3,59.89211035362238,
block,faces,faces071.bmp,,,,,0,34,34,34,,,,,,,,,,,,,,,,,,,,,,,,,,,,,,,,,,,,,,,,,,None,,168.28801933007782,None,168.28801933007782,None,2022-04-13-14:27:37.423845,168.28852420020849,168.58797360002063,168.28852420020849,None,None,168.28852420020849,None,169.087838630029,None,,,,22007,0001,2022_Apr_13_1424,localizer,2021.1.3,59.89211035362238,
block,faces,faces011.bmp,,,,,0,35,35,35,,,,,,,,,,,,,,,,,,,,,,,,,,,,,,,,,,,,,,,,,,None,,169.087838630029,None,169.087838630029,None,2022-04-13-14:27:38.225678,169.09721420006827,169.40349040017463,169.09721420006827,169.09721420006827,None,169.09721420006827,169.09721420006827,169.90437523003203,None,,,,22007,0001,2022_Apr_13_1424,localizer,2021.1.3,59.89211035362238,
block,faces,faces027.bmp,,,,,0,36,36,36,,,,,,,,,,,,,,,,,,,,,,,,,,,,,,,,,,,,,,,,,,None,,169.90437523003203,None,169.90437523003203,None,2022-04-13-14:27:39.039003,169.91536510013975,170.22081420011818,169.91536510013975,None,None,169.91536510013975,None,170.7210038300371,None,,,,22007,0001,2022_Apr_13_1424,localizer,2021.1.3,59.89211035362238,
block,faces,faces087.bmp,,,,,0,37,37,37,,,,,,,,,,,,,,,,,,,,,,,,,,,,,,,,,,,,,,,,,,None,,170.7210038300371,None,170.7210038300371,None,2022-04-13-14:27:39.855958,170.7316843001172,171.03706400003284,170.7316843001172,None,None,170.7316843001172,None,171.53774423019496,None,,,,22007,0001,2022_Apr_13_1424,localizer,2021.1.3,59.89211035362238,
block,faces,faces086.bmp,,,,,0,38,38,38,,,,,,,,,,,,,,,,,,,,,,,,,,,,,,,,,,,,,,,,,,None,,171.53774423019496,None,171.53774423019496,None,2022-04-13-14:27:40.672571,171.54746420006268,171.8544585001655,171.54746420006268,None,None,171.54746420006268,None,172.35458573007492,None,,,,22007,0001,2022_Apr_13_1424,localizer,2021.1.3,59.89211035362238,
block,faces,faces025.bmp,,,,,0,39,39,39,,,,,,,,,,,,,,,,,,,,,,,,,,,,,,,,,,,,,,,,,,None,,172.35458573007492,None,172.35458573007492,None,2022-04-13-14:27:41.489234,172.3652900001034,172.67113850009628,172.3652900001034,None,None,172.3652900001034,None,173.17112043017988,None,,,,22007,0001,2022_Apr_13_1424,localizer,2021.1.3,59.89211035362238,
block,faces,faces076.bmp,,,,,0,40,40,40,,,,,,,,,,,,,,,,,,,,,,,,,,,,,,,,,,,,,,,,,,None,,173.17112043017988,None,173.17112043017988,None,2022-04-13-14:27:42.304937,173.17900490015745,173.48752360022627,173.17900490015745,None,None,173.17900490015745,None,173.98776513019112,None,,,,22007,0001,2022_Apr_13_1424,localizer,2021.1.3,59.89211035362238,
block,faces,faces049.bmp,,,,,0,41,41,41,,,,,,,,,,,,,,,,,,,,,,,,,,,,,,,,,,,,,,,,,,None,,173.98776513019112,None,173.98776513019112,None,2022-04-13-14:27:43.122416,173.99749750015326,174.3041631001979,173.99749750015326,None,None,173.99749750015326,None,174.80530683004764,None,,,,22007,0001,2022_Apr_13_1424,localizer,2021.1.3,59.89211035362238,
block,faces,faces039.bmp,,,,,0,42,42,42,,,,,,,,,,,,,,,,,,,,,,,,,,,,,,,,,,,,,,,,,,None,,174.80530683004764,None,174.80530683004764,None,2022-04-13-14:27:43.942121,174.8177281001117,175.12081110011786,174.8177281001117,None,None,174.8177281001117,None,175.62096953003203,None,,,,22007,0001,2022_Apr_13_1424,localizer,2021.1.3,59.89211035362238,
block,faces,faces089.bmp,,,,,0,43,43,43,,,,,,,,,,,,,,,,,,,,,,,,,,,,,,,,,,,,,,,,,,None,,175.62096953003203,None,175.62096953003203,None,2022-04-13-14:27:44.755620,175.6308379000984,175.93745360011235,175.6308379000984,None,None,175.6308379000984,None,176.43737343007234,None,,,,22007,0001,2022_Apr_13_1424,localizer,2021.1.3,59.89211035362238,
block_end,faces,faces019.bmp,,,,,0,44,44,44,,,,,,,,,,,,,,,,,,,,,,,,,,,,,,,,,,,,,,,,,,None,,176.43737343007234,None,176.43737343007234,None,2022-04-13-14:27:45.572315,176.44757170020603,176.7547603000421,176.44757170020603,None,None,176.44757170020603,None,177.25409043005203,None,,,,22007,0001,2022_Apr_13_1424,localizer,2021.1.3,59.89211035362238,
block_start,objects,objects029.bmp,,,,,0,45,45,45,,,,,,,,,,,,,,,,,,,,,,,,,,,,,,,,,,,,,,,,,,t,1.7435665999073535,177.2538949002046,None,177.2538949002046,None,2022-04-13-14:27:48.157419,179.03051530010998,179.3370441000443,179.03051530010998,None,None,179.03051530010998,None,179.82733553003055,None,,,,22007,0001,2022_Apr_13_1424,localizer,2021.1.3,59.89211035362238,
block,objects,objects028.bmp,,,,,0,46,46,46,,,,,,,,,,,,,,,,,,,,,,,,,,,,,,,,,,,,,,,,,,None,,179.82733553003055,None,179.82733553003055,None,2022-04-13-14:27:48.969621,179.8422986001242,180.15421750000678,179.8422986001242,None,None,179.8422986001242,None,180.63788013004233,None,,,,22007,0001,2022_Apr_13_1424,localizer,2021.1.3,59.89211035362238,
block,objects,objects018.bmp,,,,,0,47,47,47,,,,,,,,,,,,,,,,,,,,,,,,,,,,,,,,,,,,,,,,,,None,,180.63788013004233,None,180.63788013004233,None,2022-04-13-14:27:49.772734,180.64866740000434,180.95473500015214,180.64866740000434,None,None,180.64866740000434,None,181.45424493013417,None,,,,22007,0001,2022_Apr_13_1424,localizer,2021.1.3,59.89211035362238,
block,objects,objects069.bmp,,,,,0,48,48,48,,,,,,,,,,,,,,,,,,,,,,,,,,,,,,,,,,,,,,,,,,None,,181.45424493013417,None,181.45424493013417,None,2022-04-13-14:27:50.588897,181.45888000004925,181.77076040022075,181.45888000004925,None,None,181.45888000004925,None,182.2707129300805,None,,,,22007,0001,2022_Apr_13_1424,localizer,2021.1.3,59.89211035362238,
block,objects,objects007.bmp,,,,,0,49,49,49,,,,,,,,,,,,,,,,,,,,,,,,,,,,,,,,,,,,,,,,,,None,,182.2707129300805,None,182.2707129300805,None,2022-04-13-14:27:51.405369,182.2790953000076,182.58780970005319,182.2790953000076,None,None,182.2790953000076,None,183.08761673008559,None,,,,22007,0001,2022_Apr_13_1424,localizer,2021.1.3,59.89211035362238,
block,objects,objects052.bmp,,,,,0,50,50,50,,,,,,,,,,,,,,,,,,,,,,,,,,,,,,,,,,,,,,,,,,None,,183.08761673008559,None,183.08761673008559,None,2022-04-13-14:27:52.222485,183.09657310019247,183.4040108001791,183.09657310019247,None,None,183.09657310019247,None,183.90441863012967,None,,,,22007,0001,2022_Apr_13_1424,localizer,2021.1.3,59.89211035362238,
block,objects,objects023.bmp,,,,,0,51,51,51,,,,,,,,,,,,,,,,,,,,,,,,,,,,,,,,,,,,,,,,,,None,,183.90441863012967,None,183.90441863012967,None,2022-04-13-14:27:53.039069,183.91357920016162,184.22045330004767,183.91357920016162,None,None,183.91357920016162,None,184.70989533008543,None,,,,22007,0001,2022_Apr_13_1424,localizer,2021.1.3,59.89211035362238,
block,objects,objects048.bmp,,,,,0,52,52,52,,,,,,,,,,,,,,,,,,,,,,,,,,,,,,,,,,,,,,,,,,None,,184.70989533008543,None,184.70989533008543,None,2022-04-13-14:27:53.847519,184.7228400001768,185.03738330001943,184.7228400001768,None,None,184.7228400001768,None,185.52108633012978,None,,,,22007,0001,2022_Apr_13_1424,localizer,2021.1.3,59.89211035362238,
block,objects,objects043.bmp,,,,,0,53,53,53,,,,,,,,,,,,,,,,,,,,,,,,,,,,,,,,,,,,,,,,,,None,,185.52108633012978,None,185.52108633012978,None,2022-04-13-14:27:54.655737,185.5310984000098,185.83795400010422,185.5310984000098,None,None,185.5310984000098,None,186.33784533019644,None,,,,22007,0001,2022_Apr_13_1424,localizer,2021.1.3,59.89211035362238,
block,objects,objects050.bmp,,,,,0,54,54,54,,,,,,,,,,,,,,,,,,,,,,,,,,,,,,,,,,,,,,,,,,None,,186.33784533019644,None,186.33784533019644,None,2022-04-13-14:27:55.472431,186.34704540017992,186.6544118002057,186.34704540017992,None,None,186.34704540017992,None,187.15539353021887,None,,,,22007,0001,2022_Apr_13_1424,localizer,2021.1.3,59.89211035362238,
block,objects,objects075.bmp,,,,,0,55,55,55,,,,,,,,,,,,,,,,,,,,,,,,,,,,,,,,,,,,,,,,,,None,,187.15539353021887,None,187.15539353021887,None,2022-04-13-14:27:56.292121,187.16766900010407,187.47780280001462,187.16766900010407,None,None,187.16766900010407,None,187.97695103015286,None,,,,22007,0001,2022_Apr_13_1424,localizer,2021.1.3,59.89211035362238,
block,objects,objects066.bmp,,,,,0,56,56,56,,,,,,,,,,,,,,,,,,,,,,,,,,,,,,,,,,,,,,,,,,None,,187.97695103015286,None,187.97695103015286,None,2022-04-13-14:27:57.115658,187.98500870005228,188.2872393000871,187.98500870005228,None,None,187.98500870005228,None,188.78873283003924,None,,,,22007,0001,2022_Apr_13_1424,localizer,2021.1.3,59.89211035362238,
block,objects,objects074.bmp,,,,,0,57,57,57,,,,,,,,,,,,,,,,,,,,,,,,,,,,,,,,,,,,,,,,,,None,,188.78873283003924,None,188.78873283003924,None,2022-04-13-14:27:57.923392,188.79529960011132,189.10419240011834,188.79529960011132,None,None,188.79529960011132,None,189.60539363005665,None,,,,22007,0001,2022_Apr_13_1424,localizer,2021.1.3,59.89211035362238,
block,objects,objects026.bmp,,,,,0,58,58,58,,,,,,,,,,,,,,,,,,,,,,,,,,,,,,,,,,,,,,,,,,None,,189.60539363005665,None,189.60539363005665,None,2022-04-13-14:27:58.743079,189.61931780003943,189.9209267999977,189.61931780003943,None,None,189.61931780003943,None,190.4215477300575,None,,,,22007,0001,2022_Apr_13_1424,localizer,2021.1.3,59.89211035362238,
block_end,objects,objects010.bmp,,,,,0,59,59,59,,,,,,,,,,,,,,,,,,,,,,,,,,,,,,,,,,,,,,,,,,None,,190.4215477300575,None,190.4215477300575,None,2022-04-13-14:27:59.556331,190.42896910011768,190.73768930020742,190.42896910011768,None,None,190.42896910011768,None,191.23793753010688,None,,,,22007,0001,2022_Apr_13_1424,localizer,2021.1.3,59.89211035362238,
null_block,null_block,null_block.bmp,,,,,0,60,60,60,,,,,,,,,,,,,,,,,,,,,,,,,,,,,,,,,,,,,,,,,,t,1.759638300165534,191.23767960001715,None,191.23767960001715,None,2022-04-13-14:28:02.154162,193.03812436005103,None,193.03812436005103,None,None,193.03812436005103,None,193.0348704000935,None,,,,22007,0001,2022_Apr_13_1424,localizer,2021.1.3,59.89211035362238,
null_block,null_block,null_block.bmp,,,,,0,61,61,61,,,,,,,,,,,,,,,,,,,,,,,,,,,,,,,,,,,,,,,,,,t,1.9584810000378639,205.0387239002157,None,205.0387239002157,None,2022-04-13-14:28:16.158014,207.0214779300848,None,207.0214779300848,None,None,207.0214779300848,None,207.0258543000091,None,,,,22007,0001,2022_Apr_13_1424,localizer,2021.1.3,59.89211035362238,
block_start,scenes,scenes025.bmp,,,,,0,62,62,62,,,,,,,,,,,,,,,,,,,,,,,,,,,,,,,,,,,,,,,,,,t,1.9607709001284093,219.0365048001986,None,219.0365048001986,None,2022-04-13-14:28:30.156957,221.0376644001808,221.33793580019847,221.0376644001808,None,None,221.0376644001808,None,221.83863783006092,None,,,,22007,0001,2022_Apr_13_1424,localizer,2021.1.3,59.89211035362238,
block,scenes,scenes050.bmp,,,,,0,63,63,63,,,,,,,,,,,,,,,,,,,,,,,,,,,,,,,,,,,,,,,,,,None,,221.83863783006092,None,221.83863783006092,None,2022-04-13-14:28:30.974279,221.85124180000275,222.15431380015798,221.85124180000275,None,None,221.85124180000275,None,222.65459803009873,None,,,,22007,0001,2022_Apr_13_1424,localizer,2021.1.3,59.89211035362238,
block,scenes,scenes006.bmp,,,,,0,64,64,64,,,,,,,,,,,,,,,,,,,,,,,,,,,,,,,,,,,,,,,,,,None,,222.65459803009873,None,222.65459803009873,None,2022-04-13-14:28:31.789250,222.66457830020227,222.97133740014397,222.66457830020227,None,None,222.66457830020227,None,223.47254353000318,None,,,,22007,0001,2022_Apr_13_1424,localizer,2021.1.3,59.89211035362238,
block,scenes,scenes035.bmp,,,,,0,65,65,65,,,,,,,,,,,,,,,,,,,,,,,,,,,,,,,,,,,,,,,,,,None,,223.47254353000318,None,223.47254353000318,None,2022-04-13-14:28:32.609174,223.47567890002392,223.78763350006193,223.47567890002392,None,None,223.47567890002392,None,224.2909463300137,None,,,,22007,0001,2022_Apr_13_1424,localizer,2021.1.3,59.89211035362238,
block,scenes,scenes026.bmp,,,,,0,66,66,66,,,,,,,,,,,,,,,,,,,,,,,,,,,,,,,,,,,,,,,,,,None,,224.2909463300137,None,224.2909463300137,None,2022-04-13-14:28:33.429590,224.3039052002132,224.6042178000789,224.3039052002132,None,None,224.3039052002132,None,225.10483733012808,None,,,,22007,0001,2022_Apr_13_1424,localizer,2021.1.3,59.89211035362238,
block,scenes,scenes065.bmp,,,,,0,67,67,67,,,,,,,,,,,,,,,,,,,,,,,,,,,,,,,,,,,,,,,,,,None,,225.10483733012808,None,225.10483733012808,None,2022-04-13-14:28:34.239704,225.11461869999766,225.42049740022048,225.11461869999766,None,None,225.11461869999766,None,225.92141863012222,None,,,,22007,0001,2022_Apr_13_1424,localizer,2021.1.3,59.89211035362238,
block,scenes,scenes090.bmp,,,,,0,68,68,68,,,,,,,,,,,,,,,,,,,,,,,,,,,,,,,,,,,,,,,,,,None,,225.92141863012222,None,225.92141863012222,None,2022-04-13-14:28:35.056246,225.93120320001617,226.237323500216,225.93120320001617,None,None,225.93120320001617,None,226.7384407302132,None,,,,22007,0001,2022_Apr_13_1424,localizer,2021.1.3,59.89211035362238,
block,scenes,scenes047.bmp,,,,,0,69,69,69,,,,,,,,,,,,,,,,,,,,,,,,,,,,,,,,,,,,,,,,,,None,,226.7384407302132,None,226.7384407302132,None,2022-04-13-14:28:35.874760,226.75025480007753,227.05441890005022,226.75025480007753,None,None,226.75025480007753,None,227.5557985301828,None,,,,22007,0001,2022_Apr_13_1424,localizer,2021.1.3,59.89211035362238,
block,scenes,scenes005.bmp,,,,,0,70,70,70,,,,,,,,,,,,,,,,,,,,,,,,,,,,,,,,,,,,,,,,,,None,,227.5557985301828,None,227.5557985301828,None,2022-04-13-14:28:36.692021,227.56790290004574,227.87227470008656,227.56790290004574,None,None,227.56790290004574,None,228.37147473015358,None,,,,22007,0001,2022_Apr_13_1424,localizer,2021.1.3,59.89211035362238,
block,scenes,scenes027.bmp,,,,,0,71,71,71,,,,,,,,,,,,,,,,,,,,,,,,,,,,,,,,,,,,,,,,,,None,,228.37147473015358,None,228.37147473015358,None,2022-04-13-14:28:37.506117,228.3719093000982,228.67137550003827,228.3719093000982,None,None,228.3719093000982,None,229.1721205299953,None,,,,22007,0001,2022_Apr_13_1424,localizer,2021.1.3,59.89211035362238,
block,scenes,scenes015.bmp,,,,,0,72,72,72,,,,,,,,,,,,,,,,,,,,,,,,,,,,,,,,,,,,,,,,,,None,,229.1721205299953,None,229.1721205299953,None,2022-04-13-14:28:38.308740,229.17246310017072,229.48759630019777,229.17246310017072,229.17246310017072,None,229.17246310017072,229.17246310017072,229.98781193008182,None,,,,22007,0001,2022_Apr_13_1424,localizer,2021.1.3,59.89211035362238,
block,scenes,scenes078.bmp,,,,,0,73,73,73,,,,,,,,,,,,,,,,,,,,,,,,,,,,,,,,,,,,,,,,,,None,,229.98781193008182,None,229.98781193008182,None,2022-04-13-14:28:39.122464,229.9980252000969,230.30427470011637,229.9980252000969,None,None,229.9980252000969,None,230.80463443004993,None,,,,22007,0001,2022_Apr_13_1424,localizer,2021.1.3,59.89211035362238,
block,scenes,scenes067.bmp,,,,,0,74,74,74,,,,,,,,,,,,,,,,,,,,,,,,,,,,,,,,,,,,,,,,,,None,,230.80463443004993,None,230.80463443004993,None,2022-04-13-14:28:39.939286,230.81439230008982,231.12129660020582,230.81439230008982,None,None,230.81439230008982,None,231.62181253016462,None,,,,22007,0001,2022_Apr_13_1424,localizer,2021.1.3,59.89211035362238,
block,scenes,scenes071.bmp,,,,,0,75,75,75,,,,,,,,,,,,,,,,,,,,,,,,,,,,,,,,,,,,,,,,,,None,,231.62181253016462,None,231.62181253016462,None,2022-04-13-14:28:40.757752,231.63232420012355,231.9377445001155,231.63232420012355,None,None,231.63232420012355,None,232.43794113008772,None,,,,22007,0001,2022_Apr_13_1424,localizer,2021.1.3,59.89211035362238,
block_end,scenes,scenes056.bmp,,,,,0,76,76,76,,,,,,,,,,,,,,,,,,,,,,,,,,,,,,,,,,,,,,,,,,None,,232.43794113008772,None,232.43794113008772,None,2022-04-13-14:28:41.572811,232.44928130018525,232.75447560008615,232.44928130018525,None,None,232.44928130018525,None,233.25495633000975,None,,,,22007,0001,2022_Apr_13_1424,localizer,2021.1.3,59.89211035362238,
block_start,faces,faces082.bmp,,,,,0,77,77,77,,,,,,,,,,,,,,,,,,,,,,,,,,,,,,,,,,,,,,,,,,t,1.7425224999897182,233.25478570000269,None,233.25478570000269,None,2022-04-13-14:28:44.154305,235.0309222000651,235.33746780012734,235.0309222000651,None,None,235.0309222000651,None,235.83897073015106,None,,,,22007,0001,2022_Apr_13_1424,localizer,2021.1.3,59.89211035362238,
block,faces,faces060.bmp,,,,,0,78,78,78,,,,,,,,,,,,,,,,,,,,,,,,,,,,,,,,,,,,,,,,,,None,,235.83897073015106,None,235.83897073015106,None,2022-04-13-14:28:44.975783,235.85159680014476,236.15430020005442,235.85159680014476,None,None,235.85159680014476,None,236.65669023019728,None,,,,22007,0001,2022_Apr_13_1424,localizer,2021.1.3,59.89211035362238,
block,faces,faces026.bmp,,,,,0,79,79,79,,,,,,,,,,,,,,,,,,,,,,,,,,,,,,,,,,,,,,,,,,None,,236.65669023019728,None,236.65669023019728,None,2022-04-13-14:28:45.795209,236.70006480021402,237.00997270015068,236.70006480021402,None,None,236.70006480021402,None,237.4718985302141,None,,,,22007,0001,2022_Apr_13_1424,localizer,2021.1.3,59.89211035362238,
block,faces,faces027.bmp,,,,,0,80,80,80,,,,,,,,,,,,,,,,,,,,,,,,,,,,,,,,,,,,,,,,,,None,,237.4718985302141,None,237.4718985302141,None,2022-04-13-14:28:46.607521,237.47262200014666,237.77157960017212,237.47262200014666,None,None,237.47262200014666,None,238.28748163005804,None,,,,22007,0001,2022_Apr_13_1424,localizer,2021.1.3,59.89211035362238,
block,faces,faces073.bmp,,,,,0,81,81,81,,,,,,,,,,,,,,,,,,,,,,,,,,,,,,,,,,,,,,,,,,None,,238.28748163005804,None,238.28748163005804,None,2022-04-13-14:28:47.422139,238.2971881001722,238.60513720009476,238.2971881001722,None,None,238.2971881001722,None,239.10496753018816,None,,,,22007,0001,2022_Apr_13_1424,localizer,2021.1.3,59.89211035362238,
block,faces,faces031.bmp,,,,,0,82,82,82,,,,,,,,,,,,,,,,,,,,,,,,,,,,,,,,,,,,,,,,,,None,,239.10496753018816,None,239.10496753018816,None,2022-04-13-14:28:48.239594,239.10551030002534,239.42081750021316,239.10551030002534,None,None,239.10551030002534,None,239.9057748302119,None,,,,22007,0001,2022_Apr_13_1424,localizer,2021.1.3,59.89211035362238,
block,faces,faces034.bmp,,,,,0,83,83,83,,,,,,,,,,,,,,,,,,,,,,,,,,,,,,,,,,,,,,,,,,None,,239.9057748302119,None,239.9057748302119,None,2022-04-13-14:28:49.044417,239.9156638002023,240.22109090001322,239.9156638002023,239.9156638002023,None,239.9156638002023,239.9156638002023,240.72142702999992,None,,,,22007,0001,2022_Apr_13_1424,localizer,2021.1.3,59.89211035362238,
block,faces,faces066.bmp,,,,,0,84,84,84,,,,,,,,,,,,,,,,,,,,,,,,,,,,,,,,,,,,,,,,,,None,,240.72142702999992,None,240.72142702999992,None,2022-04-13-14:28:49.856287,240.73136830003932,241.03861070005223,240.73136830003932,None,None,240.73136830003932,None,241.52773173020688,None,,,,22007,0001,2022_Apr_13_1424,localizer,2021.1.3,59.89211035362238,
block,faces,faces032.bmp,,,,,0,85,85,85,,,,,,,,,,,,,,,,,,,,,,,,,,,,,,,,,,,,,,,,,,None,,241.52773173020688,None,241.52773173020688,None,2022-04-13-14:28:50.668263,241.5442176000215,241.85503960005008,241.5442176000215,None,None,241.5442176000215,None,242.33730923018885,None,,,,22007,0001,2022_Apr_13_1424,localizer,2021.1.3,59.89211035362238,
block,faces,faces039.bmp,,,,,0,86,86,86,,,,,,,,,,,,,,,,,,,,,,,,,,,,,,,,,,,,,,,,,,None,,242.33730923018885,None,242.33730923018885,None,2022-04-13-14:28:51.471827,242.3397196000442,242.65518130012788,242.3397196000442,None,None,242.3397196000442,None,243.1545903301565,None,,,,22007,0001,2022_Apr_13_1424,localizer,2021.1.3,59.89211035362238,
block,faces,faces011.bmp,,,,,0,87,87,87,,,,,,,,,,,,,,,,,,,,,,,,,,,,,,,,,,,,,,,,,,None,,243.1545903301565,None,243.1545903301565,None,2022-04-13-14:28:52.289245,243.15528260008432,243.4711425001733,243.15528260008432,None,None,243.15528260008432,None,243.95470383001958,None,,,,22007,0001,2022_Apr_13_1424,localizer,2021.1.3,59.89211035362238,
block,faces,faces020.bmp,,,,,0,88,88,88,,,,,,,,,,,,,,,,,,,,,,,,,,,,,,,,,,,,,,,,,,None,,243.95470383001958,None,243.95470383001958,None,2022-04-13-14:28:53.091543,243.96371640008874,244.27087970008142,243.96371640008874,243.96371640008874,None,243.96371640008874,243.96371640008874,244.77133213013877,None,,,,22007,0001,2022_Apr_13_1424,localizer,2021.1.3,59.89211035362238,
block,faces,faces006.bmp,,,,,0,89,89,89,,,,,,,,,,,,,,,,,,,,,,,,,,,,,,,,,,,,,,,,,,None,,244.77133213013877,None,244.77133213013877,None,2022-04-13-14:28:53.905986,244.78138810000382,245.0883589000441,244.78138810000382,None,None,244.78138810000382,None,245.5877080301987,None,,,,22007,0001,2022_Apr_13_1424,localizer,2021.1.3,59.89211035362238,
block,faces,faces017.bmp,,,,,0,90,90,90,,,,,,,,,,,,,,,,,,,,,,,,,,,,,,,,,,,,,,,,,,None,,245.5877080301987,None,245.5877080301987,None,2022-04-13-14:28:54.722367,245.5958279001061,245.90504430001602,245.5958279001061,None,None,245.5958279001061,None,246.4058200300904,None,,,,22007,0001,2022_Apr_13_1424,localizer,2021.1.3,59.89211035362238,
block_end,faces,faces087.bmp,,,,,0,91,91,91,,,,,,,,,,,,,,,,,,,,,,,,,,,,,,,,,,,,,,,,,,None,,246.4058200300904,None,246.4058200300904,None,2022-04-13-14:28:55.542643,246.4077825001441,246.72168870014139,246.4077825001441,None,None,246.4077825001441,None,247.21067013016437,None,,,,22007,0001,2022_Apr_13_1424,localizer,2021.1.3,59.89211035362238,
block_start,objects,objects041.bmp,,,,,0,92,92,92,,,,,,,,,,,,,,,,,,,,,,,,,,,,,,,,,,,,,,,,,,t,1.788189799990505,247.20911470009014,None,247.20911470009014,None,2022-04-13-14:28:58.158004,249.0350220000837,249.3377636000514,249.0350220000837,None,None,249.0350220000837,None,249.83910843015184,None,,,,22007,0001,2022_Apr_13_1424,localizer,2021.1.3,59.89211035362238,
block,objects,objects059.bmp,,,,,0,93,93,93,,,,,,,,,,,,,,,,,,,,,,,,,,,,,,,,,,,,,,,,,,None,,249.83910843015184,None,249.83910843015184,None,2022-04-13-14:28:58.976719,249.85394560010172,250.15450350008905,249.85394560010172,None,None,249.85394560010172,None,250.65519923001995,None,,,,22007,0001,2022_Apr_13_1424,localizer,2021.1.3,59.89211035362238,
block,objects,objects069.bmp,,,,,0,94,94,94,,,,,,,,,,,,,,,,,,,,,,,,,,,,,,,,,,,,,,,,,,None,,250.65519923001995,None,250.65519923001995,None,2022-04-13-14:28:59.790823,250.65599360014312,250.9710807001684,250.65599360014312,None,None,250.65599360014312,None,251.45586203022395,None,,,,22007,0001,2022_Apr_13_1424,localizer,2021.1.3,59.89211035362238,
block,objects,objects008.bmp,,,,,0,95,95,95,,,,,,,,,,,,,,,,,,,,,,,,,,,,,,,,,,,,,,,,,,None,,251.45586203022395,None,251.45586203022395,None,2022-04-13-14:29:00.594658,251.4659840001259,251.77184689999558,251.4659840001259,251.4659840001259,None,251.4659840001259,251.4659840001259,252.27104113001843,None,,,,22007,0001,2022_Apr_13_1424,localizer,2021.1.3,59.89211035362238,
block,objects,objects045.bmp,,,,,0,96,96,96,,,,,,,,,,,,,,,,,,,,,,,,,,,,,,,,,,,,,,,,,,None,,252.27104113001843,None,252.27104113001843,None,2022-04-13-14:29:01.405355,252.27793670003302,252.58764610020444,252.27793670003302,None,None,252.27793670003302,None,253.088706930005,None,,,,22007,0001,2022_Apr_13_1424,localizer,2021.1.3,59.89211035362238,
block,objects,objects052.bmp,,,,,0,97,97,97,,,,,,,,,,,,,,,,,,,,,,,,,,,,,,,,,,,,,,,,,,None,,253.088706930005,None,253.088706930005,None,2022-04-13-14:29:02.224534,253.0891108000651,253.38882460002787,253.0891108000651,None,None,253.0891108000651,None,253.88855283015874,None,,,,22007,0001,2022_Apr_13_1424,localizer,2021.1.3,59.89211035362238,
block,objects,objects020.bmp,,,,,0,98,98,98,,,,,,,,,,,,,,,,,,,,,,,,,,,,,,,,,,,,,,,,,,None,,253.88855283015874,None,253.88855283015874,None,2022-04-13-14:29:03.026194,253.90119930007495,254.2096970002167,253.90119930007495,253.90119930007495,None,253.90119930007495,253.90119930007495,254.70493263013196,None,,,,22007,0001,2022_Apr_13_1424,localizer,2021.1.3,59.89211035362238,
block,objects,objects026.bmp,,,,,0,99,99,99,,,,,,,,,,,,,,,,,,,,,,,,,,,,,,,,,,,,,,,,,,None,,254.70493263013196,None,254.70493263013196,None,2022-04-13-14:29:03.839784,254.70538930012845,255.00484900013544,254.70538930012845,None,None,254.70538930012845,None,255.5046214301372,None,,,,22007,0001,2022_Apr_13_1424,localizer,2021.1.3,59.89211035362238,
block,objects,objects064.bmp,,,,,0,100,100,100,,,,,,,,,,,,,,,,,,,,,,,,,,,,,,,,,,,,,,,,,,None,,255.5046214301372,None,255.5046214301372,None,2022-04-13-14:29:04.640752,255.5143935000524,255.82087430008687,255.5143935000524,255.5143935000524,None,255.5143935000524,255.5143935000524,256.3216391301947,None,,,,22007,0001,2022_Apr_13_1424,localizer,2021.1.3,59.89211035362238,
block,objects,objects028.bmp,,,,,0,101,101,101,,,,,,,,,,,,,,,,,,,,,,,,,,,,,,,,,,,,,,,,,,None,,256.3216391301947,None,256.3216391301947,None,2022-04-13-14:29:05.456470,256.32197550009005,256.62149160006084,256.32197550009005,None,None,256.32197550009005,None,257.1222894301871,None,,,,22007,0001,2022_Apr_13_1424,localizer,2021.1.3,59.89211035362238,
block,objects,objects024.bmp,,,,,0,102,102,102,,,,,,,,,,,,,,,,,,,,,,,,,,,,,,,,,,,,,,,,,,None,,257.1222894301871,None,257.1222894301871,None,2022-04-13-14:29:06.259074,257.13185490015894,257.4376488002017,257.13185490015894,257.13185490015894,None,257.13185490015894,257.13185490015894,257.93804873020855,None,,,,22007,0001,2022_Apr_13_1424,localizer,2021.1.3,59.89211035362238,
block,objects,objects043.bmp,,,,,0,103,103,103,,,,,,,,,,,,,,,,,,,,,,,,,,,,,,,,,,,,,,,,,,None,,257.93804873020855,None,257.93804873020855,None,2022-04-13-14:29:07.072834,257.9386325001251,258.23845740011893,257.9386325001251,None,None,257.9386325001251,None,258.738719630125,None,,,,22007,0001,2022_Apr_13_1424,localizer,2021.1.3,59.89211035362238,
block,objects,objects065.bmp,,,,,0,104,104,104,,,,,,,,,,,,,,,,,,,,,,,,,,,,,,,,,,,,,,,,,,None,,258.738719630125,None,258.738719630125,None,2022-04-13-14:29:07.876356,258.75142520014197,259.0548043001909,258.75142520014197,258.75142520014197,None,258.75142520014197,258.75142520014197,259.5545162300812,None,,,,22007,0001,2022_Apr_13_1424,localizer,2021.1.3,59.89211035362238,
block,objects,objects085.bmp,,,,,0,105,105,105,,,,,,,,,,,,,,,,,,,,,,,,,,,,,,,,,,,,,,,,,,None,,259.5545162300812,None,259.5545162300812,None,2022-04-13-14:29:08.689391,259.5636674000416,259.8707445000764,259.5636674000416,None,None,259.5636674000416,None,260.37250113005285,None,,,,22007,0001,2022_Apr_13_1424,localizer,2021.1.3,59.89211035362238,
block_end,objects,objects074.bmp,,,,,0,106,106,106,,,,,,,,,,,,,,,,,,,,,,,,,,,,,,,,,,,,,,,,,,None,,260.37250113005285,None,260.37250113005285,None,2022-04-13-14:29:09.506184,260.37176950019784,260.67079500015825,260.37176950019784,None,None,260.37176950019784,None,261.1725968300132,None,,,,22007,0001,2022_Apr_13_1424,localizer,2021.1.3,59.89211035362238,
block_start,scrambled,scrambled036.bmp,,,,,0,107,107,107,,,,,,,,,,,,,,,,,,,,,,,,,,,,,,,,,,,,,,,,,,t,1.8235801998525858,261.17277860012837,None,261.17277860012837,None,2022-04-13-14:29:12.157944,263.03399370005354,263.33815370011143,263.03399370005354,None,None,263.03399370005354,None,263.83765323001427,None,,,,22007,0001,2022_Apr_13_1424,localizer,2021.1.3,59.89211035362238,
block,scrambled,scrambled049.bmp,,,,,0,108,108,108,,,,,,,,,,,,,,,,,,,,,,,,,,,,,,,,,,,,,,,,,,None,,263.83765323001427,None,263.83765323001427,None,2022-04-13-14:29:12.972346,263.8388214001898,264.1378727001138,263.8388214001898,None,None,263.8388214001898,None,264.63813293010463,None,,,,22007,0001,2022_Apr_13_1424,localizer,2021.1.3,59.89211035362238,
block,scrambled,scrambled043.bmp,,,,,0,109,109,109,,,,,,,,,,,,,,,,,,,,,,,,,,,,,,,,,,,,,,,,,,None,,264.63813293010463,None,264.63813293010463,None,2022-04-13-14:29:13.774785,264.639244500082,264.9383825000841,264.639244500082,264.639244500082,None,264.639244500082,264.639244500082,265.4391696300125,None,,,,22007,0001,2022_Apr_13_1424,localizer,2021.1.3,59.89211035362238,
block,scrambled,scrambled043.bmp,,,,,0,110,110,110,,,,,,,,,,,,,,,,,,,,,,,,,,,,,,,,,,,,,,,,,,None,,265.4391696300125,None,265.4391696300125,None,2022-04-13-14:29:14.577880,265.4429869002197,265.75525410007685,265.4429869002197,265.4429869002197,y,265.4429869002197,265.4429869002197,266.24420313008596,None,0.4851988998707384,,,22007,0001,2022_Apr_13_1424,localizer,2021.1.3,59.89211035362238,
block,scrambled,scrambled020.bmp,,,,,0,111,111,111,,,,,,,,,,,,,,,,,,,,,,,,,,,,,,,,,,,,,,,,,,None,,266.24420313008596,None,266.24420313008596,None,2022-04-13-14:29:15.387725,266.2607082000468,266.57135890005156,266.2607082000468,266.2607082000468,y,266.2607082000468,266.2607082000468,267.05579273013865,None,0.268293600063771,,,22007,0001,2022_Apr_13_1424,localizer,2021.1.3,59.89211035362238,
block,scrambled,scrambled013.bmp,,,,,0,112,112,112,,,,,,,,,,,,,,,,,,,,,,,,,,,,,,,,,,,,,,,,,,None,,267.05579273013865,None,267.05579273013865,None,2022-04-13-14:29:16.192408,267.0678497001063,267.37093590013683,267.0678497001063,None,None,267.0678497001063,None,267.87156323001255,None,,,,22007,0001,2022_Apr_13_1424,localizer,2021.1.3,59.89211035362238,
block,scrambled,scrambled007.bmp,,,,,0,113,113,113,,,,,,,,,,,,,,,,,,,,,,,,,,,,,,,,,,,,,,,,,,None,,267.87156323001255,None,267.87156323001255,None,2022-04-13-14:29:17.006257,267.88099070009775,268.1878095001448,267.88099070009775,None,None,267.88099070009775,None,268.6917951300973,None,,,,22007,0001,2022_Apr_13_1424,localizer,2021.1.3,59.89211035362238,
block,scrambled,scrambled047.bmp,,,,,0,114,114,114,,,,,,,,,,,,,,,,,,,,,,,,,,,,,,,,,,,,,,,,,,None,,268.6917951300973,None,268.6917951300973,None,2022-04-13-14:29:17.835502,268.711813100148,269.022265000036,268.711813100148,None,None,268.711813100148,None,269.5059223301476,None,,,,22007,0001,2022_Apr_13_1424,localizer,2021.1.3,59.89211035362238,
block,scrambled,scrambled072.bmp,,,,,0,115,115,115,,,,,,,,,,,,,,,,,,,,,,,,,,,,,,,,,,,,,,,,,,None,,269.5059223301476,None,269.5059223301476,None,2022-04-13-14:29:18.641726,269.5181090000551,269.82116720010526,269.5181090000551,None,None,269.5181090000551,None,270.32162493008656,None,,,,22007,0001,2022_Apr_13_1424,localizer,2021.1.3,59.89211035362238,
block,scrambled,scrambled071.bmp,,,,,0,116,116,116,,,,,,,,,,,,,,,,,,,,,,,,,,,,,,,,,,,,,,,,,,None,,270.32162493008656,None,270.32162493008656,None,2022-04-13-14:29:19.456468,270.3220980002079,270.62138390005566,270.3220980002079,None,None,270.3220980002079,None,271.1217561302008,None,,,,22007,0001,2022_Apr_13_1424,localizer,2021.1.3,59.89211035362238,
block,scrambled,scrambled069.bmp,,,,,0,117,117,117,,,,,,,,,,,,,,,,,,,,,,,,,,,,,,,,,,,,,,,,,,None,,271.1217561302008,None,271.1217561302008,None,2022-04-13-14:29:20.258600,271.1283304002136,271.4377003000118,271.1283304002136,271.1283304002136,None,271.1283304002136,271.1283304002136,271.9380094300257,None,,,,22007,0001,2022_Apr_13_1424,localizer,2021.1.3,59.89211035362238,
block,scrambled,scrambled039.bmp,,,,,0,118,118,118,,,,,,,,,,,,,,,,,,,,,,,,,,,,,,,,,,,,,,,,,,None,,271.9380094300257,None,271.9380094300257,None,2022-04-13-14:29:21.072888,271.9468952000607,272.2545598000288,271.9468952000607,None,None,271.9468952000607,None,272.7549635300646,None,,,,22007,0001,2022_Apr_13_1424,localizer,2021.1.3,59.89211035362238,
block,scrambled,scrambled001.bmp,,,,,0,119,119,119,,,,,,,,,,,,,,,,,,,,,,,,,,,,,,,,,,,,,,,,,,None,,272.7549635300646,None,272.7549635300646,None,2022-04-13-14:29:21.889612,272.764028100064,273.07111050002277,272.764028100064,None,None,272.764028100064,None,273.57174573007507,None,,,,22007,0001,2022_Apr_13_1424,localizer,2021.1.3,59.89211035362238,
block,scrambled,scrambled068.bmp,,,,,0,120,120,120,,,,,,,,,,,,,,,,,,,,,,,,,,,,,,,,,,,,,,,,,,None,,273.57174573007507,None,273.57174573007507,None,2022-04-13-14:29:22.706396,273.58253310015425,273.88830200000666,273.58253310015425,None,None,273.58253310015425,None,274.3880592301255,None,,,,22007,0001,2022_Apr_13_1424,localizer,2021.1.3,59.89211035362238,
block_end,scrambled,scrambled078.bmp,,,,,0,121,121,121,,,,,,,,,,,,,,,,,,,,,,,,,,,,,,,,,,,,,,,,,,None,,274.3880592301255,None,274.3880592301255,None,2022-04-13-14:29:23.522712,274.3966609002091,274.7053211000748,274.3966609002091,None,None,274.3966609002091,None,275.19405193005224,None,,,,22007,0001,2022_Apr_13_1424,localizer,2021.1.3,59.89211035362238,
null_block,null_block,null_block.bmp,,,,,0,122,122,122,,,,,,,,,,,,,,,,,,,,,,,,,,,,,,,,,,,,,,,,,,t,1.8029690999537706,275.1935191000812,None,275.1935191000812,None,2022-04-13-14:29:26.155396,277.02155023005326,None,277.02155023005326,None,None,277.02155023005326,None,277.02426120010205,None,,,,22007,0001,2022_Apr_13_1424,localizer,2021.1.3,59.89211035362238,
block_start,scrambled,scrambled020.bmp,,,,,0,123,123,123,,,,,,,,,,,,,,,,,,,,,,,,,,,,,,,,,,,,,,,,,,t,1.9744035999756306,289.02186690014787,None,289.02186690014787,None,2022-04-13-14:29:40.160383,291.0253736001905,291.3391240001656,291.0253736001905,None,None,291.0253736001905,None,291.8384198300308,None,,,,22007,0001,2022_Apr_13_1424,localizer,2021.1.3,59.89211035362238,
block,scrambled,scrambled076.bmp,,,,,0,124,124,124,,,,,,,,,,,,,,,,,,,,,,,,,,,,,,,,,,,,,,,,,,None,,291.8384198300308,None,291.8384198300308,None,2022-04-13-14:29:40.973071,291.83896710001864,292.1381995000411,291.83896710001864,None,None,291.83896710001864,None,292.63797973010224,None,,,,22007,0001,2022_Apr_13_1424,localizer,2021.1.3,59.89211035362238,
block,scrambled,scrambled013.bmp,,,,,0,125,125,125,,,,,,,,,,,,,,,,,,,,,,,,,,,,,,,,,,,,,,,,,,None,,292.63797973010224,None,292.63797973010224,None,2022-04-13-14:29:41.773636,292.6388378001284,292.9380183001049,292.6388378001284,292.6388378001284,None,292.6388378001284,292.6388378001284,293.43799853005913,None,,,,22007,0001,2022_Apr_13_1424,localizer,2021.1.3,59.89211035362238,
block,scrambled,scrambled058.bmp,,,,,0,126,126,126,,,,,,,,,,,,,,,,,,,,,,,,,,,,,,,,,,,,,,,,,,None,,293.43799853005913,None,293.43799853005913,None,2022-04-13-14:29:42.573652,293.44705570000224,293.75537570007145,293.44705570000224,293.44705570000224,None,293.44705570000224,293.44705570000224,294.2549050302012,None,,,,22007,0001,2022_Apr_13_1424,localizer,2021.1.3,59.89211035362238,
block,scrambled,scrambled044.bmp,,,,,0,127,127,127,,,,,,,,,,,,,,,,,,,,,,,,,,,,,,,,,,,,,,,,,,None,,294.2549050302012,None,294.2549050302012,None,2022-04-13-14:29:43.389560,294.26380160008557,294.5721112000756,294.26380160008557,None,None,294.26380160008557,None,295.07118633000647,None,,,,22007,0001,2022_Apr_13_1424,localizer,2021.1.3,59.89211035362238,
block,scrambled,scrambled014.bmp,,,,,0,128,128,128,,,,,,,,,,,,,,,,,,,,,,,,,,,,,,,,,,,,,,,,,,None,,295.07118633000647,None,295.07118633000647,None,2022-04-13-14:29:44.205114,295.0790477001574,295.38810670003295,295.0790477001574,None,None,295.0790477001574,None,295.88844623004553,None,,,,22007,0001,2022_Apr_13_1424,localizer,2021.1.3,59.89211035362238,
block,scrambled,scrambled029.bmp,,,,,0,129,129,129,,,,,,,,,,,,,,,,,,,,,,,,,,,,,,,,,,,,,,,,,,None,,295.88844623004553,None,295.88844623004553,None,2022-04-13-14:29:45.024276,295.89828320010565,296.20453010010533,295.89828320010565,None,None,295.89828320010565,None,296.70507473016625,None,,,,22007,0001,2022_Apr_13_1424,localizer,2021.1.3,59.89211035362238,
block,scrambled,scrambled069.bmp,,,,,0,130,130,130,,,,,,,,,,,,,,,,,,,,,,,,,,,,,,,,,,,,,,,,,,None,,296.70507473016625,None,296.70507473016625,None,2022-04-13-14:29:45.840487,296.7058072001673,297.0048556001857,296.7058072001673,None,None,296.7058072001673,None,297.5070770302089,None,,,,22007,0001,2022_Apr_13_1424,localizer,2021.1.3,59.89211035362238,
block,scrambled,scrambled070.bmp,,,,,0,131,131,131,,,,,,,,,,,,,,,,,,,,,,,,,,,,,,,,,,,,,,,,,,None,,297.5070770302089,None,297.5070770302089,None,2022-04-13-14:29:46.647689,297.52541740005836,297.8378221001476,297.52541740005836,297.52541740005836,None,297.52541740005836,297.52541740005836,298.3219536301447,None,,,,22007,0001,2022_Apr_13_1424,localizer,2021.1.3,59.89211035362238,
block,scrambled,scrambled031.bmp,,,,,0,132,132,132,,,,,,,,,,,,,,,,,,,,,,,,,,,,,,,,,,,,,,,,,,None,,298.3219536301447,None,298.3219536301447,None,2022-04-13-14:29:47.456763,298.32789390021935,298.638688800158,298.32789390021935,None,None,298.32789390021935,None,299.1388453301741,None,,,,22007,0001,2022_Apr_13_1424,localizer,2021.1.3,59.89211035362238,
block,scrambled,scrambled019.bmp,,,,,0,133,133,133,,,,,,,,,,,,,,,,,,,,,,,,,,,,,,,,,,,,,,,,,,None,,299.1388453301741,None,299.1388453301741,None,2022-04-13-14:29:48.274672,299.1390833000187,299.4546906000469,299.1390833000187,None,None,299.1390833000187,None,299.93843143021223,None,,,,22007,0001,2022_Apr_13_1424,localizer,2021.1.3,59.89211035362238,
block,scrambled,scrambled080.bmp,,,,,0,134,134,134,,,,,,,,,,,,,,,,,,,,,,,,,,,,,,,,,,,,,,,,,,None,,299.93843143021223,None,299.93843143021223,None,2022-04-13-14:29:49.076258,299.950957500143,300.2552325001452,299.950957500143,299.950957500143,None,299.950957500143,299.950957500143,300.75526473002975,None,,,,22007,0001,2022_Apr_13_1424,localizer,2021.1.3,59.89211035362238,
block,scrambled,scrambled026.bmp,,,,,0,135,135,135,,,,,,,,,,,,,,,,,,,,,,,,,,,,,,,,,,,,,,,,,,None,,300.75526473002975,None,300.75526473002975,None,2022-04-13-14:29:49.891117,300.7661247001961,301.07191800000146,300.7661247001961,None,None,300.7661247001961,None,301.57314863016364,None,,,,22007,0001,2022_Apr_13_1424,localizer,2021.1.3,59.89211035362238,
block,scrambled,scrambled085.bmp,,,,,0,136,136,136,,,,,,,,,,,,,,,,,,,,,,,,,,,,,,,,,,,,,,,,,,None,,301.57314863016364,None,301.57314863016364,None,2022-04-13-14:29:50.710790,301.58664110000245,301.88826720020734,301.58664110000245,None,None,301.58664110000245,None,302.3894077300327,None,,,,22007,0001,2022_Apr_13_1424,localizer,2021.1.3,59.89211035362238,
block_end,scrambled,scrambled033.bmp,,,,,0,137,137,137,,,,,,,,,,,,,,,,,,,,,,,,,,,,,,,,,,,,,,,,,,None,,302.3894077300327,None,302.3894077300327,None,2022-04-13-14:29:51.525232,302.4007019000128,302.70439140009694,302.4007019000128,None,None,302.4007019000128,None,303.2046989300987,None,,,,22007,0001,2022_Apr_13_1424,localizer,2021.1.3,59.89211035362238,
block_start,faces,faces081.bmp,,,,,0,138,138,138,,,,,,,,,,,,,,,,,,,,,,,,,,,,,,,,,,,,,,,,,,t,1.7920554000884295,303.20436289999634,None,303.20436289999634,None,2022-04-13-14:29:54.155197,305.03080550022423,305.3383708000183,305.03080550022423,None,None,305.03080550022423,None,305.83956843016205,None,,,,22007,0001,2022_Apr_13_1424,localizer,2021.1.3,59.89211035362238,
block,faces,faces006.bmp,,,,,0,139,139,139,,,,,,,,,,,,,,,,,,,,,,,,,,,,,,,,,,,,,,,,,,None,,305.83956843016205,None,305.83956843016205,None,2022-04-13-14:29:54.976297,305.84271260001697,306.15494150016457,305.84271260001697,None,None,305.84271260001697,None,306.65537523019594,None,,,,22007,0001,2022_Apr_13_1424,localizer,2021.1.3,59.89211035362238,
block,faces,faces018.bmp,,,,,0,140,140,140,,,,,,,,,,,,,,,,,,,,,,,,,,,,,,,,,,,,,,,,,,None,,306.65537523019594,None,306.65537523019594,None,2022-04-13-14:29:55.791021,306.6662257001735,306.973126700148,306.6662257001735,None,None,306.6662257001735,None,307.47125553020743,None,,,,22007,0001,2022_Apr_13_1424,localizer,2021.1.3,59.89211035362238,
block,faces,faces069.bmp,,,,,0,141,141,141,,,,,,,,,,,,,,,,,,,,,,,,,,,,,,,,,,,,,,,,,,None,,307.47125553020743,None,307.47125553020743,None,2022-04-13-14:29:56.605930,307.47417880012654,307.7736763001885,307.47417880012654,None,None,307.47417880012654,None,308.2881842300529,None,,,,22007,0001,2022_Apr_13_1424,localizer,2021.1.3,59.89211035362238,
block,faces,faces056.bmp,,,,,0,142,142,142,,,,,,,,,,,,,,,,,,,,,,,,,,,,,,,,,,,,,,,,,,None,,308.2881842300529,None,308.2881842300529,None,2022-04-13-14:29:57.422837,308.29315550019965,308.6049656001851,308.29315550019965,None,None,308.29315550019965,None,309.1049604300177,None,,,,22007,0001,2022_Apr_13_1424,localizer,2021.1.3,59.89211035362238,
block,faces,faces021.bmp,,,,,0,143,143,143,,,,,,,,,,,,,,,,,,,,,,,,,,,,,,,,,,,,,,,,,,None,,309.1049604300177,None,309.1049604300177,None,2022-04-13-14:29:58.239809,309.1148111000657,309.42148500005715,309.1148111000657,None,None,309.1148111000657,None,309.9221948302118,None,,,,22007,0001,2022_Apr_13_1424,localizer,2021.1.3,59.89211035362238,
block,faces,faces042.bmp,,,,,0,144,144,144,,,,,,,,,,,,,,,,,,,,,,,,,,,,,,,,,,,,,,,,,,None,,309.9221948302118,None,309.9221948302118,None,2022-04-13-14:29:59.057817,309.9330664000008,310.2384192000609,309.9330664000008,None,None,309.9330664000008,None,310.72767653020566,None,,,,22007,0001,2022_Apr_13_1424,localizer,2021.1.3,59.89211035362238,
block,faces,faces059.bmp,,,,,0,145,145,145,,,,,,,,,,,,,,,,,,,,,,,,,,,,,,,,,,,,,,,,,,None,,310.72767653020566,None,310.72767653020566,None,2022-04-13-14:29:59.866371,310.7382118999958,311.0380127001554,310.7382118999958,None,None,310.7382118999958,None,311.5395371302264,None,,,,22007,0001,2022_Apr_13_1424,localizer,2021.1.3,59.89211035362238,
block,faces,faces089.bmp,,,,,0,146,146,146,,,,,,,,,,,,,,,,,,,,,,,,,,,,,,,,,,,,,,,,,,None,,311.5395371302264,None,311.5395371302264,None,2022-04-13-14:30:00.675136,311.53986860020086,311.8548890000675,311.53986860020086,None,None,311.53986860020086,None,312.3393608302111,None,,,,22007,0001,2022_Apr_13_1424,localizer,2021.1.3,59.89211035362238,
block,faces,faces017.bmp,,,,,0,147,147,147,,,,,,,,,,,,,,,,,,,,,,,,,,,,,,,,,,,,,,,,,,None,,312.3393608302111,None,312.3393608302111,None,2022-04-13-14:30:01.478985,312.34456280013546,312.65484110009857,312.34456280013546,312.34456280013546,None,312.34456280013546,312.34456280013546,313.1557231301675,None,,,,22007,0001,2022_Apr_13_1424,localizer,2021.1.3,59.89211035362238,
block,faces,faces039.bmp,,,,,0,148,148,148,,,,,,,,,,,,,,,,,,,,,,,,,,,,,,,,,,,,,,,,,,None,,313.1557231301675,None,313.1557231301675,None,2022-04-13-14:30:02.291320,313.1571647000965,313.47160600009374,313.1571647000965,None,None,313.1571647000965,None,313.9718009301694,None,,,,22007,0001,2022_Apr_13_1424,localizer,2021.1.3,59.89211035362238,
block,faces,faces052.bmp,,,,,0,149,149,149,,,,,,,,,,,,,,,,,,,,,,,,,,,,,,,,,,,,,,,,,,None,,313.9718009301694,None,313.9718009301694,None,2022-04-13-14:30:03.106653,313.98264120006934,314.28810280002654,313.98264120006934,None,None,313.98264120006934,None,314.7884403300239,None,,,,22007,0001,2022_Apr_13_1424,localizer,2021.1.3,59.89211035362238,
block,faces,faces078.bmp,,,,,0,150,150,150,,,,,,,,,,,,,,,,,,,,,,,,,,,,,,,,,,,,,,,,,,None,,314.7884403300239,None,314.7884403300239,None,2022-04-13-14:30:03.923283,314.7982928000856,315.10509580001235,314.7982928000856,None,None,314.7982928000856,None,315.60585783009884,None,,,,22007,0001,2022_Apr_13_1424,localizer,2021.1.3,59.89211035362238,
block,faces,faces009.bmp,,,,,0,151,151,151,,,,,,,,,,,,,,,,,,,,,,,,,,,,,,,,,,,,,,,,,,None,,315.60585783009884,None,315.60585783009884,None,2022-04-13-14:30:04.741676,315.61726310011,315.9219314001966,315.61726310011,None,None,315.61726310011,None,316.421953630005,None,,,,22007,0001,2022_Apr_13_1424,localizer,2021.1.3,59.89211035362238,
block_end,faces,faces035.bmp,,,,,0,152,152,152,,,,,,,,,,,,,,,,,,,,,,,,,,,,,,,,,,,,,,,,,,None,,316.421953630005,None,316.421953630005,None,2022-04-13-14:30:05.556646,316.43351320014335,316.7382828001864,316.43351320014335,None,None,316.43351320014335,None,317.2282614301192,None,,,,22007,0001,2022_Apr_13_1424,localizer,2021.1.3,59.89211035362238,
block_start,scenes,scenes042.bmp,,,,,0,153,153,153,,,,,,,,,,,,,,,,,,,,,,,,,,,,,,,,,,,,,,,,,,t,1.7718778001144528,317.2246107000392,None,317.2246107000392,None,2022-04-13-14:30:08.159811,319.03658020007424,319.33874320006,319.03658020007424,None,None,319.03658020007424,None,319.8381225302117,None,,,,22007,0001,2022_Apr_13_1424,localizer,2021.1.3,59.89211035362238,
block,scenes,scenes070.bmp,,,,,0,154,154,154,,,,,,,,,,,,,,,,,,,,,,,,,,,,,,,,,,,,,,,,,,None,,319.8381225302117,None,319.8381225302117,None,2022-04-13-14:30:08.972965,319.84604040021077,320.1553033001255,319.84604040021077,None,None,319.84604040021077,None,320.65532423004043,None,,,,22007,0001,2022_Apr_13_1424,localizer,2021.1.3,59.89211035362238,
block,scenes,scenes084.bmp,,,,,0,155,155,155,,,,,,,,,,,,,,,,,,,,,,,,,,,,,,,,,,,,,,,,,,None,,320.65532423004043,None,320.65532423004043,None,2022-04-13-14:30:09.789972,320.65603850013576,320.9713994001504,320.65603850013576,None,None,320.65603850013576,None,321.47163553007414,None,,,,22007,0001,2022_Apr_13_1424,localizer,2021.1.3,59.89211035362238,
block,scenes,scenes038.bmp,,,,,0,156,156,156,,,,,,,,,,,,,,,,,,,,,,,,,,,,,,,,,,,,,,,,,,None,,321.47163553007414,None,321.47163553007414,None,2022-04-13-14:30:10.606558,321.4726165002212,321.788309100084,321.4726165002212,None,None,321.4726165002212,None,322.27215003019666,None,,,,22007,0001,2022_Apr_13_1424,localizer,2021.1.3,59.89211035362238,
block,scenes,scenes021.bmp,,,,,0,157,157,157,,,,,,,,,,,,,,,,,,,,,,,,,,,,,,,,,,,,,,,,,,None,,322.27215003019666,None,322.27215003019666,None,2022-04-13-14:30:11.408913,322.28452750016004,322.5889007002115,322.28452750016004,322.28452750016004,None,322.28452750016004,322.28452750016004,323.0885158300633,None,,,,22007,0001,2022_Apr_13_1424,localizer,2021.1.3,59.89211035362238,
block,scenes,scenes011.bmp,,,,,0,158,158,158,,,,,,,,,,,,,,,,,,,,,,,,,,,,,,,,,,,,,,,,,,None,,323.0885158300633,None,323.0885158300633,None,2022-04-13-14:30:12.223166,323.09783500013873,323.40497100003995,323.09783500013873,None,None,323.09783500013873,None,323.90500363016037,None,,,,22007,0001,2022_Apr_13_1424,localizer,2021.1.3,59.89211035362238,
block,scenes,scenes053.bmp,,,,,0,159,159,159,,,,,,,,,,,,,,,,,,,,,,,,,,,,,,,,,,,,,,,,,,None,,323.90500363016037,None,323.90500363016037,None,2022-04-13-14:30:13.039659,323.9057647001464,324.2053975001909,323.9057647001464,None,None,323.9057647001464,None,324.7052953302162,None,,,,22007,0001,2022_Apr_13_1424,localizer,2021.1.3,59.89211035362238,
block,scenes,scenes014.bmp,,,,,0,160,160,160,,,,,,,,,,,,,,,,,,,,,,,,,,,,,,,,,,,,,,,,,,None,,324.7052953302162,None,324.7052953302162,None,2022-04-13-14:30:13.841943,324.7170365001075,325.02152590011247,324.7170365001075,324.7170365001075,None,324.7170365001075,324.7170365001075,325.52217713005376,None,,,,22007,0001,2022_Apr_13_1424,localizer,2021.1.3,59.89211035362238,
block,scenes,scenes080.bmp,,,,,0,161,161,161,,,,,,,,,,,,,,,,,,,,,,,,,,,,,,,,,,,,,,,,,,None,,325.52217713005376,None,325.52217713005376,None,2022-04-13-14:30:14.656825,325.52251320006326,325.8220850001089,325.52251320006326,None,None,325.52251320006326,None,326.32238093002235,None,,,,22007,0001,2022_Apr_13_1424,localizer,2021.1.3,59.89211035362238,
block,scenes,scenes080.bmp,,,,,0,162,162,162,,,,,,,,,,,,,,,,,,,,,,,,,,,,,,,,,,,,,,,,,,None,,326.32238093002235,None,326.32238093002235,None,2022-04-13-14:30:15.460212,326.32552730012685,326.63800970022567,326.32552730012685,326.32552730012685,None,326.32552730012685,326.32552730012685,327.1386111300206,None,,,,22007,0001,2022_Apr_13_1424,localizer,2021.1.3,59.89211035362238,
block,scenes,scenes071.bmp,,,,,0,163,163,163,,,,,,,,,,,,,,,,,,,,,,,,,,,,,,,,,,,,,,,,,,None,,327.1386111300206,None,327.1386111300206,None,2022-04-13-14:30:16.273261,327.1391994000878,327.4385039000772,327.1391994000878,None,y,327.1391994000878,None,327.93849923003,None,0.3948372998274863,,,22007,0001,2022_Apr_13_1424,localizer,2021.1.3,59.89211035362238,
block,scenes,scenes017.bmp,,,,,0,164,164,164,,,,,,,,,,,,,,,,,,,,,,,,,,,,,,,,,,,,,,,,,,None,,327.93849923003,None,327.93849923003,None,2022-04-13-14:30:17.075356,327.9505887001287,328.2550724002067,327.9505887001287,327.9505887001287,None,327.9505887001287,327.9505887001287,328.7551376301097,None,,,,22007,0001,2022_Apr_13_1424,localizer,2021.1.3,59.89211035362238,
block,scenes,scenes031.bmp,,,,,0,165,165,165,,,,,,,,,,,,,,,,,,,,,,,,,,,,,,,,,,,,,,,,,,None,,328.7551376301097,None,328.7551376301097,None,2022-04-13-14:30:17.890191,328.7655644000042,329.07178170001134,328.7655644000042,None,None,328.7655644000042,None,329.5719185302267,None,,,,22007,0001,2022_Apr_13_1424,localizer,2021.1.3,59.89211035362238,
block,scenes,scenes012.bmp,,,,,0,166,166,166,,,,,,,,,,,,,,,,,,,,,,,,,,,,,,,,,,,,,,,,,,None,,329.5719185302267,None,329.5719185302267,None,2022-04-13-14:30:18.706779,329.58287540008314,329.8883276002016,329.58287540008314,None,None,329.58287540008314,None,330.3892083301442,None,,,,22007,0001,2022_Apr_13_1424,localizer,2021.1.3,59.89211035362238,
block_end,scenes,scenes006.bmp,,,,,0,167,167,167,,,,,,,,,,,,,,,,,,,,,,,,,,,,,,,,,,,,,,,,,,None,,330.3892083301442,None,330.3892083301442,None,2022-04-13-14:30:19.523120,330.38951780018397,330.6885341000743,330.38951780018397,None,None,330.38951780018397,None,331.18877153012437,None,,,,22007,0001,2022_Apr_13_1424,localizer,2021.1.3,59.89211035362238,
block_start,objects,objects045.bmp,,,,,0,168,168,168,,,,,,,,,,,,,,,,,,,,,,,,,,,,,,,,,,,,,,,,,,t,1.8086602999828756,331.1878408000339,None,331.1878408000339,None,2022-04-13-14:30:22.160393,333.0264105000533,333.33827480021864,333.0264105000533,None,None,333.0264105000533,None,333.8385950302007,None,,,,22007,0001,2022_Apr_13_1424,localizer,2021.1.3,59.89211035362238,
block,objects,objects061.bmp,,,,,0,169,169,169,,,,,,,,,,,,,,,,,,,,,,,,,,,,,,,,,,,,,,,,,,None,,333.8385950302007,None,333.8385950302007,None,2022-04-13-14:30:22.973245,333.8473668000661,334.1548545002006,333.8473668000661,None,None,333.8473668000661,None,334.65524893004914,None,,,,22007,0001,2022_Apr_13_1424,localizer,2021.1.3,59.89211035362238,
block,objects,objects060.bmp,,,,,0,170,170,170,,,,,,,,,,,,,,,,,,,,,,,,,,,,,,,,,,,,,,,,,,None,,334.65524893004914,None,334.65524893004914,None,2022-04-13-14:30:23.789900,334.66511650010943,334.97188690002076,334.66511650010943,None,None,334.66511650010943,None,335.4730280300835,None,,,,22007,0001,2022_Apr_13_1424,localizer,2021.1.3,59.89211035362238,
block,objects,objects055.bmp,,,,,0,171,171,171,,,,,,,,,,,,,,,,,,,,,,,,,,,,,,,,,,,,,,,,,,None,,335.4730280300835,None,335.4730280300835,None,2022-04-13-14:30:24.609659,335.4863044000231,335.78821300016716,335.4863044000231,None,None,335.4863044000231,None,336.28850443016273,None,,,,22007,0001,2022_Apr_13_1424,localizer,2021.1.3,59.89211035362238,
block,objects,objects065.bmp,,,,,0,172,172,172,,,,,,,,,,,,,,,,,,,,,,,,,,,,,,,,,,,,,,,,,,None,,336.28850443016273,None,336.28850443016273,None,2022-04-13-14:30:25.423154,336.2891702000052,336.5884837000631,336.2891702000052,None,None,336.2891702000052,None,337.08948582999875,None,,,,22007,0001,2022_Apr_13_1424,localizer,2021.1.3,59.89211035362238,
block,objects,objects049.bmp,,,,,0,173,173,173,,,,,,,,,,,,,,,,,,,,,,,,,,,,,,,,,,,,,,,,,,None,,337.08948582999875,None,337.08948582999875,None,2022-04-13-14:30:26.226873,337.10249740001746,337.40498600015417,337.10249740001746,337.10249740001746,None,337.10249740001746,337.10249740001746,337.90529733018485,None,,,,22007,0001,2022_Apr_13_1424,localizer,2021.1.3,59.89211035362238,
block,objects,objects079.bmp,,,,,0,174,174,174,,,,,,,,,,,,,,,,,,,,,,,,,,,,,,,,,,,,,,,,,,None,,337.90529733018485,None,337.90529733018485,None,2022-04-13-14:30:27.040177,337.91511600022204,338.2215604002122,337.91511600022204,None,None,337.91511600022204,None,338.7113611300709,None,,,,22007,0001,2022_Apr_13_1424,localizer,2021.1.3,59.89211035362238,
block,objects,objects039.bmp,,,,,0,175,175,175,,,,,,,,,,,,,,,,,,,,,,,,,,,,,,,,,,,,,,,,,,None,,338.7113611300709,None,338.7113611300709,None,2022-04-13-14:30:27.853874,338.72685870015994,339.0381352000404,338.72685870015994,None,None,338.72685870015994,None,339.5216790301027,None,,,,22007,0001,2022_Apr_13_1424,localizer,2021.1.3,59.89211035362238,
block,objects,objects073.bmp,,,,,0,176,176,176,,,,,,,,,,,,,,,,,,,,,,,,,,,,,,,,,,,,,,,,,,None,,339.5216790301027,None,339.5216790301027,None,2022-04-13-14:30:28.656336,339.5301258000545,339.8383644002024,339.5301258000545,None,None,339.5301258000545,None,340.3408724300796,None,,,,22007,0001,2022_Apr_13_1424,localizer,2021.1.3,59.89211035362238,
block,objects,objects003.bmp,,,,,0,177,177,177,,,,,,,,,,,,,,,,,,,,,,,,,,,,,,,,,,,,,,,,,,None,,340.3408724300796,None,340.3408724300796,None,2022-04-13-14:30:29.478661,340.3551845001057,340.6556048002094,340.3551845001057,None,None,340.3551845001057,None,341.1553174302215,None,,,,22007,0001,2022_Apr_13_1424,localizer,2021.1.3,59.89211035362238,
block,objects,objects057.bmp,,,,,0,178,178,178,,,,,,,,,,,,,,,,,,,,,,,,,,,,,,,,,,,,,,,,,,None,,341.1553174302215,None,341.1553174302215,None,2022-04-13-14:30:30.290182,341.16525150020607,341.4714868001174,341.16525150020607,None,None,341.16525150020607,None,341.97168953001966,None,,,,22007,0001,2022_Apr_13_1424,localizer,2021.1.3,59.89211035362238,
block,objects,objects087.bmp,,,,,0,179,179,179,,,,,,,,,,,,,,,,,,,,,,,,,,,,,,,,,,,,,,,,,,None,,341.97168953001966,None,341.97168953001966,None,2022-04-13-14:30:31.106343,341.97977480012923,342.288300300017,341.97977480012923,None,None,341.97977480012923,None,342.7886292301817,None,,,,22007,0001,2022_Apr_13_1424,localizer,2021.1.3,59.89211035362238,
block,objects,objects005.bmp,,,,,0,180,180,180,,,,,,,,,,,,,,,,,,,,,,,,,,,,,,,,,,,,,,,,,,None,,342.7886292301817,None,342.7886292301817,None,2022-04-13-14:30:31.923280,342.7993223001249,343.1050655001309,342.7993223001249,None,None,342.7993223001249,None,343.6052734300727,None,,,,22007,0001,2022_Apr_13_1424,localizer,2021.1.3,59.89211035362238,
block,objects,objects058.bmp,,,,,0,181,181,181,,,,,,,,,,,,,,,,,,,,,,,,,,,,,,,,,,,,,,,,,,None,,343.6052734300727,None,343.6052734300727,None,2022-04-13-14:30:32.740141,343.61549560003914,343.92139370017685,343.61549560003914,None,None,343.61549560003914,None,344.42157293001657,None,,,,22007,0001,2022_Apr_13_1424,localizer,2021.1.3,59.89211035362238,
block_end,objects,objects025.bmp,,,,,0,182,182,182,,,,,,,,,,,,,,,,,,,,,,,,,,,,,,,,,,,,,,,,,,None,,344.42157293001657,None,344.42157293001657,None,2022-04-13-14:30:33.556199,344.4290488001425,344.73792100022547,344.4290488001425,None,None,344.4290488001425,None,345.23889563006816,None,,,,22007,0001,2022_Apr_13_1424,localizer,2021.1.3,59.89211035362238,
null_block,null_block,null_block.bmp,,,,,0,183,183,183,,,,,,,,,,,,,,,,,,,,,,,,,,,,,,,,,,,,,,,,,,t,1.7577466999646276,345.2389178001322,None,345.2389178001322,None,2022-04-13-14:30:36.167709,347.0281917302171,None,347.0281917302171,None,None,347.0281917302171,None,347.04051180020906,None,,,,22007,0001,2022_Apr_13_1424,localizer,2021.1.3,59.89211035362238,
block_start,objects,objects063.bmp,,,,,0,184,184,184,,,,,,,,,,,,,,,,,,,,,,,,,,,,,,,,,,,,,,,,,,t,1.9405008999165148,359.0557517001871,None,359.0557517001871,None,2022-04-13-14:30:50.162035,361.03483380004764,361.3396445000544,361.03483380004764,None,None,361.03483380004764,None,361.8407507302007,None,,,,22007,0001,2022_Apr_13_1424,localizer,2021.1.3,59.89211035362238,
block,objects,objects046.bmp,,,,,0,185,185,185,,,,,,,,,,,,,,,,,,,,,,,,,,,,,,,,,,,,,,,,,,None,,361.8407507302007,None,361.8407507302007,None,2022-04-13-14:30:50.979347,361.8551196001936,362.1558219001163,361.8551196001936,None,None,361.8551196001936,None,362.65652213019786,None,,,,22007,0001,2022_Apr_13_1424,localizer,2021.1.3,59.89211035362238,
block,objects,objects049.bmp,,,,,0,186,186,186,,,,,,,,,,,,,,,,,,,,,,,,,,,,,,,,,,,,,,,,,,None,,362.65652213019786,None,362.65652213019786,None,2022-04-13-14:30:51.792970,362.6591713000089,362.97240770002827,362.6591713000089,None,None,362.6591713000089,None,363.47200993013104,None,,,,22007,0001,2022_Apr_13_1424,localizer,2021.1.3,59.89211035362238,
block,objects,objects005.bmp,,,,,0,187,187,187,,,,,,,,,,,,,,,,,,,,,,,,,,,,,,,,,,,,,,,,,,None,,363.47200993013104,None,363.47200993013104,None,2022-04-13-14:30:52.606663,363.4725893000141,363.7717128000222,363.4725893000141,None,None,363.4725893000141,None,364.2727429301711,None,,,,22007,0001,2022_Apr_13_1424,localizer,2021.1.3,59.89211035362238,
block,objects,objects031.bmp,,,,,0,188,188,188,,,,,,,,,,,,,,,,,,,,,,,,,,,,,,,,,,,,,,,,,,None,,364.2727429301711,None,364.2727429301711,None,2022-04-13-14:30:53.410376,364.28555670008063,364.5886143001262,364.28555670008063,364.28555670008063,None,364.28555670008063,364.28555670008063,365.0891664301278,None,,,,22007,0001,2022_Apr_13_1424,localizer,2021.1.3,59.89211035362238,
block,objects,objects031.bmp,,,,,0,189,189,189,,,,,,,,,,,,,,,,,,,,,,,,,,,,,,,,,,,,,,,,,,None,,365.0891664301278,None,365.0891664301278,None,2022-04-13-14:30:54.224808,365.08971770014614,365.38812950020656,365.08971770014614,None,y,365.08971770014614,None,365.88877373009456,None,0.5483995000831783,,,22007,0001,2022_Apr_13_1424,localizer,2021.1.3,59.89211035362238,
block,objects,objects009.bmp,,,,,0,190,190,190,,,,,,,,,,,,,,,,,,,,,,,,,,,,,,,,,,,,,,,,,,None,,365.88877373009456,None,365.88877373009456,None,2022-04-13-14:30:55.025418,365.900202000048,366.2047892000992,365.900202000048,365.900202000048,None,365.900202000048,365.900202000048,366.70459813002964,None,,,,22007,0001,2022_Apr_13_1424,localizer,2021.1.3,59.89211035362238,
block,objects,objects020.bmp,,,,,0,191,191,191,,,,,,,,,,,,,,,,,,,,,,,,,,,,,,,,,,,,,,,,,,None,,366.70459813002964,None,366.70459813002964,None,2022-04-13-14:30:55.838531,366.70611370005645,367.0050204000436,366.70611370005645,None,None,366.70611370005645,None,367.50741602999625,None,,,,22007,0001,2022_Apr_13_1424,localizer,2021.1.3,59.89211035362238,
block,objects,objects052.bmp,,,,,0,192,192,192,,,,,,,,,,,,,,,,,,,,,,,,,,,,,,,,,,,,,,,,,,None,,367.50741602999625,None,367.50741602999625,None,2022-04-13-14:30:56.648067,367.5117951000575,367.8218367001973,367.5117951000575,367.5117951000575,None,367.5117951000575,367.5117951000575,368.3229593300028,None,,,,22007,0001,2022_Apr_13_1424,localizer,2021.1.3,59.89211035362238,
block,objects,objects013.bmp,,,,,0,193,193,193,,,,,,,,,,,,,,,,,,,,,,,,,,,,,,,,,,,,,,,,,,None,,368.3229593300028,None,368.3229593300028,None,2022-04-13-14:30:57.459776,368.3350555000361,368.6384060001001,368.3350555000361,None,None,368.3350555000361,None,369.13886223018636,None,,,,22007,0001,2022_Apr_13_1424,localizer,2021.1.3,59.89211035362238,
block,objects,objects034.bmp,,,,,0,194,194,194,,,,,,,,,,,,,,,,,,,,,,,,,,,,,,,,,,,,,,,,,,None,,369.13886223018636,None,369.13886223018636,None,2022-04-13-14:30:58.273512,369.1481863001827,369.45503970002756,369.1481863001827,None,None,369.1481863001827,None,369.9556068301434,None,,,,22007,0001,2022_Apr_13_1424,localizer,2021.1.3,59.89211035362238,
block,objects,objects075.bmp,,,,,0,195,195,195,,,,,,,,,,,,,,,,,,,,,,,,,,,,,,,,,,,,,,,,,,None,,369.9556068301434,None,369.9556068301434,None,2022-04-13-14:30:59.090086,369.9561257001478,370.25546810007654,369.9561257001478,None,None,369.9561257001478,None,370.7558739300119,None,,,,22007,0001,2022_Apr_13_1424,localizer,2021.1.3,59.89211035362238,
block,objects,objects070.bmp,,,,,0,196,196,196,,,,,,,,,,,,,,,,,,,,,,,,,,,,,,,,,,,,,,,,,,None,,370.7558739300119,None,370.7558739300119,None,2022-04-13-14:30:59.893514,370.76886810013093,371.07156750001013,370.76886810013093,370.76886810013093,None,370.76886810013093,370.76886810013093,371.5726400300162,None,,,,22007,0001,2022_Apr_13_1424,localizer,2021.1.3,59.89211035362238,
block,objects,objects068.bmp,,,,,0,197,197,197,,,,,,,,,,,,,,,,,,,,,,,,,,,,,,,,,,,,,,,,,,None,,371.5726400300162,None,371.5726400300162,None,2022-04-13-14:31:00.708282,371.5843456001021,371.88917920016684,371.5843456001021,None,None,371.5843456001021,None,372.3889967301628,None,,,,22007,0001,2022_Apr_13_1424,localizer,2021.1.3,59.89211035362238,
block_end,objects,objects044.bmp,,,,,0,198,198,198,,,,,,,,,,,,,,,,,,,,,,,,,,,,,,,,,,,,,,,,,,None,,372.3889967301628,None,372.3889967301628,None,2022-04-13-14:31:01.523744,372.39868550002575,372.70516130002216,372.39868550002575,None,None,372.39868550002575,None,373.211727230181,None,,,,22007,0001,2022_Apr_13_1424,localizer,2021.1.3,59.89211035362238,
block_start,scenes,scenes050.bmp,,,,,0,199,199,199,,,,,,,,,,,,,,,,,,,,,,,,,,,,,,,,,,,,,,,,,,t,1.7853546999394894,373.2110519001726,None,373.2110519001726,None,2022-04-13-14:31:04.155933,375.02268560021184,375.3224218999967,375.02268560021184,None,None,375.02268560021184,None,375.8228123300476,None,,,,22007,0001,2022_Apr_13_1424,localizer,2021.1.3,59.89211035362238,
block,scenes,scenes026.bmp,,,,,0,200,200,200,,,,,,,,,,,,,,,,,,,,,,,,,,,,,,,,,,,,,,,,,,None,,375.8228123300476,None,375.8228123300476,None,2022-04-13-14:31:04.960636,375.8256922001019,376.1385058001615,375.8256922001019,375.8256922001019,None,375.8256922001019,375.8256922001019,376.64092633018737,None,,,,22007,0001,2022_Apr_13_1424,localizer,2021.1.3,59.89211035362238,
block,scenes,scenes023.bmp,,,,,0,201,201,201,,,,,,,,,,,,,,,,,,,,,,,,,,,,,,,,,,,,,,,,,,None,,376.64092633018737,None,376.64092633018737,None,2022-04-13-14:31:05.778833,376.6545663001016,376.9554326001089,376.6545663001016,None,None,376.6545663001016,None,377.4566378300777,None,,,,22007,0001,2022_Apr_13_1424,localizer,2021.1.3,59.89211035362238,
block,scenes,scenes053.bmp,,,,,0,202,202,202,,,,,,,,,,,,,,,,,,,,,,,,,,,,,,,,,,,,,,,,,,None,,377.4566378300777,None,377.4566378300777,None,2022-04-13-14:31:06.592443,377.45855370000936,377.7717116000131,377.45855370000936,None,None,377.45855370000936,None,378.27289223002737,None,,,,22007,0001,2022_Apr_13_1424,localizer,2021.1.3,59.89211035362238,
block,scenes,scenes076.bmp,,,,,0,203,203,203,,,,,,,,,,,,,,,,,,,,,,,,,,,,,,,,,,,,,,,,,,None,,378.27289223002737,None,378.27289223002737,None,2022-04-13-14:31:07.408511,378.2748183000367,378.58821960003115,378.2748183000367,None,None,378.2748183000367,None,379.0889261300443,None,,,,22007,0001,2022_Apr_13_1424,localizer,2021.1.3,59.89211035362238,
block,scenes,scenes015.bmp,,,,,0,204,204,204,,,,,,,,,,,,,,,,,,,,,,,,,,,,,,,,,,,,,,,,,,None,,379.0889261300443,None,379.0889261300443,None,2022-04-13-14:31:08.223496,379.08958600019105,379.3886254001409,379.08958600019105,None,None,379.08958600019105,None,379.889226930053,None,,,,22007,0001,2022_Apr_13_1424,localizer,2021.1.3,59.89211035362238,
block,scenes,scenes033.bmp,,,,,0,205,205,205,,,,,,,,,,,,,,,,,,,,,,,,,,,,,,,,,,,,,,,,,,None,,379.889226930053,None,379.889226930053,None,2022-04-13-14:31:09.027064,379.89999780012295,380.2050781000871,379.89999780012295,379.89999780012295,None,379.89999780012295,379.89999780012295,380.705651730136,None,,,,22007,0001,2022_Apr_13_1424,localizer,2021.1.3,59.89211035362238,
block,scenes,scenes034.bmp,,,,,0,206,206,206,,,,,,,,,,,,,,,,,,,,,,,,,,,,,,,,,,,,,,,,,,None,,380.705651730136,None,380.705651730136,None,2022-04-13-14:31:09.840303,380.70632980018854,381.0053693000227,380.70632980018854,None,None,380.70632980018854,None,381.50541763014627,None,,,,22007,0001,2022_Apr_13_1424,localizer,2021.1.3,59.89211035362238,
block,scenes,scenes004.bmp,,,,,0,207,207,207,,,,,,,,,,,,,,,,,,,,,,,,,,,,,,,,,,,,,,,,,,None,,381.50541763014627,None,381.50541763014627,None,2022-04-13-14:31:10.642167,381.5174420000985,381.8219886000734,381.5174420000985,381.5174420000985,None,381.5174420000985,381.5174420000985,382.32229223016185,None,,,,22007,0001,2022_Apr_13_1424,localizer,2021.1.3,59.89211035362238,
block,scenes,scenes056.bmp,,,,,0,208,208,208,,,,,,,,,,,,,,,,,,,,,,,,,,,,,,,,,,,,,,,,,,None,,382.32229223016185,None,382.32229223016185,None,2022-04-13-14:31:11.456944,382.32290570018813,382.6217649001628,382.32290570018813,None,None,382.32290570018813,None,383.1227189300815,None,,,,22007,0001,2022_Apr_13_1424,localizer,2021.1.3,59.89211035362238,
block,scenes,scenes012.bmp,,,,,0,209,209,209,,,,,,,,,,,,,,,,,,,,,,,,,,,,,,,,,,,,,,,,,,None,,383.1227189300815,None,383.1227189300815,None,2022-04-13-14:31:12.260445,383.1257811000105,383.43849550001323,383.1257811000105,383.1257811000105,None,383.1257811000105,383.1257811000105,383.94000383007807,None,,,,22007,0001,2022_Apr_13_1424,localizer,2021.1.3,59.89211035362238,
block,scenes,scenes064.bmp,,,,,0,210,210,210,,,,,,,,,,,,,,,,,,,,,,,,,,,,,,,,,,,,,,,,,,None,,383.94000383007807,None,383.94000383007807,None,2022-04-13-14:31:13.075638,383.95104010007344,384.25522520020604,383.95104010007344,None,None,383.95104010007344,None,384.75589263003786,None,,,,22007,0001,2022_Apr_13_1424,localizer,2021.1.3,59.89211035362238,
block,scenes,scenes055.bmp,,,,,0,211,211,211,,,,,,,,,,,,,,,,,,,,,,,,,,,,,,,,,,,,,,,,,,None,,384.75589263003786,None,384.75589263003786,None,2022-04-13-14:31:13.890749,384.7675787000917,385.07211030018516,384.7675787000917,None,None,384.7675787000917,None,385.57269533008804,None,,,,22007,0001,2022_Apr_13_1424,localizer,2021.1.3,59.89211035362238,
block,scenes,scenes088.bmp,,,,,0,212,212,212,,,,,,,,,,,,,,,,,,,,,,,,,,,,,,,,,,,,,,,,,,None,,385.57269533008804,None,385.57269533008804,None,2022-04-13-14:31:14.708318,385.5833206002135,385.88873130013235,385.5833206002135,None,None,385.5833206002135,None,386.3888889300404,None,,,,22007,0001,2022_Apr_13_1424,localizer,2021.1.3,59.89211035362238,
block_end,scenes,scenes092.bmp,,,,,0,213,213,213,,,,,,,,,,,,,,,,,,,,,,,,,,,,,,,,,,,,,,,,,,None,,386.3888889300404,None,386.3888889300404,None,2022-04-13-14:31:15.523541,386.38944650022313,386.6888454,386.38944650022313,None,None,386.38944650022313,None,387.18910463021604,None,,,,22007,0001,2022_Apr_13_1424,localizer,2021.1.3,59.89211035362238,
block_start,faces,faces025.bmp,,,,,0,214,214,214,,,,,,,,,,,,,,,,,,,,,,,,,,,,,,,,,,,,,,,,,,t,1.8072451998014003,387.1890485000331,None,387.1890485000331,None,2022-04-13-14:31:18.158489,389.0237416001037,389.33871120004915,389.0237416001037,None,None,389.0237416001037,None,389.8250035302015,None,,,,22007,0001,2022_Apr_13_1424,localizer,2021.1.3,59.89211035362238,
block,faces,faces084.bmp,,,,,0,215,215,215,,,,,,,,,,,,,,,,,,,,,,,,,,,,,,,,,,,,,,,,,,None,,389.8250035302015,None,389.8250035302015,None,2022-04-13-14:31:18.961584,389.8354651001282,390.13879210012965,389.8354651001282,389.8354651001282,None,389.8354651001282,389.8354651001282,390.6390887301648,None,,,,22007,0001,2022_Apr_13_1424,localizer,2021.1.3,59.89211035362238,
block,faces,faces024.bmp,,,,,0,216,216,216,,,,,,,,,,,,,,,,,,,,,,,,,,,,,,,,,,,,,,,,,,None,,390.6390887301648,None,390.6390887301648,None,2022-04-13-14:31:19.774506,390.6396814000327,390.93862880021334,390.6396814000327,None,None,390.6396814000327,None,391.43873173005414,None,,,,22007,0001,2022_Apr_13_1424,localizer,2021.1.3,59.89211035362238,
block,faces,faces072.bmp,,,,,0,217,217,217,,,,,,,,,,,,,,,,,,,,,,,,,,,,,,,,,,,,,,,,,,None,,391.43873173005414,None,391.43873173005414,None,2022-04-13-14:31:20.575352,391.44967950019054,391.7553362001199,391.44967950019054,391.44967950019054,None,391.44967950019054,391.44967950019054,392.2588950300822,None,,,,22007,0001,2022_Apr_13_1424,localizer,2021.1.3,59.89211035362238,
block,faces,faces065.bmp,,,,,0,218,218,218,,,,,,,,,,,,,,,,,,,,,,,,,,,,,,,,,,,,,,,,,,None,,392.2588950300822,None,392.2588950300822,None,2022-04-13-14:31:21.397644,392.27971000014804,392.58883410017006,392.27971000014804,None,None,392.27971000014804,None,393.0720683302032,None,,,,22007,0001,2022_Apr_13_1424,localizer,2021.1.3,59.89211035362238,
block,faces,faces016.bmp,,,,,0,219,219,219,,,,,,,,,,,,,,,,,,,,,,,,,,,,,,,,,,,,,,,,,,None,,393.0720683302032,None,393.0720683302032,None,2022-04-13-14:31:22.206413,393.08148500020616,393.3883446000982,393.08148500020616,None,None,393.08148500020616,None,393.8898704301799,None,,,,22007,0001,2022_Apr_13_1424,localizer,2021.1.3,59.89211035362238,
block,faces,faces029.bmp,,,,,0,220,220,220,,,,,,,,,,,,,,,,,,,,,,,,,,,,,,,,,,,,,,,,,,None,,393.8898704301799,None,393.8898704301799,None,2022-04-13-14:31:23.025689,393.90285080019385,394.20524880010635,393.90285080019385,None,None,393.90285080019385,None,394.7056932301028,None,,,,22007,0001,2022_Apr_13_1424,localizer,2021.1.3,59.89211035362238,
block,faces,faces053.bmp,,,,,0,221,221,221,,,,,,,,,,,,,,,,,,,,,,,,,,,,,,,,,,,,,,,,,,None,,394.7056932301028,None,394.7056932301028,None,2022-04-13-14:31:23.840376,394.7154628999997,395.0221608001739,394.7154628999997,None,None,394.7154628999997,None,395.52178213007284,None,,,,22007,0001,2022_Apr_13_1424,localizer,2021.1.3,59.89211035362238,
block,faces,faces071.bmp,,,,,0,222,222,222,,,,,,,,,,,,,,,,,,,,,,,,,,,,,,,,,,,,,,,,,,None,,395.52178213007284,None,395.52178213007284,None,2022-04-13-14:31:24.657123,395.52303430018947,395.82194910012186,395.52303430018947,None,None,395.52303430018947,None,396.3231740301242,None,,,,22007,0001,2022_Apr_13_1424,localizer,2021.1.3,59.89211035362238,
block,faces,faces081.bmp,,,,,0,223,223,223,,,,,,,,,,,,,,,,,,,,,,,,,,,,,,,,,,,,,,,,,,None,,396.3231740301242,None,396.3231740301242,None,2022-04-13-14:31:25.460986,396.32623020000756,396.6392672001384,396.32623020000756,396.32623020000756,None,396.32623020000756,396.32623020000756,397.13905373013114,None,,,,22007,0001,2022_Apr_13_1424,localizer,2021.1.3,59.89211035362238,
block,faces,faces069.bmp,,,,,0,224,224,224,,,,,,,,,,,,,,,,,,,,,,,,,,,,,,,,,,,,,,,,,,None,,397.13905373013114,None,397.13905373013114,None,2022-04-13-14:31:26.273924,397.13952020020224,397.438666800037,397.13952020020224,None,None,397.13952020020224,None,397.9400025301846,None,,,,22007,0001,2022_Apr_13_1424,localizer,2021.1.3,59.89211035362238,
block,faces,faces009.bmp,,,,,0,225,225,225,,,,,,,,,,,,,,,,,,,,,,,,,,,,,,,,,,,,,,,,,,None,,397.9400025301846,None,397.9400025301846,None,2022-04-13-14:31:27.078735,397.9436562000774,398.2554713001009,397.9436562000774,397.9436562000774,None,397.9436562000774,397.9436562000774,398.7556248300942,None,,,,22007,0001,2022_Apr_13_1424,localizer,2021.1.3,59.89211035362238,
block,faces,faces073.bmp,,,,,0,226,226,226,,,,,,,,,,,,,,,,,,,,,,,,,,,,,,,,,,,,,,,,,,None,,398.7556248300942,None,398.7556248300942,None,2022-04-13-14:31:27.891042,398.7562711001374,399.0553356001619,398.7562711001374,None,None,398.7562711001374,None,399.5784102301812,None,,,,22007,0001,2022_Apr_13_1424,localizer,2021.1.3,59.89211035362238,
block,faces,faces057.bmp,,,,,0,227,227,227,,,,,,,,,,,,,,,,,,,,,,,,,,,,,,,,,,,,,,,,,,None,,399.5784102301812,None,399.5784102301812,None,2022-04-13-14:31:28.721031,399.60494320001453,399.9090379001573,399.60494320001453,None,None,399.60494320001453,None,400.39244403021877,None,,,,22007,0001,2022_Apr_13_1424,localizer,2021.1.3,59.89211035362238,
block_end,faces,faces059.bmp,,,,,0,228,228,228,,,,,,,,,,,,,,,,,,,,,,,,,,,,,,,,,,,,,,,,,,None,,400.39244403021877,None,400.39244403021877,None,2022-04-13-14:31:29.532954,400.39970980002545,400.7118808000814,400.39970980002545,None,None,400.39970980002545,None,401.2057029300602,None,,,,22007,0001,2022_Apr_13_1424,localizer,2021.1.3,59.89211035362238,
block_start,scrambled,scrambled069.bmp,,,,,0,229,229,229,,,,,,,,,,,,,,,,,,,,,,,,,,,,,,,,,,,,,,,,,,t,1.789603300159797,401.2056933999993,None,401.2056933999993,None,2022-04-13-14:31:32.155662,403.0233487000223,403.33847760013305,403.0233487000223,None,None,403.0233487000223,None,403.82417883009185,None,,,,22007,0001,2022_Apr_13_1424,localizer,2021.1.3,59.89211035362238,
block,scrambled,scrambled015.bmp,,,,,0,230,230,230,,,,,,,,,,,,,,,,,,,,,,,,,,,,,,,,,,,,,,,,,,None,,403.82417883009185,None,403.82417883009185,None,2022-04-13-14:31:32.964868,403.8412862000987,404.155425200006,403.8412862000987,403.8412862000987,None,403.8412862000987,403.8412862000987,404.6388991301181,None,,,,22007,0001,2022_Apr_13_1424,localizer,2021.1.3,59.89211035362238,
block,scrambled,scrambled084.bmp,,,,,0,231,231,231,,,,,,,,,,,,,,,,,,,,,,,,,,,,,,,,,,,,,,,,,,None,,404.6388991301181,None,404.6388991301181,None,2022-04-13-14:31:33.774191,404.6498442001175,404.9553556002211,404.6498442001175,None,None,404.6498442001175,None,405.4579620301491,None,,,,22007,0001,2022_Apr_13_1424,localizer,2021.1.3,59.89211035362238,
block,scrambled,scrambled037.bmp,,,,,0,232,232,232,,,,,,,,,,,,,,,,,,,,,,,,,,,,,,,,,,,,,,,,,,None,,405.4579620301491,None,405.4579620301491,None,2022-04-13-14:31:34.593771,405.47020290000364,405.7722324000206,405.47020290000364,None,None,405.47020290000364,None,406.27207163006534,None,,,,22007,0001,2022_Apr_13_1424,localizer,2021.1.3,59.89211035362238,
block,scrambled,scrambled027.bmp,,,,,0,233,233,233,,,,,,,,,,,,,,,,,,,,,,,,,,,,,,,,,,,,,,,,,,None,,406.27207163006534,None,406.27207163006534,None,2022-04-13-14:31:35.406726,406.2728114000056,406.57175450003706,406.2728114000056,None,None,406.2728114000056,None,407.0733937300509,None,,,,22007,0001,2022_Apr_13_1424,localizer,2021.1.3,59.89211035362238,
block,scrambled,scrambled050.bmp,,,,,0,234,234,234,,,,,,,,,,,,,,,,,,,,,,,,,,,,,,,,,,,,,,,,,,None,,407.0733937300509,None,407.0733937300509,None,2022-04-13-14:31:36.212095,407.07724370015785,407.38861390016973,407.07724370015785,407.07724370015785,None,407.07724370015785,407.07724370015785,407.8888527299976,None,,,,22007,0001,2022_Apr_13_1424,localizer,2021.1.3,59.89211035362238,
block,scrambled,scrambled017.bmp,,,,,0,235,235,235,,,,,,,,,,,,,,,,,,,,,,,,,,,,,,,,,,,,,,,,,,None,,407.8888527299976,None,407.8888527299976,None,2022-04-13-14:31:37.023508,407.8895428001415,408.18823310011066,407.8895428001415,None,None,407.8895428001415,None,408.68942563009915,None,,,,22007,0001,2022_Apr_13_1424,localizer,2021.1.3,59.89211035362238,
block,scrambled,scrambled041.bmp,,,,,0,236,236,236,,,,,,,,,,,,,,,,,,,,,,,,,,,,,,,,,,,,,,,,,,None,,408.68942563009915,None,408.68942563009915,None,2022-04-13-14:31:37.826183,408.69001060002483,409.0052872002125,408.69001060002483,408.69001060002483,None,408.69001060002483,408.69001060002483,409.48901853018907,None,,,,22007,0001,2022_Apr_13_1424,localizer,2021.1.3,59.89211035362238,
block,scrambled,scrambled019.bmp,,,,,0,237,237,237,,,,,,,,,,,,,,,,,,,,,,,,,,,,,,,,,,,,,,,,,,None,,409.48901853018907,None,409.48901853018907,None,2022-04-13-14:31:38.625668,409.4901045002043,409.80553340003826,409.4901045002043,409.4901045002043,None,409.4901045002043,409.4901045002043,410.30516713003163,None,,,,22007,0001,2022_Apr_13_1424,localizer,2021.1.3,59.89211035362238,
block,scrambled,scrambled070.bmp,,,,,0,238,238,238,,,,,,,,,,,,,,,,,,,,,,,,,,,,,,,,,,,,,,,,,,None,,410.30516713003163,None,410.30516713003163,None,2022-04-13-14:31:39.440113,410.30633110017516,410.60607750015333,410.30633110017516,None,None,410.30633110017516,None,411.12179173000624,None,,,,22007,0001,2022_Apr_13_1424,localizer,2021.1.3,59.89211035362238,
block,scrambled,scrambled075.bmp,,,,,0,239,239,239,,,,,,,,,,,,,,,,,,,,,,,,,,,,,,,,,,,,,,,,,,None,,411.12179173000624,None,411.12179173000624,None,2022-04-13-14:31:40.256616,411.1306503000669,411.43824010016397,411.1306503000669,None,None,411.1306503000669,None,411.9389414301375,None,,,,22007,0001,2022_Apr_13_1424,localizer,2021.1.3,59.89211035362238,
block,scrambled,scrambled057.bmp,,,,,0,240,240,240,,,,,,,,,,,,,,,,,,,,,,,,,,,,,,,,,,,,,,,,,,None,,411.9389414301375,None,411.9389414301375,None,2022-04-13-14:31:41.072495,411.9436251001898,412.24047310021706,411.9436251001898,None,None,411.9436251001898,None,412.7561415301869,None,,,,22007,0001,2022_Apr_13_1424,localizer,2021.1.3,59.89211035362238,
block,scrambled,scrambled001.bmp,,,,,0,241,241,241,,,,,,,,,,,,,,,,,,,,,,,,,,,,,,,,,,,,,,,,,,None,,412.7561415301869,None,412.7561415301869,None,2022-04-13-14:31:41.891973,412.7568535001483,413.055721900193,412.7568535001483,None,None,412.7568535001483,None,413.57162343019155,None,,,,22007,0001,2022_Apr_13_1424,localizer,2021.1.3,59.89211035362238,
block,scrambled,scrambled008.bmp,,,,,0,242,242,242,,,,,,,,,,,,,,,,,,,,,,,,,,,,,,,,,,,,,,,,,,None,,413.57162343019155,None,413.57162343019155,None,2022-04-13-14:31:42.706282,413.5770187000744,413.88912710011937,413.5770187000744,None,None,413.5770187000744,None,414.38903093019036,None,,,,22007,0001,2022_Apr_13_1424,localizer,2021.1.3,59.89211035362238,
block_end,scrambled,scrambled030.bmp,,,,,0,243,243,243,,,,,,,,,,,,,,,,,,,,,,,,,,,,,,,,,,,,,,,,,,None,,414.38903093019036,None,414.38903093019036,None,2022-04-13-14:31:43.523883,414.3999460001942,414.705454000039,414.3999460001942,None,None,414.3999460001942,None,415.2057235302171,None,,,,22007,0001,2022_Apr_13_1424,localizer,2021.1.3,59.89211035362238,
,,,,,,,,,,,,,,,,,,,,,,,,,,,,,,,,,,,,,,,,,,,,,,,,,,,,,,,,,,,,,,,,,,,,,415.20551870018244,None,,,,,,,
