block_type,condition,img_name,Button.thisRepN,Button.thisTrialN,Button.thisN,Button.thisIndex,trials.thisRepN,trials.thisTrialN,trials.thisN,trials.thisIndex,Ready_experimenter_text.started,Ready_experimenter_text.stopped,Ready_experimenter_resp.keys,Ready_experimenter_resp.rt,Ready_experimenter_resp.started,Ready_experimenter_resp.stopped,Alignment_background.started,Alignment_background.stopped,Alignment_image.started,Alignment_image.stopped,Alignment_resp.keys,Alignment_resp.rt,Alignment_resp.started,Alignment_resp.stopped,Button_text.started,Button_text.stopped,Index_text.started,Index_text.stopped,Index_resp.keys,Index_resp.rt,Index_resp.started,Index_resp.stopped,Middle_text.started,Middle_text.stopped,Middle_resp.keys,Middle_resp.rt,Middle_resp.started,Middle_resp.stopped,Repeat_text.started,Repeat_text.stopped,Repeat_resp.keys,Repeat_resp.corr,Repeat_resp.rt,Repeat_resp.started,Repeat_resp.stopped,instruction_text.started,instruction_text.stopped,key_resp.keys,key_resp.rt,key_resp.started,key_resp.stopped,scanner_t.keys,scanner_t.rt,scanner_t.started,scanner_t.stopped,fixation_wait_for_t.started,fixation_wait_for_t.stopped,real_timestamp_trial_start,image.started,image.stopped,fixation.started,fixation.stopped,repeat_response.keys,repeat_response.started,repeat_response.stopped,fixation_null.started,fixation_null.stopped,repeat_response.rt,end_text.started,end_text.stopped,participant,run,date,expName,psychopyVersion,frameRate,
,,,,,,,,,,,12.399956199995358,None,return,458.44650459999684,12.399956199995358,None,,,,,,,,,,,,,,,,,,,,,,,,,,,,,,,,,,,,,,,,,,,,,,,,,,,,,,,11013,0002,2022_Apr_27_1147,localizer,2021.1.3,58.37987669059599,
,,,,,,,,,,,,,,,,,470.89549599999737,None,470.89549599999737,None,return,1.2067302000068594,470.89549599999737,None,,,,,,,,,,,,,,,,,,,,,,,,,,,,,,,,,,,,,,,,,,,,,,,11013,0002,2022_Apr_27_1147,localizer,2021.1.3,58.37987669059599,
,,,0,0,0,0,,,,,,,,,,,,,,,,,,,472.12236490000214,None,473.1229364000028,None,y,2.2582498000119813,473.1229364000028,None,475.406868200007,None,b,1.4343653000105405,475.406868200007,None,476.8731573999976,None,n,0,22.974820000003092,476.8731573999976,None,,,,,,,,,,,,,,,,,,,,,,,,,,11013,0002,2022_Apr_27_1147,localizer,2021.1.3,58.37987669059599,
,,,,,,,,,,,,,,,,,,,,,,,,,,,,,,,,,,,,,,,,,,,,,,499.87290380000195,None,y,2.6281003000040073,499.87290380000195,None,,,,,,,,,,,,,,,,,,,,11013,0002,2022_Apr_27_1147,localizer,2021.1.3,58.37987669059599,
block_start,scrambled,scrambled035.bmp,,,,,0,0,0,0,,,,,,,,,,,,,,,,,,,,,,,,,,,,,,,,,,,,,,,,,,t,18.610479199996917,502.55178900000465,None,502.55178900000465,None,2022-04-27-11:55:55.645545,521.1996762000053,521.5061293000035,521.1996762000053,None,None,521.1996762000053,None,522.0069024000055,None,,,,11013,0002,2022_Apr_27_1147,localizer,2021.1.3,58.37987669059599,
block,scrambled,scrambled073.bmp,,,,,0,1,1,1,,,,,,,,,,,,,,,,,,,,,,,,,,,,,,,,,,,,,,,,,,None,,522.0069024000055,None,522.0069024000055,None,2022-04-27-11:55:56.465268,522.0115198999993,522.3228532999929,522.0115198999993,None,None,522.0115198999993,None,522.8232970000041,None,,,,11013,0002,2022_Apr_27_1147,localizer,2021.1.3,58.37987669059599,
block,scrambled,scrambled068.bmp,,,,,0,2,2,2,,,,,,,,,,,,,,,,,,,,,,,,,,,,,,,,,,,,,,,,,,None,,522.8232970000041,None,522.8232970000041,None,2022-04-27-11:55:57.278898,522.8237515999936,523.1230326999939,522.8237515999936,None,None,522.8237515999936,None,523.6232624000055,None,,,,11013,0002,2022_Apr_27_1147,localizer,2021.1.3,58.37987669059599,
block,scrambled,scrambled042.bmp,,,,,0,3,3,3,,,,,,,,,,,,,,,,,,,,,,,,,,,,,,,,,,,,,,,,,,None,,523.6232624000055,None,523.6232624000055,None,2022-04-27-11:55:58.080621,523.635194500006,523.9395852000016,523.635194500006,523.635194500006,None,523.635194500006,523.635194500006,524.4397343999968,None,,,,11013,0002,2022_Apr_27_1147,localizer,2021.1.3,58.37987669059599,
block,scrambled,scrambled004.bmp,,,,,0,4,4,4,,,,,,,,,,,,,,,,,,,,,,,,,,,,,,,,,,,,,,,,,,None,,524.4397343999968,None,524.4397343999968,None,2022-04-27-11:55:58.895281,524.4404707000067,524.7561297999928,524.4404707000067,None,None,524.4404707000067,None,525.2404769000074,None,,,,11013,0002,2022_Apr_27_1147,localizer,2021.1.3,58.37987669059599,
block,scrambled,scrambled076.bmp,,,,,0,5,5,5,,,,,,,,,,,,,,,,,,,,,,,,,,,,,,,,,,,,,,,,,,None,,525.2404769000074,None,525.2404769000074,None,2022-04-27-11:55:59.699024,525.2547457000037,525.5570589999988,525.2547457000037,525.2547457000037,None,525.2547457000037,525.2547457000037,526.0564217000007,None,,,,11013,0002,2022_Apr_27_1147,localizer,2021.1.3,58.37987669059599,
block,scrambled,scrambled087.bmp,,,,,0,6,6,6,,,,,,,,,,,,,,,,,,,,,,,,,,,,,,,,,,,,,,,,,,None,,526.0564217000007,None,526.0564217000007,None,2022-04-27-11:56:00.511807,526.0570805000025,526.3565397000057,526.0570805000025,None,None,526.0570805000025,None,526.8563242000033,None,,,,11013,0002,2022_Apr_27_1147,localizer,2021.1.3,58.37987669059599,
block,scrambled,scrambled058.bmp,,,,,0,7,7,7,,,,,,,,,,,,,,,,,,,,,,,,,,,,,,,,,,,,,,,,,,None,,526.8563242000033,None,526.8563242000033,None,2022-04-27-11:56:01.313905,526.8674131000007,527.1728691000026,526.8674131000007,526.8674131000007,None,526.8674131000007,526.8674131000007,527.6740616999974,None,,,,11013,0002,2022_Apr_27_1147,localizer,2021.1.3,58.37987669059599,
block,scrambled,scrambled064.bmp,,,,,0,8,8,8,,,,,,,,,,,,,,,,,,,,,,,,,,,,,,,,,,,,,,,,,,None,,527.6740616999974,None,527.6740616999974,None,2022-04-27-11:56:02.131615,527.6764836999937,527.9897694999963,527.6764836999937,None,None,527.6764836999937,None,528.4895301000012,None,,,,11013,0002,2022_Apr_27_1147,localizer,2021.1.3,58.37987669059599,
block,scrambled,scrambled008.bmp,,,,,0,9,9,9,,,,,,,,,,,,,,,,,,,,,,,,,,,,,,,,,,,,,,,,,,None,,528.4895301000012,None,528.4895301000012,None,2022-04-27-11:56:02.944993,528.490510100004,528.789363799995,528.490510100004,None,None,528.490510100004,None,529.2896311000019,None,,,,11013,0002,2022_Apr_27_1147,localizer,2021.1.3,58.37987669059599,
block,scrambled,scrambled040.bmp,,,,,0,10,10,10,,,,,,,,,,,,,,,,,,,,,,,,,,,,,,,,,,,,,,,,,,None,,529.2896311000019,None,529.2896311000019,None,2022-04-27-11:56:03.746012,529.2904628999968,529.6061183999991,529.2904628999968,529.2904628999968,None,529.2904628999968,529.2904628999968,530.0895496999962,None,,,,11013,0002,2022_Apr_27_1147,localizer,2021.1.3,58.37987669059599,
block,scrambled,scrambled084.bmp,,,,,0,11,11,11,,,,,,,,,,,,,,,,,,,,,,,,,,,,,,,,,,,,,,,,,,None,,530.0895496999962,None,530.0895496999962,None,2022-04-27-11:56:04.546933,530.090621299998,530.4062149999954,530.090621299998,530.090621299998,None,530.090621299998,530.090621299998,530.8901132999978,None,,,,11013,0002,2022_Apr_27_1147,localizer,2021.1.3,58.37987669059599,
block,scrambled,scrambled085.bmp,,,,,0,12,12,12,,,,,,,,,,,,,,,,,,,,,,,,,,,,,,,,,,,,,,,,,,None,,530.8901132999978,None,530.8901132999978,None,2022-04-27-11:56:05.348481,530.9038598000043,531.2060364999925,530.9038598000043,530.9038598000043,None,530.9038598000043,530.9038598000043,531.7062575999968,None,,,,11013,0002,2022_Apr_27_1147,localizer,2021.1.3,58.37987669059599,
block,scrambled,scrambled072.bmp,,,,,0,13,13,13,,,,,,,,,,,,,,,,,,,,,,,,,,,,,,,,,,,,,,,,,,None,,531.7062575999968,None,531.7062575999968,None,2022-04-27-11:56:06.161644,531.7070498999965,532.0224920000037,531.7070498999965,None,None,531.7070498999965,None,532.5060518000042,None,,,,11013,0002,2022_Apr_27_1147,localizer,2021.1.3,58.37987669059599,
block_end,scrambled,scrambled014.bmp,,,,,0,14,14,14,,,,,,,,,,,,,,,,,,,,,,,,,,,,,,,,,,,,,,,,,,None,,532.5060518000042,None,532.5060518000042,None,2022-04-27-11:56:06.963171,532.5070657000033,532.8061191000015,532.5070657000033,532.5070657000033,None,532.5070657000033,532.5070657000033,533.3070258000022,None,,,,11013,0002,2022_Apr_27_1147,localizer,2021.1.3,58.37987669059599,
block_start,objects,objects063.bmp,,,,,0,15,15,15,,,,,,,,,,,,,,,,,,,,,,,,,,,,,,,,,,,,,,,,,,t,1.8534643999882974,533.3085120000032,None,533.3085120000032,None,2022-04-27-11:56:09.646799,535.2021932000061,535.5061145999935,535.2021932000061,None,None,535.2021932000061,None,536.0063005000062,None,,,,11013,0002,2022_Apr_27_1147,localizer,2021.1.3,58.37987669059599,
block,objects,objects019.bmp,,,,,0,16,16,16,,,,,,,,,,,,,,,,,,,,,,,,,,,,,,,,,,,,,,,,,,None,,536.0063005000062,None,536.0063005000062,None,2022-04-27-11:56:10.461688,536.0164728999953,536.3226813999936,536.0164728999953,None,None,536.0164728999953,None,536.8231624999986,None,,,,11013,0002,2022_Apr_27_1147,localizer,2021.1.3,58.37987669059599,
block,objects,objects068.bmp,,,,,0,17,17,17,,,,,,,,,,,,,,,,,,,,,,,,,,,,,,,,,,,,,,,,,,None,,536.8231624999986,None,536.8231624999986,None,2022-04-27-11:56:11.278747,536.8239547999983,537.1226980999927,536.8239547999983,None,None,536.8239547999983,None,537.6235912000062,None,,,,11013,0002,2022_Apr_27_1147,localizer,2021.1.3,58.37987669059599,
block,objects,objects035.bmp,,,,,0,18,18,18,,,,,,,,,,,,,,,,,,,,,,,,,,,,,,,,,,,,,,,,,,None,,537.6235912000062,None,537.6235912000062,None,2022-04-27-11:56:12.079915,537.6327809000068,537.9392185000033,537.6327809000068,537.6327809000068,None,537.6327809000068,537.6327809000068,538.439673399998,None,,,,11013,0002,2022_Apr_27_1147,localizer,2021.1.3,58.37987669059599,
block,objects,objects061.bmp,,,,,0,19,19,19,,,,,,,,,,,,,,,,,,,,,,,,,,,,,,,,,,,,,,,,,,None,,538.439673399998,None,538.439673399998,None,2022-04-27-11:56:12.895057,538.4404917000065,538.7560451000027,538.4404917000065,None,None,538.4404917000065,None,539.2396039999963,None,,,,11013,0002,2022_Apr_27_1147,localizer,2021.1.3,58.37987669059599,
block,objects,objects075.bmp,,,,,0,20,20,20,,,,,,,,,,,,,,,,,,,,,,,,,,,,,,,,,,,,,,,,,,None,,539.2396039999963,None,539.2396039999963,None,2022-04-27-11:56:13.696986,539.2408506000065,539.5560444000002,539.2408506000065,539.2408506000065,None,539.2408506000065,539.2408506000065,540.0561501999997,None,,,,11013,0002,2022_Apr_27_1147,localizer,2021.1.3,58.37987669059599,
block,objects,objects022.bmp,,,,,0,21,21,21,,,,,,,,,,,,,,,,,,,,,,,,,,,,,,,,,,,,,,,,,,None,,540.0561501999997,None,540.0561501999997,None,2022-04-27-11:56:14.511533,540.057104099993,540.3563675000041,540.057104099993,None,None,540.057104099993,None,540.8561633000005,None,,,,11013,0002,2022_Apr_27_1147,localizer,2021.1.3,58.37987669059599,
block,objects,objects051.bmp,,,,,0,22,22,22,,,,,,,,,,,,,,,,,,,,,,,,,,,,,,,,,,,,,,,,,,None,,540.8561633000005,None,540.8561633000005,None,2022-04-27-11:56:15.313542,540.8678059999947,541.1726329999947,540.8678059999947,540.8678059999947,None,540.8678059999947,540.8678059999947,541.6727247000032,None,,,,11013,0002,2022_Apr_27_1147,localizer,2021.1.3,58.37987669059599,
block,objects,objects054.bmp,,,,,0,23,23,23,,,,,,,,,,,,,,,,,,,,,,,,,,,,,,,,,,,,,,,,,,None,,541.6727247000032,None,541.6727247000032,None,2022-04-27-11:56:16.128112,541.6739151999936,541.9896034999983,541.6739151999936,None,None,541.6739151999936,None,542.4729313000076,None,,,,11013,0002,2022_Apr_27_1147,localizer,2021.1.3,58.37987669059599,
block,objects,objects084.bmp,,,,,0,24,24,24,,,,,,,,,,,,,,,,,,,,,,,,,,,,,,,,,,,,,,,,,,None,,542.4729313000076,None,542.4729313000076,None,2022-04-27-11:56:16.929318,542.4830027999997,542.789438199994,542.4830027999997,542.4830027999997,None,542.4830027999997,542.4830027999997,543.2899149999954,None,,,,11013,0002,2022_Apr_27_1147,localizer,2021.1.3,58.37987669059599,
block,objects,objects020.bmp,,,,,0,25,25,25,,,,,,,,,,,,,,,,,,,,,,,,,,,,,,,,,,,,,,,,,,None,,543.2899149999954,None,543.2899149999954,None,2022-04-27-11:56:17.745282,543.2959291000006,543.6068966000021,543.2959291000006,None,None,543.2959291000006,None,544.1071308000043,None,,,,11013,0002,2022_Apr_27_1147,localizer,2021.1.3,58.37987669059599,
block,objects,objects048.bmp,,,,,0,26,26,26,,,,,,,,,,,,,,,,,,,,,,,,,,,,,,,,,,,,,,,,,,None,,544.1071308000043,None,544.1071308000043,None,2022-04-27-11:56:18.563487,544.1176015999954,544.4229649000044,544.1176015999954,None,None,544.1176015999954,None,544.923074400003,None,,,,11013,0002,2022_Apr_27_1147,localizer,2021.1.3,58.37987669059599,
block,objects,objects077.bmp,,,,,0,27,27,27,,,,,,,,,,,,,,,,,,,,,,,,,,,,,,,,,,,,,,,,,,None,,544.923074400003,None,544.923074400003,None,2022-04-27-11:56:19.378461,544.9320200999937,545.2395547000051,544.9320200999937,None,None,544.9320200999937,None,545.739230300003,None,,,,11013,0002,2022_Apr_27_1147,localizer,2021.1.3,58.37987669059599,
block,objects,objects059.bmp,,,,,0,28,28,28,,,,,,,,,,,,,,,,,,,,,,,,,,,,,,,,,,,,,,,,,,None,,545.739230300003,None,545.739230300003,None,2022-04-27-11:56:20.194481,545.7408097000007,546.0415509000013,545.7408097000007,None,None,545.7408097000007,None,546.5402840999974,None,,,,11013,0002,2022_Apr_27_1147,localizer,2021.1.3,58.37987669059599,
block_end,objects,objects053.bmp,,,,,0,29,29,29,,,,,,,,,,,,,,,,,,,,,,,,,,,,,,,,,,,,,,,,,,None,,546.5402840999974,None,546.5402840999974,None,2022-04-27-11:56:20.998862,546.5432429000066,546.856973300004,546.5432429000066,546.5432429000066,None,546.5432429000066,546.5432429000066,547.3570081000013,None,,,,11013,0002,2022_Apr_27_1147,localizer,2021.1.3,58.37987669059599,
block_start,faces,faces085.bmp,,,,,0,30,30,30,,,,,,,,,,,,,,,,,,,,,,,,,,,,,,,,,,,,,,,,,,t,1.8051550999953179,547.3569153999997,None,547.3569153999997,None,2022-04-27-11:56:23.645218,549.2025953999982,549.5062725000025,549.2025953999982,None,None,549.2025953999982,None,550.0063508999971,None,,,,11013,0002,2022_Apr_27_1147,localizer,2021.1.3,58.37987669059599,
block,faces,faces060.bmp,,,,,0,31,31,31,,,,,,,,,,,,,,,,,,,,,,,,,,,,,,,,,,,,,,,,,,None,,550.0063508999971,None,550.0063508999971,None,2022-04-27-11:56:24.461738,550.0074237999943,550.3231055999931,550.0074237999943,None,None,550.0074237999943,None,550.8231000000029,None,,,,11013,0002,2022_Apr_27_1147,localizer,2021.1.3,58.37987669059599,
block,faces,faces026.bmp,,,,,0,32,32,32,,,,,,,,,,,,,,,,,,,,,,,,,,,,,,,,,,,,,,,,,,None,,550.8231000000029,None,550.8231000000029,None,2022-04-27-11:56:25.278487,550.859826999993,551.1729195999942,550.859826999993,None,None,550.859826999993,None,551.6398109999951,None,,,,11013,0002,2022_Apr_27_1147,localizer,2021.1.3,58.37987669059599,
block,faces,faces076.bmp,,,,,0,33,33,33,,,,,,,,,,,,,,,,,,,,,,,,,,,,,,,,,,,,,,,,,,None,,551.6398109999951,None,551.6398109999951,None,2022-04-27-11:56:26.095197,551.6405376000039,551.9396878999978,551.6405376000039,None,None,551.6405376000039,None,552.4397779999941,None,,,,11013,0002,2022_Apr_27_1147,localizer,2021.1.3,58.37987669059599,
block,faces,faces014.bmp,,,,,0,34,34,34,,,,,,,,,,,,,,,,,,,,,,,,,,,,,,,,,,,,,,,,,,None,,552.4397779999941,None,552.4397779999941,None,2022-04-27-11:56:26.896163,552.4498858000006,552.7561958000006,552.4498858000006,552.4498858000006,None,552.4498858000006,552.4498858000006,553.257674999995,None,,,,11013,0002,2022_Apr_27_1147,localizer,2021.1.3,58.37987669059599,
block,faces,faces081.bmp,,,,,0,35,35,35,,,,,,,,,,,,,,,,,,,,,,,,,,,,,,,,,,,,,,,,,,None,,553.257674999995,None,553.257674999995,None,2022-04-27-11:56:27.715020,553.2601348000026,553.5796957999992,553.2601348000026,None,None,553.2601348000026,None,554.0731601999956,None,,,,11013,0002,2022_Apr_27_1147,localizer,2021.1.3,58.37987669059599,
block,faces,faces071.bmp,,,,,0,36,36,36,,,,,,,,,,,,,,,,,,,,,,,,,,,,,,,,,,,,,,,,,,None,,554.0731601999956,None,554.0731601999956,None,2022-04-27-11:56:28.528547,554.0739948999981,554.3728572999971,554.0739948999981,None,None,554.0739948999981,None,554.8736803000007,None,,,,11013,0002,2022_Apr_27_1147,localizer,2021.1.3,58.37987669059599,
block,faces,faces073.bmp,,,,,0,37,37,37,,,,,,,,,,,,,,,,,,,,,,,,,,,,,,,,,,,,,,,,,,None,,554.8736803000007,None,554.8736803000007,None,2022-04-27-11:56:29.332223,554.8764779000048,555.1898292999977,554.8764779000048,554.8764779000048,None,554.8764779000048,554.8764779000048,555.6897492000077,None,,,,11013,0002,2022_Apr_27_1147,localizer,2021.1.3,58.37987669059599,
block,faces,faces083.bmp,,,,,0,38,38,38,,,,,,,,,,,,,,,,,,,,,,,,,,,,,,,,,,,,,,,,,,None,,555.6897492000077,None,555.6897492000077,None,2022-04-27-11:56:30.145422,555.6910855000024,555.9902222999954,555.6910855000024,None,None,555.6910855000024,None,556.4902113000077,None,,,,11013,0002,2022_Apr_27_1147,localizer,2021.1.3,58.37987669059599,
block,faces,faces050.bmp,,,,,0,39,39,39,,,,,,,,,,,,,,,,,,,,,,,,,,,,,,,,,,,,,,,,,,None,,556.4902113000077,None,556.4902113000077,None,2022-04-27-11:56:30.946579,556.4907018999947,556.8063597,556.4907018999947,556.4907018999947,None,556.4907018999947,556.4907018999947,557.2904724000051,None,,,,11013,0002,2022_Apr_27_1147,localizer,2021.1.3,58.37987669059599,
block,faces,faces075.bmp,,,,,0,40,40,40,,,,,,,,,,,,,,,,,,,,,,,,,,,,,,,,,,,,,,,,,,None,,557.2904724000051,None,557.2904724000051,None,2022-04-27-11:56:31.748823,557.3032185000047,557.6081152999977,557.3032185000047,557.3032185000047,None,557.3032185000047,557.3032185000047,558.1067803999991,None,,,,11013,0002,2022_Apr_27_1147,localizer,2021.1.3,58.37987669059599,
block,faces,faces018.bmp,,,,,0,41,41,41,,,,,,,,,,,,,,,,,,,,,,,,,,,,,,,,,,,,,,,,,,None,,558.1067803999991,None,558.1067803999991,None,2022-04-27-11:56:32.562162,558.1074064999993,558.4067224000028,558.1074064999993,None,None,558.1074064999993,None,558.9068322000036,None,,,,11013,0002,2022_Apr_27_1147,localizer,2021.1.3,58.37987669059599,
block,faces,faces029.bmp,,,,,0,42,42,42,,,,,,,,,,,,,,,,,,,,,,,,,,,,,,,,,,,,,,,,,,None,,558.9068322000036,None,558.9068322000036,None,2022-04-27-11:56:33.364418,558.9096718999936,559.2227780999965,558.9096718999936,558.9096718999936,None,558.9096718999936,558.9096718999936,559.7230453000026,None,,,,11013,0002,2022_Apr_27_1147,localizer,2021.1.3,58.37987669059599,
block,faces,faces061.bmp,,,,,0,43,43,43,,,,,,,,,,,,,,,,,,,,,,,,,,,,,,,,,,,,,,,,,,None,,559.7230453000026,None,559.7230453000026,None,2022-04-27-11:56:34.178433,559.7239694000018,560.0396890999982,559.7239694000018,None,None,559.7239694000018,None,560.5394586999988,None,,,,11013,0002,2022_Apr_27_1147,localizer,2021.1.3,58.37987669059599,
block_end,faces,faces017.bmp,,,,,0,44,44,44,,,,,,,,,,,,,,,,,,,,,,,,,,,,,,,,,,,,,,,,,,None,,560.5394586999988,None,560.5394586999988,None,2022-04-27-11:56:34.994848,560.5407740999945,560.8564077000046,560.5407740999945,None,None,560.5407740999945,None,561.3563464999985,None,,,,11013,0002,2022_Apr_27_1147,localizer,2021.1.3,58.37987669059599,
null_block,null_block,null_block.bmp,,,,,0,45,45,45,,,,,,,,,,,,,,,,,,,,,,,,,,,,,,,,,,,,,,,,,,t,1.8057818000088446,561.3562867,None,561.3562867,None,2022-04-27-11:56:37.645032,563.1896400000056,None,563.1896400000056,None,None,563.1896400000056,None,563.1931736999977,None,,,,11013,0002,2022_Apr_27_1147,localizer,2021.1.3,58.37987669059599,
block_start,scenes,scenes033.bmp,,,,,0,46,46,46,,,,,,,,,,,,,,,,,,,,,,,,,,,,,,,,,,,,,,,,,,t,1.9553537000028882,575.2067438999948,None,575.2067438999948,None,2022-04-27-11:56:51.646264,577.1908581000025,577.5064909000066,577.1908581000025,None,None,577.1908581000025,None,577.9899787999981,None,,,,11013,0002,2022_Apr_27_1147,localizer,2021.1.3,58.37987669059599,
block,scenes,scenes072.bmp,,,,,0,47,47,47,,,,,,,,,,,,,,,,,,,,,,,,,,,,,,,,,,,,,,,,,,None,,577.9899787999981,None,577.9899787999981,None,2022-04-27-11:56:52.447569,577.9916665000055,578.306484700006,577.9916665000055,577.9916665000055,None,577.9916665000055,577.9916665000055,578.8067686999944,None,,,,11013,0002,2022_Apr_27_1147,localizer,2021.1.3,58.37987669059599,
block,scenes,scenes089.bmp,,,,,0,48,48,48,,,,,,,,,,,,,,,,,,,,,,,,,,,,,,,,,,,,,,,,,,None,,578.8067686999944,None,578.8067686999944,None,2022-04-27-11:56:53.262155,578.8174621999933,579.1229750000057,578.8174621999933,None,None,578.8174621999933,None,579.6233472999971,None,,,,11013,0002,2022_Apr_27_1147,localizer,2021.1.3,58.37987669059599,
block,scenes,scenes037.bmp,,,,,0,49,49,49,,,,,,,,,,,,,,,,,,,,,,,,,,,,,,,,,,,,,,,,,,None,,579.6233472999971,None,579.6233472999971,None,2022-04-27-11:56:54.078730,579.6326992999966,579.9398855000036,579.6326992999966,None,None,579.6326992999966,None,580.4399640999997,None,,,,11013,0002,2022_Apr_27_1147,localizer,2021.1.3,58.37987669059599,
block,scenes,scenes048.bmp,,,,,0,50,50,50,,,,,,,,,,,,,,,,,,,,,,,,,,,,,,,,,,,,,,,,,,None,,580.4399640999997,None,580.4399640999997,None,2022-04-27-11:56:54.895332,580.4409016999998,580.7564283999964,580.4409016999998,None,None,580.4409016999998,None,581.2564929000015,None,,,,11013,0002,2022_Apr_27_1147,localizer,2021.1.3,58.37987669059599,
block,scenes,scenes003.bmp,,,,,0,51,51,51,,,,,,,,,,,,,,,,,,,,,,,,,,,,,,,,,,,,,,,,,,None,,581.2564929000015,None,581.2564929000015,None,2022-04-27-11:56:55.711883,581.2665126999927,581.5732334000058,581.2665126999927,None,None,581.2665126999927,None,582.0733526000055,None,,,,11013,0002,2022_Apr_27_1147,localizer,2021.1.3,58.37987669059599,
block,scenes,scenes003.bmp,,,,,0,52,52,52,,,,,,,,,,,,,,,,,,,,,,,,,,,,,,,,,,,,,,,,,,None,,582.0733526000055,None,582.0733526000055,None,2022-04-27-11:56:56.528738,582.0741301999951,582.3734213999996,582.0741301999951,None,y,582.0741301999951,None,582.8732531999937,None,0.4549393999914173,,,11013,0002,2022_Apr_27_1147,localizer,2021.1.3,58.37987669059599,
block,scenes,scenes053.bmp,,,,,0,53,53,53,,,,,,,,,,,,,,,,,,,,,,,,,,,,,,,,,,,,,,,,,,None,,582.8732531999937,None,582.8732531999937,None,2022-04-27-11:56:57.330634,582.8744619000063,583.1899428000033,582.8744619000063,582.8744619000063,None,582.8744619000063,582.8744619000063,583.6898629000003,None,,,,11013,0002,2022_Apr_27_1147,localizer,2021.1.3,58.37987669059599,
block,scenes,scenes063.bmp,,,,,0,54,54,54,,,,,,,,,,,,,,,,,,,,,,,,,,,,,,,,,,,,,,,,,,None,,583.6898629000003,None,583.6898629000003,None,2022-04-27-11:56:58.145428,583.7006814000051,584.0064418999973,583.7006814000051,None,None,583.7006814000051,None,584.5068879999977,None,,,,11013,0002,2022_Apr_27_1147,localizer,2021.1.3,58.37987669059599,
block,scenes,scenes068.bmp,,,,,0,55,55,55,,,,,,,,,,,,,,,,,,,,,,,,,,,,,,,,,,,,,,,,,,None,,584.5068879999977,None,584.5068879999977,None,2022-04-27-11:56:58.962515,584.5177799999947,584.8232448000053,584.5177799999947,None,None,584.5177799999947,None,585.3233921000007,None,,,,11013,0002,2022_Apr_27_1147,localizer,2021.1.3,58.37987669059599,
block,scenes,scenes071.bmp,,,,,0,56,56,56,,,,,,,,,,,,,,,,,,,,,,,,,,,,,,,,,,,,,,,,,,None,,585.3233921000007,None,585.3233921000007,None,2022-04-27-11:56:59.778960,585.3334589000006,585.6395876000024,585.3334589000006,None,None,585.3334589000006,None,586.1399803000037,None,,,,11013,0002,2022_Apr_27_1147,localizer,2021.1.3,58.37987669059599,
block,scenes,scenes009.bmp,,,,,0,57,57,57,,,,,,,,,,,,,,,,,,,,,,,,,,,,,,,,,,,,,,,,,,None,,586.1399803000037,None,586.1399803000037,None,2022-04-27-11:57:00.595613,586.1408720000036,586.4565792000067,586.1408720000036,None,None,586.1408720000036,None,586.9399866999971,None,,,,11013,0002,2022_Apr_27_1147,localizer,2021.1.3,58.37987669059599,
block,scenes,scenes075.bmp,,,,,0,58,58,58,,,,,,,,,,,,,,,,,,,,,,,,,,,,,,,,,,,,,,,,,,None,,586.9399866999971,None,586.9399866999971,None,2022-04-27-11:57:01.397329,586.9511116000067,587.256430399997,586.9511116000067,586.9511116000067,None,586.9511116000067,586.9511116000067,587.7569828000065,None,,,,11013,0002,2022_Apr_27_1147,localizer,2021.1.3,58.37987669059599,
block,scenes,scenes090.bmp,,,,,0,59,59,59,,,,,,,,,,,,,,,,,,,,,,,,,,,,,,,,,,,,,,,,,,None,,587.7569828000065,None,587.7569828000065,None,2022-04-27-11:57:02.212366,587.7677315000037,588.0797602999955,587.7677315000037,None,None,587.7677315000037,None,588.5727415999951,None,,,,11013,0002,2022_Apr_27_1147,localizer,2021.1.3,58.37987669059599,
block_end,scenes,scenes079.bmp,,,,,0,60,60,60,,,,,,,,,,,,,,,,,,,,,,,,,,,,,,,,,,,,,,,,,,None,,588.5727415999951,None,588.5727415999951,None,2022-04-27-11:57:03.027136,588.5804023999954,588.8899553999945,588.5804023999954,None,None,588.5804023999954,None,589.3900060999964,None,,,,11013,0002,2022_Apr_27_1147,localizer,2021.1.3,58.37987669059599,
block_start,scrambled,scrambled062.bmp,,,,,0,61,61,61,,,,,,,,,,,,,,,,,,,,,,,,,,,,,,,,,,,,,,,,,,t,1.7722592999925837,589.3898279999994,None,589.3898279999994,None,2022-04-27-11:57:05.645098,591.1907676999981,591.5064924000035,591.1907676999981,None,None,591.1907676999981,None,591.9906935999985,None,,,,11013,0002,2022_Apr_27_1147,localizer,2021.1.3,58.37987669059599,
block,scrambled,scrambled030.bmp,,,,,0,62,62,62,,,,,,,,,,,,,,,,,,,,,,,,,,,,,,,,,,,,,,,,,,None,,591.9906935999985,None,591.9906935999985,None,2022-04-27-11:57:06.449061,591.9934919999941,592.3069162000029,591.9934919999941,591.9934919999941,None,591.9934919999941,591.9934919999941,592.8070451000036,None,,,,11013,0002,2022_Apr_27_1147,localizer,2021.1.3,58.37987669059599,
block,scrambled,scrambled030.bmp,,,,,0,63,63,63,,,,,,,,,,,,,,,,,,,,,,,,,,,,,,,,,,,,,,,,,,None,,592.8070451000036,None,592.8070451000036,None,2022-04-27-11:57:07.263530,592.8077262000006,593.1070348999929,592.8077262000006,None,y,592.8077262000006,None,593.6093204000005,None,0.38327059999573976,,,11013,0002,2022_Apr_27_1147,localizer,2021.1.3,58.37987669059599,
block,scrambled,scrambled045.bmp,,,,,0,64,64,64,,,,,,,,,,,,,,,,,,,,,,,,,,,,,,,,,,,,,,,,,,None,,593.6093204000005,None,593.6093204000005,None,2022-04-27-11:57:08.068872,593.6234055999957,593.9236332,593.6234055999957,593.6234055999957,None,593.6234055999957,593.6234055999957,594.423320800002,None,,,,11013,0002,2022_Apr_27_1147,localizer,2021.1.3,58.37987669059599,
block,scrambled,scrambled073.bmp,,,,,0,65,65,65,,,,,,,,,,,,,,,,,,,,,,,,,,,,,,,,,,,,,,,,,,None,,594.423320800002,None,594.423320800002,None,2022-04-27-11:57:08.878709,594.4241381000029,594.7398227999947,594.4241381000029,None,None,594.4241381000029,None,595.2396891000041,None,,,,11013,0002,2022_Apr_27_1147,localizer,2021.1.3,58.37987669059599,
block,scrambled,scrambled006.bmp,,,,,0,66,66,66,,,,,,,,,,,,,,,,,,,,,,,,,,,,,,,,,,,,,,,,,,None,,595.2396891000041,None,595.2396891000041,None,2022-04-27-11:57:09.694786,595.2465612999949,595.5566447000019,595.2465612999949,None,None,595.2465612999949,None,596.0448902000004,None,,,,11013,0002,2022_Apr_27_1147,localizer,2021.1.3,58.37987669059599,
block,scrambled,scrambled005.bmp,,,,,0,67,67,67,,,,,,,,,,,,,,,,,,,,,,,,,,,,,,,,,,,,,,,,,,None,,596.0448902000004,None,596.0448902000004,None,2022-04-27-11:57:10.503340,596.0504617999977,596.3568147000042,596.0504617999977,None,None,596.0504617999977,None,596.8566708999948,None,,,,11013,0002,2022_Apr_27_1147,localizer,2021.1.3,58.37987669059599,
block,scrambled,scrambled015.bmp,,,,,0,68,68,68,,,,,,,,,,,,,,,,,,,,,,,,,,,,,,,,,,,,,,,,,,None,,596.8566708999948,None,596.8566708999948,None,2022-04-27-11:57:11.312054,596.8663412000024,597.1731753000058,596.8663412000024,None,None,596.8663412000024,None,597.6735312000034,None,,,,11013,0002,2022_Apr_27_1147,localizer,2021.1.3,58.37987669059599,
block,scrambled,scrambled018.bmp,,,,,0,69,69,69,,,,,,,,,,,,,,,,,,,,,,,,,,,,,,,,,,,,,,,,,,None,,597.6735312000034,None,597.6735312000034,None,2022-04-27-11:57:12.128920,597.6821427999967,597.9900306000054,597.6821427999967,None,None,597.6821427999967,None,598.4901957000053,None,,,,11013,0002,2022_Apr_27_1147,localizer,2021.1.3,58.37987669059599,
block,scrambled,scrambled066.bmp,,,,,0,70,70,70,,,,,,,,,,,,,,,,,,,,,,,,,,,,,,,,,,,,,,,,,,None,,598.4901957000053,None,598.4901957000053,None,2022-04-27-11:57:12.945807,598.4910259000026,598.7901416999957,598.4910259000026,None,None,598.4910259000026,None,599.2901515000063,None,,,,11013,0002,2022_Apr_27_1147,localizer,2021.1.3,58.37987669059599,
block,scrambled,scrambled078.bmp,,,,,0,71,71,71,,,,,,,,,,,,,,,,,,,,,,,,,,,,,,,,,,,,,,,,,,None,,599.2901515000063,None,599.2901515000063,None,2022-04-27-11:57:13.747727,599.3012234000053,599.6128355999972,599.3012234000053,599.3012234000053,None,599.3012234000053,599.3012234000053,600.1079740999936,None,,,,11013,0002,2022_Apr_27_1147,localizer,2021.1.3,58.37987669059599,
block,scrambled,scrambled057.bmp,,,,,0,72,72,72,,,,,,,,,,,,,,,,,,,,,,,,,,,,,,,,,,,,,,,,,,None,,600.1079740999936,None,600.1079740999936,None,2022-04-27-11:57:14.564338,600.1198837999982,600.4233123000013,600.1198837999982,None,None,600.1198837999982,None,600.9239527999977,None,,,,11013,0002,2022_Apr_27_1147,localizer,2021.1.3,58.37987669059599,
block,scrambled,scrambled041.bmp,,,,,0,73,73,73,,,,,,,,,,,,,,,,,,,,,,,,,,,,,,,,,,,,,,,,,,None,,600.9239527999977,None,600.9239527999977,None,2022-04-27-11:57:15.380372,600.9346572000068,601.2405483000039,600.9346572000068,None,None,600.9346572000068,None,601.7406196000026,None,,,,11013,0002,2022_Apr_27_1147,localizer,2021.1.3,58.37987669059599,
block,scrambled,scrambled027.bmp,,,,,0,74,74,74,,,,,,,,,,,,,,,,,,,,,,,,,,,,,,,,,,,,,,,,,,None,,601.7406196000026,None,601.7406196000026,None,2022-04-27-11:57:16.196977,601.7513287000038,602.0566293000011,601.7513287000038,None,None,601.7513287000038,None,602.5566881000065,None,,,,11013,0002,2022_Apr_27_1147,localizer,2021.1.3,58.37987669059599,
block_end,scrambled,scrambled077.bmp,,,,,0,75,75,75,,,,,,,,,,,,,,,,,,,,,,,,,,,,,,,,,,,,,,,,,,None,,602.5566881000065,None,602.5566881000065,None,2022-04-27-11:57:17.011083,602.5601050999976,602.8734476999962,602.5601050999976,None,None,602.5601050999976,None,603.374009300003,None,,,,11013,0002,2022_Apr_27_1147,localizer,2021.1.3,58.37987669059599,
block_start,faces,faces057.bmp,,,,,0,76,76,76,,,,,,,,,,,,,,,,,,,,,,,,,,,,,,,,,,,,,,,,,,t,1.7873691999993753,603.3739566000004,None,603.3739566000004,None,2022-04-27-11:57:19.645542,605.1914297000039,605.5066048000008,605.1914297000039,None,None,605.1914297000039,None,605.9913919000043,None,,,,11013,0002,2022_Apr_27_1147,localizer,2021.1.3,58.37987669059599,
block,faces,faces010.bmp,,,,,0,77,77,77,,,,,,,,,,,,,,,,,,,,,,,,,,,,,,,,,,,,,,,,,,None,,605.9913919000043,None,605.9913919000043,None,2022-04-27-11:57:20.449675,606.0066991000058,606.3066724999953,606.0066991000058,606.0066991000058,None,606.0066991000058,606.0066991000058,606.8073609999934,None,,,,11013,0002,2022_Apr_27_1147,localizer,2021.1.3,58.37987669059599,
block,faces,faces022.bmp,,,,,0,78,78,78,,,,,,,,,,,,,,,,,,,,,,,,,,,,,,,,,,,,,,,,,,None,,606.8073609999934,None,606.8073609999934,None,2022-04-27-11:57:21.263927,606.8083282000007,607.1234263999941,606.8083282000007,None,None,606.8083282000007,None,607.6093557999935,None,,,,11013,0002,2022_Apr_27_1147,localizer,2021.1.3,58.37987669059599,
block,faces,faces068.bmp,,,,,0,79,79,79,,,,,,,,,,,,,,,,,,,,,,,,,,,,,,,,,,,,,,,,,,None,,607.6093557999935,None,607.6093557999935,None,2022-04-27-11:57:22.069894,607.6227989000035,607.9235148000007,607.6227989000035,607.6227989000035,None,607.6227989000035,607.6227989000035,608.4247495999967,None,,,,11013,0002,2022_Apr_27_1147,localizer,2021.1.3,58.37987669059599,
block,faces,faces032.bmp,,,,,0,80,80,80,,,,,,,,,,,,,,,,,,,,,,,,,,,,,,,,,,,,,,,,,,None,,608.4247495999967,None,608.4247495999967,None,2022-04-27-11:57:22.881655,608.4370728999929,608.7400546999997,608.4370728999929,None,None,608.4370728999929,None,609.2402289999969,None,,,,11013,0002,2022_Apr_27_1147,localizer,2021.1.3,58.37987669059599,
block,faces,faces038.bmp,,,,,0,81,81,81,,,,,,,,,,,,,,,,,,,,,,,,,,,,,,,,,,,,,,,,,,None,,609.2402289999969,None,609.2402289999969,None,2022-04-27-11:57:23.695838,609.2408772000053,609.5398458999989,609.2408772000053,None,None,609.2408772000053,None,610.0566806000076,None,,,,11013,0002,2022_Apr_27_1147,localizer,2021.1.3,58.37987669059599,
block,faces,faces055.bmp,,,,,0,82,82,82,,,,,,,,,,,,,,,,,,,,,,,,,,,,,,,,,,,,,,,,,,None,,610.0566806000076,None,610.0566806000076,None,2022-04-27-11:57:24.512035,610.0655474999949,610.3739231999934,610.0655474999949,None,None,610.0655474999949,None,610.8742491999961,None,,,,11013,0002,2022_Apr_27_1147,localizer,2021.1.3,58.37987669059599,
block,faces,faces067.bmp,,,,,0,83,83,83,,,,,,,,,,,,,,,,,,,,,,,,,,,,,,,,,,,,,,,,,,None,,610.8742491999961,None,610.8742491999961,None,2022-04-27-11:57:25.328645,610.8745119999949,611.1899778999941,610.8745119999949,None,None,610.8745119999949,None,611.673561600002,None,,,,11013,0002,2022_Apr_27_1147,localizer,2021.1.3,58.37987669059599,
block,faces,faces060.bmp,,,,,0,84,84,84,,,,,,,,,,,,,,,,,,,,,,,,,,,,,,,,,,,,,,,,,,None,,611.673561600002,None,611.673561600002,None,2022-04-27-11:57:26.131144,611.6751872000023,611.9898443999991,611.6751872000023,611.6751872000023,None,611.6751872000023,611.6751872000023,612.4903119000024,None,,,,11013,0002,2022_Apr_27_1147,localizer,2021.1.3,58.37987669059599,
block,faces,faces039.bmp,,,,,0,85,85,85,,,,,,,,,,,,,,,,,,,,,,,,,,,,,,,,,,,,,,,,,,None,,612.4903119000024,None,612.4903119000024,None,2022-04-27-11:57:26.945922,612.4914067000063,612.8069448000024,612.4914067000063,None,None,612.4914067000063,None,613.2906741999992,None,,,,11013,0002,2022_Apr_27_1147,localizer,2021.1.3,58.37987669059599,
block,faces,faces077.bmp,,,,,0,86,86,86,,,,,,,,,,,,,,,,,,,,,,,,,,,,,,,,,,,,,,,,,,None,,613.2906741999992,None,613.2906741999992,None,2022-04-27-11:57:27.748030,613.3054069000063,613.6072658000048,613.3054069000063,613.3054069000063,None,613.3054069000063,613.3054069000063,614.107285300002,None,,,,11013,0002,2022_Apr_27_1147,localizer,2021.1.3,58.37987669059599,
block,faces,faces019.bmp,,,,,0,87,87,87,,,,,,,,,,,,,,,,,,,,,,,,,,,,,,,,,,,,,,,,,,None,,614.107285300002,None,614.107285300002,None,2022-04-27-11:57:28.563860,614.1242334999988,614.4234694000043,614.1242334999988,None,None,614.1242334999988,None,614.9237055000063,None,,,,11013,0002,2022_Apr_27_1147,localizer,2021.1.3,58.37987669059599,
block,faces,faces001.bmp,,,,,0,88,88,88,,,,,,,,,,,,,,,,,,,,,,,,,,,,,,,,,,,,,,,,,,None,,614.9237055000063,None,614.9237055000063,None,2022-04-27-11:57:29.379293,614.9342004999926,615.2398549000063,614.9342004999926,None,None,614.9342004999926,None,615.7403403000004,None,,,,11013,0002,2022_Apr_27_1147,localizer,2021.1.3,58.37987669059599,
block,faces,faces061.bmp,,,,,0,89,89,89,,,,,,,,,,,,,,,,,,,,,,,,,,,,,,,,,,,,,,,,,,None,,615.7403403000004,None,615.7403403000004,None,2022-04-27-11:57:30.196920,615.7414049999934,616.0567671000026,615.7414049999934,None,None,615.7414049999934,None,616.5563918000058,None,,,,11013,0002,2022_Apr_27_1147,localizer,2021.1.3,58.37987669059599,
block_end,faces,faces016.bmp,,,,,0,90,90,90,,,,,,,,,,,,,,,,,,,,,,,,,,,,,,,,,,,,,,,,,,None,,616.5563918000058,None,616.5563918000058,None,2022-04-27-11:57:31.011780,616.5604966999963,616.8734120000008,616.5604966999963,None,None,616.5604966999963,None,617.3606470000028,None,,,,11013,0002,2022_Apr_27_1147,localizer,2021.1.3,58.37987669059599,
block_start,scenes,scenes065.bmp,,,,,0,91,91,91,,,,,,,,,,,,,,,,,,,,,,,,,,,,,,,,,,,,,,,,,,t,1.801988799998071,617.3593060999992,None,617.3593060999992,None,2022-04-27-11:57:33.649842,619.2073366999975,619.5127571000048,619.2073366999975,None,None,619.2073366999975,None,620.0067787999957,None,,,,11013,0002,2022_Apr_27_1147,localizer,2021.1.3,58.37987669059599,
block,scenes,scenes054.bmp,,,,,0,92,92,92,,,,,,,,,,,,,,,,,,,,,,,,,,,,,,,,,,,,,,,,,,None,,620.0067787999957,None,620.0067787999957,None,2022-04-27-11:57:34.462166,620.0076619000029,620.3233067999972,620.0076619000029,None,None,620.0076619000029,None,620.8075555000047,None,,,,11013,0002,2022_Apr_27_1147,localizer,2021.1.3,58.37987669059599,
block,scenes,scenes005.bmp,,,,,0,93,93,93,,,,,,,,,,,,,,,,,,,,,,,,,,,,,,,,,,,,,,,,,,None,,620.8075555000047,None,620.8075555000047,None,2022-04-27-11:57:35.265125,620.8104350000067,621.1232548999978,620.8104350000067,620.8104350000067,None,620.8104350000067,620.8104350000067,621.6133873000014,None,,,,11013,0002,2022_Apr_27_1147,localizer,2021.1.3,58.37987669059599,
block,scenes,scenes078.bmp,,,,,0,94,94,94,,,,,,,,,,,,,,,,,,,,,,,,,,,,,,,,,,,,,,,,,,None,,621.6133873000014,None,621.6133873000014,None,2022-04-27-11:57:36.073523,621.6294580999966,621.9399468000047,621.6294580999966,621.6294580999966,None,621.6294580999966,621.6294580999966,622.4239917000028,None,,,,11013,0002,2022_Apr_27_1147,localizer,2021.1.3,58.37987669059599,
block,scenes,scenes079.bmp,,,,,0,95,95,95,,,,,,,,,,,,,,,,,,,,,,,,,,,,,,,,,,,,,,,,,,None,,622.4239917000028,None,622.4239917000028,None,2022-04-27-11:57:36.880569,622.4247858000017,622.7238515000063,622.4247858000017,None,None,622.4247858000017,None,623.2405396000046,None,,,,11013,0002,2022_Apr_27_1147,localizer,2021.1.3,58.37987669059599,
block,scenes,scenes048.bmp,,,,,0,96,96,96,,,,,,,,,,,,,,,,,,,,,,,,,,,,,,,,,,,,,,,,,,None,,623.2405396000046,None,623.2405396000046,None,2022-04-27-11:57:37.696139,623.2411120000033,623.5565542999975,623.2411120000033,None,None,623.2411120000033,None,624.0403030999965,None,,,,11013,0002,2022_Apr_27_1147,localizer,2021.1.3,58.37987669059599,
block,scenes,scenes012.bmp,,,,,0,97,97,97,,,,,,,,,,,,,,,,,,,,,,,,,,,,,,,,,,,,,,,,,,None,,624.0403030999965,None,624.0403030999965,None,2022-04-27-11:57:38.497681,624.0430506999983,624.3567548999999,624.0430506999983,624.0430506999983,None,624.0430506999983,624.0430506999983,624.8569706000068,None,,,,11013,0002,2022_Apr_27_1147,localizer,2021.1.3,58.37987669059599,
block,scenes,scenes053.bmp,,,,,0,98,98,98,,,,,,,,,,,,,,,,,,,,,,,,,,,,,,,,,,,,,,,,,,None,,624.8569706000068,None,624.8569706000068,None,2022-04-27-11:57:39.312354,624.8578340999957,625.1737190999993,624.8578340999957,None,None,624.8578340999957,None,625.6570024000044,None,,,,11013,0002,2022_Apr_27_1147,localizer,2021.1.3,58.37987669059599,
block,scenes,scenes049.bmp,,,,,0,99,99,99,,,,,,,,,,,,,,,,,,,,,,,,,,,,,,,,,,,,,,,,,,None,,625.6570024000044,None,625.6570024000044,None,2022-04-27-11:57:40.114547,625.6586161000014,625.9736089999933,625.6586161000014,625.6586161000014,None,625.6586161000014,625.6586161000014,626.4735752000066,None,,,,11013,0002,2022_Apr_27_1147,localizer,2021.1.3,58.37987669059599,
block,scenes,scenes039.bmp,,,,,0,100,100,100,,,,,,,,,,,,,,,,,,,,,,,,,,,,,,,,,,,,,,,,,,None,,626.4735752000066,None,626.4735752000066,None,2022-04-27-11:57:40.929391,626.4840051999927,626.7905747000041,626.4840051999927,None,None,626.4840051999927,None,627.2905663000071,None,,,,11013,0002,2022_Apr_27_1147,localizer,2021.1.3,58.37987669059599,
block,scenes,scenes060.bmp,,,,,0,101,101,101,,,,,,,,,,,,,,,,,,,,,,,,,,,,,,,,,,,,,,,,,,None,,627.2905663000071,None,627.2905663000071,None,2022-04-27-11:57:41.747145,627.3021415999974,627.6067036000022,627.3021415999974,None,None,627.3021415999974,None,628.1070500000002,None,,,,11013,0002,2022_Apr_27_1147,localizer,2021.1.3,58.37987669059599,
block,scenes,scenes068.bmp,,,,,0,102,102,102,,,,,,,,,,,,,,,,,,,,,,,,,,,,,,,,,,,,,,,,,,None,,628.1070500000002,None,628.1070500000002,None,2022-04-27-11:57:42.564429,628.1083785999945,628.423684399997,628.1083785999945,None,None,628.1083785999945,None,628.9235054999968,None,,,,11013,0002,2022_Apr_27_1147,localizer,2021.1.3,58.37987669059599,
block,scenes,scenes044.bmp,,,,,0,103,103,103,,,,,,,,,,,,,,,,,,,,,,,,,,,,,,,,,,,,,,,,,,None,,628.9235054999968,None,628.9235054999968,None,2022-04-27-11:57:43.378893,628.9245493000053,629.2400299000001,628.9245493000053,None,None,628.9245493000053,None,629.7236675999972,None,,,,11013,0002,2022_Apr_27_1147,localizer,2021.1.3,58.37987669059599,
block,scenes,scenes016.bmp,,,,,0,104,104,104,,,,,,,,,,,,,,,,,,,,,,,,,,,,,,,,,,,,,,,,,,None,,629.7236675999972,None,629.7236675999972,None,2022-04-27-11:57:44.181046,629.7249854999973,630.0403153999941,629.7249854999973,629.7249854999973,None,629.7249854999973,629.7249854999973,630.5403894999996,None,,,,11013,0002,2022_Apr_27_1147,localizer,2021.1.3,58.37987669059599,
block_end,scenes,scenes089.bmp,,,,,0,105,105,105,,,,,,,,,,,,,,,,,,,,,,,,,,,,,,,,,,,,,,,,,,None,,630.5403894999996,None,630.5403894999996,None,2022-04-27-11:57:44.995986,630.541120599999,630.8566408000042,630.541120599999,None,None,630.541120599999,None,631.3402539000032,None,,,,11013,0002,2022_Apr_27_1147,localizer,2021.1.3,58.37987669059599,
null_block,null_block,null_block.bmp,,,,,0,106,106,106,,,,,,,,,,,,,,,,,,,,,,,,,,,,,,,,,,,,,,,,,,t,1.8209896000043955,631.340200199993,None,631.340200199993,None,2022-04-27-11:57:47.648060,633.1915179000003,None,633.1915179000003,None,None,633.1915179000003,None,633.1971308000066,None,,,,11013,0002,2022_Apr_27_1147,localizer,2021.1.3,58.37987669059599,
block_start,objects,objects047.bmp,,,,,0,107,107,107,,,,,,,,,,,,,,,,,,,,,,,,,,,,,,,,,,,,,,,,,,t,1.9536912999901688,645.2075092000014,None,645.2075092000014,None,2022-04-27-11:58:01.647704,647.1925346000062,647.4934658999991,647.1925346000062,None,None,647.1925346000062,None,648.0070524999988,None,,,,11013,0002,2022_Apr_27_1147,localizer,2021.1.3,58.37987669059599,
block,objects,objects021.bmp,,,,,0,108,108,108,,,,,,,,,,,,,,,,,,,,,,,,,,,,,,,,,,,,,,,,,,None,,648.0070524999988,None,648.0070524999988,None,2022-04-27-11:58:02.462441,648.0157030999981,648.3236333999957,648.0157030999981,None,None,648.0157030999981,None,648.8240523999935,None,,,,11013,0002,2022_Apr_27_1147,localizer,2021.1.3,58.37987669059599,
block,objects,objects023.bmp,,,,,0,109,109,109,,,,,,,,,,,,,,,,,,,,,,,,,,,,,,,,,,,,,,,,,,None,,648.8240523999935,None,648.8240523999935,None,2022-04-27-11:58:03.279436,648.8245486999949,649.1402576999972,648.8245486999949,None,None,648.8245486999949,None,649.6236674000044,None,,,,11013,0002,2022_Apr_27_1147,localizer,2021.1.3,58.37987669059599,
block,objects,objects059.bmp,,,,,0,110,110,110,,,,,,,,,,,,,,,,,,,,,,,,,,,,,,,,,,,,,,,,,,None,,649.6236674000044,None,649.6236674000044,None,2022-04-27-11:58:04.080057,649.6244174000021,649.9401898000069,649.6244174000021,649.6244174000021,None,649.6244174000021,649.6244174000021,650.4239316999971,None,,,,11013,0002,2022_Apr_27_1147,localizer,2021.1.3,58.37987669059599,
block,objects,objects084.bmp,,,,,0,111,111,111,,,,,,,,,,,,,,,,,,,,,,,,,,,,,,,,,,,,,,,,,,None,,650.4239316999971,None,650.4239316999971,None,2022-04-27-11:58:04.881440,650.4264719000057,650.7403655999951,650.4264719000057,650.4264719000057,None,650.4264719000057,650.4264719000057,651.2404645000003,None,,,,11013,0002,2022_Apr_27_1147,localizer,2021.1.3,58.37987669059599,
block,objects,objects010.bmp,,,,,0,112,112,112,,,,,,,,,,,,,,,,,,,,,,,,,,,,,,,,,,,,,,,,,,None,,651.2404645000003,None,651.2404645000003,None,2022-04-27-11:58:05.696189,651.2411265999981,651.5404656000028,651.2411265999981,None,None,651.2411265999981,None,652.041736599998,None,,,,11013,0002,2022_Apr_27_1147,localizer,2021.1.3,58.37987669059599,
block,objects,objects006.bmp,,,,,0,113,113,113,,,,,,,,,,,,,,,,,,,,,,,,,,,,,,,,,,,,,,,,,,None,,652.041736599998,None,652.041736599998,None,2022-04-27-11:58:06.502316,652.0551420999982,652.3570693999936,652.0551420999982,652.0551420999982,None,652.0551420999982,652.0551420999982,652.8571448999952,None,,,,11013,0002,2022_Apr_27_1147,localizer,2021.1.3,58.37987669059599,
block,objects,objects070.bmp,,,,,0,114,114,114,,,,,,,,,,,,,,,,,,,,,,,,,,,,,,,,,,,,,,,,,,None,,652.8571448999952,None,652.8571448999952,None,2022-04-27-11:58:07.312532,652.8657550000062,653.1736344999954,652.8657550000062,None,None,652.8657550000062,None,653.6738416999957,None,,,,11013,0002,2022_Apr_27_1147,localizer,2021.1.3,58.37987669059599,
block,objects,objects037.bmp,,,,,0,115,115,115,,,,,,,,,,,,,,,,,,,,,,,,,,,,,,,,,,,,,,,,,,None,,653.6738416999957,None,653.6738416999957,None,2022-04-27-11:58:08.128955,653.6745209999935,653.9738609000051,653.6745209999935,None,None,653.6745209999935,None,654.473539799999,None,,,,11013,0002,2022_Apr_27_1147,localizer,2021.1.3,58.37987669059599,
block,objects,objects008.bmp,,,,,0,116,116,116,,,,,,,,,,,,,,,,,,,,,,,,,,,,,,,,,,,,,,,,,,None,,654.473539799999,None,654.473539799999,None,2022-04-27-11:58:08.930923,654.4744587000023,654.7743698999984,654.4744587000023,654.4744587000023,None,654.4744587000023,654.4744587000023,655.2742837000056,None,,,,11013,0002,2022_Apr_27_1147,localizer,2021.1.3,58.37987669059599,
block,objects,objects064.bmp,,,,,0,117,117,117,,,,,,,,,,,,,,,,,,,,,,,,,,,,,,,,,,,,,,,,,,None,,655.2742837000056,None,655.2742837000056,None,2022-04-27-11:58:09.730829,655.2761019000027,655.5908079999936,655.2761019000027,655.2761019000027,None,655.2761019000027,655.2761019000027,656.0904570000072,None,,,,11013,0002,2022_Apr_27_1147,localizer,2021.1.3,58.37987669059599,
block,objects,objects020.bmp,,,,,0,118,118,118,,,,,,,,,,,,,,,,,,,,,,,,,,,,,,,,,,,,,,,,,,None,,656.0904570000072,None,656.0904570000072,None,2022-04-27-11:58:10.545847,656.0911227000033,656.3903193000006,656.0911227000033,None,None,656.0911227000033,None,656.8905286000023,None,,,,11013,0002,2022_Apr_27_1147,localizer,2021.1.3,58.37987669059599,
block,objects,objects030.bmp,,,,,0,119,119,119,,,,,,,,,,,,,,,,,,,,,,,,,,,,,,,,,,,,,,,,,,None,,656.8905286000023,None,656.8905286000023,None,2022-04-27-11:58:11.346912,656.8912554999988,657.1964587999973,656.8912554999988,656.8912554999988,None,656.8912554999988,656.8912554999988,657.7065725999943,None,,,,11013,0002,2022_Apr_27_1147,localizer,2021.1.3,58.37987669059599,
block,objects,objects039.bmp,,,,,0,120,120,120,,,,,,,,,,,,,,,,,,,,,,,,,,,,,,,,,,,,,,,,,,None,,657.7065725999943,None,657.7065725999943,None,2022-04-27-11:58:12.162264,657.7103817000025,658.023826699995,657.7103817000025,None,None,657.7103817000025,None,658.524717300004,None,,,,11013,0002,2022_Apr_27_1147,localizer,2021.1.3,58.37987669059599,
block_end,objects,objects061.bmp,,,,,0,121,121,121,,,,,,,,,,,,,,,,,,,,,,,,,,,,,,,,,,,,,,,,,,None,,658.524717300004,None,658.524717300004,None,2022-04-27-11:58:12.981090,658.5264776999975,658.8411313999968,658.5264776999975,None,None,658.5264776999975,None,659.3405684999976,None,,,,11013,0002,2022_Apr_27_1147,localizer,2021.1.3,58.37987669059599,
block_start,objects,objects084.bmp,,,,,0,122,122,122,,,,,,,,,,,,,,,,,,,,,,,,,,,,,,,,,,,,,,,,,,t,1.8207627000083448,659.3404654000042,None,659.3404654000042,None,2022-04-27-11:58:15.648247,661.1943524999951,661.5078825999954,661.1943524999951,None,None,661.1943524999951,None,662.0072870999953,None,,,,11013,0002,2022_Apr_27_1147,localizer,2021.1.3,58.37987669059599,
block,objects,objects042.bmp,,,,,0,123,123,123,,,,,,,,,,,,,,,,,,,,,,,,,,,,,,,,,,,,,,,,,,None,,662.0072870999953,None,662.0072870999953,None,2022-04-27-11:58:16.462671,662.0079540000006,662.3073684999981,662.0079540000006,None,None,662.0079540000006,None,662.8072331999953,None,,,,11013,0002,2022_Apr_27_1147,localizer,2021.1.3,58.37987669059599,
block,objects,objects007.bmp,,,,,0,124,124,124,,,,,,,,,,,,,,,,,,,,,,,,,,,,,,,,,,,,,,,,,,None,,662.8072331999953,None,662.8072331999953,None,2022-04-27-11:58:17.264751,662.8181667000026,663.1235909999959,662.8181667000026,662.8181667000026,None,662.8181667000026,662.8181667000026,663.6238400999952,None,,,,11013,0002,2022_Apr_27_1147,localizer,2021.1.3,58.37987669059599,
block,objects,objects080.bmp,,,,,0,125,125,125,,,,,,,,,,,,,,,,,,,,,,,,,,,,,,,,,,,,,,,,,,None,,663.6238400999952,None,663.6238400999952,None,2022-04-27-11:58:18.079431,663.6247767000023,663.9238316999981,663.6247767000023,None,None,663.6247767000023,None,664.4264729999937,None,,,,11013,0002,2022_Apr_27_1147,localizer,2021.1.3,58.37987669059599,
block,objects,objects037.bmp,,,,,0,126,126,126,,,,,,,,,,,,,,,,,,,,,,,,,,,,,,,,,,,,,,,,,,None,,664.4264729999937,None,664.4264729999937,None,2022-04-27-11:58:18.885063,664.4344644999946,664.7403105999983,664.4344644999946,664.4344644999946,None,664.4344644999946,664.4344644999946,665.2404250000051,None,,,,11013,0002,2022_Apr_27_1147,localizer,2021.1.3,58.37987669059599,
block,objects,objects040.bmp,,,,,0,127,127,127,,,,,,,,,,,,,,,,,,,,,,,,,,,,,,,,,,,,,,,,,,None,,665.2404250000051,None,665.2404250000051,None,2022-04-27-11:58:19.695812,665.2490141000017,665.5570760999981,665.2490141000017,None,None,665.2490141000017,None,666.0568714000052,None,,,,11013,0002,2022_Apr_27_1147,localizer,2021.1.3,58.37987669059599,
block,objects,objects017.bmp,,,,,0,128,128,128,,,,,,,,,,,,,,,,,,,,,,,,,,,,,,,,,,,,,,,,,,None,,666.0568714000052,None,666.0568714000052,None,2022-04-27-11:58:20.512261,666.0656268000021,666.3740363999968,666.0656268000021,None,None,666.0656268000021,None,666.8738682000054,None,,,,11013,0002,2022_Apr_27_1147,localizer,2021.1.3,58.37987669059599,
block,objects,objects061.bmp,,,,,0,129,129,129,,,,,,,,,,,,,,,,,,,,,,,,,,,,,,,,,,,,,,,,,,None,,666.8738682000054,None,666.8738682000054,None,2022-04-27-11:58:21.329606,666.8748187000019,667.1739633999969,666.8748187000019,None,None,666.8748187000019,None,667.6905063999963,None,,,,11013,0002,2022_Apr_27_1147,localizer,2021.1.3,58.37987669059599,
block,objects,objects045.bmp,,,,,0,130,130,130,,,,,,,,,,,,,,,,,,,,,,,,,,,,,,,,,,,,,,,,,,None,,667.6905063999963,None,667.6905063999963,None,2022-04-27-11:58:22.146798,667.6963545000035,668.0070986000064,667.6963545000035,None,None,667.6963545000035,None,668.5072772000073,None,,,,11013,0002,2022_Apr_27_1147,localizer,2021.1.3,58.37987669059599,
block,objects,objects064.bmp,,,,,0,131,131,131,,,,,,,,,,,,,,,,,,,,,,,,,,,,,,,,,,,,,,,,,,None,,668.5072772000073,None,668.5072772000073,None,2022-04-27-11:58:22.962660,668.5080417999998,668.8071348999947,668.5080417999998,None,None,668.5080417999998,None,669.3074510999955,None,,,,11013,0002,2022_Apr_27_1147,localizer,2021.1.3,58.37987669059599,
block,objects,objects023.bmp,,,,,0,132,132,132,,,,,,,,,,,,,,,,,,,,,,,,,,,,,,,,,,,,,,,,,,None,,669.3074510999955,None,669.3074510999955,None,2022-04-27-11:58:23.765825,669.3102139999974,669.6238998000044,669.3102139999974,669.3102139999974,None,669.3102139999974,669.3102139999974,670.1241037999949,None,,,,11013,0002,2022_Apr_27_1147,localizer,2021.1.3,58.37987669059599,
block,objects,objects081.bmp,,,,,0,133,133,133,,,,,,,,,,,,,,,,,,,,,,,,,,,,,,,,,,,,,,,,,,None,,670.1241037999949,None,670.1241037999949,None,2022-04-27-11:58:24.579470,670.124699699998,670.4238692999934,670.124699699998,None,None,670.124699699998,None,670.9263425000041,None,,,,11013,0002,2022_Apr_27_1147,localizer,2021.1.3,58.37987669059599,
block,objects,objects003.bmp,,,,,0,134,134,134,,,,,,,,,,,,,,,,,,,,,,,,,,,,,,,,,,,,,,,,,,None,,670.9263425000041,None,670.9263425000041,None,2022-04-27-11:58:25.385702,670.9404644000024,671.2408563999925,670.9404644000024,670.9404644000024,None,670.9404644000024,670.9404644000024,671.7417573000072,None,,,,11013,0002,2022_Apr_27_1147,localizer,2021.1.3,58.37987669059599,
block,objects,objects027.bmp,,,,,0,135,135,135,,,,,,,,,,,,,,,,,,,,,,,,,,,,,,,,,,,,,,,,,,None,,671.7417573000072,None,671.7417573000072,None,2022-04-27-11:58:26.200118,671.7558422000002,672.0575237000012,671.7558422000002,None,None,671.7558422000002,None,672.5603834000009,None,,,,11013,0002,2022_Apr_27_1147,localizer,2021.1.3,58.37987669059599,
block_end,objects,objects075.bmp,,,,,0,136,136,136,,,,,,,,,,,,,,,,,,,,,,,,,,,,,,,,,,,,,,,,,,None,,672.5603834000009,None,672.5603834000009,None,2022-04-27-11:58:27.017749,672.5677706999995,672.8736893000023,672.5677706999995,None,None,672.5677706999995,None,673.374058199997,None,,,,11013,0002,2022_Apr_27_1147,localizer,2021.1.3,58.37987669059599,
null_block,null_block,null_block.bmp,,,,,0,137,137,137,,,,,,,,,,,,,,,,,,,,,,,,,,,,,,,,,,,,,,,,,,t,1.7870814999914728,673.3739823000069,None,673.3739823000069,None,2022-04-27-11:58:29.647082,675.190703599999,None,675.190703599999,None,None,675.190703599999,None,675.1951797999936,None,,,,11013,0002,2022_Apr_27_1147,localizer,2021.1.3,58.37987669059599,
block_start,scenes,scenes045.bmp,,,,,0,138,138,138,,,,,,,,,,,,,,,,,,,,,,,,,,,,,,,,,,,,,,,,,,t,1.9526580000092508,687.2083774000057,None,687.2083774000057,None,2022-04-27-11:58:43.647099,689.1912969999976,689.4906762000028,689.1912969999976,None,None,689.1912969999976,None,689.9908933000057,None,,,,11013,0002,2022_Apr_27_1147,localizer,2021.1.3,58.37987669059599,
block,scenes,scenes009.bmp,,,,,0,139,139,139,,,,,,,,,,,,,,,,,,,,,,,,,,,,,,,,,,,,,,,,,,None,,689.9908933000057,None,689.9908933000057,None,2022-04-27-11:58:44.448376,689.9937729999947,690.2961882999953,689.9937729999947,689.9937729999947,None,689.9937729999947,689.9937729999947,690.8073238000012,None,,,,11013,0002,2022_Apr_27_1147,localizer,2021.1.3,58.37987669059599,
block,scenes,scenes034.bmp,,,,,0,140,140,140,,,,,,,,,,,,,,,,,,,,,,,,,,,,,,,,,,,,,,,,,,None,,690.8073238000012,None,690.8073238000012,None,2022-04-27-11:58:45.262948,690.8172327000066,691.1248227000033,690.8172327000066,None,None,690.8172327000066,None,691.6242395999958,None,,,,11013,0002,2022_Apr_27_1147,localizer,2021.1.3,58.37987669059599,
block,scenes,scenes082.bmp,,,,,0,141,141,141,,,,,,,,,,,,,,,,,,,,,,,,,,,,,,,,,,,,,,,,,,None,,691.6242395999958,None,691.6242395999958,None,2022-04-27-11:58:46.079834,691.6351765,691.9408861999982,691.6351765,None,None,691.6351765,None,692.447204699996,None,,,,11013,0002,2022_Apr_27_1147,localizer,2021.1.3,58.37987669059599,
block,scenes,scenes080.bmp,,,,,0,142,142,142,,,,,,,,,,,,,,,,,,,,,,,,,,,,,,,,,,,,,,,,,,None,,692.447204699996,None,692.447204699996,None,2022-04-27-11:58:46.911198,692.4539553000068,692.7575668000063,692.4539553000068,None,None,692.4539553000068,None,693.2575512999989,None,,,,11013,0002,2022_Apr_27_1147,localizer,2021.1.3,58.37987669059599,
block,scenes,scenes091.bmp,,,,,0,143,143,143,,,,,,,,,,,,,,,,,,,,,,,,,,,,,,,,,,,,,,,,,,None,,693.2575512999989,None,693.2575512999989,None,2022-04-27-11:58:47.713167,693.2685423999937,693.5736559999932,693.2685423999937,None,None,693.2685423999937,None,694.0638477999979,None,,,,11013,0002,2022_Apr_27_1147,localizer,2021.1.3,58.37987669059599,
block,scenes,scenes083.bmp,,,,,0,144,144,144,,,,,,,,,,,,,,,,,,,,,,,,,,,,,,,,,,,,,,,,,,None,,694.0638477999979,None,694.0638477999979,None,2022-04-27-11:58:48.523267,694.0789358000038,694.3907644999999,694.0789358000038,None,None,694.0789358000038,None,694.8742182000075,None,,,,11013,0002,2022_Apr_27_1147,localizer,2021.1.3,58.37987669059599,
block,scenes,scenes030.bmp,,,,,0,145,145,145,,,,,,,,,,,,,,,,,,,,,,,,,,,,,,,,,,,,,,,,,,None,,694.8742182000075,None,694.8742182000075,None,2022-04-27-11:58:49.329603,694.8750874999969,695.1907350999973,694.8750874999969,None,None,694.8750874999969,None,695.6906571999949,None,,,,11013,0002,2022_Apr_27_1147,localizer,2021.1.3,58.37987669059599,
block,scenes,scenes006.bmp,,,,,0,146,146,146,,,,,,,,,,,,,,,,,,,,,,,,,,,,,,,,,,,,,,,,,,None,,695.6906571999949,None,695.6906571999949,None,2022-04-27-11:58:50.146044,695.6962112000037,696.0075923999975,695.6962112000037,None,None,695.6962112000037,None,696.5080076999963,None,,,,11013,0002,2022_Apr_27_1147,localizer,2021.1.3,58.37987669059599,
block,scenes,scenes067.bmp,,,,,0,147,147,147,,,,,,,,,,,,,,,,,,,,,,,,,,,,,,,,,,,,,,,,,,None,,696.5080076999963,None,696.5080076999963,None,2022-04-27-11:58:50.964574,696.5087174999935,696.8240664000041,696.5087174999935,None,None,696.5087174999935,None,697.311037800007,None,,,,11013,0002,2022_Apr_27_1147,localizer,2021.1.3,58.37987669059599,
block,scenes,scenes013.bmp,,,,,0,148,148,148,,,,,,,,,,,,,,,,,,,,,,,,,,,,,,,,,,,,,,,,,,None,,697.311037800007,None,697.311037800007,None,2022-04-27-11:58:51.774467,697.3308396999928,697.6405375000031,697.3308396999928,697.3308396999928,None,697.3308396999928,697.3308396999928,698.1238246999943,None,,,,11013,0002,2022_Apr_27_1147,localizer,2021.1.3,58.37987669059599,
block,scenes,scenes086.bmp,,,,,0,149,149,149,,,,,,,,,,,,,,,,,,,,,,,,,,,,,,,,,,,,,,,,,,None,,698.1238246999943,None,698.1238246999943,None,2022-04-27-11:58:52.579213,698.1323042000004,698.4407775,698.1323042000004,None,None,698.1323042000004,None,698.9407558000036,None,,,,11013,0002,2022_Apr_27_1147,localizer,2021.1.3,58.37987669059599,
block,scenes,scenes071.bmp,,,,,0,150,150,150,,,,,,,,,,,,,,,,,,,,,,,,,,,,,,,,,,,,,,,,,,None,,698.9407558000036,None,698.9407558000036,None,2022-04-27-11:58:53.396119,698.9416729999939,699.2573186999944,698.9416729999939,None,None,698.9416729999939,None,699.757177000001,None,,,,11013,0002,2022_Apr_27_1147,localizer,2021.1.3,58.37987669059599,
block,scenes,scenes073.bmp,,,,,0,151,151,151,,,,,,,,,,,,,,,,,,,,,,,,,,,,,,,,,,,,,,,,,,None,,699.757177000001,None,699.757177000001,None,2022-04-27-11:58:54.212717,699.7591576999985,700.0738710000005,699.7591576999985,None,None,699.7591576999985,None,700.5740808000061,None,,,,11013,0002,2022_Apr_27_1147,localizer,2021.1.3,58.37987669059599,
block_end,scenes,scenes055.bmp,,,,,0,152,152,152,,,,,,,,,,,,,,,,,,,,,,,,,,,,,,,,,,,,,,,,,,None,,700.5740808000061,None,700.5740808000061,None,2022-04-27-11:58:55.029468,700.5861446000054,700.8906087000069,700.5861446000054,None,None,700.5861446000054,None,701.3909252999962,None,,,,11013,0002,2022_Apr_27_1147,localizer,2021.1.3,58.37987669059599,
block_start,faces,faces077.bmp,,,,,0,153,153,153,,,,,,,,,,,,,,,,,,,,,,,,,,,,,,,,,,,,,,,,,,t,1.770425000009709,701.3906773000053,None,701.3906773000053,None,2022-04-27-11:58:57.646430,703.1917473999929,703.5072017000057,703.1917473999929,None,None,703.1917473999929,None,703.9907868999959,None,,,,11013,0002,2022_Apr_27_1147,localizer,2021.1.3,58.37987669059599,
block,faces,faces078.bmp,,,,,0,154,154,154,,,,,,,,,,,,,,,,,,,,,,,,,,,,,,,,,,,,,,,,,,None,,703.9907868999959,None,703.9907868999959,None,2022-04-27-11:58:58.447659,703.9916518999962,704.3074265000032,703.9916518999962,703.9916518999962,None,703.9916518999962,703.9916518999962,704.7909040000028,None,,,,11013,0002,2022_Apr_27_1147,localizer,2021.1.3,58.37987669059599,
block,faces,faces078.bmp,,,,,0,155,155,155,,,,,,,,,,,,,,,,,,,,,,,,,,,,,,,,,,,,,,,,,,None,,704.7909040000028,None,704.7909040000028,None,2022-04-27-11:58:59.248202,704.7920704999997,705.1074421999947,704.7920704999997,704.7920704999997,y,704.7920704999997,704.7920704999997,705.597869800005,None,0.6637953000026755,,,11013,0002,2022_Apr_27_1147,localizer,2021.1.3,58.37987669059599,
block,faces,faces015.bmp,,,,,0,156,156,156,,,,,,,,,,,,,,,,,,,,,,,,,,,,,,,,,,,,,,,,,,None,,705.597869800005,None,705.597869800005,None,2022-04-27-11:59:00.056302,705.6012591000035,705.9076212999935,705.6012591000035,None,None,705.6012591000035,None,706.408866899999,None,,,,11013,0002,2022_Apr_27_1147,localizer,2021.1.3,58.37987669059599,
block,faces,faces040.bmp,,,,,0,157,157,157,,,,,,,,,,,,,,,,,,,,,,,,,,,,,,,,,,,,,,,,,,None,,706.408866899999,None,706.408866899999,None,2022-04-27-11:59:00.865416,706.4179739999963,706.7245562000026,706.4179739999963,None,None,706.4179739999963,None,707.2244846000045,None,,,,11013,0002,2022_Apr_27_1147,localizer,2021.1.3,58.37987669059599,
block,faces,faces023.bmp,,,,,0,158,158,158,,,,,,,,,,,,,,,,,,,,,,,,,,,,,,,,,,,,,,,,,,None,,707.2244846000045,None,707.2244846000045,None,2022-04-27-11:59:01.679881,707.2254378999933,707.5406407999981,707.2254378999933,None,None,707.2254378999933,None,708.0404973000055,None,,,,11013,0002,2022_Apr_27_1147,localizer,2021.1.3,58.37987669059599,
block,faces,faces028.bmp,,,,,0,159,159,159,,,,,,,,,,,,,,,,,,,,,,,,,,,,,,,,,,,,,,,,,,None,,708.0404973000055,None,708.0404973000055,None,2022-04-27-11:59:02.495469,708.0418807999959,708.3411403999926,708.0418807999959,None,None,708.0418807999959,None,708.8573163000052,None,,,,11013,0002,2022_Apr_27_1147,localizer,2021.1.3,58.37987669059599,
block,faces,faces084.bmp,,,,,0,160,160,160,,,,,,,,,,,,,,,,,,,,,,,,,,,,,,,,,,,,,,,,,,None,,708.8573163000052,None,708.8573163000052,None,2022-04-27-11:59:03.312701,708.8954303999926,709.207282000003,708.8954303999926,None,None,708.8954303999926,None,709.6742745000025,None,,,,11013,0002,2022_Apr_27_1147,localizer,2021.1.3,58.37987669059599,
block,faces,faces089.bmp,,,,,0,161,161,161,,,,,,,,,,,,,,,,,,,,,,,,,,,,,,,,,,,,,,,,,,None,,709.6742745000025,None,709.6742745000025,None,2022-04-27-11:59:04.129874,709.6842044999939,709.9909273999947,709.6842044999939,None,None,709.6842044999939,None,710.4907340000005,None,,,,11013,0002,2022_Apr_27_1147,localizer,2021.1.3,58.37987669059599,
block,faces,faces083.bmp,,,,,0,162,162,162,,,,,,,,,,,,,,,,,,,,,,,,,,,,,,,,,,,,,,,,,,None,,710.4907340000005,None,710.4907340000005,None,2022-04-27-11:59:04.946121,710.4917218000046,710.7908732999931,710.4917218000046,None,None,710.4917218000046,None,711.2910076000059,None,,,,11013,0002,2022_Apr_27_1147,localizer,2021.1.3,58.37987669059599,
block,faces,faces017.bmp,,,,,0,163,163,163,,,,,,,,,,,,,,,,,,,,,,,,,,,,,,,,,,,,,,,,,,None,,711.2910076000059,None,711.2910076000059,None,2022-04-27-11:59:05.748387,711.292577900007,711.6077942999982,711.292577900007,711.292577900007,None,711.292577900007,711.292577900007,712.1075160999986,None,,,,11013,0002,2022_Apr_27_1147,localizer,2021.1.3,58.37987669059599,
block,faces,faces041.bmp,,,,,0,164,164,164,,,,,,,,,,,,,,,,,,,,,,,,,,,,,,,,,,,,,,,,,,None,,712.1075160999986,None,712.1075160999986,None,2022-04-27-11:59:06.562901,712.1175120999978,712.4243444000022,712.1175120999978,None,None,712.1175120999978,None,712.9261939000077,None,,,,11013,0002,2022_Apr_27_1147,localizer,2021.1.3,58.37987669059599,
block,faces,faces051.bmp,,,,,0,165,165,165,,,,,,,,,,,,,,,,,,,,,,,,,,,,,,,,,,,,,,,,,,None,,712.9261939000077,None,712.9261939000077,None,2022-04-27-11:59:07.386521,712.940416700003,713.2408701999957,712.940416700003,None,None,712.940416700003,None,713.7429015000031,None,,,,11013,0002,2022_Apr_27_1147,localizer,2021.1.3,58.37987669059599,
block,faces,faces074.bmp,,,,,0,166,166,166,,,,,,,,,,,,,,,,,,,,,,,,,,,,,,,,,,,,,,,,,,None,,713.7429015000031,None,713.7429015000031,None,2022-04-27-11:59:08.203231,713.7482089999976,714.0582292000036,713.7482089999976,None,None,713.7482089999976,None,714.5638008000038,None,,,,11013,0002,2022_Apr_27_1147,localizer,2021.1.3,58.37987669059599,
block_end,faces,faces057.bmp,,,,,0,167,167,167,,,,,,,,,,,,,,,,,,,,,,,,,,,,,,,,,,,,,,,,,,None,,714.5638008000038,None,714.5638008000038,None,2022-04-27-11:59:09.023231,714.5679674999992,714.8742919000069,714.5679674999992,None,None,714.5679674999992,None,715.3743233999936,None,,,,11013,0002,2022_Apr_27_1147,localizer,2021.1.3,58.37987669059599,
block_start,scrambled,scrambled085.bmp,,,,,0,168,168,168,,,,,,,,,,,,,,,,,,,,,,,,,,,,,,,,,,,,,,,,,,t,1.7872351999976672,715.3740500999993,None,715.3740500999993,None,2022-04-27-11:59:11.644507,717.1918571999995,717.5076010000048,717.1918571999995,None,None,717.1918571999995,None,717.9909757999936,None,,,,11013,0002,2022_Apr_27_1147,localizer,2021.1.3,58.37987669059599,
block,scrambled,scrambled032.bmp,,,,,0,169,169,169,,,,,,,,,,,,,,,,,,,,,,,,,,,,,,,,,,,,,,,,,,None,,717.9909757999936,None,717.9909757999936,None,2022-04-27-11:59:12.448357,718.0020029000007,718.3075829000009,718.0020029000007,718.0020029000007,None,718.0020029000007,718.0020029000007,718.8077742999973,None,,,,11013,0002,2022_Apr_27_1147,localizer,2021.1.3,58.37987669059599,
block,scrambled,scrambled050.bmp,,,,,0,170,170,170,,,,,,,,,,,,,,,,,,,,,,,,,,,,,,,,,,,,,,,,,,None,,718.8077742999973,None,718.8077742999973,None,2022-04-27-11:59:13.263376,718.8176097999967,719.1243355000042,718.8176097999967,None,None,718.8176097999967,None,719.6240199999971,None,,,,11013,0002,2022_Apr_27_1147,localizer,2021.1.3,58.37987669059599,
block,scrambled,scrambled021.bmp,,,,,0,171,171,171,,,,,,,,,,,,,,,,,,,,,,,,,,,,,,,,,,,,,,,,,,None,,719.6240199999971,None,719.6240199999971,None,2022-04-27-11:59:14.079847,719.6253795999946,719.924832100005,719.6253795999946,None,None,719.6253795999946,None,720.4248286000017,None,,,,11013,0002,2022_Apr_27_1147,localizer,2021.1.3,58.37987669059599,
block,scrambled,scrambled019.bmp,,,,,0,172,172,172,,,,,,,,,,,,,,,,,,,,,,,,,,,,,,,,,,,,,,,,,,None,,720.4248286000017,None,720.4248286000017,None,2022-04-27-11:59:14.883394,720.4279447000008,720.741540300005,720.4279447000008,720.4279447000008,None,720.4279447000008,720.4279447000008,721.2408882999968,None,,,,11013,0002,2022_Apr_27_1147,localizer,2021.1.3,58.37987669059599,
block,scrambled,scrambled022.bmp,,,,,0,173,173,173,,,,,,,,,,,,,,,,,,,,,,,,,,,,,,,,,,,,,,,,,,None,,721.2408882999968,None,721.2408882999968,None,2022-04-27-11:59:15.696276,721.2418309000059,721.5409333999996,721.2418309000059,None,None,721.2418309000059,None,722.0409651000024,None,,,,11013,0002,2022_Apr_27_1147,localizer,2021.1.3,58.37987669059599,
block,scrambled,scrambled011.bmp,,,,,0,174,174,174,,,,,,,,,,,,,,,,,,,,,,,,,,,,,,,,,,,,,,,,,,None,,722.0409651000024,None,722.0409651000024,None,2022-04-27-11:59:16.498060,722.0420414999971,722.3574304000067,722.0420414999971,722.0420414999971,None,722.0420414999971,722.0420414999971,722.8574659999955,None,,,,11013,0002,2022_Apr_27_1147,localizer,2021.1.3,58.37987669059599,
block,scrambled,scrambled023.bmp,,,,,0,175,175,175,,,,,,,,,,,,,,,,,,,,,,,,,,,,,,,,,,,,,,,,,,None,,722.8574659999955,None,722.8574659999955,None,2022-04-27-11:59:17.312854,722.8583884999971,723.157481000002,722.8583884999971,None,None,722.8583884999971,None,723.6577121999959,None,,,,11013,0002,2022_Apr_27_1147,localizer,2021.1.3,58.37987669059599,
block,scrambled,scrambled039.bmp,,,,,0,176,176,176,,,,,,,,,,,,,,,,,,,,,,,,,,,,,,,,,,,,,,,,,,None,,723.6577121999959,None,723.6577121999959,None,2022-04-27-11:59:18.115322,723.6594369999948,723.9742562000029,723.6594369999948,723.6594369999948,None,723.6594369999948,723.6594369999948,724.4744397999981,None,,,,11013,0002,2022_Apr_27_1147,localizer,2021.1.3,58.37987669059599,
block,scrambled,scrambled010.bmp,,,,,0,177,177,177,,,,,,,,,,,,,,,,,,,,,,,,,,,,,,,,,,,,,,,,,,None,,724.4744397999981,None,724.4744397999981,None,2022-04-27-11:59:18.930018,724.4751513999945,724.7742591999995,724.4751513999945,None,None,724.4751513999945,None,725.2755102000025,None,,,,11013,0002,2022_Apr_27_1147,localizer,2021.1.3,58.37987669059599,
block,scrambled,scrambled013.bmp,,,,,0,178,178,178,,,,,,,,,,,,,,,,,,,,,,,,,,,,,,,,,,,,,,,,,,None,,725.2755102000025,None,725.2755102000025,None,2022-04-27-11:59:19.734800,725.2902734999952,725.5971755999926,725.2902734999952,725.2902734999952,None,725.2902734999952,725.2902734999952,726.0910671999969,None,,,,11013,0002,2022_Apr_27_1147,localizer,2021.1.3,58.37987669059599,
block,scrambled,scrambled036.bmp,,,,,0,179,179,179,,,,,,,,,,,,,,,,,,,,,,,,,,,,,,,,,,,,,,,,,,None,,726.0910671999969,None,726.0910671999969,None,2022-04-27-11:59:20.546654,726.091891899996,726.3910475000012,726.091891899996,None,None,726.091891899996,None,726.8916746999981,None,,,,11013,0002,2022_Apr_27_1147,localizer,2021.1.3,58.37987669059599,
block,scrambled,scrambled044.bmp,,,,,0,180,180,180,,,,,,,,,,,,,,,,,,,,,,,,,,,,,,,,,,,,,,,,,,None,,726.8916746999981,None,726.8916746999981,None,2022-04-27-11:59:21.350233,726.8948004999984,727.2082058999949,726.8948004999984,726.8948004999984,None,726.8948004999984,726.8948004999984,727.7076194000052,None,,,,11013,0002,2022_Apr_27_1147,localizer,2021.1.3,58.37987669059599,
block,scrambled,scrambled027.bmp,,,,,0,181,181,181,,,,,,,,,,,,,,,,,,,,,,,,,,,,,,,,,,,,,,,,,,None,,727.7076194000052,None,727.7076194000052,None,2022-04-27-11:59:22.163036,727.7084046999953,728.0075187000039,727.7084046999953,None,None,727.7084046999953,None,728.5075454999984,None,,,,11013,0002,2022_Apr_27_1147,localizer,2021.1.3,58.37987669059599,
block_end,scrambled,scrambled040.bmp,,,,,0,182,182,182,,,,,,,,,,,,,,,,,,,,,,,,,,,,,,,,,,,,,,,,,,None,,728.5075454999984,None,728.5075454999984,None,2022-04-27-11:59:22.963936,728.5088877999951,728.824317999999,728.5088877999951,728.5088877999951,None,728.5088877999951,728.5088877999951,729.3242819999956,None,,,,11013,0002,2022_Apr_27_1147,localizer,2021.1.3,58.37987669059599,
block_start,scenes,scenes056.bmp,,,,,0,183,183,183,,,,,,,,,,,,,,,,,,,,,,,,,,,,,,,,,,,,,,,,,,t,1.8368864000076428,729.324203199998,None,729.324203199998,None,2022-04-27-11:59:25.646386,731.2005267000059,731.5069449000002,731.2005267000059,None,None,731.2005267000059,None,732.0078022000031,None,,,,11013,0002,2022_Apr_27_1147,localizer,2021.1.3,58.37987669059599,
block,scenes,scenes015.bmp,,,,,0,184,184,184,,,,,,,,,,,,,,,,,,,,,,,,,,,,,,,,,,,,,,,,,,None,,732.0078022000031,None,732.0078022000031,None,2022-04-27-11:59:26.463688,732.0157967999985,732.3314616999996,732.0157967999985,None,None,732.0157967999985,None,732.8242641000048,None,,,,11013,0002,2022_Apr_27_1147,localizer,2021.1.3,58.37987669059599,
block,scenes,scenes076.bmp,,,,,0,185,185,185,,,,,,,,,,,,,,,,,,,,,,,,,,,,,,,,,,,,,,,,,,None,,732.8242641000048,None,732.8242641000048,None,2022-04-27-11:59:27.279653,732.8250999000011,733.1243461999984,732.8250999000011,None,None,732.8250999000011,None,733.6243570000021,None,,,,11013,0002,2022_Apr_27_1147,localizer,2021.1.3,58.37987669059599,
block,scenes,scenes012.bmp,,,,,0,186,186,186,,,,,,,,,,,,,,,,,,,,,,,,,,,,,,,,,,,,,,,,,,None,,733.6243570000021,None,733.6243570000021,None,2022-04-27-11:59:28.081856,733.6261831000011,733.941745499993,733.6261831000011,733.6261831000011,None,733.6261831000011,733.6261831000011,734.4414591000037,None,,,,11013,0002,2022_Apr_27_1147,localizer,2021.1.3,58.37987669059599,
block,scenes,scenes070.bmp,,,,,0,187,187,187,,,,,,,,,,,,,,,,,,,,,,,,,,,,,,,,,,,,,,,,,,None,,734.4414591000037,None,734.4414591000037,None,2022-04-27-11:59:28.897869,734.4423797000054,734.7576473999943,734.4423797000054,None,None,734.4423797000054,None,735.2579370999971,None,,,,11013,0002,2022_Apr_27_1147,localizer,2021.1.3,58.37987669059599,
block,scenes,scenes030.bmp,,,,,0,188,188,188,,,,,,,,,,,,,,,,,,,,,,,,,,,,,,,,,,,,,,,,,,None,,735.2579370999971,None,735.2579370999971,None,2022-04-27-11:59:29.713305,735.2584759000019,735.5740652999957,735.2584759000019,None,None,735.2584759000019,None,736.0590106999967,None,,,,11013,0002,2022_Apr_27_1147,localizer,2021.1.3,58.37987669059599,
block,scenes,scenes036.bmp,,,,,0,189,189,189,,,,,,,,,,,,,,,,,,,,,,,,,,,,,,,,,,,,,,,,,,None,,736.0590106999967,None,736.0590106999967,None,2022-04-27-11:59:30.519593,736.0775270000013,736.3760097000049,736.0775270000013,736.0775270000013,None,736.0775270000013,736.0775270000013,736.8744955999952,None,,,,11013,0002,2022_Apr_27_1147,localizer,2021.1.3,58.37987669059599,
block,scenes,scenes035.bmp,,,,,0,190,190,190,,,,,,,,,,,,,,,,,,,,,,,,,,,,,,,,,,,,,,,,,,None,,736.8744955999952,None,736.8744955999952,None,2022-04-27-11:59:31.329882,736.883777199997,737.1916560999962,736.883777199997,None,None,736.883777199997,None,737.6910239000077,None,,,,11013,0002,2022_Apr_27_1147,localizer,2021.1.3,58.37987669059599,
block,scenes,scenes002.bmp,,,,,0,191,191,191,,,,,,,,,,,,,,,,,,,,,,,,,,,,,,,,,,,,,,,,,,None,,737.6910239000077,None,737.6910239000077,None,2022-04-27-11:59:32.146627,737.6918352000066,737.9912322000018,737.6918352000066,None,None,737.6918352000066,None,738.492254499995,None,,,,11013,0002,2022_Apr_27_1147,localizer,2021.1.3,58.37987669059599,
block,scenes,scenes059.bmp,,,,,0,192,192,192,,,,,,,,,,,,,,,,,,,,,,,,,,,,,,,,,,,,,,,,,,None,,738.492254499995,None,738.492254499995,None,2022-04-27-11:59:32.952734,738.4962811000005,738.8076820999995,738.4962811000005,738.4962811000005,None,738.4962811000005,738.4962811000005,739.3076094999939,None,,,,11013,0002,2022_Apr_27_1147,localizer,2021.1.3,58.37987669059599,
block,scenes,scenes029.bmp,,,,,0,193,193,193,,,,,,,,,,,,,,,,,,,,,,,,,,,,,,,,,,,,,,,,,,None,,739.3076094999939,None,739.3076094999939,None,2022-04-27-11:59:33.762996,739.3086901000061,739.624453299999,739.3086901000061,None,None,739.3086901000061,None,740.1082401999971,None,,,,11013,0002,2022_Apr_27_1147,localizer,2021.1.3,58.37987669059599,
block,scenes,scenes085.bmp,,,,,0,194,194,194,,,,,,,,,,,,,,,,,,,,,,,,,,,,,,,,,,,,,,,,,,None,,740.1082401999971,None,740.1082401999971,None,2022-04-27-11:59:34.566608,740.1198678999936,740.4248798000044,740.1198678999936,740.1198678999936,None,740.1198678999936,740.1198678999936,740.9243573999935,None,,,,11013,0002,2022_Apr_27_1147,localizer,2021.1.3,58.37987669059599,
block,scenes,scenes022.bmp,,,,,0,195,195,195,,,,,,,,,,,,,,,,,,,,,,,,,,,,,,,,,,,,,,,,,,None,,740.9243573999935,None,740.9243573999935,None,2022-04-27-11:59:35.379745,740.9346052000037,741.2406701,740.9346052000037,None,None,740.9346052000037,None,741.7414344999939,None,,,,11013,0002,2022_Apr_27_1147,localizer,2021.1.3,58.37987669059599,
block,scenes,scenes033.bmp,,,,,0,196,196,196,,,,,,,,,,,,,,,,,,,,,,,,,,,,,,,,,,,,,,,,,,None,,741.7414344999939,None,741.7414344999939,None,2022-04-27-11:59:36.198035,741.7422038999939,742.0477891000046,741.7422038999939,None,None,741.7422038999939,None,742.5413308000076,None,,,,11013,0002,2022_Apr_27_1147,localizer,2021.1.3,58.37987669059599,
block_end,scenes,scenes038.bmp,,,,,0,197,197,197,,,,,,,,,,,,,,,,,,,,,,,,,,,,,,,,,,,,,,,,,,None,,742.5413308000076,None,742.5413308000076,None,2022-04-27-11:59:36.998690,742.5533810000052,742.8579473999998,742.5533810000052,742.5533810000052,None,742.5533810000052,742.5533810000052,743.3582774000039,None,,,,11013,0002,2022_Apr_27_1147,localizer,2021.1.3,58.37987669059599,
block_start,objects,objects027.bmp,,,,,0,198,198,198,,,,,,,,,,,,,,,,,,,,,,,,,,,,,,,,,,,,,,,,,,t,1.8016303000040352,743.3585182999959,None,743.3585182999959,None,2022-04-27-11:59:39.646572,745.191972200002,745.4924335999967,745.191972200002,None,None,745.191972200002,None,745.991257700001,None,,,,11013,0002,2022_Apr_27_1147,localizer,2021.1.3,58.37987669059599,
block,objects,objects043.bmp,,,,,0,199,199,199,,,,,,,,,,,,,,,,,,,,,,,,,,,,,,,,,,,,,,,,,,None,,745.991257700001,None,745.991257700001,None,2022-04-27-11:59:40.448856,745.9928739000025,746.2917029999953,745.9928739000025,745.9928739000025,None,745.9928739000025,745.9928739000025,746.8078005000076,None,,,,11013,0002,2022_Apr_27_1147,localizer,2021.1.3,58.37987669059599,
block,objects,objects010.bmp,,,,,0,200,200,200,,,,,,,,,,,,,,,,,,,,,,,,,,,,,,,,,,,,,,,,,,None,,746.8078005000076,None,746.8078005000076,None,2022-04-27-11:59:41.263212,746.8085379999975,747.1085982999939,746.8085379999975,None,None,746.8085379999975,None,747.6139463999949,None,,,,11013,0002,2022_Apr_27_1147,localizer,2021.1.3,58.37987669059599,
block,objects,objects026.bmp,,,,,0,201,201,201,,,,,,,,,,,,,,,,,,,,,,,,,,,,,,,,,,,,,,,,,,None,,747.6139463999949,None,747.6139463999949,None,2022-04-27-11:59:42.077275,747.6246156999987,747.9249332000036,747.6246156999987,None,None,747.6246156999987,None,748.4251302999998,None,,,,11013,0002,2022_Apr_27_1147,localizer,2021.1.3,58.37987669059599,
block,objects,objects002.bmp,,,,,0,202,202,202,,,,,,,,,,,,,,,,,,,,,,,,,,,,,,,,,,,,,,,,,,None,,748.4251302999998,None,748.4251302999998,None,2022-04-27-11:59:42.882407,748.4278145999997,748.7417738999939,748.4278145999997,None,None,748.4278145999997,None,749.2418563000043,None,,,,11013,0002,2022_Apr_27_1147,localizer,2021.1.3,58.37987669059599,
block,objects,objects041.bmp,,,,,0,203,203,203,,,,,,,,,,,,,,,,,,,,,,,,,,,,,,,,,,,,,,,,,,None,,749.2418563000043,None,749.2418563000043,None,2022-04-27-11:59:43.698421,749.2547300000006,749.5605893000029,749.2547300000006,None,None,749.2547300000006,None,750.0578841000039,None,,,,11013,0002,2022_Apr_27_1147,localizer,2021.1.3,58.37987669059599,
block,objects,objects063.bmp,,,,,0,204,204,204,,,,,,,,,,,,,,,,,,,,,,,,,,,,,,,,,,,,,,,,,,None,,750.0578841000039,None,750.0578841000039,None,2022-04-27-11:59:44.513271,750.0597825000004,750.374438800005,750.0597825000004,None,None,750.0597825000004,None,750.8745015999972,None,,,,11013,0002,2022_Apr_27_1147,localizer,2021.1.3,58.37987669059599,
block,objects,objects063.bmp,,,,,0,205,205,205,,,,,,,,,,,,,,,,,,,,,,,,,,,,,,,,,,,,,,,,,,None,,750.8745015999972,None,750.8745015999972,None,2022-04-27-11:59:45.329889,750.8753920000017,751.1742871000024,750.8753920000017,None,y,750.8753920000017,None,751.6749689000077,None,0.6638028000015765,,,11013,0002,2022_Apr_27_1147,localizer,2021.1.3,58.37987669059599,
block,objects,objects051.bmp,,,,,0,206,206,206,,,,,,,,,,,,,,,,,,,,,,,,,,,,,,,,,,,,,,,,,,None,,751.6749689000077,None,751.6749689000077,None,2022-04-27-11:59:46.133543,751.6775422000064,751.991474399998,751.6775422000064,751.6775422000064,None,751.6775422000064,751.6775422000064,752.4910397,None,,,,11013,0002,2022_Apr_27_1147,localizer,2021.1.3,58.37987669059599,
block,objects,objects047.bmp,,,,,0,207,207,207,,,,,,,,,,,,,,,,,,,,,,,,,,,,,,,,,,,,,,,,,,None,,752.4910397,None,752.4910397,None,2022-04-27-11:59:46.946568,752.4919111000054,752.7917707000015,752.4919111000054,None,None,752.4919111000054,None,753.2922997000074,None,,,,11013,0002,2022_Apr_27_1147,localizer,2021.1.3,58.37987669059599,
block,objects,objects028.bmp,,,,,0,208,208,208,,,,,,,,,,,,,,,,,,,,,,,,,,,,,,,,,,,,,,,,,,None,,753.2922997000074,None,753.2922997000074,None,2022-04-27-11:59:47.751637,753.3037378000008,753.6074285000068,753.3037378000008,753.3037378000008,None,753.3037378000008,753.3037378000008,754.1076249999984,None,,,,11013,0002,2022_Apr_27_1147,localizer,2021.1.3,58.37987669059599,
block,objects,objects040.bmp,,,,,0,209,209,209,,,,,,,,,,,,,,,,,,,,,,,,,,,,,,,,,,,,,,,,,,None,,754.1076249999984,None,754.1076249999984,None,2022-04-27-11:59:48.563218,754.1086300000024,754.4078853999963,754.1086300000024,None,None,754.1086300000024,None,754.9080262000003,None,,,,11013,0002,2022_Apr_27_1147,localizer,2021.1.3,58.37987669059599,
block,objects,objects019.bmp,,,,,0,210,210,210,,,,,,,,,,,,,,,,,,,,,,,,,,,,,,,,,,,,,,,,,,None,,754.9080262000003,None,754.9080262000003,None,2022-04-27-11:59:49.365610,754.910867300001,755.2243711000046,754.910867300001,754.910867300001,None,754.910867300001,754.910867300001,755.7251652000065,None,,,,11013,0002,2022_Apr_27_1147,localizer,2021.1.3,58.37987669059599,
block,objects,objects024.bmp,,,,,0,211,211,211,,,,,,,,,,,,,,,,,,,,,,,,,,,,,,,,,,,,,,,,,,None,,755.7251652000065,None,755.7251652000065,None,2022-04-27-11:59:50.181494,755.7370327999961,756.0410131999961,755.7370327999961,None,None,755.7370327999961,None,756.5472720000049,None,,,,11013,0002,2022_Apr_27_1147,localizer,2021.1.3,58.37987669059599,
block_end,objects,objects006.bmp,,,,,0,212,212,212,,,,,,,,,,,,,,,,,,,,,,,,,,,,,,,,,,,,,,,,,,None,,756.5472720000049,None,756.5472720000049,None,2022-04-27-11:59:51.010447,756.556570700006,756.8584881999996,756.556570700006,None,None,756.556570700006,None,757.356784199999,None,,,,11013,0002,2022_Apr_27_1147,localizer,2021.1.3,58.37987669059599,
block_start,scrambled,scrambled027.bmp,,,,,0,213,213,213,,,,,,,,,,,,,,,,,,,,,,,,,,,,,,,,,,,,,,,,,,t,1.8034592000039993,757.3567508999986,None,757.3567508999986,None,2022-04-27-11:59:53.645871,759.1921868999925,759.5080014999985,759.1921868999925,None,None,759.1921868999925,None,759.991306599995,None,,,,11013,0002,2022_Apr_27_1147,localizer,2021.1.3,58.37987669059599,
block,scrambled,scrambled006.bmp,,,,,0,214,214,214,,,,,,,,,,,,,,,,,,,,,,,,,,,,,,,,,,,,,,,,,,None,,759.991306599995,None,759.991306599995,None,2022-04-27-11:59:54.448685,759.9940076000057,760.3078546000033,759.9940076000057,759.9940076000057,None,759.9940076000057,759.9940076000057,760.8080741999962,None,,,,11013,0002,2022_Apr_27_1147,localizer,2021.1.3,58.37987669059599,
block,scrambled,scrambled021.bmp,,,,,0,215,215,215,,,,,,,,,,,,,,,,,,,,,,,,,,,,,,,,,,,,,,,,,,None,,760.8080741999962,None,760.8080741999962,None,2022-04-27-11:59:55.263679,760.8088016999973,761.1244189999998,760.8088016999973,None,None,760.8088016999973,None,761.608007299999,None,,,,11013,0002,2022_Apr_27_1147,localizer,2021.1.3,58.37987669059599,
block,scrambled,scrambled033.bmp,,,,,0,216,216,216,,,,,,,,,,,,,,,,,,,,,,,,,,,,,,,,,,,,,,,,,,None,,761.608007299999,None,761.608007299999,None,2022-04-27-11:59:56.065387,761.6196127000003,761.9245585000026,761.6196127000003,761.6196127000003,None,761.6196127000003,761.6196127000003,762.4249188000045,None,,,,11013,0002,2022_Apr_27_1147,localizer,2021.1.3,58.37987669059599,
block,scrambled,scrambled024.bmp,,,,,0,217,217,217,,,,,,,,,,,,,,,,,,,,,,,,,,,,,,,,,,,,,,,,,,None,,762.4249188000045,None,762.4249188000045,None,2022-04-27-11:59:56.880527,762.4255434999941,762.7411725999991,762.4255434999941,None,None,762.4255434999941,None,763.2411413000024,None,,,,11013,0002,2022_Apr_27_1147,localizer,2021.1.3,58.37987669059599,
block,scrambled,scrambled083.bmp,,,,,0,218,218,218,,,,,,,,,,,,,,,,,,,,,,,,,,,,,,,,,,,,,,,,,,None,,763.2411413000024,None,763.2411413000024,None,2022-04-27-11:59:57.696789,763.2495563999983,763.5577805000066,763.2495563999983,None,None,763.2495563999983,None,764.0579309999972,None,,,,11013,0002,2022_Apr_27_1147,localizer,2021.1.3,58.37987669059599,
block,scrambled,scrambled068.bmp,,,,,0,219,219,219,,,,,,,,,,,,,,,,,,,,,,,,,,,,,,,,,,,,,,,,,,None,,764.0579309999972,None,764.0579309999972,None,2022-04-27-11:59:58.513318,764.0587971000059,764.3578566000069,764.0587971000059,None,None,764.0587971000059,None,764.858104499997,None,,,,11013,0002,2022_Apr_27_1147,localizer,2021.1.3,58.37987669059599,
block,scrambled,scrambled019.bmp,,,,,0,220,220,220,,,,,,,,,,,,,,,,,,,,,,,,,,,,,,,,,,,,,,,,,,None,,764.858104499997,None,764.858104499997,None,2022-04-27-11:59:59.315462,764.8608206999925,765.1746065000043,764.8608206999925,764.8608206999925,None,764.8608206999925,764.8608206999925,765.6742501000059,None,,,,11013,0002,2022_Apr_27_1147,localizer,2021.1.3,58.37987669059599,
block,scrambled,scrambled018.bmp,,,,,0,221,221,221,,,,,,,,,,,,,,,,,,,,,,,,,,,,,,,,,,,,,,,,,,None,,765.6742501000059,None,765.6742501000059,None,2022-04-27-12:00:00.129637,765.6753434999991,765.9748954999959,765.6753434999991,None,None,765.6753434999991,None,766.4747709000018,None,,,,11013,0002,2022_Apr_27_1147,localizer,2021.1.3,58.37987669059599,
block,scrambled,scrambled086.bmp,,,,,0,222,222,222,,,,,,,,,,,,,,,,,,,,,,,,,,,,,,,,,,,,,,,,,,None,,766.4747709000018,None,766.4747709000018,None,2022-04-27-12:00:00.932127,766.4869197999942,766.7912120999972,766.4869197999942,766.4869197999942,None,766.4869197999942,766.4869197999942,767.2908726999973,None,,,,11013,0002,2022_Apr_27_1147,localizer,2021.1.3,58.37987669059599,
block,scrambled,scrambled074.bmp,,,,,0,223,223,223,,,,,,,,,,,,,,,,,,,,,,,,,,,,,,,,,,,,,,,,,,None,,767.2908726999973,None,767.2908726999973,None,2022-04-27-12:00:01.746265,767.2992609000066,767.6147419000044,767.2992609000066,None,None,767.2992609000066,None,768.1075848999986,None,,,,11013,0002,2022_Apr_27_1147,localizer,2021.1.3,58.37987669059599,
block,scrambled,scrambled076.bmp,,,,,0,224,224,224,,,,,,,,,,,,,,,,,,,,,,,,,,,,,,,,,,,,,,,,,,None,,768.1075848999986,None,768.1075848999986,None,2022-04-27-12:00:02.562973,768.1088516000018,768.4244450999977,768.1088516000018,None,None,768.1088516000018,None,768.9078574999963,None,,,,11013,0002,2022_Apr_27_1147,localizer,2021.1.3,58.37987669059599,
block,scrambled,scrambled029.bmp,,,,,0,225,225,225,,,,,,,,,,,,,,,,,,,,,,,,,,,,,,,,,,,,,,,,,,None,,768.9078574999963,None,768.9078574999963,None,2022-04-27-12:00:03.364244,768.908632000006,769.207900399997,768.908632000006,768.908632000006,None,768.908632000006,768.908632000006,769.7077838000056,None,,,,11013,0002,2022_Apr_27_1147,localizer,2021.1.3,58.37987669059599,
block,scrambled,scrambled084.bmp,,,,,0,226,226,226,,,,,,,,,,,,,,,,,,,,,,,,,,,,,,,,,,,,,,,,,,None,,769.7077838000056,None,769.7077838000056,None,2022-04-27-12:00:04.165399,769.7091534999927,770.0245874999964,769.7091534999927,769.7091534999927,None,769.7091534999927,769.7091534999927,770.5245259000018,None,,,,11013,0002,2022_Apr_27_1147,localizer,2021.1.3,58.37987669059599,
block_end,scrambled,scrambled011.bmp,,,,,0,227,227,227,,,,,,,,,,,,,,,,,,,,,,,,,,,,,,,,,,,,,,,,,,None,,770.5245259000018,None,770.5245259000018,None,2022-04-27-12:00:04.979892,770.5255010999972,770.8246472000028,770.5255010999972,None,None,770.5255010999972,None,771.3407921999984,None,,,,11013,0002,2022_Apr_27_1147,localizer,2021.1.3,58.37987669059599,
block_start,faces,faces073.bmp,,,,,0,228,228,228,,,,,,,,,,,,,,,,,,,,,,,,,,,,,,,,,,,,,,,,,,t,1.8191245000052731,771.3411032000004,None,771.3411032000004,None,2022-04-27-12:00:07.646687,773.1920888000022,773.4911083000043,773.1920888000022,None,None,773.1920888000022,None,773.9912627999962,None,,,,11013,0002,2022_Apr_27_1147,localizer,2021.1.3,58.37987669059599,
block,faces,faces020.bmp,,,,,0,229,229,229,,,,,,,,,,,,,,,,,,,,,,,,,,,,,,,,,,,,,,,,,,None,,773.9912627999962,None,773.9912627999962,None,2022-04-27-12:00:08.447643,773.9922357000032,774.2912368999969,773.9922357000032,773.9922357000032,None,773.9922357000032,773.9922357000032,774.791803099995,None,,,,11013,0002,2022_Apr_27_1147,localizer,2021.1.3,58.37987669059599,
block,faces,faces018.bmp,,,,,0,230,230,230,,,,,,,,,,,,,,,,,,,,,,,,,,,,,,,,,,,,,,,,,,None,,774.791803099995,None,774.791803099995,None,2022-04-27-12:00:09.250175,774.7944223999948,775.1077182000008,774.7944223999948,774.7944223999948,None,774.7944223999948,774.7944223999948,775.6091855000064,None,,,,11013,0002,2022_Apr_27_1147,localizer,2021.1.3,58.37987669059599,
block,faces,faces032.bmp,,,,,0,231,231,231,,,,,,,,,,,,,,,,,,,,,,,,,,,,,,,,,,,,,,,,,,None,,775.6091855000064,None,775.6091855000064,None,2022-04-27-12:00:10.066655,775.6123694999987,775.9248894000048,775.6123694999987,None,None,775.6123694999987,None,776.4243196999975,None,,,,11013,0002,2022_Apr_27_1147,localizer,2021.1.3,58.37987669059599,
block,faces,faces001.bmp,,,,,0,232,232,232,,,,,,,,,,,,,,,,,,,,,,,,,,,,,,,,,,,,,,,,,,None,,776.4243196999975,None,776.4243196999975,None,2022-04-27-12:00:10.879998,776.425556999995,776.7249249000015,776.425556999995,None,None,776.425556999995,None,777.225047900001,None,,,,11013,0002,2022_Apr_27_1147,localizer,2021.1.3,58.37987669059599,
block,faces,faces045.bmp,,,,,0,233,233,233,,,,,,,,,,,,,,,,,,,,,,,,,,,,,,,,,,,,,,,,,,None,,777.225047900001,None,777.225047900001,None,2022-04-27-12:00:11.683465,777.2379500999959,777.541604900005,777.2379500999959,777.2379500999959,None,777.2379500999959,777.2379500999959,778.0409580000065,None,,,,11013,0002,2022_Apr_27_1147,localizer,2021.1.3,58.37987669059599,
block,faces,faces009.bmp,,,,,0,234,234,234,,,,,,,,,,,,,,,,,,,,,,,,,,,,,,,,,,,,,,,,,,None,,778.0409580000065,None,778.0409580000065,None,2022-04-27-12:00:12.496314,778.0488380000024,778.3584581000032,778.0488380000024,None,None,778.0488380000024,None,778.8577926999948,None,,,,11013,0002,2022_Apr_27_1147,localizer,2021.1.3,58.37987669059599,
block,faces,faces088.bmp,,,,,0,235,235,235,,,,,,,,,,,,,,,,,,,,,,,,,,,,,,,,,,,,,,,,,,None,,778.8577926999948,None,778.8577926999948,None,2022-04-27-12:00:13.313179,778.8586840000062,779.1579484999966,778.8586840000062,None,None,778.8586840000062,None,779.6579431000079,None,,,,11013,0002,2022_Apr_27_1147,localizer,2021.1.3,58.37987669059599,
block,faces,faces005.bmp,,,,,0,236,236,236,,,,,,,,,,,,,,,,,,,,,,,,,,,,,,,,,,,,,,,,,,None,,779.6579431000079,None,779.6579431000079,None,2022-04-27-12:00:14.115336,779.6690295000008,779.9745865000004,779.6690295000008,779.6690295000008,None,779.6690295000008,779.6690295000008,780.4750692000031,None,,,,11013,0002,2022_Apr_27_1147,localizer,2021.1.3,58.37987669059599,
block,faces,faces079.bmp,,,,,0,237,237,237,,,,,,,,,,,,,,,,,,,,,,,,,,,,,,,,,,,,,,,,,,None,,780.4750692000031,None,780.4750692000031,None,2022-04-27-12:00:14.931446,780.4848875000025,780.7913748999999,780.4848875000025,None,None,780.4848875000025,None,781.2912875999988,None,,,,11013,0002,2022_Apr_27_1147,localizer,2021.1.3,58.37987669059599,
block,faces,faces010.bmp,,,,,0,238,238,238,,,,,,,,,,,,,,,,,,,,,,,,,,,,,,,,,,,,,,,,,,None,,781.2912875999988,None,781.2912875999988,None,2022-04-27-12:00:15.746677,781.292145600004,781.5911998999945,781.292145600004,None,None,781.292145600004,None,782.0914706999989,None,,,,11013,0002,2022_Apr_27_1147,localizer,2021.1.3,58.37987669059599,
block,faces,faces061.bmp,,,,,0,239,239,239,,,,,,,,,,,,,,,,,,,,,,,,,,,,,,,,,,,,,,,,,,None,,782.0914706999989,None,782.0914706999989,None,2022-04-27-12:00:16.548850,782.0942865999968,782.4080516999966,782.0942865999968,782.0942865999968,None,782.0942865999968,782.0942865999968,782.9092103999952,None,,,,11013,0002,2022_Apr_27_1147,localizer,2021.1.3,58.37987669059599,
block,faces,faces051.bmp,,,,,0,240,240,240,,,,,,,,,,,,,,,,,,,,,,,,,,,,,,,,,,,,,,,,,,None,,782.9092103999952,None,782.9092103999952,None,2022-04-27-12:00:17.366739,782.9123830000026,783.2254137999989,782.9123830000026,None,None,782.9123830000026,None,783.7245457000041,None,,,,11013,0002,2022_Apr_27_1147,localizer,2021.1.3,58.37987669059599,
block,faces,faces060.bmp,,,,,0,241,241,241,,,,,,,,,,,,,,,,,,,,,,,,,,,,,,,,,,,,,,,,,,None,,783.7245457000041,None,783.7245457000041,None,2022-04-27-12:00:18.179936,783.7255676000059,784.0246184999996,783.7255676000059,None,None,783.7255676000059,None,784.5247741,None,,,,11013,0002,2022_Apr_27_1147,localizer,2021.1.3,58.37987669059599,
block_end,faces,faces025.bmp,,,,,0,242,242,242,,,,,,,,,,,,,,,,,,,,,,,,,,,,,,,,,,,,,,,,,,None,,784.5247741,None,784.5247741,None,2022-04-27-12:00:18.982156,784.5259758000029,784.8253139000008,784.5259758000029,784.5259758000029,None,784.5259758000029,784.5259758000029,785.3254154999973,None,,,,11013,0002,2022_Apr_27_1147,localizer,2021.1.3,58.37987669059599,
null_block,null_block,null_block.bmp,,,,,0,243,243,243,,,,,,,,,,,,,,,,,,,,,,,,,,,,,,,,,,,,,,,,,,t,1.8336657999898307,785.3266067999939,None,785.3266067999939,None,2022-04-27-12:00:21.645100,787.1915057999955,None,787.1915057999955,None,None,787.1915057999955,None,787.2016030999948,None,,,,11013,0002,2022_Apr_27_1147,localizer,2021.1.3,58.37987669059599,
,,,,,,,,,,,,,,,,,,,,,,,,,,,,,,,,,,,,,,,,,,,,,,,,,,,,,,,,,,,,,,,,,,,,,799.2099153000017,None,,,,,,,
