block_type,condition,img_name,Button.thisRepN,Button.thisTrialN,Button.thisN,Button.thisIndex,trials.thisRepN,trials.thisTrialN,trials.thisN,trials.thisIndex,Ready_experimenter_text.started,Ready_experimenter_text.stopped,Ready_experimenter_resp.keys,Ready_experimenter_resp.rt,Ready_experimenter_resp.started,Ready_experimenter_resp.stopped,Alignment_background.started,Alignment_background.stopped,Alignment_image.started,Alignment_image.stopped,Alignment_resp.keys,Alignment_resp.rt,Alignment_resp.started,Alignment_resp.stopped,Button_text.started,Button_text.stopped,Index_text.started,Index_text.stopped,Index_resp.keys,Index_resp.rt,Index_resp.started,Index_resp.stopped,Middle_text.started,Middle_text.stopped,Middle_resp.keys,Middle_resp.rt,Middle_resp.started,Middle_resp.stopped,Repeat_text.started,Repeat_text.stopped,Repeat_resp.keys,Repeat_resp.corr,Repeat_resp.rt,Repeat_resp.started,Repeat_resp.stopped,instruction_text.started,instruction_text.stopped,key_resp.keys,key_resp.rt,key_resp.started,key_resp.stopped,scanner_t.keys,scanner_t.rt,scanner_t.started,scanner_t.stopped,fixation_wait_for_t.started,fixation_wait_for_t.stopped,real_timestamp_trial_start,image.started,image.stopped,fixation.started,fixation.stopped,repeat_response.keys,repeat_response.started,repeat_response.stopped,fixation_null.started,fixation_null.stopped,repeat_response.rt,end_text.started,end_text.stopped,participant,run,date,expName,psychopyVersion,frameRate,
,,,,,,,,,,,16.538003499998013,None,return,15.321718999999575,16.538003499998013,None,,,,,,,,,,,,,,,,,,,,,,,,,,,,,,,,,,,,,,,,,,,,,,,,,,,,,,,22002,0001,2021_Sep_24_1406,localizer,2021.1.3,59.823675699750076,
,,,,,,,,,,,,,,,,,31.912158199993428,None,31.912158199993428,None,return,1.6156437000026926,31.912158199993428,None,,,,,,,,,,,,,,,,,,,,,,,,,,,,,,,,,,,,,,,,,,,,,,,22002,0001,2021_Sep_24_1406,localizer,2021.1.3,59.823675699750076,
,,,0,0,0,0,,,,,,,,,,,,,,,,,,,33.553421799995704,None,34.553886699999566,None,y,1.831385199999204,34.553886699999566,None,36.40391140000429,None,b,3.283230700006243,36.40391140000429,None,39.703587800002424,None,n,0,4.140394000001834,39.703587800002424,None,,,,,,,,,,,,,,,,,,,,,,,,,,22002,0001,2021_Sep_24_1406,localizer,2021.1.3,59.823675699750076,
,,,,,,,,,,,,,,,,,,,,,,,,,,,,,,,,,,,,,,,,,,,,,,43.870577499998035,None,y,58.408505200000945,43.870577499998035,None,,,,,,,,,,,,,,,,,,,,22002,0001,2021_Sep_24_1406,localizer,2021.1.3,59.823675699750076,
block_start,scrambled,scrambled023.bmp,,,,,0,0,0,0,,,,,,,,,,,,,,,,,,,,,,,,,,,,,,,,,,,,,,,,,,t,5.987770399995497,102.43114479999349,None,102.43114479999349,None,2021-09-24-14:08:25.030642,108.45721150000463,108.77071329999308,108.45721150000463,None,None,108.45721150000463,None,109.25402245000296,None,,,,22002,0001,2021_Sep_24_1406,localizer,2021.1.3,59.823675699750076,
block,scrambled,scrambled021.bmp,,,,,0,1,1,1,,,,,,,,,,,,,,,,,,,,,,,,,,,,,,,,,,,,,,,,,,None,,109.25402245000296,None,109.25402245000296,None,2021-09-24-14:08:25.855269,109.2820267000061,109.58739010000136,109.2820267000061,None,None,109.2820267000061,None,110.07075765000482,None,,,,22002,0001,2021_Sep_24_1406,localizer,2021.1.3,59.823675699750076,
block,scrambled,scrambled077.bmp,,,,,0,2,2,2,,,,,,,,,,,,,,,,,,,,,,,,,,,,,,,,,,,,,,,,,,None,,110.07075765000482,None,110.07075765000482,None,2021-09-24-14:08:26.666829,110.09085690000211,110.40406970000186,110.09085690000211,None,None,110.09085690000211,None,110.8874384499999,None,,,,22002,0001,2021_Sep_24_1406,localizer,2021.1.3,59.823675699750076,
block,scrambled,scrambled071.bmp,,,,,0,3,3,3,,,,,,,,,,,,,,,,,,,,,,,,,,,,,,,,,,,,,,,,,,None,,110.8874384499999,None,110.8874384499999,None,2021-09-24-14:08:27.484698,110.90858570000273,111.22042739999597,110.90858570000273,None,None,110.90858570000273,None,111.7038519499969,None,,,,22002,0001,2021_Sep_24_1406,localizer,2021.1.3,59.823675699750076,
block,scrambled,scrambled016.bmp,,,,,0,4,4,4,,,,,,,,,,,,,,,,,,,,,,,,,,,,,,,,,,,,,,,,,,None,,111.7038519499969,None,111.7038519499969,None,2021-09-24-14:08:28.292267,111.71375149999221,112.02073530000052,111.71375149999221,None,None,111.71375149999221,None,112.52079504999566,None,,,,22002,0001,2021_Sep_24_1406,localizer,2021.1.3,59.823675699750076,
block,scrambled,scrambled084.bmp,,,,,0,5,5,5,,,,,,,,,,,,,,,,,,,,,,,,,,,,,,,,,,,,,,,,,,None,,112.52079504999566,None,112.52079504999566,None,2021-09-24-14:08:29.117080,112.54243359999964,112.85407699999632,112.54243359999964,None,None,112.54243359999964,None,113.33718614999671,None,,,,22002,0001,2021_Sep_24_1406,localizer,2021.1.3,59.823675699750076,
block,scrambled,scrambled017.bmp,,,,,0,6,6,6,,,,,,,,,,,,,,,,,,,,,,,,,,,,,,,,,,,,,,,,,,None,,113.33718614999671,None,113.33718614999671,None,2021-09-24-14:08:29.925600,113.34553089999827,113.65408920000482,113.34553089999827,None,None,113.34553089999827,None,114.15410844999715,None,,,,22002,0001,2021_Sep_24_1406,localizer,2021.1.3,59.823675699750076,
block,scrambled,scrambled042.bmp,,,,,0,7,7,7,,,,,,,,,,,,,,,,,,,,,,,,,,,,,,,,,,,,,,,,,,None,,114.15410844999715,None,114.15410844999715,None,2021-09-24-14:08:30.751400,114.17058330000145,114.47069010000268,114.17058330000145,None,None,114.17058330000145,None,114.97077505000053,None,,,,22002,0001,2021_Sep_24_1406,localizer,2021.1.3,59.823675699750076,
block,scrambled,scrambled004.bmp,,,,,0,8,8,8,,,,,,,,,,,,,,,,,,,,,,,,,,,,,,,,,,,,,,,,,,None,,114.97077505000053,None,114.97077505000053,None,2021-09-24-14:08:31.567252,114.98666609999782,115.28727610000351,114.98666609999782,None,None,114.98666609999782,None,115.78736095000059,None,,,,22002,0001,2021_Sep_24_1406,localizer,2021.1.3,59.823675699750076,
block,scrambled,scrambled038.bmp,,,,,0,9,9,9,,,,,,,,,,,,,,,,,,,,,,,,,,,,,,,,,,,,,,,,,,None,,115.78736095000059,None,115.78736095000059,None,2021-09-24-14:08:32.383853,115.8083753999963,116.1207446000044,115.8083753999963,None,None,115.8083753999963,None,116.60412935000787,None,,,,22002,0001,2021_Sep_24_1406,localizer,2021.1.3,59.823675699750076,
block,scrambled,scrambled031.bmp,,,,,0,10,10,10,,,,,,,,,,,,,,,,,,,,,,,,,,,,,,,,,,,,,,,,,,None,,116.60412935000787,None,116.60412935000787,None,2021-09-24-14:08:33.201402,116.62669580000511,116.93738230000599,116.62669580000511,None,None,116.62669580000511,None,117.42068605000387,None,,,,22002,0001,2021_Sep_24_1406,localizer,2021.1.3,59.823675699750076,
block,scrambled,scrambled060.bmp,,,,,0,11,11,11,,,,,,,,,,,,,,,,,,,,,,,,,,,,,,,,,,,,,,,,,,None,,117.42068605000387,None,117.42068605000387,None,2021-09-24-14:08:34.017599,117.4415333999932,117.75412480000523,117.4415333999932,None,None,117.4415333999932,None,118.23748104999541,None,,,,22002,0001,2021_Sep_24_1406,localizer,2021.1.3,59.823675699750076,
block,scrambled,scrambled080.bmp,,,,,0,12,12,12,,,,,,,,,,,,,,,,,,,,,,,,,,,,,,,,,,,,,,,,,,None,,118.23748104999541,None,118.23748104999541,None,2021-09-24-14:08:34.833992,118.25760640000226,118.57078900000488,118.25760640000226,None,None,118.25760640000226,None,119.05415015000327,None,,,,22002,0001,2021_Sep_24_1406,localizer,2021.1.3,59.823675699750076,
block,scrambled,scrambled018.bmp,,,,,0,13,13,13,,,,,,,,,,,,,,,,,,,,,,,,,,,,,,,,,,,,,,,,,,None,,119.05415015000327,None,119.05415015000327,None,2021-09-24-14:08:35.651444,119.07604139999603,119.38731940000434,119.07604139999603,None,None,119.07604139999603,None,119.87068625000248,None,,,,22002,0001,2021_Sep_24_1406,localizer,2021.1.3,59.823675699750076,
block_end,scrambled,scrambled036.bmp,,,,,0,14,14,14,,,,,,,,,,,,,,,,,,,,,,,,,,,,,,,,,,,,,,,,,,None,,119.87068625000248,None,119.87068625000248,None,2021-09-24-14:08:36.459275,119.87934759999916,120.1873065999971,119.87934759999916,None,None,119.87934759999916,None,120.68747784999724,None,,,,22002,0001,2021_Sep_24_1406,localizer,2021.1.3,59.823675699750076,
block_start,faces,faces058.bmp,,,,,0,15,15,15,,,,,,,,,,,,,,,,,,,,,,,,,,,,,,,,,,,,,,,,,,t,18.830265000011423,120.68723979999777,None,120.68723979999777,None,2021-09-24-14:08:56.134847,139.55376150000666,139.85412180000276,139.55376150000666,None,None,139.55376150000666,None,140.3541081500065,None,,,,22002,0001,2021_Sep_24_1406,localizer,2021.1.3,59.823675699750076,
block,faces,faces059.bmp,,,,,0,16,16,16,,,,,,,,,,,,,,,,,,,,,,,,,,,,,,,,,,,,,,,,,,None,,140.3541081500065,None,140.3541081500065,None,2021-09-24-14:08:56.942876,140.36193539999658,140.67085059999954,140.36193539999658,None,None,140.36193539999658,None,141.17080204999948,None,,,,22002,0001,2021_Sep_24_1406,localizer,2021.1.3,59.823675699750076,
block,faces,faces001.bmp,,,,,0,17,17,17,,,,,,,,,,,,,,,,,,,,,,,,,,,,,,,,,,,,,,,,,,None,,141.17080204999948,None,141.17080204999948,None,2021-09-24-14:08:57.767292,141.19331299999612,141.50424549999298,141.19331299999612,None,None,141.19331299999612,None,141.98747275000497,None,,,,22002,0001,2021_Sep_24_1406,localizer,2021.1.3,59.823675699750076,
block,faces,faces010.bmp,,,,,0,18,18,18,,,,,,,,,,,,,,,,,,,,,,,,,,,,,,,,,,,,,,,,,,None,,141.98747275000497,None,141.98747275000497,None,2021-09-24-14:08:58.583966,142.00814869999886,142.3209199999983,142.00814869999886,None,None,142.00814869999886,None,142.8042796499998,None,,,,22002,0001,2021_Sep_24_1406,localizer,2021.1.3,59.823675699750076,
block,faces,faces015.bmp,,,,,0,19,19,19,,,,,,,,,,,,,,,,,,,,,,,,,,,,,,,,,,,,,,,,,,None,,142.8042796499998,None,142.8042796499998,None,2021-09-24-14:08:59.400756,142.82749429999967,143.13756249999278,142.82749429999967,None,None,142.82749429999967,None,143.620904050002,None,,,,22002,0001,2021_Sep_24_1406,localizer,2021.1.3,59.823675699750076,
block,faces,faces017.bmp,,,,,0,20,20,20,,,,,,,,,,,,,,,,,,,,,,,,,,,,,,,,,,,,,,,,,,None,,143.620904050002,None,143.620904050002,None,2021-09-24-14:09:00.217433,143.6488887000014,143.95418159999826,143.6488887000014,None,None,143.6488887000014,None,144.43741094999714,None,,,,22002,0001,2021_Sep_24_1406,localizer,2021.1.3,59.823675699750076,
block,faces,faces089.bmp,,,,,0,21,21,21,,,,,,,,,,,,,,,,,,,,,,,,,,,,,,,,,,,,,,,,,,None,,144.43741094999714,None,144.43741094999714,None,2021-09-24-14:09:01.033934,144.4574486000056,144.77093040000182,144.4574486000056,None,None,144.4574486000056,None,145.25427145000722,None,,,,22002,0001,2021_Sep_24_1406,localizer,2021.1.3,59.823675699750076,
block,faces,faces037.bmp,,,,,0,22,22,22,,,,,,,,,,,,,,,,,,,,,,,,,,,,,,,,,,,,,,,,,,None,,145.25427145000722,None,145.25427145000722,None,2021-09-24-14:09:01.851567,145.27602269999625,145.5875759000046,145.27602269999625,None,None,145.27602269999625,None,146.0707438500016,None,,,,22002,0001,2021_Sep_24_1406,localizer,2021.1.3,59.823675699750076,
block,faces,faces012.bmp,,,,,0,23,23,23,,,,,,,,,,,,,,,,,,,,,,,,,,,,,,,,,,,,,,,,,,None,,146.0707438500016,None,146.0707438500016,None,2021-09-24-14:09:02.660174,146.08278040000005,146.38762049999787,146.08278040000005,None,None,146.08278040000005,None,146.88761305000517,None,,,,22002,0001,2021_Sep_24_1406,localizer,2021.1.3,59.823675699750076,
block,faces,faces002.bmp,,,,,0,24,24,24,,,,,,,,,,,,,,,,,,,,,,,,,,,,,,,,,,,,,,,,,,None,,146.88761305000517,None,146.88761305000517,None,2021-09-24-14:09:03.485093,146.91019799999776,147.2207095000049,146.91019799999776,None,None,146.91019799999776,None,147.70429795000237,None,,,,22002,0001,2021_Sep_24_1406,localizer,2021.1.3,59.823675699750076,
block,faces,faces063.bmp,,,,,0,25,25,25,,,,,,,,,,,,,,,,,,,,,,,,,,,,,,,,,,,,,,,,,,None,,147.70429795000237,None,147.70429795000237,None,2021-09-24-14:09:04.300816,147.72382250000373,148.03765379999822,147.72382250000373,None,None,147.72382250000373,None,148.52098535000405,None,,,,22002,0001,2021_Sep_24_1406,localizer,2021.1.3,59.823675699750076,
block,faces,faces007.bmp,,,,,0,26,26,26,,,,,,,,,,,,,,,,,,,,,,,,,,,,,,,,,,,,,,,,,,None,,148.52098535000405,None,148.52098535000405,None,2021-09-24-14:09:05.118281,148.54357890000392,148.8542288000026,148.54357890000392,None,None,148.54357890000392,None,149.33763334999676,None,,,,22002,0001,2021_Sep_24_1406,localizer,2021.1.3,59.823675699750076,
block,faces,faces014.bmp,,,,,0,27,27,27,,,,,,,,,,,,,,,,,,,,,,,,,,,,,,,,,,,,,,,,,,None,,149.33763334999676,None,149.33763334999676,None,2021-09-24-14:09:05.934180,149.35800039999594,149.67101340000227,149.35800039999594,None,None,149.35800039999594,None,150.15431545000175,None,,,,22002,0001,2021_Sep_24_1406,localizer,2021.1.3,59.823675699750076,
block,faces,faces038.bmp,,,,,0,28,28,28,,,,,,,,,,,,,,,,,,,,,,,,,,,,,,,,,,,,,,,,,,None,,150.15431545000175,None,150.15431545000175,None,2021-09-24-14:09:06.750641,150.17993410000054,150.48762200000056,150.17993410000054,None,None,150.17993410000054,None,150.97098654999573,None,,,,22002,0001,2021_Sep_24_1406,localizer,2021.1.3,59.823675699750076,
block_end,faces,faces087.bmp,,,,,0,29,29,29,,,,,,,,,,,,,,,,,,,,,,,,,,,,,,,,,,,,,,,,,,None,,150.97098654999573,None,150.97098654999573,None,2021-09-24-14:09:07.567284,150.99316260000342,151.30430980000529,150.99316260000342,None,None,150.99316260000342,None,151.78766545000545,None,,,,22002,0001,2021_Sep_24_1406,localizer,2021.1.3,59.823675699750076,
block_start,scenes,scenes068.bmp,,,,,0,30,30,30,,,,,,,,,,,,,,,,,,,,,,,,,,,,,,,,,,,,,,,,,,t,3.8700629000086337,151.78760670000338,None,151.78760670000338,None,2021-09-24-14:09:12.274991,155.69444479999947,156.0043117000023,155.69444479999947,None,None,155.69444479999947,None,156.5043517500075,None,,,,22002,0001,2021_Sep_24_1406,localizer,2021.1.3,59.823675699750076,
block,scenes,scenes071.bmp,,,,,0,31,31,31,,,,,,,,,,,,,,,,,,,,,,,,,,,,,,,,,,,,,,,,,,None,,156.5043517500075,None,156.5043517500075,None,2021-09-24-14:09:13.100652,156.52671970000665,156.8376505000051,156.52671970000665,None,None,156.52671970000665,None,157.32083724999976,None,,,,22002,0001,2021_Sep_24_1406,localizer,2021.1.3,59.823675699750076,
block,scenes,scenes007.bmp,,,,,0,32,32,32,,,,,,,,,,,,,,,,,,,,,,,,,,,,,,,,,,,,,,,,,,None,,157.32083724999976,None,157.32083724999976,None,2021-09-24-14:09:13.909539,157.3329281000042,157.6376569999993,157.3329281000042,None,None,157.3329281000042,None,158.1375138500065,None,,,,22002,0001,2021_Sep_24_1406,localizer,2021.1.3,59.823675699750076,
block,scenes,scenes074.bmp,,,,,0,33,33,33,,,,,,,,,,,,,,,,,,,,,,,,,,,,,,,,,,,,,,,,,,None,,158.1375138500065,None,158.1375138500065,None,2021-09-24-14:09:14.733824,158.15872449999733,158.47043839999242,158.15872449999733,None,None,158.15872449999733,None,158.95411334999372,None,,,,22002,0001,2021_Sep_24_1406,localizer,2021.1.3,59.823675699750076,
block,scenes,scenes001.bmp,,,,,0,34,34,34,,,,,,,,,,,,,,,,,,,,,,,,,,,,,,,,,,,,,,,,,,None,,158.95411334999372,None,158.95411334999372,None,2021-09-24-14:09:15.548196,158.96672769999714,159.27102159999777,158.96672769999714,None,None,158.96672769999714,None,159.77086735000776,None,,,,22002,0001,2021_Sep_24_1406,localizer,2021.1.3,59.823675699750076,
block,scenes,scenes057.bmp,,,,,0,35,35,35,,,,,,,,,,,,,,,,,,,,,,,,,,,,,,,,,,,,,,,,,,None,,159.77086735000776,None,159.77086735000776,None,2021-09-24-14:09:16.368198,159.79228789999615,160.10432589999982,159.79228789999615,None,None,159.79228789999615,None,160.58770665000193,None,,,,22002,0001,2021_Sep_24_1406,localizer,2021.1.3,59.823675699750076,
block,scenes,scenes004.bmp,,,,,0,36,36,36,,,,,,,,,,,,,,,,,,,,,,,,,,,,,,,,,,,,,,,,,,None,,160.58770665000193,None,160.58770665000193,None,2021-09-24-14:09:17.185233,160.61037749999377,160.92083889999776,160.61037749999377,None,None,160.61037749999377,None,161.4042600500019,None,,,,22002,0001,2021_Sep_24_1406,localizer,2021.1.3,59.823675699750076,
block,scenes,scenes027.bmp,,,,,0,37,37,37,,,,,,,,,,,,,,,,,,,,,,,,,,,,,,,,,,,,,,,,,,None,,161.4042600500019,None,161.4042600500019,None,2021-09-24-14:09:17.992724,161.412109900004,161.72094159999688,161.412109900004,None,None,161.412109900004,None,162.22106075000775,None,,,,22002,0001,2021_Sep_24_1406,localizer,2021.1.3,59.823675699750076,
block,scenes,scenes014.bmp,,,,,0,38,38,38,,,,,,,,,,,,,,,,,,,,,,,,,,,,,,,,,,,,,,,,,,None,,162.22106075000775,None,162.22106075000775,None,2021-09-24-14:09:18.817573,162.24319399999513,162.55437019999954,162.24319399999513,None,None,162.24319399999513,None,163.03771825000004,None,,,,22002,0001,2021_Sep_24_1406,localizer,2021.1.3,59.823675699750076,
block,scenes,scenes063.bmp,,,,,0,39,39,39,,,,,,,,,,,,,,,,,,,,,,,,,,,,,,,,,,,,,,,,,,None,,163.03771825000004,None,163.03771825000004,None,2021-09-24-14:09:19.634096,163.05916030000662,163.37102890000097,163.05916030000662,None,None,163.05916030000662,None,163.8543868500041,None,,,,22002,0001,2021_Sep_24_1406,localizer,2021.1.3,59.823675699750076,
block,scenes,scenes029.bmp,,,,,0,40,40,40,,,,,,,,,,,,,,,,,,,,,,,,,,,,,,,,,,,,,,,,,,None,,163.8543868500041,None,163.8543868500041,None,2021-09-24-14:09:20.450729,163.8739523999975,164.18767220000154,163.8739523999975,None,None,163.8739523999975,None,164.67105004999613,None,,,,22002,0001,2021_Sep_24_1406,localizer,2021.1.3,59.823675699750076,
block,scenes,scenes044.bmp,,,,,0,41,41,41,,,,,,,,,,,,,,,,,,,,,,,,,,,,,,,,,,,,,,,,,,None,,164.67105004999613,None,164.67105004999613,None,2021-09-24-14:09:21.267158,164.69061020000663,165.00404689999414,164.69061020000663,None,None,164.69061020000663,None,165.48754495000176,None,,,,22002,0001,2021_Sep_24_1406,localizer,2021.1.3,59.823675699750076,
block,scenes,scenes065.bmp,,,,,0,42,42,42,,,,,,,,,,,,,,,,,,,,,,,,,,,,,,,,,,,,,,,,,,None,,165.48754495000176,None,165.48754495000176,None,2021-09-24-14:09:22.081410,165.50329340000462,165.80426740000257,165.50329340000462,None,None,165.50329340000462,None,166.30439024999797,None,,,,22002,0001,2021_Sep_24_1406,localizer,2021.1.3,59.823675699750076,
block,scenes,scenes011.bmp,,,,,0,43,43,43,,,,,,,,,,,,,,,,,,,,,,,,,,,,,,,,,,,,,,,,,,None,,166.30439024999797,None,166.30439024999797,None,2021-09-24-14:09:22.902309,166.32587950000016,166.6377291999961,166.32587950000016,None,None,166.32587950000016,None,167.12107475000667,None,,,,22002,0001,2021_Sep_24_1406,localizer,2021.1.3,59.823675699750076,
block_end,scenes,scenes022.bmp,,,,,0,44,44,44,,,,,,,,,,,,,,,,,,,,,,,,,,,,,,,,,,,,,,,,,,None,,167.12107475000667,None,167.12107475000667,None,2021-09-24-14:09:23.717575,167.14198879999458,167.454247200003,167.14198879999458,None,None,167.14198879999458,None,167.93758074999496,None,,,,22002,0001,2021_Sep_24_1406,localizer,2021.1.3,59.823675699750076,
block_start,objects,objects032.bmp,,,,,0,45,45,45,,,,,,,,,,,,,,,,,,,,,,,,,,,,,,,,,,,,,,,,,,t,3.253543600003468,167.93763849999232,None,167.93763849999232,None,2021-09-24-14:09:27.811542,171.23473280000326,171.5377906999929,171.23473280000326,None,None,171.23473280000326,None,172.03776784999937,None,,,,22002,0001,2021_Sep_24_1406,localizer,2021.1.3,59.823675699750076,
block,objects,objects032.bmp,,,,,0,46,46,46,,,,,,,,,,,,,,,,,,,,,,,,,,,,,,,,,,,,,,,,,,None,,172.03776784999937,None,172.03776784999937,None,2021-09-24-14:09:28.634325,172.04784050000308,172.35439199999382,172.04784050000308,None,None,172.04784050000308,None,172.8544332499936,None,,,,22002,0001,2021_Sep_24_1406,localizer,2021.1.3,59.823675699750076,
block,objects,objects073.bmp,,,,,0,47,47,47,,,,,,,,,,,,,,,,,,,,,,,,,,,,,,,,,,,,,,,,,,None,,172.8544332499936,None,172.8544332499936,None,2021-09-24-14:09:29.451933,172.8759396999958,173.18755030000466,172.8759396999958,None,y,172.8759396999958,None,173.67113325000392,None,0.11919669999042526,,,22002,0001,2021_Sep_24_1406,localizer,2021.1.3,59.823675699750076,
block,objects,objects014.bmp,,,,,0,48,48,48,,,,,,,,,,,,,,,,,,,,,,,,,,,,,,,,,,,,,,,,,,None,,173.67113325000392,None,173.67113325000392,None,2021-09-24-14:09:30.269778,173.69279479999386,174.00441470000078,173.69279479999386,None,None,173.69279479999386,None,174.48777724999528,None,,,,22002,0001,2021_Sep_24_1406,localizer,2021.1.3,59.823675699750076,
block,objects,objects021.bmp,,,,,0,49,49,49,,,,,,,,,,,,,,,,,,,,,,,,,,,,,,,,,,,,,,,,,,None,,174.48777724999528,None,174.48777724999528,None,2021-09-24-14:09:31.085093,174.50859460000356,174.8210323999956,174.50859460000356,None,None,174.50859460000356,None,175.30422145000776,None,,,,22002,0001,2021_Sep_24_1406,localizer,2021.1.3,59.823675699750076,
block,objects,objects072.bmp,,,,,0,50,50,50,,,,,,,,,,,,,,,,,,,,,,,,,,,,,,,,,,,,,,,,,,None,,175.30422145000776,None,175.30422145000776,None,2021-09-24-14:09:31.895889,175.31740630000422,175.62111449999793,175.31740630000422,None,None,175.31740630000422,None,176.12112144999847,None,,,,22002,0001,2021_Sep_24_1406,localizer,2021.1.3,59.823675699750076,
block,objects,objects006.bmp,,,,,0,51,51,51,,,,,,,,,,,,,,,,,,,,,,,,,,,,,,,,,,,,,,,,,,None,,176.12112144999847,None,176.12112144999847,None,2021-09-24-14:09:32.718440,176.14364720000594,176.45435980000184,176.14364720000594,None,None,176.14364720000594,None,176.93766734999954,None,,,,22002,0001,2021_Sep_24_1406,localizer,2021.1.3,59.823675699750076,
block,objects,objects044.bmp,,,,,0,52,52,52,,,,,,,,,,,,,,,,,,,,,,,,,,,,,,,,,,,,,,,,,,None,,176.93766734999954,None,176.93766734999954,None,2021-09-24-14:09:33.534178,176.9578196999937,177.27112370000395,176.9578196999937,None,None,176.9578196999937,None,177.75450544999913,None,,,,22002,0001,2021_Sep_24_1406,localizer,2021.1.3,59.823675699750076,
block,objects,objects036.bmp,,,,,0,53,53,53,,,,,,,,,,,,,,,,,,,,,,,,,,,,,,,,,,,,,,,,,,None,,177.75450544999913,None,177.75450544999913,None,2021-09-24-14:09:34.351854,177.77522179999505,178.08778950000124,177.77522179999505,None,None,177.77522179999505,None,178.5711276499991,None,,,,22002,0001,2021_Sep_24_1406,localizer,2021.1.3,59.823675699750076,
block,objects,objects085.bmp,,,,,0,54,54,54,,,,,,,,,,,,,,,,,,,,,,,,,,,,,,,,,,,,,,,,,,None,,178.5711276499991,None,178.5711276499991,None,2021-09-24-14:09:35.167451,178.59160600000178,178.90433639999537,178.59160600000178,None,None,178.59160600000178,None,179.3876039499941,None,,,,22002,0001,2021_Sep_24_1406,localizer,2021.1.3,59.823675699750076,
block,objects,objects018.bmp,,,,,0,55,55,55,,,,,,,,,,,,,,,,,,,,,,,,,,,,,,,,,,,,,,,,,,None,,179.3876039499941,None,179.3876039499941,None,2021-09-24-14:09:35.976073,179.3967363999982,179.70440610000514,179.3967363999982,None,None,179.3967363999982,None,180.20445895000594,None,,,,22002,0001,2021_Sep_24_1406,localizer,2021.1.3,59.823675699750076,
block,objects,objects002.bmp,,,,,0,56,56,56,,,,,,,,,,,,,,,,,,,,,,,,,,,,,,,,,,,,,,,,,,None,,180.20445895000594,None,180.20445895000594,None,2021-09-24-14:09:36.801779,180.2276952999964,180.53781110000273,180.2276952999964,None,None,180.2276952999964,None,181.0210954499984,None,,,,22002,0001,2021_Sep_24_1406,localizer,2021.1.3,59.823675699750076,
block,objects,objects048.bmp,,,,,0,57,57,57,,,,,,,,,,,,,,,,,,,,,,,,,,,,,,,,,,,,,,,,,,None,,181.0210954499984,None,181.0210954499984,None,2021-09-24-14:09:37.617630,181.04092410000158,181.354465299999,181.04092410000158,None,None,181.04092410000158,None,181.8377769499988,None,,,,22002,0001,2021_Sep_24_1406,localizer,2021.1.3,59.823675699750076,
block,objects,objects030.bmp,,,,,0,58,58,58,,,,,,,,,,,,,,,,,,,,,,,,,,,,,,,,,,,,,,,,,,None,,181.8377769499988,None,181.8377769499988,None,2021-09-24-14:09:38.435100,181.85866369999712,182.17108569999982,181.85866369999712,None,None,181.85866369999712,None,182.6545048500033,None,,,,22002,0001,2021_Sep_24_1406,localizer,2021.1.3,59.823675699750076,
block_end,objects,objects062.bmp,,,,,0,59,59,59,,,,,,,,,,,,,,,,,,,,,,,,,,,,,,,,,,,,,,,,,,None,,182.6545048500033,None,182.6545048500033,None,2021-09-24-14:09:39.251853,182.67555689999426,182.9876191999938,182.67555689999426,None,None,182.67555689999426,None,183.4709743500047,None,,,,22002,0001,2021_Sep_24_1406,localizer,2021.1.3,59.823675699750076,
null_block,null_block,null_block.bmp,,,,,0,60,60,60,,,,,,,,,,,,,,,,,,,,,,,,,,,,,,,,,,,,,,,,,,t,3.3726339999993797,183.47070099999837,None,183.47070099999837,None,2021-09-24-14:09:43.465482,186.88779849999702,None,186.88779849999702,None,None,186.88779849999702,None,186.8947477000038,None,,,,22002,0001,2021_Sep_24_1406,localizer,2021.1.3,59.823675699750076,
block_start,scenes,scenes001.bmp,,,,,0,61,61,61,,,,,,,,,,,,,,,,,,,,,,,,,,,,,,,,,,,,,,,,,,t,6.586752500006696,198.90425750000577,None,198.90425750000577,None,2021-09-24-14:10:02.114218,205.5231666000036,205.82108769999468,205.5231666000036,None,None,205.5231666000036,None,206.33793344999722,None,,,,22002,0001,2021_Sep_24_1406,localizer,2021.1.3,59.823675699750076,
block,scenes,scenes090.bmp,,,,,0,62,62,62,,,,,,,,,,,,,,,,,,,,,,,,,,,,,,,,,,,,,,,,,,None,,206.33793344999722,None,206.33793344999722,None,2021-09-24-14:10:02.934512,206.3589071000024,206.6712220000045,206.3589071000024,None,None,206.3589071000024,None,207.15435494999693,None,,,,22002,0001,2021_Sep_24_1406,localizer,2021.1.3,59.823675699750076,
block,scenes,scenes037.bmp,,,,,0,63,63,63,,,,,,,,,,,,,,,,,,,,,,,,,,,,,,,,,,,,,,,,,,None,,207.15435494999693,None,207.15435494999693,None,2021-09-24-14:10:03.748036,207.17118029999256,207.47128159999556,207.17118029999256,None,None,207.17118029999256,None,207.97126845000312,None,,,,22002,0001,2021_Sep_24_1406,localizer,2021.1.3,59.823675699750076,
block,scenes,scenes037.bmp,,,,,0,64,64,64,,,,,,,,,,,,,,,,,,,,,,,,,,,,,,,,,,,,,,,,,,None,,207.97126845000312,None,207.97126845000312,None,2021-09-24-14:10:04.567816,207.98134470000514,208.28776649999782,207.98134470000514,None,y,207.98134470000514,None,208.78791915000184,None,0.44553550001000986,,,22002,0001,2021_Sep_24_1406,localizer,2021.1.3,59.823675699750076,
block,scenes,scenes052.bmp,,,,,0,65,65,65,,,,,,,,,,,,,,,,,,,,,,,,,,,,,,,,,,,,,,,,,,None,,208.78791915000184,None,208.78791915000184,None,2021-09-24-14:10:05.384470,208.8080162999977,209.1212940999976,208.8080162999977,None,None,208.8080162999977,None,209.60463695000217,None,,,,22002,0001,2021_Sep_24_1406,localizer,2021.1.3,59.823675699750076,
block,scenes,scenes033.bmp,,,,,0,66,66,66,,,,,,,,,,,,,,,,,,,,,,,,,,,,,,,,,,,,,,,,,,None,,209.60463695000217,None,209.60463695000217,None,2021-09-24-14:10:06.201930,209.62309480000113,209.92128399999638,209.62309480000113,None,None,209.62309480000113,None,210.42127685000597,None,,,,22002,0001,2021_Sep_24_1406,localizer,2021.1.3,59.823675699750076,
block,scenes,scenes076.bmp,,,,,0,67,67,67,,,,,,,,,,,,,,,,,,,,,,,,,,,,,,,,,,,,,,,,,,None,,210.42127685000597,None,210.42127685000597,None,2021-09-24-14:10:07.018625,210.44346500000393,210.75458150000486,210.44346500000393,None,None,210.44346500000393,None,211.23783064999444,None,,,,22002,0001,2021_Sep_24_1406,localizer,2021.1.3,59.823675699750076,
block,scenes,scenes084.bmp,,,,,0,68,68,68,,,,,,,,,,,,,,,,,,,,,,,,,,,,,,,,,,,,,,,,,,None,,211.23783064999444,None,211.23783064999444,None,2021-09-24-14:10:07.831482,211.25412670000514,211.5546253999928,211.25412670000514,None,None,211.25412670000514,None,212.05456115000416,None,,,,22002,0001,2021_Sep_24_1406,localizer,2021.1.3,59.823675699750076,
block,scenes,scenes039.bmp,,,,,0,69,69,69,,,,,,,,,,,,,,,,,,,,,,,,,,,,,,,,,,,,,,,,,,None,,212.05456115000416,None,212.05456115000416,None,2021-09-24-14:10:08.651911,212.07572439999785,212.3879459000018,212.07572439999785,None,None,212.07572439999785,None,212.87132645000239,None,,,,22002,0001,2021_Sep_24_1406,localizer,2021.1.3,59.823675699750076,
block,scenes,scenes079.bmp,,,,,0,70,70,70,,,,,,,,,,,,,,,,,,,,,,,,,,,,,,,,,,,,,,,,,,None,,212.87132645000239,None,212.87132645000239,None,2021-09-24-14:10:09.467679,212.8923594999942,213.204462099995,212.8923594999942,None,None,212.8923594999942,None,213.68791985000135,None,,,,22002,0001,2021_Sep_24_1406,localizer,2021.1.3,59.823675699750076,
block,scenes,scenes058.bmp,,,,,0,71,71,71,,,,,,,,,,,,,,,,,,,,,,,,,,,,,,,,,,,,,,,,,,None,,213.68791985000135,None,213.68791985000135,None,2021-09-24-14:10:10.284287,213.7085720000032,214.02132850000635,213.7085720000032,None,None,213.7085720000032,None,214.50462105000625,None,,,,22002,0001,2021_Sep_24_1406,localizer,2021.1.3,59.823675699750076,
block,scenes,scenes092.bmp,,,,,0,72,72,72,,,,,,,,,,,,,,,,,,,,,,,,,,,,,,,,,,,,,,,,,,None,,214.50462105000625,None,214.50462105000625,None,2021-09-24-14:10:11.093347,214.50976089999313,214.821168399998,214.50976089999313,None,None,214.50976089999313,None,215.3211245500046,None,,,,22002,0001,2021_Sep_24_1406,localizer,2021.1.3,59.823675699750076,
block,scenes,scenes007.bmp,,,,,0,73,73,73,,,,,,,,,,,,,,,,,,,,,,,,,,,,,,,,,,,,,,,,,,None,,215.3211245500046,None,215.3211245500046,None,2021-09-24-14:10:11.909871,215.3223652000015,215.62127489999693,215.3223652000015,None,None,215.3223652000015,None,216.13798365000403,None,,,,22002,0001,2021_Sep_24_1406,localizer,2021.1.3,59.823675699750076,
block,scenes,scenes021.bmp,,,,,0,74,74,74,,,,,,,,,,,,,,,,,,,,,,,,,,,,,,,,,,,,,,,,,,None,,216.13798365000403,None,216.13798365000403,None,2021-09-24-14:10:12.734080,216.15863419999368,216.47130319999997,216.15863419999368,None,None,216.15863419999368,None,216.95467815000157,None,,,,22002,0001,2021_Sep_24_1406,localizer,2021.1.3,59.823675699750076,
block_end,scenes,scenes086.bmp,,,,,0,75,75,75,,,,,,,,,,,,,,,,,,,,,,,,,,,,,,,,,,,,,,,,,,None,,216.95467815000157,None,216.95467815000157,None,2021-09-24-14:10:13.551235,216.97472420000122,217.28796970000258,216.97472420000122,None,None,216.97472420000122,None,217.7713576500013,None,,,,22002,0001,2021_Sep_24_1406,localizer,2021.1.3,59.823675699750076,
null_block,null_block,null_block.bmp,,,,,0,76,76,76,,,,,,,,,,,,,,,,,,,,,,,,,,,,,,,,,,,,,,,,,,t,4.110907700000098,217.7713294999994,None,217.7713294999994,None,2021-09-24-14:10:18.499257,221.92137120000262,None,221.92137120000262,None,None,221.92137120000262,None,221.9191823000001,None,,,,22002,0001,2021_Sep_24_1406,localizer,2021.1.3,59.823675699750076,
block_start,scrambled,scrambled037.bmp,,,,,0,77,77,77,,,,,,,,,,,,,,,,,,,,,,,,,,,,,,,,,,,,,,,,,,t,12.285115500009852,233.92144689999986,None,233.92144689999986,None,2021-09-24-14:10:42.817916,246.23793819999264,246.53806740000437,246.23793819999264,None,None,246.23793819999264,None,247.03810754999577,None,,,,22002,0001,2021_Sep_24_1406,localizer,2021.1.3,59.823675699750076,
block,scrambled,scrambled029.bmp,,,,,0,78,78,78,,,,,,,,,,,,,,,,,,,,,,,,,,,,,,,,,,,,,,,,,,None,,247.03810754999577,None,247.03810754999577,None,2021-09-24-14:10:43.634677,247.0597626999952,247.3714947999979,247.0597626999952,None,None,247.0597626999952,None,247.85482045000245,None,,,,22002,0001,2021_Sep_24_1406,localizer,2021.1.3,59.823675699750076,
block,scrambled,scrambled077.bmp,,,,,0,79,79,79,,,,,,,,,,,,,,,,,,,,,,,,,,,,,,,,,,,,,,,,,,None,,247.85482045000245,None,247.85482045000245,None,2021-09-24-14:10:44.451412,247.86597749999783,248.17120379999687,247.86597749999783,None,None,247.86597749999783,None,248.67129415000673,None,,,,22002,0001,2021_Sep_24_1406,localizer,2021.1.3,59.823675699750076,
block,scrambled,scrambled072.bmp,,,,,0,80,80,80,,,,,,,,,,,,,,,,,,,,,,,,,,,,,,,,,,,,,,,,,,None,,248.67129415000673,None,248.67129415000673,None,2021-09-24-14:10:45.260091,248.680560599998,248.9881522999931,248.680560599998,None,None,248.680560599998,None,249.48802014999674,None,,,,22002,0001,2021_Sep_24_1406,localizer,2021.1.3,59.823675699750076,
block,scrambled,scrambled052.bmp,,,,,0,81,81,81,,,,,,,,,,,,,,,,,,,,,,,,,,,,,,,,,,,,,,,,,,None,,249.48802014999674,None,249.48802014999674,None,2021-09-24-14:10:46.082682,249.51178830000572,249.82144800000242,249.51178830000572,None,None,249.51178830000572,None,250.30469614999893,None,,,,22002,0001,2021_Sep_24_1406,localizer,2021.1.3,59.823675699750076,
block,scrambled,scrambled083.bmp,,,,,0,82,82,82,,,,,,,,,,,,,,,,,,,,,,,,,,,,,,,,,,,,,,,,,,None,,250.30469614999893,None,250.30469614999893,None,2021-09-24-14:10:46.893234,250.31255459999375,250.6214864999929,250.31255459999375,None,None,250.31255459999375,None,251.12150694999437,None,,,,22002,0001,2021_Sep_24_1406,localizer,2021.1.3,59.823675699750076,
block,scrambled,scrambled069.bmp,,,,,0,83,83,83,,,,,,,,,,,,,,,,,,,,,,,,,,,,,,,,,,,,,,,,,,None,,251.12150694999437,None,251.12150694999437,None,2021-09-24-14:10:47.717645,251.14261769999575,251.45479619999242,251.14261769999575,None,None,251.14261769999575,None,251.93814854999655,None,,,,22002,0001,2021_Sep_24_1406,localizer,2021.1.3,59.823675699750076,
block,scrambled,scrambled028.bmp,,,,,0,84,84,84,,,,,,,,,,,,,,,,,,,,,,,,,,,,,,,,,,,,,,,,,,None,,251.93814854999655,None,251.93814854999655,None,2021-09-24-14:10:48.534556,251.95356049999828,252.25480690000404,251.95356049999828,None,None,251.95356049999828,None,252.75459635000735,None,,,,22002,0001,2021_Sep_24_1406,localizer,2021.1.3,59.823675699750076,
block,scrambled,scrambled064.bmp,,,,,0,85,85,85,,,,,,,,,,,,,,,,,,,,,,,,,,,,,,,,,,,,,,,,,,None,,252.75459635000735,None,252.75459635000735,None,2021-09-24-14:10:49.343140,252.76142530000652,253.07147890000488,252.76142530000652,None,None,252.76142530000652,None,253.57141184999492,None,,,,22002,0001,2021_Sep_24_1406,localizer,2021.1.3,59.823675699750076,
block,scrambled,scrambled086.bmp,,,,,0,86,86,86,,,,,,,,,,,,,,,,,,,,,,,,,,,,,,,,,,,,,,,,,,None,,253.57141184999492,None,253.57141184999492,None,2021-09-24-14:10:50.168025,253.5909837999934,253.9048565999983,253.5909837999934,None,None,253.5909837999934,None,254.3880001499987,None,,,,22002,0001,2021_Sep_24_1406,localizer,2021.1.3,59.823675699750076,
block,scrambled,scrambled051.bmp,,,,,0,87,87,87,,,,,,,,,,,,,,,,,,,,,,,,,,,,,,,,,,,,,,,,,,None,,254.3880001499987,None,254.3880001499987,None,2021-09-24-14:10:50.984634,254.40799140000308,254.72150719999627,254.40799140000308,None,None,254.40799140000308,None,255.20487565000658,None,,,,22002,0001,2021_Sep_24_1406,localizer,2021.1.3,59.823675699750076,
block,scrambled,scrambled020.bmp,,,,,0,88,88,88,,,,,,,,,,,,,,,,,,,,,,,,,,,,,,,,,,,,,,,,,,None,,255.20487565000658,None,255.20487565000658,None,2021-09-24-14:10:51.802271,255.22238799999468,255.52151560000493,255.22238799999468,None,None,255.22238799999468,None,256.0215163500019,None,,,,22002,0001,2021_Sep_24_1406,localizer,2021.1.3,59.823675699750076,
block,scrambled,scrambled021.bmp,,,,,0,89,89,89,,,,,,,,,,,,,,,,,,,,,,,,,,,,,,,,,,,,,,,,,,None,,256.0215163500019,None,256.0215163500019,None,2021-09-24-14:10:52.618143,256.03145779999613,256.33810829999857,256.03145779999613,None,None,256.03145779999613,None,256.83808755000643,None,,,,22002,0001,2021_Sep_24_1406,localizer,2021.1.3,59.823675699750076,
block,scrambled,scrambled041.bmp,,,,,0,90,90,90,,,,,,,,,,,,,,,,,,,,,,,,,,,,,,,,,,,,,,,,,,None,,256.83808755000643,None,256.83808755000643,None,2021-09-24-14:10:53.431556,256.8457602999988,257.1548557999922,256.8457602999988,None,None,256.8457602999988,None,257.6544667500042,None,,,,22002,0001,2021_Sep_24_1406,localizer,2021.1.3,59.823675699750076,
block_end,scrambled,scrambled040.bmp,,,,,0,91,91,91,,,,,,,,,,,,,,,,,,,,,,,,,,,,,,,,,,,,,,,,,,None,,257.6544667500042,None,257.6544667500042,None,2021-09-24-14:10:54.244218,257.6597812999971,257.97150970000075,257.6597812999971,None,None,257.6597812999971,None,258.47154135000017,None,,,,22002,0001,2021_Sep_24_1406,localizer,2021.1.3,59.823675699750076,
block_start,objects,objects059.bmp,,,,,0,92,92,92,,,,,,,,,,,,,,,,,,,,,,,,,,,,,,,,,,,,,,,,,,t,9.178946400003042,258.47149219999847,None,258.47149219999847,None,2021-09-24-14:11:04.258897,267.682160700002,267.9882675999979,267.682160700002,None,None,267.682160700002,None,268.4882616500021,None,,,,22002,0001,2021_Sep_24_1406,localizer,2021.1.3,59.823675699750076,
block,objects,objects032.bmp,,,,,0,93,93,93,,,,,,,,,,,,,,,,,,,,,,,,,,,,,,,,,,,,,,,,,,None,,268.4882616500021,None,268.4882616500021,None,2021-09-24-14:11:05.084668,268.4980838000047,268.80492919999233,268.4980838000047,None,None,268.4980838000047,None,269.3048316499975,None,,,,22002,0001,2021_Sep_24_1406,localizer,2021.1.3,59.823675699750076,
block,objects,objects049.bmp,,,,,0,94,94,94,,,,,,,,,,,,,,,,,,,,,,,,,,,,,,,,,,,,,,,,,,None,,269.3048316499975,None,269.3048316499975,None,2021-09-24-14:11:05.901439,269.3260711000039,269.6382942000055,269.3260711000039,None,None,269.3260711000039,None,270.1216205500008,None,,,,22002,0001,2021_Sep_24_1406,localizer,2021.1.3,59.823675699750076,
block,objects,objects063.bmp,,,,,0,95,95,95,,,,,,,,,,,,,,,,,,,,,,,,,,,,,,,,,,,,,,,,,,None,,270.1216205500008,None,270.1216205500008,None,2021-09-24-14:11:06.719222,270.14276729999983,270.45492610000656,270.14276729999983,None,None,270.14276729999983,None,270.9382613499969,None,,,,22002,0001,2021_Sep_24_1406,localizer,2021.1.3,59.823675699750076,
block,objects,objects088.bmp,,,,,0,96,96,96,,,,,,,,,,,,,,,,,,,,,,,,,,,,,,,,,,,,,,,,,,None,,270.9382613499969,None,270.9382613499969,None,2021-09-24-14:11:07.534811,270.95786059999955,271.271422100006,270.95786059999955,None,None,270.95786059999955,None,271.7548501500045,None,,,,22002,0001,2021_Sep_24_1406,localizer,2021.1.3,59.823675699750076,
block,objects,objects034.bmp,,,,,0,97,97,97,,,,,,,,,,,,,,,,,,,,,,,,,,,,,,,,,,,,,,,,,,None,,271.7548501500045,None,271.7548501500045,None,2021-09-24-14:11:08.343681,271.7620203999977,272.07160060000024,271.7620203999977,None,None,271.7620203999977,None,272.5716207499994,None,,,,22002,0001,2021_Sep_24_1406,localizer,2021.1.3,59.823675699750076,
block,objects,objects003.bmp,,,,,0,98,98,98,,,,,,,,,,,,,,,,,,,,,,,,,,,,,,,,,,,,,,,,,,None,,272.5716207499994,None,272.5716207499994,None,2021-09-24-14:11:09.169028,272.593586899995,272.9049546000024,272.593586899995,None,None,272.593586899995,None,273.38830774999803,None,,,,22002,0001,2021_Sep_24_1406,localizer,2021.1.3,59.823675699750076,
block,objects,objects062.bmp,,,,,0,99,99,99,,,,,,,,,,,,,,,,,,,,,,,,,,,,,,,,,,,,,,,,,,None,,273.38830774999803,None,273.38830774999803,None,2021-09-24-14:11:09.985715,273.39921059999324,273.70469679999223,273.39921059999324,None,None,273.39921059999324,None,274.2049482500064,None,,,,22002,0001,2021_Sep_24_1406,localizer,2021.1.3,59.823675699750076,
block,objects,objects068.bmp,,,,,0,100,100,100,,,,,,,,,,,,,,,,,,,,,,,,,,,,,,,,,,,,,,,,,,None,,274.2049482500064,None,274.2049482500064,None,2021-09-24-14:11:10.802357,274.2270772000047,274.5382685999939,274.2270772000047,None,None,274.2270772000047,None,275.02155665000316,None,,,,22002,0001,2021_Sep_24_1406,localizer,2021.1.3,59.823675699750076,
block,objects,objects046.bmp,,,,,0,101,101,101,,,,,,,,,,,,,,,,,,,,,,,,,,,,,,,,,,,,,,,,,,None,,275.02155665000316,None,275.02155665000316,None,2021-09-24-14:11:11.618172,275.0416681999923,275.3547528000054,275.0416681999923,None,None,275.0416681999923,None,275.83827675000646,None,,,,22002,0001,2021_Sep_24_1406,localizer,2021.1.3,59.823675699750076,
block,objects,objects065.bmp,,,,,0,102,102,102,,,,,,,,,,,,,,,,,,,,,,,,,,,,,,,,,,,,,,,,,,None,,275.83827675000646,None,275.83827675000646,None,2021-09-24-14:11:12.435683,275.8595811999985,276.17162179999286,275.8595811999985,None,None,275.8595811999985,None,276.65499364999994,None,,,,22002,0001,2021_Sep_24_1406,localizer,2021.1.3,59.823675699750076,
block,objects,objects043.bmp,,,,,0,103,103,103,,,,,,,,,,,,,,,,,,,,,,,,,,,,,,,,,,,,,,,,,,None,,276.65499364999994,None,276.65499364999994,None,2021-09-24-14:11:13.251176,276.67449320000014,276.9882251999952,276.67449320000014,None,None,276.67449320000014,None,277.47146555000506,None,,,,22002,0001,2021_Sep_24_1406,localizer,2021.1.3,59.823675699750076,
block,objects,objects060.bmp,,,,,0,104,104,104,,,,,,,,,,,,,,,,,,,,,,,,,,,,,,,,,,,,,,,,,,None,,277.47146555000506,None,277.47146555000506,None,2021-09-24-14:11:14.068113,277.49175169999944,277.8049982999946,277.49175169999944,None,None,277.49175169999944,None,278.28832805000127,None,,,,22002,0001,2021_Sep_24_1406,localizer,2021.1.3,59.823675699750076,
block,objects,objects037.bmp,,,,,0,105,105,105,,,,,,,,,,,,,,,,,,,,,,,,,,,,,,,,,,,,,,,,,,None,,278.28832805000127,None,278.28832805000127,None,2021-09-24-14:11:14.884960,278.3080786000064,278.6214251000056,278.3080786000064,None,None,278.3080786000064,None,279.1049276500038,None,,,,22002,0001,2021_Sep_24_1406,localizer,2021.1.3,59.823675699750076,
block_end,objects,objects079.bmp,,,,,0,106,106,106,,,,,,,,,,,,,,,,,,,,,,,,,,,,,,,,,,,,,,,,,,None,,279.1049276500038,None,279.1049276500038,None,2021-09-24-14:11:15.701355,279.1243441999977,279.43789370000013,279.1243441999977,None,None,279.1243441999977,None,279.92147195000723,None,,,,22002,0001,2021_Sep_24_1406,localizer,2021.1.3,59.823675699750076,
block_start,faces,faces041.bmp,,,,,0,107,107,107,,,,,,,,,,,,,,,,,,,,,,,,,,,,,,,,,,,,,,,,,,t,3.1875338000099873,279.9215144000045,None,279.9215144000045,None,2021-09-24-14:11:19.734011,283.15842279999924,283.4715123999922,283.15842279999924,None,None,283.15842279999924,None,283.95502395000074,None,,,,22002,0001,2021_Sep_24_1406,localizer,2021.1.3,59.823675699750076,
block,faces,faces029.bmp,,,,,0,108,108,108,,,,,,,,,,,,,,,,,,,,,,,,,,,,,,,,,,,,,,,,,,None,,283.95502395000074,None,283.95502395000074,None,2021-09-24-14:11:20.551443,283.97654319999856,284.2883340999979,283.97654319999856,None,None,283.97654319999856,None,284.7714959500066,None,,,,22002,0001,2021_Sep_24_1406,localizer,2021.1.3,59.823675699750076,
block,faces,faces037.bmp,,,,,0,109,109,109,,,,,,,,,,,,,,,,,,,,,,,,,,,,,,,,,,,,,,,,,,None,,284.7714959500066,None,284.7714959500066,None,2021-09-24-14:11:21.367959,284.7826849999983,285.08817600000475,284.7826849999983,None,None,284.7826849999983,None,285.5883117499965,None,,,,22002,0001,2021_Sep_24_1406,localizer,2021.1.3,59.823675699750076,
block,faces,faces084.bmp,,,,,0,110,110,110,,,,,,,,,,,,,,,,,,,,,,,,,,,,,,,,,,,,,,,,,,None,,285.5883117499965,None,285.5883117499965,None,2021-09-24-14:11:22.177195,285.5959956000006,285.905067300002,285.5959956000006,None,None,285.5959956000006,None,286.40503575000037,None,,,,22002,0001,2021_Sep_24_1406,localizer,2021.1.3,59.823675699750076,
block,faces,faces057.bmp,,,,,0,111,111,111,,,,,,,,,,,,,,,,,,,,,,,,,,,,,,,,,,,,,,,,,,None,,286.40503575000037,None,286.40503575000037,None,2021-09-24-14:11:23.002462,286.4294661000022,286.7383764999977,286.4294661000022,None,None,286.4294661000022,None,287.2217118500033,None,,,,22002,0001,2021_Sep_24_1406,localizer,2021.1.3,59.823675699750076,
block,faces,faces054.bmp,,,,,0,112,112,112,,,,,,,,,,,,,,,,,,,,,,,,,,,,,,,,,,,,,,,,,,None,,287.2217118500033,None,287.2217118500033,None,2021-09-24-14:11:23.818679,287.2427075000014,287.5550235999981,287.2427075000014,None,None,287.2427075000014,None,288.03838215000576,None,,,,22002,0001,2021_Sep_24_1406,localizer,2021.1.3,59.823675699750076,
block,faces,faces005.bmp,,,,,0,113,113,113,,,,,,,,,,,,,,,,,,,,,,,,,,,,,,,,,,,,,,,,,,None,,288.03838215000576,None,288.03838215000576,None,2021-09-24-14:11:24.634991,288.0594267999986,288.3716342999978,288.0594267999986,None,None,288.0594267999986,None,288.85500935000016,None,,,,22002,0001,2021_Sep_24_1406,localizer,2021.1.3,59.823675699750076,
block,faces,faces030.bmp,,,,,0,114,114,114,,,,,,,,,,,,,,,,,,,,,,,,,,,,,,,,,,,,,,,,,,None,,288.85500935000016,None,288.85500935000016,None,2021-09-24-14:11:25.452442,288.8791326000064,289.18825300000026,288.8791326000064,None,None,288.8791326000064,None,289.67172225000684,None,,,,22002,0001,2021_Sep_24_1406,localizer,2021.1.3,59.823675699750076,
block,faces,faces004.bmp,,,,,0,115,115,115,,,,,,,,,,,,,,,,,,,,,,,,,,,,,,,,,,,,,,,,,,None,,289.67172225000684,None,289.67172225000684,None,2021-09-24-14:11:26.268183,289.6903153000021,289.9883087000053,289.6903153000021,None,None,289.6903153000021,None,290.48828594999793,None,,,,22002,0001,2021_Sep_24_1406,localizer,2021.1.3,59.823675699750076,
block,faces,faces010.bmp,,,,,0,116,116,116,,,,,,,,,,,,,,,,,,,,,,,,,,,,,,,,,,,,,,,,,,None,,290.48828594999793,None,290.48828594999793,None,2021-09-24-14:11:27.084806,290.4994887000066,290.80508390000614,290.4994887000066,None,None,290.4994887000066,None,291.3050346500007,None,,,,22002,0001,2021_Sep_24_1406,localizer,2021.1.3,59.823675699750076,
block,faces,faces046.bmp,,,,,0,117,117,117,,,,,,,,,,,,,,,,,,,,,,,,,,,,,,,,,,,,,,,,,,None,,291.3050346500007,None,291.3050346500007,None,2021-09-24-14:11:27.901669,291.32202659999894,291.6217101999937,291.32202659999894,None,None,291.32202659999894,None,292.12175384999716,None,,,,22002,0001,2021_Sep_24_1406,localizer,2021.1.3,59.823675699750076,
block,faces,faces012.bmp,,,,,0,118,118,118,,,,,,,,,,,,,,,,,,,,,,,,,,,,,,,,,,,,,,,,,,None,,292.12175384999716,None,292.12175384999716,None,2021-09-24-14:11:28.718387,292.13176449999446,292.4381637000042,292.13176449999446,None,None,292.13176449999446,None,292.9383544500073,None,,,,22002,0001,2021_Sep_24_1406,localizer,2021.1.3,59.823675699750076,
block,faces,faces014.bmp,,,,,0,119,119,119,,,,,,,,,,,,,,,,,,,,,,,,,,,,,,,,,,,,,,,,,,None,,292.9383544500073,None,292.9383544500073,None,2021-09-24-14:11:29.535024,292.94850650000444,293.2550454000011,292.94850650000444,None,None,292.94850650000444,None,293.7549003499938,None,,,,22002,0001,2021_Sep_24_1406,localizer,2021.1.3,59.823675699750076,
block,faces,faces015.bmp,,,,,0,120,120,120,,,,,,,,,,,,,,,,,,,,,,,,,,,,,,,,,,,,,,,,,,None,,293.7549003499938,None,293.7549003499938,None,2021-09-24-14:11:30.344455,293.75609840000106,294.05502289999276,293.75609840000106,None,None,293.75609840000106,None,294.57175545000644,None,,,,22002,0001,2021_Sep_24_1406,localizer,2021.1.3,59.823675699750076,
block_end,faces,faces008.bmp,,,,,0,121,121,121,,,,,,,,,,,,,,,,,,,,,,,,,,,,,,,,,,,,,,,,,,None,,294.57175545000644,None,294.57175545000644,None,2021-09-24-14:11:31.169224,294.62282160000177,294.9216787000041,294.62282160000177,None,None,294.62282160000177,None,295.38831375000007,None,,,,22002,0001,2021_Sep_24_1406,localizer,2021.1.3,59.823675699750076,
block_start,faces,faces048.bmp,,,,,0,122,122,122,,,,,,,,,,,,,,,,,,,,,,,,,,,,,,,,,,,,,,,,,,t,3.5699881999898935,295.3882637999923,None,295.3882637999923,None,2021-09-24-14:11:35.577694,299.0002650999959,299.3051056999975,299.0002650999959,None,None,299.0002650999959,None,299.80511865000005,None,,,,22002,0001,2021_Sep_24_1406,localizer,2021.1.3,59.823675699750076,
block,faces,faces038.bmp,,,,,0,123,123,123,,,,,,,,,,,,,,,,,,,,,,,,,,,,,,,,,,,,,,,,,,None,,299.80511865000005,None,299.80511865000005,None,2021-09-24-14:11:36.401646,299.81507719999354,300.1216601000051,299.81507719999354,None,None,299.81507719999354,None,300.6217337500042,None,,,,22002,0001,2021_Sep_24_1406,localizer,2021.1.3,59.823675699750076,
block,faces,faces079.bmp,,,,,0,124,124,124,,,,,,,,,,,,,,,,,,,,,,,,,,,,,,,,,,,,,,,,,,None,,300.6217337500042,None,300.6217337500042,None,2021-09-24-14:11:37.218348,300.6417125000007,300.95498929999303,300.6417125000007,None,None,300.6417125000007,None,301.43847475000655,None,,,,22002,0001,2021_Sep_24_1406,localizer,2021.1.3,59.823675699750076,
block,faces,faces045.bmp,,,,,0,125,125,125,,,,,,,,,,,,,,,,,,,,,,,,,,,,,,,,,,,,,,,,,,None,,301.43847475000655,None,301.43847475000655,None,2021-09-24-14:11:38.034908,301.45995449999464,301.7715256999945,301.45995449999464,None,None,301.45995449999464,None,302.2549430499988,None,,,,22002,0001,2021_Sep_24_1406,localizer,2021.1.3,59.823675699750076,
block,faces,faces067.bmp,,,,,0,126,126,126,,,,,,,,,,,,,,,,,,,,,,,,,,,,,,,,,,,,,,,,,,None,,302.2549430499988,None,302.2549430499988,None,2021-09-24-14:11:38.851586,302.27627329999814,302.58840360000613,302.27627329999814,None,None,302.27627329999814,None,303.0716095500014,None,,,,22002,0001,2021_Sep_24_1406,localizer,2021.1.3,59.823675699750076,
block,faces,faces058.bmp,,,,,0,127,127,127,,,,,,,,,,,,,,,,,,,,,,,,,,,,,,,,,,,,,,,,,,None,,303.0716095500014,None,303.0716095500014,None,2021-09-24-14:11:39.661219,303.0727656999952,303.37175010000647,303.0727656999952,None,None,303.0727656999952,None,303.8884438500012,None,,,,22002,0001,2021_Sep_24_1406,localizer,2021.1.3,59.823675699750076,
block,faces,faces016.bmp,,,,,0,128,128,128,,,,,,,,,,,,,,,,,,,,,,,,,,,,,,,,,,,,,,,,,,None,,303.8884438500012,None,303.8884438500012,None,2021-09-24-14:11:40.485116,303.91117700000177,304.22177479999664,303.91117700000177,None,None,303.91117700000177,None,304.70506855000565,None,,,,22002,0001,2021_Sep_24_1406,localizer,2021.1.3,59.823675699750076,
block,faces,faces085.bmp,,,,,0,129,129,129,,,,,,,,,,,,,,,,,,,,,,,,,,,,,,,,,,,,,,,,,,None,,304.70506855000565,None,304.70506855000565,None,2021-09-24-14:11:41.301543,304.7394948000001,305.0384226000024,304.7394948000001,None,None,304.7394948000001,None,305.5218365499953,None,,,,22002,0001,2021_Sep_24_1406,localizer,2021.1.3,59.823675699750076,
block,faces,faces088.bmp,,,,,0,130,130,130,,,,,,,,,,,,,,,,,,,,,,,,,,,,,,,,,,,,,,,,,,None,,305.5218365499953,None,305.5218365499953,None,2021-09-24-14:11:42.118273,305.54356530000223,305.8549602999992,305.54356530000223,None,None,305.54356530000223,None,306.3384018499986,None,,,,22002,0001,2021_Sep_24_1406,localizer,2021.1.3,59.823675699750076,
block,faces,faces081.bmp,,,,,0,131,131,131,,,,,,,,,,,,,,,,,,,,,,,,,,,,,,,,,,,,,,,,,,None,,306.3384018499986,None,306.3384018499986,None,2021-09-24-14:11:42.935838,306.35989100000006,306.67175589999533,306.35989100000006,None,None,306.35989100000006,None,307.15509804999454,None,,,,22002,0001,2021_Sep_24_1406,localizer,2021.1.3,59.823675699750076,
block,faces,faces004.bmp,,,,,0,132,132,132,,,,,,,,,,,,,,,,,,,,,,,,,,,,,,,,,,,,,,,,,,None,,307.15509804999454,None,307.15509804999454,None,2021-09-24-14:11:43.743946,307.15618550000363,307.4551136999944,307.15618550000363,None,None,307.15618550000363,None,307.9718220499984,None,,,,22002,0001,2021_Sep_24_1406,localizer,2021.1.3,59.823675699750076,
block,faces,faces027.bmp,,,,,0,133,133,133,,,,,,,,,,,,,,,,,,,,,,,,,,,,,,,,,,,,,,,,,,None,,307.9718220499984,None,307.9718220499984,None,2021-09-24-14:11:44.569261,307.9947078999976,308.30509029999666,307.9947078999976,None,None,307.9947078999976,None,308.7884464500006,None,,,,22002,0001,2021_Sep_24_1406,localizer,2021.1.3,59.823675699750076,
block,faces,faces082.bmp,,,,,0,134,134,134,,,,,,,,,,,,,,,,,,,,,,,,,,,,,,,,,,,,,,,,,,None,,308.7884464500006,None,308.7884464500006,None,2021-09-24-14:11:45.384888,308.81005630000436,309.1218147000036,308.81005630000436,None,None,308.81005630000436,None,309.60517565000043,None,,,,22002,0001,2021_Sep_24_1406,localizer,2021.1.3,59.823675699750076,
block,faces,faces008.bmp,,,,,0,135,135,135,,,,,,,,,,,,,,,,,,,,,,,,,,,,,,,,,,,,,,,,,,None,,309.60517565000043,None,309.60517565000043,None,2021-09-24-14:11:46.201800,309.61511549999705,309.9216560000059,309.61511549999705,None,None,309.61511549999705,None,310.4217182500055,None,,,,22002,0001,2021_Sep_24_1406,localizer,2021.1.3,59.823675699750076,
block_end,faces,faces087.bmp,,,,,0,136,136,136,,,,,,,,,,,,,,,,,,,,,,,,,,,,,,,,,,,,,,,,,,None,,310.4217182500055,None,310.4217182500055,None,2021-09-24-14:11:47.019189,310.43379209999694,310.73829229999683,310.43379209999694,None,None,310.43379209999694,None,311.2383854499989,None,,,,22002,0001,2021_Sep_24_1406,localizer,2021.1.3,59.823675699750076,
null_block,null_block,null_block.bmp,,,,,0,137,137,137,,,,,,,,,,,,,,,,,,,,,,,,,,,,,,,,,,,,,,,,,,t,4.5150116000004346,311.23839569999836,None,311.23839569999836,None,2021-09-24-14:11:52.367088,315.7885141999984,None,315.7885141999984,None,None,315.7885141999984,None,315.7849822999997,None,,,,22002,0001,2021_Sep_24_1406,localizer,2021.1.3,59.823675699750076,
block_start,scenes,scenes008.bmp,,,,,0,138,138,138,,,,,,,,,,,,,,,,,,,,,,,,,,,,,,,,,,,,,,,,,,t,0.7385791999986395,327.78860390000045,None,327.78860390000045,None,2021-09-24-14:12:05.151764,328.57201439999335,328.8719107999932,328.57201439999335,None,None,328.57201439999335,None,329.3717656499997,None,,,,22002,0001,2021_Sep_24_1406,localizer,2021.1.3,59.823675699750076,
block,scenes,scenes003.bmp,,,,,0,139,139,139,,,,,,,,,,,,,,,,,,,,,,,,,,,,,,,,,,,,,,,,,,None,,329.3717656499997,None,329.3717656499997,None,2021-09-24-14:12:05.969224,329.39411310000287,329.7051502999966,329.39411310000287,None,None,329.39411310000287,None,330.1885872500046,None,,,,22002,0001,2021_Sep_24_1406,localizer,2021.1.3,59.823675699750076,
block,scenes,scenes030.bmp,,,,,0,140,140,140,,,,,,,,,,,,,,,,,,,,,,,,,,,,,,,,,,,,,,,,,,None,,330.1885872500046,None,330.1885872500046,None,2021-09-24-14:12:06.785064,330.2093709000037,330.5217993999977,330.2093709000037,None,None,330.2093709000037,None,331.0052097500069,None,,,,22002,0001,2021_Sep_24_1406,localizer,2021.1.3,59.823675699750076,
block,scenes,scenes064.bmp,,,,,0,141,141,141,,,,,,,,,,,,,,,,,,,,,,,,,,,,,,,,,,,,,,,,,,None,,331.0052097500069,None,331.0052097500069,None,2021-09-24-14:12:07.601879,331.025095399993,331.3386057000025,331.025095399993,None,None,331.025095399993,None,331.8218205500074,None,,,,22002,0001,2021_Sep_24_1406,localizer,2021.1.3,59.823675699750076,
block,scenes,scenes081.bmp,,,,,0,142,142,142,,,,,,,,,,,,,,,,,,,,,,,,,,,,,,,,,,,,,,,,,,None,,331.8218205500074,None,331.8218205500074,None,2021-09-24-14:12:08.415480,331.839040699997,332.13850970000203,331.839040699997,None,None,331.839040699997,None,332.6385756500007,None,,,,22002,0001,2021_Sep_24_1406,localizer,2021.1.3,59.823675699750076,
block,scenes,scenes025.bmp,,,,,0,143,143,143,,,,,,,,,,,,,,,,,,,,,,,,,,,,,,,,,,,,,,,,,,None,,332.6385756500007,None,332.6385756500007,None,2021-09-24-14:12:09.235038,332.66057019999425,332.9719432999991,332.66057019999425,None,None,332.66057019999425,None,333.4553134500078,None,,,,22002,0001,2021_Sep_24_1406,localizer,2021.1.3,59.823675699750076,
block,scenes,scenes076.bmp,,,,,0,144,144,144,,,,,,,,,,,,,,,,,,,,,,,,,,,,,,,,,,,,,,,,,,None,,333.4553134500078,None,333.4553134500078,None,2021-09-24-14:12:10.052975,333.4659604000044,333.77185600000666,333.4659604000044,None,None,333.4659604000044,None,334.27187844999423,None,,,,22002,0001,2021_Sep_24_1406,localizer,2021.1.3,59.823675699750076,
block,scenes,scenes004.bmp,,,,,0,145,145,145,,,,,,,,,,,,,,,,,,,,,,,,,,,,,,,,,,,,,,,,,,None,,334.27187844999423,None,334.27187844999423,None,2021-09-24-14:12:10.868344,334.2819421000022,334.58841100000427,334.2819421000022,None,None,334.2819421000022,None,335.08864915000447,None,,,,22002,0001,2021_Sep_24_1406,localizer,2021.1.3,59.823675699750076,
block,scenes,scenes038.bmp,,,,,0,146,146,146,,,,,,,,,,,,,,,,,,,,,,,,,,,,,,,,,,,,,,,,,,None,,335.08864915000447,None,335.08864915000447,None,2021-09-24-14:12:11.685313,335.11053819999506,335.4218899999978,335.11053819999506,None,None,335.11053819999506,None,335.9050412499986,None,,,,22002,0001,2021_Sep_24_1406,localizer,2021.1.3,59.823675699750076,
block,scenes,scenes086.bmp,,,,,0,147,147,147,,,,,,,,,,,,,,,,,,,,,,,,,,,,,,,,,,,,,,,,,,None,,335.9050412499986,None,335.9050412499986,None,2021-09-24-14:12:12.494887,335.9061859000067,336.20528500000364,335.9061859000067,None,None,335.9061859000067,None,336.7053235499974,None,,,,22002,0001,2021_Sep_24_1406,localizer,2021.1.3,59.823675699750076,
block,scenes,scenes021.bmp,,,,,0,148,148,148,,,,,,,,,,,,,,,,,,,,,,,,,,,,,,,,,,,,,,,,,,None,,336.7053235499974,None,336.7053235499974,None,2021-09-24-14:12:13.305775,336.71946720000415,337.0219502999971,336.71946720000415,336.71946720000415,None,336.71946720000415,336.71946720000415,337.5219356500078,None,,,,22002,0001,2021_Sep_24_1406,localizer,2021.1.3,59.823675699750076,
block,scenes,scenes050.bmp,,,,,0,149,149,149,,,,,,,,,,,,,,,,,,,,,,,,,,,,,,,,,,,,,,,,,,None,,337.5219356500078,None,337.5219356500078,None,2021-09-24-14:12:14.118272,337.5420854999975,337.8552437000035,337.5420854999975,None,None,337.5420854999975,None,338.3386405499972,None,,,,22002,0001,2021_Sep_24_1406,localizer,2021.1.3,59.823675699750076,
block,scenes,scenes059.bmp,,,,,0,150,150,150,,,,,,,,,,,,,,,,,,,,,,,,,,,,,,,,,,,,,,,,,,None,,338.3386405499972,None,338.3386405499972,None,2021-09-24-14:12:14.936123,338.3605753000011,338.6717675999971,338.3605753000011,None,None,338.3605753000011,None,339.15511095000545,None,,,,22002,0001,2021_Sep_24_1406,localizer,2021.1.3,59.823675699750076,
block,scenes,scenes066.bmp,,,,,0,151,151,151,,,,,,,,,,,,,,,,,,,,,,,,,,,,,,,,,,,,,,,,,,None,,339.15511095000545,None,339.15511095000545,None,2021-09-24-14:12:15.749583,339.1685276999924,339.4718487999926,339.1685276999924,None,None,339.1685276999924,None,339.97177135000527,None,,,,22002,0001,2021_Sep_24_1406,localizer,2021.1.3,59.823675699750076,
block_end,scenes,scenes071.bmp,,,,,0,152,152,152,,,,,,,,,,,,,,,,,,,,,,,,,,,,,,,,,,,,,,,,,,None,,339.97177135000527,None,339.97177135000527,None,2021-09-24-14:12:16.568272,339.98024940000323,340.28861800000595,339.98024940000323,None,None,339.98024940000323,None,340.78866305000554,None,,,,22002,0001,2021_Sep_24_1406,localizer,2021.1.3,59.823675699750076,
block_start,scrambled,scrambled051.bmp,,,,,0,153,153,153,,,,,,,,,,,,,,,,,,,,,,,,,,,,,,,,,,,,,,,,,,t,3.1708603000006406,340.7885360999935,None,340.7885360999935,None,2021-09-24-14:12:20.583175,343.9967447999952,344.3052985999966,343.9967447999952,None,None,343.9967447999952,None,344.80535445000567,None,,,,22002,0001,2021_Sep_24_1406,localizer,2021.1.3,59.823675699750076,
block,scrambled,scrambled024.bmp,,,,,0,154,154,154,,,,,,,,,,,,,,,,,,,,,,,,,,,,,,,,,,,,,,,,,,None,,344.80535445000567,None,344.80535445000567,None,2021-09-24-14:12:21.402822,344.82737199999974,345.1383955000056,344.82737199999974,None,None,344.82737199999974,None,345.6218488500075,None,,,,22002,0001,2021_Sep_24_1406,localizer,2021.1.3,59.823675699750076,
block,scrambled,scrambled073.bmp,,,,,0,155,155,155,,,,,,,,,,,,,,,,,,,,,,,,,,,,,,,,,,,,,,,,,,None,,345.6218488500075,None,345.6218488500075,None,2021-09-24-14:12:22.210476,345.6284963999933,345.9386846999987,345.6284963999933,None,None,345.6284963999933,None,346.4386873499956,None,,,,22002,0001,2021_Sep_24_1406,localizer,2021.1.3,59.823675699750076,
block,scrambled,scrambled066.bmp,,,,,0,156,156,156,,,,,,,,,,,,,,,,,,,,,,,,,,,,,,,,,,,,,,,,,,None,,346.4386873499956,None,346.4386873499956,None,2021-09-24-14:12:23.036185,346.4592655000015,346.7720190999971,346.4592655000015,None,None,346.4592655000015,None,347.2551073499984,None,,,,22002,0001,2021_Sep_24_1406,localizer,2021.1.3,59.823675699750076,
block,scrambled,scrambled061.bmp,,,,,0,157,157,157,,,,,,,,,,,,,,,,,,,,,,,,,,,,,,,,,,,,,,,,,,None,,347.2551073499984,None,347.2551073499984,None,2021-09-24-14:12:23.850661,347.28566059999866,347.58866670000134,347.28566059999866,None,None,347.28566059999866,None,348.0719042500044,None,,,,22002,0001,2021_Sep_24_1406,localizer,2021.1.3,59.823675699750076,
block,scrambled,scrambled008.bmp,,,,,0,158,158,158,,,,,,,,,,,,,,,,,,,,,,,,,,,,,,,,,,,,,,,,,,None,,348.0719042500044,None,348.0719042500044,None,2021-09-24-14:12:24.669451,348.08781219999946,348.38864869999816,348.08781219999946,None,None,348.08781219999946,None,348.88867824999613,None,,,,22002,0001,2021_Sep_24_1406,localizer,2021.1.3,59.823675699750076,
block,scrambled,scrambled008.bmp,,,,,0,159,159,159,,,,,,,,,,,,,,,,,,,,,,,,,,,,,,,,,,,,,,,,,,None,,348.88867824999613,None,348.88867824999613,None,2021-09-24-14:12:25.485358,348.89744499999506,349.2052032000065,348.89744499999506,None,y,348.89744499999506,None,349.70537215000365,None,0.43175350000092294,,,22002,0001,2021_Sep_24_1406,localizer,2021.1.3,59.823675699750076,
block,scrambled,scrambled065.bmp,,,,,0,160,160,160,,,,,,,,,,,,,,,,,,,,,,,,,,,,,,,,,,,,,,,,,,None,,349.70537215000365,None,349.70537215000365,None,2021-09-24-14:12:26.296755,349.71506230000523,350.0220208999963,349.71506230000523,None,None,349.71506230000523,None,350.5220424500061,None,,,,22002,0001,2021_Sep_24_1406,localizer,2021.1.3,59.823675699750076,
block,scrambled,scrambled015.bmp,,,,,0,161,161,161,,,,,,,,,,,,,,,,,,,,,,,,,,,,,,,,,,,,,,,,,,None,,350.5220424500061,None,350.5220424500061,None,2021-09-24-14:12:27.119545,350.5428466000012,350.85521829999925,350.5428466000012,None,None,350.5428466000012,None,351.3387404500012,None,,,,22002,0001,2021_Sep_24_1406,localizer,2021.1.3,59.823675699750076,
block,scrambled,scrambled070.bmp,,,,,0,162,162,162,,,,,,,,,,,,,,,,,,,,,,,,,,,,,,,,,,,,,,,,,,None,,351.3387404500012,None,351.3387404500012,None,2021-09-24-14:12:27.936214,351.3600715999928,351.6719703999988,351.3600715999928,None,None,351.3600715999928,None,352.15537265000455,None,,,,22002,0001,2021_Sep_24_1406,localizer,2021.1.3,59.823675699750076,
block,scrambled,scrambled058.bmp,,,,,0,163,163,163,,,,,,,,,,,,,,,,,,,,,,,,,,,,,,,,,,,,,,,,,,None,,352.15537265000455,None,352.15537265000455,None,2021-09-24-14:12:28.752030,352.1729362000042,352.4720612999954,352.1729362000042,None,None,352.1729362000042,None,352.9719630499952,None,,,,22002,0001,2021_Sep_24_1406,localizer,2021.1.3,59.823675699750076,
block,scrambled,scrambled033.bmp,,,,,0,164,164,164,,,,,,,,,,,,,,,,,,,,,,,,,,,,,,,,,,,,,,,,,,None,,352.9719630499952,None,352.9719630499952,None,2021-09-24-14:12:29.568668,352.99249099999724,353.30533560000185,352.99249099999724,None,None,352.99249099999724,None,353.7887554499961,None,,,,22002,0001,2021_Sep_24_1406,localizer,2021.1.3,59.823675699750076,
block,scrambled,scrambled040.bmp,,,,,0,165,165,165,,,,,,,,,,,,,,,,,,,,,,,,,,,,,,,,,,,,,,,,,,None,,353.7887554499961,None,353.7887554499961,None,2021-09-24-14:12:30.385429,353.7994728000049,354.1053181000025,353.7994728000049,None,None,353.7994728000049,None,354.60534425000367,None,,,,22002,0001,2021_Sep_24_1406,localizer,2021.1.3,59.823675699750076,
block,scrambled,scrambled079.bmp,,,,,0,166,166,166,,,,,,,,,,,,,,,,,,,,,,,,,,,,,,,,,,,,,,,,,,None,,354.60534425000367,None,354.60534425000367,None,2021-09-24-14:12:31.202065,354.6249897999951,354.9387515999988,354.6249897999951,None,None,354.6249897999951,None,355.4218958500045,None,,,,22002,0001,2021_Sep_24_1406,localizer,2021.1.3,59.823675699750076,
block_end,scrambled,scrambled081.bmp,,,,,0,167,167,167,,,,,,,,,,,,,,,,,,,,,,,,,,,,,,,,,,,,,,,,,,None,,355.4218958500045,None,355.4218958500045,None,2021-09-24-14:12:32.012698,355.43572769999446,355.7387191000016,355.43572769999446,None,None,355.43572769999446,None,356.23875075000103,None,,,,22002,0001,2021_Sep_24_1406,localizer,2021.1.3,59.823675699750076,
block_start,objects,objects024.bmp,,,,,0,168,168,168,,,,,,,,,,,,,,,,,,,,,,,,,,,,,,,,,,,,,,,,,,t,3.490794500001357,356.23872290000145,None,356.23872290000145,None,2021-09-24-14:12:36.350783,359.77558780000254,360.0887545000005,359.77558780000254,None,None,359.77558780000254,None,360.5721187500079,None,,,,22002,0001,2021_Sep_24_1406,localizer,2021.1.3,59.823675699750076,
block,objects,objects014.bmp,,,,,0,169,169,169,,,,,,,,,,,,,,,,,,,,,,,,,,,,,,,,,,,,,,,,,,None,,360.5721187500079,None,360.5721187500079,None,2021-09-24-14:12:37.168718,360.5821167999966,360.8886757,360.5821167999966,None,None,360.5821167999966,None,361.38878894999505,None,,,,22002,0001,2021_Sep_24_1406,localizer,2021.1.3,59.823675699750076,
block,objects,objects082.bmp,,,,,0,170,170,170,,,,,,,,,,,,,,,,,,,,,,,,,,,,,,,,,,,,,,,,,,None,,361.38878894999505,None,361.38878894999505,None,2021-09-24-14:12:37.985274,361.4089803999959,361.7222760000004,361.4089803999959,None,None,361.4089803999959,None,362.2053892500029,None,,,,22002,0001,2021_Sep_24_1406,localizer,2021.1.3,59.823675699750076,
block,objects,objects036.bmp,,,,,0,171,171,171,,,,,,,,,,,,,,,,,,,,,,,,,,,,,,,,,,,,,,,,,,None,,362.2053892500029,None,362.2053892500029,None,2021-09-24-14:12:38.794027,362.2063946999988,362.50528589999885,362.2063946999988,None,None,362.2063946999988,None,363.00545355000065,None,,,,22002,0001,2021_Sep_24_1406,localizer,2021.1.3,59.823675699750076,
block,objects,objects054.bmp,,,,,0,172,172,172,,,,,,,,,,,,,,,,,,,,,,,,,,,,,,,,,,,,,,,,,,None,,363.00545355000065,None,363.00545355000065,None,2021-09-24-14:12:39.605129,363.0261224999995,363.3386788999924,363.0261224999995,363.0261224999995,None,363.0261224999995,363.0261224999995,363.8220756499999,None,,,,22002,0001,2021_Sep_24_1406,localizer,2021.1.3,59.823675699750076,
block,objects,objects078.bmp,,,,,0,173,173,173,,,,,,,,,,,,,,,,,,,,,,,,,,,,,,,,,,,,,,,,,,None,,363.8220756499999,None,363.8220756499999,None,2021-09-24-14:12:40.419564,363.84321209999325,364.1554720999993,363.84321209999325,None,None,363.84321209999325,None,364.6386144500051,None,,,,22002,0001,2021_Sep_24_1406,localizer,2021.1.3,59.823675699750076,
block,objects,objects035.bmp,,,,,0,174,174,174,,,,,,,,,,,,,,,,,,,,,,,,,,,,,,,,,,,,,,,,,,None,,364.6386144500051,None,364.6386144500051,None,2021-09-24-14:12:41.227250,364.64831410000625,364.95539469999494,364.64831410000625,None,None,364.64831410000625,None,365.4554398499953,None,,,,22002,0001,2021_Sep_24_1406,localizer,2021.1.3,59.823675699750076,
block,objects,objects003.bmp,,,,,0,175,175,175,,,,,,,,,,,,,,,,,,,,,,,,,,,,,,,,,,,,,,,,,,None,,365.4554398499953,None,365.4554398499953,None,2021-09-24-14:12:42.052929,365.4661985999992,365.77207750000525,365.4661985999992,None,None,365.4661985999992,None,366.27214115000095,None,,,,22002,0001,2021_Sep_24_1406,localizer,2021.1.3,59.823675699750076,
block,objects,objects057.bmp,,,,,0,176,176,176,,,,,,,,,,,,,,,,,,,,,,,,,,,,,,,,,,,,,,,,,,None,,366.27214115000095,None,366.27214115000095,None,2021-09-24-14:12:42.868841,366.29291580000427,366.6054862000019,366.29291580000427,None,None,366.29291580000427,None,367.08877244999746,None,,,,22002,0001,2021_Sep_24_1406,localizer,2021.1.3,59.823675699750076,
block,objects,objects008.bmp,,,,,0,177,177,177,,,,,,,,,,,,,,,,,,,,,,,,,,,,,,,,,,,,,,,,,,None,,367.08877244999746,None,367.08877244999746,None,2021-09-24-14:12:43.685294,367.10816099999647,367.42210049999994,367.10816099999647,None,None,367.10816099999647,None,367.905449749995,None,,,,22002,0001,2021_Sep_24_1406,localizer,2021.1.3,59.823675699750076,
block,objects,objects027.bmp,,,,,0,178,178,178,,,,,,,,,,,,,,,,,,,,,,,,,,,,,,,,,,,,,,,,,,None,,367.905449749995,None,367.905449749995,None,2021-09-24-14:12:44.501727,367.9254643000022,368.23876730000484,367.9254643000022,None,None,367.9254643000022,None,368.721929149999,None,,,,22002,0001,2021_Sep_24_1406,localizer,2021.1.3,59.823675699750076,
block,objects,objects031.bmp,,,,,0,179,179,179,,,,,,,,,,,,,,,,,,,,,,,,,,,,,,,,,,,,,,,,,,None,,368.721929149999,None,368.721929149999,None,2021-09-24-14:12:45.311805,368.7313445000036,369.0388257000013,368.7313445000036,None,None,368.7313445000036,None,369.5385294500069,None,,,,22002,0001,2021_Sep_24_1406,localizer,2021.1.3,59.823675699750076,
block,objects,objects009.bmp,,,,,0,180,180,180,,,,,,,,,,,,,,,,,,,,,,,,,,,,,,,,,,,,,,,,,,None,,369.5385294500069,None,369.5385294500069,None,2021-09-24-14:12:46.127129,369.5472718999954,369.8554814999952,369.5472718999954,None,None,369.5472718999954,None,370.3553150499996,None,,,,22002,0001,2021_Sep_24_1406,localizer,2021.1.3,59.823675699750076,
block,objects,objects075.bmp,,,,,0,181,181,181,,,,,,,,,,,,,,,,,,,,,,,,,,,,,,,,,,,,,,,,,,None,,370.3553150499996,None,370.3553150499996,None,2021-09-24-14:12:46.943964,370.36180420000164,370.67209779999394,370.36180420000164,None,None,370.36180420000164,None,371.17216584999403,None,,,,22002,0001,2021_Sep_24_1406,localizer,2021.1.3,59.823675699750076,
block_end,objects,objects050.bmp,,,,,0,182,182,182,,,,,,,,,,,,,,,,,,,,,,,,,,,,,,,,,,,,,,,,,,None,,371.17216584999403,None,371.17216584999403,None,2021-09-24-14:12:47.768856,371.19225759999244,371.5054753000004,371.19225759999244,None,None,371.19225759999244,None,371.98884305000536,None,,,,22002,0001,2021_Sep_24_1406,localizer,2021.1.3,59.823675699750076,
block_start,objects,objects084.bmp,,,,,0,183,183,183,,,,,,,,,,,,,,,,,,,,,,,,,,,,,,,,,,,,,,,,,,t,3.3845849000063026,371.9887957000028,None,371.9887957000028,None,2021-09-24-14:12:51.993889,375.41469839999627,375.7221408000041,375.41469839999627,None,None,375.41469839999627,None,376.22203865000336,None,,,,22002,0001,2021_Sep_24_1406,localizer,2021.1.3,59.823675699750076,
block,objects,objects001.bmp,,,,,0,184,184,184,,,,,,,,,,,,,,,,,,,,,,,,,,,,,,,,,,,,,,,,,,None,,376.22203865000336,None,376.22203865000336,None,2021-09-24-14:12:52.811673,376.2324045999994,376.538839300003,376.2324045999994,None,None,376.2324045999994,None,377.0385019500012,None,,,,22002,0001,2021_Sep_24_1406,localizer,2021.1.3,59.823675699750076,
block,objects,objects041.bmp,,,,,0,185,185,185,,,,,,,,,,,,,,,,,,,,,,,,,,,,,,,,,,,,,,,,,,None,,377.0385019500012,None,377.0385019500012,None,2021-09-24-14:12:53.633135,377.0681157999934,377.37204410000413,377.0681157999934,None,None,377.0681157999934,None,377.85558384999456,None,,,,22002,0001,2021_Sep_24_1406,localizer,2021.1.3,59.823675699750076,
block,objects,objects087.bmp,,,,,0,186,186,186,,,,,,,,,,,,,,,,,,,,,,,,,,,,,,,,,,,,,,,,,,None,,377.85558384999456,None,377.85558384999456,None,2021-09-24-14:12:54.452334,377.8770063999982,378.18834629999765,377.8770063999982,None,None,377.8770063999982,None,378.6721921500051,None,,,,22002,0001,2021_Sep_24_1406,localizer,2021.1.3,59.823675699750076,
block,objects,objects048.bmp,,,,,0,187,187,187,,,,,,,,,,,,,,,,,,,,,,,,,,,,,,,,,,,,,,,,,,None,,378.6721921500051,None,378.6721921500051,None,2021-09-24-14:12:55.269921,378.6832987999951,378.9885554000066,378.6832987999951,None,None,378.6832987999951,None,379.48877104999553,None,,,,22002,0001,2021_Sep_24_1406,localizer,2021.1.3,59.823675699750076,
block,objects,objects030.bmp,,,,,0,188,188,188,,,,,,,,,,,,,,,,,,,,,,,,,,,,,,,,,,,,,,,,,,None,,379.48877104999553,None,379.48877104999553,None,2021-09-24-14:12:56.085480,379.5000563999929,379.805512299994,379.5000563999929,None,None,379.5000563999929,None,380.3055448500003,None,,,,22002,0001,2021_Sep_24_1406,localizer,2021.1.3,59.823675699750076,
block,objects,objects070.bmp,,,,,0,189,189,189,,,,,,,,,,,,,,,,,,,,,,,,,,,,,,,,,,,,,,,,,,None,,380.3055448500003,None,380.3055448500003,None,2021-09-24-14:12:56.903045,380.3263559000043,380.6387689999974,380.3263559000043,None,None,380.3263559000043,None,381.12224005000314,None,,,,22002,0001,2021_Sep_24_1406,localizer,2021.1.3,59.823675699750076,
block,objects,objects042.bmp,,,,,0,190,190,190,,,,,,,,,,,,,,,,,,,,,,,,,,,,,,,,,,,,,,,,,,None,,381.12224005000314,None,381.12224005000314,None,2021-09-24-14:12:57.718744,381.14166880000266,381.4555379999947,381.14166880000266,None,None,381.14166880000266,None,381.9388719500042,None,,,,22002,0001,2021_Sep_24_1406,localizer,2021.1.3,59.823675699750076,
block,objects,objects061.bmp,,,,,0,191,191,191,,,,,,,,,,,,,,,,,,,,,,,,,,,,,,,,,,,,,,,,,,None,,381.9388719500042,None,381.9388719500042,None,2021-09-24-14:12:58.535464,381.95881490000465,382.2720992999966,381.95881490000465,None,None,381.95881490000465,None,382.75544995000234,None,,,,22002,0001,2021_Sep_24_1406,localizer,2021.1.3,59.823675699750076,
block,objects,objects051.bmp,,,,,0,192,192,192,,,,,,,,,,,,,,,,,,,,,,,,,,,,,,,,,,,,,,,,,,None,,382.75544995000234,None,382.75544995000234,None,2021-09-24-14:12:59.352952,382.7767889999959,383.08878849999746,382.7767889999959,None,None,382.7767889999959,None,383.5720955500059,None,,,,22002,0001,2021_Sep_24_1406,localizer,2021.1.3,59.823675699750076,
block,objects,objects082.bmp,,,,,0,193,193,193,,,,,,,,,,,,,,,,,,,,,,,,,,,,,,,,,,,,,,,,,,None,,383.5720955500059,None,383.5720955500059,None,2021-09-24-14:13:00.160750,383.57330119999824,383.87207329999364,383.57330119999824,None,None,383.57330119999824,None,384.3888195499952,None,,,,22002,0001,2021_Sep_24_1406,localizer,2021.1.3,59.823675699750076,
block,objects,objects045.bmp,,,,,0,194,194,194,,,,,,,,,,,,,,,,,,,,,,,,,,,,,,,,,,,,,,,,,,None,,384.3888195499952,None,384.3888195499952,None,2021-09-24-14:13:00.986323,384.40922560000035,384.7222458000033,384.40922560000035,None,None,384.40922560000035,None,385.20556115000215,None,,,,22002,0001,2021_Sep_24_1406,localizer,2021.1.3,59.823675699750076,
block,objects,objects013.bmp,,,,,0,195,195,195,,,,,,,,,,,,,,,,,,,,,,,,,,,,,,,,,,,,,,,,,,None,,385.20556115000215,None,385.20556115000215,None,2021-09-24-14:13:01.801885,385.22570239999914,385.53885060000175,385.22570239999914,None,None,385.22570239999914,None,386.0220322500012,None,,,,22002,0001,2021_Sep_24_1406,localizer,2021.1.3,59.823675699750076,
block,objects,objects026.bmp,,,,,0,196,196,196,,,,,,,,,,,,,,,,,,,,,,,,,,,,,,,,,,,,,,,,,,None,,386.0220322500012,None,386.0220322500012,None,2021-09-24-14:13:02.618766,386.042111200004,386.35547609999776,386.042111200004,None,None,386.042111200004,None,386.83888085000797,None,,,,22002,0001,2021_Sep_24_1406,localizer,2021.1.3,59.823675699750076,
block_end,objects,objects033.bmp,,,,,0,197,197,197,,,,,,,,,,,,,,,,,,,,,,,,,,,,,,,,,,,,,,,,,,None,,386.83888085000797,None,386.83888085000797,None,2021-09-24-14:13:03.434999,386.85743780000485,387.1554233999923,386.85743780000485,None,None,386.85743780000485,None,387.65549764999594,None,,,,22002,0001,2021_Sep_24_1406,localizer,2021.1.3,59.823675699750076,
block_start,scenes,scenes055.bmp,,,,,0,198,198,198,,,,,,,,,,,,,,,,,,,,,,,,,,,,,,,,,,,,,,,,,,t,3.852603499995894,387.65544420000515,None,387.65544420000515,None,2021-09-24-14:13:08.127497,391.54978879999544,391.85556329999235,391.54978879999544,None,None,391.54978879999544,None,392.35549505000233,None,,,,22002,0001,2021_Sep_24_1406,localizer,2021.1.3,59.823675699750076,
block,scenes,scenes085.bmp,,,,,0,199,199,199,,,,,,,,,,,,,,,,,,,,,,,,,,,,,,,,,,,,,,,,,,None,,392.35549505000233,None,392.35549505000233,None,2021-09-24-14:13:08.951296,392.3748923999956,392.6888994000037,392.3748923999956,None,None,392.3748923999956,None,393.17212224999673,None,,,,22002,0001,2021_Sep_24_1406,localizer,2021.1.3,59.823675699750076,
block,scenes,scenes015.bmp,,,,,0,200,200,200,,,,,,,,,,,,,,,,,,,,,,,,,,,,,,,,,,,,,,,,,,None,,393.17212224999673,None,393.17212224999673,None,2021-09-24-14:13:09.769839,393.19375809999474,393.5055971999973,393.19375809999474,None,None,393.19375809999474,None,393.98876455000425,None,,,,22002,0001,2021_Sep_24_1406,localizer,2021.1.3,59.823675699750076,
block,scenes,scenes012.bmp,,,,,0,201,201,201,,,,,,,,,,,,,,,,,,,,,,,,,,,,,,,,,,,,,,,,,,None,,393.98876455000425,None,393.98876455000425,None,2021-09-24-14:13:10.578401,393.9996664000064,394.3053956999938,393.9996664000064,None,None,393.9996664000064,None,394.80558684999994,None,,,,22002,0001,2021_Sep_24_1406,localizer,2021.1.3,59.823675699750076,
block,scenes,scenes073.bmp,,,,,0,202,202,202,,,,,,,,,,,,,,,,,,,,,,,,,,,,,,,,,,,,,,,,,,None,,394.80558684999994,None,394.80558684999994,None,2021-09-24-14:13:11.402130,394.828167700005,395.1389087999996,394.828167700005,None,None,394.828167700005,None,395.62208345000397,None,,,,22002,0001,2021_Sep_24_1406,localizer,2021.1.3,59.823675699750076,
block,scenes,scenes029.bmp,,,,,0,203,203,203,,,,,,,,,,,,,,,,,,,,,,,,,,,,,,,,,,,,,,,,,,None,,395.62208345000397,None,395.62208345000397,None,2021-09-24-14:13:12.217804,395.6314124000055,395.93884600000456,395.6314124000055,None,None,395.6314124000055,None,396.4387474500021,None,,,,22002,0001,2021_Sep_24_1406,localizer,2021.1.3,59.823675699750076,
block,scenes,scenes030.bmp,,,,,0,204,204,204,,,,,,,,,,,,,,,,,,,,,,,,,,,,,,,,,,,,,,,,,,None,,396.4387474500021,None,396.4387474500021,None,2021-09-24-14:13:13.029383,396.43986640000367,396.7387907999946,396.43986640000367,None,None,396.43986640000367,None,397.2389541500073,None,,,,22002,0001,2021_Sep_24_1406,localizer,2021.1.3,59.823675699750076,
block,scenes,scenes006.bmp,,,,,0,205,205,205,,,,,,,,,,,,,,,,,,,,,,,,,,,,,,,,,,,,,,,,,,None,,397.2389541500073,None,397.2389541500073,None,2021-09-24-14:13:13.837718,397.26092260000587,397.5722881999973,397.26092260000587,397.26092260000587,None,397.26092260000587,397.26092260000587,398.05562375000443,None,,,,22002,0001,2021_Sep_24_1406,localizer,2021.1.3,59.823675699750076,
block,scenes,scenes048.bmp,,,,,0,206,206,206,,,,,,,,,,,,,,,,,,,,,,,,,,,,,,,,,,,,,,,,,,None,,398.05562375000443,None,398.05562375000443,None,2021-09-24-14:13:14.652170,398.0779504999955,398.38894099999743,398.0779504999955,None,None,398.0779504999955,None,398.87229725000213,None,,,,22002,0001,2021_Sep_24_1406,localizer,2021.1.3,59.823675699750076,
block,scenes,scenes002.bmp,,,,,0,207,207,207,,,,,,,,,,,,,,,,,,,,,,,,,,,,,,,,,,,,,,,,,,None,,398.87229725000213,None,398.87229725000213,None,2021-09-24-14:13:15.469017,398.89307970000664,399.20542379999824,398.89307970000664,None,None,398.89307970000664,None,399.688926549998,None,,,,22002,0001,2021_Sep_24_1406,localizer,2021.1.3,59.823675699750076,
block,scenes,scenes027.bmp,,,,,0,208,208,208,,,,,,,,,,,,,,,,,,,,,,,,,,,,,,,,,,,,,,,,,,None,,399.688926549998,None,399.688926549998,None,2021-09-24-14:13:16.285635,399.6987009000004,400.00540660000115,399.6987009000004,None,None,399.6987009000004,None,400.5055638499965,None,,,,22002,0001,2021_Sep_24_1406,localizer,2021.1.3,59.823675699750076,
block,scenes,scenes062.bmp,,,,,0,209,209,209,,,,,,,,,,,,,,,,,,,,,,,,,,,,,,,,,,,,,,,,,,None,,400.5055638499965,None,400.5055638499965,None,2021-09-24-14:13:17.094496,400.5145149000018,400.8222899999964,400.5145149000018,None,None,400.5145149000018,None,401.322105250007,None,,,,22002,0001,2021_Sep_24_1406,localizer,2021.1.3,59.823675699750076,
block,scenes,scenes035.bmp,,,,,0,210,210,210,,,,,,,,,,,,,,,,,,,,,,,,,,,,,,,,,,,,,,,,,,None,,401.322105250007,None,401.322105250007,None,2021-09-24-14:13:17.912743,401.33443249999254,401.63890049999463,401.33443249999254,None,None,401.33443249999254,None,402.1389020499977,None,,,,22002,0001,2021_Sep_24_1406,localizer,2021.1.3,59.823675699750076,
block,scenes,scenes078.bmp,,,,,0,211,211,211,,,,,,,,,,,,,,,,,,,,,,,,,,,,,,,,,,,,,,,,,,None,,402.1389020499977,None,402.1389020499977,None,2021-09-24-14:13:18.735644,402.16031039999507,402.4723037999938,402.16031039999507,None,None,402.16031039999507,None,402.9556398500048,None,,,,22002,0001,2021_Sep_24_1406,localizer,2021.1.3,59.823675699750076,
block_end,scenes,scenes004.bmp,,,,,0,212,212,212,,,,,,,,,,,,,,,,,,,,,,,,,,,,,,,,,,,,,,,,,,None,,402.9556398500048,None,402.9556398500048,None,2021-09-24-14:13:19.552112,402.966256300002,403.27232049999293,402.966256300002,None,None,402.966256300002,None,403.77231074999725,None,,,,22002,0001,2021_Sep_24_1406,localizer,2021.1.3,59.823675699750076,
block_start,scrambled,scrambled063.bmp,,,,,0,213,213,213,,,,,,,,,,,,,,,,,,,,,,,,,,,,,,,,,,,,,,,,,,t,3.512972799988347,403.7723182000045,None,403.7723182000045,None,2021-09-24-14:13:23.900314,407.32429049999337,407.63888009999937,407.32429049999337,None,None,407.32429049999337,None,408.1223218500003,None,,,,22002,0001,2021_Sep_24_1406,localizer,2021.1.3,59.823675699750076,
block,scrambled,scrambled023.bmp,,,,,0,214,214,214,,,,,,,,,,,,,,,,,,,,,,,,,,,,,,,,,,,,,,,,,,None,,408.1223218500003,None,408.1223218500003,None,2021-09-24-14:13:24.719035,408.1311160000041,408.43898530000297,408.1311160000041,None,None,408.1311160000041,None,408.9390253499936,None,,,,22002,0001,2021_Sep_24_1406,localizer,2021.1.3,59.823675699750076,
block,scrambled,scrambled076.bmp,,,,,0,215,215,215,,,,,,,,,,,,,,,,,,,,,,,,,,,,,,,,,,,,,,,,,,None,,408.9390253499936,None,408.9390253499936,None,2021-09-24-14:13:25.536542,408.9602778999979,409.27235539999674,408.9602778999979,None,None,408.9602778999979,None,409.7554878499999,None,,,,22002,0001,2021_Sep_24_1406,localizer,2021.1.3,59.823675699750076,
block,scrambled,scrambled043.bmp,,,,,0,216,216,216,,,,,,,,,,,,,,,,,,,,,,,,,,,,,,,,,,,,,,,,,,None,,409.7554878499999,None,409.7554878499999,None,2021-09-24-14:13:26.345139,409.7608828999946,410.0723596000025,409.7608828999946,None,None,409.7608828999946,None,410.5723436500033,None,,,,22002,0001,2021_Sep_24_1406,localizer,2021.1.3,59.823675699750076,
block,scrambled,scrambled044.bmp,,,,,0,217,217,217,,,,,,,,,,,,,,,,,,,,,,,,,,,,,,,,,,,,,,,,,,None,,410.5723436500033,None,410.5723436500033,None,2021-09-24-14:13:27.168666,410.5922486000054,410.90556070000457,410.5922486000054,None,None,410.5922486000054,None,411.3890304500004,None,,,,22002,0001,2021_Sep_24_1406,localizer,2021.1.3,59.823675699750076,
block,scrambled,scrambled010.bmp,,,,,0,218,218,218,,,,,,,,,,,,,,,,,,,,,,,,,,,,,,,,,,,,,,,,,,None,,411.3890304500004,None,411.3890304500004,None,2021-09-24-14:13:27.986565,411.4101817000046,411.7222516000038,411.4101817000046,None,None,411.4101817000046,None,412.2055656500073,None,,,,22002,0001,2021_Sep_24_1406,localizer,2021.1.3,59.823675699750076,
block,scrambled,scrambled030.bmp,,,,,0,219,219,219,,,,,,,,,,,,,,,,,,,,,,,,,,,,,,,,,,,,,,,,,,None,,412.2055656500073,None,412.2055656500073,None,2021-09-24-14:13:28.795456,412.2125027000002,412.52237190000596,412.2125027000002,None,None,412.2125027000002,None,413.0223561499937,None,,,,22002,0001,2021_Sep_24_1406,localizer,2021.1.3,59.823675699750076,
block,scrambled,scrambled080.bmp,,,,,0,220,220,220,,,,,,,,,,,,,,,,,,,,,,,,,,,,,,,,,,,,,,,,,,None,,413.0223561499937,None,413.0223561499937,None,2021-09-24-14:13:29.620073,413.033305200006,413.3386252000055,413.033305200006,None,None,413.033305200006,None,413.8388111500011,None,,,,22002,0001,2021_Sep_24_1406,localizer,2021.1.3,59.823675699750076,
block,scrambled,scrambled009.bmp,,,,,0,221,221,221,,,,,,,,,,,,,,,,,,,,,,,,,,,,,,,,,,,,,,,,,,None,,413.8388111500011,None,413.8388111500011,None,2021-09-24-14:13:30.427745,413.8476415000041,414.1557143999962,413.8476415000041,None,None,413.8476415000041,None,414.6557231499959,None,,,,22002,0001,2021_Sep_24_1406,localizer,2021.1.3,59.823675699750076,
block,scrambled,scrambled041.bmp,,,,,0,222,222,222,,,,,,,,,,,,,,,,,,,,,,,,,,,,,,,,,,,,,,,,,,None,,414.6557231499959,None,414.6557231499959,None,2021-09-24-14:13:31.252296,414.66565339999215,414.9722322000016,414.66565339999215,None,None,414.66565339999215,None,415.47234115000754,None,,,,22002,0001,2021_Sep_24_1406,localizer,2021.1.3,59.823675699750076,
block,scrambled,scrambled056.bmp,,,,,0,223,223,223,,,,,,,,,,,,,,,,,,,,,,,,,,,,,,,,,,,,,,,,,,None,,415.47234115000754,None,415.47234115000754,None,2021-09-24-14:13:32.070856,415.4945369000052,415.8056649999926,415.4945369000052,None,None,415.4945369000052,None,416.2890898499958,None,,,,22002,0001,2021_Sep_24_1406,localizer,2021.1.3,59.823675699750076,
block,scrambled,scrambled028.bmp,,,,,0,224,224,224,,,,,,,,,,,,,,,,,,,,,,,,,,,,,,,,,,,,,,,,,,None,,416.2890898499958,None,416.2890898499958,None,2021-09-24-14:13:32.879781,416.29018209999776,416.5890419000061,416.29018209999776,None,None,416.29018209999776,None,417.1057474500034,None,,,,22002,0001,2021_Sep_24_1406,localizer,2021.1.3,59.823675699750076,
block,scrambled,scrambled029.bmp,,,,,0,225,225,225,,,,,,,,,,,,,,,,,,,,,,,,,,,,,,,,,,,,,,,,,,None,,417.1057474500034,None,417.1057474500034,None,2021-09-24-14:13:33.703264,417.11655740000424,417.4218983000028,417.11655740000424,None,None,417.11655740000424,None,417.9221816499979,None,,,,22002,0001,2021_Sep_24_1406,localizer,2021.1.3,59.823675699750076,
block,scrambled,scrambled084.bmp,,,,,0,226,226,226,,,,,,,,,,,,,,,,,,,,,,,,,,,,,,,,,,,,,,,,,,None,,417.9221816499979,None,417.9221816499979,None,2021-09-24-14:13:34.510927,417.92343979999714,418.2223932000052,417.92343979999714,None,None,417.92343979999714,None,418.73909895000395,None,,,,22002,0001,2021_Sep_24_1406,localizer,2021.1.3,59.823675699750076,
block_end,scrambled,scrambled047.bmp,,,,,0,227,227,227,,,,,,,,,,,,,,,,,,,,,,,,,,,,,,,,,,,,,,,,,,None,,418.73909895000395,None,418.73909895000395,None,2021-09-24-14:13:35.335618,418.75953819999995,419.07242690000567,418.75953819999995,None,None,418.75953819999995,None,419.55574304999607,None,,,,22002,0001,2021_Sep_24_1406,localizer,2021.1.3,59.823675699750076,
null_block,null_block,null_block.bmp,,,,,0,228,228,228,,,,,,,,,,,,,,,,,,,,,,,,,,,,,,,,,,,,,,,,,,t,3.6384060999989742,419.5557429000037,None,419.5557429000037,None,2021-09-24-14:13:39.816974,423.23912460000133,None,423.23912460000133,None,None,423.23912460000133,None,423.23559789999854,None,,,,22002,0001,2021_Sep_24_1406,localizer,2021.1.3,59.823675699750076,
block_start,faces,faces046.bmp,,,,,0,229,229,229,,,,,,,,,,,,,,,,,,,,,,,,,,,,,,,,,,,,,,,,,,t,2.0574067999987165,435.2391188000038,None,435.2391188000038,None,2021-09-24-14:13:53.919283,437.3284671000001,437.6391511999973,437.3284671000001,None,None,437.3284671000001,None,438.13912584999923,None,,,,22002,0001,2021_Sep_24_1406,localizer,2021.1.3,59.823675699750076,
block,faces,faces044.bmp,,,,,0,230,230,230,,,,,,,,,,,,,,,,,,,,,,,,,,,,,,,,,,,,,,,,,,None,,438.13912584999923,None,438.13912584999923,None,2021-09-24-14:13:54.737661,438.1667970999988,438.47229669999797,438.1667970999988,None,None,438.1667970999988,None,438.95575435000353,None,,,,22002,0001,2021_Sep_24_1406,localizer,2021.1.3,59.823675699750076,
block,faces,faces031.bmp,,,,,0,231,231,231,,,,,,,,,,,,,,,,,,,,,,,,,,,,,,,,,,,,,,,,,,None,,438.95575435000353,None,438.95575435000353,None,2021-09-24-14:13:55.544755,438.96282339999743,439.27248669999244,438.96282339999743,None,None,438.96282339999743,None,439.77245754999456,None,,,,22002,0001,2021_Sep_24_1406,localizer,2021.1.3,59.823675699750076,
block,faces,faces033.bmp,,,,,0,232,232,232,,,,,,,,,,,,,,,,,,,,,,,,,,,,,,,,,,,,,,,,,,None,,439.77245754999456,None,439.77245754999456,None,2021-09-24-14:13:56.370985,439.80161330000556,440.1058639999974,439.80161330000556,None,None,439.80161330000556,None,440.5891814499977,None,,,,22002,0001,2021_Sep_24_1406,localizer,2021.1.3,59.823675699750076,
block,faces,faces069.bmp,,,,,0,233,233,233,,,,,,,,,,,,,,,,,,,,,,,,,,,,,,,,,,,,,,,,,,None,,440.5891814499977,None,440.5891814499977,None,2021-09-24-14:13:57.185932,440.6102227999945,440.9224135999975,440.6102227999945,None,None,440.6102227999945,None,441.4056492500007,None,,,,22002,0001,2021_Sep_24_1406,localizer,2021.1.3,59.823675699750076,
block,faces,faces030.bmp,,,,,0,234,234,234,,,,,,,,,,,,,,,,,,,,,,,,,,,,,,,,,,,,,,,,,,None,,441.4056492500007,None,441.4056492500007,None,2021-09-24-14:13:57.996519,441.4067057999928,441.7058623000048,441.4067057999928,None,None,441.4067057999928,None,442.20577484999956,None,,,,22002,0001,2021_Sep_24_1406,localizer,2021.1.3,59.823675699750076,
block,faces,faces034.bmp,,,,,0,235,235,235,,,,,,,,,,,,,,,,,,,,,,,,,,,,,,,,,,,,,,,,,,None,,442.20577484999956,None,442.20577484999956,None,2021-09-24-14:13:58.805423,442.2311636999948,442.53908459999366,442.2311636999948,442.2311636999948,None,442.2311636999948,442.2311636999948,443.0225391500047,None,,,,22002,0001,2021_Sep_24_1406,localizer,2021.1.3,59.823675699750076,
block,faces,faces026.bmp,,,,,0,236,236,236,,,,,,,,,,,,,,,,,,,,,,,,,,,,,,,,,,,,,,,,,,None,,443.0225391500047,None,443.0225391500047,None,2021-09-24-14:13:59.620072,443.0707235000009,443.37249700000393,443.0707235000009,None,None,443.0707235000009,None,443.83913934999725,None,,,,22002,0001,2021_Sep_24_1406,localizer,2021.1.3,59.823675699750076,
block,faces,faces040.bmp,,,,,0,237,237,237,,,,,,,,,,,,,,,,,,,,,,,,,,,,,,,,,,,,,,,,,,None,,443.83913934999725,None,443.83913934999725,None,2021-09-24-14:14:00.435887,443.8615854999953,444.1725299999962,443.8615854999953,None,None,443.8615854999953,None,444.6557319500047,None,,,,22002,0001,2021_Sep_24_1406,localizer,2021.1.3,59.823675699750076,
block,faces,faces089.bmp,,,,,0,238,238,238,,,,,,,,,,,,,,,,,,,,,,,,,,,,,,,,,,,,,,,,,,None,,444.6557319500047,None,444.6557319500047,None,2021-09-24-14:14:01.247383,444.6584475999989,444.97257129999343,444.6584475999989,None,None,444.6584475999989,None,445.47254485000155,None,,,,22002,0001,2021_Sep_24_1406,localizer,2021.1.3,59.823675699750076,
block,faces,faces051.bmp,,,,,0,239,239,239,,,,,,,,,,,,,,,,,,,,,,,,,,,,,,,,,,,,,,,,,,None,,445.47254485000155,None,445.47254485000155,None,2021-09-24-14:14:02.069084,445.4961142999964,445.8058811999945,445.4961142999964,None,None,445.4961142999964,None,446.28920165000306,None,,,,22002,0001,2021_Sep_24_1406,localizer,2021.1.3,59.823675699750076,
block,faces,faces063.bmp,,,,,0,240,240,240,,,,,,,,,,,,,,,,,,,,,,,,,,,,,,,,,,,,,,,,,,None,,446.28920165000306,None,446.28920165000306,None,2021-09-24-14:14:02.885366,446.2995544000005,446.60583359999873,446.2995544000005,None,None,446.2995544000005,None,447.1058976499975,None,,,,22002,0001,2021_Sep_24_1406,localizer,2021.1.3,59.823675699750076,
block,faces,faces063.bmp,,,,,0,241,241,241,,,,,,,,,,,,,,,,,,,,,,,,,,,,,,,,,,,,,,,,,,None,,447.1058976499975,None,447.1058976499975,None,2021-09-24-14:14:03.703431,447.1169663000037,447.4223223000008,447.1169663000037,None,None,447.1169663000037,None,447.92254284999797,None,,,,22002,0001,2021_Sep_24_1406,localizer,2021.1.3,59.823675699750076,
block,faces,faces037.bmp,,,,,0,242,242,242,,,,,,,,,,,,,,,,,,,,,,,,,,,,,,,,,,,,,,,,,,None,,447.92254284999797,None,447.92254284999797,None,2021-09-24-14:14:04.519107,447.9337073999923,448.23888210000587,447.9337073999923,None,None,447.9337073999923,None,448.7391457499965,None,,,,22002,0001,2021_Sep_24_1406,localizer,2021.1.3,59.823675699750076,
block_end,faces,faces018.bmp,,,,,0,243,243,243,,,,,,,,,,,,,,,,,,,,,,,,,,,,,,,,,,,,,,,,,,None,,448.7391457499965,None,448.7391457499965,None,2021-09-24-14:14:05.328105,448.7489096000063,449.0558935000008,448.7489096000063,None,None,448.7489096000063,None,449.55591294999465,None,,,,22002,0001,2021_Sep_24_1406,localizer,2021.1.3,59.823675699750076,
,,,,,,,,,,,,,,,,,,,,,,,,,,,,,,,,,,,,,,,,,,,,,,,,,,,,,,,,,,,,,,,,,,,,,449.55587280000327,None,,,,,,,
