block_type,condition,img_name,Button.thisRepN,Button.thisTrialN,Button.thisN,Button.thisIndex,trials.thisRepN,trials.thisTrialN,trials.thisN,trials.thisIndex,Ready_experimenter_text.started,Ready_experimenter_text.stopped,Ready_experimenter_resp.keys,Ready_experimenter_resp.rt,Ready_experimenter_resp.started,Ready_experimenter_resp.stopped,Alignment_background.started,Alignment_background.stopped,Alignment_image.started,Alignment_image.stopped,Alignment_resp.keys,Alignment_resp.rt,Alignment_resp.started,Alignment_resp.stopped,Button_text.started,Button_text.stopped,Index_text.started,Index_text.stopped,Index_resp.keys,Index_resp.rt,Index_resp.started,Index_resp.stopped,Middle_text.started,Middle_text.stopped,Middle_resp.keys,Middle_resp.rt,Middle_resp.started,Middle_resp.stopped,Repeat_text.started,Repeat_text.stopped,Repeat_resp.keys,Repeat_resp.corr,Repeat_resp.rt,Repeat_resp.started,Repeat_resp.stopped,instruction_text.started,instruction_text.stopped,key_resp.keys,key_resp.rt,key_resp.started,key_resp.stopped,scanner_t.keys,scanner_t.rt,scanner_t.started,scanner_t.stopped,fixation_wait_for_t.started,fixation_wait_for_t.stopped,real_timestamp_trial_start,image.started,image.stopped,fixation.started,fixation.stopped,repeat_response.keys,repeat_response.started,repeat_response.stopped,fixation_null.started,fixation_null.stopped,repeat_response.rt,end_text.started,end_text.stopped,participant,run,date,expName,psychopyVersion,frameRate,
,,,,,,,,,,,11.919413399882615,None,return,475.0023554000072,11.919413399882615,None,,,,,,,,,,,,,,,,,,,,,,,,,,,,,,,,,,,,,,,,,,,,,,,,,,,,,,,22008,0002,2022_Apr_21_1221,localizer,2021.1.3,61.51922967540646,
,,,,,,,,,,,,,,,,,486.961875599809,None,486.961875599809,None,return,0.8090955000370741,486.961875599809,None,,,,,,,,,,,,,,,,,,,,,,,,,,,,,,,,,,,,,,,,,,,,,,,22008,0002,2022_Apr_21_1221,localizer,2021.1.3,61.51922967540646,
,,,0,0,0,0,,,,,,,,,,,,,,,,,,,487.7920525998343,None,488.7917485998478,None,y,2.7738748998381197,488.7917485998478,None,491.5922983000055,None,b,1.6323482999578118,491.5922983000055,None,493.2422670999076,None,n,0,22.653628300176933,493.2422670999076,None,,,,,,,,,,,,,,,,,,,,,,,,,,22008,0002,2022_Apr_21_1221,localizer,2021.1.3,61.51922967540646,
,,,,,,,,,,,,,,,,,,,,,,,,,,,,,,,,,,,,,,,,,,,,,,515.9250395998824,None,y,5.942525299964473,515.9250395998824,None,,,,,,,,,,,,,,,,,,,,22008,0002,2022_Apr_21_1221,localizer,2021.1.3,61.51922967540646,
block_start,scrambled,scrambled004.bmp,,,,,0,0,0,0,,,,,,,,,,,,,,,,,,,,,,,,,,,,,,,,,,,,,,,,,,t,16.392478300025687,521.9261350999586,None,521.9261350999586,None,2022-04-21-12:30:14.317115,538.3428328998853,538.6587769999169,538.3428328998853,None,None,538.3428328998853,None,539.1418869899586,None,,,,22008,0002,2022_Apr_21_1221,localizer,2021.1.3,61.51922967540646,
block,scrambled,scrambled034.bmp,,,,,0,1,1,1,,,,,,,,,,,,,,,,,,,,,,,,,,,,,,,,,,,,,,,,,,None,,539.1418869899586,None,539.1418869899586,None,2022-04-21-12:30:15.120757,539.1443580000196,539.4589815000072,539.1443580000196,539.1443580000196,None,539.1443580000196,539.1443580000196,539.9588685898576,None,,,,22008,0002,2022_Apr_21_1221,localizer,2021.1.3,61.51922967540646,
block,scrambled,scrambled075.bmp,,,,,0,2,2,2,,,,,,,,,,,,,,,,,,,,,,,,,,,,,,,,,,,,,,,,,,None,,539.9588685898576,None,539.9588685898576,None,2022-04-21-12:30:15.935946,539.9597004998941,540.2601568999235,539.9597004998941,None,None,539.9597004998941,None,540.7591187899467,None,,,,22008,0002,2022_Apr_21_1221,localizer,2021.1.3,61.51922967540646,
block,scrambled,scrambled054.bmp,,,,,0,3,3,3,,,,,,,,,,,,,,,,,,,,,,,,,,,,,,,,,,,,,,,,,,None,,540.7591187899467,None,540.7591187899467,None,2022-04-21-12:30:16.738956,540.7622467000037,541.0752908999566,540.7622467000037,540.7622467000037,None,540.7622467000037,540.7622467000037,541.5754593898542,None,,,,22008,0002,2022_Apr_21_1221,localizer,2021.1.3,61.51922967540646,
block,scrambled,scrambled077.bmp,,,,,0,4,4,4,,,,,,,,,,,,,,,,,,,,,,,,,,,,,,,,,,,,,,,,,,None,,541.5754593898542,None,541.5754593898542,None,2022-04-21-12:30:17.552333,541.5762333997991,541.8754546998534,541.5762333997991,None,None,541.5762333997991,None,542.375756389834,None,,,,22008,0002,2022_Apr_21_1221,localizer,2021.1.3,61.51922967540646,
block,scrambled,scrambled052.bmp,,,,,0,5,5,5,,,,,,,,,,,,,,,,,,,,,,,,,,,,,,,,,,,,,,,,,,None,,542.375756389834,None,542.375756389834,None,2022-04-21-12:30:18.355613,542.3887696999591,542.6921136998571,542.3887696999591,542.3887696999591,None,542.3887696999591,542.3887696999591,543.1919807897881,None,,,,22008,0002,2022_Apr_21_1221,localizer,2021.1.3,61.51922967540646,
block,scrambled,scrambled025.bmp,,,,,0,6,6,6,,,,,,,,,,,,,,,,,,,,,,,,,,,,,,,,,,,,,,,,,,None,,543.1919807897881,None,543.1919807897881,None,2022-04-21-12:30:19.168850,543.192906399956,543.4923431000207,543.192906399956,None,None,543.192906399956,None,543.9926929899026,None,,,,22008,0002,2022_Apr_21_1221,localizer,2021.1.3,61.51922967540646,
block,scrambled,scrambled049.bmp,,,,,0,7,7,7,,,,,,,,,,,,,,,,,,,,,,,,,,,,,,,,,,,,,,,,,,None,,543.9926929899026,None,543.9926929899026,None,2022-04-21-12:30:19.972527,543.995802299818,544.3090388998389,543.995802299818,543.995802299818,None,543.995802299818,543.995802299818,544.8092099899892,None,,,,22008,0002,2022_Apr_21_1221,localizer,2021.1.3,61.51922967540646,
block,scrambled,scrambled084.bmp,,,,,0,8,8,8,,,,,,,,,,,,,,,,,,,,,,,,,,,,,,,,,,,,,,,,,,None,,544.8092099899892,None,544.8092099899892,None,2022-04-21-12:30:20.787293,544.8097841998097,545.1102742999792,544.8097841998097,None,None,544.8097841998097,None,545.6253656900022,None,,,,22008,0002,2022_Apr_21_1221,localizer,2021.1.3,61.51922967540646,
block,scrambled,scrambled039.bmp,,,,,0,9,9,9,,,,,,,,,,,,,,,,,,,,,,,,,,,,,,,,,,,,,,,,,,None,,545.6253656900022,None,545.6253656900022,None,2022-04-21-12:30:21.602199,545.6349731998052,545.9422636998352,545.6349731998052,None,None,545.6349731998052,None,546.4419740898535,None,,,,22008,0002,2022_Apr_21_1221,localizer,2021.1.3,61.51922967540646,
block,scrambled,scrambled074.bmp,,,,,0,10,10,10,,,,,,,,,,,,,,,,,,,,,,,,,,,,,,,,,,,,,,,,,,None,,546.4419740898535,None,546.4419740898535,None,2022-04-21-12:30:22.418848,546.4428889998235,546.742168799974,546.4428889998235,None,None,546.4428889998235,None,547.2424639897887,None,,,,22008,0002,2022_Apr_21_1221,localizer,2021.1.3,61.51922967540646,
block,scrambled,scrambled028.bmp,,,,,0,11,11,11,,,,,,,,,,,,,,,,,,,,,,,,,,,,,,,,,,,,,,,,,,None,,547.2424639897887,None,547.2424639897887,None,2022-04-21-12:30:23.222300,547.2557543998118,547.5586832999252,547.2557543998118,547.2557543998118,None,547.2557543998118,547.2557543998118,548.0585742899217,None,,,,22008,0002,2022_Apr_21_1221,localizer,2021.1.3,61.51922967540646,
block,scrambled,scrambled083.bmp,,,,,0,12,12,12,,,,,,,,,,,,,,,,,,,,,,,,,,,,,,,,,,,,,,,,,,None,,548.0585742899217,None,548.0585742899217,None,2022-04-21-12:30:24.035450,548.0599134999793,548.3753755998332,548.0599134999793,None,None,548.0599134999793,None,548.875253389962,None,,,,22008,0002,2022_Apr_21_1221,localizer,2021.1.3,61.51922967540646,
block,scrambled,scrambled007.bmp,,,,,0,13,13,13,,,,,,,,,,,,,,,,,,,,,,,,,,,,,,,,,,,,,,,,,,None,,548.875253389962,None,548.875253389962,None,2022-04-21-12:30:24.852084,548.8843691998627,549.1920588000212,548.8843691998627,None,None,548.8843691998627,None,549.6924549899064,None,,,,22008,0002,2022_Apr_21_1221,localizer,2021.1.3,61.51922967540646,
block_end,scrambled,scrambled030.bmp,,,,,0,14,14,14,,,,,,,,,,,,,,,,,,,,,,,,,,,,,,,,,,,,,,,,,,None,,549.6924549899064,None,549.6924549899064,None,2022-04-21-12:30:25.669524,549.6933464999311,549.9926719998475,549.6933464999311,None,None,549.6933464999311,None,550.5087906898931,None,,,,22008,0002,2022_Apr_21_1221,localizer,2021.1.3,61.51922967540646,
null_block,null_block,null_block.bmp,,,,,0,15,15,15,,,,,,,,,,,,,,,,,,,,,,,,,,,,,,,,,,,,,,,,,,t,1.8097558999434114,550.50877389987,None,550.50877389987,None,2022-04-21-12:30:28.320725,552.3426749898587,None,552.3426749898587,None,None,552.3426749898587,None,552.3496294999495,None,,,,22008,0002,2022_Apr_21_1221,localizer,2021.1.3,61.51922967540646,
block_start,scenes,scenes002.bmp,,,,,0,16,16,16,,,,,,,,,,,,,,,,,,,,,,,,,,,,,,,,,,,,,,,,,,t,1.9598777999635786,564.3587386999279,None,564.3587386999279,None,2022-04-21-12:30:42.324675,566.3583507000003,566.6596033999231,566.3583507000003,None,None,566.3583507000003,None,567.1601336900145,None,,,,22008,0002,2022_Apr_21_1221,localizer,2021.1.3,61.51922967540646,
block,scenes,scenes086.bmp,,,,,0,17,17,17,,,,,,,,,,,,,,,,,,,,,,,,,,,,,,,,,,,,,,,,,,None,,567.1601336900145,None,567.1601336900145,None,2022-04-21-12:30:43.138959,567.1634378999006,567.4763201999012,567.1634378999006,None,None,567.1634378999006,None,567.9767714898568,None,,,,22008,0002,2022_Apr_21_1221,localizer,2021.1.3,61.51922967540646,
block,scenes,scenes029.bmp,,,,,0,18,18,18,,,,,,,,,,,,,,,,,,,,,,,,,,,,,,,,,,,,,,,,,,None,,567.9767714898568,None,567.9767714898568,None,2022-04-21-12:30:43.954787,567.9863291999791,568.2926832998637,567.9863291999791,None,None,567.9863291999791,None,568.7919523898978,None,,,,22008,0002,2022_Apr_21_1221,localizer,2021.1.3,61.51922967540646,
block,scenes,scenes030.bmp,,,,,0,19,19,19,,,,,,,,,,,,,,,,,,,,,,,,,,,,,,,,,,,,,,,,,,None,,568.7919523898978,None,568.7919523898978,None,2022-04-21-12:30:44.768823,568.793414699845,569.108884899877,568.793414699845,None,None,568.793414699845,None,569.6090063898824,None,,,,22008,0002,2022_Apr_21_1221,localizer,2021.1.3,61.51922967540646,
block,scenes,scenes019.bmp,,,,,0,20,20,20,,,,,,,,,,,,,,,,,,,,,,,,,,,,,,,,,,,,,,,,,,None,,569.6090063898824,None,569.6090063898824,None,2022-04-21-12:30:45.585876,569.6100384998135,569.9258002999704,569.6100384998135,None,None,569.6100384998135,None,570.4126977898646,None,,,,22008,0002,2022_Apr_21_1221,localizer,2021.1.3,61.51922967540646,
block,scenes,scenes055.bmp,,,,,0,21,21,21,,,,,,,,,,,,,,,,,,,,,,,,,,,,,,,,,,,,,,,,,,None,,570.4126977898646,None,570.4126977898646,None,2022-04-21-12:30:46.400208,570.4335301998071,570.7423678999767,570.4335301998071,570.4335301998071,None,570.4335301998071,570.4335301998071,571.2256438898854,None,,,,22008,0002,2022_Apr_21_1221,localizer,2021.1.3,61.51922967540646,
block,scenes,scenes072.bmp,,,,,0,22,22,22,,,,,,,,,,,,,,,,,,,,,,,,,,,,,,,,,,,,,,,,,,None,,571.2256438898854,None,571.2256438898854,None,2022-04-21-12:30:47.202516,571.2355784999672,571.5424560999963,571.2355784999672,None,None,571.2355784999672,None,572.0426079900004,None,,,,22008,0002,2022_Apr_21_1221,localizer,2021.1.3,61.51922967540646,
block,scenes,scenes091.bmp,,,,,0,23,23,23,,,,,,,,,,,,,,,,,,,,,,,,,,,,,,,,,,,,,,,,,,None,,572.0426079900004,None,572.0426079900004,None,2022-04-21-12:30:48.020656,572.0537025998347,572.3590338998474,572.0537025998347,None,None,572.0537025998347,None,572.859160789894,None,,,,22008,0002,2022_Apr_21_1221,localizer,2021.1.3,61.51922967540646,
block,scenes,scenes051.bmp,,,,,0,24,24,24,,,,,,,,,,,,,,,,,,,,,,,,,,,,,,,,,,,,,,,,,,None,,572.859160789894,None,572.859160789894,None,2022-04-21-12:30:48.835950,572.871638200013,573.1760815000162,572.871638200013,None,None,572.871638200013,None,573.6758046898991,None,,,,22008,0002,2022_Apr_21_1221,localizer,2021.1.3,61.51922967540646,
block,scenes,scenes063.bmp,,,,,0,25,25,25,,,,,,,,,,,,,,,,,,,,,,,,,,,,,,,,,,,,,,,,,,None,,573.6758046898991,None,573.6758046898991,None,2022-04-21-12:30:49.652865,573.6889639999717,573.9923494998366,573.6889639999717,None,None,573.6889639999717,None,574.492253089929,None,,,,22008,0002,2022_Apr_21_1221,localizer,2021.1.3,61.51922967540646,
block,scenes,scenes039.bmp,,,,,0,26,26,26,,,,,,,,,,,,,,,,,,,,,,,,,,,,,,,,,,,,,,,,,,None,,574.492253089929,None,574.492253089929,None,2022-04-21-12:30:50.469126,574.4933346998878,574.8089901998173,574.4933346998878,None,None,574.4933346998878,None,575.2926450899337,None,,,,22008,0002,2022_Apr_21_1221,localizer,2021.1.3,61.51922967540646,
block,scenes,scenes018.bmp,,,,,0,27,27,27,,,,,,,,,,,,,,,,,,,,,,,,,,,,,,,,,,,,,,,,,,None,,575.2926450899337,None,575.2926450899337,None,2022-04-21-12:30:51.272616,575.3059209999628,575.6089633998927,575.3059209999628,575.3059209999628,None,575.3059209999628,575.3059209999628,576.108726489963,None,,,,22008,0002,2022_Apr_21_1221,localizer,2021.1.3,61.51922967540646,
block,scenes,scenes017.bmp,,,,,0,28,28,28,,,,,,,,,,,,,,,,,,,,,,,,,,,,,,,,,,,,,,,,,,None,,576.108726489963,None,576.108726489963,None,2022-04-21-12:30:52.085599,576.1177112997975,576.4256638998631,576.1177112997975,None,None,576.1177112997975,None,576.9257104898803,None,,,,22008,0002,2022_Apr_21_1221,localizer,2021.1.3,61.51922967540646,
block,scenes,scenes062.bmp,,,,,0,29,29,29,,,,,,,,,,,,,,,,,,,,,,,,,,,,,,,,,,,,,,,,,,None,,576.9257104898803,None,576.9257104898803,None,2022-04-21-12:30:52.902962,576.9382944998797,577.2424690998159,576.9382944998797,None,None,576.9382944998797,None,577.7434893899132,None,,,,22008,0002,2022_Apr_21_1221,localizer,2021.1.3,61.51922967540646,
block_end,scenes,scenes077.bmp,,,,,0,30,30,30,,,,,,,,,,,,,,,,,,,,,,,,,,,,,,,,,,,,,,,,,,None,,577.7434893899132,None,577.7434893899132,None,2022-04-21-12:30:53.722516,577.7563832998276,578.0588715998456,577.7563832998276,None,None,577.7563832998276,None,578.5592945899349,None,,,,22008,0002,2022_Apr_21_1221,localizer,2021.1.3,61.51922967540646,
block_start,faces,faces027.bmp,,,,,0,31,31,31,,,,,,,,,,,,,,,,,,,,,,,,,,,,,,,,,,,,,,,,,,t,1.7589483999181539,578.559492399916,None,578.559492399916,None,2022-04-21-12:30:56.317365,580.343564099865,580.6589759998024,580.343564099865,None,None,580.343564099865,None,581.1587950898335,None,,,,22008,0002,2022_Apr_21_1221,localizer,2021.1.3,61.51922967540646,
block,faces,faces083.bmp,,,,,0,32,32,32,,,,,,,,,,,,,,,,,,,,,,,,,,,,,,,,,,,,,,,,,,None,,581.1587950898335,None,581.1587950898335,None,2022-04-21-12:30:57.135194,581.1665750998072,581.4764282000251,581.1665750998072,None,None,581.1665750998072,None,581.9764446899295,None,,,,22008,0002,2022_Apr_21_1221,localizer,2021.1.3,61.51922967540646,
block,faces,faces071.bmp,,,,,0,33,33,33,,,,,,,,,,,,,,,,,,,,,,,,,,,,,,,,,,,,,,,,,,None,,581.9764446899295,None,581.9764446899295,None,2022-04-21-12:30:57.954451,581.9785633999854,582.2930691000074,581.9785633999854,None,None,581.9785633999854,None,582.7928656899836,None,,,,22008,0002,2022_Apr_21_1221,localizer,2021.1.3,61.51922967540646,
block,faces,faces019.bmp,,,,,0,34,34,34,,,,,,,,,,,,,,,,,,,,,,,,,,,,,,,,,,,,,,,,,,None,,582.7928656899836,None,582.7928656899836,None,2022-04-21-12:30:58.770705,582.8117618998513,583.1254776997957,582.8117618998513,None,None,582.8117618998513,None,583.6093152897898,None,,,,22008,0002,2022_Apr_21_1221,localizer,2021.1.3,61.51922967540646,
block,faces,faces033.bmp,,,,,0,35,35,35,,,,,,,,,,,,,,,,,,,,,,,,,,,,,,,,,,,,,,,,,,None,,583.6093152897898,None,583.6093152897898,None,2022-04-21-12:30:59.587543,583.6103872999083,583.9261906999163,583.6103872999083,None,None,583.6103872999083,None,584.4256614899729,None,,,,22008,0002,2022_Apr_21_1221,localizer,2021.1.3,61.51922967540646,
block,faces,faces086.bmp,,,,,0,36,36,36,,,,,,,,,,,,,,,,,,,,,,,,,,,,,,,,,,,,,,,,,,None,,584.4256614899729,None,584.4256614899729,None,2022-04-21-12:31:00.402537,584.4266274999827,584.7265091999434,584.4266274999827,None,None,584.4266274999827,None,585.2419758899138,None,,,,22008,0002,2022_Apr_21_1221,localizer,2021.1.3,61.51922967540646,
block,faces,faces024.bmp,,,,,0,37,37,37,,,,,,,,,,,,,,,,,,,,,,,,,,,,,,,,,,,,,,,,,,None,,585.2419758899138,None,585.2419758899138,None,2022-04-21-12:31:01.218849,585.2527471999638,585.5588930998929,585.2527471999638,None,None,585.2527471999638,None,586.0591828898993,None,,,,22008,0002,2022_Apr_21_1221,localizer,2021.1.3,61.51922967540646,
block,faces,faces065.bmp,,,,,0,38,38,38,,,,,,,,,,,,,,,,,,,,,,,,,,,,,,,,,,,,,,,,,,None,,586.0591828898993,None,586.0591828898993,None,2022-04-21-12:31:02.036357,586.0600870000198,586.3758944999427,586.0600870000198,None,None,586.0600870000198,None,586.8601783899591,None,,,,22008,0002,2022_Apr_21_1221,localizer,2021.1.3,61.51922967540646,
block,faces,faces036.bmp,,,,,0,39,39,39,,,,,,,,,,,,,,,,,,,,,,,,,,,,,,,,,,,,,,,,,,None,,586.8601783899591,None,586.8601783899591,None,2022-04-21-12:31:02.843017,586.8769794998225,587.1760308998637,586.8769794998225,586.8769794998225,None,586.8769794998225,586.8769794998225,587.6761807898525,None,,,,22008,0002,2022_Apr_21_1221,localizer,2021.1.3,61.51922967540646,
block,faces,faces014.bmp,,,,,0,40,40,40,,,,,,,,,,,,,,,,,,,,,,,,,,,,,,,,,,,,,,,,,,None,,587.6761807898525,None,587.6761807898525,None,2022-04-21-12:31:03.654245,587.6876189999748,587.9924979999196,587.6876189999748,None,None,587.6876189999748,None,588.4923416899052,None,,,,22008,0002,2022_Apr_21_1221,localizer,2021.1.3,61.51922967540646,
block,faces,faces088.bmp,,,,,0,41,41,41,,,,,,,,,,,,,,,,,,,,,,,,,,,,,,,,,,,,,,,,,,None,,588.4923416899052,None,588.4923416899052,None,2022-04-21-12:31:04.469210,588.5047416999005,588.8088351998013,588.5047416999005,None,None,588.5047416999005,None,589.3086024899036,None,,,,22008,0002,2022_Apr_21_1221,localizer,2021.1.3,61.51922967540646,
block,faces,faces050.bmp,,,,,0,42,42,42,,,,,,,,,,,,,,,,,,,,,,,,,,,,,,,,,,,,,,,,,,None,,589.3086024899036,None,589.3086024899036,None,2022-04-21-12:31:05.284560,589.3179039999377,589.6257499998901,589.3179039999377,None,None,589.3179039999377,None,590.1252974899486,None,,,,22008,0002,2022_Apr_21_1221,localizer,2021.1.3,61.51922967540646,
block,faces,faces089.bmp,,,,,0,43,43,43,,,,,,,,,,,,,,,,,,,,,,,,,,,,,,,,,,,,,,,,,,None,,590.1252974899486,None,590.1252974899486,None,2022-04-21-12:31:06.102173,590.1302518998273,590.4427211999428,590.1302518998273,None,None,590.1302518998273,None,590.9424334898591,None,,,,22008,0002,2022_Apr_21_1221,localizer,2021.1.3,61.51922967540646,
block,faces,faces089.bmp,,,,,0,44,44,44,,,,,,,,,,,,,,,,,,,,,,,,,,,,,,,,,,,,,,,,,,None,,590.9424334898591,None,590.9424334898591,None,2022-04-21-12:31:06.919538,590.9433394998778,591.259140299866,590.9433394998778,None,y,590.9433394998778,None,591.7429643898737,None,0.753937799949199,,,22008,0002,2022_Apr_21_1221,localizer,2021.1.3,61.51922967540646,
block_end,faces,faces016.bmp,,,,,0,45,45,45,,,,,,,,,,,,,,,,,,,,,,,,,,,,,,,,,,,,,,,,,,None,,591.7429643898737,None,591.7429643898737,None,2022-04-21-12:31:07.723586,591.76000749995,592.0596844998654,591.76000749995,591.76000749995,None,591.76000749995,591.76000749995,592.5650745899417,None,,,,22008,0002,2022_Apr_21_1221,localizer,2021.1.3,61.51922967540646,
block_start,objects,objects053.bmp,,,,,0,46,46,46,,,,,,,,,,,,,,,,,,,,,,,,,,,,,,,,,,,,,,,,,,t,1.7564818998798728,592.5619905998465,None,592.5619905998465,None,2022-04-21-12:31:10.317470,594.3433032999747,594.6592360998038,594.3433032999747,None,None,594.3433032999747,None,595.1425341899973,None,,,,22008,0002,2022_Apr_21_1221,localizer,2021.1.3,61.51922967540646,
block,objects,objects083.bmp,,,,,0,47,47,47,,,,,,,,,,,,,,,,,,,,,,,,,,,,,,,,,,,,,,,,,,None,,595.1425341899973,None,595.1425341899973,None,2022-04-21-12:31:11.121396,595.156424799934,595.4590741998982,595.156424799934,595.156424799934,None,595.156424799934,595.156424799934,595.9592267897912,None,,,,22008,0002,2022_Apr_21_1221,localizer,2021.1.3,61.51922967540646,
block,objects,objects046.bmp,,,,,0,48,48,48,,,,,,,,,,,,,,,,,,,,,,,,,,,,,,,,,,,,,,,,,,None,,595.9592267897912,None,595.9592267897912,None,2022-04-21-12:31:11.936582,595.9599233998451,596.2598911998793,595.9599233998451,None,None,595.9599233998451,None,596.7594325900078,None,,,,22008,0002,2022_Apr_21_1221,localizer,2021.1.3,61.51922967540646,
block,objects,objects006.bmp,,,,,0,49,49,49,,,,,,,,,,,,,,,,,,,,,,,,,,,,,,,,,,,,,,,,,,None,,596.7594325900078,None,596.7594325900078,None,2022-04-21-12:31:12.739480,596.7623932999559,597.0765341999941,596.7623932999559,596.7623932999559,None,596.7623932999559,596.7623932999559,597.5761977898889,None,,,,22008,0002,2022_Apr_21_1221,localizer,2021.1.3,61.51922967540646,
block,objects,objects034.bmp,,,,,0,50,50,50,,,,,,,,,,,,,,,,,,,,,,,,,,,,,,,,,,,,,,,,,,None,,597.5761977898889,None,597.5761977898889,None,2022-04-21-12:31:13.554256,597.5779045999516,597.893067699857,597.5779045999516,None,None,597.5779045999516,None,598.3924055899494,None,,,,22008,0002,2022_Apr_21_1221,localizer,2021.1.3,61.51922967540646,
block,objects,objects007.bmp,,,,,0,51,51,51,,,,,,,,,,,,,,,,,,,,,,,,,,,,,,,,,,,,,,,,,,None,,598.3924055899494,None,598.3924055899494,None,2022-04-21-12:31:14.369277,598.4021963998675,598.7088774999138,598.4021963998675,None,None,598.4021963998675,None,599.2091538898181,None,,,,22008,0002,2022_Apr_21_1221,localizer,2021.1.3,61.51922967540646,
block,objects,objects076.bmp,,,,,0,52,52,52,,,,,,,,,,,,,,,,,,,,,,,,,,,,,,,,,,,,,,,,,,None,,599.2091538898181,None,599.2091538898181,None,2022-04-21-12:31:15.186140,599.2101034999359,599.5094918999821,599.2101034999359,None,None,599.2101034999359,None,600.009320389852,None,,,,22008,0002,2022_Apr_21_1221,localizer,2021.1.3,61.51922967540646,
block,objects,objects067.bmp,,,,,0,53,53,53,,,,,,,,,,,,,,,,,,,,,,,,,,,,,,,,,,,,,,,,,,None,,600.009320389852,None,600.009320389852,None,2022-04-21-12:31:15.988160,600.0122630000114,600.326570399804,600.0122630000114,600.0122630000114,None,600.0122630000114,600.0122630000114,600.8262216899544,None,,,,22008,0002,2022_Apr_21_1221,localizer,2021.1.3,61.51922967540646,
block,objects,objects060.bmp,,,,,0,54,54,54,,,,,,,,,,,,,,,,,,,,,,,,,,,,,,,,,,,,,,,,,,None,,600.8262216899544,None,600.8262216899544,None,2022-04-21-12:31:16.804062,600.8372962998692,601.1423374000005,600.8372962998692,None,None,600.8372962998692,None,601.6421631899663,None,,,,22008,0002,2022_Apr_21_1221,localizer,2021.1.3,61.51922967540646,
block,objects,objects040.bmp,,,,,0,55,55,55,,,,,,,,,,,,,,,,,,,,,,,,,,,,,,,,,,,,,,,,,,None,,601.6421631899663,None,601.6421631899663,None,2022-04-21-12:31:17.619170,601.6432711998932,601.9432107999455,601.6432711998932,None,None,601.6432711998932,None,602.4424046898727,None,,,,22008,0002,2022_Apr_21_1221,localizer,2021.1.3,61.51922967540646,
block,objects,objects014.bmp,,,,,0,56,56,56,,,,,,,,,,,,,,,,,,,,,,,,,,,,,,,,,,,,,,,,,,None,,602.4424046898727,None,602.4424046898727,None,2022-04-21-12:31:18.420274,602.4538282998838,602.7591557998676,602.4538282998838,602.4538282998838,None,602.4538282998838,602.4538282998838,603.2591063898523,None,,,,22008,0002,2022_Apr_21_1221,localizer,2021.1.3,61.51922967540646,
block,objects,objects072.bmp,,,,,0,57,57,57,,,,,,,,,,,,,,,,,,,,,,,,,,,,,,,,,,,,,,,,,,None,,603.2591063898523,None,603.2591063898523,None,2022-04-21-12:31:19.235978,603.2697031998541,603.5755513999611,603.2697031998541,None,None,603.2697031998541,None,604.075460089976,None,,,,22008,0002,2022_Apr_21_1221,localizer,2021.1.3,61.51922967540646,
block,objects,objects011.bmp,,,,,0,58,58,58,,,,,,,,,,,,,,,,,,,,,,,,,,,,,,,,,,,,,,,,,,None,,604.075460089976,None,604.075460089976,None,2022-04-21-12:31:20.052332,604.0767542999238,604.3767043999396,604.0767542999238,None,None,604.0767542999238,None,604.8921222900041,None,,,,22008,0002,2022_Apr_21_1221,localizer,2021.1.3,61.51922967540646,
block,objects,objects065.bmp,,,,,0,59,59,59,,,,,,,,,,,,,,,,,,,,,,,,,,,,,,,,,,,,,,,,,,None,,604.8921222900041,None,604.8921222900041,None,2022-04-21-12:31:20.868995,604.898130599875,605.2089309999719,604.898130599875,None,None,604.898130599875,None,605.7091201899108,None,,,,22008,0002,2022_Apr_21_1221,localizer,2021.1.3,61.51922967540646,
block_end,objects,objects071.bmp,,,,,0,60,60,60,,,,,,,,,,,,,,,,,,,,,,,,,,,,,,,,,,,,,,,,,,None,,605.7091201899108,None,605.7091201899108,None,2022-04-21-12:31:21.685992,605.7183156998362,606.025530199986,605.7183156998362,None,None,605.7183156998362,None,606.5257783899084,None,,,,22008,0002,2022_Apr_21_1221,localizer,2021.1.3,61.51922967540646,
block_start,scrambled,scrambled067.bmp,,,,,0,61,61,61,,,,,,,,,,,,,,,,,,,,,,,,,,,,,,,,,,,,,,,,,,t,1.7926783000584692,606.5258159998339,None,606.5258159998339,None,2022-04-21-12:31:24.319175,608.343416800024,608.6590753998607,608.343416800024,None,None,608.343416800024,None,609.1426128900144,None,,,,22008,0002,2022_Apr_21_1221,localizer,2021.1.3,61.51922967540646,
block,scrambled,scrambled024.bmp,,,,,0,62,62,62,,,,,,,,,,,,,,,,,,,,,,,,,,,,,,,,,,,,,,,,,,None,,609.1426128900144,None,609.1426128900144,None,2022-04-21-12:31:25.120482,609.1434589999262,609.4591033000033,609.1434589999262,609.1434589999262,None,609.1434589999262,609.1434589999262,609.95906418995,None,,,,22008,0002,2022_Apr_21_1221,localizer,2021.1.3,61.51922967540646,
block,scrambled,scrambled047.bmp,,,,,0,63,63,63,,,,,,,,,,,,,,,,,,,,,,,,,,,,,,,,,,,,,,,,,,None,,609.95906418995,None,609.95906418995,None,2022-04-21-12:31:25.935510,609.9680605998728,610.2757038997952,609.9680605998728,None,None,609.9680605998728,None,610.775641189795,None,,,,22008,0002,2022_Apr_21_1221,localizer,2021.1.3,61.51922967540646,
block,scrambled,scrambled055.bmp,,,,,0,64,64,64,,,,,,,,,,,,,,,,,,,,,,,,,,,,,,,,,,,,,,,,,,None,,610.775641189795,None,610.775641189795,None,2022-04-21-12:31:26.752752,610.77682979987,611.0925437000114,610.77682979987,None,None,610.77682979987,None,611.5926163898781,None,,,,22008,0002,2022_Apr_21_1221,localizer,2021.1.3,61.51922967540646,
block,scrambled,scrambled004.bmp,,,,,0,65,65,65,,,,,,,,,,,,,,,,,,,,,,,,,,,,,,,,,,,,,,,,,,None,,611.5926163898781,None,611.5926163898781,None,2022-04-21-12:31:27.569609,611.5934284999967,611.8929089999292,611.5934284999967,None,None,611.5934284999967,None,612.409165889863,None,,,,22008,0002,2022_Apr_21_1221,localizer,2021.1.3,61.51922967540646,
block,scrambled,scrambled033.bmp,,,,,0,66,66,66,,,,,,,,,,,,,,,,,,,,,,,,,,,,,,,,,,,,,,,,,,None,,612.409165889863,None,612.409165889863,None,2022-04-21-12:31:28.386039,612.4101044000126,612.7259660998825,612.4101044000126,None,None,612.4101044000126,None,613.2256718898658,None,,,,22008,0002,2022_Apr_21_1221,localizer,2021.1.3,61.51922967540646,
block,scrambled,scrambled037.bmp,,,,,0,67,67,67,,,,,,,,,,,,,,,,,,,,,,,,,,,,,,,,,,,,,,,,,,None,,613.2256718898658,None,613.2256718898658,None,2022-04-21-12:31:29.202336,613.2353944999631,613.5426151999272,613.2353944999631,None,None,613.2353944999631,None,614.0420058899559,None,,,,22008,0002,2022_Apr_21_1221,localizer,2021.1.3,61.51922967540646,
block,scrambled,scrambled043.bmp,,,,,0,68,68,68,,,,,,,,,,,,,,,,,,,,,,,,,,,,,,,,,,,,,,,,,,None,,614.0420058899559,None,614.0420058899559,None,2022-04-21-12:31:30.017883,614.0455970999319,614.3590708998963,614.0455970999319,None,None,614.0455970999319,None,614.859696289897,None,,,,22008,0002,2022_Apr_21_1221,localizer,2021.1.3,61.51922967540646,
block,scrambled,scrambled064.bmp,,,,,0,69,69,69,,,,,,,,,,,,,,,,,,,,,,,,,,,,,,,,,,,,,,,,,,None,,614.859696289897,None,614.859696289897,None,2022-04-21-12:31:30.837632,614.8615633998998,615.1758989999071,614.8615633998998,None,None,614.8615633998998,None,615.6758204897866,None,,,,22008,0002,2022_Apr_21_1221,localizer,2021.1.3,61.51922967540646,
block,scrambled,scrambled022.bmp,,,,,0,70,70,70,,,,,,,,,,,,,,,,,,,,,,,,,,,,,,,,,,,,,,,,,,None,,615.6758204897866,None,615.6758204897866,None,2022-04-21-12:31:31.652693,615.6865056999959,615.9925905999262,615.6865056999959,None,None,615.6865056999959,None,616.4921936899424,None,,,,22008,0002,2022_Apr_21_1221,localizer,2021.1.3,61.51922967540646,
block,scrambled,scrambled077.bmp,,,,,0,71,71,71,,,,,,,,,,,,,,,,,,,,,,,,,,,,,,,,,,,,,,,,,,None,,616.4921936899424,None,616.4921936899424,None,2022-04-21-12:31:32.469068,616.4935406998266,616.8091833998915,616.4935406998266,None,None,616.4935406998266,None,617.3092062898446,None,,,,22008,0002,2022_Apr_21_1221,localizer,2021.1.3,61.51922967540646,
block,scrambled,scrambled058.bmp,,,,,0,72,72,72,,,,,,,,,,,,,,,,,,,,,,,,,,,,,,,,,,,,,,,,,,None,,617.3092062898446,None,617.3092062898446,None,2022-04-21-12:31:33.286288,617.3186492999084,617.6263814999256,617.3186492999084,None,None,617.3186492999084,None,618.125678189937,None,,,,22008,0002,2022_Apr_21_1221,localizer,2021.1.3,61.51922967540646,
block,scrambled,scrambled049.bmp,,,,,0,73,73,73,,,,,,,,,,,,,,,,,,,,,,,,,,,,,,,,,,,,,,,,,,None,,618.125678189937,None,618.125678189937,None,2022-04-21-12:31:34.102596,618.126685799798,618.44262779993,618.126685799798,None,None,618.126685799798,None,618.9258508897852,None,,,,22008,0002,2022_Apr_21_1221,localizer,2021.1.3,61.51922967540646,
block,scrambled,scrambled087.bmp,,,,,0,74,74,74,,,,,,,,,,,,,,,,,,,,,,,,,,,,,,,,,,,,,,,,,,None,,618.9258508897852,None,618.9258508897852,None,2022-04-21-12:31:34.904653,618.927017299924,619.2425817998592,618.927017299924,618.927017299924,None,618.927017299924,618.927017299924,619.7425513899885,None,,,,22008,0002,2022_Apr_21_1221,localizer,2021.1.3,61.51922967540646,
block_end,scrambled,scrambled030.bmp,,,,,0,75,75,75,,,,,,,,,,,,,,,,,,,,,,,,,,,,,,,,,,,,,,,,,,None,,619.7425513899885,None,619.7425513899885,None,2022-04-21-12:31:35.719422,619.7435005998705,620.0427201997954,619.7435005998705,None,None,619.7435005998705,None,620.5425564899575,None,,,,22008,0002,2022_Apr_21_1221,localizer,2021.1.3,61.51922967540646,
block_start,objects,objects023.bmp,,,,,0,76,76,76,,,,,,,,,,,,,,,,,,,,,,,,,,,,,,,,,,,,,,,,,,t,1.7759835000615567,620.5426099000033,None,620.5426099000033,None,2022-04-21-12:31:38.318917,622.3519199998118,622.6599524000194,622.3519199998118,None,None,622.3519199998118,None,623.1590883898549,None,,,,22008,0002,2022_Apr_21_1221,localizer,2021.1.3,61.51922967540646,
block,objects,objects033.bmp,,,,,0,77,77,77,,,,,,,,,,,,,,,,,,,,,,,,,,,,,,,,,,,,,,,,,,None,,623.1590883898549,None,623.1590883898549,None,2022-04-21-12:31:39.140920,623.1643596999347,623.4762503998354,623.1643596999347,None,None,623.1643596999347,None,623.9755844898988,None,,,,22008,0002,2022_Apr_21_1221,localizer,2021.1.3,61.51922967540646,
block,objects,objects034.bmp,,,,,0,78,78,78,,,,,,,,,,,,,,,,,,,,,,,,,,,,,,,,,,,,,,,,,,None,,623.9755844898988,None,623.9755844898988,None,2022-04-21-12:31:39.952459,623.976988399867,624.2926836998668,623.976988399867,None,None,623.976988399867,None,624.7925903898664,None,,,,22008,0002,2022_Apr_21_1221,localizer,2021.1.3,61.51922967540646,
block,objects,objects003.bmp,,,,,0,79,79,79,,,,,,,,,,,,,,,,,,,,,,,,,,,,,,,,,,,,,,,,,,None,,624.7925903898664,None,624.7925903898664,None,2022-04-21-12:31:40.769460,624.7935754999053,625.0929970999714,624.7935754999053,None,None,624.7935754999053,None,625.6090765899513,None,,,,22008,0002,2022_Apr_21_1221,localizer,2021.1.3,61.51922967540646,
block,objects,objects046.bmp,,,,,0,80,80,80,,,,,,,,,,,,,,,,,,,,,,,,,,,,,,,,,,,,,,,,,,None,,625.6090765899513,None,625.6090765899513,None,2022-04-21-12:31:41.585952,625.6102399998344,625.9259487998206,625.6102399998344,None,None,625.6102399998344,None,626.4101383899339,None,,,,22008,0002,2022_Apr_21_1221,localizer,2021.1.3,61.51922967540646,
block,objects,objects035.bmp,,,,,0,81,81,81,,,,,,,,,,,,,,,,,,,,,,,,,,,,,,,,,,,,,,,,,,None,,626.4101383899339,None,626.4101383899339,None,2022-04-21-12:31:42.389797,626.4249789998867,626.7260145999026,626.4249789998867,626.4249789998867,None,626.4249789998867,626.4249789998867,627.2258982899599,None,,,,22008,0002,2022_Apr_21_1221,localizer,2021.1.3,61.51922967540646,
block,objects,objects058.bmp,,,,,0,82,82,82,,,,,,,,,,,,,,,,,,,,,,,,,,,,,,,,,,,,,,,,,,None,,627.2258982899599,None,627.2258982899599,None,2022-04-21-12:31:43.202771,627.2268164998386,627.5299112999346,627.2268164998386,None,None,627.2268164998386,None,628.0264586898498,None,,,,22008,0002,2022_Apr_21_1221,localizer,2021.1.3,61.51922967540646,
block,objects,objects060.bmp,,,,,0,83,83,83,,,,,,,,,,,,,,,,,,,,,,,,,,,,,,,,,,,,,,,,,,None,,628.0264586898498,None,628.0264586898498,None,2022-04-21-12:31:44.005329,628.0268893998582,628.3426004999783,628.0268893998582,628.0268893998582,None,628.0268893998582,628.0268893998582,628.8271820898168,None,,,,22008,0002,2022_Apr_21_1221,localizer,2021.1.3,61.51922967540646,
block,objects,objects025.bmp,,,,,0,84,84,84,,,,,,,,,,,,,,,,,,,,,,,,,,,,,,,,,,,,,,,,,,None,,628.8271820898168,None,628.8271820898168,None,2022-04-21-12:31:44.807724,628.8415361000225,629.1429542999249,628.8415361000225,628.8415361000225,None,628.8415361000225,628.8415361000225,629.6425603899639,None,,,,22008,0002,2022_Apr_21_1221,localizer,2021.1.3,61.51922967540646,
block,objects,objects074.bmp,,,,,0,85,85,85,,,,,,,,,,,,,,,,,,,,,,,,,,,,,,,,,,,,,,,,,,None,,629.6425603899639,None,629.6425603899639,None,2022-04-21-12:31:45.619430,629.6521093000192,629.9600593999494,629.6521093000192,None,None,629.6521093000192,None,630.4589741899632,None,,,,22008,0002,2022_Apr_21_1221,localizer,2021.1.3,61.51922967540646,
block,objects,objects053.bmp,,,,,0,86,86,86,,,,,,,,,,,,,,,,,,,,,,,,,,,,,,,,,,,,,,,,,,None,,630.4589741899632,None,630.4589741899632,None,2022-04-21-12:31:46.435848,630.4601808998268,630.7761399999727,630.4601808998268,None,None,630.4601808998268,None,631.259415089991,None,,,,22008,0002,2022_Apr_21_1221,localizer,2021.1.3,61.51922967540646,
block,objects,objects053.bmp,,,,,0,87,87,87,,,,,,,,,,,,,,,,,,,,,,,,,,,,,,,,,,,,,,,,,,None,,631.259415089991,None,631.259415089991,None,2022-04-21-12:31:47.239273,631.2626745998859,631.5763651998714,631.2626745998859,631.2626745998859,y,631.2626745998859,631.2626745998859,632.0763229899109,None,0.6318461999762803,,,22008,0002,2022_Apr_21_1221,localizer,2021.1.3,61.51922967540646,
block,objects,objects075.bmp,,,,,0,88,88,88,,,,,,,,,,,,,,,,,,,,,,,,,,,,,,,,,,,,,,,,,,None,,632.0763229899109,None,632.0763229899109,None,2022-04-21-12:31:48.054410,632.0869556998368,632.3926546999719,632.0869556998368,None,None,632.0869556998368,None,632.893213789817,None,,,,22008,0002,2022_Apr_21_1221,localizer,2021.1.3,61.51922967540646,
block,objects,objects038.bmp,,,,,0,89,89,89,,,,,,,,,,,,,,,,,,,,,,,,,,,,,,,,,,,,,,,,,,None,,632.893213789817,None,632.893213789817,None,2022-04-21-12:31:48.871184,632.8952099999879,633.209042500006,632.8952099999879,None,None,632.8952099999879,None,633.7094488899689,None,,,,22008,0002,2022_Apr_21_1221,localizer,2021.1.3,61.51922967540646,
block_end,objects,objects082.bmp,,,,,0,90,90,90,,,,,,,,,,,,,,,,,,,,,,,,,,,,,,,,,,,,,,,,,,None,,633.7094488899689,None,633.7094488899689,None,2022-04-21-12:31:49.686316,633.710303499829,634.0096313999966,633.710303499829,None,None,633.710303499829,None,634.5258394897916,None,,,,22008,0002,2022_Apr_21_1221,localizer,2021.1.3,61.51922967540646,
null_block,null_block,null_block.bmp,,,,,0,91,91,91,,,,,,,,,,,,,,,,,,,,,,,,,,,,,,,,,,,,,,,,,,t,1.7925565000623465,634.525874099927,None,634.525874099927,None,2022-04-21-12:31:52.318617,636.3427434897982,None,636.3427434897982,None,None,636.3427434897982,None,636.3529256000184,None,,,,22008,0002,2022_Apr_21_1221,localizer,2021.1.3,61.51922967540646,
block_start,faces,faces034.bmp,,,,,0,92,92,92,,,,,,,,,,,,,,,,,,,,,,,,,,,,,,,,,,,,,,,,,,t,1.9578366000205278,648.3598884998355,None,648.3598884998355,None,2022-04-21-12:32:06.321481,650.3550167998765,650.6596589998808,650.3550167998765,None,None,650.3550167998765,None,651.1594343899284,None,,,,22008,0002,2022_Apr_21_1221,localizer,2021.1.3,61.51922967540646,
block,faces,faces046.bmp,,,,,0,93,93,93,,,,,,,,,,,,,,,,,,,,,,,,,,,,,,,,,,,,,,,,,,None,,651.1594343899284,None,651.1594343899284,None,2022-04-21-12:32:07.136287,651.1604195998516,651.4763096999377,651.1604195998516,None,None,651.1604195998516,None,651.9600057899021,None,,,,22008,0002,2022_Apr_21_1221,localizer,2021.1.3,61.51922967540646,
block,faces,faces061.bmp,,,,,0,94,94,94,,,,,,,,,,,,,,,,,,,,,,,,,,,,,,,,,,,,,,,,,,None,,651.9600057899021,None,651.9600057899021,None,2022-04-21-12:32:07.939923,651.9637378000189,652.2769694000017,651.9637378000189,651.9637378000189,None,651.9637378000189,651.9637378000189,652.7767444899306,None,,,,22008,0002,2022_Apr_21_1221,localizer,2021.1.3,61.51922967540646,
block,faces,faces069.bmp,,,,,0,95,95,95,,,,,,,,,,,,,,,,,,,,,,,,,,,,,,,,,,,,,,,,,,None,,652.7767444899306,None,652.7767444899306,None,2022-04-21-12:32:08.754598,652.788731899811,653.0927084998693,652.788731899811,None,None,652.788731899811,None,653.5925098898821,None,,,,22008,0002,2022_Apr_21_1221,localizer,2021.1.3,61.51922967540646,
block,faces,faces067.bmp,,,,,0,96,96,96,,,,,,,,,,,,,,,,,,,,,,,,,,,,,,,,,,,,,,,,,,None,,653.5925098898821,None,653.5925098898821,None,2022-04-21-12:32:09.569385,653.5937005998567,653.8930307999253,653.5937005998567,None,None,653.5937005998567,None,654.3927220899146,None,,,,22008,0002,2022_Apr_21_1221,localizer,2021.1.3,61.51922967540646,
block,faces,faces057.bmp,,,,,0,97,97,97,,,,,,,,,,,,,,,,,,,,,,,,,,,,,,,,,,,,,,,,,,None,,654.3927220899146,None,654.3927220899146,None,2022-04-21-12:32:10.371585,654.4076008999255,654.709448199952,654.4076008999255,654.4076008999255,None,654.4076008999255,654.4076008999255,655.2100745899603,None,,,,22008,0002,2022_Apr_21_1221,localizer,2021.1.3,61.51922967540646,
block,faces,faces032.bmp,,,,,0,98,98,98,,,,,,,,,,,,,,,,,,,,,,,,,,,,,,,,,,,,,,,,,,None,,655.2100745899603,None,655.2100745899603,None,2022-04-21-12:32:11.189126,655.2232661999296,655.5325844998006,655.2232661999296,None,None,655.2232661999296,None,656.0263969899621,None,,,,22008,0002,2022_Apr_21_1221,localizer,2021.1.3,61.51922967540646,
block,faces,faces036.bmp,,,,,0,99,99,99,,,,,,,,,,,,,,,,,,,,,,,,,,,,,,,,,,,,,,,,,,None,,656.0263969899621,None,656.0263969899621,None,2022-04-21-12:32:12.003166,656.0270420999732,656.3427434000187,656.0270420999732,None,None,656.0270420999732,None,656.8428542899434,None,,,,22008,0002,2022_Apr_21_1221,localizer,2021.1.3,61.51922967540646,
block,faces,faces011.bmp,,,,,0,100,100,100,,,,,,,,,,,,,,,,,,,,,,,,,,,,,,,,,,,,,,,,,,None,,656.8428542899434,None,656.8428542899434,None,2022-04-21-12:32:12.819736,656.853703300003,657.159365199972,656.853703300003,None,None,656.853703300003,None,657.6596095898655,None,,,,22008,0002,2022_Apr_21_1221,localizer,2021.1.3,61.51922967540646,
block,faces,faces015.bmp,,,,,0,101,101,101,,,,,,,,,,,,,,,,,,,,,,,,,,,,,,,,,,,,,,,,,,None,,657.6596095898655,None,657.6596095898655,None,2022-04-21-12:32:13.636767,657.6604140999261,657.959833699977,657.6604140999261,None,None,657.6604140999261,None,658.4602382899262,None,,,,22008,0002,2022_Apr_21_1221,localizer,2021.1.3,61.51922967540646,
block,faces,faces089.bmp,,,,,0,102,102,102,,,,,,,,,,,,,,,,,,,,,,,,,,,,,,,,,,,,,,,,,,None,,658.4602382899262,None,658.4602382899262,None,2022-04-21-12:32:14.440969,658.464300399879,658.7763105998747,658.464300399879,658.464300399879,None,658.464300399879,658.464300399879,659.2771214900073,None,,,,22008,0002,2022_Apr_21_1221,localizer,2021.1.3,61.51922967540646,
block,faces,faces088.bmp,,,,,0,103,103,103,,,,,,,,,,,,,,,,,,,,,,,,,,,,,,,,,,,,,,,,,,None,,659.2771214900073,None,659.2771214900073,None,2022-04-21-12:32:15.254960,659.2791363999713,659.5967048997991,659.2791363999713,None,None,659.2791363999713,None,660.0925502899569,None,,,,22008,0002,2022_Apr_21_1221,localizer,2021.1.3,61.51922967540646,
block,faces,faces005.bmp,,,,,0,104,104,104,,,,,,,,,,,,,,,,,,,,,,,,,,,,,,,,,,,,,,,,,,None,,660.0925502899569,None,660.0925502899569,None,2022-04-21-12:32:16.069425,660.093818699941,660.3929917998612,660.093818699941,None,None,660.093818699941,None,660.8931465900038,None,,,,22008,0002,2022_Apr_21_1221,localizer,2021.1.3,61.51922967540646,
block,faces,faces022.bmp,,,,,0,105,105,105,,,,,,,,,,,,,,,,,,,,,,,,,,,,,,,,,,,,,,,,,,None,,660.8931465900038,None,660.8931465900038,None,2022-04-21-12:32:16.873003,660.8962776998524,661.2100521000102,660.8962776998524,660.8962776998524,None,660.8962776998524,660.8962776998524,661.709985189978,None,,,,22008,0002,2022_Apr_21_1221,localizer,2021.1.3,61.51922967540646,
block_end,faces,faces049.bmp,,,,,0,106,106,106,,,,,,,,,,,,,,,,,,,,,,,,,,,,,,,,,,,,,,,,,,None,,661.709985189978,None,661.709985189978,None,2022-04-21-12:32:17.687843,661.721919399919,662.032730499981,661.721919399919,None,None,661.721919399919,None,662.5257115898654,None,,,,22008,0002,2022_Apr_21_1221,localizer,2021.1.3,61.51922967540646,
block_start,scenes,scenes092.bmp,,,,,0,107,107,107,,,,,,,,,,,,,,,,,,,,,,,,,,,,,,,,,,,,,,,,,,t,1.7915177000686526,662.5259537999518,None,662.5259537999518,None,2022-04-21-12:32:20.322955,664.3469775998965,664.6600299000274,664.3469775998965,None,None,664.3469775998965,None,665.1599684899207,None,,,,22008,0002,2022_Apr_21_1221,localizer,2021.1.3,61.51922967540646,
block,scenes,scenes003.bmp,,,,,0,108,108,108,,,,,,,,,,,,,,,,,,,,,,,,,,,,,,,,,,,,,,,,,,None,,665.1599684899207,None,665.1599684899207,None,2022-04-21-12:32:21.137854,665.169441399863,665.4763805000111,665.169441399863,None,None,665.169441399863,None,665.9767118898686,None,,,,22008,0002,2022_Apr_21_1221,localizer,2021.1.3,61.51922967540646,
block,scenes,scenes019.bmp,,,,,0,109,109,109,,,,,,,,,,,,,,,,,,,,,,,,,,,,,,,,,,,,,,,,,,None,,665.9767118898686,None,665.9767118898686,None,2022-04-21-12:32:21.955599,665.9796783998609,666.293134199921,665.9796783998609,None,None,665.9796783998609,None,666.7933088898659,None,,,,22008,0002,2022_Apr_21_1221,localizer,2021.1.3,61.51922967540646,
block,scenes,scenes025.bmp,,,,,0,110,110,110,,,,,,,,,,,,,,,,,,,,,,,,,,,,,,,,,,,,,,,,,,None,,666.7933088898659,None,666.7933088898659,None,2022-04-21-12:32:22.771149,666.8104244999122,667.1096232000273,666.8104244999122,None,None,666.8104244999122,None,667.6107576898299,None,,,,22008,0002,2022_Apr_21_1221,localizer,2021.1.3,61.51922967540646,
block,scenes,scenes086.bmp,,,,,0,111,111,111,,,,,,,,,,,,,,,,,,,,,,,,,,,,,,,,,,,,,,,,,,None,,667.6107576898299,None,667.6107576898299,None,2022-04-21-12:32:23.589786,667.6129945998546,667.9261886999011,667.6129945998546,None,None,667.6129945998546,None,668.4261930898298,None,,,,22008,0002,2022_Apr_21_1221,localizer,2021.1.3,61.51922967540646,
block,scenes,scenes016.bmp,,,,,0,112,112,112,,,,,,,,,,,,,,,,,,,,,,,,,,,,,,,,,,,,,,,,,,None,,668.4261930898298,None,668.4261930898298,None,2022-04-21-12:32:24.403062,668.4424214998726,668.7428962998092,668.4424214998726,None,None,668.4424214998726,None,669.2429020899814,None,,,,22008,0002,2022_Apr_21_1221,localizer,2021.1.3,61.51922967540646,
block,scenes,scenes058.bmp,,,,,0,113,113,113,,,,,,,,,,,,,,,,,,,,,,,,,,,,,,,,,,,,,,,,,,None,,669.2429020899814,None,669.2429020899814,None,2022-04-21-12:32:25.219772,669.2531744998414,669.5596681998577,669.2531744998414,None,None,669.2531744998414,None,670.0595070898067,None,,,,22008,0002,2022_Apr_21_1221,localizer,2021.1.3,61.51922967540646,
block,scenes,scenes064.bmp,,,,,0,114,114,114,,,,,,,,,,,,,,,,,,,,,,,,,,,,,,,,,,,,,,,,,,None,,670.0595070898067,None,670.0595070898067,None,2022-04-21-12:32:26.036824,670.0697362998035,670.376777399797,670.0697362998035,None,None,670.0697362998035,None,670.876000689948,None,,,,22008,0002,2022_Apr_21_1221,localizer,2021.1.3,61.51922967540646,
block,scenes,scenes015.bmp,,,,,0,115,115,115,,,,,,,,,,,,,,,,,,,,,,,,,,,,,,,,,,,,,,,,,,None,,670.876000689948,None,670.876000689948,None,2022-04-21-12:32:26.852853,670.8771156999283,671.176079900004,670.8771156999283,None,None,670.8771156999283,None,671.6762629900128,None,,,,22008,0002,2022_Apr_21_1221,localizer,2021.1.3,61.51922967540646,
block,scenes,scenes077.bmp,,,,,0,116,116,116,,,,,,,,,,,,,,,,,,,,,,,,,,,,,,,,,,,,,,,,,,None,,671.6762629900128,None,671.6762629900128,None,2022-04-21-12:32:27.655126,671.6793880998157,671.9927521999925,671.6793880998157,671.6793880998157,None,671.6793880998157,671.6793880998157,672.4931661900133,None,,,,22008,0002,2022_Apr_21_1221,localizer,2021.1.3,61.51922967540646,
block,scenes,scenes091.bmp,,,,,0,117,117,117,,,,,,,,,,,,,,,,,,,,,,,,,,,,,,,,,,,,,,,,,,None,,672.4931661900133,None,672.4931661900133,None,2022-04-21-12:32:28.470227,672.494049699977,672.8096878000069,672.494049699977,None,None,672.494049699977,None,673.2935530898627,None,,,,22008,0002,2022_Apr_21_1221,localizer,2021.1.3,61.51922967540646,
block,scenes,scenes062.bmp,,,,,0,118,118,118,,,,,,,,,,,,,,,,,,,,,,,,,,,,,,,,,,,,,,,,,,None,,673.2935530898627,None,673.2935530898627,None,2022-04-21-12:32:29.273406,673.2966775000095,673.6101496999618,673.2966775000095,673.2966775000095,None,673.2966775000095,673.2966775000095,674.1094014899805,None,,,,22008,0002,2022_Apr_21_1221,localizer,2021.1.3,61.51922967540646,
block,scenes,scenes074.bmp,,,,,0,119,119,119,,,,,,,,,,,,,,,,,,,,,,,,,,,,,,,,,,,,,,,,,,None,,674.1094014899805,None,674.1094014899805,None,2022-04-21-12:32:30.085280,674.1141599998809,674.4262665000279,674.1141599998809,None,None,674.1141599998809,None,674.9261831898708,None,,,,22008,0002,2022_Apr_21_1221,localizer,2021.1.3,61.51922967540646,
block,scenes,scenes061.bmp,,,,,0,120,120,120,,,,,,,,,,,,,,,,,,,,,,,,,,,,,,,,,,,,,,,,,,None,,674.9261831898708,None,674.9261831898708,None,2022-04-21-12:32:30.903054,674.9271594998427,675.242848899914,674.9271594998427,None,None,674.9271594998427,None,675.7261829899159,None,,,,22008,0002,2022_Apr_21_1221,localizer,2021.1.3,61.51922967540646,
block_end,scenes,scenes041.bmp,,,,,0,121,121,121,,,,,,,,,,,,,,,,,,,,,,,,,,,,,,,,,,,,,,,,,,None,,675.7261829899159,None,675.7261829899159,None,2022-04-21-12:32:31.705049,675.7275717998855,676.0430943998508,675.7275717998855,675.7275717998855,None,675.7275717998855,675.7275717998855,676.5272378899623,None,,,,22008,0002,2022_Apr_21_1221,localizer,2021.1.3,61.51922967540646,
null_block,null_block,null_block.bmp,,,,,0,122,122,122,,,,,,,,,,,,,,,,,,,,,,,,,,,,,,,,,,,,,,,,,,t,1.7896868002135307,676.5279769999906,None,676.5279769999906,None,2022-04-21-12:32:34.318305,678.3424311898649,None,678.3424311898649,None,None,678.3424311898649,None,678.3446139998268,None,,,,22008,0002,2022_Apr_21_1221,localizer,2021.1.3,61.51922967540646,
block_start,faces,faces070.bmp,,,,,0,123,123,123,,,,,,,,,,,,,,,,,,,,,,,,,,,,,,,,,,,,,,,,,,t,1.9732359000481665,690.3443303999957,None,690.3443303999957,None,2022-04-21-12:32:48.320452,692.3523808999453,692.6592782998923,692.3523808999453,None,None,692.3523808999453,None,693.1592845899519,None,,,,22008,0002,2022_Apr_21_1221,localizer,2021.1.3,61.51922967540646,
block,faces,faces081.bmp,,,,,0,124,124,124,,,,,,,,,,,,,,,,,,,,,,,,,,,,,,,,,,,,,,,,,,None,,693.1592845899519,None,693.1592845899519,None,2022-04-21-12:32:49.134939,693.1610240999144,693.4756442999933,693.1610240999144,None,None,693.1610240999144,None,693.976482689986,None,,,,22008,0002,2022_Apr_21_1221,localizer,2021.1.3,61.51922967540646,
block,faces,faces039.bmp,,,,,0,125,125,125,,,,,,,,,,,,,,,,,,,,,,,,,,,,,,,,,,,,,,,,,,None,,693.976482689986,None,693.976482689986,None,2022-04-21-12:32:49.952200,693.9775959998369,694.2926977998577,693.9775959998369,None,None,693.9775959998369,None,694.7925964897964,None,,,,22008,0002,2022_Apr_21_1221,localizer,2021.1.3,61.51922967540646,
block,faces,faces011.bmp,,,,,0,126,126,126,,,,,,,,,,,,,,,,,,,,,,,,,,,,,,,,,,,,,,,,,,None,,694.7925964897964,None,694.7925964897964,None,2022-04-21-12:32:50.769048,694.7943281999324,695.1093891998753,694.7943281999324,None,None,694.7943281999324,None,695.6098192899022,None,,,,22008,0002,2022_Apr_21_1221,localizer,2021.1.3,61.51922967540646,
block,faces,faces080.bmp,,,,,0,127,127,127,,,,,,,,,,,,,,,,,,,,,,,,,,,,,,,,,,,,,,,,,,None,,695.6098192899022,None,695.6098192899022,None,2022-04-21-12:32:51.585992,695.6117429998703,695.9260289999656,695.6117429998703,None,None,695.6117429998703,None,696.4261316898279,None,,,,22008,0002,2022_Apr_21_1221,localizer,2021.1.3,61.51922967540646,
block,faces,faces003.bmp,,,,,0,128,128,128,,,,,,,,,,,,,,,,,,,,,,,,,,,,,,,,,,,,,,,,,,None,,696.4261316898279,None,696.4261316898279,None,2022-04-21-12:32:52.402808,696.4276321998332,696.7429142999463,696.4276321998332,None,None,696.4276321998332,None,697.2424841899425,None,,,,22008,0002,2022_Apr_21_1221,localizer,2021.1.3,61.51922967540646,
block,faces,faces051.bmp,,,,,0,129,129,129,,,,,,,,,,,,,,,,,,,,,,,,,,,,,,,,,,,,,,,,,,None,,697.2424841899425,None,697.2424841899425,None,2022-04-21-12:32:53.218564,697.2443052998278,697.5593210998923,697.2443052998278,None,None,697.2443052998278,None,698.0588604900055,None,,,,22008,0002,2022_Apr_21_1221,localizer,2021.1.3,61.51922967540646,
block,faces,faces060.bmp,,,,,0,130,130,130,,,,,,,,,,,,,,,,,,,,,,,,,,,,,,,,,,,,,,,,,,None,,698.0588604900055,None,698.0588604900055,None,2022-04-21-12:32:54.034777,698.0607826998457,698.3759405999444,698.0607826998457,None,None,698.0607826998457,None,698.8758321899455,None,,,,22008,0002,2022_Apr_21_1221,localizer,2021.1.3,61.51922967540646,
block,faces,faces067.bmp,,,,,0,131,131,131,,,,,,,,,,,,,,,,,,,,,,,,,,,,,,,,,,,,,,,,,,None,,698.8758321899455,None,698.8758321899455,None,2022-04-21-12:32:54.852086,698.8773421000224,699.192888799822,698.8773421000224,None,None,698.8773421000224,None,699.6925145898946,None,,,,22008,0002,2022_Apr_21_1221,localizer,2021.1.3,61.51922967540646,
block,faces,faces016.bmp,,,,,0,132,132,132,,,,,,,,,,,,,,,,,,,,,,,,,,,,,,,,,,,,,,,,,,None,,699.6925145898946,None,699.6925145898946,None,2022-04-21-12:32:55.668958,699.694079999812,699.9933332998771,699.694079999812,None,None,699.694079999812,None,700.5094709898345,None,,,,22008,0002,2022_Apr_21_1221,localizer,2021.1.3,61.51922967540646,
block,faces,faces024.bmp,,,,,0,133,133,133,,,,,,,,,,,,,,,,,,,,,,,,,,,,,,,,,,,,,,,,,,None,,700.5094709898345,None,700.5094709898345,None,2022-04-21-12:32:56.486693,700.5108915998135,700.8260041999165,700.5108915998135,None,None,700.5108915998135,None,701.3268749899231,None,,,,22008,0002,2022_Apr_21_1221,localizer,2021.1.3,61.51922967540646,
block,faces,faces085.bmp,,,,,0,134,134,134,,,,,,,,,,,,,,,,,,,,,,,,,,,,,,,,,,,,,,,,,,None,,701.3268749899231,None,701.3268749899231,None,2022-04-21-12:32:57.303967,701.3361124999356,701.642655499978,701.3361124999356,None,None,701.3361124999356,None,702.1423190898728,None,,,,22008,0002,2022_Apr_21_1221,localizer,2021.1.3,61.51922967540646,
block,faces,faces041.bmp,,,,,0,135,135,135,,,,,,,,,,,,,,,,,,,,,,,,,,,,,,,,,,,,,,,,,,None,,702.1423190898728,None,702.1423190898728,None,2022-04-21-12:32:58.119655,702.1465304999147,702.4592310998123,702.1465304999147,None,None,702.1465304999147,None,702.9589970897883,None,,,,22008,0002,2022_Apr_21_1221,localizer,2021.1.3,61.51922967540646,
block,faces,faces025.bmp,,,,,0,136,136,136,,,,,,,,,,,,,,,,,,,,,,,,,,,,,,,,,,,,,,,,,,None,,702.9589970897883,None,702.9589970897883,None,2022-04-21-12:32:58.936495,702.9607284998056,703.2758219998796,702.9607284998056,None,None,702.9607284998056,None,703.7756606898271,None,,,,22008,0002,2022_Apr_21_1221,localizer,2021.1.3,61.51922967540646,
block_end,faces,faces018.bmp,,,,,0,137,137,137,,,,,,,,,,,,,,,,,,,,,,,,,,,,,,,,,,,,,,,,,,None,,703.7756606898271,None,703.7756606898271,None,2022-04-21-12:32:59.753311,703.7774310000241,704.0757373999804,703.7774310000241,None,None,703.7774310000241,None,704.5927690899931,None,,,,22008,0002,2022_Apr_21_1221,localizer,2021.1.3,61.51922967540646,
block_start,scenes,scenes032.bmp,,,,,0,138,138,138,,,,,,,,,,,,,,,,,,,,,,,,,,,,,,,,,,,,,,,,,,t,1.724762599915266,704.5928710999433,None,704.5928710999433,None,2022-04-21-12:33:02.319708,706.344359499868,706.6597568998113,706.344359499868,None,None,706.344359499868,None,707.1596119898837,None,,,,22008,0002,2022_Apr_21_1221,localizer,2021.1.3,61.51922967540646,
block,scenes,scenes003.bmp,,,,,0,139,139,139,,,,,,,,,,,,,,,,,,,,,,,,,,,,,,,,,,,,,,,,,,None,,707.1596119898837,None,707.1596119898837,None,2022-04-21-12:33:03.136524,707.1609035998117,707.4763672000263,707.1609035998117,None,None,707.1609035998117,None,707.9761427898426,None,,,,22008,0002,2022_Apr_21_1221,localizer,2021.1.3,61.51922967540646,
block,scenes,scenes041.bmp,,,,,0,140,140,140,,,,,,,,,,,,,,,,,,,,,,,,,,,,,,,,,,,,,,,,,,None,,707.9761427898426,None,707.9761427898426,None,2022-04-21-12:33:03.951923,707.977522399975,708.2928443998098,707.977522399975,None,None,707.977522399975,None,708.7928193899803,None,,,,22008,0002,2022_Apr_21_1221,localizer,2021.1.3,61.51922967540646,
block,scenes,scenes066.bmp,,,,,0,141,141,141,,,,,,,,,,,,,,,,,,,,,,,,,,,,,,,,,,,,,,,,,,None,,708.7928193899803,None,708.7928193899803,None,2022-04-21-12:33:04.769327,708.7940551999491,709.1095384999644,708.7940551999491,None,None,708.7940551999491,None,709.6091953899246,None,,,,22008,0002,2022_Apr_21_1221,localizer,2021.1.3,61.51922967540646,
block,scenes,scenes057.bmp,,,,,0,142,142,142,,,,,,,,,,,,,,,,,,,,,,,,,,,,,,,,,,,,,,,,,,None,,709.6091953899246,None,709.6091953899246,None,2022-04-21-12:33:05.584818,709.6108711999841,709.9257844998501,709.6108711999841,None,None,709.6108711999841,None,710.4260169900023,None,,,,22008,0002,2022_Apr_21_1221,localizer,2021.1.3,61.51922967540646,
block,scenes,scenes071.bmp,,,,,0,143,143,143,,,,,,,,,,,,,,,,,,,,,,,,,,,,,,,,,,,,,,,,,,None,,710.4260169900023,None,710.4260169900023,None,2022-04-21-12:33:06.401906,710.4299065999221,710.7428360998165,710.4299065999221,None,None,710.4299065999221,None,711.2425562899094,None,,,,22008,0002,2022_Apr_21_1221,localizer,2021.1.3,61.51922967540646,
block,scenes,scenes017.bmp,,,,,0,144,144,144,,,,,,,,,,,,,,,,,,,,,,,,,,,,,,,,,,,,,,,,,,None,,711.2425562899094,None,711.2425562899094,None,2022-04-21-12:33:07.219884,711.2441052999347,711.5593921998516,711.2441052999347,None,None,711.2441052999347,None,712.0591674900148,None,,,,22008,0002,2022_Apr_21_1221,localizer,2021.1.3,61.51922967540646,
block,scenes,scenes046.bmp,,,,,0,145,145,145,,,,,,,,,,,,,,,,,,,,,,,,,,,,,,,,,,,,,,,,,,None,,712.0591674900148,None,712.0591674900148,None,2022-04-21-12:33:08.035636,712.0623542999383,712.3766040999908,712.0623542999383,None,None,712.0623542999383,None,712.8758836899884,None,,,,22008,0002,2022_Apr_21_1221,localizer,2021.1.3,61.51922967540646,
block,scenes,scenes061.bmp,,,,,0,146,146,146,,,,,,,,,,,,,,,,,,,,,,,,,,,,,,,,,,,,,,,,,,None,,712.8758836899884,None,712.8758836899884,None,2022-04-21-12:33:08.851586,712.8779398999177,713.1927404999733,712.8779398999177,None,None,712.8779398999177,None,713.6928045900073,None,,,,22008,0002,2022_Apr_21_1221,localizer,2021.1.3,61.51922967540646,
block,scenes,scenes061.bmp,,,,,0,147,147,147,,,,,,,,,,,,,,,,,,,,,,,,,,,,,,,,,,,,,,,,,,None,,713.6928045900073,None,713.6928045900073,None,2022-04-21-12:33:09.668382,713.6941187998746,714.0096495999023,713.6941187998746,None,y,713.6941187998746,None,714.5092152898666,None,0.6017476001288742,,,22008,0002,2022_Apr_21_1221,localizer,2021.1.3,61.51922967540646,
block,scenes,scenes023.bmp,,,,,0,148,148,148,,,,,,,,,,,,,,,,,,,,,,,,,,,,,,,,,,,,,,,,,,None,,714.5092152898666,None,714.5092152898666,None,2022-04-21-12:33:10.486607,714.5141347998288,714.8262910000049,714.5141347998288,None,None,714.5141347998288,None,715.3260413898621,None,,,,22008,0002,2022_Apr_21_1221,localizer,2021.1.3,61.51922967540646,
block,scenes,scenes076.bmp,,,,,0,149,149,149,,,,,,,,,,,,,,,,,,,,,,,,,,,,,,,,,,,,,,,,,,None,,715.3260413898621,None,715.3260413898621,None,2022-04-21-12:33:11.301785,715.3273224998266,715.6430471998174,715.3273224998266,None,None,715.3273224998266,None,716.1429092899431,None,,,,22008,0002,2022_Apr_21_1221,localizer,2021.1.3,61.51922967540646,
block,scenes,scenes087.bmp,,,,,0,150,150,150,,,,,,,,,,,,,,,,,,,,,,,,,,,,,,,,,,,,,,,,,,None,,716.1429092899431,None,716.1429092899431,None,2022-04-21-12:33:12.120401,716.1447343998589,716.4594578999095,716.1447343998589,None,None,716.1447343998589,None,716.9596828898881,None,,,,22008,0002,2022_Apr_21_1221,localizer,2021.1.3,61.51922967540646,
block,scenes,scenes002.bmp,,,,,0,151,151,151,,,,,,,,,,,,,,,,,,,,,,,,,,,,,,,,,,,,,,,,,,None,,716.9596828898881,None,716.9596828898881,None,2022-04-21-12:33:12.936554,716.9609148998279,717.2766803000122,716.9609148998279,None,None,716.9609148998279,None,717.7601850898005,None,,,,22008,0002,2022_Apr_21_1221,localizer,2021.1.3,61.51922967540646,
block_end,scenes,scenes016.bmp,,,,,0,152,152,152,,,,,,,,,,,,,,,,,,,,,,,,,,,,,,,,,,,,,,,,,,None,,717.7601850898005,None,717.7601850898005,None,2022-04-21-12:33:13.740020,717.7632853998803,718.0763164998498,717.7632853998803,717.7632853998803,None,717.7632853998803,717.7632853998803,718.576266189944,None,,,,22008,0002,2022_Apr_21_1221,localizer,2021.1.3,61.51922967540646,
block_start,scrambled,scrambled002.bmp,,,,,0,153,153,153,,,,,,,,,,,,,,,,,,,,,,,,,,,,,,,,,,,,,,,,,,t,1.741353000048548,718.5762948999181,None,718.5762948999181,None,2022-04-21-12:33:16.319419,720.3452584999613,720.6594559999648,720.3452584999613,None,None,720.3452584999613,None,721.1595668898896,None,,,,22008,0002,2022_Apr_21_1221,localizer,2021.1.3,61.51922967540646,
block,scrambled,scrambled031.bmp,,,,,0,154,154,154,,,,,,,,,,,,,,,,,,,,,,,,,,,,,,,,,,,,,,,,,,None,,721.1595668898896,None,721.1595668898896,None,2022-04-21-12:33:17.136469,721.1607576999813,721.4765761999879,721.1607576999813,None,None,721.1607576999813,None,721.9599641898182,None,,,,22008,0002,2022_Apr_21_1221,localizer,2021.1.3,61.51922967540646,
block,scrambled,scrambled023.bmp,,,,,0,155,155,155,,,,,,,,,,,,,,,,,,,,,,,,,,,,,,,,,,,,,,,,,,None,,721.9599641898182,None,721.9599641898182,None,2022-04-21-12:33:17.940057,721.9731932999566,722.2767772998195,721.9731932999566,721.9731932999566,None,721.9731932999566,721.9731932999566,722.7770003899001,None,,,,22008,0002,2022_Apr_21_1221,localizer,2021.1.3,61.51922967540646,
block,scrambled,scrambled012.bmp,,,,,0,156,156,156,,,,,,,,,,,,,,,,,,,,,,,,,,,,,,,,,,,,,,,,,,None,,722.7770003899001,None,722.7770003899001,None,2022-04-21-12:33:18.754889,722.7776384998579,723.0931677999906,722.7776384998579,None,None,722.7776384998579,None,723.5929891899228,None,,,,22008,0002,2022_Apr_21_1221,localizer,2021.1.3,61.51922967540646,
block,scrambled,scrambled048.bmp,,,,,0,157,157,157,,,,,,,,,,,,,,,,,,,,,,,,,,,,,,,,,,,,,,,,,,None,,723.5929891899228,None,723.5929891899228,None,2022-04-21-12:33:19.569863,723.5940741999075,723.9099340999965,723.5940741999075,None,None,723.5940741999075,None,724.4095898898319,None,,,,22008,0002,2022_Apr_21_1221,localizer,2021.1.3,61.51922967540646,
block,scrambled,scrambled018.bmp,,,,,0,158,158,158,,,,,,,,,,,,,,,,,,,,,,,,,,,,,,,,,,,,,,,,,,None,,724.4095898898319,None,724.4095898898319,None,2022-04-21-12:33:20.386459,724.4107695999555,724.7099636998028,724.4107695999555,None,None,724.4107695999555,None,725.2098032898735,None,,,,22008,0002,2022_Apr_21_1221,localizer,2021.1.3,61.51922967540646,
block,scrambled,scrambled075.bmp,,,,,0,159,159,159,,,,,,,,,,,,,,,,,,,,,,,,,,,,,,,,,,,,,,,,,,None,,725.2098032898735,None,725.2098032898735,None,2022-04-21-12:33:21.188669,725.2110650998075,725.5267355998512,725.2110650998075,725.2110650998075,None,725.2110650998075,725.2110650998075,726.0264712899458,None,,,,22008,0002,2022_Apr_21_1221,localizer,2021.1.3,61.51922967540646,
block,scrambled,scrambled039.bmp,,,,,0,160,160,160,,,,,,,,,,,,,,,,,,,,,,,,,,,,,,,,,,,,,,,,,,None,,726.0264712899458,None,726.0264712899458,None,2022-04-21-12:33:22.003338,726.0277020998765,726.343559099827,726.0277020998765,None,None,726.0277020998765,None,726.843363289861,None,,,,22008,0002,2022_Apr_21_1221,localizer,2021.1.3,61.51922967540646,
block,scrambled,scrambled010.bmp,,,,,0,161,161,161,,,,,,,,,,,,,,,,,,,,,,,,,,,,,,,,,,,,,,,,,,None,,726.843363289861,None,726.843363289861,None,2022-04-21-12:33:22.820404,726.8442847998813,727.1597906998359,726.8442847998813,None,None,726.8442847998813,None,727.6598664898426,None,,,,22008,0002,2022_Apr_21_1221,localizer,2021.1.3,61.51922967540646,
block,scrambled,scrambled064.bmp,,,,,0,162,162,162,,,,,,,,,,,,,,,,,,,,,,,,,,,,,,,,,,,,,,,,,,None,,727.6598664898426,None,727.6598664898426,None,2022-04-21-12:33:23.636738,727.6607687999494,727.9763472999912,727.6607687999494,None,None,727.6607687999494,None,728.4599588898942,None,,,,22008,0002,2022_Apr_21_1221,localizer,2021.1.3,61.51922967540646,
block,scrambled,scrambled029.bmp,,,,,0,163,163,163,,,,,,,,,,,,,,,,,,,,,,,,,,,,,,,,,,,,,,,,,,None,,728.4599588898942,None,728.4599588898942,None,2022-04-21-12:33:24.438194,728.4606372998096,728.7761138998903,728.4606372998096,728.4606372998096,None,728.4606372998096,728.4606372998096,729.2763679899741,None,,,,22008,0002,2022_Apr_21_1221,localizer,2021.1.3,61.51922967540646,
block,scrambled,scrambled011.bmp,,,,,0,164,164,164,,,,,,,,,,,,,,,,,,,,,,,,,,,,,,,,,,,,,,,,,,None,,729.2763679899741,None,729.2763679899741,None,2022-04-21-12:33:25.253237,729.2859650999308,729.593462199904,729.2859650999308,None,None,729.2859650999308,None,730.0933600898367,None,,,,22008,0002,2022_Apr_21_1221,localizer,2021.1.3,61.51922967540646,
block,scrambled,scrambled066.bmp,,,,,0,165,165,165,,,,,,,,,,,,,,,,,,,,,,,,,,,,,,,,,,,,,,,,,,None,,730.0933600898367,None,730.0933600898367,None,2022-04-21-12:33:26.070210,730.1037145999726,730.4098612999078,730.1037145999726,None,None,730.1037145999726,None,730.9096559899859,None,,,,22008,0002,2022_Apr_21_1221,localizer,2021.1.3,61.51922967540646,
block,scrambled,scrambled027.bmp,,,,,0,166,166,166,,,,,,,,,,,,,,,,,,,,,,,,,,,,,,,,,,,,,,,,,,None,,730.9096559899859,None,730.9096559899859,None,2022-04-21-12:33:26.885530,730.913982699858,731.2264298999216,730.913982699858,None,None,730.913982699858,None,731.7266895898152,None,,,,22008,0002,2022_Apr_21_1221,localizer,2021.1.3,61.51922967540646,
block_end,scrambled,scrambled058.bmp,,,,,0,167,167,167,,,,,,,,,,,,,,,,,,,,,,,,,,,,,,,,,,,,,,,,,,None,,731.7266895898152,None,731.7266895898152,None,2022-04-21-12:33:27.703669,731.7275637998246,732.0268588999752,731.7275637998246,None,None,731.7275637998246,None,732.5268551899586,None,,,,22008,0002,2022_Apr_21_1221,localizer,2021.1.3,61.51922967540646,
block_start,objects,objects028.bmp,,,,,0,168,168,168,,,,,,,,,,,,,,,,,,,,,,,,,,,,,,,,,,,,,,,,,,t,1.790711099980399,732.5268509997986,None,732.5268509997986,None,2022-04-21-12:33:30.320301,734.3521445000079,734.660216299817,734.3521445000079,None,None,734.3521445000079,None,735.1597642899957,None,,,,22008,0002,2022_Apr_21_1221,localizer,2021.1.3,61.51922967540646,
block,objects,objects034.bmp,,,,,0,169,169,169,,,,,,,,,,,,,,,,,,,,,,,,,,,,,,,,,,,,,,,,,,None,,735.1597642899957,None,735.1597642899957,None,2022-04-21-12:33:31.136588,735.1609783999156,735.4601757999044,735.1609783999156,None,None,735.1609783999156,None,735.9766925898381,None,,,,22008,0002,2022_Apr_21_1221,localizer,2021.1.3,61.51922967540646,
block,objects,objects043.bmp,,,,,0,170,170,170,,,,,,,,,,,,,,,,,,,,,,,,,,,,,,,,,,,,,,,,,,None,,735.9766925898381,None,735.9766925898381,None,2022-04-21-12:33:31.953594,735.9868577998132,736.2932684000116,735.9868577998132,None,None,735.9868577998132,None,736.7937918898184,None,,,,22008,0002,2022_Apr_21_1221,localizer,2021.1.3,61.51922967540646,
block,objects,objects052.bmp,,,,,0,171,171,171,,,,,,,,,,,,,,,,,,,,,,,,,,,,,,,,,,,,,,,,,,None,,736.7937918898184,None,736.7937918898184,None,2022-04-21-12:33:32.771837,736.7959318999201,737.1098471998703,736.7959318999201,None,None,736.7959318999201,None,737.6108549899888,None,,,,22008,0002,2022_Apr_21_1221,localizer,2021.1.3,61.51922967540646,
block,objects,objects053.bmp,,,,,0,172,172,172,,,,,,,,,,,,,,,,,,,,,,,,,,,,,,,,,,,,,,,,,,None,,737.6108549899888,None,737.6108549899888,None,2022-04-21-12:33:33.595318,737.6223698998801,737.9279700999614,737.6223698998801,None,None,737.6223698998801,None,738.4258501898963,None,,,,22008,0002,2022_Apr_21_1221,localizer,2021.1.3,61.51922967540646,
block,objects,objects003.bmp,,,,,0,173,173,173,,,,,,,,,,,,,,,,,,,,,,,,,,,,,,,,,,,,,,,,,,None,,738.4258501898963,None,738.4258501898963,None,2022-04-21-12:33:34.402987,738.427575699985,738.7268236998934,738.427575699985,None,None,738.427575699985,None,739.2266048899852,None,,,,22008,0002,2022_Apr_21_1221,localizer,2021.1.3,61.51922967540646,
block,objects,objects086.bmp,,,,,0,174,174,174,,,,,,,,,,,,,,,,,,,,,,,,,,,,,,,,,,,,,,,,,,None,,739.2266048899852,None,739.2266048899852,None,2022-04-21-12:33:35.206707,739.2389873999637,739.5433512998279,739.2389873999637,739.2389873999637,None,739.2389873999637,739.2389873999637,740.0434108899441,None,,,,22008,0002,2022_Apr_21_1221,localizer,2021.1.3,61.51922967540646,
block,objects,objects020.bmp,,,,,0,175,175,175,,,,,,,,,,,,,,,,,,,,,,,,,,,,,,,,,,,,,,,,,,None,,740.0434108899441,None,740.0434108899441,None,2022-04-21-12:33:36.020707,740.0443930998445,740.3597688998561,740.0443930998445,None,None,740.0443930998445,None,740.8600627900101,None,,,,22008,0002,2022_Apr_21_1221,localizer,2021.1.3,61.51922967540646,
block,objects,objects029.bmp,,,,,0,176,176,176,,,,,,,,,,,,,,,,,,,,,,,,,,,,,,,,,,,,,,,,,,None,,740.8600627900101,None,740.8600627900101,None,2022-04-21-12:33:36.836933,740.860826899996,741.1764926998876,740.860826899996,None,None,740.860826899996,None,741.6603539899457,None,,,,22008,0002,2022_Apr_21_1221,localizer,2021.1.3,61.51922967540646,
block,objects,objects050.bmp,,,,,0,177,177,177,,,,,,,,,,,,,,,,,,,,,,,,,,,,,,,,,,,,,,,,,,None,,741.6603539899457,None,741.6603539899457,None,2022-04-21-12:33:37.640233,741.6700083999895,741.9771406999789,741.6700083999895,741.6700083999895,None,741.6700083999895,741.6700083999895,742.476584589947,None,,,,22008,0002,2022_Apr_21_1221,localizer,2021.1.3,61.51922967540646,
block,objects,objects035.bmp,,,,,0,178,178,178,,,,,,,,,,,,,,,,,,,,,,,,,,,,,,,,,,,,,,,,,,None,,742.476584589947,None,742.476584589947,None,2022-04-21-12:33:38.453458,742.4774549999274,742.793220099993,742.4774549999274,None,None,742.4774549999274,None,743.2765375898686,None,,,,22008,0002,2022_Apr_21_1221,localizer,2021.1.3,61.51922967540646,
block,objects,objects023.bmp,,,,,0,179,179,179,,,,,,,,,,,,,,,,,,,,,,,,,,,,,,,,,,,,,,,,,,None,,743.2765375898686,None,743.2765375898686,None,2022-04-21-12:33:39.255370,743.2776258999947,743.593342699809,743.2776258999947,743.2776258999947,None,743.2776258999947,743.2776258999947,744.0933372898959,None,,,,22008,0002,2022_Apr_21_1221,localizer,2021.1.3,61.51922967540646,
block,objects,objects059.bmp,,,,,0,180,180,180,,,,,,,,,,,,,,,,,,,,,,,,,,,,,,,,,,,,,,,,,,None,,744.0933372898959,None,744.0933372898959,None,2022-04-21-12:33:40.070446,744.1040178998373,744.4101654998958,744.1040178998373,None,None,744.1040178998373,None,744.910067789862,None,,,,22008,0002,2022_Apr_21_1221,localizer,2021.1.3,61.51922967540646,
block,objects,objects018.bmp,,,,,0,181,181,181,,,,,,,,,,,,,,,,,,,,,,,,,,,,,,,,,,,,,,,,,,None,,744.910067789862,None,744.910067789862,None,2022-04-21-12:33:40.886946,744.9202892999165,745.2269181997981,744.9202892999165,None,None,744.9202892999165,None,745.7267900899984,None,,,,22008,0002,2022_Apr_21_1221,localizer,2021.1.3,61.51922967540646,
block_end,objects,objects024.bmp,,,,,0,182,182,182,,,,,,,,,,,,,,,,,,,,,,,,,,,,,,,,,,,,,,,,,,None,,745.7267900899984,None,745.7267900899984,None,2022-04-21-12:33:41.703660,745.7382553999778,746.0435995999724,745.7382553999778,None,None,745.7382553999778,None,746.5439267897979,None,,,,22008,0002,2022_Apr_21_1221,localizer,2021.1.3,61.51922967540646,
null_block,null_block,null_block.bmp,,,,,0,183,183,183,,,,,,,,,,,,,,,,,,,,,,,,,,,,,,,,,,,,,,,,,,t,1.7735089000780135,746.5439439998008,None,746.5439439998008,None,2022-04-21-12:33:44.318501,748.3434295897838,None,748.3434295897838,None,None,748.3434295897838,None,748.3536049998365,None,,,,22008,0002,2022_Apr_21_1221,localizer,2021.1.3,61.51922967540646,
block_start,scrambled,scrambled026.bmp,,,,,0,184,184,184,,,,,,,,,,,,,,,,,,,,,,,,,,,,,,,,,,,,,,,,,,t,1.957371500087902,760.3601706998888,None,760.3601706998888,None,2022-04-21-12:33:58.321882,762.345809499966,762.6601809000131,762.345809499966,None,None,762.345809499966,None,763.1603493899107,None,,,,22008,0002,2022_Apr_21_1221,localizer,2021.1.3,61.51922967540646,
block,scrambled,scrambled075.bmp,,,,,0,185,185,185,,,,,,,,,,,,,,,,,,,,,,,,,,,,,,,,,,,,,,,,,,None,,763.1603493899107,None,763.1603493899107,None,2022-04-21-12:33:59.138261,763.1611393999774,763.4604807998985,763.1611393999774,None,None,763.1611393999774,None,763.9601967899595,None,,,,22008,0002,2022_Apr_21_1221,localizer,2021.1.3,61.51922967540646,
block,scrambled,scrambled010.bmp,,,,,0,186,186,186,,,,,,,,,,,,,,,,,,,,,,,,,,,,,,,,,,,,,,,,,,None,,763.9601967899595,None,763.9601967899595,None,2022-04-21-12:33:59.938498,763.9609491999727,764.2604227999691,763.9609491999727,763.9609491999727,None,763.9609491999727,763.9609491999727,764.7600837898441,None,,,,22008,0002,2022_Apr_21_1221,localizer,2021.1.3,61.51922967540646,
block,scrambled,scrambled086.bmp,,,,,0,187,187,187,,,,,,,,,,,,,,,,,,,,,,,,,,,,,,,,,,,,,,,,,,None,,764.7600837898441,None,764.7600837898441,None,2022-04-21-12:34:00.740076,764.7726974999532,765.0766468998045,764.7726974999532,764.7726974999532,None,764.7726974999532,764.7726974999532,765.5769732898567,None,,,,22008,0002,2022_Apr_21_1221,localizer,2021.1.3,61.51922967540646,
block,scrambled,scrambled018.bmp,,,,,0,188,188,188,,,,,,,,,,,,,,,,,,,,,,,,,,,,,,,,,,,,,,,,,,None,,765.5769732898567,None,765.5769732898567,None,2022-04-21-12:34:01.553936,765.5777489999309,765.8934339999687,765.5777489999309,None,None,765.5777489999309,None,766.3933712899685,None,,,,22008,0002,2022_Apr_21_1221,localizer,2021.1.3,61.51922967540646,
block,scrambled,scrambled029.bmp,,,,,0,189,189,189,,,,,,,,,,,,,,,,,,,,,,,,,,,,,,,,,,,,,,,,,,None,,766.3933712899685,None,766.3933712899685,None,2022-04-21-12:34:02.370243,766.3942316998728,766.6943206998985,766.3942316998728,None,None,766.3942316998728,None,767.19323648992,None,,,,22008,0002,2022_Apr_21_1221,localizer,2021.1.3,61.51922967540646,
block,scrambled,scrambled029.bmp,,,,,0,190,190,190,,,,,,,,,,,,,,,,,,,,,,,,,,,,,,,,,,,,,,,,,,None,,767.19323648992,None,767.19323648992,None,2022-04-21-12:34:03.171106,767.1941797998734,767.4936267999001,767.1941797998734,767.1941797998734,None,767.1941797998734,767.1941797998734,767.9935939900112,None,,,,22008,0002,2022_Apr_21_1221,localizer,2021.1.3,61.51922967540646,
block,scrambled,scrambled084.bmp,,,,,0,191,191,191,,,,,,,,,,,,,,,,,,,,,,,,,,,,,,,,,,,,,,,,,,None,,767.9935939900112,None,767.9935939900112,None,2022-04-21-12:34:03.972522,767.9964137999341,768.310248099966,767.9964137999341,767.9964137999341,y,767.9964137999341,767.9964137999341,768.810184689844,None,0.061681700171902776,,,22008,0002,2022_Apr_21_1221,localizer,2021.1.3,61.51922967540646,
block,scrambled,scrambled044.bmp,,,,,0,192,192,192,,,,,,,,,,,,,,,,,,,,,,,,,,,,,,,,,,,,,,,,,,None,,768.810184689844,None,768.810184689844,None,2022-04-21-12:34:04.786906,768.8110559999477,769.1267434000038,768.8110559999477,None,None,768.8110559999477,None,769.6266305899713,None,,,,22008,0002,2022_Apr_21_1221,localizer,2021.1.3,61.51922967540646,
block,scrambled,scrambled007.bmp,,,,,0,193,193,193,,,,,,,,,,,,,,,,,,,,,,,,,,,,,,,,,,,,,,,,,,None,,769.6266305899713,None,769.6266305899713,None,2022-04-21-12:34:05.603477,769.6275976998731,769.9268862998579,769.6275976998731,None,None,769.6275976998731,None,770.4269467898645,None,,,,22008,0002,2022_Apr_21_1221,localizer,2021.1.3,61.51922967540646,
block,scrambled,scrambled017.bmp,,,,,0,194,194,194,,,,,,,,,,,,,,,,,,,,,,,,,,,,,,,,,,,,,,,,,,None,,770.4269467898645,None,770.4269467898645,None,2022-04-21-12:34:06.406806,770.4407632998191,770.7433149998542,770.4407632998191,770.4407632998191,None,770.4407632998191,770.4407632998191,771.2432932899334,None,,,,22008,0002,2022_Apr_21_1221,localizer,2021.1.3,61.51922967540646,
block,scrambled,scrambled047.bmp,,,,,0,195,195,195,,,,,,,,,,,,,,,,,,,,,,,,,,,,,,,,,,,,,,,,,,None,,771.2432932899334,None,771.2432932899334,None,2022-04-21-12:34:07.220885,771.2448554998264,771.5603240998462,771.2448554998264,None,None,771.2448554998264,None,772.0602130898275,None,,,,22008,0002,2022_Apr_21_1221,localizer,2021.1.3,61.51922967540646,
block,scrambled,scrambled059.bmp,,,,,0,196,196,196,,,,,,,,,,,,,,,,,,,,,,,,,,,,,,,,,,,,,,,,,,None,,772.0602130898275,None,772.0602130898275,None,2022-04-21-12:34:08.037565,772.0608906999696,772.3603429999202,772.0608906999696,None,None,772.0608906999696,None,772.8605100898072,None,,,,22008,0002,2022_Apr_21_1221,localizer,2021.1.3,61.51922967540646,
block,scrambled,scrambled088.bmp,,,,,0,197,197,197,,,,,,,,,,,,,,,,,,,,,,,,,,,,,,,,,,,,,,,,,,None,,772.8605100898072,None,772.8605100898072,None,2022-04-21-12:34:08.840574,772.8634765997995,773.1767684998922,772.8634765997995,772.8634765997995,None,772.8634765997995,772.8634765997995,773.6766986899544,None,,,,22008,0002,2022_Apr_21_1221,localizer,2021.1.3,61.51922967540646,
block_end,scrambled,scrambled077.bmp,,,,,0,198,198,198,,,,,,,,,,,,,,,,,,,,,,,,,,,,,,,,,,,,,,,,,,None,,773.6766986899544,None,773.6766986899544,None,2022-04-21-12:34:09.654160,773.6777178999037,773.9770206999965,773.6777178999037,None,None,773.6777178999037,None,774.4768557899166,None,,,,22008,0002,2022_Apr_21_1221,localizer,2021.1.3,61.51922967540646,
block_start,scenes,scenes074.bmp,,,,,0,199,199,199,,,,,,,,,,,,,,,,,,,,,,,,,,,,,,,,,,,,,,,,,,t,1.8405442999210209,774.4768701000139,None,774.4768701000139,None,2022-04-21-12:34:12.320157,776.3451483999379,776.659483499825,776.3451483999379,None,None,776.3451483999379,None,777.1601772898808,None,,,,22008,0002,2022_Apr_21_1221,localizer,2021.1.3,61.51922967540646,
block,scenes,scenes026.bmp,,,,,0,200,200,200,,,,,,,,,,,,,,,,,,,,,,,,,,,,,,,,,,,,,,,,,,None,,777.1601772898808,None,777.1601772898808,None,2022-04-21-12:34:13.137269,777.161208699923,777.4771583999973,777.161208699923,None,None,777.161208699923,None,777.9602770899888,None,,,,22008,0002,2022_Apr_21_1221,localizer,2021.1.3,61.51922967540646,
block,scenes,scenes023.bmp,,,,,0,201,201,201,,,,,,,,,,,,,,,,,,,,,,,,,,,,,,,,,,,,,,,,,,None,,777.9602770899888,None,777.9602770899888,None,2022-04-21-12:34:13.938146,777.9611200999934,778.2769495998509,777.9611200999934,777.9611200999934,None,777.9611200999934,777.9611200999934,778.7602862898726,None,,,,22008,0002,2022_Apr_21_1221,localizer,2021.1.3,61.51922967540646,
block,scenes,scenes010.bmp,,,,,0,202,202,202,,,,,,,,,,,,,,,,,,,,,,,,,,,,,,,,,,,,,,,,,,None,,778.7602862898726,None,778.7602862898726,None,2022-04-21-12:34:14.738630,778.772477600025,779.0768267998938,778.772477600025,778.772477600025,None,778.772477600025,778.772477600025,779.5767451898661,None,,,,22008,0002,2022_Apr_21_1221,localizer,2021.1.3,61.51922967540646,
block,scenes,scenes053.bmp,,,,,0,203,203,203,,,,,,,,,,,,,,,,,,,,,,,,,,,,,,,,,,,,,,,,,,None,,779.5767451898661,None,779.5767451898661,None,2022-04-21-12:34:15.553621,779.5856283998583,779.8936047998723,779.5856283998583,None,None,779.5856283998583,None,780.3947323899716,None,,,,22008,0002,2022_Apr_21_1221,localizer,2021.1.3,61.51922967540646,
block,scenes,scenes038.bmp,,,,,0,204,204,204,,,,,,,,,,,,,,,,,,,,,,,,,,,,,,,,,,,,,,,,,,None,,780.3947323899716,None,780.3947323899716,None,2022-04-21-12:34:16.374509,780.4089704998769,780.7101797999348,780.4089704998769,None,None,780.4089704998769,None,781.210204589786,None,,,,22008,0002,2022_Apr_21_1221,localizer,2021.1.3,61.51922967540646,
block,scenes,scenes027.bmp,,,,,0,205,205,205,,,,,,,,,,,,,,,,,,,,,,,,,,,,,,,,,,,,,,,,,,None,,781.210204589786,None,781.210204589786,None,2022-04-21-12:34:17.187581,781.2209665998816,781.5268213998061,781.2209665998816,None,None,781.2209665998816,None,782.0271515898872,None,,,,22008,0002,2022_Apr_21_1221,localizer,2021.1.3,61.51922967540646,
block,scenes,scenes035.bmp,,,,,0,206,206,206,,,,,,,,,,,,,,,,,,,,,,,,,,,,,,,,,,,,,,,,,,None,,782.0271515898872,None,782.0271515898872,None,2022-04-21-12:34:18.004059,782.0278142997995,782.3435648998711,782.0278142997995,None,None,782.0278142997995,None,782.8432276899927,None,,,,22008,0002,2022_Apr_21_1221,localizer,2021.1.3,61.51922967540646,
block,scenes,scenes024.bmp,,,,,0,207,207,207,,,,,,,,,,,,,,,,,,,,,,,,,,,,,,,,,,,,,,,,,,None,,782.8432276899927,None,782.8432276899927,None,2022-04-21-12:34:18.820130,782.8444878999144,783.1601603999734,782.8444878999144,None,None,782.8444878999144,None,783.6600503899623,None,,,,22008,0002,2022_Apr_21_1221,localizer,2021.1.3,61.51922967540646,
block,scenes,scenes049.bmp,,,,,0,208,208,208,,,,,,,,,,,,,,,,,,,,,,,,,,,,,,,,,,,,,,,,,,None,,783.6600503899623,None,783.6600503899623,None,2022-04-21-12:34:19.637017,783.6610581998248,783.9773713999894,783.6610581998248,None,None,783.6610581998248,None,784.4608360898216,None,,,,22008,0002,2022_Apr_21_1221,localizer,2021.1.3,61.51922967540646,
block,scenes,scenes065.bmp,,,,,0,209,209,209,,,,,,,,,,,,,,,,,,,,,,,,,,,,,,,,,,,,,,,,,,None,,784.4608360898216,None,784.4608360898216,None,2022-04-21-12:34:20.440715,784.4699036998209,784.7768319998868,784.4699036998209,784.4699036998209,None,784.4699036998209,784.4699036998209,785.2766923898831,None,,,,22008,0002,2022_Apr_21_1221,localizer,2021.1.3,61.51922967540646,
block,scenes,scenes012.bmp,,,,,0,210,210,210,,,,,,,,,,,,,,,,,,,,,,,,,,,,,,,,,,,,,,,,,,None,,785.2766923898831,None,785.2766923898831,None,2022-04-21-12:34:21.253888,785.2777811000124,785.5935501998756,785.2777811000124,None,None,785.2777811000124,None,786.0805207899772,None,,,,22008,0002,2022_Apr_21_1221,localizer,2021.1.3,61.51922967540646,
block,scenes,scenes066.bmp,,,,,0,211,211,211,,,,,,,,,,,,,,,,,,,,,,,,,,,,,,,,,,,,,,,,,,None,,786.0805207899772,None,786.0805207899772,None,2022-04-21-12:34:22.058391,786.0873508998193,786.3934900998138,786.0873508998193,786.0873508998193,None,786.0873508998193,786.0873508998193,786.8933311900124,None,,,,22008,0002,2022_Apr_21_1221,localizer,2021.1.3,61.51922967540646,
block,scenes,scenes004.bmp,,,,,0,212,212,212,,,,,,,,,,,,,,,,,,,,,,,,,,,,,,,,,,,,,,,,,,None,,786.8933311900124,None,786.8933311900124,None,2022-04-21-12:34:22.870996,786.9107678998262,787.2099778999109,786.9107678998262,None,None,786.9107678998262,None,787.7100022899918,None,,,,22008,0002,2022_Apr_21_1221,localizer,2021.1.3,61.51922967540646,
block_end,scenes,scenes036.bmp,,,,,0,213,213,213,,,,,,,,,,,,,,,,,,,,,,,,,,,,,,,,,,,,,,,,,,None,,787.7100022899918,None,787.7100022899918,None,2022-04-21-12:34:23.686738,787.7112586000003,788.010423099855,787.7112586000003,None,None,787.7112586000003,None,788.526324789878,None,,,,22008,0002,2022_Apr_21_1221,localizer,2021.1.3,61.51922967540646,
block_start,faces,faces020.bmp,,,,,0,214,214,214,,,,,,,,,,,,,,,,,,,,,,,,,,,,,,,,,,,,,,,,,,t,1.7900640999432653,788.5263683998492,None,788.5263683998492,None,2022-04-21-12:34:26.319153,790.3453698998783,790.660012499895,790.3453698998783,None,None,790.3453698998783,None,791.159784589801,None,,,,22008,0002,2022_Apr_21_1221,localizer,2021.1.3,61.51922967540646,
block,faces,faces003.bmp,,,,,0,215,215,215,,,,,,,,,,,,,,,,,,,,,,,,,,,,,,,,,,,,,,,,,,None,,791.159784589801,None,791.159784589801,None,2022-04-21-12:34:27.136239,791.1625144998543,791.4597903999966,791.1625144998543,None,None,791.1625144998543,None,791.9764375899919,None,,,,22008,0002,2022_Apr_21_1221,localizer,2021.1.3,61.51922967540646,
block,faces,faces078.bmp,,,,,0,216,216,216,,,,,,,,,,,,,,,,,,,,,,,,,,,,,,,,,,,,,,,,,,None,,791.9764375899919,None,791.9764375899919,None,2022-04-21-12:34:27.952141,791.9778387998231,792.2933957998175,791.9778387998231,None,None,791.9778387998231,None,792.7771558898036,None,,,,22008,0002,2022_Apr_21_1221,localizer,2021.1.3,61.51922967540646,
block,faces,faces068.bmp,,,,,0,217,217,217,,,,,,,,,,,,,,,,,,,,,,,,,,,,,,,,,,,,,,,,,,None,,792.7771558898036,None,792.7771558898036,None,2022-04-21-12:34:28.756996,792.7884244997986,793.0932270998601,792.7884244997986,792.7884244997986,None,792.7884244997986,792.7884244997986,793.5985997898039,None,,,,22008,0002,2022_Apr_21_1221,localizer,2021.1.3,61.51922967540646,
block,faces,faces049.bmp,,,,,0,218,218,218,,,,,,,,,,,,,,,,,,,,,,,,,,,,,,,,,,,,,,,,,,None,,793.5985997898039,None,793.5985997898039,None,2022-04-21-12:34:29.575478,793.6040770998225,793.9099134998396,793.6040770998225,None,None,793.6040770998225,None,794.4100649898406,None,,,,22008,0002,2022_Apr_21_1221,localizer,2021.1.3,61.51922967540646,
block,faces,faces051.bmp,,,,,0,219,219,219,,,,,,,,,,,,,,,,,,,,,,,,,,,,,,,,,,,,,,,,,,None,,794.4100649898406,None,794.4100649898406,None,2022-04-21-12:34:30.387414,794.4113613998052,794.7264586999081,794.4113613998052,None,None,794.4113613998052,None,795.2107754898258,None,,,,22008,0002,2022_Apr_21_1221,localizer,2021.1.3,61.51922967540646,
block,faces,faces025.bmp,,,,,0,220,220,220,,,,,,,,,,,,,,,,,,,,,,,,,,,,,,,,,,,,,,,,,,None,,795.2107754898258,None,795.2107754898258,None,2022-04-21-12:34:31.190629,795.21394279995,795.5268518999219,795.21394279995,795.21394279995,None,795.21394279995,795.21394279995,796.026633189898,None,,,,22008,0002,2022_Apr_21_1221,localizer,2021.1.3,61.51922967540646,
block,faces,faces002.bmp,,,,,0,221,221,221,,,,,,,,,,,,,,,,,,,,,,,,,,,,,,,,,,,,,,,,,,None,,796.026633189898,None,796.026633189898,None,2022-04-21-12:34:32.003504,796.0279433999676,796.3432500998024,796.0279433999676,None,None,796.0279433999676,None,796.8432369899471,None,,,,22008,0002,2022_Apr_21_1221,localizer,2021.1.3,61.51922967540646,
block,faces,faces046.bmp,,,,,0,222,222,222,,,,,,,,,,,,,,,,,,,,,,,,,,,,,,,,,,,,,,,,,,None,,796.8432369899471,None,796.8432369899471,None,2022-04-21-12:34:32.820112,796.8445102998521,797.1600083999801,796.8445102998521,None,None,796.8445102998521,None,797.6602813898586,None,,,,22008,0002,2022_Apr_21_1221,localizer,2021.1.3,61.51922967540646,
block,faces,faces011.bmp,,,,,0,223,223,223,,,,,,,,,,,,,,,,,,,,,,,,,,,,,,,,,,,,,,,,,,None,,797.6602813898586,None,797.6602813898586,None,2022-04-21-12:34:33.637152,797.6612087998074,797.9602432998363,797.6612087998074,None,y,797.6612087998074,None,798.4602724899538,None,0.03135539987124503,,,22008,0002,2022_Apr_21_1221,localizer,2021.1.3,61.51922967540646,
block,faces,faces059.bmp,,,,,0,224,224,224,,,,,,,,,,,,,,,,,,,,,,,,,,,,,,,,,,,,,,,,,,None,,798.4602724899538,None,798.4602724899538,None,2022-04-21-12:34:34.439139,798.4719895999879,798.77709280001,798.4719895999879,798.4719895999879,None,798.4719895999879,798.4719895999879,799.2768076899462,None,,,,22008,0002,2022_Apr_21_1221,localizer,2021.1.3,61.51922967540646,
block,faces,faces057.bmp,,,,,0,225,225,225,,,,,,,,,,,,,,,,,,,,,,,,,,,,,,,,,,,,,,,,,,None,,799.2768076899462,None,799.2768076899462,None,2022-04-21-12:34:35.253302,799.278108399827,799.5933236998972,799.278108399827,None,None,799.278108399827,None,800.0792921899352,None,,,,22008,0002,2022_Apr_21_1221,localizer,2021.1.3,61.51922967540646,
block,faces,faces021.bmp,,,,,0,226,226,226,,,,,,,,,,,,,,,,,,,,,,,,,,,,,,,,,,,,,,,,,,None,,800.0792921899352,None,800.0792921899352,None,2022-04-21-12:34:36.057196,800.0788999998476,800.3934052998666,800.0788999998476,800.0788999998476,None,800.0788999998476,800.0788999998476,800.8932941899635,None,,,,22008,0002,2022_Apr_21_1221,localizer,2021.1.3,61.51922967540646,
block,faces,faces074.bmp,,,,,0,227,227,227,,,,,,,,,,,,,,,,,,,,,,,,,,,,,,,,,,,,,,,,,,None,,800.8932941899635,None,800.8932941899635,None,2022-04-21-12:34:36.871017,800.8945516999811,801.2099839998409,800.8945516999811,None,None,800.8945516999811,None,801.7102181898896,None,,,,22008,0002,2022_Apr_21_1221,localizer,2021.1.3,61.51922967540646,
block_end,faces,faces033.bmp,,,,,0,228,228,228,,,,,,,,,,,,,,,,,,,,,,,,,,,,,,,,,,,,,,,,,,None,,801.7102181898896,None,801.7102181898896,None,2022-04-21-12:34:37.687090,801.7114189998247,802.0272693999577,801.7114189998247,None,None,801.7114189998247,None,802.5269097899087,None,,,,22008,0002,2022_Apr_21_1221,localizer,2021.1.3,61.51922967540646,
block_start,objects,objects043.bmp,,,,,0,229,229,229,,,,,,,,,,,,,,,,,,,,,,,,,,,,,,,,,,,,,,,,,,t,1.789208399830386,802.5271054999903,None,802.5271054999903,None,2022-04-21-12:34:40.319712,804.3447786998004,804.6430609999225,804.3447786998004,None,None,804.3447786998004,None,805.1598278900143,None,,,,22008,0002,2022_Apr_21_1221,localizer,2021.1.3,61.51922967540646,
block,objects,objects013.bmp,,,,,0,230,230,230,,,,,,,,,,,,,,,,,,,,,,,,,,,,,,,,,,,,,,,,,,None,,805.1598278900143,None,805.1598278900143,None,2022-04-21-12:34:41.136722,805.1613554998767,805.4768440998159,805.1613554998767,None,None,805.1613554998767,None,805.9768379900139,None,,,,22008,0002,2022_Apr_21_1221,localizer,2021.1.3,61.51922967540646,
block,objects,objects014.bmp,,,,,0,231,231,231,,,,,,,,,,,,,,,,,,,,,,,,,,,,,,,,,,,,,,,,,,None,,805.9768379900139,None,805.9768379900139,None,2022-04-21-12:34:41.953712,805.9779684999958,806.2933931997977,805.9779684999958,None,None,805.9779684999958,None,806.7931002899073,None,,,,22008,0002,2022_Apr_21_1221,localizer,2021.1.3,61.51922967540646,
block,objects,objects044.bmp,,,,,0,232,232,232,,,,,,,,,,,,,,,,,,,,,,,,,,,,,,,,,,,,,,,,,,None,,806.7931002899073,None,806.7931002899073,None,2022-04-21-12:34:42.770050,806.7945977998897,807.1101910998113,806.7945977998897,None,None,806.7945977998897,None,807.6101699898951,None,,,,22008,0002,2022_Apr_21_1221,localizer,2021.1.3,61.51922967540646,
block,objects,objects016.bmp,,,,,0,233,233,233,,,,,,,,,,,,,,,,,,,,,,,,,,,,,,,,,,,,,,,,,,None,,807.6101699898951,None,807.6101699898951,None,2022-04-21-12:34:43.587667,807.6113611999899,807.927017299924,807.6113611999899,None,None,807.6113611999899,None,808.4104172898457,None,,,,22008,0002,2022_Apr_21_1221,localizer,2021.1.3,61.51922967540646,
block,objects,objects041.bmp,,,,,0,234,234,234,,,,,,,,,,,,,,,,,,,,,,,,,,,,,,,,,,,,,,,,,,None,,808.4104172898457,None,808.4104172898457,None,2022-04-21-12:34:44.389521,808.4132472998463,808.726962100016,808.4132472998463,808.4132472998463,None,808.4132472998463,808.4132472998463,809.2269890898839,None,,,,22008,0002,2022_Apr_21_1221,localizer,2021.1.3,61.51922967540646,
block,objects,objects020.bmp,,,,,0,235,235,235,,,,,,,,,,,,,,,,,,,,,,,,,,,,,,,,,,,,,,,,,,None,,809.2269890898839,None,809.2269890898839,None,2022-04-21-12:34:45.203868,809.2279448998161,809.5437627998181,809.2279448998161,None,None,809.2279448998161,None,810.027014489891,None,,,,22008,0002,2022_Apr_21_1221,localizer,2021.1.3,61.51922967540646,
block,objects,objects012.bmp,,,,,0,236,236,236,,,,,,,,,,,,,,,,,,,,,,,,,,,,,,,,,,,,,,,,,,None,,810.027014489891,None,810.027014489891,None,2022-04-21-12:34:46.006008,810.0283268999774,810.3435800999869,810.0283268999774,810.0283268999774,None,810.0283268999774,810.0283268999774,810.8435716898181,None,,,,22008,0002,2022_Apr_21_1221,localizer,2021.1.3,61.51922967540646,
block,objects,objects011.bmp,,,,,0,237,237,237,,,,,,,,,,,,,,,,,,,,,,,,,,,,,,,,,,,,,,,,,,None,,810.8435716898181,None,810.8435716898181,None,2022-04-21-12:34:46.820444,810.8444917998277,811.1603705999441,810.8444917998277,None,None,810.8444917998277,None,811.6436963899993,None,,,,22008,0002,2022_Apr_21_1221,localizer,2021.1.3,61.51922967540646,
block,objects,objects021.bmp,,,,,0,238,238,238,,,,,,,,,,,,,,,,,,,,,,,,,,,,,,,,,,,,,,,,,,None,,811.6436963899993,None,811.6436963899993,None,2022-04-21-12:34:47.621959,811.6557823999319,811.9603120998945,811.6557823999319,811.6557823999319,None,811.6557823999319,811.6557823999319,812.4600674897898,None,,,,22008,0002,2022_Apr_21_1221,localizer,2021.1.3,61.51922967540646,
block,objects,objects060.bmp,,,,,0,239,239,239,,,,,,,,,,,,,,,,,,,,,,,,,,,,,,,,,,,,,,,,,,None,,812.4600674897898,None,812.4600674897898,None,2022-04-21-12:34:48.436940,812.4612945998088,812.7769157998264,812.4612945998088,None,None,812.4612945998088,None,813.277033189917,None,,,,22008,0002,2022_Apr_21_1221,localizer,2021.1.3,61.51922967540646,
block,objects,objects002.bmp,,,,,0,240,240,240,,,,,,,,,,,,,,,,,,,,,,,,,,,,,,,,,,,,,,,,,,None,,813.277033189917,None,813.277033189917,None,2022-04-21-12:34:49.253903,813.2869237998966,813.5936248998623,813.2869237998966,None,None,813.2869237998966,None,814.0934686899651,None,,,,22008,0002,2022_Apr_21_1221,localizer,2021.1.3,61.51922967540646,
block,objects,objects026.bmp,,,,,0,241,241,241,,,,,,,,,,,,,,,,,,,,,,,,,,,,,,,,,,,,,,,,,,None,,814.0934686899651,None,814.0934686899651,None,2022-04-21-12:34:50.070002,814.0946903999429,814.4103992998134,814.0946903999429,None,None,814.0946903999429,None,814.9101998898201,None,,,,22008,0002,2022_Apr_21_1221,localizer,2021.1.3,61.51922967540646,
block,objects,objects023.bmp,,,,,0,242,242,242,,,,,,,,,,,,,,,,,,,,,,,,,,,,,,,,,,,,,,,,,,None,,814.9101998898201,None,814.9101998898201,None,2022-04-21-12:34:50.887073,814.9112622998655,815.2271419998724,814.9112622998655,None,None,814.9112622998655,None,815.71037029,None,,,,22008,0002,2022_Apr_21_1221,localizer,2021.1.3,61.51922967540646,
block_end,objects,objects078.bmp,,,,,0,243,243,243,,,,,,,,,,,,,,,,,,,,,,,,,,,,,,,,,,,,,,,,,,None,,815.71037029,None,815.71037029,None,2022-04-21-12:34:51.690382,815.7195627999026,816.0272021999117,815.7195627999026,815.7195627999026,None,815.7195627999026,815.7195627999026,816.5267884898,None,,,,22008,0002,2022_Apr_21_1221,localizer,2021.1.3,61.51922967540646,
,,,,,,,,,,,,,,,,,,,,,,,,,,,,,,,,,,,,,,,,,,,,,,,,,,,,,,,,,,,,,,,,,,,,,816.5266266998369,None,,,,,,,
