block_type,condition,img_name,Button.thisRepN,Button.thisTrialN,Button.thisN,Button.thisIndex,trials.thisRepN,trials.thisTrialN,trials.thisN,trials.thisIndex,Ready_experimenter_text.started,Ready_experimenter_text.stopped,Ready_experimenter_resp.keys,Ready_experimenter_resp.rt,Ready_experimenter_resp.started,Ready_experimenter_resp.stopped,Alignment_background.started,Alignment_background.stopped,Alignment_image.started,Alignment_image.stopped,Alignment_resp.keys,Alignment_resp.rt,Alignment_resp.started,Alignment_resp.stopped,Button_text.started,Button_text.stopped,Index_text.started,Index_text.stopped,Index_resp.keys,Index_resp.rt,Index_resp.started,Index_resp.stopped,Middle_text.started,Middle_text.stopped,Middle_resp.keys,Middle_resp.rt,Middle_resp.started,Middle_resp.stopped,Repeat_text.started,Repeat_text.stopped,Repeat_resp.keys,Repeat_resp.corr,Repeat_resp.rt,Repeat_resp.started,Repeat_resp.stopped,instruction_text.started,instruction_text.stopped,key_resp.keys,key_resp.rt,key_resp.started,key_resp.stopped,scanner_t.keys,scanner_t.rt,scanner_t.started,scanner_t.stopped,fixation_wait_for_t.started,fixation_wait_for_t.stopped,real_timestamp_trial_start,image.started,image.stopped,fixation.started,fixation.stopped,repeat_response.keys,repeat_response.started,repeat_response.stopped,fixation_null.started,fixation_null.stopped,repeat_response.rt,end_text.started,end_text.stopped,participant,run,date,expName,psychopyVersion,frameRate,
,,,,,,,,,,,8.978885199991055,None,return,0.4122184000443667,8.978885199991055,None,,,,,,,,,,,,,,,,,,,,,,,,,,,,,,,,,,,,,,,,,,,,,,,,,,,,,,,22052,0002,2023_Mar_27_1332,localizer,2021.1.3,59.420319147705314,
,,,,,,,,,,,,,,,,,9.434704699961003,None,9.434704699961003,None,return,0.3974004000192508,9.434704699961003,None,,,,,,,,,,,,,,,,,,,,,,,,,,,,,,,,,,,,,,,,,,,,,,,22052,0002,2023_Mar_27_1332,localizer,2021.1.3,59.420319147705314,
,,,0,0,0,0,,,,,,,,,,,,,,,,,,,9.846929499995895,None,10.847602099995129,None,y,0.02836990001378581,10.847602099995129,None,10.896486899990123,None,b,2.346390100021381,10.896486899990123,None,13.263561100000516,None,n,0,0.6391498000011779,13.263561100000516,None,,,,,,,,,,,,,,,,,,,,,,,,,,22052,0002,2023_Mar_27_1332,localizer,2021.1.3,59.420319147705314,
,,,,,,,,,,,,,,,,,,,,,,,,,,,,,,,,,,,,,,,,,,,,,,13.930733199988026,None,y,5.0311550999758765,13.930733199988026,None,,,,,,,,,,,,,,,,,,,,22052,0002,2023_Mar_27_1332,localizer,2021.1.3,59.420319147705314,
block_start,scrambled,scrambled055.bmp,,,,,0,0,0,0,,,,,,,,,,,,,,,,,,,,,,,,,,,,,,,,,,,,,,,,,,t,83.60027709999122,19.00558739999542,None,19.00558739999542,None,2023-03-27-13:34:18.645208,102.63170899997931,102.94693629996618,102.63170899997931,None,None,102.63170899997931,None,103.43082379998523,None,,,,22052,0002,2023_Mar_27_1332,localizer,2021.1.3,59.420319147705314,
block,scrambled,scrambled012.bmp,,,,,0,1,1,1,,,,,,,,,,,,,,,,,,,,,,,,,,,,,,,,,,,,,,,,,,None,,103.43082379998523,None,103.43082379998523,None,2023-03-27-13:34:19.450235,103.45069689996308,103.76352939999197,103.45069689996308,103.45069689996308,None,103.45069689996308,103.45069689996308,104.24747599999537,None,,,,22052,0002,2023_Mar_27_1332,localizer,2021.1.3,59.420319147705314,
block,scrambled,scrambled010.bmp,,,,,0,2,2,2,,,,,,,,,,,,,,,,,,,,,,,,,,,,,,,,,,,,,,,,,,None,,104.24747599999537,None,104.24747599999537,None,2023-03-27-13:34:20.262913,104.25769409997156,104.56392719998257,104.25769409997156,None,None,104.25769409997156,None,105.06399929995533,None,,,,22052,0002,2023_Mar_27_1332,localizer,2021.1.3,59.420319147705314,
block,scrambled,scrambled060.bmp,,,,,0,3,3,3,,,,,,,,,,,,,,,,,,,,,,,,,,,,,,,,,,,,,,,,,,None,,105.06399929995533,None,105.06399929995533,None,2023-03-27-13:34:21.079437,105.07568869995885,105.38011619995814,105.07568869995885,None,None,105.07568869995885,None,105.8812381999509,None,,,,22052,0002,2023_Mar_27_1332,localizer,2021.1.3,59.420319147705314,
block,scrambled,scrambled049.bmp,,,,,0,4,4,4,,,,,,,,,,,,,,,,,,,,,,,,,,,,,,,,,,,,,,,,,,None,,105.8812381999509,None,105.8812381999509,None,2023-03-27-13:34:21.898724,105.89615329995286,106.19718949997332,105.89615329995286,None,None,105.89615329995286,None,106.69714049995528,None,,,,22052,0002,2023_Mar_27_1332,localizer,2021.1.3,59.420319147705314,
block,scrambled,scrambled045.bmp,,,,,0,5,5,5,,,,,,,,,,,,,,,,,,,,,,,,,,,,,,,,,,,,,,,,,,None,,106.69714049995528,None,106.69714049995528,None,2023-03-27-13:34:22.712648,106.69859089999227,107.013875500008,106.69859089999227,None,None,106.69859089999227,None,107.51392979996163,None,,,,22052,0002,2023_Mar_27_1332,localizer,2021.1.3,59.420319147705314,
block,scrambled,scrambled074.bmp,,,,,0,6,6,6,,,,,,,,,,,,,,,,,,,,,,,,,,,,,,,,,,,,,,,,,,None,,107.51392979996163,None,107.51392979996163,None,2023-03-27-13:34:23.529384,107.51473150000675,107.83046420000028,107.51473150000675,None,None,107.51473150000675,None,108.31392239995185,None,,,,22052,0002,2023_Mar_27_1332,localizer,2021.1.3,59.420319147705314,
block,scrambled,scrambled062.bmp,,,,,0,7,7,7,,,,,,,,,,,,,,,,,,,,,,,,,,,,,,,,,,,,,,,,,,None,,108.31392239995185,None,108.31392239995185,None,2023-03-27-13:34:24.331376,108.32870680000633,108.63035359996138,108.32870680000633,108.32870680000633,None,108.32870680000633,108.32870680000633,109.13084919995745,None,,,,22052,0002,2023_Mar_27_1332,localizer,2021.1.3,59.420319147705314,
block,scrambled,scrambled041.bmp,,,,,0,8,8,8,,,,,,,,,,,,,,,,,,,,,,,,,,,,,,,,,,,,,,,,,,None,,109.13084919995745,None,109.13084919995745,None,2023-03-27-13:34:25.146307,109.14287909999257,109.44714720000047,109.14287909999257,None,None,109.14287909999257,None,109.9478110999975,None,,,,22052,0002,2023_Mar_27_1332,localizer,2021.1.3,59.420319147705314,
block,scrambled,scrambled087.bmp,,,,,0,9,9,9,,,,,,,,,,,,,,,,,,,,,,,,,,,,,,,,,,,,,,,,,,None,,109.9478110999975,None,109.9478110999975,None,2023-03-27-13:34:25.963332,109.96024439996108,110.2640143999597,109.96024439996108,None,None,109.96024439996108,None,110.75354699994787,None,,,,22052,0002,2023_Mar_27_1332,localizer,2021.1.3,59.420319147705314,
block,scrambled,scrambled020.bmp,,,,,0,10,10,10,,,,,,,,,,,,,,,,,,,,,,,,,,,,,,,,,,,,,,,,,,None,,110.75354699994787,None,110.75354699994787,None,2023-03-27-13:34:26.776873,110.77213199995458,111.08066009997856,110.77213199995458,None,None,110.77213199995458,None,111.56412599998876,None,,,,22052,0002,2023_Mar_27_1332,localizer,2021.1.3,59.420319147705314,
block,scrambled,scrambled009.bmp,,,,,0,11,11,11,,,,,,,,,,,,,,,,,,,,,,,,,,,,,,,,,,,,,,,,,,None,,111.56412599998876,None,111.56412599998876,None,2023-03-27-13:34:27.579606,111.57691199996043,111.88076609995915,111.57691199996043,None,None,111.57691199996043,None,112.38105319999741,None,,,,22052,0002,2023_Mar_27_1332,localizer,2021.1.3,59.420319147705314,
block,scrambled,scrambled015.bmp,,,,,0,12,12,12,,,,,,,,,,,,,,,,,,,,,,,,,,,,,,,,,,,,,,,,,,None,,112.38105319999741,None,112.38105319999741,None,2023-03-27-13:34:28.397558,112.38140539999586,112.68100869999034,112.38140539999586,None,None,112.38140539999586,None,113.18076389999479,None,,,,22052,0002,2023_Mar_27_1332,localizer,2021.1.3,59.420319147705314,
block,scrambled,scrambled008.bmp,,,,,0,13,13,13,,,,,,,,,,,,,,,,,,,,,,,,,,,,,,,,,,,,,,,,,,None,,113.18076389999479,None,113.18076389999479,None,2023-03-27-13:34:29.197252,113.18147409998346,113.48046709998744,113.18147409998346,113.18147409998346,None,113.18147409998346,113.18147409998346,113.98095889995457,None,,,,22052,0002,2023_Mar_27_1332,localizer,2021.1.3,59.420319147705314,
block_end,scrambled,scrambled057.bmp,,,,,0,14,14,14,,,,,,,,,,,,,,,,,,,,,,,,,,,,,,,,,,,,,,,,,,None,,113.98095889995457,None,113.98095889995457,None,2023-03-27-13:34:29.998501,113.99562479997985,114.29714499996044,113.99562479997985,113.99562479997985,None,113.99562479997985,113.99562479997985,114.79703039996676,None,,,,22052,0002,2023_Mar_27_1332,localizer,2021.1.3,59.420319147705314,
block_start,faces,faces038.bmp,,,,,0,15,15,15,,,,,,,,,,,,,,,,,,,,,,,,,,,,,,,,,,,,,,,,,,t,1.8090363999945112,114.79695499996888,None,114.79695499996888,None,2023-03-27-13:34:32.645820,116.63139449997107,116.93052189995069,116.63139449997107,None,None,116.63139449997107,None,117.4310349999636,None,,,,22052,0002,2023_Mar_27_1332,localizer,2021.1.3,59.420319147705314,
block,faces,faces046.bmp,,,,,0,16,16,16,,,,,,,,,,,,,,,,,,,,,,,,,,,,,,,,,,,,,,,,,,None,,117.4310349999636,None,117.4310349999636,None,2023-03-27-13:34:33.448614,117.44761919998564,117.74691309995251,117.44761919998564,117.44761919998564,None,117.44761919998564,117.44761919998564,118.24709989998374,None,,,,22052,0002,2023_Mar_27_1332,localizer,2021.1.3,59.420319147705314,
block,faces,faces068.bmp,,,,,0,17,17,17,,,,,,,,,,,,,,,,,,,,,,,,,,,,,,,,,,,,,,,,,,None,,118.24709989998374,None,118.24709989998374,None,2023-03-27-13:34:34.262534,118.25974359997781,118.56430599995656,118.25974359997781,None,None,118.25974359997781,None,119.06429709995282,None,,,,22052,0002,2023_Mar_27_1332,localizer,2021.1.3,59.420319147705314,
block,faces,faces088.bmp,,,,,0,18,18,18,,,,,,,,,,,,,,,,,,,,,,,,,,,,,,,,,,,,,,,,,,None,,119.06429709995282,None,119.06429709995282,None,2023-03-27-13:34:35.079882,119.06485639995662,119.3645251999842,119.06485639995662,None,None,119.06485639995662,None,119.86470539996517,None,,,,22052,0002,2023_Mar_27_1332,localizer,2021.1.3,59.420319147705314,
block,faces,faces009.bmp,,,,,0,19,19,19,,,,,,,,,,,,,,,,,,,,,,,,,,,,,,,,,,,,,,,,,,None,,119.86470539996517,None,119.86470539996517,None,2023-03-27-13:34:35.883411,119.86780389997875,120.18117679998977,119.86780389997875,119.86780389997875,None,119.86780389997875,119.86780389997875,120.68075499998523,None,,,,22052,0002,2023_Mar_27_1332,localizer,2021.1.3,59.420319147705314,
block,faces,faces067.bmp,,,,,0,20,20,20,,,,,,,,,,,,,,,,,,,,,,,,,,,,,,,,,,,,,,,,,,None,,120.68075499998523,None,120.68075499998523,None,2023-03-27-13:34:36.696296,120.6815422999789,120.99711130000651,120.6815422999789,None,None,120.6815422999789,None,121.48090569995693,None,,,,22052,0002,2023_Mar_27_1332,localizer,2021.1.3,59.420319147705314,
block,faces,faces014.bmp,,,,,0,21,21,21,,,,,,,,,,,,,,,,,,,,,,,,,,,,,,,,,,,,,,,,,,None,,121.48090569995693,None,121.48090569995693,None,2023-03-27-13:34:37.498482,121.48344999999972,121.79710799996974,121.48344999999972,121.48344999999972,None,121.48344999999972,121.48344999999972,122.29764129996184,None,,,,22052,0002,2023_Mar_27_1332,localizer,2021.1.3,59.420319147705314,
block,faces,faces071.bmp,,,,,0,22,22,22,,,,,,,,,,,,,,,,,,,,,,,,,,,,,,,,,,,,,,,,,,None,,122.29764129996184,None,122.29764129996184,None,2023-03-27-13:34:38.313189,122.31058079999639,122.6140436999849,122.31058079999639,None,None,122.31058079999639,None,123.11538239999791,None,,,,22052,0002,2023_Mar_27_1332,localizer,2021.1.3,59.420319147705314,
block,faces,faces069.bmp,,,,,0,23,23,23,,,,,,,,,,,,,,,,,,,,,,,,,,,,,,,,,,,,,,,,,,None,,123.11538239999791,None,123.11538239999791,None,2023-03-27-13:34:39.132978,123.13093919999665,123.43117599998368,123.13093919999665,None,None,123.13093919999665,None,123.93063839997049,None,,,,22052,0002,2023_Mar_27_1332,localizer,2021.1.3,59.420319147705314,
block,faces,faces072.bmp,,,,,0,24,24,24,,,,,,,,,,,,,,,,,,,,,,,,,,,,,,,,,,,,,,,,,,None,,123.93063839997049,None,123.93063839997049,None,2023-03-27-13:34:39.946204,123.9431704999879,124.24712699995143,123.9431704999879,None,None,123.9431704999879,None,124.74689049996087,None,,,,22052,0002,2023_Mar_27_1332,localizer,2021.1.3,59.420319147705314,
block,faces,faces025.bmp,,,,,0,25,25,25,,,,,,,,,,,,,,,,,,,,,,,,,,,,,,,,,,,,,,,,,,None,,124.74689049996087,None,124.74689049996087,None,2023-03-27-13:34:40.762465,124.75789499998791,125.06598469999153,124.75789499998791,None,None,124.75789499998791,None,125.56417879998335,None,,,,22052,0002,2023_Mar_27_1332,localizer,2021.1.3,59.420319147705314,
block,faces,faces025.bmp,,,,,0,26,26,26,,,,,,,,,,,,,,,,,,,,,,,,,,,,,,,,,,,,,,,,,,None,,125.56417879998335,None,125.56417879998335,None,2023-03-27-13:34:41.579696,125.5648644999601,125.86414699995657,125.5648644999601,None,y,125.5648644999601,None,126.36396339996136,None,0.7539228000096045,,,22052,0002,2023_Mar_27_1332,localizer,2021.1.3,59.420319147705314,
block,faces,faces023.bmp,,,,,0,27,27,27,,,,,,,,,,,,,,,,,,,,,,,,,,,,,,,,,,,,,,,,,,None,,126.36396339996136,None,126.36396339996136,None,2023-03-27-13:34:42.381749,126.36679889995139,126.68076719995588,126.36679889995139,126.36679889995139,None,126.36679889995139,126.36679889995139,127.18071940000519,None,,,,22052,0002,2023_Mar_27_1332,localizer,2021.1.3,59.420319147705314,
block,faces,faces073.bmp,,,,,0,28,28,28,,,,,,,,,,,,,,,,,,,,,,,,,,,,,,,,,,,,,,,,,,None,,127.18071940000519,None,127.18071940000519,None,2023-03-27-13:34:43.196360,127.19226949999575,127.49722409999231,127.19226949999575,None,None,127.19226949999575,None,127.99795439997106,None,,,,22052,0002,2023_Mar_27_1332,localizer,2021.1.3,59.420319147705314,
block_end,faces,faces020.bmp,,,,,0,29,29,29,,,,,,,,,,,,,,,,,,,,,,,,,,,,,,,,,,,,,,,,,,None,,127.99795439997106,None,127.99795439997106,None,2023-03-27-13:34:44.014512,128.00826879998203,128.31415489997016,128.00826879998203,None,None,128.00826879998203,None,128.81423779996695,None,,,,22052,0002,2023_Mar_27_1332,localizer,2021.1.3,59.420319147705314,
block_start,scenes,scenes037.bmp,,,,,0,30,30,30,,,,,,,,,,,,,,,,,,,,,,,,,,,,,,,,,,,,,,,,,,t,1.791958899993915,128.8139803999802,None,128.8139803999802,None,2023-03-27-13:34:46.645609,130.64376629999606,130.94720729999244,130.64376629999606,None,None,130.64376629999606,None,131.4477768999699,None,,,,22052,0002,2023_Mar_27_1332,localizer,2021.1.3,59.420319147705314,
block,scenes,scenes060.bmp,,,,,0,31,31,31,,,,,,,,,,,,,,,,,,,,,,,,,,,,,,,,,,,,,,,,,,None,,131.4477768999699,None,131.4477768999699,None,2023-03-27-13:34:47.463386,131.45857289998094,131.7640252999845,131.45857289998094,None,None,131.45857289998094,None,132.26499000000186,None,,,,22052,0002,2023_Mar_27_1332,localizer,2021.1.3,59.420319147705314,
block,scenes,scenes061.bmp,,,,,0,32,32,32,,,,,,,,,,,,,,,,,,,,,,,,,,,,,,,,,,,,,,,,,,None,,132.26499000000186,None,132.26499000000186,None,2023-03-27-13:34:48.281855,132.2764865999925,132.5807732999674,132.2764865999925,None,None,132.2764865999925,None,133.080792500003,None,,,,22052,0002,2023_Mar_27_1332,localizer,2021.1.3,59.420319147705314,
block,scenes,scenes024.bmp,,,,,0,33,33,33,,,,,,,,,,,,,,,,,,,,,,,,,,,,,,,,,,,,,,,,,,None,,133.080792500003,None,133.080792500003,None,2023-03-27-13:34:49.096494,133.08157529996242,133.38099279999733,133.08157529996242,None,None,133.08157529996242,None,133.88155559998123,None,,,,22052,0002,2023_Mar_27_1332,localizer,2021.1.3,59.420319147705314,
block,scenes,scenes015.bmp,,,,,0,34,34,34,,,,,,,,,,,,,,,,,,,,,,,,,,,,,,,,,,,,,,,,,,None,,133.88155559998123,None,133.88155559998123,None,2023-03-27-13:34:49.900365,133.8846634000074,134.19724409998162,133.8846634000074,133.8846634000074,None,133.8846634000074,133.8846634000074,134.6975189999852,None,,,,22052,0002,2023_Mar_27_1332,localizer,2021.1.3,59.420319147705314,
block,scenes,scenes089.bmp,,,,,0,35,35,35,,,,,,,,,,,,,,,,,,,,,,,,,,,,,,,,,,,,,,,,,,None,,134.6975189999852,None,134.6975189999852,None,2023-03-27-13:34:50.713557,134.69806540000718,134.9975301999948,134.69806540000718,None,None,134.69806540000718,None,135.4985107999586,None,,,,22052,0002,2023_Mar_27_1332,localizer,2021.1.3,59.420319147705314,
block,scenes,scenes076.bmp,,,,,0,36,36,36,,,,,,,,,,,,,,,,,,,,,,,,,,,,,,,,,,,,,,,,,,None,,135.4985107999586,None,135.4985107999586,None,2023-03-27-13:34:51.517318,135.51067509996938,135.82065569999395,135.51067509996938,135.51067509996938,None,135.51067509996938,135.51067509996938,136.31446969998652,None,,,,22052,0002,2023_Mar_27_1332,localizer,2021.1.3,59.420319147705314,
block,scenes,scenes007.bmp,,,,,0,37,37,37,,,,,,,,,,,,,,,,,,,,,,,,,,,,,,,,,,,,,,,,,,None,,136.31446969998652,None,136.31446969998652,None,2023-03-27-13:34:52.331106,136.3149601999903,136.61421529995278,136.3149601999903,None,None,136.3149601999903,None,137.1144610999676,None,,,,22052,0002,2023_Mar_27_1332,localizer,2021.1.3,59.420319147705314,
block,scenes,scenes016.bmp,,,,,0,38,38,38,,,,,,,,,,,,,,,,,,,,,,,,,,,,,,,,,,,,,,,,,,None,,137.1144610999676,None,137.1144610999676,None,2023-03-27-13:34:53.132100,137.13500720000593,137.4472906999872,137.13500720000593,137.13500720000593,None,137.13500720000593,137.13500720000593,137.93095149996807,None,,,,22052,0002,2023_Mar_27_1332,localizer,2021.1.3,59.420319147705314,
block,scenes,scenes010.bmp,,,,,0,39,39,39,,,,,,,,,,,,,,,,,,,,,,,,,,,,,,,,,,,,,,,,,,None,,137.93095149996807,None,137.93095149996807,None,2023-03-27-13:34:53.946606,137.9317730999901,138.23055089998525,137.9317730999901,None,None,137.9317730999901,None,138.7475110999716,None,,,,22052,0002,2023_Mar_27_1332,localizer,2021.1.3,59.420319147705314,
block,scenes,scenes018.bmp,,,,,0,40,40,40,,,,,,,,,,,,,,,,,,,,,,,,,,,,,,,,,,,,,,,,,,None,,138.7475110999716,None,138.7475110999716,None,2023-03-27-13:34:54.763176,138.7485575999599,139.08044170000358,138.7485575999599,None,None,138.7485575999599,None,139.548000999965,None,,,,22052,0002,2023_Mar_27_1332,localizer,2021.1.3,59.420319147705314,
block,scenes,scenes042.bmp,,,,,0,41,41,41,,,,,,,,,,,,,,,,,,,,,,,,,,,,,,,,,,,,,,,,,,None,,139.548000999965,None,139.548000999965,None,2023-03-27-13:34:55.566836,139.56369049998466,139.86420479998924,139.56369049998466,139.56369049998466,None,139.56369049998466,139.56369049998466,140.3644838999666,None,,,,22052,0002,2023_Mar_27_1332,localizer,2021.1.3,59.420319147705314,
block,scenes,scenes059.bmp,,,,,0,42,42,42,,,,,,,,,,,,,,,,,,,,,,,,,,,,,,,,,,,,,,,,,,None,,140.3644838999666,None,140.3644838999666,None,2023-03-27-13:34:56.381145,140.36546689999523,140.68722249998245,140.36546689999523,None,None,140.36546689999523,None,141.1651284999738,None,,,,22052,0002,2023_Mar_27_1332,localizer,2021.1.3,59.420319147705314,
block,scenes,scenes053.bmp,,,,,0,43,43,43,,,,,,,,,,,,,,,,,,,,,,,,,,,,,,,,,,,,,,,,,,None,,141.1651284999738,None,141.1651284999738,None,2023-03-27-13:34:57.183950,141.17936309997458,141.48062829999253,141.17936309997458,141.17936309997458,None,141.17936309997458,141.17936309997458,141.98089459998883,None,,,,22052,0002,2023_Mar_27_1332,localizer,2021.1.3,59.420319147705314,
block_end,scenes,scenes086.bmp,,,,,0,44,44,44,,,,,,,,,,,,,,,,,,,,,,,,,,,,,,,,,,,,,,,,,,None,,141.98089459998883,None,141.98089459998883,None,2023-03-27-13:34:57.996577,141.9929201999912,142.29803399997763,141.9929201999912,None,None,141.9929201999912,None,142.7974773999944,None,,,,22052,0002,2023_Mar_27_1332,localizer,2021.1.3,59.420319147705314,
block_start,objects,objects008.bmp,,,,,0,45,45,45,,,,,,,,,,,,,,,,,,,,,,,,,,,,,,,,,,,,,,,,,,t,1.807910300034564,142.79717049997998,None,142.79717049997998,None,2023-03-27-13:35:00.646053,144.63165809999919,144.9308941999916,144.63165809999919,None,None,144.63165809999919,None,145.43105449999567,None,,,,22052,0002,2023_Mar_27_1332,localizer,2021.1.3,59.420319147705314,
block,objects,objects042.bmp,,,,,0,46,46,46,,,,,,,,,,,,,,,,,,,,,,,,,,,,,,,,,,,,,,,,,,None,,145.43105449999567,None,145.43105449999567,None,2023-03-27-13:35:01.448750,145.43373920000158,145.73771429999033,145.43373920000158,145.43373920000158,None,145.43373920000158,145.43373920000158,146.24750079995138,None,,,,22052,0002,2023_Mar_27_1332,localizer,2021.1.3,59.420319147705314,
block,objects,objects079.bmp,,,,,0,47,47,47,,,,,,,,,,,,,,,,,,,,,,,,,,,,,,,,,,,,,,,,,,None,,146.24750079995138,None,146.24750079995138,None,2023-03-27-13:35:02.263211,146.2483153999783,146.54715659999056,146.2483153999783,None,None,146.2483153999783,None,147.04762269999483,None,,,,22052,0002,2023_Mar_27_1332,localizer,2021.1.3,59.420319147705314,
block,objects,objects025.bmp,,,,,0,48,48,48,,,,,,,,,,,,,,,,,,,,,,,,,,,,,,,,,,,,,,,,,,None,,147.04762269999483,None,147.04762269999483,None,2023-03-27-13:35:03.064336,147.06125769997016,147.36390919995029,147.06125769997016,147.06125769997016,None,147.06125769997016,147.06125769997016,147.86417889997247,None,,,,22052,0002,2023_Mar_27_1332,localizer,2021.1.3,59.420319147705314,
block,objects,objects040.bmp,,,,,0,49,49,49,,,,,,,,,,,,,,,,,,,,,,,,,,,,,,,,,,,,,,,,,,None,,147.86417889997247,None,147.86417889997247,None,2023-03-27-13:35:03.879897,147.86505909997504,148.1642528999946,147.86505909997504,None,None,147.86505909997504,None,148.66629129998037,None,,,,22052,0002,2023_Mar_27_1332,localizer,2021.1.3,59.420319147705314,
block,objects,objects076.bmp,,,,,0,50,50,50,,,,,,,,,,,,,,,,,,,,,,,,,,,,,,,,,,,,,,,,,,None,,148.66629129998037,None,148.66629129998037,None,2023-03-27-13:35:04.688145,148.67261429998325,148.98131259996444,148.67261429998325,148.67261429998325,None,148.67261429998325,148.67261429998325,149.48139629996732,None,,,,22052,0002,2023_Mar_27_1332,localizer,2021.1.3,59.420319147705314,
block,objects,objects088.bmp,,,,,0,51,51,51,,,,,,,,,,,,,,,,,,,,,,,,,,,,,,,,,,,,,,,,,,None,,149.48139629996732,None,149.48139629996732,None,2023-03-27-13:35:05.498069,149.49546999996528,149.79792270000326,149.49546999996528,None,None,149.49546999996528,None,150.29820450000116,None,,,,22052,0002,2023_Mar_27_1332,localizer,2021.1.3,59.420319147705314,
block,objects,objects033.bmp,,,,,0,52,52,52,,,,,,,,,,,,,,,,,,,,,,,,,,,,,,,,,,,,,,,,,,None,,150.29820450000116,None,150.29820450000116,None,2023-03-27-13:35:06.314927,150.29999219998717,150.6140752999927,150.29999219998717,None,None,150.29999219998717,None,151.11500119994744,None,,,,22052,0002,2023_Mar_27_1332,localizer,2021.1.3,59.420319147705314,
block,objects,objects077.bmp,,,,,0,53,53,53,,,,,,,,,,,,,,,,,,,,,,,,,,,,,,,,,,,,,,,,,,None,,151.11500119994744,None,151.11500119994744,None,2023-03-27-13:35:07.131601,151.1280725999968,151.43063459999394,151.1280725999968,None,None,151.1280725999968,None,151.9305076999648,None,,,,22052,0002,2023_Mar_27_1332,localizer,2021.1.3,59.420319147705314,
block,objects,objects062.bmp,,,,,0,54,54,54,,,,,,,,,,,,,,,,,,,,,,,,,,,,,,,,,,,,,,,,,,None,,151.9305076999648,None,151.9305076999648,None,2023-03-27-13:35:07.946418,151.9313461999991,152.23077989998274,151.9313461999991,None,None,151.9313461999991,None,152.74732989998884,None,,,,22052,0002,2023_Mar_27_1332,localizer,2021.1.3,59.420319147705314,
block,objects,objects031.bmp,,,,,0,55,55,55,,,,,,,,,,,,,,,,,,,,,,,,,,,,,,,,,,,,,,,,,,None,,152.74732989998884,None,152.74732989998884,None,2023-03-27-13:35:08.762476,152.7487337999628,153.06448919995455,152.7487337999628,None,None,152.7487337999628,None,153.54788079998107,None,,,,22052,0002,2023_Mar_27_1332,localizer,2021.1.3,59.420319147705314,
block,objects,objects032.bmp,,,,,0,56,56,56,,,,,,,,,,,,,,,,,,,,,,,,,,,,,,,,,,,,,,,,,,None,,153.54788079998107,None,153.54788079998107,None,2023-03-27-13:35:09.566831,153.5637803999707,153.86470169998938,153.5637803999707,153.5637803999707,None,153.5637803999707,153.5637803999707,154.3636517999752,None,,,,22052,0002,2023_Mar_27_1332,localizer,2021.1.3,59.420319147705314,
block,objects,objects013.bmp,,,,,0,57,57,57,,,,,,,,,,,,,,,,,,,,,,,,,,,,,,,,,,,,,,,,,,None,,154.3636517999752,None,154.3636517999752,None,2023-03-27-13:35:10.378422,154.36494969995692,154.68046189995948,154.36494969995692,None,None,154.36494969995692,None,155.16406639997732,None,,,,22052,0002,2023_Mar_27_1332,localizer,2021.1.3,59.420319147705314,
block,objects,objects065.bmp,,,,,0,58,58,58,,,,,,,,,,,,,,,,,,,,,,,,,,,,,,,,,,,,,,,,,,None,,155.16406639997732,None,155.16406639997732,None,2023-03-27-13:35:11.182048,155.16542929998832,155.46502929995768,155.16542929998832,155.16542929998832,None,155.16542929998832,155.16542929998832,155.96556839999394,None,,,,22052,0002,2023_Mar_27_1332,localizer,2021.1.3,59.420319147705314,
block_end,objects,objects064.bmp,,,,,0,59,59,59,,,,,,,,,,,,,,,,,,,,,,,,,,,,,,,,,,,,,,,,,,None,,155.96556839999394,None,155.96556839999394,None,2023-03-27-13:35:11.987309,155.9845076999627,156.29764269996667,155.9845076999627,155.9845076999627,None,155.9845076999627,155.9845076999627,156.78411329998053,None,,,,22052,0002,2023_Mar_27_1332,localizer,2021.1.3,59.420319147705314,
null_block,null_block,null_block.bmp,,,,,0,60,60,60,,,,,,,,,,,,,,,,,,,,,,,,,,,,,,,,,,,,,,,,,,t,1.8220990999834612,156.78285429999232,None,156.78285429999232,None,2023-03-27-13:35:14.645715,158.63092159998487,None,158.63092159998487,None,None,158.63092159998487,None,158.63471989997197,None,,,,22052,0002,2023_Mar_27_1332,localizer,2021.1.3,59.420319147705314,
block_start,faces,faces019.bmp,,,,,0,61,61,61,,,,,,,,,,,,,,,,,,,,,,,,,,,,,,,,,,,,,,,,,,t,1.9572899999911897,170.64777629997116,None,170.64777629997116,None,2023-03-27-13:35:28.648282,172.65194209996844,172.94892409996828,172.65194209996844,None,None,172.65194209996844,None,173.4480966999603,None,,,,22052,0002,2023_Mar_27_1332,localizer,2021.1.3,59.420319147705314,
block,faces,faces082.bmp,,,,,0,62,62,62,,,,,,,,,,,,,,,,,,,,,,,,,,,,,,,,,,,,,,,,,,None,,173.4480966999603,None,173.4480966999603,None,2023-03-27-13:35:29.465174,173.46262109995587,173.76492299995152,173.46262109995587,None,None,173.46262109995587,None,174.2643942999479,None,,,,22052,0002,2023_Mar_27_1332,localizer,2021.1.3,59.420319147705314,
block,faces,faces013.bmp,,,,,0,63,63,63,,,,,,,,,,,,,,,,,,,,,,,,,,,,,,,,,,,,,,,,,,None,,174.2643942999479,None,174.2643942999479,None,2023-03-27-13:35:30.280291,174.27681690000463,174.58073619997595,174.27681690000463,None,None,174.27681690000463,None,175.08102709998494,None,,,,22052,0002,2023_Mar_27_1332,localizer,2021.1.3,59.420319147705314,
block,faces,faces047.bmp,,,,,0,64,64,64,,,,,,,,,,,,,,,,,,,,,,,,,,,,,,,,,,,,,,,,,,None,,175.08102709998494,None,175.08102709998494,None,2023-03-27-13:35:31.097241,175.08212479995564,175.39760189998196,175.08212479995564,None,None,175.08212479995564,None,175.88318739995012,None,,,,22052,0002,2023_Mar_27_1332,localizer,2021.1.3,59.420319147705314,
block,faces,faces044.bmp,,,,,0,65,65,65,,,,,,,,,,,,,,,,,,,,,,,,,,,,,,,,,,,,,,,,,,None,,175.88318739995012,None,175.88318739995012,None,2023-03-27-13:35:31.906224,175.89198559999932,176.19838269997854,175.89198559999932,175.89198559999932,None,175.89198559999932,175.89198559999932,176.69792819995783,None,,,,22052,0002,2023_Mar_27_1332,localizer,2021.1.3,59.420319147705314,
block,faces,faces059.bmp,,,,,0,66,66,66,,,,,,,,,,,,,,,,,,,,,,,,,,,,,,,,,,,,,,,,,,None,,176.69792819995783,None,176.69792819995783,None,2023-03-27-13:35:32.714370,176.71133699995698,177.0146218999871,176.71133699995698,None,None,176.71133699995698,None,177.5149404999742,None,,,,22052,0002,2023_Mar_27_1332,localizer,2021.1.3,59.420319147705314,
block,faces,faces061.bmp,,,,,0,67,67,67,,,,,,,,,,,,,,,,,,,,,,,,,,,,,,,,,,,,,,,,,,None,,177.5149404999742,None,177.5149404999742,None,2023-03-27-13:35:33.532043,177.52949099999387,177.83129319996806,177.52949099999387,None,None,177.52949099999387,None,178.33235920000007,None,,,,22052,0002,2023_Mar_27_1332,localizer,2021.1.3,59.420319147705314,
block,faces,faces011.bmp,,,,,0,68,68,68,,,,,,,,,,,,,,,,,,,,,,,,,,,,,,,,,,,,,,,,,,None,,178.33235920000007,None,178.33235920000007,None,2023-03-27-13:35:34.350245,178.34765720000723,178.6476871999912,178.34765720000723,None,None,178.34765720000723,None,179.14785169996904,None,,,,22052,0002,2023_Mar_27_1332,localizer,2021.1.3,59.420319147705314,
block,faces,faces005.bmp,,,,,0,69,69,69,,,,,,,,,,,,,,,,,,,,,,,,,,,,,,,,,,,,,,,,,,None,,179.14785169996904,None,179.14785169996904,None,2023-03-27-13:35:35.163762,179.15592180000385,179.46405239996966,179.15592180000385,None,None,179.15592180000385,None,179.96454619995203,None,,,,22052,0002,2023_Mar_27_1332,localizer,2021.1.3,59.420319147705314,
block,faces,faces057.bmp,,,,,0,70,70,70,,,,,,,,,,,,,,,,,,,,,,,,,,,,,,,,,,,,,,,,,,None,,179.96454619995203,None,179.96454619995203,None,2023-03-27-13:35:35.980459,179.97811749996617,180.28079089999665,179.97811749996617,None,None,179.97811749996617,None,180.77096449997626,None,,,,22052,0002,2023_Mar_27_1332,localizer,2021.1.3,59.420319147705314,
block,faces,faces036.bmp,,,,,0,71,71,71,,,,,,,,,,,,,,,,,,,,,,,,,,,,,,,,,,,,,,,,,,None,,180.77096449997626,None,180.77096449997626,None,2023-03-27-13:35:36.790917,180.78799829998752,181.09803029999603,180.78799829998752,None,None,180.78799829998752,None,181.58159929997638,None,,,,22052,0002,2023_Mar_27_1332,localizer,2021.1.3,59.420319147705314,
block,faces,faces045.bmp,,,,,0,72,72,72,,,,,,,,,,,,,,,,,,,,,,,,,,,,,,,,,,,,,,,,,,None,,181.58159929997638,None,181.58159929997638,None,2023-03-27-13:35:37.597543,181.58235139999306,181.89769049995812,181.58235139999306,None,None,181.58235139999306,None,182.39789309999324,None,,,,22052,0002,2023_Mar_27_1332,localizer,2021.1.3,59.420319147705314,
block,faces,faces008.bmp,,,,,0,73,73,73,,,,,,,,,,,,,,,,,,,,,,,,,,,,,,,,,,,,,,,,,,None,,182.39789309999324,None,182.39789309999324,None,2023-03-27-13:35:38.413813,182.39863269997295,182.70344859996112,182.39863269997295,None,None,182.39863269997295,None,183.19804619998322,None,,,,22052,0002,2023_Mar_27_1332,localizer,2021.1.3,59.420319147705314,
block,faces,faces021.bmp,,,,,0,74,74,74,,,,,,,,,,,,,,,,,,,,,,,,,,,,,,,,,,,,,,,,,,None,,183.19804619998322,None,183.19804619998322,None,2023-03-27-13:35:39.215969,183.20857059996342,183.51438599999528,183.20857059996342,183.20857059996342,None,183.20857059996342,183.20857059996342,184.01565550000524,None,,,,22052,0002,2023_Mar_27_1332,localizer,2021.1.3,59.420319147705314,
block_end,faces,faces032.bmp,,,,,0,75,75,75,,,,,,,,,,,,,,,,,,,,,,,,,,,,,,,,,,,,,,,,,,None,,184.01565550000524,None,184.01565550000524,None,2023-03-27-13:35:40.033258,184.0309262999799,184.33081009995658,184.0309262999799,None,None,184.0309262999799,None,184.83101469994872,None,,,,22052,0002,2023_Mar_27_1332,localizer,2021.1.3,59.420319147705314,
block_start,objects,objects020.bmp,,,,,0,76,76,76,,,,,,,,,,,,,,,,,,,,,,,,,,,,,,,,,,,,,,,,,,t,1.774046000035014,184.83094909996726,None,184.83094909996726,None,2023-03-27-13:35:42.646518,186.63198399997782,186.93096369999694,186.63198399997782,None,None,186.63198399997782,None,187.431221799989,None,,,,22052,0002,2023_Mar_27_1332,localizer,2021.1.3,59.420319147705314,
block,objects,objects019.bmp,,,,,0,77,77,77,,,,,,,,,,,,,,,,,,,,,,,,,,,,,,,,,,,,,,,,,,None,,187.431221799989,None,187.431221799989,None,2023-03-27-13:35:43.449154,187.44572189997416,187.74764229997527,187.44572189997416,187.44572189997416,None,187.44572189997416,187.44572189997416,188.24786329997588,None,,,,22052,0002,2023_Mar_27_1332,localizer,2021.1.3,59.420319147705314,
block,objects,objects040.bmp,,,,,0,78,78,78,,,,,,,,,,,,,,,,,,,,,,,,,,,,,,,,,,,,,,,,,,None,,188.24786329997588,None,188.24786329997588,None,2023-03-27-13:35:44.264005,188.24863889999688,188.54776799998945,188.24863889999688,None,None,188.24863889999688,None,189.04785839998513,None,,,,22052,0002,2023_Mar_27_1332,localizer,2021.1.3,59.420319147705314,
block,objects,objects052.bmp,,,,,0,79,79,79,,,,,,,,,,,,,,,,,,,,,,,,,,,,,,,,,,,,,,,,,,None,,189.04785839998513,None,189.04785839998513,None,2023-03-27-13:35:45.064798,189.0605813000002,189.36439129995415,189.0605813000002,189.0605813000002,None,189.0605813000002,189.0605813000002,189.864543399954,None,,,,22052,0002,2023_Mar_27_1332,localizer,2021.1.3,59.420319147705314,
block,objects,objects074.bmp,,,,,0,80,80,80,,,,,,,,,,,,,,,,,,,,,,,,,,,,,,,,,,,,,,,,,,None,,189.864543399954,None,189.864543399954,None,2023-03-27-13:35:45.880486,189.87678900000174,190.18102309998358,189.87678900000174,None,None,189.87678900000174,None,190.68132809998352,None,,,,22052,0002,2023_Mar_27_1332,localizer,2021.1.3,59.420319147705314,
block,objects,objects075.bmp,,,,,0,81,81,81,,,,,,,,,,,,,,,,,,,,,,,,,,,,,,,,,,,,,,,,,,None,,190.68132809998352,None,190.68132809998352,None,2023-03-27-13:35:46.697501,190.69380029995227,190.99785319995135,190.69380029995227,None,None,190.69380029995227,None,191.4979558999825,None,,,,22052,0002,2023_Mar_27_1332,localizer,2021.1.3,59.420319147705314,
block,objects,objects065.bmp,,,,,0,82,82,82,,,,,,,,,,,,,,,,,,,,,,,,,,,,,,,,,,,,,,,,,,None,,191.4979558999825,None,191.4979558999825,None,2023-03-27-13:35:47.514253,191.49848730000667,191.79793409997365,191.49848730000667,None,None,191.49848730000667,None,192.2980172999727,None,,,,22052,0002,2023_Mar_27_1332,localizer,2021.1.3,59.420319147705314,
block,objects,objects059.bmp,,,,,0,83,83,83,,,,,,,,,,,,,,,,,,,,,,,,,,,,,,,,,,,,,,,,,,None,,192.2980172999727,None,192.2980172999727,None,2023-03-27-13:35:48.316185,192.31291149999015,192.61436000000685,192.31291149999015,192.31291149999015,None,192.31291149999015,192.31291149999015,193.11476239999175,None,,,,22052,0002,2023_Mar_27_1332,localizer,2021.1.3,59.420319147705314,
block,objects,objects008.bmp,,,,,0,84,84,84,,,,,,,,,,,,,,,,,,,,,,,,,,,,,,,,,,,,,,,,,,None,,193.11476239999175,None,193.11476239999175,None,2023-03-27-13:35:49.130710,193.11533639999107,193.41453429998364,193.11533639999107,None,None,193.11533639999107,None,193.91438899998903,None,,,,22052,0002,2023_Mar_27_1332,localizer,2021.1.3,59.420319147705314,
block,objects,objects071.bmp,,,,,0,85,85,85,,,,,,,,,,,,,,,,,,,,,,,,,,,,,,,,,,,,,,,,,,None,,193.91438899998903,None,193.91438899998903,None,2023-03-27-13:35:49.932222,193.91525399999227,194.2144431999768,193.91525399999227,193.91525399999227,None,193.91525399999227,193.91525399999227,194.71459140000516,None,,,,22052,0002,2023_Mar_27_1332,localizer,2021.1.3,59.420319147705314,
block,objects,objects017.bmp,,,,,0,86,86,86,,,,,,,,,,,,,,,,,,,,,,,,,,,,,,,,,,,,,,,,,,None,,194.71459140000516,None,194.71459140000516,None,2023-03-27-13:35:50.732540,194.71532459999435,195.01439049997134,194.71532459999435,194.71532459999435,None,194.71532459999435,194.71532459999435,195.51502549998114,None,,,,22052,0002,2023_Mar_27_1332,localizer,2021.1.3,59.420319147705314,
block,objects,objects005.bmp,,,,,0,87,87,87,,,,,,,,,,,,,,,,,,,,,,,,,,,,,,,,,,,,,,,,,,None,,195.51502549998114,None,195.51502549998114,None,2023-03-27-13:35:51.533943,195.5176133000059,195.83089499996277,195.5176133000059,195.5176133000059,None,195.5176133000059,195.5176133000059,196.33125389996567,None,,,,22052,0002,2023_Mar_27_1332,localizer,2021.1.3,59.420319147705314,
block,objects,objects049.bmp,,,,,0,88,88,88,,,,,,,,,,,,,,,,,,,,,,,,,,,,,,,,,,,,,,,,,,None,,196.33125389996567,None,196.33125389996567,None,2023-03-27-13:35:52.347216,196.33172459999332,196.63097949995426,196.33172459999332,None,None,196.33172459999332,None,197.13121719996562,None,,,,22052,0002,2023_Mar_27_1332,localizer,2021.1.3,59.420319147705314,
block,objects,objects049.bmp,,,,,0,89,89,89,,,,,,,,,,,,,,,,,,,,,,,,,,,,,,,,,,,,,,,,,,None,,197.13121719996562,None,197.13121719996562,None,2023-03-27-13:35:53.148180,197.13205869996455,197.4313231999986,197.13205869996455,197.13205869996455,y,197.13205869996455,197.13205869996455,197.9311698000005,None,0.6012011999846436,,,22052,0002,2023_Mar_27_1332,localizer,2021.1.3,59.420319147705314,
block_end,objects,objects041.bmp,,,,,0,90,90,90,,,,,,,,,,,,,,,,,,,,,,,,,,,,,,,,,,,,,,,,,,None,,197.9311698000005,None,197.9311698000005,None,2023-03-27-13:35:53.949137,197.93241389998002,198.24777659995016,197.93241389998002,197.93241389998002,None,197.93241389998002,197.93241389998002,198.74783989997232,None,,,,22052,0002,2023_Mar_27_1332,localizer,2021.1.3,59.420319147705314,
block_start,scrambled,scrambled006.bmp,,,,,0,91,91,91,,,,,,,,,,,,,,,,,,,,,,,,,,,,,,,,,,,,,,,,,,t,1.8569262999808416,198.74792180000804,None,198.74792180000804,None,2023-03-27-13:35:56.647051,200.64328249997925,200.94770919997245,200.64328249997925,None,None,200.64328249997925,None,201.44829639996752,None,,,,22052,0002,2023_Mar_27_1332,localizer,2021.1.3,59.420319147705314,
block,scrambled,scrambled030.bmp,,,,,0,92,92,92,,,,,,,,,,,,,,,,,,,,,,,,,,,,,,,,,,,,,,,,,,None,,201.44829639996752,None,201.44829639996752,None,2023-03-27-13:35:57.465476,201.4487894999911,201.74759809998795,201.4487894999911,None,None,201.4487894999911,None,202.24824309995748,None,,,,22052,0002,2023_Mar_27_1332,localizer,2021.1.3,59.420319147705314,
block,scrambled,scrambled027.bmp,,,,,0,93,93,93,,,,,,,,,,,,,,,,,,,,,,,,,,,,,,,,,,,,,,,,,,None,,202.24824309995748,None,202.24824309995748,None,2023-03-27-13:35:58.266632,202.25038959999802,202.56469049997395,202.25038959999802,202.25038959999802,None,202.25038959999802,202.25038959999802,203.06489159999765,None,,,,22052,0002,2023_Mar_27_1332,localizer,2021.1.3,59.420319147705314,
block,scrambled,scrambled038.bmp,,,,,0,94,94,94,,,,,,,,,,,,,,,,,,,,,,,,,,,,,,,,,,,,,,,,,,None,,203.06489159999765,None,203.06489159999765,None,2023-03-27-13:35:59.081063,203.0652002999559,203.36473869998008,203.0652002999559,None,None,203.0652002999559,None,203.86470319994842,None,,,,22052,0002,2023_Mar_27_1332,localizer,2021.1.3,59.420319147705314,
block,scrambled,scrambled088.bmp,,,,,0,95,95,95,,,,,,,,,,,,,,,,,,,,,,,,,,,,,,,,,,,,,,,,,,None,,203.86470319994842,None,203.86470319994842,None,2023-03-27-13:35:59.882683,203.8783781999955,204.1812183999573,203.8783781999955,203.8783781999955,None,203.8783781999955,203.8783781999955,204.68124389998266,None,,,,22052,0002,2023_Mar_27_1332,localizer,2021.1.3,59.420319147705314,
block,scrambled,scrambled079.bmp,,,,,0,96,96,96,,,,,,,,,,,,,,,,,,,,,,,,,,,,,,,,,,,,,,,,,,None,,204.68124389998266,None,204.68124389998266,None,2023-03-27-13:36:00.697798,204.68205669999588,204.9991449000081,204.68205669999588,None,None,204.68205669999588,None,205.4812789000047,None,,,,22052,0002,2023_Mar_27_1332,localizer,2021.1.3,59.420319147705314,
block,scrambled,scrambled029.bmp,,,,,0,97,97,97,,,,,,,,,,,,,,,,,,,,,,,,,,,,,,,,,,,,,,,,,,None,,205.4812789000047,None,205.4812789000047,None,2023-03-27-13:36:01.498266,205.49496679997537,205.7975675999769,205.49496679997537,205.49496679997537,None,205.49496679997537,205.49496679997537,206.29791259999038,None,,,,22052,0002,2023_Mar_27_1332,localizer,2021.1.3,59.420319147705314,
block,scrambled,scrambled002.bmp,,,,,0,98,98,98,,,,,,,,,,,,,,,,,,,,,,,,,,,,,,,,,,,,,,,,,,None,,206.29791259999038,None,206.29791259999038,None,2023-03-27-13:36:02.313369,206.29884139995556,206.61421179998433,206.29884139995556,None,None,206.29884139995556,None,207.0993514999922,None,,,,22052,0002,2023_Mar_27_1332,localizer,2021.1.3,59.420319147705314,
block,scrambled,scrambled004.bmp,,,,,0,99,99,99,,,,,,,,,,,,,,,,,,,,,,,,,,,,,,,,,,,,,,,,,,None,,207.0993514999922,None,207.0993514999922,None,2023-03-27-13:36:03.120809,207.10376799997175,207.41465210000752,207.10376799997175,207.10376799997175,None,207.10376799997175,207.10376799997175,207.91467659996707,None,,,,22052,0002,2023_Mar_27_1332,localizer,2021.1.3,59.420319147705314,
block,scrambled,scrambled043.bmp,,,,,0,100,100,100,,,,,,,,,,,,,,,,,,,,,,,,,,,,,,,,,,,,,,,,,,None,,207.91467659996707,None,207.91467659996707,None,2023-03-27-13:36:03.930670,207.92702689999714,208.2311117000063,207.92702689999714,None,None,207.92702689999714,None,208.73097909999197,None,,,,22052,0002,2023_Mar_27_1332,localizer,2021.1.3,59.420319147705314,
block,scrambled,scrambled036.bmp,,,,,0,101,101,101,,,,,,,,,,,,,,,,,,,,,,,,,,,,,,,,,,,,,,,,,,None,,208.73097909999197,None,208.73097909999197,None,2023-03-27-13:36:04.747307,208.73246829997515,209.0477086000028,208.73246829997515,None,None,208.73246829997515,None,209.53151299997117,None,,,,22052,0002,2023_Mar_27_1332,localizer,2021.1.3,59.420319147705314,
block,scrambled,scrambled026.bmp,,,,,0,102,102,102,,,,,,,,,,,,,,,,,,,,,,,,,,,,,,,,,,,,,,,,,,None,,209.53151299997117,None,209.53151299997117,None,2023-03-27-13:36:05.549508,209.5329898999771,209.84789619996445,209.5329898999771,209.5329898999771,None,209.5329898999771,209.5329898999771,210.34779829998152,None,,,,22052,0002,2023_Mar_27_1332,localizer,2021.1.3,59.420319147705314,
block,scrambled,scrambled032.bmp,,,,,0,103,103,103,,,,,,,,,,,,,,,,,,,,,,,,,,,,,,,,,,,,,,,,,,None,,210.34779829998152,None,210.34779829998152,None,2023-03-27-13:36:06.363804,210.35908879997442,210.66421389998868,210.35908879997442,None,None,210.35908879997442,None,211.16471679998213,None,,,,22052,0002,2023_Mar_27_1332,localizer,2021.1.3,59.420319147705314,
block,scrambled,scrambled073.bmp,,,,,0,104,104,104,,,,,,,,,,,,,,,,,,,,,,,,,,,,,,,,,,,,,,,,,,None,,211.16471679998213,None,211.16471679998213,None,2023-03-27-13:36:07.180722,211.16540609998628,211.4646478999639,211.16540609998628,None,None,211.16540609998628,None,211.96454789996497,None,,,,22052,0002,2023_Mar_27_1332,localizer,2021.1.3,59.420319147705314,
block_end,scrambled,scrambled021.bmp,,,,,0,105,105,105,,,,,,,,,,,,,,,,,,,,,,,,,,,,,,,,,,,,,,,,,,None,,211.96454789996497,None,211.96454789996497,None,2023-03-27-13:36:07.982341,211.96526019996963,212.2645111999591,211.96526019996963,211.96526019996963,None,211.96526019996963,211.96526019996963,212.76442450000323,None,,,,22052,0002,2023_Mar_27_1332,localizer,2021.1.3,59.420319147705314,
block_start,scenes,scenes051.bmp,,,,,0,106,106,106,,,,,,,,,,,,,,,,,,,,,,,,,,,,,,,,,,,,,,,,,,t,1.8412416000501253,212.76410659996327,None,212.76410659996327,None,2023-03-27-13:36:10.660804,214.64767370000482,214.94794149999507,214.64767370000482,None,None,214.64767370000482,None,215.4482883999648,None,,,,22052,0002,2023_Mar_27_1332,localizer,2021.1.3,59.420319147705314,
block,scenes,scenes068.bmp,,,,,0,107,107,107,,,,,,,,,,,,,,,,,,,,,,,,,,,,,,,,,,,,,,,,,,None,,215.4482883999648,None,215.4482883999648,None,2023-03-27-13:36:11.464303,215.44888839998748,215.75234289997024,215.44888839998748,None,None,215.44888839998748,None,216.24818849994918,None,,,,22052,0002,2023_Mar_27_1332,localizer,2021.1.3,59.420319147705314,
block,scenes,scenes045.bmp,,,,,0,108,108,108,,,,,,,,,,,,,,,,,,,,,,,,,,,,,,,,,,,,,,,,,,None,,216.24818849994918,None,216.24818849994918,None,2023-03-27-13:36:12.265432,216.24890780000715,216.54775009996956,216.24890780000715,216.24890780000715,None,216.24890780000715,216.24890780000715,217.06442259997712,None,,,,22052,0002,2023_Mar_27_1332,localizer,2021.1.3,59.420319147705314,
block,scenes,scenes016.bmp,,,,,0,109,109,109,,,,,,,,,,,,,,,,,,,,,,,,,,,,,,,,,,,,,,,,,,None,,217.06442259997712,None,217.06442259997712,None,2023-03-27-13:36:13.080450,217.06567369995173,217.3812464000075,217.06567369995173,None,None,217.06567369995173,None,217.86493029998965,None,,,,22052,0002,2023_Mar_27_1332,localizer,2021.1.3,59.420319147705314,
block,scenes,scenes055.bmp,,,,,0,110,110,110,,,,,,,,,,,,,,,,,,,,,,,,,,,,,,,,,,,,,,,,,,None,,217.86493029998965,None,217.86493029998965,None,2023-03-27-13:36:13.882953,217.88103689998388,218.18131959997118,217.88103689998388,217.88103689998388,None,217.88103689998388,217.88103689998388,218.68219679996255,None,,,,22052,0002,2023_Mar_27_1332,localizer,2021.1.3,59.420319147705314,
block,scenes,scenes088.bmp,,,,,0,111,111,111,,,,,,,,,,,,,,,,,,,,,,,,,,,,,,,,,,,,,,,,,,None,,218.68219679996255,None,218.68219679996255,None,2023-03-27-13:36:14.699188,218.68429369997466,218.9977058999939,218.68429369997466,None,None,218.68429369997466,None,219.4980195000011,None,,,,22052,0002,2023_Mar_27_1332,localizer,2021.1.3,59.420319147705314,
block,scenes,scenes067.bmp,,,,,0,112,112,112,,,,,,,,,,,,,,,,,,,,,,,,,,,,,,,,,,,,,,,,,,None,,219.4980195000011,None,219.4980195000011,None,2023-03-27-13:36:15.514292,219.51005260000238,219.814990999992,219.51005260000238,None,None,219.51005260000238,None,220.3045312999806,None,,,,22052,0002,2023_Mar_27_1332,localizer,2021.1.3,59.420319147705314,
block,scenes,scenes080.bmp,,,,,0,113,113,113,,,,,,,,,,,,,,,,,,,,,,,,,,,,,,,,,,,,,,,,,,None,,220.3045312999806,None,220.3045312999806,None,2023-03-27-13:36:16.328440,220.3230774999829,220.6311990999966,220.3230774999829,None,None,220.3230774999829,None,221.11441149999737,None,,,,22052,0002,2023_Mar_27_1332,localizer,2021.1.3,59.420319147705314,
block,scenes,scenes071.bmp,,,,,0,114,114,114,,,,,,,,,,,,,,,,,,,,,,,,,,,,,,,,,,,,,,,,,,None,,221.11441149999737,None,221.11441149999737,None,2023-03-27-13:36:17.130451,221.12554059998365,221.4312281999737,221.12554059998365,None,None,221.12554059998365,None,221.93214379996644,None,,,,22052,0002,2023_Mar_27_1332,localizer,2021.1.3,59.420319147705314,
block,scenes,scenes011.bmp,,,,,0,115,115,115,,,,,,,,,,,,,,,,,,,,,,,,,,,,,,,,,,,,,,,,,,None,,221.93214379996644,None,221.93214379996644,None,2023-03-27-13:36:17.949357,221.9342073999578,222.24806009995518,221.9342073999578,None,None,221.9342073999578,None,222.74793119996903,None,,,,22052,0002,2023_Mar_27_1332,localizer,2021.1.3,59.420319147705314,
block,scenes,scenes053.bmp,,,,,0,116,116,116,,,,,,,,,,,,,,,,,,,,,,,,,,,,,,,,,,,,,,,,,,None,,222.74793119996903,None,222.74793119996903,None,2023-03-27-13:36:18.763975,222.74901249998948,223.04782859998522,222.74901249998948,None,None,222.74901249998948,None,223.54805879999768,None,,,,22052,0002,2023_Mar_27_1332,localizer,2021.1.3,59.420319147705314,
block,scenes,scenes057.bmp,,,,,0,117,117,117,,,,,,,,,,,,,,,,,,,,,,,,,,,,,,,,,,,,,,,,,,None,,223.54805879999768,None,223.54805879999768,None,2023-03-27-13:36:19.565099,223.54896589997225,223.84786209999584,223.54896589997225,223.54896589997225,None,223.54896589997225,223.54896589997225,224.34811389999814,None,,,,22052,0002,2023_Mar_27_1332,localizer,2021.1.3,59.420319147705314,
block,scenes,scenes012.bmp,,,,,0,118,118,118,,,,,,,,,,,,,,,,,,,,,,,,,,,,,,,,,,,,,,,,,,None,,224.34811389999814,None,224.34811389999814,None,2023-03-27-13:36:20.365154,224.3488447999698,224.64785269997083,224.3488447999698,224.3488447999698,None,224.3488447999698,224.3488447999698,225.14821859996883,None,,,,22052,0002,2023_Mar_27_1332,localizer,2021.1.3,59.420319147705314,
block,scenes,scenes079.bmp,,,,,0,119,119,119,,,,,,,,,,,,,,,,,,,,,,,,,,,,,,,,,,,,,,,,,,None,,225.14821859996883,None,225.14821859996883,None,2023-03-27-13:36:21.166255,225.1615944999503,225.4645645999699,225.1615944999503,225.1615944999503,None,225.1615944999503,225.1615944999503,225.9648283000046,None,,,,22052,0002,2023_Mar_27_1332,localizer,2021.1.3,59.420319147705314,
block_end,scenes,scenes047.bmp,,,,,0,120,120,120,,,,,,,,,,,,,,,,,,,,,,,,,,,,,,,,,,,,,,,,,,None,,225.9648283000046,None,225.9648283000046,None,2023-03-27-13:36:21.980877,225.97671239997726,226.2812433000072,225.97671239997726,None,None,225.97671239997726,None,226.78133269999526,None,,,,22052,0002,2023_Mar_27_1332,localizer,2021.1.3,59.420319147705314,
null_block,null_block,null_block.bmp,,,,,0,121,121,121,,,,,,,,,,,,,,,,,,,,,,,,,,,,,,,,,,,,,,,,,,t,1.8238717999774963,226.78115830000024,None,226.78115830000024,None,2023-03-27-13:36:24.645962,228.63167849998572,None,228.63167849998572,None,None,228.63167849998572,None,228.63323819998186,None,,,,22052,0002,2023_Mar_27_1332,localizer,2021.1.3,59.420319147705314,
block_start,scenes,scenes031.bmp,,,,,0,122,122,122,,,,,,,,,,,,,,,,,,,,,,,,,,,,,,,,,,,,,,,,,,t,1.9567948000039905,240.64819809998153,None,240.64819809998153,None,2023-03-27-13:36:38.648657,242.64529359998414,242.9483840999892,242.64529359998414,None,None,242.64529359998414,None,243.4486666999932,None,,,,22052,0002,2023_Mar_27_1332,localizer,2021.1.3,59.420319147705314,
block,scenes,scenes064.bmp,,,,,0,123,123,123,,,,,,,,,,,,,,,,,,,,,,,,,,,,,,,,,,,,,,,,,,None,,243.4486666999932,None,243.4486666999932,None,2023-03-27-13:36:39.464816,243.4620864999597,243.77129800000694,243.4620864999597,None,None,243.4620864999597,None,244.26562019996928,None,,,,22052,0002,2023_Mar_27_1332,localizer,2021.1.3,59.420319147705314,
block,scenes,scenes035.bmp,,,,,0,124,124,124,,,,,,,,,,,,,,,,,,,,,,,,,,,,,,,,,,,,,,,,,,None,,244.26562019996928,None,244.26562019996928,None,2023-03-27-13:36:40.282896,244.2677252999856,244.58116729999892,244.2677252999856,None,None,244.2677252999856,None,245.08199409995578,None,,,,22052,0002,2023_Mar_27_1332,localizer,2021.1.3,59.420319147705314,
block,scenes,scenes054.bmp,,,,,0,125,125,125,,,,,,,,,,,,,,,,,,,,,,,,,,,,,,,,,,,,,,,,,,None,,245.08199409995578,None,245.08199409995578,None,2023-03-27-13:36:41.099124,245.08270719996653,245.39827289996902,245.08270719996653,None,None,245.08270719996653,None,245.88172969996813,None,,,,22052,0002,2023_Mar_27_1332,localizer,2021.1.3,59.420319147705314,
block,scenes,scenes023.bmp,,,,,0,126,126,126,,,,,,,,,,,,,,,,,,,,,,,,,,,,,,,,,,,,,,,,,,None,,245.88172969996813,None,245.88172969996813,None,2023-03-27-13:36:41.899826,245.88303619995713,246.19818429998122,245.88303619995713,245.88303619995713,None,245.88303619995713,245.88303619995713,246.6981742999691,None,,,,22052,0002,2023_Mar_27_1332,localizer,2021.1.3,59.420319147705314,
block,scenes,scenes077.bmp,,,,,0,127,127,127,,,,,,,,,,,,,,,,,,,,,,,,,,,,,,,,,,,,,,,,,,None,,246.6981742999691,None,246.6981742999691,None,2023-03-27-13:36:42.714285,246.6991638999898,246.99826309998753,246.6991638999898,None,None,246.6991638999898,None,247.49842219998246,None,,,,22052,0002,2023_Mar_27_1332,localizer,2021.1.3,59.420319147705314,
block,scenes,scenes065.bmp,,,,,0,128,128,128,,,,,,,,,,,,,,,,,,,,,,,,,,,,,,,,,,,,,,,,,,None,,247.49842219998246,None,247.49842219998246,None,2023-03-27-13:36:43.515856,247.50035089999437,247.81466919998638,247.50035089999437,247.50035089999437,None,247.50035089999437,247.50035089999437,248.31514859997552,None,,,,22052,0002,2023_Mar_27_1332,localizer,2021.1.3,59.420319147705314,
block,scenes,scenes021.bmp,,,,,0,129,129,129,,,,,,,,,,,,,,,,,,,,,,,,,,,,,,,,,,,,,,,,,,None,,248.31514859997552,None,248.31514859997552,None,2023-03-27-13:36:44.331890,248.3157151999767,248.61441569996532,248.3157151999767,None,None,248.3157151999767,None,249.13132339995937,None,,,,22052,0002,2023_Mar_27_1332,localizer,2021.1.3,59.420319147705314,
block,scenes,scenes044.bmp,,,,,0,130,130,130,,,,,,,,,,,,,,,,,,,,,,,,,,,,,,,,,,,,,,,,,,None,,249.13132339995937,None,249.13132339995937,None,2023-03-27-13:36:45.147445,249.14241749997018,249.44789189996663,249.14241749997018,None,None,249.14241749997018,None,249.9485111999733,None,,,,22052,0002,2023_Mar_27_1332,localizer,2021.1.3,59.420319147705314,
block,scenes,scenes086.bmp,,,,,0,131,131,131,,,,,,,,,,,,,,,,,,,,,,,,,,,,,,,,,,,,,,,,,,None,,249.9485111999733,None,249.9485111999733,None,2023-03-27-13:36:45.964627,249.949065599998,250.248304299952,249.949065599998,None,None,249.949065599998,None,250.7713488999929,None,,,,22052,0002,2023_Mar_27_1332,localizer,2021.1.3,59.420319147705314,
block,scenes,scenes005.bmp,,,,,0,132,132,132,,,,,,,,,,,,,,,,,,,,,,,,,,,,,,,,,,,,,,,,,,None,,250.7713488999929,None,250.7713488999929,None,2023-03-27-13:36:46.795439,250.79824370000279,251.09833549999166,250.79824370000279,None,None,250.79824370000279,None,251.5853254000016,None,,,,22052,0002,2023_Mar_27_1332,localizer,2021.1.3,59.420319147705314,
block,scenes,scenes069.bmp,,,,,0,133,133,133,,,,,,,,,,,,,,,,,,,,,,,,,,,,,,,,,,,,,,,,,,None,,251.5853254000016,None,251.5853254000016,None,2023-03-27-13:36:47.611497,251.5944314999506,251.89793779997854,251.5944314999506,None,None,251.5944314999506,None,252.39861639997108,None,,,,22052,0002,2023_Mar_27_1332,localizer,2021.1.3,59.420319147705314,
block,scenes,scenes037.bmp,,,,,0,134,134,134,,,,,,,,,,,,,,,,,,,,,,,,,,,,,,,,,,,,,,,,,,None,,252.39861639997108,None,252.39861639997108,None,2023-03-27-13:36:48.414933,252.39913649996743,252.69832549995044,252.39913649996743,None,None,252.39913649996743,None,253.19839619997074,None,,,,22052,0002,2023_Mar_27_1332,localizer,2021.1.3,59.420319147705314,
block,scenes,scenes030.bmp,,,,,0,135,135,135,,,,,,,,,,,,,,,,,,,,,,,,,,,,,,,,,,,,,,,,,,None,,253.19839619997074,None,253.19839619997074,None,2023-03-27-13:36:49.216518,253.19970040000044,253.5148927999544,253.19970040000044,253.19970040000044,None,253.19970040000044,253.19970040000044,254.01522329997388,None,,,,22052,0002,2023_Mar_27_1332,localizer,2021.1.3,59.420319147705314,
block_end,scenes,scenes006.bmp,,,,,0,136,136,136,,,,,,,,,,,,,,,,,,,,,,,,,,,,,,,,,,,,,,,,,,None,,254.01522329997388,None,254.01522329997388,None,2023-03-27-13:36:50.031564,254.0300111999968,254.33176430000458,254.0300111999968,None,None,254.0300111999968,None,254.83163419995108,None,,,,22052,0002,2023_Mar_27_1332,localizer,2021.1.3,59.420319147705314,
block_start,objects,objects003.bmp,,,,,0,137,137,137,,,,,,,,,,,,,,,,,,,,,,,,,,,,,,,,,,,,,,,,,,t,1.7729610999813303,254.83113730000332,None,254.83113730000332,None,2023-03-27-13:36:52.647159,256.6324696999509,256.93146329995943,256.6324696999509,None,None,256.6324696999509,None,257.4317898999492,None,,,,22052,0002,2023_Mar_27_1332,localizer,2021.1.3,59.420319147705314,
block,objects,objects020.bmp,,,,,0,138,138,138,,,,,,,,,,,,,,,,,,,,,,,,,,,,,,,,,,,,,,,,,,None,,257.4317898999492,None,257.4317898999492,None,2023-03-27-13:36:53.450030,257.4333015999873,257.74802939995425,257.4333015999873,257.4333015999873,None,257.4333015999873,257.4333015999873,258.24885159999246,None,,,,22052,0002,2023_Mar_27_1332,localizer,2021.1.3,59.420319147705314,
block,objects,objects028.bmp,,,,,0,139,139,139,,,,,,,,,,,,,,,,,,,,,,,,,,,,,,,,,,,,,,,,,,None,,258.24885159999246,None,258.24885159999246,None,2023-03-27-13:36:54.265986,258.24915429996327,258.548507999978,258.24915429996327,None,None,258.24915429996327,None,259.0487556999491,None,,,,22052,0002,2023_Mar_27_1332,localizer,2021.1.3,59.420319147705314,
block,objects,objects032.bmp,,,,,0,140,140,140,,,,,,,,,,,,,,,,,,,,,,,,,,,,,,,,,,,,,,,,,,None,,259.0487556999491,None,259.0487556999491,None,2023-03-27-13:36:55.067884,259.0513263999601,259.36518149997573,259.0513263999601,259.0513263999601,None,259.0513263999601,259.0513263999601,259.86494079995316,None,,,,22052,0002,2023_Mar_27_1332,localizer,2021.1.3,59.420319147705314,
block,objects,objects046.bmp,,,,,0,141,141,141,,,,,,,,,,,,,,,,,,,,,,,,,,,,,,,,,,,,,,,,,,None,,259.86494079995316,None,259.86494079995316,None,2023-03-27-13:36:55.881498,259.86570279998705,260.16499610000756,259.86570279998705,None,None,259.86570279998705,None,260.6651231999916,None,,,,22052,0002,2023_Mar_27_1332,localizer,2021.1.3,59.420319147705314,
block,objects,objects069.bmp,,,,,0,142,142,142,,,,,,,,,,,,,,,,,,,,,,,,,,,,,,,,,,,,,,,,,,None,,260.6651231999916,None,260.6651231999916,None,2023-03-27-13:36:56.683297,260.6787863000063,260.9816393000074,260.6787863000063,260.6787863000063,None,260.6787863000063,260.6787863000063,261.48176409997393,None,,,,22052,0002,2023_Mar_27_1332,localizer,2021.1.3,59.420319147705314,
block,objects,objects021.bmp,,,,,0,143,143,143,,,,,,,,,,,,,,,,,,,,,,,,,,,,,,,,,,,,,,,,,,None,,261.48176409997393,None,261.48176409997393,None,2023-03-27-13:36:57.498163,261.49364449997665,261.7984384999727,261.49364449997665,None,None,261.49364449997665,None,262.29846839997333,None,,,,22052,0002,2023_Mar_27_1332,localizer,2021.1.3,59.420319147705314,
block,objects,objects030.bmp,,,,,0,144,144,144,,,,,,,,,,,,,,,,,,,,,,,,,,,,,,,,,,,,,,,,,,None,,262.29846839997333,None,262.29846839997333,None,2023-03-27-13:36:58.314930,262.30740940000396,262.6149906999781,262.30740940000396,None,None,262.30740940000396,None,263.11521739996385,None,,,,22052,0002,2023_Mar_27_1332,localizer,2021.1.3,59.420319147705314,
block,objects,objects063.bmp,,,,,0,145,145,145,,,,,,,,,,,,,,,,,,,,,,,,,,,,,,,,,,,,,,,,,,None,,263.11521739996385,None,263.11521739996385,None,2023-03-27-13:36:59.131592,263.1158699999796,263.41501029999927,263.1158699999796,None,None,263.1158699999796,None,263.91500409995786,None,,,,22052,0002,2023_Mar_27_1332,localizer,2021.1.3,59.420319147705314,
block,objects,objects061.bmp,,,,,0,146,146,146,,,,,,,,,,,,,,,,,,,,,,,,,,,,,,,,,,,,,,,,,,None,,263.91500409995786,None,263.91500409995786,None,2023-03-27-13:36:59.933156,263.9299973999732,264.23158369999146,263.9299973999732,263.9299973999732,None,263.9299973999732,263.9299973999732,264.7318971999979,None,,,,22052,0002,2023_Mar_27_1332,localizer,2021.1.3,59.420319147705314,
block,objects,objects039.bmp,,,,,0,147,147,147,,,,,,,,,,,,,,,,,,,,,,,,,,,,,,,,,,,,,,,,,,None,,264.7318971999979,None,264.7318971999979,None,2023-03-27-13:37:00.747272,264.74038219999056,265.04802799999015,264.74038219999056,None,None,264.74038219999056,None,265.5482397999789,None,,,,22052,0002,2023_Mar_27_1332,localizer,2021.1.3,59.420319147705314,
block,objects,objects001.bmp,,,,,0,148,148,148,,,,,,,,,,,,,,,,,,,,,,,,,,,,,,,,,,,,,,,,,,None,,265.5482397999789,None,265.5482397999789,None,2023-03-27-13:37:01.564408,265.5551296999911,265.86498299997766,265.5551296999911,None,None,265.5551296999911,None,266.3652072000026,None,,,,22052,0002,2023_Mar_27_1332,localizer,2021.1.3,59.420319147705314,
block,objects,objects027.bmp,,,,,0,149,149,149,,,,,,,,,,,,,,,,,,,,,,,,,,,,,,,,,,,,,,,,,,None,,266.3652072000026,None,266.3652072000026,None,2023-03-27-13:37:02.381372,266.3657254999853,266.66486109996913,266.3657254999853,None,None,266.3657254999853,None,267.1651667999744,None,,,,22052,0002,2023_Mar_27_1332,localizer,2021.1.3,59.420319147705314,
block,objects,objects075.bmp,,,,,0,150,150,150,,,,,,,,,,,,,,,,,,,,,,,,,,,,,,,,,,,,,,,,,,None,,267.1651667999744,None,267.1651667999744,None,2023-03-27-13:37:03.182332,267.16588919999776,267.4648884999915,267.16588919999776,267.16588919999776,None,267.16588919999776,267.16588919999776,267.96516619995816,None,,,,22052,0002,2023_Mar_27_1332,localizer,2021.1.3,59.420319147705314,
block_end,objects,objects015.bmp,,,,,0,151,151,151,,,,,,,,,,,,,,,,,,,,,,,,,,,,,,,,,,,,,,,,,,None,,267.96516619995816,None,267.96516619995816,None,2023-03-27-13:37:03.983426,267.96582059998764,268.26530169998296,267.96582059998764,267.96582059998764,None,267.96582059998764,267.96582059998764,268.76559949998625,None,,,,22052,0002,2023_Mar_27_1332,localizer,2021.1.3,59.420319147705314,
null_block,null_block,null_block.bmp,,,,,0,152,152,152,,,,,,,,,,,,,,,,,,,,,,,,,,,,,,,,,,,,,,,,,,t,1.8386034999857657,268.7654736999539,None,268.7654736999539,None,2023-03-27-13:37:06.647237,270.63206489995935,None,270.63206489995935,None,None,270.63206489995935,None,270.6344587999629,None,,,,22052,0002,2023_Mar_27_1332,localizer,2021.1.3,59.420319147705314,
block_start,scrambled,scrambled023.bmp,,,,,0,153,153,153,,,,,,,,,,,,,,,,,,,,,,,,,,,,,,,,,,,,,,,,,,t,1.9552947000483982,282.64865879999707,None,282.64865879999707,None,2023-03-27-13:37:20.649469,284.64557920000516,284.9481364999665,284.64557920000516,None,None,284.64557920000516,None,285.4478729000024,None,,,,22052,0002,2023_Mar_27_1332,localizer,2021.1.3,59.420319147705314,
block,scrambled,scrambled058.bmp,,,,,0,154,154,154,,,,,,,,,,,,,,,,,,,,,,,,,,,,,,,,,,,,,,,,,,None,,285.4478729000024,None,285.4478729000024,None,2023-03-27-13:37:21.463533,285.4492801000015,285.76463599997805,285.4492801000015,None,None,285.4492801000015,None,286.264799599949,None,,,,22052,0002,2023_Mar_27_1332,localizer,2021.1.3,59.420319147705314,
block,scrambled,scrambled063.bmp,,,,,0,155,155,155,,,,,,,,,,,,,,,,,,,,,,,,,,,,,,,,,,,,,,,,,,None,,286.264799599949,None,286.264799599949,None,2023-03-27-13:37:22.279764,286.2657887999667,286.5811060999986,286.2657887999667,None,None,286.2657887999667,None,287.0813096999831,None,,,,22052,0002,2023_Mar_27_1332,localizer,2021.1.3,59.420319147705314,
block,scrambled,scrambled021.bmp,,,,,0,156,156,156,,,,,,,,,,,,,,,,,,,,,,,,,,,,,,,,,,,,,,,,,,None,,287.0813096999831,None,287.0813096999831,None,2023-03-27-13:37:23.096551,287.08252269995864,287.3823160000029,287.08252269995864,None,None,287.08252269995864,None,287.8821764999942,None,,,,22052,0002,2023_Mar_27_1332,localizer,2021.1.3,59.420319147705314,
block,scrambled,scrambled057.bmp,,,,,0,157,157,157,,,,,,,,,,,,,,,,,,,,,,,,,,,,,,,,,,,,,,,,,,None,,287.8821764999942,None,287.8821764999942,None,2023-03-27-13:37:23.899070,287.8829244999797,288.1851153000025,287.8829244999797,287.8829244999797,None,287.8829244999797,287.8829244999797,288.6984596999886,None,,,,22052,0002,2023_Mar_27_1332,localizer,2021.1.3,59.420319147705314,
block,scrambled,scrambled042.bmp,,,,,0,158,158,158,,,,,,,,,,,,,,,,,,,,,,,,,,,,,,,,,,,,,,,,,,None,,288.6984596999886,None,288.6984596999886,None,2023-03-27-13:37:24.714692,288.71063459996367,289.0150670000003,288.71063459996367,None,None,288.71063459996367,None,289.51529289997995,None,,,,22052,0002,2023_Mar_27_1332,localizer,2021.1.3,59.420319147705314,
block,scrambled,scrambled053.bmp,,,,,0,159,159,159,,,,,,,,,,,,,,,,,,,,,,,,,,,,,,,,,,,,,,,,,,None,,289.51529289997995,None,289.51529289997995,None,2023-03-27-13:37:25.531521,289.5159088000073,289.8151293999981,289.5159088000073,None,None,289.5159088000073,None,290.31664879999005,None,,,,22052,0002,2023_Mar_27_1332,localizer,2021.1.3,59.420319147705314,
block,scrambled,scrambled084.bmp,,,,,0,160,160,160,,,,,,,,,,,,,,,,,,,,,,,,,,,,,,,,,,,,,,,,,,None,,290.31664879999005,None,290.31664879999005,None,2023-03-27-13:37:26.337032,290.3349121999927,290.6483334999648,290.3349121999927,290.3349121999927,None,290.3349121999927,290.3349121999927,291.13173169998333,None,,,,22052,0002,2023_Mar_27_1332,localizer,2021.1.3,59.420319147705314,
block,scrambled,scrambled015.bmp,,,,,0,161,161,161,,,,,,,,,,,,,,,,,,,,,,,,,,,,,,,,,,,,,,,,,,None,,291.13173169998333,None,291.13173169998333,None,2023-03-27-13:37:27.147973,291.13275210000575,291.4483209999744,291.13275210000575,None,None,291.13275210000575,None,291.93215559999805,None,,,,22052,0002,2023_Mar_27_1332,localizer,2021.1.3,59.420319147705314,
block,scrambled,scrambled015.bmp,,,,,0,162,162,162,,,,,,,,,,,,,,,,,,,,,,,,,,,,,,,,,,,,,,,,,,None,,291.93215559999805,None,291.93215559999805,None,2023-03-27-13:37:27.950381,291.9346547999885,292.2485661999672,291.9346547999885,291.9346547999885,None,291.9346547999885,291.9346547999885,292.7489189999818,None,,,,22052,0002,2023_Mar_27_1332,localizer,2021.1.3,59.420319147705314,
block,scrambled,scrambled043.bmp,,,,,0,163,163,163,,,,,,,,,,,,,,,,,,,,,,,,,,,,,,,,,,,,,,,,,,None,,292.7489189999818,None,292.7489189999818,None,2023-03-27-13:37:28.765640,292.7494255999918,293.065101199958,292.7494255999918,None,y,292.7494255999918,None,293.5487744999758,None,0.18129889998817816,,,22052,0002,2023_Mar_27_1332,localizer,2021.1.3,59.420319147705314,
block,scrambled,scrambled071.bmp,,,,,0,164,164,164,,,,,,,,,,,,,,,,,,,,,,,,,,,,,,,,,,,,,,,,,,None,,293.5487744999758,None,293.5487744999758,None,2023-03-27-13:37:29.566674,293.5623798999586,293.86502339999424,293.5623798999586,293.5623798999586,None,293.5623798999586,293.5623798999586,294.36538769998003,None,,,,22052,0002,2023_Mar_27_1332,localizer,2021.1.3,59.420319147705314,
block,scrambled,scrambled011.bmp,,,,,0,165,165,165,,,,,,,,,,,,,,,,,,,,,,,,,,,,,,,,,,,,,,,,,,None,,294.36538769998003,None,294.36538769998003,None,2023-03-27-13:37:30.381633,294.377242699964,294.6816975999973,294.377242699964,None,None,294.377242699964,None,295.1820250999939,None,,,,22052,0002,2023_Mar_27_1332,localizer,2021.1.3,59.420319147705314,
block,scrambled,scrambled035.bmp,,,,,0,166,166,166,,,,,,,,,,,,,,,,,,,,,,,,,,,,,,,,,,,,,,,,,,None,,295.1820250999939,None,295.1820250999939,None,2023-03-27-13:37:31.198497,295.1941308999667,295.49848219996784,295.1941308999667,None,None,295.1941308999667,None,295.99884469999813,None,,,,22052,0002,2023_Mar_27_1332,localizer,2021.1.3,59.420319147705314,
block_end,scrambled,scrambled059.bmp,,,,,0,167,167,167,,,,,,,,,,,,,,,,,,,,,,,,,,,,,,,,,,,,,,,,,,None,,295.99884469999813,None,295.99884469999813,None,2023-03-27-13:37:32.015094,295.9994149999693,296.2985946999979,295.9994149999693,None,None,295.9994149999693,None,296.7986374999804,None,,,,22052,0002,2023_Mar_27_1332,localizer,2021.1.3,59.420319147705314,
block_start,faces,faces031.bmp,,,,,0,168,168,168,,,,,,,,,,,,,,,,,,,,,,,,,,,,,,,,,,,,,,,,,,t,1.8059471999877132,296.7981181999785,None,296.7981181999785,None,2023-03-27-13:37:34.646758,298.6330822999589,298.94859429995995,298.6330822999589,None,None,298.6330822999589,None,299.4486438999942,None,,,,22052,0002,2023_Mar_27_1332,localizer,2021.1.3,59.420319147705314,
block,faces,faces048.bmp,,,,,0,169,169,169,,,,,,,,,,,,,,,,,,,,,,,,,,,,,,,,,,,,,,,,,,None,,299.4486438999942,None,299.4486438999942,None,2023-03-27-13:37:35.465101,299.4495043999632,299.74796079995576,299.4495043999632,None,None,299.4495043999632,None,300.24916159996644,None,,,,22052,0002,2023_Mar_27_1332,localizer,2021.1.3,59.420319147705314,
block,faces,faces012.bmp,,,,,0,170,170,170,,,,,,,,,,,,,,,,,,,,,,,,,,,,,,,,,,,,,,,,,,None,,300.24916159996644,None,300.24916159996644,None,2023-03-27-13:37:36.268652,300.26554729999043,300.5652446000022,300.26554729999043,300.26554729999043,None,300.26554729999043,300.26554729999043,301.06544209999845,None,,,,22052,0002,2023_Mar_27_1332,localizer,2021.1.3,59.420319147705314,
block,faces,faces081.bmp,,,,,0,171,171,171,,,,,,,,,,,,,,,,,,,,,,,,,,,,,,,,,,,,,,,,,,None,,301.06544209999845,None,301.06544209999845,None,2023-03-27-13:37:37.081704,301.07933569996385,301.38167289999546,301.07933569996385,None,None,301.07933569996385,None,301.8818259000021,None,,,,22052,0002,2023_Mar_27_1332,localizer,2021.1.3,59.420319147705314,
block,faces,faces088.bmp,,,,,0,172,172,172,,,,,,,,,,,,,,,,,,,,,,,,,,,,,,,,,,,,,,,,,,None,,301.8818259000021,None,301.8818259000021,None,2023-03-27-13:37:37.898099,301.88341129996115,302.1982748999726,301.88341129996115,None,None,301.88341129996115,None,302.698690399999,None,,,,22052,0002,2023_Mar_27_1332,localizer,2021.1.3,59.420319147705314,
block,faces,faces052.bmp,,,,,0,173,173,173,,,,,,,,,,,,,,,,,,,,,,,,,,,,,,,,,,,,,,,,,,None,,302.698690399999,None,302.698690399999,None,2023-03-27-13:37:38.715210,302.69933059997857,302.9984679999761,302.69933059997857,None,None,302.69933059997857,None,303.4999507999804,None,,,,22052,0002,2023_Mar_27_1332,localizer,2021.1.3,59.420319147705314,
block,faces,faces073.bmp,,,,,0,174,174,174,,,,,,,,,,,,,,,,,,,,,,,,,,,,,,,,,,,,,,,,,,None,,303.4999507999804,None,303.4999507999804,None,2023-03-27-13:37:39.518190,303.50236379995476,303.8150925000082,303.50236379995476,303.50236379995476,None,303.50236379995476,303.50236379995476,304.3155614999763,None,,,,22052,0002,2023_Mar_27_1332,localizer,2021.1.3,59.420319147705314,
block,faces,faces043.bmp,,,,,0,175,175,175,,,,,,,,,,,,,,,,,,,,,,,,,,,,,,,,,,,,,,,,,,None,,304.3155614999763,None,304.3155614999763,None,2023-03-27-13:37:40.332048,304.32680379995145,304.6318621999817,304.32680379995145,None,None,304.32680379995145,None,305.1320908999827,None,,,,22052,0002,2023_Mar_27_1332,localizer,2021.1.3,59.420319147705314,
block,faces,faces032.bmp,,,,,0,176,176,176,,,,,,,,,,,,,,,,,,,,,,,,,,,,,,,,,,,,,,,,,,None,,305.1320908999827,None,305.1320908999827,None,2023-03-27-13:37:41.148368,305.1327997999615,305.4321021999931,305.1327997999615,None,None,305.1327997999615,None,305.94855189999214,None,,,,22052,0002,2023_Mar_27_1332,localizer,2021.1.3,59.420319147705314,
block,faces,faces037.bmp,,,,,0,177,177,177,,,,,,,,,,,,,,,,,,,,,,,,,,,,,,,,,,,,,,,,,,None,,305.94855189999214,None,305.94855189999214,None,2023-03-27-13:37:41.964836,305.9555735999602,306.2652621999732,305.9555735999602,None,None,305.9555735999602,None,306.76483700000097,None,,,,22052,0002,2023_Mar_27_1332,localizer,2021.1.3,59.420319147705314,
block,faces,faces083.bmp,,,,,0,178,178,178,,,,,,,,,,,,,,,,,,,,,,,,,,,,,,,,,,,,,,,,,,None,,306.76483700000097,None,306.76483700000097,None,2023-03-27-13:37:42.781159,306.77570349996677,307.08201219997136,306.77570349996677,None,None,306.77570349996677,None,307.5823108999815,None,,,,22052,0002,2023_Mar_27_1332,localizer,2021.1.3,59.420319147705314,
block,faces,faces086.bmp,,,,,0,179,179,179,,,,,,,,,,,,,,,,,,,,,,,,,,,,,,,,,,,,,,,,,,None,,307.5823108999815,None,307.5823108999815,None,2023-03-27-13:37:43.599804,307.5830216999748,307.88156839995645,307.5830216999748,None,None,307.5830216999748,None,308.38227579999364,None,,,,22052,0002,2023_Mar_27_1332,localizer,2021.1.3,59.420319147705314,
block,faces,faces064.bmp,,,,,0,180,180,180,,,,,,,,,,,,,,,,,,,,,,,,,,,,,,,,,,,,,,,,,,None,,308.38227579999364,None,308.38227579999364,None,2023-03-27-13:37:44.400551,308.3981841999921,308.698644899996,308.3981841999921,308.3981841999921,None,308.3981841999921,308.3981841999921,309.1989296999585,None,,,,22052,0002,2023_Mar_27_1332,localizer,2021.1.3,59.420319147705314,
block,faces,faces074.bmp,,,,,0,181,181,181,,,,,,,,,,,,,,,,,,,,,,,,,,,,,,,,,,,,,,,,,,None,,309.1989296999585,None,309.1989296999585,None,2023-03-27-13:37:45.215426,309.19953559996793,309.49875019997125,309.19953559996793,None,None,309.19953559996793,None,309.9986822999839,None,,,,22052,0002,2023_Mar_27_1332,localizer,2021.1.3,59.420319147705314,
block_end,faces,faces068.bmp,,,,,0,182,182,182,,,,,,,,,,,,,,,,,,,,,,,,,,,,,,,,,,,,,,,,,,None,,309.9986822999839,None,309.9986822999839,None,2023-03-27-13:37:46.015976,309.9997182999505,310.2986539999838,309.9997182999505,309.9997182999505,None,309.9997182999505,309.9997182999505,310.80539159995385,None,,,,22052,0002,2023_Mar_27_1332,localizer,2021.1.3,59.420319147705314,
block_start,scrambled,scrambled030.bmp,,,,,0,183,183,183,,,,,,,,,,,,,,,,,,,,,,,,,,,,,,,,,,,,,,,,,,t,1.8032901999540627,310.80083589995047,None,310.80083589995047,None,2023-03-27-13:37:48.648297,312.6328267999925,312.9318535999628,312.6328267999925,None,None,312.6328267999925,None,313.4323572999623,None,,,,22052,0002,2023_Mar_27_1332,localizer,2021.1.3,59.420319147705314,
block,scrambled,scrambled005.bmp,,,,,0,184,184,184,,,,,,,,,,,,,,,,,,,,,,,,,,,,,,,,,,,,,,,,,,None,,313.4323572999623,None,313.4323572999623,None,2023-03-27-13:37:49.450647,313.44667449995177,313.74855899997056,313.44667449995177,313.44667449995177,None,313.44667449995177,313.44667449995177,314.24873129994955,None,,,,22052,0002,2023_Mar_27_1332,localizer,2021.1.3,59.420319147705314,
block,scrambled,scrambled078.bmp,,,,,0,185,185,185,,,,,,,,,,,,,,,,,,,,,,,,,,,,,,,,,,,,,,,,,,None,,314.24873129994955,None,314.24873129994955,None,2023-03-27-13:37:50.265043,314.24984149995726,314.565232199966,314.24984149995726,None,None,314.24984149995726,None,315.04954779998513,None,,,,22052,0002,2023_Mar_27_1332,localizer,2021.1.3,59.420319147705314,
block,scrambled,scrambled040.bmp,,,,,0,186,186,186,,,,,,,,,,,,,,,,,,,,,,,,,,,,,,,,,,,,,,,,,,None,,315.04954779998513,None,315.04954779998513,None,2023-03-27-13:37:51.068911,315.0609362999676,315.36521610000636,315.0609362999676,315.0609362999676,None,315.0609362999676,315.0609362999676,315.86521149997714,None,,,,22052,0002,2023_Mar_27_1332,localizer,2021.1.3,59.420319147705314,
block,scrambled,scrambled033.bmp,,,,,0,187,187,187,,,,,,,,,,,,,,,,,,,,,,,,,,,,,,,,,,,,,,,,,,None,,315.86521149997714,None,315.86521149997714,None,2023-03-27-13:37:51.881522,315.8661144999787,316.1651529999799,315.8661144999787,None,None,315.8661144999787,None,316.66580799996734,None,,,,22052,0002,2023_Mar_27_1332,localizer,2021.1.3,59.420319147705314,
block,scrambled,scrambled023.bmp,,,,,0,188,188,188,,,,,,,,,,,,,,,,,,,,,,,,,,,,,,,,,,,,,,,,,,None,,316.66580799996734,None,316.66580799996734,None,2023-03-27-13:37:52.684226,316.6678432999761,316.9819535999559,316.6678432999761,316.6678432999761,None,316.6678432999761,316.6678432999761,317.48231699999303,None,,,,22052,0002,2023_Mar_27_1332,localizer,2021.1.3,59.420319147705314,
block,scrambled,scrambled031.bmp,,,,,0,189,189,189,,,,,,,,,,,,,,,,,,,,,,,,,,,,,,,,,,,,,,,,,,None,,317.48231699999303,None,317.48231699999303,None,2023-03-27-13:37:53.498851,317.4829390999512,317.7984627999831,317.4829390999512,None,None,317.4829390999512,None,318.28714469995464,None,,,,22052,0002,2023_Mar_27_1332,localizer,2021.1.3,59.420319147705314,
block,scrambled,scrambled063.bmp,,,,,0,190,190,190,,,,,,,,,,,,,,,,,,,,,,,,,,,,,,,,,,,,,,,,,,None,,318.28714469995464,None,318.28714469995464,None,2023-03-27-13:37:54.308592,318.29361539997626,318.59914869995555,318.29361539997626,None,None,318.29361539997626,None,319.0987312999845,None,,,,22052,0002,2023_Mar_27_1332,localizer,2021.1.3,59.420319147705314,
block,scrambled,scrambled053.bmp,,,,,0,191,191,191,,,,,,,,,,,,,,,,,,,,,,,,,,,,,,,,,,,,,,,,,,None,,319.0987312999845,None,319.0987312999845,None,2023-03-27-13:37:55.115045,319.0994522999972,319.39852319995407,319.0994522999972,None,None,319.0994522999972,None,319.8989975999633,None,,,,22052,0002,2023_Mar_27_1332,localizer,2021.1.3,59.420319147705314,
block,scrambled,scrambled025.bmp,,,,,0,192,192,192,,,,,,,,,,,,,,,,,,,,,,,,,,,,,,,,,,,,,,,,,,None,,319.8989975999633,None,319.8989975999633,None,2023-03-27-13:37:55.917313,319.9004643999506,320.2150956999976,319.9004643999506,319.9004643999506,None,319.9004643999506,319.9004643999506,320.6999700999644,None,,,,22052,0002,2023_Mar_27_1332,localizer,2021.1.3,59.420319147705314,
block,scrambled,scrambled011.bmp,,,,,0,193,193,193,,,,,,,,,,,,,,,,,,,,,,,,,,,,,,,,,,,,,,,,,,None,,320.6999700999644,None,320.6999700999644,None,2023-03-27-13:37:56.720998,320.7048423999804,321.0153302999679,320.7048423999804,320.7048423999804,None,320.7048423999804,320.7048423999804,321.5158450999937,None,,,,22052,0002,2023_Mar_27_1332,localizer,2021.1.3,59.420319147705314,
block,scrambled,scrambled055.bmp,,,,,0,194,194,194,,,,,,,,,,,,,,,,,,,,,,,,,,,,,,,,,,,,,,,,,,None,,321.5158450999937,None,321.5158450999937,None,2023-03-27-13:37:57.533160,321.5164349999977,321.83186299999943,321.5164349999977,None,None,321.5164349999977,None,322.315457199997,None,,,,22052,0002,2023_Mar_27_1332,localizer,2021.1.3,59.420319147705314,
block,scrambled,scrambled007.bmp,,,,,0,195,195,195,,,,,,,,,,,,,,,,,,,,,,,,,,,,,,,,,,,,,,,,,,None,,322.315457199997,None,322.315457199997,None,2023-03-27-13:37:58.332782,322.31622449995484,322.61561869998695,322.31622449995484,322.31622449995484,None,322.31622449995484,322.31622449995484,323.1156087999756,None,,,,22052,0002,2023_Mar_27_1332,localizer,2021.1.3,59.420319147705314,
block,scrambled,scrambled032.bmp,,,,,0,196,196,196,,,,,,,,,,,,,,,,,,,,,,,,,,,,,,,,,,,,,,,,,,None,,323.1156087999756,None,323.1156087999756,None,2023-03-27-13:37:59.133930,323.11845169996377,323.4320762999705,323.11845169996377,323.11845169996377,None,323.11845169996377,323.11845169996377,323.9323593999783,None,,,,22052,0002,2023_Mar_27_1332,localizer,2021.1.3,59.420319147705314,
block_end,scrambled,scrambled021.bmp,,,,,0,197,197,197,,,,,,,,,,,,,,,,,,,,,,,,,,,,,,,,,,,,,,,,,,None,,323.9323593999783,None,323.9323593999783,None,2023-03-27-13:37:59.948907,323.93300039996393,324.23171849997016,323.93300039996393,None,None,323.93300039996393,None,324.732452099974,None,,,,22052,0002,2023_Mar_27_1332,localizer,2021.1.3,59.420319147705314,
block_start,scenes,scenes007.bmp,,,,,0,198,198,198,,,,,,,,,,,,,,,,,,,,,,,,,,,,,,,,,,,,,,,,,,t,1.8720562999951653,324.7320308999624,None,324.7320308999624,None,2023-03-27-13:38:02.647751,326.63300609996077,326.94860589999007,326.63300609996077,None,None,326.63300609996077,None,327.44876429997964,None,,,,22052,0002,2023_Mar_27_1332,localizer,2021.1.3,59.420319147705314,
block,scenes,scenes044.bmp,,,,,0,199,199,199,,,,,,,,,,,,,,,,,,,,,,,,,,,,,,,,,,,,,,,,,,None,,327.44876429997964,None,327.44876429997964,None,2023-03-27-13:38:03.465108,327.4496650999645,327.74830370000564,327.4496650999645,None,None,327.4496650999645,None,328.24919049995367,None,,,,22052,0002,2023_Mar_27_1332,localizer,2021.1.3,59.420319147705314,
block,scenes,scenes013.bmp,,,,,0,200,200,200,,,,,,,,,,,,,,,,,,,,,,,,,,,,,,,,,,,,,,,,,,None,,328.24919049995367,None,328.24919049995367,None,2023-03-27-13:38:04.267733,328.265173199994,328.565180399979,328.265173199994,328.265173199994,None,328.265173199994,328.265173199994,329.06552999996927,None,,,,22052,0002,2023_Mar_27_1332,localizer,2021.1.3,59.420319147705314,
block,scenes,scenes013.bmp,,,,,0,201,201,201,,,,,,,,,,,,,,,,,,,,,,,,,,,,,,,,,,,,,,,,,,None,,329.06552999996927,None,329.06552999996927,None,2023-03-27-13:38:05.081877,329.0663793999702,329.3653654999798,329.0663793999702,None,y,329.0663793999702,None,329.8657072999689,None,0.7184840999543667,,,22052,0002,2023_Mar_27_1332,localizer,2021.1.3,59.420319147705314,
block,scenes,scenes060.bmp,,,,,0,202,202,202,,,,,,,,,,,,,,,,,,,,,,,,,,,,,,,,,,,,,,,,,,None,,329.8657072999689,None,329.8657072999689,None,2023-03-27-13:38:05.884048,329.86848229996394,330.1822425999562,329.86848229996394,329.86848229996394,None,329.86848229996394,329.86848229996394,330.68354959996066,None,,,,22052,0002,2023_Mar_27_1332,localizer,2021.1.3,59.420319147705314,
block,scenes,scenes063.bmp,,,,,0,203,203,203,,,,,,,,,,,,,,,,,,,,,,,,,,,,,,,,,,,,,,,,,,None,,330.68354959996066,None,330.68354959996066,None,2023-03-27-13:38:06.701876,330.69634729996324,330.9990103999735,330.69634729996324,None,None,330.69634729996324,None,331.4998393000045,None,,,,22052,0002,2023_Mar_27_1332,localizer,2021.1.3,59.420319147705314,
block,scenes,scenes055.bmp,,,,,0,204,204,204,,,,,,,,,,,,,,,,,,,,,,,,,,,,,,,,,,,,,,,,,,None,,331.4998393000045,None,331.4998393000045,None,2023-03-27-13:38:07.517373,331.50194309995277,331.79897259996505,331.50194309995277,None,None,331.50194309995277,None,332.3160072999948,None,,,,22052,0002,2023_Mar_27_1332,localizer,2021.1.3,59.420319147705314,
block,scenes,scenes076.bmp,,,,,0,205,205,205,,,,,,,,,,,,,,,,,,,,,,,,,,,,,,,,,,,,,,,,,,None,,332.3160072999948,None,332.3160072999948,None,2023-03-27-13:38:08.332469,332.3167009999743,332.61567999998806,332.3167009999743,None,None,332.3167009999743,None,333.13226799999245,None,,,,22052,0002,2023_Mar_27_1332,localizer,2021.1.3,59.420319147705314,
block,scenes,scenes029.bmp,,,,,0,206,206,206,,,,,,,,,,,,,,,,,,,,,,,,,,,,,,,,,,,,,,,,,,None,,333.13226799999245,None,333.13226799999245,None,2023-03-27-13:38:09.148626,333.14459989999887,333.4489547999692,333.14459989999887,None,None,333.14459989999887,None,333.9491242999851,None,,,,22052,0002,2023_Mar_27_1332,localizer,2021.1.3,59.420319147705314,
block,scenes,scenes026.bmp,,,,,0,207,207,207,,,,,,,,,,,,,,,,,,,,,,,,,,,,,,,,,,,,,,,,,,None,,333.9491242999851,None,333.9491242999851,None,2023-03-27-13:38:09.965699,333.96305479999864,334.2655656999559,333.96305479999864,None,None,333.96305479999864,None,334.7693063999817,None,,,,22052,0002,2023_Mar_27_1332,localizer,2021.1.3,59.420319147705314,
block,scenes,scenes048.bmp,,,,,0,208,208,208,,,,,,,,,,,,,,,,,,,,,,,,,,,,,,,,,,,,,,,,,,None,,334.7693063999817,None,334.7693063999817,None,2023-03-27-13:38:10.792927,334.7931583999889,335.0988939999952,334.7931583999889,None,None,334.7931583999889,None,335.5821719999716,None,,,,22052,0002,2023_Mar_27_1332,localizer,2021.1.3,59.420319147705314,
block,scenes,scenes037.bmp,,,,,0,209,209,209,,,,,,,,,,,,,,,,,,,,,,,,,,,,,,,,,,,,,,,,,,None,,335.5821719999716,None,335.5821719999716,None,2023-03-27-13:38:11.598543,335.58307199995033,335.8984932999592,335.58307199995033,None,None,335.58307199995033,None,336.3821642999595,None,,,,22052,0002,2023_Mar_27_1332,localizer,2021.1.3,59.420319147705314,
block,scenes,scenes073.bmp,,,,,0,210,210,210,,,,,,,,,,,,,,,,,,,,,,,,,,,,,,,,,,,,,,,,,,None,,336.3821642999595,None,336.3821642999595,None,2023-03-27-13:38:12.399918,336.39710929995636,336.6989271999919,336.39710929995636,336.39710929995636,None,336.39710929995636,336.39710929995636,337.19906979997756,None,,,,22052,0002,2023_Mar_27_1332,localizer,2021.1.3,59.420319147705314,
block,scenes,scenes016.bmp,,,,,0,211,211,211,,,,,,,,,,,,,,,,,,,,,,,,,,,,,,,,,,,,,,,,,,None,,337.19906979997756,None,337.19906979997756,None,2023-03-27-13:38:13.214655,337.20036479999544,337.51537310000276,337.20036479999544,None,None,337.20036479999544,None,338.0003460999636,None,,,,22052,0002,2023_Mar_27_1332,localizer,2021.1.3,59.420319147705314,
block_end,scenes,scenes075.bmp,,,,,0,212,212,212,,,,,,,,,,,,,,,,,,,,,,,,,,,,,,,,,,,,,,,,,,None,,338.0003460999636,None,338.0003460999636,None,2023-03-27-13:38:14.022684,338.00655629998073,338.3159684999846,338.00655629998073,338.00655629998073,None,338.00655629998073,338.00655629998073,338.8183313999965,None,,,,22052,0002,2023_Mar_27_1332,localizer,2021.1.3,59.420319147705314,
block_start,objects,objects032.bmp,,,,,0,213,213,213,,,,,,,,,,,,,,,,,,,,,,,,,,,,,,,,,,,,,,,,,,t,1.786732500011567,338.81733699998586,None,338.81733699998586,None,2023-03-27-13:38:16.649004,340.6331612999784,340.9488301999518,340.6331612999784,None,None,340.6331612999784,None,341.4325021999597,None,,,,22052,0002,2023_Mar_27_1332,localizer,2021.1.3,59.420319147705314,
block,objects,objects076.bmp,,,,,0,214,214,214,,,,,,,,,,,,,,,,,,,,,,,,,,,,,,,,,,,,,,,,,,None,,341.4325021999597,None,341.4325021999597,None,2023-03-27-13:38:17.451063,341.4351994000026,341.7487470000051,341.4351994000026,341.4351994000026,None,341.4351994000026,341.4351994000026,342.24864459998787,None,,,,22052,0002,2023_Mar_27_1332,localizer,2021.1.3,59.420319147705314,
block,objects,objects086.bmp,,,,,0,215,215,215,,,,,,,,,,,,,,,,,,,,,,,,,,,,,,,,,,,,,,,,,,None,,342.24864459998787,None,342.24864459998787,None,2023-03-27-13:38:18.265034,342.2499262999627,342.54883909999626,342.2499262999627,None,None,342.2499262999627,None,343.04913969996267,None,,,,22052,0002,2023_Mar_27_1332,localizer,2021.1.3,59.420319147705314,
block,objects,objects010.bmp,,,,,0,216,216,216,,,,,,,,,,,,,,,,,,,,,,,,,,,,,,,,,,,,,,,,,,None,,343.04913969996267,None,343.04913969996267,None,2023-03-27-13:38:19.066521,343.04974230000516,343.3489343999536,343.04974230000516,343.04974230000516,None,343.04974230000516,343.04974230000516,343.85023769998804,None,,,,22052,0002,2023_Mar_27_1332,localizer,2021.1.3,59.420319147705314,
block,objects,objects049.bmp,,,,,0,217,217,217,,,,,,,,,,,,,,,,,,,,,,,,,,,,,,,,,,,,,,,,,,None,,343.85023769998804,None,343.85023769998804,None,2023-03-27-13:38:19.870786,343.8541769000003,344.1653554000077,343.8541769000003,343.8541769000003,None,343.8541769000003,343.8541769000003,344.6657413999841,None,,,,22052,0002,2023_Mar_27_1332,localizer,2021.1.3,59.420319147705314,
block,objects,objects001.bmp,,,,,0,218,218,218,,,,,,,,,,,,,,,,,,,,,,,,,,,,,,,,,,,,,,,,,,None,,344.6657413999841,None,344.6657413999841,None,2023-03-27-13:38:20.682127,344.66623229999095,344.96551989996806,344.66623229999095,None,None,344.66623229999095,None,345.46594989998846,None,,,,22052,0002,2023_Mar_27_1332,localizer,2021.1.3,59.420319147705314,
block,objects,objects083.bmp,,,,,0,219,219,219,,,,,,,,,,,,,,,,,,,,,,,,,,,,,,,,,,,,,,,,,,None,,345.46594989998846,None,345.46594989998846,None,2023-03-27-13:38:21.485527,345.48174649995053,345.7819218999939,345.48174649995053,345.48174649995053,None,345.48174649995053,345.48174649995053,346.2826129999652,None,,,,22052,0002,2023_Mar_27_1332,localizer,2021.1.3,59.420319147705314,
block,objects,objects087.bmp,,,,,0,220,220,220,,,,,,,,,,,,,,,,,,,,,,,,,,,,,,,,,,,,,,,,,,None,,346.2826129999652,None,346.2826129999652,None,2023-03-27-13:38:22.299262,346.29420299996855,346.5988841999788,346.29420299996855,None,None,346.29420299996855,None,347.0992550999566,None,,,,22052,0002,2023_Mar_27_1332,localizer,2021.1.3,59.420319147705314,
block,objects,objects045.bmp,,,,,0,221,221,221,,,,,,,,,,,,,,,,,,,,,,,,,,,,,,,,,,,,,,,,,,None,,347.0992550999566,None,347.0992550999566,None,2023-03-27-13:38:23.115838,347.11195509997196,347.4157666999963,347.11195509997196,None,None,347.11195509997196,None,347.91611870000486,None,,,,22052,0002,2023_Mar_27_1332,localizer,2021.1.3,59.420319147705314,
block,objects,objects070.bmp,,,,,0,222,222,222,,,,,,,,,,,,,,,,,,,,,,,,,,,,,,,,,,,,,,,,,,None,,347.91611870000486,None,347.91611870000486,None,2023-03-27-13:38:23.933717,347.91654249996645,348.21583119995194,347.91654249996645,None,None,347.91654249996645,None,348.7157681000011,None,,,,22052,0002,2023_Mar_27_1332,localizer,2021.1.3,59.420319147705314,
block,objects,objects003.bmp,,,,,0,223,223,223,,,,,,,,,,,,,,,,,,,,,,,,,,,,,,,,,,,,,,,,,,None,,348.7157681000011,None,348.7157681000011,None,2023-03-27-13:38:24.733169,348.7164834999712,349.01594279997516,348.7164834999712,348.7164834999712,None,348.7164834999712,348.7164834999712,349.5160389999568,None,,,,22052,0002,2023_Mar_27_1332,localizer,2021.1.3,59.420319147705314,
block,objects,objects077.bmp,,,,,0,224,224,224,,,,,,,,,,,,,,,,,,,,,,,,,,,,,,,,,,,,,,,,,,None,,349.5160389999568,None,349.5160389999568,None,2023-03-27-13:38:25.535636,349.51862839999376,349.83262379997177,349.51862839999376,349.51862839999376,None,349.51862839999376,349.51862839999376,350.33286269999223,None,,,,22052,0002,2023_Mar_27_1332,localizer,2021.1.3,59.420319147705314,
block,objects,objects033.bmp,,,,,0,225,225,225,,,,,,,,,,,,,,,,,,,,,,,,,,,,,,,,,,,,,,,,,,None,,350.33286269999223,None,350.33286269999223,None,2023-03-27-13:38:26.350262,350.3332070999895,350.63258129998576,350.3332070999895,None,None,350.3332070999895,None,351.13307009998823,None,,,,22052,0002,2023_Mar_27_1332,localizer,2021.1.3,59.420319147705314,
block,objects,objects015.bmp,,,,,0,226,226,226,,,,,,,,,,,,,,,,,,,,,,,,,,,,,,,,,,,,,,,,,,None,,351.13307009998823,None,351.13307009998823,None,2023-03-27-13:38:27.152658,351.13622549996944,351.44873169995844,351.13622549996944,351.13622549996944,None,351.13622549996944,351.13622549996944,351.9490445999603,None,,,,22052,0002,2023_Mar_27_1332,localizer,2021.1.3,59.420319147705314,
block_end,objects,objects043.bmp,,,,,0,227,227,227,,,,,,,,,,,,,,,,,,,,,,,,,,,,,,,,,,,,,,,,,,None,,351.9490445999603,None,351.9490445999603,None,2023-03-27-13:38:27.965672,351.9611134000006,352.26559799996903,351.9611134000006,None,None,351.9611134000006,None,352.7556490000046,None,,,,22052,0002,2023_Mar_27_1332,localizer,2021.1.3,59.420319147705314,
null_block,null_block,null_block.bmp,,,,,0,228,228,228,,,,,,,,,,,,,,,,,,,,,,,,,,,,,,,,,,,,,,,,,,t,1.8491758999880403,352.75478269997984,None,352.75478269997984,None,2023-03-27-13:38:30.649104,354.6326757999544,None,354.6326757999544,None,None,354.6326757999544,None,354.6360161000048,None,,,,22052,0002,2023_Mar_27_1332,localizer,2021.1.3,59.420319147705314,
block_start,faces,faces008.bmp,,,,,0,229,229,229,,,,,,,,,,,,,,,,,,,,,,,,,,,,,,,,,,,,,,,,,,t,1.9546768000000156,366.6493769999943,None,366.6493769999943,None,2023-03-27-13:38:44.653393,368.63642080000136,368.94902639999054,368.63642080000136,None,None,368.63642080000136,None,369.4495249999512,None,,,,22052,0002,2023_Mar_27_1332,localizer,2021.1.3,59.420319147705314,
block,faces,faces045.bmp,,,,,0,230,230,230,,,,,,,,,,,,,,,,,,,,,,,,,,,,,,,,,,,,,,,,,,None,,369.4495249999512,None,369.4495249999512,None,2023-03-27-13:38:45.466184,369.4500451000058,369.74878879997414,369.4500451000058,None,None,369.4500451000058,None,370.2492258999904,None,,,,22052,0002,2023_Mar_27_1332,localizer,2021.1.3,59.420319147705314,
block,faces,faces011.bmp,,,,,0,231,231,231,,,,,,,,,,,,,,,,,,,,,,,,,,,,,,,,,,,,,,,,,,None,,370.2492258999904,None,370.2492258999904,None,2023-03-27-13:38:46.267692,370.2505321999779,370.56581159995403,370.2505321999779,370.2505321999779,None,370.2505321999779,370.2505321999779,371.06610619999117,None,,,,22052,0002,2023_Mar_27_1332,localizer,2021.1.3,59.420319147705314,
block,faces,faces013.bmp,,,,,0,232,232,232,,,,,,,,,,,,,,,,,,,,,,,,,,,,,,,,,,,,,,,,,,None,,371.06610619999117,None,371.06610619999117,None,2023-03-27-13:38:47.082786,371.0666157999658,371.36583579995204,371.0666157999658,None,None,371.0666157999658,None,371.8667923999659,None,,,,22052,0002,2023_Mar_27_1332,localizer,2021.1.3,59.420319147705314,
block,faces,faces050.bmp,,,,,0,233,233,233,,,,,,,,,,,,,,,,,,,,,,,,,,,,,,,,,,,,,,,,,,None,,371.8667923999659,None,371.8667923999659,None,2023-03-27-13:38:47.886394,371.8712314000004,372.18327459995635,371.8712314000004,371.8712314000004,None,371.8712314000004,371.8712314000004,372.6836296999885,None,,,,22052,0002,2023_Mar_27_1332,localizer,2021.1.3,59.420319147705314,
block,faces,faces080.bmp,,,,,0,234,234,234,,,,,,,,,,,,,,,,,,,,,,,,,,,,,,,,,,,,,,,,,,None,,372.6836296999885,None,372.6836296999885,None,2023-03-27-13:38:48.702287,372.6888539000065,372.9989673999953,372.6888539000065,None,None,372.6888539000065,None,373.5004069999617,None,,,,22052,0002,2023_Mar_27_1332,localizer,2021.1.3,59.420319147705314,
block,faces,faces029.bmp,,,,,0,235,235,235,,,,,,,,,,,,,,,,,,,,,,,,,,,,,,,,,,,,,,,,,,None,,373.5004069999617,None,373.5004069999617,None,2023-03-27-13:38:49.518859,373.5183721999638,373.83236539998325,373.5183721999638,None,None,373.5183721999638,None,374.31617739995124,None,,,,22052,0002,2023_Mar_27_1332,localizer,2021.1.3,59.420319147705314,
block,faces,faces085.bmp,,,,,0,236,236,236,,,,,,,,,,,,,,,,,,,,,,,,,,,,,,,,,,,,,,,,,,None,,374.31617739995124,None,374.31617739995124,None,2023-03-27-13:38:50.333851,374.31717170000775,374.6321902999771,374.31717170000775,None,None,374.31717170000775,None,375.1324593999947,None,,,,22052,0002,2023_Mar_27_1332,localizer,2021.1.3,59.420319147705314,
block,faces,faces002.bmp,,,,,0,237,237,237,,,,,,,,,,,,,,,,,,,,,,,,,,,,,,,,,,,,,,,,,,None,,375.1324593999947,None,375.1324593999947,None,2023-03-27-13:38:51.148942,375.1337017999613,375.4490065999562,375.1337017999613,None,None,375.1337017999613,None,375.9488580999954,None,,,,22052,0002,2023_Mar_27_1332,localizer,2021.1.3,59.420319147705314,
block,faces,faces074.bmp,,,,,0,238,238,238,,,,,,,,,,,,,,,,,,,,,,,,,,,,,,,,,,,,,,,,,,None,,375.9488580999954,None,375.9488580999954,None,2023-03-27-13:38:51.965347,375.9505086999852,376.2659840999986,375.9505086999852,None,None,375.9505086999852,None,376.7719494999677,None,,,,22052,0002,2023_Mar_27_1332,localizer,2021.1.3,59.420319147705314,
block,faces,faces048.bmp,,,,,0,239,239,239,,,,,,,,,,,,,,,,,,,,,,,,,,,,,,,,,,,,,,,,,,None,,376.7719494999677,None,376.7719494999677,None,2023-03-27-13:38:52.788438,376.7762487999862,377.0827145999647,376.7762487999862,None,None,376.7762487999862,None,377.5826572999998,None,,,,22052,0002,2023_Mar_27_1332,localizer,2021.1.3,59.420319147705314,
block,faces,faces084.bmp,,,,,0,240,240,240,,,,,,,,,,,,,,,,,,,,,,,,,,,,,,,,,,,,,,,,,,None,,377.5826572999998,None,377.5826572999998,None,2023-03-27-13:38:53.599125,377.59477619995596,377.89932949998183,377.59477619995596,None,None,377.59477619995596,None,378.4030536999984,None,,,,22052,0002,2023_Mar_27_1332,localizer,2021.1.3,59.420319147705314,
block,faces,faces025.bmp,,,,,0,241,241,241,,,,,,,,,,,,,,,,,,,,,,,,,,,,,,,,,,,,,,,,,,None,,378.4030536999984,None,378.4030536999984,None,2023-03-27-13:38:54.425545,378.41053079999983,378.7160411999794,378.41053079999983,None,None,378.41053079999983,None,379.21581559995536,None,,,,22052,0002,2023_Mar_27_1332,localizer,2021.1.3,59.420319147705314,
block,faces,faces038.bmp,,,,,0,242,242,242,,,,,,,,,,,,,,,,,,,,,,,,,,,,,,,,,,,,,,,,,,None,,379.21581559995536,None,379.21581559995536,None,2023-03-27-13:38:55.232265,379.21671139996033,379.5323975000065,379.21671139996033,None,None,379.21671139996033,None,380.01666669996337,None,,,,22052,0002,2023_Mar_27_1332,localizer,2021.1.3,59.420319147705314,
block_end,faces,faces069.bmp,,,,,0,243,243,243,,,,,,,,,,,,,,,,,,,,,,,,,,,,,,,,,,,,,,,,,,None,,380.01666669996337,None,380.01666669996337,None,2023-03-27-13:38:56.036334,380.01976349996403,380.3331545999972,380.01976349996403,380.01976349996403,None,380.01976349996403,380.01976349996403,380.81892969995386,None,,,,22052,0002,2023_Mar_27_1332,localizer,2021.1.3,59.420319147705314,
,,,,,,,,,,,,,,,,,,,,,,,,,,,,,,,,,,,,,,,,,,,,,,,,,,,,,,,,,,,,,,,,,,,,,380.8165016999701,None,,,,,,,
