block_type,condition,img_name,Button.thisRepN,Button.thisTrialN,Button.thisN,Button.thisIndex,trials.thisRepN,trials.thisTrialN,trials.thisN,trials.thisIndex,Ready_experimenter_text.started,Ready_experimenter_text.stopped,Ready_experimenter_resp.keys,Ready_experimenter_resp.rt,Ready_experimenter_resp.started,Ready_experimenter_resp.stopped,Alignment_background.started,Alignment_background.stopped,Alignment_image.started,Alignment_image.stopped,Alignment_resp.keys,Alignment_resp.rt,Alignment_resp.started,Alignment_resp.stopped,Button_text.started,Button_text.stopped,Index_text.started,Index_text.stopped,Index_resp.keys,Index_resp.rt,Index_resp.started,Index_resp.stopped,Middle_text.started,Middle_text.stopped,Middle_resp.keys,Middle_resp.rt,Middle_resp.started,Middle_resp.stopped,Repeat_text.started,Repeat_text.stopped,Repeat_resp.keys,Repeat_resp.corr,Repeat_resp.rt,Repeat_resp.started,Repeat_resp.stopped,instruction_text.started,instruction_text.stopped,key_resp.keys,key_resp.rt,key_resp.started,key_resp.stopped,scanner_t.keys,scanner_t.rt,scanner_t.started,scanner_t.stopped,fixation_wait_for_t.started,fixation_wait_for_t.stopped,real_timestamp_trial_start,image.started,image.stopped,fixation.started,fixation.stopped,repeat_response.keys,repeat_response.started,repeat_response.stopped,fixation_null.started,fixation_null.stopped,repeat_response.rt,end_text.started,end_text.stopped,participant,run,date,expName,psychopyVersion,frameRate,
,,,,,,,,,,,11.46272370009683,None,return,63.32205779990181,11.46272370009683,None,,,,,,,,,,,,,,,,,,,,,,,,,,,,,,,,,,,,,,,,,,,,,,,,,,,,,,,12016,0001,2022_May_18_1807,localizer,2021.1.3,59.10993440968605,
,,,,,,,,,,,,,,,,,74.83606230001897,None,74.83606230001897,None,return,5.403775200014934,74.83606230001897,None,,,,,,,,,,,,,,,,,,,,,,,,,,,,,,,,,,,,,,,,,,,,,,,12016,0001,2022_May_18_1807,localizer,2021.1.3,59.10993440968605,
,,,0,0,0,0,,,,,,,,,,,,,,,,,,,80.2602870000992,None,81.28200750006363,None,y,3.1478750000242144,81.28200750006363,None,84.45960909989662,None,b,1.6322750998660922,84.45960909989662,None,86.10989640001208,None,n,0,1.6673018001019955,86.10989640001208,None,,,,,,,,,,,,,,,,,,,,,,,,,,12016,0001,2022_May_18_1807,localizer,2021.1.3,59.10993440968605,
,,,,,,,,,,,,,,,,,,,,,,,,,,,,,,,,,,,,,,,,,,,,,,87.8088676999323,None,y,47.071138199884444,87.8088676999323,None,,,,,,,,,,,,,,,,,,,,12016,0001,2022_May_18_1807,localizer,2021.1.3,59.10993440968605,
block_start,scenes,scenes069.bmp,,,,,0,0,0,0,,,,,,,,,,,,,,,,,,,,,,,,,,,,,,,,,,,,,,,,,,t,16.887330400059,134.97761170007288,None,134.97761170007288,None,2022-05-18-18:09:25.479446,151.90684719989076,152.20979269989766,151.90684719989076,None,None,151.90684719989076,None,152.70982984004075,None,,,,12016,0001,2022_May_18_1807,localizer,2021.1.3,59.10993440968605,
block,scenes,scenes065.bmp,,,,,0,1,1,1,,,,,,,,,,,,,,,,,,,,,,,,,,,,,,,,,,,,,,,,,,None,,152.70982984004075,None,152.70982984004075,None,2022-05-18-18:09:26.298065,152.72489519999363,153.0268302001059,152.72489519999363,None,None,152.72489519999363,None,153.52631903991568,None,,,,12016,0001,2022_May_18_1807,localizer,2021.1.3,59.10993440968605,
block,scenes,scenes059.bmp,,,,,0,2,2,2,,,,,,,,,,,,,,,,,,,,,,,,,,,,,,,,,,,,,,,,,,None,,153.52631903991568,None,153.52631903991568,None,2022-05-18-18:09:27.112844,153.53765440010466,153.84281149995513,153.53765440010466,None,None,153.53765440010466,None,154.34310314005705,None,,,,12016,0001,2022_May_18_1807,localizer,2021.1.3,59.10993440968605,
block,scenes,scenes049.bmp,,,,,0,3,3,3,,,,,,,,,,,,,,,,,,,,,,,,,,,,,,,,,,,,,,,,,,None,,154.34310314005705,None,154.34310314005705,None,2022-05-18-18:09:27.929164,154.3543384000659,154.65955360000953,154.3543384000659,None,None,154.3543384000659,None,155.1592166399816,None,,,,12016,0001,2022_May_18_1807,localizer,2021.1.3,59.10993440968605,
block,scenes,scenes062.bmp,,,,,0,4,4,4,,,,,,,,,,,,,,,,,,,,,,,,,,,,,,,,,,,,,,,,,,None,,155.1592166399816,None,155.1592166399816,None,2022-05-18-18:09:28.745702,155.16939390008338,155.4765502999071,155.16939390008338,None,None,155.16939390008338,None,155.976267140056,None,,,,12016,0001,2022_May_18_1807,localizer,2021.1.3,59.10993440968605,
block,scenes,scenes054.bmp,,,,,0,5,5,5,,,,,,,,,,,,,,,,,,,,,,,,,,,,,,,,,,,,,,,,,,None,,155.976267140056,None,155.976267140056,None,2022-05-18-18:09:29.562460,155.98760530003347,156.2932237999048,155.98760530003347,None,None,155.98760530003347,None,156.79317134006413,None,,,,12016,0001,2022_May_18_1807,localizer,2021.1.3,59.10993440968605,
block,scenes,scenes084.bmp,,,,,0,6,6,6,,,,,,,,,,,,,,,,,,,,,,,,,,,,,,,,,,,,,,,,,,None,,156.79317134006413,None,156.79317134006413,None,2022-05-18-18:09:30.380341,156.80440449994057,157.10976290004328,156.80440449994057,None,None,156.80440449994057,None,157.6091085399268,None,,,,12016,0001,2022_May_18_1807,localizer,2021.1.3,59.10993440968605,
block,scenes,scenes061.bmp,,,,,0,7,7,7,,,,,,,,,,,,,,,,,,,,,,,,,,,,,,,,,,,,,,,,,,None,,157.6091085399268,None,157.6091085399268,None,2022-05-18-18:09:31.194294,157.61848730011843,157.92688350006938,157.61848730011843,None,None,157.61848730011843,None,158.42664683999027,None,,,,12016,0001,2022_May_18_1807,localizer,2021.1.3,59.10993440968605,
block,scenes,scenes075.bmp,,,,,0,8,8,8,,,,,,,,,,,,,,,,,,,,,,,,,,,,,,,,,,,,,,,,,,None,,158.42664683999027,None,158.42664683999027,None,2022-05-18-18:09:32.013690,158.43997650011443,158.7436359000858,158.43997650011443,None,None,158.43997650011443,None,159.24289743991102,None,,,,12016,0001,2022_May_18_1807,localizer,2021.1.3,59.10993440968605,
block,scenes,scenes042.bmp,,,,,0,9,9,9,,,,,,,,,,,,,,,,,,,,,,,,,,,,,,,,,,,,,,,,,,None,,159.24289743991102,None,159.24289743991102,None,2022-05-18-18:09:32.829099,159.25322580011562,159.55973180010915,159.25322580011562,None,None,159.25322580011562,None,160.05940223990473,None,,,,12016,0001,2022_May_18_1807,localizer,2021.1.3,59.10993440968605,
block,scenes,scenes020.bmp,,,,,0,10,10,10,,,,,,,,,,,,,,,,,,,,,,,,,,,,,,,,,,,,,,,,,,None,,160.05940223990473,None,160.05940223990473,None,2022-05-18-18:09:33.644588,160.0673579000868,160.37674159999005,160.0673579000868,None,None,160.0673579000868,None,160.87650833993683,None,,,,12016,0001,2022_May_18_1807,localizer,2021.1.3,59.10993440968605,
block,scenes,scenes079.bmp,,,,,0,11,11,11,,,,,,,,,,,,,,,,,,,,,,,,,,,,,,,,,,,,,,,,,,None,,160.87650833993683,None,160.87650833993683,None,2022-05-18-18:09:34.462681,160.8876370000653,161.19368149992079,160.8876370000653,None,None,160.8876370000653,None,161.69312623997683,None,,,,12016,0001,2022_May_18_1807,localizer,2021.1.3,59.10993440968605,
block,scenes,scenes066.bmp,,,,,0,12,12,12,,,,,,,,,,,,,,,,,,,,,,,,,,,,,,,,,,,,,,,,,,None,,161.69312623997683,None,161.69312623997683,None,2022-05-18-18:09:35.279301,161.704300200101,162.00999960000627,161.704300200101,None,None,161.704300200101,None,162.5099517399678,None,,,,12016,0001,2022_May_18_1807,localizer,2021.1.3,59.10993440968605,
block,scenes,scenes044.bmp,,,,,0,13,13,13,,,,,,,,,,,,,,,,,,,,,,,,,,,,,,,,,,,,,,,,,,None,,162.5099517399678,None,162.5099517399678,None,2022-05-18-18:09:36.096128,162.52023719996214,162.82633580011316,162.52023719996214,None,None,162.52023719996214,None,163.32644744000862,None,,,,12016,0001,2022_May_18_1807,localizer,2021.1.3,59.10993440968605,
block_end,scenes,scenes072.bmp,,,,,0,14,14,14,,,,,,,,,,,,,,,,,,,,,,,,,,,,,,,,,,,,,,,,,,None,,163.32644744000862,None,163.32644744000862,None,2022-05-18-18:09:36.912623,163.33788220002316,163.64344500005245,163.33788220002316,None,None,163.33788220002316,None,164.14306763994972,None,,,,12016,0001,2022_May_18_1807,localizer,2021.1.3,59.10993440968605,
block_start,faces,faces066.bmp,,,,,0,15,15,15,,,,,,,,,,,,,,,,,,,,,,,,,,,,,,,,,,,,,,,,,,t,1.7212743000127375,164.1434283000417,None,164.1434283000417,None,2022-05-18-18:09:39.479034,165.90267509990372,166.2099898001179,165.90267509990372,None,None,165.90267509990372,None,166.70940244004595,None,,,,12016,0001,2022_May_18_1807,localizer,2021.1.3,59.10993440968605,
block,faces,faces086.bmp,,,,,0,16,16,16,,,,,,,,,,,,,,,,,,,,,,,,,,,,,,,,,,,,,,,,,,None,,166.70940244004595,None,166.70940244004595,None,2022-05-18-18:09:40.294602,166.71356979990378,167.02588000008836,166.71356979990378,None,None,166.71356979990378,None,167.52626783999148,None,,,,12016,0001,2022_May_18_1807,localizer,2021.1.3,59.10993440968605,
block,faces,faces069.bmp,,,,,0,17,17,17,,,,,,,,,,,,,,,,,,,,,,,,,,,,,,,,,,,,,,,,,,None,,167.52626783999148,None,167.52626783999148,None,2022-05-18-18:09:41.112526,167.53662110003643,167.8431504999753,167.53662110003643,None,None,167.53662110003643,None,168.34288093999493,None,,,,12016,0001,2022_May_18_1807,localizer,2021.1.3,59.10993440968605,
block,faces,faces010.bmp,,,,,0,18,18,18,,,,,,,,,,,,,,,,,,,,,,,,,,,,,,,,,,,,,,,,,,None,,168.34288093999493,None,168.34288093999493,None,2022-05-18-18:09:41.929173,168.3540962000843,168.6602022999432,168.3540962000843,None,None,168.3540962000843,None,169.15961933990474,None,,,,12016,0001,2022_May_18_1807,localizer,2021.1.3,59.10993440968605,
block,faces,faces028.bmp,,,,,0,19,19,19,,,,,,,,,,,,,,,,,,,,,,,,,,,,,,,,,,,,,,,,,,None,,169.15961933990474,None,169.15961933990474,None,2022-05-18-18:09:42.745874,169.16989480005577,169.47667440003715,169.16989480005577,None,None,169.16989480005577,None,169.97648463996592,None,,,,12016,0001,2022_May_18_1807,localizer,2021.1.3,59.10993440968605,
block,faces,faces067.bmp,,,,,0,20,20,20,,,,,,,,,,,,,,,,,,,,,,,,,,,,,,,,,,,,,,,,,,None,,169.97648463996592,None,169.97648463996592,None,2022-05-18-18:09:43.562659,169.98780720005743,170.2932237999048,169.98780720005743,None,None,169.98780720005743,None,170.79292654006275,None,,,,12016,0001,2022_May_18_1807,localizer,2021.1.3,59.10993440968605,
block,faces,faces088.bmp,,,,,0,21,21,21,,,,,,,,,,,,,,,,,,,,,,,,,,,,,,,,,,,,,,,,,,None,,170.79292654006275,None,170.79292654006275,None,2022-05-18-18:09:44.379197,170.7985296000261,171.10994100011885,170.7985296000261,None,None,170.7985296000261,None,171.60920153993646,None,,,,12016,0001,2022_May_18_1807,localizer,2021.1.3,59.10993440968605,
block,faces,faces026.bmp,,,,,0,22,22,22,,,,,,,,,,,,,,,,,,,,,,,,,,,,,,,,,,,,,,,,,,None,,171.60920153993646,None,171.60920153993646,None,2022-05-18-18:09:45.194303,171.64181550010107,171.94425490009598,171.64181550010107,None,None,171.64181550010107,None,172.42718794003594,None,,,,12016,0001,2022_May_18_1807,localizer,2021.1.3,59.10993440968605,
block,faces,faces031.bmp,,,,,0,23,23,23,,,,,,,,,,,,,,,,,,,,,,,,,,,,,,,,,,,,,,,,,,None,,172.42718794003594,None,172.42718794003594,None,2022-05-18-18:09:46.014537,172.43920259992592,172.74324869993143,172.43920259992592,None,None,172.43920259992592,None,173.2432007400086,None,,,,12016,0001,2022_May_18_1807,localizer,2021.1.3,59.10993440968605,
block,faces,faces049.bmp,,,,,0,24,24,24,,,,,,,,,,,,,,,,,,,,,,,,,,,,,,,,,,,,,,,,,,None,,173.2432007400086,None,173.2432007400086,None,2022-05-18-18:09:46.829377,173.25465080002323,173.56039449991658,173.25465080002323,None,None,173.25465080002323,None,174.0596129399957,None,,,,12016,0001,2022_May_18_1807,localizer,2021.1.3,59.10993440968605,
block,faces,faces063.bmp,,,,,0,25,25,25,,,,,,,,,,,,,,,,,,,,,,,,,,,,,,,,,,,,,,,,,,None,,174.0596129399957,None,174.0596129399957,None,2022-05-18-18:09:47.645841,174.07106079999357,174.37763109989464,174.07106079999357,None,None,174.07106079999357,None,174.87594123992602,None,,,,12016,0001,2022_May_18_1807,localizer,2021.1.3,59.10993440968605,
block,faces,faces075.bmp,,,,,0,26,26,26,,,,,,,,,,,,,,,,,,,,,,,,,,,,,,,,,,,,,,,,,,None,,174.87594123992602,None,174.87594123992602,None,2022-05-18-18:09:48.460875,174.88470220007002,175.19331140001304,174.88470220007002,None,None,174.88470220007002,None,175.6933729401091,None,,,,12016,0001,2022_May_18_1807,localizer,2021.1.3,59.10993440968605,
block,faces,faces068.bmp,,,,,0,27,27,27,,,,,,,,,,,,,,,,,,,,,,,,,,,,,,,,,,,,,,,,,,None,,175.6933729401091,None,175.6933729401091,None,2022-05-18-18:09:49.279758,175.7062220000662,176.01092269993387,175.7062220000662,None,None,175.7062220000662,None,176.50962303990963,None,,,,12016,0001,2022_May_18_1807,localizer,2021.1.3,59.10993440968605,
block,faces,faces083.bmp,,,,,0,28,28,28,,,,,,,,,,,,,,,,,,,,,,,,,,,,,,,,,,,,,,,,,,None,,176.50962303990963,None,176.50962303990963,None,2022-05-18-18:09:50.095803,176.5193988000974,176.8278999000322,176.5193988000974,None,None,176.5193988000974,None,177.32635893991682,None,,,,12016,0001,2022_May_18_1807,localizer,2021.1.3,59.10993440968605,
block_end,faces,faces020.bmp,,,,,0,29,29,29,,,,,,,,,,,,,,,,,,,,,,,,,,,,,,,,,,,,,,,,,,None,,177.32635893991682,None,177.32635893991682,None,2022-05-18-18:09:50.912535,177.3378971000202,177.6427825000137,177.3378971000202,None,None,177.3378971000202,None,178.14357733998912,None,,,,12016,0001,2022_May_18_1807,localizer,2021.1.3,59.10993440968605,
block_start,scrambled,scrambled041.bmp,,,,,0,30,30,30,,,,,,,,,,,,,,,,,,,,,,,,,,,,,,,,,,,,,,,,,,t,1.7209308000747114,178.1439865999855,None,178.1439865999855,None,2022-05-18-18:09:53.480642,179.904804199934,180.2098872999195,179.904804199934,None,None,179.904804199934,None,180.7092030399246,None,,,,12016,0001,2022_May_18_1807,localizer,2021.1.3,59.10993440968605,
block,scrambled,scrambled085.bmp,,,,,0,31,31,31,,,,,,,,,,,,,,,,,,,,,,,,,,,,,,,,,,,,,,,,,,None,,180.7092030399246,None,180.7092030399246,None,2022-05-18-18:09:54.296081,180.71863929997198,181.02679360006005,180.71863929997198,None,None,180.71863929997198,None,181.52646974001544,None,,,,12016,0001,2022_May_18_1807,localizer,2021.1.3,59.10993440968605,
block,scrambled,scrambled009.bmp,,,,,0,32,32,32,,,,,,,,,,,,,,,,,,,,,,,,,,,,,,,,,,,,,,,,,,None,,181.52646974001544,None,181.52646974001544,None,2022-05-18-18:09:55.112859,181.53687439998612,181.8428944000043,181.53687439998612,None,None,181.53687439998612,None,182.34317313989158,None,,,,12016,0001,2022_May_18_1807,localizer,2021.1.3,59.10993440968605,
block,scrambled,scrambled031.bmp,,,,,0,33,33,33,,,,,,,,,,,,,,,,,,,,,,,,,,,,,,,,,,,,,,,,,,None,,182.34317313989158,None,182.34317313989158,None,2022-05-18-18:09:55.929560,182.3545542000793,182.65936940000392,182.3545542000793,None,None,182.3545542000793,None,183.15972353999967,None,,,,12016,0001,2022_May_18_1807,localizer,2021.1.3,59.10993440968605,
block,scrambled,scrambled020.bmp,,,,,0,34,34,34,,,,,,,,,,,,,,,,,,,,,,,,,,,,,,,,,,,,,,,,,,None,,183.15972353999967,None,183.15972353999967,None,2022-05-18-18:09:56.745899,183.16993930004537,183.47658020001836,183.16993930004537,None,None,183.16993930004537,None,183.9764479400357,None,,,,12016,0001,2022_May_18_1807,localizer,2021.1.3,59.10993440968605,
block,scrambled,scrambled035.bmp,,,,,0,35,35,35,,,,,,,,,,,,,,,,,,,,,,,,,,,,,,,,,,,,,,,,,,None,,183.9764479400357,None,183.9764479400357,None,2022-05-18-18:09:57.562822,183.98691600002348,184.29338750010356,183.98691600002348,None,None,183.98691600002348,None,184.79440193988847,None,,,,12016,0001,2022_May_18_1807,localizer,2021.1.3,59.10993440968605,
block,scrambled,scrambled068.bmp,,,,,0,36,36,36,,,,,,,,,,,,,,,,,,,,,,,,,,,,,,,,,,,,,,,,,,None,,184.79440193988847,None,184.79440193988847,None,2022-05-18-18:09:58.382741,184.80699610011652,185.11322479997762,184.80699610011652,None,None,184.80699610011652,None,185.6097973400494,None,,,,12016,0001,2022_May_18_1807,localizer,2021.1.3,59.10993440968605,
block,scrambled,scrambled004.bmp,,,,,0,37,37,37,,,,,,,,,,,,,,,,,,,,,,,,,,,,,,,,,,,,,,,,,,None,,185.6097973400494,None,185.6097973400494,None,2022-05-18-18:09:59.196276,185.61631989991292,185.92670119996183,185.61631989991292,None,None,185.61631989991292,None,186.426963139954,None,,,,12016,0001,2022_May_18_1807,localizer,2021.1.3,59.10993440968605,
block,scrambled,scrambled083.bmp,,,,,0,38,38,38,,,,,,,,,,,,,,,,,,,,,,,,,,,,,,,,,,,,,,,,,,None,,186.426963139954,None,186.426963139954,None,2022-05-18-18:10:00.014152,186.43585649994202,186.7433110999409,186.43585649994202,None,None,186.43585649994202,None,187.232757540117,None,,,,12016,0001,2022_May_18_1807,localizer,2021.1.3,59.10993440968605,
block,scrambled,scrambled013.bmp,,,,,0,39,39,39,,,,,,,,,,,,,,,,,,,,,,,,,,,,,,,,,,,,,,,,,,None,,187.232757540117,None,187.232757540117,None,2022-05-18-18:10:00.826899,187.24855559994467,187.55989079992287,187.24855559994467,None,None,187.24855559994467,None,188.04364424005615,None,,,,12016,0001,2022_May_18_1807,localizer,2021.1.3,59.10993440968605,
block,scrambled,scrambled030.bmp,,,,,0,40,40,40,,,,,,,,,,,,,,,,,,,,,,,,,,,,,,,,,,,,,,,,,,None,,188.04364424005615,None,188.04364424005615,None,2022-05-18-18:10:01.630834,188.0551517000422,188.3597883998882,188.0551517000422,None,None,188.0551517000422,None,188.85982174000236,None,,,,12016,0001,2022_May_18_1807,localizer,2021.1.3,59.10993440968605,
block,scrambled,scrambled065.bmp,,,,,0,41,41,41,,,,,,,,,,,,,,,,,,,,,,,,,,,,,,,,,,,,,,,,,,None,,188.85982174000236,None,188.85982174000236,None,2022-05-18-18:10:02.445997,188.87009730003774,189.17681570001878,188.87009730003774,None,None,188.87009730003774,None,189.6760607400676,None,,,,12016,0001,2022_May_18_1807,localizer,2021.1.3,59.10993440968605,
block,scrambled,scrambled023.bmp,,,,,0,42,42,42,,,,,,,,,,,,,,,,,,,,,,,,,,,,,,,,,,,,,,,,,,None,,189.6760607400676,None,189.6760607400676,None,2022-05-18-18:10:03.262326,189.68558249995112,189.99315940006636,189.68558249995112,None,None,189.68558249995112,None,190.49258673998992,None,,,,12016,0001,2022_May_18_1807,localizer,2021.1.3,59.10993440968605,
block,scrambled,scrambled052.bmp,,,,,0,43,43,43,,,,,,,,,,,,,,,,,,,,,,,,,,,,,,,,,,,,,,,,,,None,,190.49258673998992,None,190.49258673998992,None,2022-05-18-18:10:04.078928,190.5014331000857,190.81018269993365,190.5014331000857,None,None,190.5014331000857,None,191.3097676398931,None,,,,12016,0001,2022_May_18_1807,localizer,2021.1.3,59.10993440968605,
block_end,scrambled,scrambled039.bmp,,,,,0,44,44,44,,,,,,,,,,,,,,,,,,,,,,,,,,,,,,,,,,,,,,,,,,None,,191.3097676398931,None,191.3097676398931,None,2022-05-18-18:10:04.895946,191.31867210008204,191.62670259992592,191.31867210008204,None,None,191.31867210008204,None,192.12603943997527,None,,,,12016,0001,2022_May_18_1807,localizer,2021.1.3,59.10993440968605,
block_start,objects,objects086.bmp,,,,,0,45,45,45,,,,,,,,,,,,,,,,,,,,,,,,,,,,,,,,,,,,,,,,,,t,1.7381868998054415,192.1266805001069,None,192.1266805001069,None,2022-05-18-18:10:07.479615,193.90381660009734,194.21022660005838,193.90381660009734,None,None,193.90381660009734,None,194.71058354007545,None,,,,12016,0001,2022_May_18_1807,localizer,2021.1.3,59.10993440968605,
block,objects,objects086.bmp,,,,,0,46,46,46,,,,,,,,,,,,,,,,,,,,,,,,,,,,,,,,,,,,,,,,,,None,,194.71058354007545,None,194.71058354007545,None,2022-05-18-18:10:08.301854,194.71864979993552,195.0291158000473,194.71864979993552,None,y,194.71864979993552,None,195.52702514005358,None,0.7274127001874149,,,12016,0001,2022_May_18_1807,localizer,2021.1.3,59.10993440968605,
block,objects,objects021.bmp,,,,,0,47,47,47,,,,,,,,,,,,,,,,,,,,,,,,,,,,,,,,,,,,,,,,,,None,,195.52702514005358,None,195.52702514005358,None,2022-05-18-18:10:09.114377,195.53903539991006,195.8430864000693,195.53903539991006,None,None,195.53903539991006,None,196.34309353998395,None,,,,12016,0001,2022_May_18_1807,localizer,2021.1.3,59.10993440968605,
block,objects,objects024.bmp,,,,,0,48,48,48,,,,,,,,,,,,,,,,,,,,,,,,,,,,,,,,,,,,,,,,,,None,,196.34309353998395,None,196.34309353998395,None,2022-05-18-18:10:09.929273,196.35314609995112,196.660382400034,196.35314609995112,None,None,196.35314609995112,None,197.15962064003105,None,,,,12016,0001,2022_May_18_1807,localizer,2021.1.3,59.10993440968605,
block,objects,objects075.bmp,,,,,0,49,49,49,,,,,,,,,,,,,,,,,,,,,,,,,,,,,,,,,,,,,,,,,,None,,197.15962064003105,None,197.15962064003105,None,2022-05-18-18:10:10.745800,197.1693108000327,197.47682549990714,197.1693108000327,None,None,197.1693108000327,None,197.97657014003488,None,,,,12016,0001,2022_May_18_1807,localizer,2021.1.3,59.10993440968605,
block,objects,objects045.bmp,,,,,0,50,50,50,,,,,,,,,,,,,,,,,,,,,,,,,,,,,,,,,,,,,,,,,,None,,197.97657014003488,None,197.97657014003488,None,2022-05-18-18:10:11.562751,197.987086399924,198.29339909995906,197.987086399924,None,None,197.987086399924,None,198.7930374400923,None,,,,12016,0001,2022_May_18_1807,localizer,2021.1.3,59.10993440968605,
block,objects,objects019.bmp,,,,,0,51,51,51,,,,,,,,,,,,,,,,,,,,,,,,,,,,,,,,,,,,,,,,,,None,,198.7930374400923,None,198.7930374400923,None,2022-05-18-18:10:12.379357,198.80359110003337,199.11006899992935,198.80359110003337,None,None,198.80359110003337,None,199.60980394009965,None,,,,12016,0001,2022_May_18_1807,localizer,2021.1.3,59.10993440968605,
block,objects,objects062.bmp,,,,,0,52,52,52,,,,,,,,,,,,,,,,,,,,,,,,,,,,,,,,,,,,,,,,,,None,,199.60980394009965,None,199.60980394009965,None,2022-05-18-18:10:13.196203,199.62025999999605,199.92696870001964,199.62025999999605,None,None,199.62025999999605,None,200.42666963993105,None,,,,12016,0001,2022_May_18_1807,localizer,2021.1.3,59.10993440968605,
block,objects,objects037.bmp,,,,,0,53,53,53,,,,,,,,,,,,,,,,,,,,,,,,,,,,,,,,,,,,,,,,,,None,,200.42666963993105,None,200.42666963993105,None,2022-05-18-18:10:14.012847,200.43718359991908,200.74363539996557,200.43718359991908,None,None,200.43718359991908,None,201.24316524008754,None,,,,12016,0001,2022_May_18_1807,localizer,2021.1.3,59.10993440968605,
block,objects,objects017.bmp,,,,,0,54,54,54,,,,,,,,,,,,,,,,,,,,,,,,,,,,,,,,,,,,,,,,,,None,,201.24316524008754,None,201.24316524008754,None,2022-05-18-18:10:14.829570,201.2537038999144,201.56018689996563,201.2537038999144,None,None,201.2537038999144,None,202.06043733998666,None,,,,12016,0001,2022_May_18_1807,localizer,2021.1.3,59.10993440968605,
block,objects,objects088.bmp,,,,,0,55,55,55,,,,,,,,,,,,,,,,,,,,,,,,,,,,,,,,,,,,,,,,,,None,,202.06043733998666,None,202.06043733998666,None,2022-05-18-18:10:15.647585,202.071444200119,202.37740029999986,202.071444200119,None,None,202.071444200119,None,202.87587783990892,None,,,,12016,0001,2022_May_18_1807,localizer,2021.1.3,59.10993440968605,
block,objects,objects028.bmp,,,,,0,56,56,56,,,,,,,,,,,,,,,,,,,,,,,,,,,,,,,,,,,,,,,,,,None,,202.87587783990892,None,202.87587783990892,None,2022-05-18-18:10:16.462145,202.8797762999311,203.19318719999865,202.8797762999311,None,None,202.8797762999311,None,203.69320854002143,None,,,,12016,0001,2022_May_18_1807,localizer,2021.1.3,59.10993440968605,
block,objects,objects010.bmp,,,,,0,57,57,57,,,,,,,,,,,,,,,,,,,,,,,,,,,,,,,,,,,,,,,,,,None,,203.69320854002143,None,203.69320854002143,None,2022-05-18-18:10:17.279330,203.70373840001412,204.01025220006704,203.70373840001412,None,None,203.70373840001412,None,204.51001424009445,None,,,,12016,0001,2022_May_18_1807,localizer,2021.1.3,59.10993440968605,
block,objects,objects061.bmp,,,,,0,58,58,58,,,,,,,,,,,,,,,,,,,,,,,,,,,,,,,,,,,,,,,,,,None,,204.51001424009445,None,204.51001424009445,None,2022-05-18-18:10:18.096189,204.52034700009972,204.82661379990168,204.52034700009972,None,None,204.52034700009972,None,205.32659274006727,None,,,,12016,0001,2022_May_18_1807,localizer,2021.1.3,59.10993440968605,
block_end,objects,objects071.bmp,,,,,0,59,59,59,,,,,,,,,,,,,,,,,,,,,,,,,,,,,,,,,,,,,,,,,,None,,205.32659274006727,None,205.32659274006727,None,2022-05-18-18:10:18.912723,205.33700309996493,205.64368039998226,205.33700309996493,None,None,205.33700309996493,None,206.14324033998417,None,,,,12016,0001,2022_May_18_1807,localizer,2021.1.3,59.10993440968605,
null_block,null_block,null_block.bmp,,,,,0,60,60,60,,,,,,,,,,,,,,,,,,,,,,,,,,,,,,,,,,,,,,,,,,t,1.721340499818325,206.14359090011567,None,206.14359090011567,None,2022-05-18-18:10:21.477754,207.90969477999022,None,207.90969477999022,None,None,207.90969477999022,None,207.90684630000032,None,,,,12016,0001,2022_May_18_1807,localizer,2021.1.3,59.10993440968605,
block_start,scenes,scenes008.bmp,,,,,0,61,61,61,,,,,,,,,,,,,,,,,,,,,,,,,,,,,,,,,,,,,,,,,,t,1.9525224000681192,219.9112438999582,None,219.9112438999582,None,2022-05-18-18:10:35.480454,221.9047622999642,222.21026550000533,221.9047622999642,None,None,221.9047622999642,None,222.7105976400664,None,,,,12016,0001,2022_May_18_1807,localizer,2021.1.3,59.10993440968605,
block,scenes,scenes054.bmp,,,,,0,62,62,62,,,,,,,,,,,,,,,,,,,,,,,,,,,,,,,,,,,,,,,,,,None,,222.7105976400664,None,222.7105976400664,None,2022-05-18-18:10:36.301775,222.71948019997217,223.0274193000514,222.71948019997217,None,None,222.71948019997217,None,223.52675174006725,None,,,,12016,0001,2022_May_18_1807,localizer,2021.1.3,59.10993440968605,
block,scenes,scenes035.bmp,,,,,0,63,63,63,,,,,,,,,,,,,,,,,,,,,,,,,,,,,,,,,,,,,,,,,,None,,223.52675174006725,None,223.52675174006725,None,2022-05-18-18:10:37.112930,223.53719200007617,223.84393139998429,223.53719200007617,None,None,223.53719200007617,None,224.34352124009746,None,,,,12016,0001,2022_May_18_1807,localizer,2021.1.3,59.10993440968605,
block,scenes,scenes022.bmp,,,,,0,64,64,64,,,,,,,,,,,,,,,,,,,,,,,,,,,,,,,,,,,,,,,,,,None,,224.34352124009746,None,224.34352124009746,None,2022-05-18-18:10:37.929699,224.3548526999075,224.66024390002713,224.3548526999075,None,None,224.3548526999075,None,225.15943713991436,None,,,,12016,0001,2022_May_18_1807,localizer,2021.1.3,59.10993440968605,
block,scenes,scenes055.bmp,,,,,0,65,65,65,,,,,,,,,,,,,,,,,,,,,,,,,,,,,,,,,,,,,,,,,,None,,225.15943713991436,None,225.15943713991436,None,2022-05-18-18:10:38.744666,225.16868339991197,225.47681930009276,225.16868339991197,None,None,225.16868339991197,None,225.97645944000686,None,,,,12016,0001,2022_May_18_1807,localizer,2021.1.3,59.10993440968605,
block,scenes,scenes085.bmp,,,,,0,66,66,66,,,,,,,,,,,,,,,,,,,,,,,,,,,,,,,,,,,,,,,,,,None,,225.97645944000686,None,225.97645944000686,None,2022-05-18-18:10:39.562643,225.98468059999868,226.29434969997965,225.98468059999868,None,None,225.98468059999868,None,226.78302993990945,None,,,,12016,0001,2022_May_18_1807,localizer,2021.1.3,59.10993440968605,
block,scenes,scenes045.bmp,,,,,0,67,67,67,,,,,,,,,,,,,,,,,,,,,,,,,,,,,,,,,,,,,,,,,,None,,226.78302993990945,None,226.78302993990945,None,2022-05-18-18:10:40.374040,226.79593769996427,227.1107262999285,226.79593769996427,None,None,226.79593769996427,None,227.59312353997956,None,,,,12016,0001,2022_May_18_1807,localizer,2021.1.3,59.10993440968605,
block,scenes,scenes007.bmp,,,,,0,68,68,68,,,,,,,,,,,,,,,,,,,,,,,,,,,,,,,,,,,,,,,,,,None,,227.59312353997956,None,227.59312353997956,None,2022-05-18-18:10:41.179306,227.60795579990372,227.9102084999904,227.60795579990372,None,None,227.60795579990372,None,228.41010784001554,None,,,,12016,0001,2022_May_18_1807,localizer,2021.1.3,59.10993440968605,
block,scenes,scenes007.bmp,,,,,0,69,69,69,,,,,,,,,,,,,,,,,,,,,,,,,,,,,,,,,,,,,,,,,,None,,228.41010784001554,None,228.41010784001554,None,2022-05-18-18:10:41.996290,228.41112760012038,228.72698120004497,228.41112760012038,None,y,228.41112760012038,None,229.22657534007448,None,0.5562716000713408,,,12016,0001,2022_May_18_1807,localizer,2021.1.3,59.10993440968605,
block,scenes,scenes004.bmp,,,,,0,70,70,70,,,,,,,,,,,,,,,,,,,,,,,,,,,,,,,,,,,,,,,,,,None,,229.22657534007448,None,229.22657534007448,None,2022-05-18-18:10:42.812654,229.2425021000672,229.544329599943,229.2425021000672,None,None,229.2425021000672,None,230.04374004008713,None,,,,12016,0001,2022_May_18_1807,localizer,2021.1.3,59.10993440968605,
block,scenes,scenes046.bmp,,,,,0,71,71,71,,,,,,,,,,,,,,,,,,,,,,,,,,,,,,,,,,,,,,,,,,None,,230.04374004008713,None,230.04374004008713,None,2022-05-18-18:10:43.629899,230.05420830007643,230.3602458999958,230.05420830007643,None,None,230.05420830007643,None,230.85958443994167,None,,,,12016,0001,2022_May_18_1807,localizer,2021.1.3,59.10993440968605,
block,scenes,scenes079.bmp,,,,,0,72,72,72,,,,,,,,,,,,,,,,,,,,,,,,,,,,,,,,,,,,,,,,,,None,,230.85958443994167,None,230.85958443994167,None,2022-05-18-18:10:44.444744,230.86227410007268,231.17691539996304,230.86227410007268,None,None,230.86227410007268,None,231.6764816398965,None,,,,12016,0001,2022_May_18_1807,localizer,2021.1.3,59.10993440968605,
block,scenes,scenes033.bmp,,,,,0,73,73,73,,,,,,,,,,,,,,,,,,,,,,,,,,,,,,,,,,,,,,,,,,None,,231.6764816398965,None,231.6764816398965,None,2022-05-18-18:10:45.261670,231.68485140008852,231.9942819001153,231.68485140008852,None,None,231.68485140008852,None,232.4940232401015,None,,,,12016,0001,2022_May_18_1807,localizer,2021.1.3,59.10993440968605,
block,scenes,scenes061.bmp,,,,,0,74,74,74,,,,,,,,,,,,,,,,,,,,,,,,,,,,,,,,,,,,,,,,,,None,,232.4940232401015,None,232.4940232401015,None,2022-05-18-18:10:46.081193,232.49508960009553,232.81032190006226,232.49508960009553,None,None,232.49508960009553,None,233.30998983995522,None,,,,12016,0001,2022_May_18_1807,localizer,2021.1.3,59.10993440968605,
block_end,scenes,scenes014.bmp,,,,,0,75,75,75,,,,,,,,,,,,,,,,,,,,,,,,,,,,,,,,,,,,,,,,,,None,,233.30998983995522,None,233.30998983995522,None,2022-05-18-18:10:46.896396,233.32106320001185,233.62685459991917,233.32106320001185,None,None,233.32106320001185,None,234.1266334400745,None,,,,12016,0001,2022_May_18_1807,localizer,2021.1.3,59.10993440968605,
block_start,scrambled,scrambled023.bmp,,,,,0,76,76,76,,,,,,,,,,,,,,,,,,,,,,,,,,,,,,,,,,,,,,,,,,t,1.7369666998274624,234.12697060010396,None,234.12697060010396,None,2022-05-18-18:10:49.479676,235.89453610009514,236.19404070009477,235.89453610009514,None,None,235.89453610009514,None,236.70984143989625,None,,,,12016,0001,2022_May_18_1807,localizer,2021.1.3,59.10993440968605,
block,scrambled,scrambled063.bmp,,,,,0,77,77,77,,,,,,,,,,,,,,,,,,,,,,,,,,,,,,,,,,,,,,,,,,None,,236.70984143989625,None,236.70984143989625,None,2022-05-18-18:10:50.295841,236.71901979995891,237.02696439996362,236.71901979995891,None,None,236.71901979995891,None,237.52689273997674,None,,,,12016,0001,2022_May_18_1807,localizer,2021.1.3,59.10993440968605,
block,scrambled,scrambled049.bmp,,,,,0,78,78,78,,,,,,,,,,,,,,,,,,,,,,,,,,,,,,,,,,,,,,,,,,None,,237.52689273997674,None,237.52689273997674,None,2022-05-18-18:10:51.113260,237.5382572999224,237.84327169996686,237.5382572999224,None,None,237.5382572999224,None,238.34362063992302,None,,,,12016,0001,2022_May_18_1807,localizer,2021.1.3,59.10993440968605,
block,scrambled,scrambled065.bmp,,,,,0,79,79,79,,,,,,,,,,,,,,,,,,,,,,,,,,,,,,,,,,,,,,,,,,None,,238.34362063992302,None,238.34362063992302,None,2022-05-18-18:10:51.929801,238.34457949991338,238.6603172000032,238.34457949991338,None,None,238.34457949991338,None,239.1470849399222,None,,,,12016,0001,2022_May_18_1807,localizer,2021.1.3,59.10993440968605,
block,scrambled,scrambled010.bmp,,,,,0,80,80,80,,,,,,,,,,,,,,,,,,,,,,,,,,,,,,,,,,,,,,,,,,None,,239.1470849399222,None,239.1470849399222,None,2022-05-18-18:10:52.739197,239.16469289991073,239.47704069991596,239.16469289991073,239.16469289991073,None,239.16469289991073,239.16469289991073,239.9600064399885,None,,,,12016,0001,2022_May_18_1807,localizer,2021.1.3,59.10993440968605,
block,scrambled,scrambled008.bmp,,,,,0,81,81,81,,,,,,,,,,,,,,,,,,,,,,,,,,,,,,,,,,,,,,,,,,None,,239.9600064399885,None,239.9600064399885,None,2022-05-18-18:10:53.546191,239.9705238000024,240.27718090009876,239.9705238000024,None,None,239.9705238000024,None,240.77673544005955,None,,,,12016,0001,2022_May_18_1807,localizer,2021.1.3,59.10993440968605,
block,scrambled,scrambled044.bmp,,,,,0,82,82,82,,,,,,,,,,,,,,,,,,,,,,,,,,,,,,,,,,,,,,,,,,None,,240.77673544005955,None,240.77673544005955,None,2022-05-18-18:10:54.362919,240.78748099994846,241.0933910999447,240.78748099994846,None,None,240.78748099994846,None,241.5945984399179,None,,,,12016,0001,2022_May_18_1807,localizer,2021.1.3,59.10993440968605,
block,scrambled,scrambled028.bmp,,,,,0,83,83,83,,,,,,,,,,,,,,,,,,,,,,,,,,,,,,,,,,,,,,,,,,None,,241.5945984399179,None,241.5945984399179,None,2022-05-18-18:10:55.181945,241.60723720001988,241.91082439990714,241.60723720001988,None,None,241.60723720001988,None,242.41055443992371,None,,,,12016,0001,2022_May_18_1807,localizer,2021.1.3,59.10993440968605,
block,scrambled,scrambled059.bmp,,,,,0,84,84,84,,,,,,,,,,,,,,,,,,,,,,,,,,,,,,,,,,,,,,,,,,None,,242.41055443992371,None,242.41055443992371,None,2022-05-18-18:10:55.996760,242.42168110003695,242.72690199990757,242.42168110003695,None,None,242.42168110003695,None,243.22701804006937,None,,,,12016,0001,2022_May_18_1807,localizer,2021.1.3,59.10993440968605,
block,scrambled,scrambled030.bmp,,,,,0,85,85,85,,,,,,,,,,,,,,,,,,,,,,,,,,,,,,,,,,,,,,,,,,None,,243.22701804006937,None,243.22701804006937,None,2022-05-18-18:10:56.813232,243.22794959996827,243.5266845000442,243.22794959996827,None,None,243.22794959996827,None,244.04343653998802,None,,,,12016,0001,2022_May_18_1807,localizer,2021.1.3,59.10993440968605,
block,scrambled,scrambled086.bmp,,,,,0,86,86,86,,,,,,,,,,,,,,,,,,,,,,,,,,,,,,,,,,,,,,,,,,None,,244.04343653998802,None,244.04343653998802,None,2022-05-18-18:10:57.629836,244.05400620005094,244.3606024000328,244.05400620005094,None,None,244.05400620005094,None,244.85997643989975,None,,,,12016,0001,2022_May_18_1807,localizer,2021.1.3,59.10993440968605,
block,scrambled,scrambled062.bmp,,,,,0,87,87,87,,,,,,,,,,,,,,,,,,,,,,,,,,,,,,,,,,,,,,,,,,None,,244.85997643989975,None,244.85997643989975,None,2022-05-18-18:10:58.446353,244.87017949996516,245.1767001999542,244.87017949996516,None,None,244.87017949996516,None,245.67697374003473,None,,,,12016,0001,2022_May_18_1807,localizer,2021.1.3,59.10993440968605,
block,scrambled,scrambled087.bmp,,,,,0,88,88,88,,,,,,,,,,,,,,,,,,,,,,,,,,,,,,,,,,,,,,,,,,None,,245.67697374003473,None,245.67697374003473,None,2022-05-18-18:10:59.263362,245.6871092999354,245.9968930000905,245.6871092999354,None,None,245.6871092999354,None,246.49322093992959,None,,,,12016,0001,2022_May_18_1807,localizer,2021.1.3,59.10993440968605,
block,scrambled,scrambled073.bmp,,,,,0,89,89,89,,,,,,,,,,,,,,,,,,,,,,,,,,,,,,,,,,,,,,,,,,None,,246.49322093992959,None,246.49322093992959,None,2022-05-18-18:11:00.107611,246.52444529999048,246.82691349997185,246.52444529999048,None,None,246.52444529999048,None,247.32734184006694,None,,,,12016,0001,2022_May_18_1807,localizer,2021.1.3,59.10993440968605,
block_end,scrambled,scrambled033.bmp,,,,,0,90,90,90,,,,,,,,,,,,,,,,,,,,,,,,,,,,,,,,,,,,,,,,,,None,,247.32734184006694,None,247.32734184006694,None,2022-05-18-18:11:00.914543,247.33938120002858,247.6437019999139,247.33938120002858,None,None,247.33938120002858,None,248.14323133991564,None,,,,12016,0001,2022_May_18_1807,localizer,2021.1.3,59.10993440968605,
block_start,objects,objects087.bmp,,,,,0,91,91,91,,,,,,,,,,,,,,,,,,,,,,,,,,,,,,,,,,,,,,,,,,t,1.720415199873969,248.1435255999677,None,248.1435255999677,None,2022-05-18-18:11:03.478511,249.90269499993883,250.21172229992226,249.90269499993883,None,None,249.90269499993883,None,250.70956413999664,None,,,,12016,0001,2022_May_18_1807,localizer,2021.1.3,59.10993440968605,
block,objects,objects063.bmp,,,,,0,92,92,92,,,,,,,,,,,,,,,,,,,,,,,,,,,,,,,,,,,,,,,,,,None,,250.70956413999664,None,250.70956413999664,None,2022-05-18-18:11:04.294836,250.71798510011286,251.02711779996753,250.71798510011286,None,None,250.71798510011286,None,251.5266784400912,None,,,,12016,0001,2022_May_18_1807,localizer,2021.1.3,59.10993440968605,
block,objects,objects014.bmp,,,,,0,93,93,93,,,,,,,,,,,,,,,,,,,,,,,,,,,,,,,,,,,,,,,,,,None,,251.5266784400912,None,251.5266784400912,None,2022-05-18-18:11:05.112805,251.53684399998747,251.84425209998153,251.53684399998747,None,None,251.53684399998747,None,252.34375324000138,None,,,,12016,0001,2022_May_18_1807,localizer,2021.1.3,59.10993440968605,
block,objects,objects032.bmp,,,,,0,94,94,94,,,,,,,,,,,,,,,,,,,,,,,,,,,,,,,,,,,,,,,,,,None,,252.34375324000138,None,252.34375324000138,None,2022-05-18-18:11:05.930135,252.35509270010516,252.66006410005502,252.35509270010516,None,None,252.35509270010516,None,253.15957923994864,None,,,,12016,0001,2022_May_18_1807,localizer,2021.1.3,59.10993440968605,
block,objects,objects034.bmp,,,,,0,95,95,95,,,,,,,,,,,,,,,,,,,,,,,,,,,,,,,,,,,,,,,,,,None,,253.15957923994864,None,253.15957923994864,None,2022-05-18-18:11:06.744537,253.16727140010335,253.47732300008647,253.16727140010335,None,None,253.16727140010335,None,253.978031640104,None,,,,12016,0001,2022_May_18_1807,localizer,2021.1.3,59.10993440968605,
block,objects,objects050.bmp,,,,,0,96,96,96,,,,,,,,,,,,,,,,,,,,,,,,,,,,,,,,,,,,,,,,,,None,,253.978031640104,None,253.978031640104,None,2022-05-18-18:11:07.566365,253.99192989990115,254.2940426999703,253.99192989990115,None,None,253.99192989990115,None,254.7937729399884,None,,,,12016,0001,2022_May_18_1807,localizer,2021.1.3,59.10993440968605,
block,objects,objects024.bmp,,,,,0,97,97,97,,,,,,,,,,,,,,,,,,,,,,,,,,,,,,,,,,,,,,,,,,None,,254.7937729399884,None,254.7937729399884,None,2022-05-18-18:11:08.381164,254.794879199937,255.11076560011134,254.794879199937,None,None,254.794879199937,None,255.61007374005857,None,,,,12016,0001,2022_May_18_1807,localizer,2021.1.3,59.10993440968605,
block,objects,objects041.bmp,,,,,0,98,98,98,,,,,,,,,,,,,,,,,,,,,,,,,,,,,,,,,,,,,,,,,,None,,255.61007374005857,None,255.61007374005857,None,2022-05-18-18:11:09.196495,255.62060680007562,255.92726280004717,255.62060680007562,None,None,255.62060680007562,None,256.4271029400872,None,,,,12016,0001,2022_May_18_1807,localizer,2021.1.3,59.10993440968605,
block,objects,objects020.bmp,,,,,0,99,99,99,,,,,,,,,,,,,,,,,,,,,,,,,,,,,,,,,,,,,,,,,,None,,256.4271029400872,None,256.4271029400872,None,2022-05-18-18:11:10.013580,256.4383529999759,256.74392549996264,256.4383529999759,None,None,256.4383529999759,None,257.2434100400889,None,,,,12016,0001,2022_May_18_1807,localizer,2021.1.3,59.10993440968605,
block,objects,objects077.bmp,,,,,0,100,100,100,,,,,,,,,,,,,,,,,,,,,,,,,,,,,,,,,,,,,,,,,,None,,257.2434100400889,None,257.2434100400889,None,2022-05-18-18:11:10.829593,257.25368590001017,257.5606772999745,257.25368590001017,None,None,257.25368590001017,None,258.060439040116,None,,,,12016,0001,2022_May_18_1807,localizer,2021.1.3,59.10993440968605,
block,objects,objects030.bmp,,,,,0,101,101,101,,,,,,,,,,,,,,,,,,,,,,,,,,,,,,,,,,,,,,,,,,None,,258.060439040116,None,258.060439040116,None,2022-05-18-18:11:11.646808,258.07109740003943,258.37730609998107,258.07109740003943,None,None,258.07109740003943,None,258.87747134005184,None,,,,12016,0001,2022_May_18_1807,localizer,2021.1.3,59.10993440968605,
block,objects,objects064.bmp,,,,,0,102,102,102,,,,,,,,,,,,,,,,,,,,,,,,,,,,,,,,,,,,,,,,,,None,,258.87747134005184,None,258.87747134005184,None,2022-05-18-18:11:12.464643,258.8892952001188,259.1938350000419,258.8892952001188,None,None,258.8892952001188,None,259.6937845399836,None,,,,12016,0001,2022_May_18_1807,localizer,2021.1.3,59.10993440968605,
block,objects,objects006.bmp,,,,,0,103,103,103,,,,,,,,,,,,,,,,,,,,,,,,,,,,,,,,,,,,,,,,,,None,,259.6937845399836,None,259.6937845399836,None,2022-05-18-18:11:13.280142,259.70493600005284,260.0105902000796,259.70493600005284,None,None,259.70493600005284,None,260.5122960400069,None,,,,12016,0001,2022_May_18_1807,localizer,2021.1.3,59.10993440968605,
block,objects,objects057.bmp,,,,,0,104,104,104,,,,,,,,,,,,,,,,,,,,,,,,,,,,,,,,,,,,,,,,,,None,,260.5122960400069,None,260.5122960400069,None,2022-05-18-18:11:14.100629,260.52579670003615,260.8268635000568,260.52579670003615,None,None,260.52579670003615,None,261.33124964002053,None,,,,12016,0001,2022_May_18_1807,localizer,2021.1.3,59.10993440968605,
block_end,objects,objects073.bmp,,,,,0,105,105,105,,,,,,,,,,,,,,,,,,,,,,,,,,,,,,,,,,,,,,,,,,None,,261.33124964002053,None,261.33124964002053,None,2022-05-18-18:11:14.920502,261.3460131001193,261.6608422000427,261.3460131001193,None,None,261.3460131001193,None,262.14352914008776,None,,,,12016,0001,2022_May_18_1807,localizer,2021.1.3,59.10993440968605,
null_block,null_block,null_block.bmp,,,,,0,106,106,106,,,,,,,,,,,,,,,,,,,,,,,,,,,,,,,,,,,,,,,,,,t,1.720311800017953,262.1438400000334,None,262.1438400000334,None,2022-05-18-18:11:17.481085,263.8948392399354,None,263.8948392399354,None,None,263.8948392399354,None,263.90068259998225,None,,,,12016,0001,2022_May_18_1807,localizer,2021.1.3,59.10993440968605,
block_start,faces,faces048.bmp,,,,,0,107,107,107,,,,,,,,,,,,,,,,,,,,,,,,,,,,,,,,,,,,,,,,,,t,1.953144800150767,275.91094779991545,None,275.91094779991545,None,2022-05-18-18:11:31.481364,277.9067631000653,278.21062609995715,277.9067631000653,None,None,277.9067631000653,None,278.7102457400644,None,,,,12016,0001,2022_May_18_1807,localizer,2021.1.3,59.10993440968605,
block,faces,faces001.bmp,,,,,0,108,108,108,,,,,,,,,,,,,,,,,,,,,,,,,,,,,,,,,,,,,,,,,,None,,278.7102457400644,None,278.7102457400644,None,2022-05-18-18:11:32.296439,278.720345800044,279.0273094999138,278.720345800044,None,None,278.720345800044,None,279.5274279400939,None,,,,12016,0001,2022_May_18_1807,localizer,2021.1.3,59.10993440968605,
block,faces,faces049.bmp,,,,,0,109,109,109,,,,,,,,,,,,,,,,,,,,,,,,,,,,,,,,,,,,,,,,,,None,,279.5274279400939,None,279.5274279400939,None,2022-05-18-18:11:33.113660,279.5286540999077,279.8433682001196,279.5286540999077,None,None,279.5286540999077,None,280.3283211399568,None,,,,12016,0001,2022_May_18_1807,localizer,2021.1.3,59.10993440968605,
block,faces,faces088.bmp,,,,,0,110,110,110,,,,,,,,,,,,,,,,,,,,,,,,,,,,,,,,,,,,,,,,,,None,,280.3283211399568,None,280.3283211399568,None,2022-05-18-18:11:33.918908,280.333442900097,280.6439767999109,280.333442900097,280.333442900097,None,280.333442900097,280.333442900097,281.1448885399615,None,,,,12016,0001,2022_May_18_1807,localizer,2021.1.3,59.10993440968605,
block,faces,faces007.bmp,,,,,0,111,111,111,,,,,,,,,,,,,,,,,,,,,,,,,,,,,,,,,,,,,,,,,,None,,281.1448885399615,None,281.1448885399615,None,2022-05-18-18:11:34.733035,281.1586533000227,281.46022249991074,281.1586533000227,None,None,281.1586533000227,None,281.9612174398964,None,,,,12016,0001,2022_May_18_1807,localizer,2021.1.3,59.10993440968605,
block,faces,faces033.bmp,,,,,0,112,112,112,,,,,,,,,,,,,,,,,,,,,,,,,,,,,,,,,,,,,,,,,,None,,281.9612174398964,None,281.9612174398964,None,2022-05-18-18:11:35.548391,281.98007609997876,282.29378749988973,281.98007609997876,None,None,281.98007609997876,None,282.7769534400897,None,,,,12016,0001,2022_May_18_1807,localizer,2021.1.3,59.10993440968605,
block,faces,faces028.bmp,,,,,0,113,113,113,,,,,,,,,,,,,,,,,,,,,,,,,,,,,,,,,,,,,,,,,,None,,282.7769534400897,None,282.7769534400897,None,2022-05-18-18:11:36.363622,282.77827190002427,283.0937916999683,282.77827190002427,None,None,282.77827190002427,None,283.5938209399348,None,,,,12016,0001,2022_May_18_1807,localizer,2021.1.3,59.10993440968605,
block,faces,faces053.bmp,,,,,0,114,114,114,,,,,,,,,,,,,,,,,,,,,,,,,,,,,,,,,,,,,,,,,,None,,283.5938209399348,None,283.5938209399348,None,2022-05-18-18:11:37.180008,283.60476129991,283.9119541000109,283.60476129991,None,None,283.60476129991,None,284.41150703995953,None,,,,12016,0001,2022_May_18_1807,localizer,2021.1.3,59.10993440968605,
block,faces,faces046.bmp,,,,,0,115,115,115,,,,,,,,,,,,,,,,,,,,,,,,,,,,,,,,,,,,,,,,,,None,,284.41150703995953,None,284.41150703995953,None,2022-05-18-18:11:37.999762,284.426421900047,284.7276411000639,284.426421900047,None,None,284.426421900047,None,285.2264627399156,None,,,,12016,0001,2022_May_18_1807,localizer,2021.1.3,59.10993440968605,
block,faces,faces058.bmp,,,,,0,116,116,116,,,,,,,,,,,,,,,,,,,,,,,,,,,,,,,,,,,,,,,,,,None,,285.2264627399156,None,285.2264627399156,None,2022-05-18-18:11:38.811350,285.23554540006444,285.5442558999639,285.23554540006444,None,None,285.23554540006444,None,286.04444903989787,None,,,,12016,0001,2022_May_18_1807,localizer,2021.1.3,59.10993440968605,
block,faces,faces052.bmp,,,,,0,117,117,117,,,,,,,,,,,,,,,,,,,,,,,,,,,,,,,,,,,,,,,,,,None,,286.04444903989787,None,286.04444903989787,None,2022-05-18-18:11:39.631810,286.05269860010594,286.3606374999508,286.05269860010594,None,None,286.05269860010594,None,286.861520440015,None,,,,12016,0001,2022_May_18_1807,localizer,2021.1.3,59.10993440968605,
block,faces,faces020.bmp,,,,,0,118,118,118,,,,,,,,,,,,,,,,,,,,,,,,,,,,,,,,,,,,,,,,,,None,,286.861520440015,None,286.861520440015,None,2022-05-18-18:11:40.450676,286.86500680004247,287.17862739996053,286.86500680004247,None,None,286.86500680004247,None,287.6766855399357,None,,,,12016,0001,2022_May_18_1807,localizer,2021.1.3,59.10993440968605,
block,faces,faces025.bmp,,,,,0,119,119,119,,,,,,,,,,,,,,,,,,,,,,,,,,,,,,,,,,,,,,,,,,None,,287.6766855399357,None,287.6766855399357,None,2022-05-18-18:11:41.262695,287.68561980011873,287.99507630011067,287.68561980011873,None,None,287.68561980011873,None,288.4948341401061,None,,,,12016,0001,2022_May_18_1807,localizer,2021.1.3,59.10993440968605,
block,faces,faces011.bmp,,,,,0,120,120,120,,,,,,,,,,,,,,,,,,,,,,,,,,,,,,,,,,,,,,,,,,None,,288.4948341401061,None,288.4948341401061,None,2022-05-18-18:11:42.082165,288.50760979996994,288.8106275999453,288.50760979996994,None,None,288.50760979996994,None,289.3108861399116,None,,,,12016,0001,2022_May_18_1807,localizer,2021.1.3,59.10993440968605,
block_end,faces,faces042.bmp,,,,,0,121,121,121,,,,,,,,,,,,,,,,,,,,,,,,,,,,,,,,,,,,,,,,,,None,,289.3108861399116,None,289.3108861399116,None,2022-05-18-18:11:42.898257,289.32207200000994,289.62754109990783,289.32207200000994,None,None,289.32207200000994,None,290.1168649400817,None,,,,12016,0001,2022_May_18_1807,localizer,2021.1.3,59.10993440968605,
null_block,null_block,null_block.bmp,,,,,0,122,122,122,,,,,,,,,,,,,,,,,,,,,,,,,,,,,,,,,,,,,,,,,,t,1.750852599972859,290.1131426000502,None,290.1131426000502,None,2022-05-18-18:11:45.479166,291.89397834001574,None,291.89397834001574,None,None,291.89397834001574,None,291.89687129994854,None,,,,12016,0001,2022_May_18_1807,localizer,2021.1.3,59.10993440968605,
block_start,scenes,scenes040.bmp,,,,,0,123,123,123,,,,,,,,,,,,,,,,,,,,,,,,,,,,,,,,,,,,,,,,,,t,1.952476100064814,303.91159959998913,None,303.91159959998913,None,2022-05-18-18:11:59.485344,305.9072736001108,306.2108563000802,305.9072736001108,None,None,305.9072736001108,None,306.7101725399727,None,,,,12016,0001,2022_May_18_1807,localizer,2021.1.3,59.10993440968605,
block,scenes,scenes039.bmp,,,,,0,124,124,124,,,,,,,,,,,,,,,,,,,,,,,,,,,,,,,,,,,,,,,,,,None,,306.7101725399727,None,306.7101725399727,None,2022-05-18-18:12:00.296362,306.7159569999203,307.0274755000137,306.7159569999203,None,None,306.7159569999203,None,307.5274098400725,None,,,,12016,0001,2022_May_18_1807,localizer,2021.1.3,59.10993440968605,
block,scenes,scenes022.bmp,,,,,0,125,125,125,,,,,,,,,,,,,,,,,,,,,,,,,,,,,,,,,,,,,,,,,,None,,307.5274098400725,None,307.5274098400725,None,2022-05-18-18:12:01.113599,307.528535899939,307.8440219000913,307.528535899939,None,None,307.528535899939,None,308.34395204011815,None,,,,12016,0001,2022_May_18_1807,localizer,2021.1.3,59.10993440968605,
block,scenes,scenes044.bmp,,,,,0,126,126,126,,,,,,,,,,,,,,,,,,,,,,,,,,,,,,,,,,,,,,,,,,None,,308.34395204011815,None,308.34395204011815,None,2022-05-18-18:12:01.930140,308.34507969999686,308.6607123001013,308.34507969999686,None,None,308.34507969999686,None,309.16067234000656,None,,,,12016,0001,2022_May_18_1807,localizer,2021.1.3,59.10993440968605,
block,scenes,scenes091.bmp,,,,,0,127,127,127,,,,,,,,,,,,,,,,,,,,,,,,,,,,,,,,,,,,,,,,,,None,,309.16067234000656,None,309.16067234000656,None,2022-05-18-18:12:02.747069,309.1719947999809,309.4775451000314,309.1719947999809,None,None,309.1719947999809,None,309.9774890399305,None,,,,12016,0001,2022_May_18_1807,localizer,2021.1.3,59.10993440968605,
block,scenes,scenes049.bmp,,,,,0,128,128,128,,,,,,,,,,,,,,,,,,,,,,,,,,,,,,,,,,,,,,,,,,None,,309.9774890399305,None,309.9774890399305,None,2022-05-18-18:12:03.563684,309.97847700002603,310.2944994000718,309.97847700002603,None,None,309.97847700002603,None,310.7794478399912,None,,,,12016,0001,2022_May_18_1807,localizer,2021.1.3,59.10993440968605,
block,scenes,scenes003.bmp,,,,,0,129,129,129,,,,,,,,,,,,,,,,,,,,,,,,,,,,,,,,,,,,,,,,,,None,,310.7794478399912,None,310.7794478399912,None,2022-05-18-18:12:04.371680,310.79894030001014,311.1107171999756,310.79894030001014,310.79894030001014,None,310.79894030001014,310.79894030001014,311.5984169400064,None,,,,12016,0001,2022_May_18_1807,localizer,2021.1.3,59.10993440968605,
block,scenes,scenes017.bmp,,,,,0,130,130,130,,,,,,,,,,,,,,,,,,,,,,,,,,,,,,,,,,,,,,,,,,None,,311.5984169400064,None,311.5984169400064,None,2022-05-18-18:12:05.192491,311.62126730009913,311.92767839995213,311.62126730009913,None,None,311.62126730009913,None,312.41048193995374,None,,,,12016,0001,2022_May_18_1807,localizer,2021.1.3,59.10993440968605,
block,scenes,scenes056.bmp,,,,,0,131,131,131,,,,,,,,,,,,,,,,,,,,,,,,,,,,,,,,,,,,,,,,,,None,,312.41048193995374,None,312.41048193995374,None,2022-05-18-18:12:05.996891,312.4211057999637,312.7275113998912,312.4211057999637,None,None,312.4211057999637,None,313.22699044009204,None,,,,12016,0001,2022_May_18_1807,localizer,2021.1.3,59.10993440968605,
block,scenes,scenes088.bmp,,,,,0,132,132,132,,,,,,,,,,,,,,,,,,,,,,,,,,,,,,,,,,,,,,,,,,None,,313.22699044009204,None,313.22699044009204,None,2022-05-18-18:12:06.813361,313.2371996000875,313.54544620006345,313.2371996000875,None,None,313.2371996000875,None,314.04402243990916,None,,,,12016,0001,2022_May_18_1807,localizer,2021.1.3,59.10993440968605,
block,scenes,scenes067.bmp,,,,,0,133,133,133,,,,,,,,,,,,,,,,,,,,,,,,,,,,,,,,,,,,,,,,,,None,,314.04402243990916,None,314.04402243990916,None,2022-05-18-18:12:07.630424,314.0505393000785,314.3608713999856,314.0505393000785,None,None,314.0505393000785,None,314.86093014006036,None,,,,12016,0001,2022_May_18_1807,localizer,2021.1.3,59.10993440968605,
block,scenes,scenes004.bmp,,,,,0,134,134,134,,,,,,,,,,,,,,,,,,,,,,,,,,,,,,,,,,,,,,,,,,None,,314.86093014006036,None,314.86093014006036,None,2022-05-18-18:12:08.447333,314.86180280009285,315.1776201000903,314.86180280009285,None,None,314.86180280009285,None,315.67722834011073,None,,,,12016,0001,2022_May_18_1807,localizer,2021.1.3,59.10993440968605,
block,scenes,scenes002.bmp,,,,,0,135,135,135,,,,,,,,,,,,,,,,,,,,,,,,,,,,,,,,,,,,,,,,,,None,,315.67722834011073,None,315.67722834011073,None,2022-05-18-18:12:09.263650,315.687187399948,315.99385039997287,315.687187399948,None,None,315.687187399948,None,316.49394423996563,None,,,,12016,0001,2022_May_18_1807,localizer,2021.1.3,59.10993440968605,
block,scenes,scenes080.bmp,,,,,0,136,136,136,,,,,,,,,,,,,,,,,,,,,,,,,,,,,,,,,,,,,,,,,,None,,316.49394423996563,None,316.49394423996563,None,2022-05-18-18:12:10.080135,316.50449860002846,316.8115177999716,316.50449860002846,None,None,316.50449860002846,None,317.31033003998454,None,,,,12016,0001,2022_May_18_1807,localizer,2021.1.3,59.10993440968605,
block_end,scenes,scenes034.bmp,,,,,0,137,137,137,,,,,,,,,,,,,,,,,,,,,,,,,,,,,,,,,,,,,,,,,,None,,317.31033003998454,None,317.31033003998454,None,2022-05-18-18:12:10.896742,317.3191935000941,317.62745340005495,317.3191935000941,None,None,317.3191935000941,None,318.12718124005477,None,,,,12016,0001,2022_May_18_1807,localizer,2021.1.3,59.10993440968605,
block_start,scrambled,scrambled038.bmp,,,,,0,138,138,138,,,,,,,,,,,,,,,,,,,,,,,,,,,,,,,,,,,,,,,,,,t,1.736279500182718,318.1275714999065,None,318.1275714999065,None,2022-05-18-18:12:13.481588,319.90656969998963,320.21095780003816,319.90656969998963,None,None,319.90656969998963,None,320.69931593996006,None,,,,12016,0001,2022_May_18_1807,localizer,2021.1.3,59.10993440968605,
block,scrambled,scrambled024.bmp,,,,,0,139,139,139,,,,,,,,,,,,,,,,,,,,,,,,,,,,,,,,,,,,,,,,,,None,,320.69931593996006,None,320.69931593996006,None,2022-05-18-18:12:14.288504,320.7130434999708,321.02781079988927,320.7130434999708,None,None,320.7130434999708,None,321.512736139982,None,,,,12016,0001,2022_May_18_1807,localizer,2021.1.3,59.10993440968605,
block,scrambled,scrambled021.bmp,,,,,0,140,140,140,,,,,,,,,,,,,,,,,,,,,,,,,,,,,,,,,,,,,,,,,,None,,321.512736139982,None,321.512736139982,None,2022-05-18-18:12:15.103915,321.52944760001265,321.84437469998375,321.52944760001265,None,None,321.52944760001265,None,322.32734854000154,None,,,,12016,0001,2022_May_18_1807,localizer,2021.1.3,59.10993440968605,
block,scrambled,scrambled014.bmp,,,,,0,141,141,141,,,,,,,,,,,,,,,,,,,,,,,,,,,,,,,,,,,,,,,,,,None,,322.32734854000154,None,322.32734854000154,None,2022-05-18-18:12:15.913538,322.3379601999186,322.65044200001284,322.3379601999186,None,None,322.3379601999186,None,323.1461155399913,None,,,,12016,0001,2022_May_18_1807,localizer,2021.1.3,59.10993440968605,
block,scrambled,scrambled066.bmp,,,,,0,142,142,142,,,,,,,,,,,,,,,,,,,,,,,,,,,,,,,,,,,,,,,,,,None,,323.1461155399913,None,323.1461155399913,None,2022-05-18-18:12:16.737293,323.16243649995886,323.4776075000409,323.16243649995886,None,None,323.16243649995886,None,323.9613126399228,None,,,,12016,0001,2022_May_18_1807,localizer,2021.1.3,59.10993440968605,
block,scrambled,scrambled011.bmp,,,,,0,143,143,143,,,,,,,,,,,,,,,,,,,,,,,,,,,,,,,,,,,,,,,,,,None,,323.9613126399228,None,323.9613126399228,None,2022-05-18-18:12:17.548344,323.97226370009594,324.27749649994075,323.97226370009594,None,None,323.97226370009594,None,324.7773073401069,None,,,,12016,0001,2022_May_18_1807,localizer,2021.1.3,59.10993440968605,
block,scrambled,scrambled070.bmp,,,,,0,144,144,144,,,,,,,,,,,,,,,,,,,,,,,,,,,,,,,,,,,,,,,,,,None,,324.7773073401069,None,324.7773073401069,None,2022-05-18-18:12:18.363501,324.78770609991625,325.1006762001198,324.78770609991625,None,None,324.78770609991625,None,325.59399314008186,None,,,,12016,0001,2022_May_18_1807,localizer,2021.1.3,59.10993440968605,
block,scrambled,scrambled013.bmp,,,,,0,145,145,145,,,,,,,,,,,,,,,,,,,,,,,,,,,,,,,,,,,,,,,,,,None,,325.59399314008186,None,325.59399314008186,None,2022-05-18-18:12:19.180184,325.59515599999577,325.9109642000403,325.59515599999577,None,None,325.59515599999577,None,326.41076834003906,None,,,,12016,0001,2022_May_18_1807,localizer,2021.1.3,59.10993440968605,
block,scrambled,scrambled086.bmp,,,,,0,146,146,146,,,,,,,,,,,,,,,,,,,,,,,,,,,,,,,,,,,,,,,,,,None,,326.41076834003906,None,326.41076834003906,None,2022-05-18-18:12:19.997021,326.4119275000412,326.72768049989827,326.4119275000412,None,None,326.4119275000412,None,327.21190223998855,None,,,,12016,0001,2022_May_18_1807,localizer,2021.1.3,59.10993440968605,
block,scrambled,scrambled048.bmp,,,,,0,147,147,147,,,,,,,,,,,,,,,,,,,,,,,,,,,,,,,,,,,,,,,,,,None,,327.21190223998855,None,327.21190223998855,None,2022-05-18-18:12:20.803041,327.2286294000223,327.54476470011286,327.2286294000223,327.2286294000223,None,327.2286294000223,327.2286294000223,328.0278465400217,None,,,,12016,0001,2022_May_18_1807,localizer,2021.1.3,59.10993440968605,
block,scrambled,scrambled006.bmp,,,,,0,148,148,148,,,,,,,,,,,,,,,,,,,,,,,,,,,,,,,,,,,,,,,,,,None,,328.0278465400217,None,328.0278465400217,None,2022-05-18-18:12:21.615111,328.0399096000474,328.34442929993384,328.0399096000474,None,None,328.0399096000474,None,328.8451016400242,None,,,,12016,0001,2022_May_18_1807,localizer,2021.1.3,59.10993440968605,
block,scrambled,scrambled088.bmp,,,,,0,149,149,149,,,,,,,,,,,,,,,,,,,,,,,,,,,,,,,,,,,,,,,,,,None,,328.8451016400242,None,328.8451016400242,None,2022-05-18-18:12:22.431088,328.85413739993237,329.1615716998931,328.85413739993237,None,None,328.85413739993237,None,329.6614693400217,None,,,,12016,0001,2022_May_18_1807,localizer,2021.1.3,59.10993440968605,
block,scrambled,scrambled040.bmp,,,,,0,150,150,150,,,,,,,,,,,,,,,,,,,,,,,,,,,,,,,,,,,,,,,,,,None,,329.6614693400217,None,329.6614693400217,None,2022-05-18-18:12:23.248706,329.6732487999834,329.9777126999106,329.6732487999834,None,None,329.6732487999834,None,330.477319040033,None,,,,12016,0001,2022_May_18_1807,localizer,2021.1.3,59.10993440968605,
block,scrambled,scrambled083.bmp,,,,,0,151,151,151,,,,,,,,,,,,,,,,,,,,,,,,,,,,,,,,,,,,,,,,,,None,,330.477319040033,None,330.477319040033,None,2022-05-18-18:12:24.063511,330.4784808999393,330.7944306000136,330.4784808999393,None,None,330.4784808999393,None,331.2778066400671,None,,,,12016,0001,2022_May_18_1807,localizer,2021.1.3,59.10993440968605,
block_end,scrambled,scrambled046.bmp,,,,,0,152,152,152,,,,,,,,,,,,,,,,,,,,,,,,,,,,,,,,,,,,,,,,,,None,,331.2778066400671,None,331.2778066400671,None,2022-05-18-18:12:24.867210,331.29241669992916,331.59436900005676,331.29241669992916,331.29241669992916,None,331.29241669992916,331.29241669992916,332.09463403995613,None,,,,12016,0001,2022_May_18_1807,localizer,2021.1.3,59.10993440968605,
block_start,objects,objects067.bmp,,,,,0,153,153,153,,,,,,,,,,,,,,,,,,,,,,,,,,,,,,,,,,,,,,,,,,t,1.7690117999445647,332.0950003999751,None,332.0950003999751,None,2022-05-18-18:12:27.480361,333.90591980004683,334.21066619991325,333.90591980004683,None,None,333.90591980004683,None,334.7103397400817,None,,,,12016,0001,2022_May_18_1807,localizer,2021.1.3,59.10993440968605,
block,objects,objects017.bmp,,,,,0,154,154,154,,,,,,,,,,,,,,,,,,,,,,,,,,,,,,,,,,,,,,,,,,None,,334.7103397400817,None,334.7103397400817,None,2022-05-18-18:12:28.296538,334.71242090011947,335.0275588000659,334.71242090011947,None,None,334.71242090011947,None,335.52780493993777,None,,,,12016,0001,2022_May_18_1807,localizer,2021.1.3,59.10993440968605,
block,objects,objects087.bmp,,,,,0,155,155,155,,,,,,,,,,,,,,,,,,,,,,,,,,,,,,,,,,,,,,,,,,None,,335.52780493993777,None,335.52780493993777,None,2022-05-18-18:12:29.115103,335.52880050009117,335.82832249999046,335.52880050009117,None,None,335.52880050009117,None,336.3280831400072,None,,,,12016,0001,2022_May_18_1807,localizer,2021.1.3,59.10993440968605,
block,objects,objects069.bmp,,,,,0,156,156,156,,,,,,,,,,,,,,,,,,,,,,,,,,,,,,,,,,,,,,,,,,None,,336.3280831400072,None,336.3280831400072,None,2022-05-18-18:12:29.917229,336.34271520003676,336.6445722000208,336.34271520003676,336.34271520003676,None,336.34271520003676,336.34271520003676,337.1451010400662,None,,,,12016,0001,2022_May_18_1807,localizer,2021.1.3,59.10993440968605,
block,objects,objects011.bmp,,,,,0,157,157,157,,,,,,,,,,,,,,,,,,,,,,,,,,,,,,,,,,,,,,,,,,None,,337.1451010400662,None,337.1451010400662,None,2022-05-18-18:12:30.733251,337.1592119000852,337.46127289999276,337.1592119000852,None,None,337.1592119000852,None,337.961400140007,None,,,,12016,0001,2022_May_18_1807,localizer,2021.1.3,59.10993440968605,
block,objects,objects023.bmp,,,,,0,158,158,158,,,,,,,,,,,,,,,,,,,,,,,,,,,,,,,,,,,,,,,,,,None,,337.961400140007,None,337.961400140007,None,2022-05-18-18:12:31.548778,337.9732272999827,338.2782300999388,337.9732272999827,None,None,337.9732272999827,None,338.7776406399673,None,,,,12016,0001,2022_May_18_1807,localizer,2021.1.3,59.10993440968605,
block,objects,objects020.bmp,,,,,0,159,159,159,,,,,,,,,,,,,,,,,,,,,,,,,,,,,,,,,,,,,,,,,,None,,338.7776406399673,None,338.7776406399673,None,2022-05-18-18:12:32.363831,338.77856640005484,339.0941816000268,338.77856640005484,None,None,338.77856640005484,None,339.57777923990506,None,,,,12016,0001,2022_May_18_1807,localizer,2021.1.3,59.10993440968605,
block,objects,objects030.bmp,,,,,0,160,160,160,,,,,,,,,,,,,,,,,,,,,,,,,,,,,,,,,,,,,,,,,,None,,339.57777923990506,None,339.57777923990506,None,2022-05-18-18:12:33.166990,339.5808021000121,339.894892900018,339.5808021000121,339.5808021000121,None,339.5808021000121,339.5808021000121,340.3940304400632,None,,,,12016,0001,2022_May_18_1807,localizer,2021.1.3,59.10993440968605,
block,objects,objects034.bmp,,,,,0,161,161,161,,,,,,,,,,,,,,,,,,,,,,,,,,,,,,,,,,,,,,,,,,None,,340.3940304400632,None,340.3940304400632,None,2022-05-18-18:12:33.980225,340.39520490006544,340.7106383999344,340.39520490006544,None,None,340.39520490006544,None,341.19443943996447,None,,,,12016,0001,2022_May_18_1807,localizer,2021.1.3,59.10993440968605,
block,objects,objects047.bmp,,,,,0,162,162,162,,,,,,,,,,,,,,,,,,,,,,,,,,,,,,,,,,,,,,,,,,None,,341.19443943996447,None,341.19443943996447,None,2022-05-18-18:12:34.781631,341.2053644999396,341.5113876000978,341.2053644999396,341.2053644999396,None,341.2053644999396,341.2053644999396,342.0108603399014,None,,,,12016,0001,2022_May_18_1807,localizer,2021.1.3,59.10993440968605,
block,objects,objects046.bmp,,,,,0,163,163,163,,,,,,,,,,,,,,,,,,,,,,,,,,,,,,,,,,,,,,,,,,None,,342.0108603399014,None,342.0108603399014,None,2022-05-18-18:12:35.597384,342.0222342000343,342.32888599997386,342.0222342000343,None,None,342.0222342000343,None,342.82867274007293,None,,,,12016,0001,2022_May_18_1807,localizer,2021.1.3,59.10993440968605,
block,objects,objects041.bmp,,,,,0,164,164,164,,,,,,,,,,,,,,,,,,,,,,,,,,,,,,,,,,,,,,,,,,None,,342.82867274007293,None,342.82867274007293,None,2022-05-18-18:12:36.416633,342.8383849998936,343.144820000045,342.8383849998936,None,None,342.8383849998936,None,343.65077174005563,None,,,,12016,0001,2022_May_18_1807,localizer,2021.1.3,59.10993440968605,
block,objects,objects060.bmp,,,,,0,165,165,165,,,,,,,,,,,,,,,,,,,,,,,,,,,,,,,,,,,,,,,,,,None,,343.65077174005563,None,343.65077174005563,None,2022-05-18-18:12:37.240894,343.6630851998925,343.9778269000817,343.6630851998925,None,None,343.6630851998925,None,344.4608323401073,None,,,,12016,0001,2022_May_18_1807,localizer,2021.1.3,59.10993440968605,
block,objects,objects059.bmp,,,,,0,166,166,166,,,,,,,,,,,,,,,,,,,,,,,,,,,,,,,,,,,,,,,,,,None,,344.4608323401073,None,344.4608323401073,None,2022-05-18-18:12:38.047566,344.47112630004995,344.7782725999132,344.47112630004995,None,None,344.47112630004995,None,345.2782019399339,None,,,,12016,0001,2022_May_18_1807,localizer,2021.1.3,59.10993440968605,
block_end,objects,objects013.bmp,,,,,0,167,167,167,,,,,,,,,,,,,,,,,,,,,,,,,,,,,,,,,,,,,,,,,,None,,345.2782019399339,None,345.2782019399339,None,2022-05-18-18:12:38.865577,345.2900841999799,345.5938973000739,345.2900841999799,None,None,345.2900841999799,None,346.09407694002147,None,,,,12016,0001,2022_May_18_1807,localizer,2021.1.3,59.10993440968605,
block_start,faces,faces073.bmp,,,,,0,168,168,168,,,,,,,,,,,,,,,,,,,,,,,,,,,,,,,,,,,,,,,,,,t,1.7687770000193268,346.0942943999544,None,346.0942943999544,None,2022-05-18-18:12:41.464788,347.89026780007407,348.1957529000938,347.89026780007407,None,None,347.89026780007407,None,348.6954103400232,None,,,,12016,0001,2022_May_18_1807,localizer,2021.1.3,59.10993440968605,
block,faces,faces009.bmp,,,,,0,169,169,169,,,,,,,,,,,,,,,,,,,,,,,,,,,,,,,,,,,,,,,,,,None,,348.6954103400232,None,348.6954103400232,None,2022-05-18-18:12:42.283767,348.70905619999394,349.01110649993643,348.70905619999394,None,None,348.70905619999394,None,349.51041654001455,None,,,,12016,0001,2022_May_18_1807,localizer,2021.1.3,59.10993440968605,
block,faces,faces009.bmp,,,,,0,170,170,170,,,,,,,,,,,,,,,,,,,,,,,,,,,,,,,,,,,,,,,,,,None,,349.51041654001455,None,349.51041654001455,None,2022-05-18-18:12:43.096413,349.5127155999653,349.82750470004976,349.5127155999653,None,y,349.5127155999653,None,350.3120975400554,None,0.6303999000228941,,,12016,0001,2022_May_18_1807,localizer,2021.1.3,59.10993440968605,
block,faces,faces054.bmp,,,,,0,171,171,171,,,,,,,,,,,,,,,,,,,,,,,,,,,,,,,,,,,,,,,,,,None,,350.3120975400554,None,350.3120975400554,None,2022-05-18-18:12:43.904258,350.32992899999954,350.63082919991575,350.32992899999954,350.32992899999954,None,350.32992899999954,350.32992899999954,351.128143140045,None,,,,12016,0001,2022_May_18_1807,localizer,2021.1.3,59.10993440968605,
block,faces,faces010.bmp,,,,,0,172,172,172,,,,,,,,,,,,,,,,,,,,,,,,,,,,,,,,,,,,,,,,,,None,,351.128143140045,None,351.128143140045,None,2022-05-18-18:12:44.715324,351.12919529993087,351.444791899994,351.12919529993087,None,None,351.12919529993087,None,351.9448508400703,None,,,,12016,0001,2022_May_18_1807,localizer,2021.1.3,59.10993440968605,
block,faces,faces016.bmp,,,,,0,173,173,173,,,,,,,,,,,,,,,,,,,,,,,,,,,,,,,,,,,,,,,,,,None,,351.9448508400703,None,351.9448508400703,None,2022-05-18-18:12:45.532216,351.957330300007,352.2615044999402,351.957330300007,None,None,351.957330300007,None,352.7606772400206,None,,,,12016,0001,2022_May_18_1807,localizer,2021.1.3,59.10993440968605,
block,faces,faces058.bmp,,,,,0,174,174,174,,,,,,,,,,,,,,,,,,,,,,,,,,,,,,,,,,,,,,,,,,None,,352.7606772400206,None,352.7606772400206,None,2022-05-18-18:12:46.347505,352.7619602999184,353.07792280009016,352.7619602999184,None,None,352.7619602999184,None,353.5777455399977,None,,,,12016,0001,2022_May_18_1807,localizer,2021.1.3,59.10993440968605,
block,faces,faces051.bmp,,,,,0,175,175,175,,,,,,,,,,,,,,,,,,,,,,,,,,,,,,,,,,,,,,,,,,None,,353.5777455399977,None,353.5777455399977,None,2022-05-18-18:12:47.164145,353.5857824999839,353.8944347000215,353.5857824999839,None,None,353.5857824999839,None,354.39443914003203,None,,,,12016,0001,2022_May_18_1807,localizer,2021.1.3,59.10993440968605,
block,faces,faces084.bmp,,,,,0,176,176,176,,,,,,,,,,,,,,,,,,,,,,,,,,,,,,,,,,,,,,,,,,None,,354.39443914003203,None,354.39443914003203,None,2022-05-18-18:12:47.980819,354.4058932000771,354.7106170000043,354.4058932000771,None,None,354.4058932000771,None,355.2107880401192,None,,,,12016,0001,2022_May_18_1807,localizer,2021.1.3,59.10993440968605,
block,faces,faces075.bmp,,,,,0,177,177,177,,,,,,,,,,,,,,,,,,,,,,,,,,,,,,,,,,,,,,,,,,None,,355.2107880401192,None,355.2107880401192,None,2022-05-18-18:12:48.796984,355.212057299912,355.5279514999129,355.212057299912,None,None,355.212057299912,None,356.01270133994984,None,,,,12016,0001,2022_May_18_1807,localizer,2021.1.3,59.10993440968605,
block,faces,faces036.bmp,,,,,0,178,178,178,,,,,,,,,,,,,,,,,,,,,,,,,,,,,,,,,,,,,,,,,,None,,356.01270133994984,None,356.01270133994984,None,2022-05-18-18:12:49.603007,356.027875599917,356.32780100009404,356.027875599917,356.027875599917,None,356.027875599917,356.027875599917,356.8274707400007,None,,,,12016,0001,2022_May_18_1807,localizer,2021.1.3,59.10993440968605,
block,faces,faces012.bmp,,,,,0,179,179,179,,,,,,,,,,,,,,,,,,,,,,,,,,,,,,,,,,,,,,,,,,None,,356.8274707400007,None,356.8274707400007,None,2022-05-18-18:12:50.413902,356.8380338998977,357.1461924999021,356.8380338998977,None,None,356.8380338998977,None,357.6444627399789,None,,,,12016,0001,2022_May_18_1807,localizer,2021.1.3,59.10993440968605,
block,faces,faces022.bmp,,,,,0,180,180,180,,,,,,,,,,,,,,,,,,,,,,,,,,,,,,,,,,,,,,,,,,None,,357.6444627399789,None,357.6444627399789,None,2022-05-18-18:12:51.231647,357.6553793998901,357.96151800011285,357.6553793998901,None,None,357.6553793998901,None,358.46123624003957,None,,,,12016,0001,2022_May_18_1807,localizer,2021.1.3,59.10993440968605,
block,faces,faces047.bmp,,,,,0,181,181,181,,,,,,,,,,,,,,,,,,,,,,,,,,,,,,,,,,,,,,,,,,None,,358.46123624003957,None,358.46123624003957,None,2022-05-18-18:12:52.047624,358.4774040998891,358.77821630006656,358.4774040998891,None,None,358.4774040998891,None,359.2779257399263,None,,,,12016,0001,2022_May_18_1807,localizer,2021.1.3,59.10993440968605,
block_end,faces,faces005.bmp,,,,,0,182,182,182,,,,,,,,,,,,,,,,,,,,,,,,,,,,,,,,,,,,,,,,,,None,,359.2779257399263,None,359.2779257399263,None,2022-05-18-18:12:52.864331,359.28792300005443,359.59467449993826,359.28792300005443,None,None,359.28792300005443,None,360.09445964002515,None,,,,12016,0001,2022_May_18_1807,localizer,2021.1.3,59.10993440968605,
block_start,faces,faces003.bmp,,,,,0,183,183,183,,,,,,,,,,,,,,,,,,,,,,,,,,,,,,,,,,,,,,,,,,t,1.7674827000591904,360.0954499000218,None,360.0954499000218,None,2022-05-18-18:12:55.467054,361.8927992999088,362.19469020003453,361.8927992999088,None,None,361.8927992999088,None,362.69383613991084,None,,,,12016,0001,2022_May_18_1807,localizer,2021.1.3,59.10993440968605,
block,faces,faces055.bmp,,,,,0,184,184,184,,,,,,,,,,,,,,,,,,,,,,,,,,,,,,,,,,,,,,,,,,None,,362.69383613991084,None,362.69383613991084,None,2022-05-18-18:12:56.280037,362.70298329996876,363.0113025000319,362.70298329996876,None,None,362.70298329996876,None,363.511080840067,None,,,,12016,0001,2022_May_18_1807,localizer,2021.1.3,59.10993440968605,
block,faces,faces011.bmp,,,,,0,185,185,185,,,,,,,,,,,,,,,,,,,,,,,,,,,,,,,,,,,,,,,,,,None,,363.511080840067,None,363.511080840067,None,2022-05-18-18:12:57.097273,363.5121661000885,363.8280523000285,363.5121661000885,None,None,363.5121661000885,None,364.32778554006944,None,,,,12016,0001,2022_May_18_1807,localizer,2021.1.3,59.10993440968605,
block,faces,faces043.bmp,,,,,0,186,186,186,,,,,,,,,,,,,,,,,,,,,,,,,,,,,,,,,,,,,,,,,,None,,364.32778554006944,None,364.32778554006944,None,2022-05-18-18:12:57.913977,364.3394812999759,364.6445234999992,364.3394812999759,None,None,364.3394812999759,None,365.1446338400012,None,,,,12016,0001,2022_May_18_1807,localizer,2021.1.3,59.10993440968605,
block,faces,faces024.bmp,,,,,0,187,187,187,,,,,,,,,,,,,,,,,,,,,,,,,,,,,,,,,,,,,,,,,,None,,365.1446338400012,None,365.1446338400012,None,2022-05-18-18:12:58.731820,365.1567784999497,365.46148300007917,365.1567784999497,None,None,365.1567784999497,None,365.96108524005393,None,,,,12016,0001,2022_May_18_1807,localizer,2021.1.3,59.10993440968605,
block,faces,faces082.bmp,,,,,0,188,188,188,,,,,,,,,,,,,,,,,,,,,,,,,,,,,,,,,,,,,,,,,,None,,365.96108524005393,None,365.96108524005393,None,2022-05-18-18:12:59.547506,365.97231180011295,366.27834490011446,365.97231180011295,None,None,365.97231180011295,None,366.7775854400126,None,,,,12016,0001,2022_May_18_1807,localizer,2021.1.3,59.10993440968605,
block,faces,faces077.bmp,,,,,0,189,189,189,,,,,,,,,,,,,,,,,,,,,,,,,,,,,,,,,,,,,,,,,,None,,366.7775854400126,None,366.7775854400126,None,2022-05-18-18:13:00.363684,366.7890645998996,367.0938872001134,366.7890645998996,None,None,366.7890645998996,None,367.59418713992926,None,,,,12016,0001,2022_May_18_1807,localizer,2021.1.3,59.10993440968605,
block,faces,faces080.bmp,,,,,0,190,190,190,,,,,,,,,,,,,,,,,,,,,,,,,,,,,,,,,,,,,,,,,,None,,367.59418713992926,None,367.59418713992926,None,2022-05-18-18:13:01.180611,367.607401000103,367.91118939989246,367.607401000103,None,None,367.607401000103,None,368.4109635398956,None,,,,12016,0001,2022_May_18_1807,localizer,2021.1.3,59.10993440968605,
block,faces,faces037.bmp,,,,,0,191,191,191,,,,,,,,,,,,,,,,,,,,,,,,,,,,,,,,,,,,,,,,,,None,,368.4109635398956,None,368.4109635398956,None,2022-05-18-18:13:01.997357,368.4228779999539,368.7278662000317,368.4228779999539,None,None,368.4228779999539,None,369.2277121401159,None,,,,12016,0001,2022_May_18_1807,localizer,2021.1.3,59.10993440968605,
block,faces,faces066.bmp,,,,,0,192,192,192,,,,,,,,,,,,,,,,,,,,,,,,,,,,,,,,,,,,,,,,,,None,,369.2277121401159,None,369.2277121401159,None,2022-05-18-18:13:02.813908,369.2288695999887,369.54473860003054,369.2288695999887,None,None,369.2288695999887,None,370.0444277400849,None,,,,12016,0001,2022_May_18_1807,localizer,2021.1.3,59.10993440968605,
block,faces,faces009.bmp,,,,,0,193,193,193,,,,,,,,,,,,,,,,,,,,,,,,,,,,,,,,,,,,,,,,,,None,,370.0444277400849,None,370.0444277400849,None,2022-05-18-18:13:03.630804,370.0455595999956,370.3615453999955,370.0455595999956,None,None,370.0455595999956,None,370.84490574004593,None,,,,12016,0001,2022_May_18_1807,localizer,2021.1.3,59.10993440968605,
block,faces,faces070.bmp,,,,,0,194,194,194,,,,,,,,,,,,,,,,,,,,,,,,,,,,,,,,,,,,,,,,,,None,,370.84490574004593,None,370.84490574004593,None,2022-05-18-18:13:04.434076,370.86047630012035,371.1613219999708,370.86047630012035,370.86047630012035,None,370.86047630012035,370.86047630012035,371.66311914001125,None,,,,12016,0001,2022_May_18_1807,localizer,2021.1.3,59.10993440968605,
block,faces,faces074.bmp,,,,,0,195,195,195,,,,,,,,,,,,,,,,,,,,,,,,,,,,,,,,,,,,,,,,,,None,,371.66311914001125,None,371.66311914001125,None,2022-05-18-18:13:05.252456,371.6796995999757,371.9949539999943,371.6796995999757,None,None,371.6796995999757,None,372.4787420399254,None,,,,12016,0001,2022_May_18_1807,localizer,2021.1.3,59.10993440968605,
block,faces,faces083.bmp,,,,,0,196,196,196,,,,,,,,,,,,,,,,,,,,,,,,,,,,,,,,,,,,,,,,,,None,,372.4787420399254,None,372.4787420399254,None,2022-05-18-18:13:06.066105,372.4814565998968,372.79450879991055,372.4814565998968,None,None,372.4814565998968,None,373.29458114008884,None,,,,12016,0001,2022_May_18_1807,localizer,2021.1.3,59.10993440968605,
block_end,faces,faces027.bmp,,,,,0,197,197,197,,,,,,,,,,,,,,,,,,,,,,,,,,,,,,,,,,,,,,,,,,None,,373.29458114008884,None,373.29458114008884,None,2022-05-18-18:13:06.880980,373.30584209994413,373.611242499901,373.30584209994413,None,None,373.30584209994413,None,374.11200754011514,None,,,,12016,0001,2022_May_18_1807,localizer,2021.1.3,59.10993440968605,
block_start,scrambled,scrambled009.bmp,,,,,0,198,198,198,,,,,,,,,,,,,,,,,,,,,,,,,,,,,,,,,,,,,,,,,,t,1.751998299965635,374.11089799995534,None,374.11089799995534,None,2022-05-18-18:13:09.465766,375.88109760009684,376.19446659996174,375.88109760009684,None,None,375.88109760009684,None,376.69403254000935,None,,,,12016,0001,2022_May_18_1807,localizer,2021.1.3,59.10993440968605,
block,scrambled,scrambled011.bmp,,,,,0,199,199,199,,,,,,,,,,,,,,,,,,,,,,,,,,,,,,,,,,,,,,,,,,None,,376.69403254000935,None,376.69403254000935,None,2022-05-18-18:13:10.280235,376.69579669996165,377.01121899997815,376.69579669996165,None,None,376.69579669996165,None,377.4964364400832,None,,,,12016,0001,2022_May_18_1807,localizer,2021.1.3,59.10993440968605,
block,scrambled,scrambled019.bmp,,,,,0,200,200,200,,,,,,,,,,,,,,,,,,,,,,,,,,,,,,,,,,,,,,,,,,None,,377.4964364400832,None,377.4964364400832,None,2022-05-18-18:13:11.088781,377.51553640002385,377.82929820008576,377.51553640002385,377.51553640002385,None,377.51553640002385,377.51553640002385,378.3113487399416,None,,,,12016,0001,2022_May_18_1807,localizer,2021.1.3,59.10993440968605,
block,scrambled,scrambled079.bmp,,,,,0,201,201,201,,,,,,,,,,,,,,,,,,,,,,,,,,,,,,,,,,,,,,,,,,None,,378.3113487399416,None,378.3113487399416,None,2022-05-18-18:13:11.897521,378.32149709993973,378.62763060000725,378.32149709993973,None,None,378.32149709993973,None,379.1268155399477,None,,,,12016,0001,2022_May_18_1807,localizer,2021.1.3,59.10993440968605,
block,scrambled,scrambled046.bmp,,,,,0,202,202,202,,,,,,,,,,,,,,,,,,,,,,,,,,,,,,,,,,,,,,,,,,None,,379.1268155399477,None,379.1268155399477,None,2022-05-18-18:13:12.712995,379.12989649991505,379.4445183998905,379.12989649991505,None,None,379.12989649991505,None,379.9445348399924,None,,,,12016,0001,2022_May_18_1807,localizer,2021.1.3,59.10993440968605,
block,scrambled,scrambled069.bmp,,,,,0,203,203,203,,,,,,,,,,,,,,,,,,,,,,,,,,,,,,,,,,,,,,,,,,None,,379.9445348399924,None,379.9445348399924,None,2022-05-18-18:13:13.530933,379.95586839993484,380.2613699999638,379.95586839993484,None,None,379.95586839993484,None,380.76079993990714,None,,,,12016,0001,2022_May_18_1807,localizer,2021.1.3,59.10993440968605,
block,scrambled,scrambled006.bmp,,,,,0,204,204,204,,,,,,,,,,,,,,,,,,,,,,,,,,,,,,,,,,,,,,,,,,None,,380.76079993990714,None,380.76079993990714,None,2022-05-18-18:13:14.347004,380.7623310999479,381.061929800082,380.7623310999479,None,None,380.7623310999479,None,381.56135373997967,None,,,,12016,0001,2022_May_18_1807,localizer,2021.1.3,59.10993440968605,
block,scrambled,scrambled025.bmp,,,,,0,205,205,205,,,,,,,,,,,,,,,,,,,,,,,,,,,,,,,,,,,,,,,,,,None,,381.56135373997967,None,381.56135373997967,None,2022-05-18-18:13:15.149736,381.5741161000915,381.87854030006565,381.5741161000915,381.5741161000915,None,381.5741161000915,381.5741161000915,382.37817763995844,None,,,,12016,0001,2022_May_18_1807,localizer,2021.1.3,59.10993440968605,
block,scrambled,scrambled057.bmp,,,,,0,206,206,206,,,,,,,,,,,,,,,,,,,,,,,,,,,,,,,,,,,,,,,,,,None,,382.37817763995844,None,382.37817763995844,None,2022-05-18-18:13:15.965367,382.3893653000705,382.6943284000736,382.3893653000705,None,None,382.3893653000705,None,383.1950422398979,None,,,,12016,0001,2022_May_18_1807,localizer,2021.1.3,59.10993440968605,
block,scrambled,scrambled068.bmp,,,,,0,207,207,207,,,,,,,,,,,,,,,,,,,,,,,,,,,,,,,,,,,,,,,,,,None,,383.1950422398979,None,383.1950422398979,None,2022-05-18-18:13:16.782166,383.1966172999237,383.51133179990575,383.1966172999237,None,None,383.1966172999237,None,383.99568234004545,None,,,,12016,0001,2022_May_18_1807,localizer,2021.1.3,59.10993440968605,
block,scrambled,scrambled068.bmp,,,,,0,208,208,208,,,,,,,,,,,,,,,,,,,,,,,,,,,,,,,,,,,,,,,,,,None,,383.99568234004545,None,383.99568234004545,None,2022-05-18-18:13:17.586039,384.0002689999528,384.3124051000923,384.0002689999528,384.0002689999528,None,384.0002689999528,384.0002689999528,384.8107523400569,None,,,,12016,0001,2022_May_18_1807,localizer,2021.1.3,59.10993440968605,
block,scrambled,scrambled023.bmp,,,,,0,209,209,209,,,,,,,,,,,,,,,,,,,,,,,,,,,,,,,,,,,,,,,,,,None,,384.8107523400569,None,384.8107523400569,None,2022-05-18-18:13:18.395766,384.8125513000414,385.1279066000134,384.8125513000414,None,None,384.8125513000414,None,385.61175834008026,None,,,,12016,0001,2022_May_18_1807,localizer,2021.1.3,59.10993440968605,
block,scrambled,scrambled022.bmp,,,,,0,210,210,210,,,,,,,,,,,,,,,,,,,,,,,,,,,,,,,,,,,,,,,,,,None,,385.61175834008026,None,385.61175834008026,None,2022-05-18-18:13:19.200916,385.62528909998946,385.9281516999472,385.62528909998946,385.62528909998946,None,385.62528909998946,385.62528909998946,386.4283023399068,None,,,,12016,0001,2022_May_18_1807,localizer,2021.1.3,59.10993440968605,
block,scrambled,scrambled030.bmp,,,,,0,211,211,211,,,,,,,,,,,,,,,,,,,,,,,,,,,,,,,,,,,,,,,,,,None,,386.4283023399068,None,386.4283023399068,None,2022-05-18-18:13:20.015540,386.43003920000046,386.74512910004705,386.43003920000046,None,None,386.43003920000046,None,387.22909533993806,None,,,,12016,0001,2022_May_18_1807,localizer,2021.1.3,59.10993440968605,
block_end,scrambled,scrambled040.bmp,,,,,0,212,212,212,,,,,,,,,,,,,,,,,,,,,,,,,,,,,,,,,,,,,,,,,,None,,387.22909533993806,None,387.22909533993806,None,2022-05-18-18:13:20.821242,387.23562499997206,387.5451813999098,387.23562499997206,387.23562499997206,None,387.23562499997206,387.23562499997206,388.04574123995843,None,,,,12016,0001,2022_May_18_1807,localizer,2021.1.3,59.10993440968605,
null_block,null_block,null_block.bmp,,,,,0,213,213,213,,,,,,,,,,,,,,,,,,,,,,,,,,,,,,,,,,,,,,,,,,t,1.8172617999371141,388.045929600019,None,388.045929600019,None,2022-05-18-18:13:23.465738,389.8783635400934,None,389.8783635400934,None,None,389.8783635400934,None,389.88444630010054,None,,,,12016,0001,2022_May_18_1807,localizer,2021.1.3,59.10993440968605,
block_start,scenes,scenes078.bmp,,,,,0,214,214,214,,,,,,,,,,,,,,,,,,,,,,,,,,,,,,,,,,,,,,,,,,t,1.9680866000708193,401.8949837000109,None,401.8949837000109,None,2022-05-18-18:13:37.464909,403.8903107000515,404.19488650001585,403.8903107000515,None,None,403.8903107000515,None,404.6952088400023,None,,,,12016,0001,2022_May_18_1807,localizer,2021.1.3,59.10993440968605,
block,scenes,scenes029.bmp,,,,,0,215,215,215,,,,,,,,,,,,,,,,,,,,,,,,,,,,,,,,,,,,,,,,,,None,,404.6952088400023,None,404.6952088400023,None,2022-05-18-18:13:38.282349,404.7072894999292,405.0116359000094,404.7072894999292,None,None,404.7072894999292,None,405.51195623998063,None,,,,12016,0001,2022_May_18_1807,localizer,2021.1.3,59.10993440968605,
block,scenes,scenes034.bmp,,,,,0,216,216,216,,,,,,,,,,,,,,,,,,,,,,,,,,,,,,,,,,,,,,,,,,None,,405.51195623998063,None,405.51195623998063,None,2022-05-18-18:13:39.099342,405.5142616000958,405.8290550999809,405.5142616000958,None,None,405.5142616000958,None,406.32858953990507,None,,,,12016,0001,2022_May_18_1807,localizer,2021.1.3,59.10993440968605,
block,scenes,scenes063.bmp,,,,,0,217,217,217,,,,,,,,,,,,,,,,,,,,,,,,,,,,,,,,,,,,,,,,,,None,,406.32858953990507,None,406.32858953990507,None,2022-05-18-18:13:39.915972,406.3421853000764,406.64464469999075,406.3421853000764,None,None,406.3421853000764,None,407.1447324400535,None,,,,12016,0001,2022_May_18_1807,localizer,2021.1.3,59.10993440968605,
block,scenes,scenes038.bmp,,,,,0,218,218,218,,,,,,,,,,,,,,,,,,,,,,,,,,,,,,,,,,,,,,,,,,None,,407.1447324400535,None,407.1447324400535,None,2022-05-18-18:13:40.730930,407.1567887000274,407.4616980999708,407.1567887000274,None,None,407.1567887000274,None,407.96167923992033,None,,,,12016,0001,2022_May_18_1807,localizer,2021.1.3,59.10993440968605,
block,scenes,scenes066.bmp,,,,,0,219,219,219,,,,,,,,,,,,,,,,,,,,,,,,,,,,,,,,,,,,,,,,,,None,,407.96167923992033,None,407.96167923992033,None,2022-05-18-18:13:41.547872,407.9624278000556,408.2784754000604,407.9624278000556,None,None,407.9624278000556,None,408.76187164003494,None,,,,12016,0001,2022_May_18_1807,localizer,2021.1.3,59.10993440968605,
block,scenes,scenes077.bmp,,,,,0,220,220,220,,,,,,,,,,,,,,,,,,,,,,,,,,,,,,,,,,,,,,,,,,None,,408.76187164003494,None,408.76187164003494,None,2022-05-18-18:13:42.351254,408.7767797000706,409.07834629993886,408.7767797000706,408.7767797000706,None,408.7767797000706,408.7767797000706,409.5781729399925,None,,,,12016,0001,2022_May_18_1807,localizer,2021.1.3,59.10993440968605,
block,scenes,scenes015.bmp,,,,,0,221,221,221,,,,,,,,,,,,,,,,,,,,,,,,,,,,,,,,,,,,,,,,,,None,,409.5781729399925,None,409.5781729399925,None,2022-05-18-18:13:43.164679,409.5895225000568,409.8949301999528,409.5895225000568,None,None,409.5895225000568,None,410.39579534011426,None,,,,12016,0001,2022_May_18_1807,localizer,2021.1.3,59.10993440968605,
block,scenes,scenes030.bmp,,,,,0,222,222,222,,,,,,,,,,,,,,,,,,,,,,,,,,,,,,,,,,,,,,,,,,None,,410.39579534011426,None,410.39579534011426,None,2022-05-18-18:13:43.982994,410.4086331001017,410.71131299994886,410.4086331001017,None,None,410.4086331001017,None,411.2110676399199,None,,,,12016,0001,2022_May_18_1807,localizer,2021.1.3,59.10993440968605,
block,scenes,scenes014.bmp,,,,,0,223,223,223,,,,,,,,,,,,,,,,,,,,,,,,,,,,,,,,,,,,,,,,,,None,,411.2110676399199,None,411.2110676399199,None,2022-05-18-18:13:44.797272,411.21267320006154,411.5284130999353,411.21267320006154,None,None,411.21267320006154,None,412.01176034000235,None,,,,12016,0001,2022_May_18_1807,localizer,2021.1.3,59.10993440968605,
block,scenes,scenes028.bmp,,,,,0,224,224,224,,,,,,,,,,,,,,,,,,,,,,,,,,,,,,,,,,,,,,,,,,None,,412.01176034000235,None,412.01176034000235,None,2022-05-18-18:13:45.600945,412.02538920007646,412.32824719999917,412.02538920007646,412.02538920007646,None,412.02538920007646,412.02538920007646,412.82872164009603,None,,,,12016,0001,2022_May_18_1807,localizer,2021.1.3,59.10993440968605,
block,scenes,scenes011.bmp,,,,,0,225,225,225,,,,,,,,,,,,,,,,,,,,,,,,,,,,,,,,,,,,,,,,,,None,,412.82872164009603,None,412.82872164009603,None,2022-05-18-18:13:46.416120,412.84063070011325,413.1467055999674,412.84063070011325,None,None,412.84063070011325,None,413.6444946401054,None,,,,12016,0001,2022_May_18_1807,localizer,2021.1.3,59.10993440968605,
block,scenes,scenes092.bmp,,,,,0,226,226,226,,,,,,,,,,,,,,,,,,,,,,,,,,,,,,,,,,,,,,,,,,None,,413.6444946401054,None,413.6444946401054,None,2022-05-18-18:13:47.230662,413.65329140005633,413.96218929998577,413.65329140005633,None,None,413.65329140005633,None,414.46191593997645,None,,,,12016,0001,2022_May_18_1807,localizer,2021.1.3,59.10993440968605,
block,scenes,scenes009.bmp,,,,,0,227,227,227,,,,,,,,,,,,,,,,,,,,,,,,,,,,,,,,,,,,,,,,,,None,,414.46191593997645,None,414.46191593997645,None,2022-05-18-18:13:48.049300,414.4740458999295,414.7780836999882,414.4740458999295,None,None,414.4740458999295,None,415.27816203997935,None,,,,12016,0001,2022_May_18_1807,localizer,2021.1.3,59.10993440968605,
block_end,scenes,scenes003.bmp,,,,,0,228,228,228,,,,,,,,,,,,,,,,,,,,,,,,,,,,,,,,,,,,,,,,,,None,,415.27816203997935,None,415.27816203997935,None,2022-05-18-18:13:48.864512,415.2791665000841,415.5947567000985,415.2791665000841,None,None,415.2791665000841,None,416.0804768399568,None,,,,12016,0001,2022_May_18_1807,localizer,2021.1.3,59.10993440968605,
block_start,objects,objects059.bmp,,,,,0,229,229,229,,,,,,,,,,,,,,,,,,,,,,,,,,,,,,,,,,,,,,,,,,t,1.7820004997774959,416.0809122999199,None,416.0809122999199,None,2022-05-18-18:13:51.465774,417.8794056000188,418.1952166000847,417.8794056000188,None,None,417.8794056000188,None,418.69487953993956,None,,,,12016,0001,2022_May_18_1807,localizer,2021.1.3,59.10993440968605,
block,objects,objects025.bmp,,,,,0,230,230,230,,,,,,,,,,,,,,,,,,,,,,,,,,,,,,,,,,,,,,,,,,None,,418.69487953993956,None,418.69487953993956,None,2022-05-18-18:13:52.281058,418.70616309996694,419.0116483999882,418.70616309996694,None,None,418.70616309996694,None,419.5116569399135,None,,,,12016,0001,2022_May_18_1807,localizer,2021.1.3,59.10993440968605,
block,objects,objects037.bmp,,,,,0,231,231,231,,,,,,,,,,,,,,,,,,,,,,,,,,,,,,,,,,,,,,,,,,None,,419.5116569399135,None,419.5116569399135,None,2022-05-18-18:13:53.098991,419.512742199935,419.8283714998979,419.512742199935,None,None,419.512742199935,None,420.3281972400611,None,,,,12016,0001,2022_May_18_1807,localizer,2021.1.3,59.10993440968605,
block,objects,objects013.bmp,,,,,0,232,232,232,,,,,,,,,,,,,,,,,,,,,,,,,,,,,,,,,,,,,,,,,,None,,420.3281972400611,None,420.3281972400611,None,2022-05-18-18:13:53.914397,420.3291380999144,420.6314662999939,420.3291380999144,None,None,420.3291380999144,None,421.13430144002194,None,,,,12016,0001,2022_May_18_1807,localizer,2021.1.3,59.10993440968605,
block,objects,objects052.bmp,,,,,0,233,233,233,,,,,,,,,,,,,,,,,,,,,,,,,,,,,,,,,,,,,,,,,,None,,421.13430144002194,None,421.13430144002194,None,2022-05-18-18:13:54.724549,421.14981169998646,421.46179370000027,421.14981169998646,None,None,421.14981169998646,None,421.9451902400935,None,,,,12016,0001,2022_May_18_1807,localizer,2021.1.3,59.10993440968605,
block,objects,objects028.bmp,,,,,0,234,234,234,,,,,,,,,,,,,,,,,,,,,,,,,,,,,,,,,,,,,,,,,,None,,421.9451902400935,None,421.9451902400935,None,2022-05-18-18:13:55.532574,421.94615840003826,422.26268159993924,421.94615840003826,None,None,421.94615840003826,None,422.7615715399617,None,,,,12016,0001,2022_May_18_1807,localizer,2021.1.3,59.10993440968605,
block,objects,objects058.bmp,,,,,0,235,235,235,,,,,,,,,,,,,,,,,,,,,,,,,,,,,,,,,,,,,,,,,,None,,422.7615715399617,None,422.7615715399617,None,2022-05-18-18:13:56.347769,422.772871500114,423.0826236999128,422.772871500114,None,None,422.772871500114,None,423.57828224000986,None,,,,12016,0001,2022_May_18_1807,localizer,2021.1.3,59.10993440968605,
block,objects,objects005.bmp,,,,,0,236,236,236,,,,,,,,,,,,,,,,,,,,,,,,,,,,,,,,,,,,,,,,,,None,,423.57828224000986,None,423.57828224000986,None,2022-05-18-18:13:57.165688,423.59060220001265,423.8952601000201,423.59060220001265,None,None,423.59060220001265,None,424.39486574002075,None,,,,12016,0001,2022_May_18_1807,localizer,2021.1.3,59.10993440968605,
block,objects,objects082.bmp,,,,,0,237,237,237,,,,,,,,,,,,,,,,,,,,,,,,,,,,,,,,,,,,,,,,,,None,,424.39486574002075,None,424.39486574002075,None,2022-05-18-18:13:57.981143,424.40553009998985,424.7118148000445,424.40553009998985,None,None,424.40553009998985,None,425.21163153990636,None,,,,12016,0001,2022_May_18_1807,localizer,2021.1.3,59.10993440968605,
block,objects,objects055.bmp,,,,,0,238,238,238,,,,,,,,,,,,,,,,,,,,,,,,,,,,,,,,,,,,,,,,,,None,,425.21163153990636,None,425.21163153990636,None,2022-05-18-18:13:58.798042,425.22291380004026,425.528528300114,425.22291380004026,None,None,425.22291380004026,None,426.0283477401128,None,,,,12016,0001,2022_May_18_1807,localizer,2021.1.3,59.10993440968605,
block,objects,objects077.bmp,,,,,0,239,239,239,,,,,,,,,,,,,,,,,,,,,,,,,,,,,,,,,,,,,,,,,,None,,426.0283477401128,None,426.0283477401128,None,2022-05-18-18:13:59.614731,426.0292990000453,426.3289564999286,426.0292990000453,None,None,426.0292990000453,None,426.8346998399822,None,,,,12016,0001,2022_May_18_1807,localizer,2021.1.3,59.10993440968605,
block,objects,objects085.bmp,,,,,0,240,240,240,,,,,,,,,,,,,,,,,,,,,,,,,,,,,,,,,,,,,,,,,,None,,426.8346998399822,None,426.8346998399822,None,2022-05-18-18:14:00.425769,426.84917839989066,427.16175709990785,426.84917839989066,None,None,426.84917839989066,None,427.6494214399019,None,,,,12016,0001,2022_May_18_1807,localizer,2021.1.3,59.10993440968605,
block,objects,objects043.bmp,,,,,0,241,241,241,,,,,,,,,,,,,,,,,,,,,,,,,,,,,,,,,,,,,,,,,,None,,427.6494214399019,None,427.6494214399019,None,2022-05-18-18:14:01.238670,427.6610574000515,427.9620485000778,427.6610574000515,None,None,427.6610574000515,None,428.46195974007713,None,,,,12016,0001,2022_May_18_1807,localizer,2021.1.3,59.10993440968605,
block,objects,objects063.bmp,,,,,0,242,242,242,,,,,,,,,,,,,,,,,,,,,,,,,,,,,,,,,,,,,,,,,,None,,428.46195974007713,None,428.46195974007713,None,2022-05-18-18:14:02.049361,428.4629323000554,428.7623892999254,428.4629323000554,None,None,428.4629323000554,None,429.2778206399409,None,,,,12016,0001,2022_May_18_1807,localizer,2021.1.3,59.10993440968605,
block_end,objects,objects039.bmp,,,,,0,243,243,243,,,,,,,,,,,,,,,,,,,,,,,,,,,,,,,,,,,,,,,,,,None,,429.2778206399409,None,429.2778206399409,None,2022-05-18-18:14:02.864088,429.28674439992756,429.59451749990694,429.28674439992756,None,None,429.28674439992756,None,430.09497343997936,None,,,,12016,0001,2022_May_18_1807,localizer,2021.1.3,59.10993440968605,
,,,,,,,,,,,,,,,,,,,,,,,,,,,,,,,,,,,,,,,,,,,,,,,,,,,,,,,,,,,,,,,,,,,,,430.09502999996766,None,,,,,,,
