block_type,condition,img_name,Button.thisRepN,Button.thisTrialN,Button.thisN,Button.thisIndex,trials.thisRepN,trials.thisTrialN,trials.thisN,trials.thisIndex,Ready_experimenter_text.started,Ready_experimenter_text.stopped,Ready_experimenter_resp.keys,Ready_experimenter_resp.rt,Ready_experimenter_resp.started,Ready_experimenter_resp.stopped,Alignment_background.started,Alignment_background.stopped,Alignment_image.started,Alignment_image.stopped,Alignment_resp.keys,Alignment_resp.rt,Alignment_resp.started,Alignment_resp.stopped,Button_text.started,Button_text.stopped,Index_text.started,Index_text.stopped,Index_resp.keys,Index_resp.rt,Index_resp.started,Index_resp.stopped,Middle_text.started,Middle_text.stopped,Middle_resp.keys,Middle_resp.rt,Middle_resp.started,Middle_resp.stopped,Repeat_text.started,Repeat_text.stopped,Repeat_resp.keys,Repeat_resp.corr,Repeat_resp.rt,Repeat_resp.started,Repeat_resp.stopped,instruction_text.started,instruction_text.stopped,key_resp.keys,key_resp.rt,key_resp.started,key_resp.stopped,scanner_t.keys,scanner_t.rt,scanner_t.started,scanner_t.stopped,fixation_wait_for_t.started,fixation_wait_for_t.stopped,real_timestamp_trial_start,image.started,image.stopped,fixation.started,fixation.stopped,repeat_response.keys,repeat_response.started,repeat_response.stopped,fixation_null.started,fixation_null.stopped,repeat_response.rt,end_text.started,end_text.stopped,participant,run,date,expName,psychopyVersion,frameRate,
,,,,,,,,,,,8.078628499992192,None,return,0.5053247001487762,8.078628499992192,None,,,,,,,,,,,,,,,,,,,,,,,,,,,,,,,,,,,,,,,,,,,,,,,,,,,,,,,12005,0001,2021_Oct_15_1230,localizer,2021.1.3,61.82242620966559,
,,,,,,,,,,,,,,,,,8.633396399905905,None,8.633396399905905,None,return,0.479756599990651,8.633396399905905,None,,,,,,,,,,,,,,,,,,,,,,,,,,,,,,,,,,,,,,,,,,,,,,,12005,0001,2021_Oct_15_1230,localizer,2021.1.3,61.82242620966559,
,,,0,0,0,0,,,,,,,,,,,,,,,,,,,9.137352099874988,None,10.137473899871111,None,y,6.005252699833363,10.137473899871111,None,16.17166529991664,None,b,2.4580894000828266,16.17166529991664,None,18.655323299812153,None,n,0,16.70973809994757,18.655323299812153,None,,,,,,,,,,,,,,,,,,,,,,,,,,12005,0001,2021_Oct_15_1230,localizer,2021.1.3,61.82242620966559,
,,,,,,,,,,,,,,,,,,,,,,,,,,,,,,,,,,,,,,,,,,,,,,35.388326099840924,None,y,7.814705099910498,35.388326099840924,None,,,,,,,,,,,,,,,,,,,,12005,0001,2021_Oct_15_1230,localizer,2021.1.3,61.82242620966559,
null_block,null_block,null_block.bmp,,,,,0,0,0,0,,,,,,,,,,,,,,,,,,,,,,,,,,,,,,,,,,,,,,,,,,t,113.63665310014039,43.29978249990381,None,43.29978249990381,None,2021-10-15-12:33:04.556129,156.9719663599506,None,156.9719663599506,None,None,156.9719663599506,None,156.97471209987998,None,,,,12005,0001,2021_Oct_15_1230,localizer,2021.1.3,61.82242620966559,
block_start,objects,objects001.bmp,,,,,0,1,1,1,,,,,,,,,,,,,,,,,,,,,,,,,,,,,,,,,,,,,,,,,,t,1.9473437000997365,168.9881453998387,None,168.9881453998387,None,2021-10-15-12:33:18.558056,170.96604279987514,171.2712933998555,170.96604279987514,None,None,170.96604279987514,None,171.77170903000516,None,,,,12005,0001,2021_Oct_15_1230,localizer,2021.1.3,61.82242620966559,
block,objects,objects077.bmp,,,,,0,2,2,2,,,,,,,,,,,,,,,,,,,,,,,,,,,,,,,,,,,,,,,,,,None,,171.77170903000516,None,171.77170903000516,None,2021-10-15-12:33:19.373142,171.78157150000334,172.08846309990622,171.78157150000334,None,None,171.78157150000334,None,172.58977032986004,None,,,,12005,0001,2021_Oct_15_1230,localizer,2021.1.3,61.82242620966559,
block,objects,objects046.bmp,,,,,0,3,3,3,,,,,,,,,,,,,,,,,,,,,,,,,,,,,,,,,,,,,,,,,,None,,172.58977032986004,None,172.58977032986004,None,2021-10-15-12:33:20.192366,172.60158539982513,172.9053036000114,172.60158539982513,None,None,172.60158539982513,None,173.4057464299025,None,,,,12005,0001,2021_Oct_15_1230,localizer,2021.1.3,61.82242620966559,
block,objects,objects032.bmp,,,,,0,4,4,4,,,,,,,,,,,,,,,,,,,,,,,,,,,,,,,,,,,,,,,,,,None,,173.4057464299025,None,173.4057464299025,None,2021-10-15-12:33:21.006531,173.4138044998981,173.7216652999632,173.4138044998981,None,None,173.4138044998981,None,174.22243122986984,None,,,,12005,0001,2021_Oct_15_1230,localizer,2021.1.3,61.82242620966559,
block,objects,objects026.bmp,,,,,0,5,5,5,,,,,,,,,,,,,,,,,,,,,,,,,,,,,,,,,,,,,,,,,,None,,174.22243122986984,None,174.22243122986984,None,2021-10-15-12:33:21.825941,174.23487449996173,174.53853269992396,174.23487449996173,None,None,174.23487449996173,None,175.04110012992751,None,,,,12005,0001,2021_Oct_15_1230,localizer,2021.1.3,61.82242620966559,
block,objects,objects009.bmp,,,,,0,6,6,6,,,,,,,,,,,,,,,,,,,,,,,,,,,,,,,,,,,,,,,,,,None,,175.0744563899236,None,175.0744563899236,None,2021-10-15-12:33:22.674689,175.08157519996166,175.38957019988447,175.08157519996166,None,None,175.08157519996166,None,175.88846813000274,None,,,,12005,0001,2021_Oct_15_1230,localizer,2021.1.3,61.82242620966559,
block,objects,objects035.bmp,,,,,0,7,7,7,,,,,,,,,,,,,,,,,,,,,,,,,,,,,,,,,,,,,,,,,,None,,175.88846813000274,None,175.88846813000274,None,2021-10-15-12:33:23.489904,175.89727650000714,176.20497710001655,175.89727650000714,None,None,175.89727650000714,None,176.70503882991616,None,,,,12005,0001,2021_Oct_15_1230,localizer,2021.1.3,61.82242620966559,
block,objects,objects008.bmp,,,,,0,8,8,8,,,,,,,,,,,,,,,,,,,,,,,,,,,,,,,,,,,,,,,,,,None,,176.70503882991616,None,176.70503882991616,None,2021-10-15-12:33:24.306470,176.7143043000251,177.02153889997862,176.7143043000251,None,None,176.7143043000251,None,177.5217112300219,None,,,,12005,0001,2021_Oct_15_1230,localizer,2021.1.3,61.82242620966559,
block,objects,objects039.bmp,,,,,0,9,9,9,,,,,,,,,,,,,,,,,,,,,,,,,,,,,,,,,,,,,,,,,,None,,177.5217112300219,None,177.5217112300219,None,2021-10-15-12:33:25.124155,177.53145259991288,177.83842969988473,177.53145259991288,None,None,177.53145259991288,None,178.33817822996062,None,,,,12005,0001,2021_Oct_15_1230,localizer,2021.1.3,61.82242620966559,
block,objects,objects014.bmp,,,,,0,10,10,10,,,,,,,,,,,,,,,,,,,,,,,,,,,,,,,,,,,,,,,,,,None,,178.33817822996062,None,178.33817822996062,None,2021-10-15-12:33:25.939616,178.34628619998693,178.6548287998885,178.34628619998693,None,None,178.34628619998693,None,179.1549643298844,None,,,,12005,0001,2021_Oct_15_1230,localizer,2021.1.3,61.82242620966559,
block,objects,objects079.bmp,,,,,0,11,11,11,,,,,,,,,,,,,,,,,,,,,,,,,,,,,,,,,,,,,,,,,,None,,179.1549643298844,None,179.1549643298844,None,2021-10-15-12:33:26.756400,179.16325649991632,179.4714673999697,179.16325649991632,None,None,179.16325649991632,None,179.96146032980178,None,,,,12005,0001,2021_Oct_15_1230,localizer,2021.1.3,61.82242620966559,
block,objects,objects025.bmp,,,,,0,12,12,12,,,,,,,,,,,,,,,,,,,,,,,,,,,,,,,,,,,,,,,,,,None,,179.96146032980178,None,179.96146032980178,None,2021-10-15-12:33:27.566849,179.9761347998865,180.2882003998384,179.9761347998865,None,None,179.9761347998865,None,180.77297242984642,None,,,,12005,0001,2021_Oct_15_1230,localizer,2021.1.3,61.82242620966559,
block,objects,objects022.bmp,,,,,0,13,13,13,,,,,,,,,,,,,,,,,,,,,,,,,,,,,,,,,,,,,,,,,,None,,180.77297242984642,None,180.77297242984642,None,2021-10-15-12:33:28.376489,180.7867018999532,181.08873829990625,180.7867018999532,None,None,180.7867018999532,None,181.5881461298326,None,,,,12005,0001,2021_Oct_15_1230,localizer,2021.1.3,61.82242620966559,
block,objects,objects085.bmp,,,,,0,14,14,14,,,,,,,,,,,,,,,,,,,,,,,,,,,,,,,,,,,,,,,,,,None,,181.5881461298326,None,181.5881461298326,None,2021-10-15-12:33:29.189582,181.59719789982773,181.90483869984746,181.59719789982773,None,None,181.59719789982773,None,182.4059526298428,None,,,,12005,0001,2021_Oct_15_1230,localizer,2021.1.3,61.82242620966559,
block_end,objects,objects053.bmp,,,,,0,15,15,15,,,,,,,,,,,,,,,,,,,,,,,,,,,,,,,,,,,,,,,,,,None,,182.4059526298428,None,182.4059526298428,None,2021-10-15-12:33:30.008554,182.41409439989366,182.72167959995568,182.41409439989366,None,None,182.41409439989366,None,183.22351923000534,None,,,,12005,0001,2021_Oct_15_1230,localizer,2021.1.3,61.82242620966559,
block_start,faces,faces002.bmp,,,,,0,16,16,16,,,,,,,,,,,,,,,,,,,,,,,,,,,,,,,,,,,,,,,,,,t,1.7141591000836343,183.22124559991062,None,183.22124559991062,None,2021-10-15-12:33:32.558285,184.96857439982705,185.2717241998762,184.96857439982705,None,None,184.96857439982705,None,185.77177882983815,None,,,,12005,0001,2021_Oct_15_1230,localizer,2021.1.3,61.82242620966559,
block,faces,faces061.bmp,,,,,0,17,17,17,,,,,,,,,,,,,,,,,,,,,,,,,,,,,,,,,,,,,,,,,,None,,185.77177882983815,None,185.77177882983815,None,2021-10-15-12:33:33.374128,185.7826824998483,186.08813359984197,185.7826824998483,None,None,185.7826824998483,None,186.58830792990048,None,,,,12005,0001,2021_Oct_15_1230,localizer,2021.1.3,61.82242620966559,
block,faces,faces011.bmp,,,,,0,18,18,18,,,,,,,,,,,,,,,,,,,,,,,,,,,,,,,,,,,,,,,,,,None,,186.58830792990048,None,186.58830792990048,None,2021-10-15-12:33:34.189740,186.59799449983984,186.9116481000092,186.59799449983984,None,None,186.59799449983984,None,187.4062732299557,None,,,,12005,0001,2021_Oct_15_1230,localizer,2021.1.3,61.82242620966559,
block,faces,faces084.bmp,,,,,0,19,19,19,,,,,,,,,,,,,,,,,,,,,,,,,,,,,,,,,,,,,,,,,,None,,187.4062732299557,None,187.4062732299557,None,2021-10-15-12:33:35.006590,187.41022540000267,187.72182319988497,187.41022540000267,None,None,187.41022540000267,None,188.22287652988453,None,,,,12005,0001,2021_Oct_15_1230,localizer,2021.1.3,61.82242620966559,
block,faces,faces088.bmp,,,,,0,20,20,20,,,,,,,,,,,,,,,,,,,,,,,,,,,,,,,,,,,,,,,,,,None,,188.22287652988453,None,188.22287652988453,None,2021-10-15-12:33:35.826268,188.23741229996085,188.53848290001042,188.23741229996085,None,None,188.23741229996085,None,189.03813692994882,None,,,,12005,0001,2021_Oct_15_1230,localizer,2021.1.3,61.82242620966559,
block,faces,faces086.bmp,,,,,0,21,21,21,,,,,,,,,,,,,,,,,,,,,,,,,,,,,,,,,,,,,,,,,,None,,189.03813692994882,None,189.03813692994882,None,2021-10-15-12:33:36.639571,189.04732119990513,189.35524980002083,189.04732119990513,None,None,189.04732119990513,None,189.85587242988404,None,,,,12005,0001,2021_Oct_15_1230,localizer,2021.1.3,61.82242620966559,
block,faces,faces059.bmp,,,,,0,22,22,22,,,,,,,,,,,,,,,,,,,,,,,,,,,,,,,,,,,,,,,,,,None,,189.85587242988404,None,189.85587242988404,None,2021-10-15-12:33:37.458480,189.86781600001268,190.17158129997551,189.86781600001268,None,None,189.86781600001268,None,190.67137592982036,None,,,,12005,0001,2021_Oct_15_1230,localizer,2021.1.3,61.82242620966559,
block,faces,faces031.bmp,,,,,0,23,23,23,,,,,,,,,,,,,,,,,,,,,,,,,,,,,,,,,,,,,,,,,,None,,190.67137592982036,None,190.67137592982036,None,2021-10-15-12:33:38.272813,190.68041819985956,190.98829339980148,190.68041819985956,None,None,190.68041819985956,None,191.4887463298859,None,,,,12005,0001,2021_Oct_15_1230,localizer,2021.1.3,61.82242620966559,
block,faces,faces062.bmp,,,,,0,24,24,24,,,,,,,,,,,,,,,,,,,,,,,,,,,,,,,,,,,,,,,,,,None,,191.4887463298859,None,191.4887463298859,None,2021-10-15-12:33:39.090205,191.4995639999397,191.80521349981427,191.4995639999397,None,None,191.4995639999397,None,192.30587502985728,None,,,,12005,0001,2021_Oct_15_1230,localizer,2021.1.3,61.82242620966559,
block,faces,faces010.bmp,,,,,0,25,25,25,,,,,,,,,,,,,,,,,,,,,,,,,,,,,,,,,,,,,,,,,,None,,192.30587502985728,None,192.30587502985728,None,2021-10-15-12:33:39.907298,192.31762049999088,192.6215448998846,192.31762049999088,None,None,192.31762049999088,None,193.12250312997494,None,,,,12005,0001,2021_Oct_15_1230,localizer,2021.1.3,61.82242620966559,
block,faces,faces042.bmp,,,,,0,26,26,26,,,,,,,,,,,,,,,,,,,,,,,,,,,,,,,,,,,,,,,,,,None,,193.12250312997494,None,193.12250312997494,None,2021-10-15-12:33:40.724903,193.13326129992492,193.43846899992786,193.13326129992492,None,None,193.13326129992492,None,193.93943262982648,None,,,,12005,0001,2021_Oct_15_1230,localizer,2021.1.3,61.82242620966559,
block,faces,faces089.bmp,,,,,0,27,27,27,,,,,,,,,,,,,,,,,,,,,,,,,,,,,,,,,,,,,,,,,,None,,193.93943262982648,None,193.93943262982648,None,2021-10-15-12:33:41.542775,193.95295639988035,194.25486320001073,193.95295639988035,None,None,193.95295639988035,None,194.75573442990427,None,,,,12005,0001,2021_Oct_15_1230,localizer,2021.1.3,61.82242620966559,
block,faces,faces008.bmp,,,,,0,28,28,28,,,,,,,,,,,,,,,,,,,,,,,,,,,,,,,,,,,,,,,,,,None,,194.75573442990427,None,194.75573442990427,None,2021-10-15-12:33:42.358342,194.76824419992045,195.07159699988551,194.76824419992045,None,None,194.76824419992045,None,195.57190422990826,None,,,,12005,0001,2021_Oct_15_1230,localizer,2021.1.3,61.82242620966559,
block,faces,faces055.bmp,,,,,0,29,29,29,,,,,,,,,,,,,,,,,,,,,,,,,,,,,,,,,,,,,,,,,,None,,195.57190422990826,None,195.57190422990826,None,2021-10-15-12:33:43.173337,195.5815689000301,195.88845649990253,195.5815689000301,None,None,195.5815689000301,None,196.38831102985424,None,,,,12005,0001,2021_Oct_15_1230,localizer,2021.1.3,61.82242620966559,
block_end,faces,faces058.bmp,,,,,0,30,30,30,,,,,,,,,,,,,,,,,,,,,,,,,,,,,,,,,,,,,,,,,,None,,196.38831102985424,None,196.38831102985424,None,2021-10-15-12:33:43.989748,196.39383009984158,196.70519379992038,196.39383009984158,None,None,196.39383009984158,None,197.20562432983425,None,,,,12005,0001,2021_Oct_15_1230,localizer,2021.1.3,61.82242620966559,
block_start,scenes,scenes042.bmp,,,,,0,31,31,31,,,,,,,,,,,,,,,,,,,,,,,,,,,,,,,,,,,,,,,,,,t,1.7298363000154495,197.20552579988725,None,197.20552579988725,None,2021-10-15-12:33:46.555074,198.9644066998735,199.2723153999541,198.9644066998735,None,None,198.9644066998735,None,199.77187562987675,None,,,,12005,0001,2021_Oct_15_1230,localizer,2021.1.3,61.82242620966559,
block,scenes,scenes011.bmp,,,,,0,32,32,32,,,,,,,,,,,,,,,,,,,,,,,,,,,,,,,,,,,,,,,,,,None,,199.77187562987675,None,199.77187562987675,None,2021-10-15-12:33:47.373313,199.78196179983206,200.08864429988898,199.78196179983206,None,None,199.78196179983206,None,200.59005372992252,None,,,,12005,0001,2021_Oct_15_1230,localizer,2021.1.3,61.82242620966559,
block,scenes,scenes015.bmp,,,,,0,33,33,33,,,,,,,,,,,,,,,,,,,,,,,,,,,,,,,,,,,,,,,,,,None,,200.59005372992252,None,200.59005372992252,None,2021-10-15-12:33:48.194459,200.6045690998435,200.90559659991413,200.6045690998435,None,None,200.6045690998435,None,201.40637123000343,None,,,,12005,0001,2021_Oct_15_1230,localizer,2021.1.3,61.82242620966559,
block,scenes,scenes027.bmp,,,,,0,34,34,34,,,,,,,,,,,,,,,,,,,,,,,,,,,,,,,,,,,,,,,,,,None,,201.40637123000343,None,201.40637123000343,None,2021-10-15-12:33:49.009406,201.41971549997106,201.72196959983557,201.41971549997106,None,None,201.41971549997106,None,202.22201692985837,None,,,,12005,0001,2021_Oct_15_1230,localizer,2021.1.3,61.82242620966559,
block,scenes,scenes017.bmp,,,,,0,35,35,35,,,,,,,,,,,,,,,,,,,,,,,,,,,,,,,,,,,,,,,,,,None,,202.22201692985837,None,202.22201692985837,None,2021-10-15-12:33:49.823886,202.23288149992004,202.54171929997392,202.23288149992004,None,None,202.23288149992004,None,203.0386094299378,None,,,,12005,0001,2021_Oct_15_1230,localizer,2021.1.3,61.82242620966559,
block,scenes,scenes050.bmp,,,,,0,36,36,36,,,,,,,,,,,,,,,,,,,,,,,,,,,,,,,,,,,,,,,,,,None,,203.0386094299378,None,203.0386094299378,None,2021-10-15-12:33:50.640045,203.04952729982324,203.3554283999838,203.04952729982324,None,None,203.04952729982324,None,203.85585612987634,None,,,,12005,0001,2021_Oct_15_1230,localizer,2021.1.3,61.82242620966559,
block,scenes,scenes080.bmp,,,,,0,37,37,37,,,,,,,,,,,,,,,,,,,,,,,,,,,,,,,,,,,,,,,,,,None,,203.85585612987634,None,203.85585612987634,None,2021-10-15-12:33:51.457408,203.8693891998846,204.17220039991662,203.8693891998846,None,None,203.8693891998846,None,204.67296582993586,None,,,,12005,0001,2021_Oct_15_1230,localizer,2021.1.3,61.82242620966559,
block,scenes,scenes078.bmp,,,,,0,38,38,38,,,,,,,,,,,,,,,,,,,,,,,,,,,,,,,,,,,,,,,,,,None,,204.67296582993586,None,204.67296582993586,None,2021-10-15-12:33:52.275580,204.68593689985573,204.98761329986155,204.68593689985573,None,None,204.68593689985573,None,205.48850463002455,None,,,,12005,0001,2021_Oct_15_1230,localizer,2021.1.3,61.82242620966559,
block,scenes,scenes037.bmp,,,,,0,39,39,39,,,,,,,,,,,,,,,,,,,,,,,,,,,,,,,,,,,,,,,,,,None,,205.48850463002455,None,205.48850463002455,None,2021-10-15-12:33:53.089937,205.4982453000266,205.81168089993298,205.4982453000266,None,None,205.4982453000266,None,206.30581192995888,None,,,,12005,0001,2021_Oct_15_1230,localizer,2021.1.3,61.82242620966559,
block,scenes,scenes010.bmp,,,,,0,40,40,40,,,,,,,,,,,,,,,,,,,,,,,,,,,,,,,,,,,,,,,,,,None,,206.30581192995888,None,206.30581192995888,None,2021-10-15-12:33:53.908426,206.3177215999458,206.62274579983205,206.3177215999458,None,None,206.3177215999458,None,207.1218347300077,None,,,,12005,0001,2021_Oct_15_1230,localizer,2021.1.3,61.82242620966559,
block,scenes,scenes058.bmp,,,,,0,41,41,41,,,,,,,,,,,,,,,,,,,,,,,,,,,,,,,,,,,,,,,,,,None,,207.1218347300077,None,207.1218347300077,None,2021-10-15-12:33:54.723266,207.13147579994984,207.4383560998831,207.13147579994984,None,None,207.13147579994984,None,207.93920352982823,None,,,,12005,0001,2021_Oct_15_1230,localizer,2021.1.3,61.82242620966559,
block,scenes,scenes014.bmp,,,,,0,42,42,42,,,,,,,,,,,,,,,,,,,,,,,,,,,,,,,,,,,,,,,,,,None,,207.93920352982823,None,207.93920352982823,None,2021-10-15-12:33:55.541812,207.95102579984814,208.25595359993167,207.95102579984814,None,None,207.95102579984814,None,208.75537442995702,None,,,,12005,0001,2021_Oct_15_1230,localizer,2021.1.3,61.82242620966559,
block,scenes,scenes030.bmp,,,,,0,43,43,43,,,,,,,,,,,,,,,,,,,,,,,,,,,,,,,,,,,,,,,,,,None,,208.75537442995702,None,208.75537442995702,None,2021-10-15-12:33:56.356805,208.76509839994833,209.0719452998601,208.76509839994833,None,None,208.76509839994833,None,209.57200572986622,None,,,,12005,0001,2021_Oct_15_1230,localizer,2021.1.3,61.82242620966559,
block,scenes,scenes065.bmp,,,,,0,44,44,44,,,,,,,,,,,,,,,,,,,,,,,,,,,,,,,,,,,,,,,,,,None,,209.57200572986622,None,209.57200572986622,None,2021-10-15-12:33:57.173344,209.58160419994965,209.88857369986363,209.58160419994965,None,None,209.58160419994965,None,210.39081003002357,None,,,,12005,0001,2021_Oct_15_1230,localizer,2021.1.3,61.82242620966559,
block_end,scenes,scenes064.bmp,,,,,0,45,45,45,,,,,,,,,,,,,,,,,,,,,,,,,,,,,,,,,,,,,,,,,,None,,210.39081003002357,None,210.39081003002357,None,2021-10-15-12:33:57.993386,210.40305399987847,210.7055357999634,210.40305399987847,None,None,210.40305399987847,None,211.20499462981243,None,,,,12005,0001,2021_Oct_15_1230,localizer,2021.1.3,61.82242620966559,
block_start,scrambled,scrambled023.bmp,,,,,0,46,46,46,,,,,,,,,,,,,,,,,,,,,,,,,,,,,,,,,,,,,,,,,,t,1.7305934000760317,211.20484749996103,None,211.20484749996103,None,2021-10-15-12:34:00.557508,212.9670969999861,213.27232260000892,212.9670969999861,None,None,212.9670969999861,None,213.7720576298656,None,,,,12005,0001,2021_Oct_15_1230,localizer,2021.1.3,61.82242620966559,
block,scrambled,scrambled012.bmp,,,,,0,47,47,47,,,,,,,,,,,,,,,,,,,,,,,,,,,,,,,,,,,,,,,,,,None,,213.7720576298656,None,213.7720576298656,None,2021-10-15-12:34:01.374059,213.78289949987084,214.09225829993375,213.78289949987084,None,None,213.78289949987084,None,214.58825882987585,None,,,,12005,0001,2021_Oct_15_1230,localizer,2021.1.3,61.82242620966559,
block,scrambled,scrambled034.bmp,,,,,0,48,48,48,,,,,,,,,,,,,,,,,,,,,,,,,,,,,,,,,,,,,,,,,,None,,214.58825882987585,None,214.58825882987585,None,2021-10-15-12:34:02.189438,214.59658139990643,214.90551709989086,214.59658139990643,None,None,214.59658139990643,None,215.4051788300043,None,,,,12005,0001,2021_Oct_15_1230,localizer,2021.1.3,61.82242620966559,
block,scrambled,scrambled014.bmp,,,,,0,49,49,49,,,,,,,,,,,,,,,,,,,,,,,,,,,,,,,,,,,,,,,,,,None,,215.4051788300043,None,215.4051788300043,None,2021-10-15-12:34:03.006613,215.41479119984433,215.7222305999603,215.41479119984433,None,None,215.41479119984433,None,216.22179273001385,None,,,,12005,0001,2021_Oct_15_1230,localizer,2021.1.3,61.82242620966559,
block,scrambled,scrambled065.bmp,,,,,0,50,50,50,,,,,,,,,,,,,,,,,,,,,,,,,,,,,,,,,,,,,,,,,,None,,216.22179273001385,None,216.22179273001385,None,2021-10-15-12:34:03.823267,216.2307359999977,216.53845769981854,216.2307359999977,None,None,216.2307359999977,None,217.03869702990633,None,,,,12005,0001,2021_Oct_15_1230,localizer,2021.1.3,61.82242620966559,
block,scrambled,scrambled039.bmp,,,,,0,51,51,51,,,,,,,,,,,,,,,,,,,,,,,,,,,,,,,,,,,,,,,,,,None,,217.03869702990633,None,217.03869702990633,None,2021-10-15-12:34:04.640128,217.04840620001778,217.35503789992072,217.04840620001778,None,None,217.04840620001778,None,217.85664992986713,None,,,,12005,0001,2021_Oct_15_1230,localizer,2021.1.3,61.82242620966559,
block,scrambled,scrambled058.bmp,,,,,0,52,52,52,,,,,,,,,,,,,,,,,,,,,,,,,,,,,,,,,,,,,,,,,,None,,217.85664992986713,None,217.85664992986713,None,2021-10-15-12:34:05.460156,217.8702799999155,218.17198149999604,217.8702799999155,None,None,217.8702799999155,None,218.67266522997525,None,,,,12005,0001,2021_Oct_15_1230,localizer,2021.1.3,61.82242620966559,
block,scrambled,scrambled048.bmp,,,,,0,53,53,53,,,,,,,,,,,,,,,,,,,,,,,,,,,,,,,,,,,,,,,,,,None,,218.67266522997525,None,218.67266522997525,None,2021-10-15-12:34:06.276000,218.68070259992965,218.99269909993745,218.68070259992965,None,None,218.68070259992965,None,219.48940502989572,None,,,,12005,0001,2021_Oct_15_1230,localizer,2021.1.3,61.82242620966559,
block,scrambled,scrambled079.bmp,,,,,0,54,54,54,,,,,,,,,,,,,,,,,,,,,,,,,,,,,,,,,,,,,,,,,,None,,219.48940502989572,None,219.48940502989572,None,2021-10-15-12:34:07.091821,219.50008219992742,219.8053663999308,219.50008219992742,None,None,219.50008219992742,None,220.3054059298942,None,,,,12005,0001,2021_Oct_15_1230,localizer,2021.1.3,61.82242620966559,
block,scrambled,scrambled085.bmp,,,,,0,55,55,55,,,,,,,,,,,,,,,,,,,,,,,,,,,,,,,,,,,,,,,,,,None,,220.3054059298942,None,220.3054059298942,None,2021-10-15-12:34:07.906124,220.31328589981422,220.6218897998333,220.31328589981422,None,None,220.31328589981422,None,221.1114413297968,None,,,,12005,0001,2021_Oct_15_1230,localizer,2021.1.3,61.82242620966559,
block,scrambled,scrambled049.bmp,,,,,0,56,56,56,,,,,,,,,,,,,,,,,,,,,,,,,,,,,,,,,,,,,,,,,,None,,221.1114413297968,None,221.1114413297968,None,2021-10-15-12:34:08.712882,221.1199860998895,221.422551299911,221.1199860998895,None,y,221.1199860998895,None,221.92232362993528,None,0.09798599989153445,,,12005,0001,2021_Oct_15_1230,localizer,2021.1.3,61.82242620966559,
block,scrambled,scrambled064.bmp,,,,,0,57,57,57,,,,,,,,,,,,,,,,,,,,,,,,,,,,,,,,,,,,,,,,,,None,,221.92232362993528,None,221.92232362993528,None,2021-10-15-12:34:09.523878,221.93313899985515,222.2385978999082,221.93313899985515,None,None,221.93313899985515,None,222.73940262987745,None,,,,12005,0001,2021_Oct_15_1230,localizer,2021.1.3,61.82242620966559,
block,scrambled,scrambled076.bmp,,,,,0,58,58,58,,,,,,,,,,,,,,,,,,,,,,,,,,,,,,,,,,,,,,,,,,None,,222.73940262987745,None,222.73940262987745,None,2021-10-15-12:34:10.341027,222.75003589992411,223.05520189995877,222.75003589992411,None,None,222.75003589992411,None,223.55516243001912,None,,,,12005,0001,2021_Oct_15_1230,localizer,2021.1.3,61.82242620966559,
block,scrambled,scrambled076.bmp,,,,,0,59,59,59,,,,,,,,,,,,,,,,,,,,,,,,,,,,,,,,,,,,,,,,,,None,,223.55516243001912,None,223.55516243001912,None,2021-10-15-12:34:11.156595,223.55597219988704,223.85536789987236,223.55597219988704,None,y,223.55597219988704,None,224.35626332995017,None,0.07544349995441735,,,12005,0001,2021_Oct_15_1230,localizer,2021.1.3,61.82242620966559,
block_end,scrambled,scrambled053.bmp,,,,,0,60,60,60,,,,,,,,,,,,,,,,,,,,,,,,,,,,,,,,,,,,,,,,,,None,,224.35626332995017,None,224.35626332995017,None,2021-10-15-12:34:11.960005,224.36680409987457,224.67199089983478,224.36680409987457,224.36680409987457,None,224.36680409987457,224.36680409987457,225.1718312299112,None,,,,12005,0001,2021_Oct_15_1230,localizer,2021.1.3,61.82242620966559,
block_start,scrambled,scrambled053.bmp,,,,,0,61,61,61,,,,,,,,,,,,,,,,,,,,,,,,,,,,,,,,,,,,,,,,,,t,1.7636793998535722,225.17177939997055,None,225.17177939997055,None,2021-10-15-12:34:14.557095,226.95620619994588,227.2718007999938,226.95620619994588,None,None,226.95620619994588,None,227.7554119298933,None,,,,12005,0001,2021_Oct_15_1230,localizer,2021.1.3,61.82242620966559,
block,scrambled,scrambled048.bmp,,,,,0,62,62,62,,,,,,,,,,,,,,,,,,,,,,,,,,,,,,,,,,,,,,,,,,None,,227.7554119298933,None,227.7554119298933,None,2021-10-15-12:34:15.358836,227.75663019996136,228.0719855998177,227.75663019996136,227.75663019996136,None,227.75663019996136,227.75663019996136,228.57234463000205,None,,,,12005,0001,2021_Oct_15_1230,localizer,2021.1.3,61.82242620966559,
block,scrambled,scrambled073.bmp,,,,,0,63,63,63,,,,,,,,,,,,,,,,,,,,,,,,,,,,,,,,,,,,,,,,,,None,,228.57234463000205,None,228.57234463000205,None,2021-10-15-12:34:16.173971,228.583634799812,228.89140779990703,228.583634799812,None,None,228.583634799812,None,229.3889095298713,None,,,,12005,0001,2021_Oct_15_1230,localizer,2021.1.3,61.82242620966559,
block,scrambled,scrambled036.bmp,,,,,0,64,64,64,,,,,,,,,,,,,,,,,,,,,,,,,,,,,,,,,,,,,,,,,,None,,229.3889095298713,None,229.3889095298713,None,2021-10-15-12:34:16.991333,229.3997861999087,229.70543590001762,229.3997861999087,None,None,229.3997861999087,None,230.20577572982293,None,,,,12005,0001,2021_Oct_15_1230,localizer,2021.1.3,61.82242620966559,
block,scrambled,scrambled066.bmp,,,,,0,65,65,65,,,,,,,,,,,,,,,,,,,,,,,,,,,,,,,,,,,,,,,,,,None,,230.20577572982293,None,230.20577572982293,None,2021-10-15-12:34:17.807410,230.21649089991115,230.52439039992169,230.21649089991115,None,None,230.21649089991115,None,231.0220690299524,None,,,,12005,0001,2021_Oct_15_1230,localizer,2021.1.3,61.82242620966559,
block,scrambled,scrambled010.bmp,,,,,0,66,66,66,,,,,,,,,,,,,,,,,,,,,,,,,,,,,,,,,,,,,,,,,,None,,231.0220690299524,None,231.0220690299524,None,2021-10-15-12:34:18.623970,231.03164809988812,231.33861929993145,231.03164809988812,None,None,231.03164809988812,None,231.83885723000859,None,,,,12005,0001,2021_Oct_15_1230,localizer,2021.1.3,61.82242620966559,
block,scrambled,scrambled041.bmp,,,,,0,67,67,67,,,,,,,,,,,,,,,,,,,,,,,,,,,,,,,,,,,,,,,,,,None,,231.83885723000859,None,231.83885723000859,None,2021-10-15-12:34:19.440289,231.84821800002828,232.15577930002473,231.84821800002828,None,None,231.84821800002828,None,232.6560452298494,None,,,,12005,0001,2021_Oct_15_1230,localizer,2021.1.3,61.82242620966559,
block,scrambled,scrambled019.bmp,,,,,0,68,68,68,,,,,,,,,,,,,,,,,,,,,,,,,,,,,,,,,,,,,,,,,,None,,232.6560452298494,None,232.6560452298494,None,2021-10-15-12:34:20.258639,232.66791269998066,232.97263420000672,232.66791269998066,None,None,232.66791269998066,None,233.47206562987995,None,,,,12005,0001,2021_Oct_15_1230,localizer,2021.1.3,61.82242620966559,
block,scrambled,scrambled051.bmp,,,,,0,69,69,69,,,,,,,,,,,,,,,,,,,,,,,,,,,,,,,,,,,,,,,,,,None,,233.47206562987995,None,233.47206562987995,None,2021-10-15-12:34:21.073612,233.48124250001274,233.78848019987345,233.48124250001274,None,None,233.48124250001274,None,234.28824802997988,None,,,,12005,0001,2021_Oct_15_1230,localizer,2021.1.3,61.82242620966559,
block,scrambled,scrambled014.bmp,,,,,0,70,70,70,,,,,,,,,,,,,,,,,,,,,,,,,,,,,,,,,,,,,,,,,,None,,234.28824802997988,None,234.28824802997988,None,2021-10-15-12:34:21.889422,234.28943150001578,234.60539599996991,234.28943150001578,None,None,234.28943150001578,None,235.08897402996664,None,,,,12005,0001,2021_Oct_15_1230,localizer,2021.1.3,61.82242620966559,
block,scrambled,scrambled034.bmp,,,,,0,71,71,71,,,,,,,,,,,,,,,,,,,,,,,,,,,,,,,,,,,,,,,,,,None,,235.08897402996664,None,235.08897402996664,None,2021-10-15-12:34:22.692922,235.09106999984942,235.4056116999127,235.09106999984942,235.09106999984942,None,235.09106999984942,235.09106999984942,235.9061832299689,None,,,,12005,0001,2021_Oct_15_1230,localizer,2021.1.3,61.82242620966559,
block,scrambled,scrambled083.bmp,,,,,0,72,72,72,,,,,,,,,,,,,,,,,,,,,,,,,,,,,,,,,,,,,,,,,,None,,235.9061832299689,None,235.9061832299689,None,2021-10-15-12:34:23.508625,235.91795269981958,236.2227011998184,235.91795269981958,None,None,235.91795269981958,None,236.72268292980735,None,,,,12005,0001,2021_Oct_15_1230,localizer,2021.1.3,61.82242620966559,
block,scrambled,scrambled037.bmp,,,,,0,73,73,73,,,,,,,,,,,,,,,,,,,,,,,,,,,,,,,,,,,,,,,,,,None,,236.72268292980735,None,236.72268292980735,None,2021-10-15-12:34:24.325470,236.73517489992082,237.03868879983202,236.73517489992082,None,None,236.73517489992082,None,237.538475929969,None,,,,12005,0001,2021_Oct_15_1230,localizer,2021.1.3,61.82242620966559,
block,scrambled,scrambled044.bmp,,,,,0,74,74,74,,,,,,,,,,,,,,,,,,,,,,,,,,,,,,,,,,,,,,,,,,None,,237.538475929969,None,237.538475929969,None,2021-10-15-12:34:25.139910,237.5474433999043,237.85526919993572,237.5474433999043,None,None,237.5474433999043,None,238.35590373000596,None,,,,12005,0001,2021_Oct_15_1230,localizer,2021.1.3,61.82242620966559,
block_end,scrambled,scrambled022.bmp,,,,,0,75,75,75,,,,,,,,,,,,,,,,,,,,,,,,,,,,,,,,,,,,,,,,,,None,,238.35590373000596,None,238.35590373000596,None,2021-10-15-12:34:25.957537,238.36713269981556,238.67249699984677,238.36713269981556,None,None,238.36713269981556,None,239.17202923002188,None,,,,12005,0001,2021_Oct_15_1230,localizer,2021.1.3,61.82242620966559,
null_block,null_block,null_block.bmp,,,,,0,76,76,76,,,,,,,,,,,,,,,,,,,,,,,,,,,,,,,,,,,,,,,,,,t,1.7633312998805195,239.17216389998794,None,239.17216389998794,None,2021-10-15-12:34:28.555924,240.95546002986376,None,240.95546002986376,None,None,240.95546002986376,None,240.957258899929,None,,,,12005,0001,2021_Oct_15_1230,localizer,2021.1.3,61.82242620966559,
block_start,faces,faces026.bmp,,,,,0,77,77,77,,,,,,,,,,,,,,,,,,,,,,,,,,,,,,,,,,,,,,,,,,t,1.956741499947384,252.97866339981556,None,252.97866339981556,None,2021-10-15-12:34:42.558312,254.99530710000545,255.30570439994335,254.99530710000545,None,None,254.99530710000545,None,255.77261073000264,None,,,,12005,0001,2021_Oct_15_1230,localizer,2021.1.3,61.82242620966559,
block,faces,faces042.bmp,,,,,0,78,78,78,,,,,,,,,,,,,,,,,,,,,,,,,,,,,,,,,,,,,,,,,,None,,255.77261073000264,None,255.77261073000264,None,2021-10-15-12:34:43.374170,255.7733340000268,256.0888413998764,255.7733340000268,None,None,255.7733340000268,None,256.57496262991333,None,,,,12005,0001,2021_Oct_15_1230,localizer,2021.1.3,61.82242620966559,
block,faces,faces040.bmp,,,,,0,79,79,79,,,,,,,,,,,,,,,,,,,,,,,,,,,,,,,,,,,,,,,,,,None,,256.57496262991333,None,256.57496262991333,None,2021-10-15-12:34:44.180562,256.5928652000148,256.9063086998649,256.5928652000148,256.5928652000148,None,256.5928652000148,256.5928652000148,257.3896027300274,None,,,,12005,0001,2021_Oct_15_1230,localizer,2021.1.3,61.82242620966559,
block,faces,faces024.bmp,,,,,0,80,80,80,,,,,,,,,,,,,,,,,,,,,,,,,,,,,,,,,,,,,,,,,,None,,257.3896027300274,None,257.3896027300274,None,2021-10-15-12:34:44.992023,257.4014834999107,257.7057163999416,257.4014834999107,None,None,257.4014834999107,None,258.2057763298275,None,,,,12005,0001,2021_Oct_15_1230,localizer,2021.1.3,61.82242620966559,
block,faces,faces063.bmp,,,,,0,81,81,81,,,,,,,,,,,,,,,,,,,,,,,,,,,,,,,,,,,,,,,,,,None,,258.2057763298275,None,258.2057763298275,None,2021-10-15-12:34:45.807200,258.21640369994566,258.5453015000094,258.21640369994566,None,None,258.21640369994566,None,259.0228894299129,None,,,,12005,0001,2021_Oct_15_1230,localizer,2021.1.3,61.82242620966559,
block,faces,faces070.bmp,,,,,0,82,82,82,,,,,,,,,,,,,,,,,,,,,,,,,,,,,,,,,,,,,,,,,,None,,259.0228894299129,None,259.0228894299129,None,2021-10-15-12:34:46.625314,259.03533789981157,259.33888840000145,259.03533789981157,None,None,259.03533789981157,None,259.8400314298691,None,,,,12005,0001,2021_Oct_15_1230,localizer,2021.1.3,61.82242620966559,
block,faces,faces012.bmp,,,,,0,83,83,83,,,,,,,,,,,,,,,,,,,,,,,,,,,,,,,,,,,,,,,,,,None,,259.8400314298691,None,259.8400314298691,None,2021-10-15-12:34:47.442613,259.85321739991195,260.15537299984135,259.85321739991195,None,None,259.85321739991195,None,260.6551384299295,None,,,,12005,0001,2021_Oct_15_1230,localizer,2021.1.3,61.82242620966559,
block,faces,faces049.bmp,,,,,0,84,84,84,,,,,,,,,,,,,,,,,,,,,,,,,,,,,,,,,,,,,,,,,,None,,260.6551384299295,None,260.6551384299295,None,2021-10-15-12:34:48.256576,260.66337999980897,260.97222070000134,260.66337999980897,None,None,260.66337999980897,None,261.4721709298668,None,,,,12005,0001,2021_Oct_15_1230,localizer,2021.1.3,61.82242620966559,
block,faces,faces055.bmp,,,,,0,85,85,85,,,,,,,,,,,,,,,,,,,,,,,,,,,,,,,,,,,,,,,,,,None,,261.4721709298668,None,261.4721709298668,None,2021-10-15-12:34:49.073600,261.47320559993386,261.7891229998786,261.47320559993386,None,None,261.47320559993386,None,262.278538629855,None,,,,12005,0001,2021_Oct_15_1230,localizer,2021.1.3,61.82242620966559,
block,faces,faces086.bmp,,,,,0,86,86,86,,,,,,,,,,,,,,,,,,,,,,,,,,,,,,,,,,,,,,,,,,None,,262.278538629855,None,262.278538629855,None,2021-10-15-12:34:49.886890,262.28699960000813,262.58915609982796,262.28699960000813,None,None,262.28699960000813,None,263.08886542983817,None,,,,12005,0001,2021_Oct_15_1230,localizer,2021.1.3,61.82242620966559,
block,faces,faces013.bmp,,,,,0,87,87,87,,,,,,,,,,,,,,,,,,,,,,,,,,,,,,,,,,,,,,,,,,None,,263.08886542983817,None,263.08886542983817,None,2021-10-15-12:34:50.690456,263.098502199864,263.4055194000248,263.098502199864,None,None,263.098502199864,None,263.90609832990447,None,,,,12005,0001,2021_Oct_15_1230,localizer,2021.1.3,61.82242620966559,
block,faces,faces079.bmp,,,,,0,88,88,88,,,,,,,,,,,,,,,,,,,,,,,,,,,,,,,,,,,,,,,,,,None,,263.90609832990447,None,263.90609832990447,None,2021-10-15-12:34:51.507369,263.91782079986297,264.2222911999561,263.91782079986297,None,None,263.91782079986297,None,264.7223089299863,None,,,,12005,0001,2021_Oct_15_1230,localizer,2021.1.3,61.82242620966559,
block,faces,faces041.bmp,,,,,0,89,89,89,,,,,,,,,,,,,,,,,,,,,,,,,,,,,,,,,,,,,,,,,,None,,264.7223089299863,None,264.7223089299863,None,2021-10-15-12:34:52.323741,264.7343813998159,265.0391653999686,264.7343813998159,None,None,264.7343813998159,None,265.54637462992685,None,,,,12005,0001,2021_Oct_15_1230,localizer,2021.1.3,61.82242620966559,
block,faces,faces045.bmp,,,,,0,90,90,90,,,,,,,,,,,,,,,,,,,,,,,,,,,,,,,,,,,,,,,,,,None,,265.54637462992685,None,265.54637462992685,None,2021-10-15-12:34:53.154728,265.56154669984244,265.8722057000268,265.56154669984244,None,None,265.56154669984244,None,266.3553651298629,None,,,,12005,0001,2021_Oct_15_1230,localizer,2021.1.3,61.82242620966559,
block_end,faces,faces022.bmp,,,,,0,91,91,91,,,,,,,,,,,,,,,,,,,,,,,,,,,,,,,,,,,,,,,,,,None,,266.3553651298629,None,266.3553651298629,None,2021-10-15-12:34:53.956801,266.36452249996364,266.67224360001273,266.36452249996364,None,None,266.36452249996364,None,267.1719284299528,None,,,,12005,0001,2021_Oct_15_1230,localizer,2021.1.3,61.82242620966559,
block_start,objects,objects013.bmp,,,,,0,92,92,92,,,,,,,,,,,,,,,,,,,,,,,,,,,,,,,,,,,,,,,,,,t,1.7633415998425335,267.17209319979884,None,267.17209319979884,None,2021-10-15-12:34:56.558666,268.9673080998473,269.2722400999628,268.9673080998473,None,None,268.9673080998473,None,269.7719026298495,None,,,,12005,0001,2021_Oct_15_1230,localizer,2021.1.3,61.82242620966559,
block,objects,objects086.bmp,,,,,0,93,93,93,,,,,,,,,,,,,,,,,,,,,,,,,,,,,,,,,,,,,,,,,,None,,269.7719026298495,None,269.7719026298495,None,2021-10-15-12:34:57.372975,269.7809272999875,270.0888519999571,269.7809272999875,None,None,269.7809272999875,None,270.59014432991387,None,,,,12005,0001,2021_Oct_15_1230,localizer,2021.1.3,61.82242620966559,
block,objects,objects008.bmp,,,,,0,94,94,94,,,,,,,,,,,,,,,,,,,,,,,,,,,,,,,,,,,,,,,,,,None,,270.59014432991387,None,270.59014432991387,None,2021-10-15-12:34:58.193738,270.5923844999634,270.9065332999453,270.5923844999634,None,None,270.5923844999634,None,271.40626502989323,None,,,,12005,0001,2021_Oct_15_1230,localizer,2021.1.3,61.82242620966559,
block,objects,objects073.bmp,,,,,0,95,95,95,,,,,,,,,,,,,,,,,,,,,,,,,,,,,,,,,,,,,,,,,,None,,271.40626502989323,None,271.40626502989323,None,2021-10-15-12:34:59.008680,271.4170625000261,271.722863700008,271.4170625000261,None,y,271.4170625000261,None,272.2230455300072,None,0.0892578000202775,,,12005,0001,2021_Oct_15_1230,localizer,2021.1.3,61.82242620966559,
block,objects,objects042.bmp,,,,,0,96,96,96,,,,,,,,,,,,,,,,,,,,,,,,,,,,,,,,,,,,,,,,,,None,,272.2230455300072,None,272.2230455300072,None,2021-10-15-12:34:59.825658,272.2298961998895,272.52824319992214,272.2298961998895,None,None,272.2298961998895,None,273.0386036298936,None,,,,12005,0001,2021_Oct_15_1230,localizer,2021.1.3,61.82242620966559,
block,objects,objects047.bmp,,,,,0,97,97,97,,,,,,,,,,,,,,,,,,,,,,,,,,,,,,,,,,,,,,,,,,None,,273.0386036298936,None,273.0386036298936,None,2021-10-15-12:35:00.639963,273.04609659989364,273.35646929987706,273.04609659989364,None,None,273.04609659989364,None,273.855393829965,None,,,,12005,0001,2021_Oct_15_1230,localizer,2021.1.3,61.82242620966559,
block,objects,objects052.bmp,,,,,0,98,98,98,,,,,,,,,,,,,,,,,,,,,,,,,,,,,,,,,,,,,,,,,,None,,273.855393829965,None,273.855393829965,None,2021-10-15-12:35:01.456828,273.85987159982324,274.17226739996113,273.85987159982324,None,None,273.85987159982324,None,274.67206692995967,None,,,,12005,0001,2021_Oct_15_1230,localizer,2021.1.3,61.82242620966559,
block,objects,objects026.bmp,,,,,0,99,99,99,,,,,,,,,,,,,,,,,,,,,,,,,,,,,,,,,,,,,,,,,,None,,274.67206692995967,None,274.67206692995967,None,2021-10-15-12:35:02.274108,274.6729911000002,274.9891543998383,274.6729911000002,None,None,274.6729911000002,None,275.47257992995435,None,,,,12005,0001,2021_Oct_15_1230,localizer,2021.1.3,61.82242620966559,
block,objects,objects044.bmp,,,,,0,100,100,100,,,,,,,,,,,,,,,,,,,,,,,,,,,,,,,,,,,,,,,,,,None,,275.47257992995435,None,275.47257992995435,None,2021-10-15-12:35:03.077399,275.4853665998671,275.788857499836,275.4853665998671,275.4853665998671,None,275.4853665998671,275.4853665998671,276.2896281298948,None,,,,12005,0001,2021_Oct_15_1230,localizer,2021.1.3,61.82242620966559,
block,objects,objects044.bmp,,,,,0,101,101,101,,,,,,,,,,,,,,,,,,,,,,,,,,,,,,,,,,,,,,,,,,None,,276.2896281298948,None,276.2896281298948,None,2021-10-15-12:35:03.891028,276.29027649993077,276.6053170999512,276.29027649993077,None,y,276.29027649993077,None,277.0914670298574,None,0.6270723000634462,,,12005,0001,2021_Oct_15_1230,localizer,2021.1.3,61.82242620966559,
block,objects,objects070.bmp,,,,,0,102,102,102,,,,,,,,,,,,,,,,,,,,,,,,,,,,,,,,,,,,,,,,,,None,,277.0914670298574,None,277.0914670298574,None,2021-10-15-12:35:04.698055,277.10867369989865,277.42248179996386,277.10867369989865,277.10867369989865,None,277.10867369989865,277.10867369989865,277.9060066300211,None,,,,12005,0001,2021_Oct_15_1230,localizer,2021.1.3,61.82242620966559,
block,objects,objects019.bmp,,,,,0,103,103,103,,,,,,,,,,,,,,,,,,,,,,,,,,,,,,,,,,,,,,,,,,None,,277.9060066300211,None,277.9060066300211,None,2021-10-15-12:35:05.508359,277.92179539985955,278.22264619986527,277.92179539985955,None,None,277.92179539985955,None,278.72252012996466,None,,,,12005,0001,2021_Oct_15_1230,localizer,2021.1.3,61.82242620966559,
block,objects,objects032.bmp,,,,,0,104,104,104,,,,,,,,,,,,,,,,,,,,,,,,,,,,,,,,,,,,,,,,,,None,,278.72252012996466,None,278.72252012996466,None,2021-10-15-12:35:06.324018,278.72323869983666,279.03858659998514,278.72323869983666,None,None,278.72323869983666,None,279.5385288300225,None,,,,12005,0001,2021_Oct_15_1230,localizer,2021.1.3,61.82242620966559,
block,objects,objects053.bmp,,,,,0,105,105,105,,,,,,,,,,,,,,,,,,,,,,,,,,,,,,,,,,,,,,,,,,None,,279.5385288300225,None,279.5385288300225,None,2021-10-15-12:35:07.139966,279.53993059997447,279.8554847999476,279.53993059997447,None,None,279.53993059997447,None,280.33912762997204,None,,,,12005,0001,2021_Oct_15_1230,localizer,2021.1.3,61.82242620966559,
block_end,objects,objects057.bmp,,,,,0,106,106,106,,,,,,,,,,,,,,,,,,,,,,,,,,,,,,,,,,,,,,,,,,None,,280.33912762997204,None,280.33912762997204,None,2021-10-15-12:35:07.942623,280.35165829979815,280.6556973999832,280.35165829979815,280.35165829979815,None,280.35165829979815,280.35165829979815,281.1557627299102,None,,,,12005,0001,2021_Oct_15_1230,localizer,2021.1.3,61.82242620966559,
block_start,scenes,scenes030.bmp,,,,,0,107,107,107,,,,,,,,,,,,,,,,,,,,,,,,,,,,,,,,,,,,,,,,,,t,1.7796424999833107,281.1558116998058,None,281.1558116998058,None,2021-10-15-12:35:10.555138,282.9575380999595,283.27271859999746,282.9575380999595,None,None,282.9575380999595,None,283.7724449299043,None,,,,12005,0001,2021_Oct_15_1230,localizer,2021.1.3,61.82242620966559,
block,scenes,scenes092.bmp,,,,,0,108,108,108,,,,,,,,,,,,,,,,,,,,,,,,,,,,,,,,,,,,,,,,,,None,,283.7724449299043,None,283.7724449299043,None,2021-10-15-12:35:11.373749,283.7822540998459,284.08881199988537,283.7822540998459,None,None,283.7822540998459,None,284.5897531299619,None,,,,12005,0001,2021_Oct_15_1230,localizer,2021.1.3,61.82242620966559,
block,scenes,scenes005.bmp,,,,,0,109,109,109,,,,,,,,,,,,,,,,,,,,,,,,,,,,,,,,,,,,,,,,,,None,,284.5897531299619,None,284.5897531299619,None,2021-10-15-12:35:12.191364,284.6009527000133,284.9052889999002,284.6009527000133,None,None,284.6009527000133,None,285.40579742982516,None,,,,12005,0001,2021_Oct_15_1230,localizer,2021.1.3,61.82242620966559,
block,scenes,scenes046.bmp,,,,,0,110,110,110,,,,,,,,,,,,,,,,,,,,,,,,,,,,,,,,,,,,,,,,,,None,,285.40579742982516,None,285.40579742982516,None,2021-10-15-12:35:13.007228,285.4166558999568,285.7226269999519,285.4166558999568,None,None,285.4166558999568,None,286.22270512997636,None,,,,12005,0001,2021_Oct_15_1230,localizer,2021.1.3,61.82242620966559,
block,scenes,scenes060.bmp,,,,,0,111,111,111,,,,,,,,,,,,,,,,,,,,,,,,,,,,,,,,,,,,,,,,,,None,,286.22270512997636,None,286.22270512997636,None,2021-10-15-12:35:13.824117,286.23349439981394,286.5393936999608,286.23349439981394,None,None,286.23349439981394,None,287.0393849299056,None,,,,12005,0001,2021_Oct_15_1230,localizer,2021.1.3,61.82242620966559,
block,scenes,scenes043.bmp,,,,,0,112,112,112,,,,,,,,,,,,,,,,,,,,,,,,,,,,,,,,,,,,,,,,,,None,,287.0393849299056,None,287.0393849299056,None,2021-10-15-12:35:14.640813,287.0497485999949,287.3557307999581,287.0497485999949,None,None,287.0497485999949,None,287.8557219300186,None,,,,12005,0001,2021_Oct_15_1230,localizer,2021.1.3,61.82242620966559,
block,scenes,scenes068.bmp,,,,,0,113,113,113,,,,,,,,,,,,,,,,,,,,,,,,,,,,,,,,,,,,,,,,,,None,,287.8557219300186,None,287.8557219300186,None,2021-10-15-12:35:15.456929,287.8652389999479,288.1757117998786,287.8652389999479,None,None,287.8652389999479,None,288.6723721299553,None,,,,12005,0001,2021_Oct_15_1230,localizer,2021.1.3,61.82242620966559,
block,scenes,scenes028.bmp,,,,,0,114,114,114,,,,,,,,,,,,,,,,,,,,,,,,,,,,,,,,,,,,,,,,,,None,,288.6723721299553,None,288.6723721299553,None,2021-10-15-12:35:16.273804,288.68223469983786,288.9886268998962,288.68223469983786,None,None,288.68223469983786,None,289.48901002991477,None,,,,12005,0001,2021_Oct_15_1230,localizer,2021.1.3,61.82242620966559,
block,scenes,scenes044.bmp,,,,,0,115,115,115,,,,,,,,,,,,,,,,,,,,,,,,,,,,,,,,,,,,,,,,,,None,,289.48901002991477,None,289.48901002991477,None,2021-10-15-12:35:17.090524,289.4977861000225,289.8059896999039,289.4977861000225,None,None,289.4977861000225,None,290.30644372988024,None,,,,12005,0001,2021_Oct_15_1230,localizer,2021.1.3,61.82242620966559,
block,scenes,scenes023.bmp,,,,,0,116,116,116,,,,,,,,,,,,,,,,,,,,,,,,,,,,,,,,,,,,,,,,,,None,,290.30644372988024,None,290.30644372988024,None,2021-10-15-12:35:17.908124,290.3181125000119,290.62234689993784,290.3181125000119,None,None,290.3181125000119,None,291.122214229987,None,,,,12005,0001,2021_Oct_15_1230,localizer,2021.1.3,61.82242620966559,
block,scenes,scenes083.bmp,,,,,0,117,117,117,,,,,,,,,,,,,,,,,,,,,,,,,,,,,,,,,,,,,,,,,,None,,291.122214229987,None,291.122214229987,None,2021-10-15-12:35:18.723534,291.13189439987764,291.43915520003065,291.13189439987764,None,None,291.13189439987764,None,291.9384111298481,None,,,,12005,0001,2021_Oct_15_1230,localizer,2021.1.3,61.82242620966559,
block,scenes,scenes039.bmp,,,,,0,118,118,118,,,,,,,,,,,,,,,,,,,,,,,,,,,,,,,,,,,,,,,,,,None,,291.9384111298481,None,291.9384111298481,None,2021-10-15-12:35:19.539339,291.94731589988805,292.2555896998383,291.94731589988805,None,None,291.94731589988805,None,292.7554498298326,None,,,,12005,0001,2021_Oct_15_1230,localizer,2021.1.3,61.82242620966559,
block,scenes,scenes051.bmp,,,,,0,119,119,119,,,,,,,,,,,,,,,,,,,,,,,,,,,,,,,,,,,,,,,,,,None,,292.7554498298326,None,292.7554498298326,None,2021-10-15-12:35:20.356741,292.7604431998916,293.0728199998848,292.7604431998916,None,None,292.7604431998916,None,293.5720460298238,None,,,,12005,0001,2021_Oct_15_1230,localizer,2021.1.3,61.82242620966559,
block,scenes,scenes054.bmp,,,,,0,120,120,120,,,,,,,,,,,,,,,,,,,,,,,,,,,,,,,,,,,,,,,,,,None,,293.5720460298238,None,293.5720460298238,None,2021-10-15-12:35:21.173546,293.58122049993835,293.8889882999938,293.58122049993835,None,None,293.58122049993835,None,294.3891198299592,None,,,,12005,0001,2021_Oct_15_1230,localizer,2021.1.3,61.82242620966559,
block_end,scenes,scenes084.bmp,,,,,0,121,121,121,,,,,,,,,,,,,,,,,,,,,,,,,,,,,,,,,,,,,,,,,,None,,294.3891198299592,None,294.3891198299592,None,2021-10-15-12:35:21.990549,294.40007769991644,294.7053010999225,294.40007769991644,None,None,294.40007769991644,None,295.20591762985566,None,,,,12005,0001,2021_Oct_15_1230,localizer,2021.1.3,61.82242620966559,
block_start,faces,faces085.bmp,,,,,0,122,122,122,,,,,,,,,,,,,,,,,,,,,,,,,,,,,,,,,,,,,,,,,,t,1.729645499959588,295.2057886000257,None,295.2057886000257,None,2021-10-15-12:35:24.556646,296.9654011998791,297.27311629988253,296.9654011998791,None,None,296.9654011998791,None,297.7730911299353,None,,,,12005,0001,2021_Oct_15_1230,localizer,2021.1.3,61.82242620966559,
block,faces,faces002.bmp,,,,,0,123,123,123,,,,,,,,,,,,,,,,,,,,,,,,,,,,,,,,,,,,,,,,,,None,,297.7730911299353,None,297.7730911299353,None,2021-10-15-12:35:25.375693,297.773724099854,298.0737635998521,297.773724099854,None,None,297.773724099854,None,298.58896872980984,None,,,,12005,0001,2021_Oct_15_1230,localizer,2021.1.3,61.82242620966559,
block,faces,faces004.bmp,,,,,0,124,124,124,,,,,,,,,,,,,,,,,,,,,,,,,,,,,,,,,,,,,,,,,,None,,298.58896872980984,None,298.58896872980984,None,2021-10-15-12:35:26.190404,298.60310960002244,298.9063670998439,298.60310960002244,None,None,298.60310960002244,None,299.40661563000174,None,,,,12005,0001,2021_Oct_15_1230,localizer,2021.1.3,61.82242620966559,
block,faces,faces007.bmp,,,,,0,125,125,125,,,,,,,,,,,,,,,,,,,,,,,,,,,,,,,,,,,,,,,,,,None,,299.40661563000174,None,299.40661563000174,None,2021-10-15-12:35:27.008035,299.41877499991097,299.7251481998246,299.41877499991097,None,None,299.41877499991097,None,300.22263652991967,None,,,,12005,0001,2021_Oct_15_1230,localizer,2021.1.3,61.82242620966559,
block,faces,faces005.bmp,,,,,0,126,126,126,,,,,,,,,,,,,,,,,,,,,,,,,,,,,,,,,,,,,,,,,,None,,300.22263652991967,None,300.22263652991967,None,2021-10-15-12:35:27.824356,300.233310099924,300.53953369986266,300.233310099924,None,None,300.233310099924,None,301.03034602988043,None,,,,12005,0001,2021_Oct_15_1230,localizer,2021.1.3,61.82242620966559,
block,faces,faces024.bmp,,,,,0,127,127,127,,,,,,,,,,,,,,,,,,,,,,,,,,,,,,,,,,,,,,,,,,None,,301.03034602988043,None,301.03034602988043,None,2021-10-15-12:35:28.639347,301.04105789982714,301.3556502999272,301.04105789982714,None,None,301.04105789982714,None,301.83976662994826,None,,,,12005,0001,2021_Oct_15_1230,localizer,2021.1.3,61.82242620966559,
block,faces,faces023.bmp,,,,,0,128,128,128,,,,,,,,,,,,,,,,,,,,,,,,,,,,,,,,,,,,,,,,,,None,,301.83976662994826,None,301.83976662994826,None,2021-10-15-12:35:29.441172,301.85135539993644,302.1556137998123,301.85135539993644,None,None,301.85135539993644,None,302.6455164300045,None,,,,12005,0001,2021_Oct_15_1230,localizer,2021.1.3,61.82242620966559,
block,faces,faces042.bmp,,,,,0,129,129,129,,,,,,,,,,,,,,,,,,,,,,,,,,,,,,,,,,,,,,,,,,None,,302.6455164300045,None,302.6455164300045,None,2021-10-15-12:35:30.254809,302.65143710002303,302.9556234998163,302.65143710002303,None,y,302.65143710002303,None,303.45540742992887,None,0.5980517999269068,,,12005,0001,2021_Oct_15_1230,localizer,2021.1.3,61.82242620966559,
block,faces,faces055.bmp,,,,,0,130,130,130,,,,,,,,,,,,,,,,,,,,,,,,,,,,,,,,,,,,,,,,,,None,,303.45540742992887,None,303.45540742992887,None,2021-10-15-12:35:31.056930,303.45644899993204,303.75568039994687,303.45644899993204,None,None,303.45644899993204,None,304.2559312300058,None,,,,12005,0001,2021_Oct_15_1230,localizer,2021.1.3,61.82242620966559,
block,faces,faces035.bmp,,,,,0,131,131,131,,,,,,,,,,,,,,,,,,,,,,,,,,,,,,,,,,,,,,,,,,None,,304.2559312300058,None,304.2559312300058,None,2021-10-15-12:35:31.859357,304.2691591999028,304.57238969998434,304.2691591999028,304.2691591999028,None,304.2691591999028,304.2691591999028,305.0745316298911,None,,,,12005,0001,2021_Oct_15_1230,localizer,2021.1.3,61.82242620966559,
block,faces,faces088.bmp,,,,,0,132,132,132,,,,,,,,,,,,,,,,,,,,,,,,,,,,,,,,,,,,,,,,,,None,,305.0745316298911,None,305.0745316298911,None,2021-10-15-12:35:32.676946,305.0761406000238,305.3893222999759,305.0761406000238,None,None,305.0761406000238,None,305.89013182998167,None,,,,12005,0001,2021_Oct_15_1230,localizer,2021.1.3,61.82242620966559,
block,faces,faces089.bmp,,,,,0,133,133,133,,,,,,,,,,,,,,,,,,,,,,,,,,,,,,,,,,,,,,,,,,None,,305.89013182998167,None,305.89013182998167,None,2021-10-15-12:35:33.492735,305.8924398999661,306.20545809995383,305.8924398999661,None,None,305.8924398999661,None,306.70702012998515,None,,,,12005,0001,2021_Oct_15_1230,localizer,2021.1.3,61.82242620966559,
block,faces,faces077.bmp,,,,,0,134,134,134,,,,,,,,,,,,,,,,,,,,,,,,,,,,,,,,,,,,,,,,,,None,,306.70702012998515,None,306.70702012998515,None,2021-10-15-12:35:34.310482,306.72180019994266,307.02220839983784,306.72180019994266,None,None,306.72180019994266,None,307.522122330009,None,,,,12005,0001,2021_Oct_15_1230,localizer,2021.1.3,61.82242620966559,
block,faces,faces043.bmp,,,,,0,135,135,135,,,,,,,,,,,,,,,,,,,,,,,,,,,,,,,,,,,,,,,,,,None,,307.522122330009,None,307.522122330009,None,2021-10-15-12:35:35.123705,307.53158829989843,307.8388100999873,307.53158829989843,None,None,307.53158829989843,None,308.33917412997687,None,,,,12005,0001,2021_Oct_15_1230,localizer,2021.1.3,61.82242620966559,
block_end,faces,faces033.bmp,,,,,0,136,136,136,,,,,,,,,,,,,,,,,,,,,,,,,,,,,,,,,,,,,,,,,,None,,308.33917412997687,None,308.33917412997687,None,2021-10-15-12:35:35.940987,308.35641349991783,308.6557795999106,308.35641349991783,None,None,308.35641349991783,None,309.1552790298359,None,,,,12005,0001,2021_Oct_15_1230,localizer,2021.1.3,61.82242620966559,
block_start,scrambled,scrambled025.bmp,,,,,0,137,137,137,,,,,,,,,,,,,,,,,,,,,,,,,,,,,,,,,,,,,,,,,,t,1.7799316998571157,309.15550290001556,None,309.15550290001556,None,2021-10-15-12:35:38.557988,310.96739110001363,311.2721900998149,310.96739110001363,None,None,310.96739110001363,None,311.7728205299703,None,,,,12005,0001,2021_Oct_15_1230,localizer,2021.1.3,61.82242620966559,
block,scrambled,scrambled005.bmp,,,,,0,138,138,138,,,,,,,,,,,,,,,,,,,,,,,,,,,,,,,,,,,,,,,,,,None,,311.7728205299703,None,311.7728205299703,None,2021-10-15-12:35:39.374176,311.7834997999016,312.08894609985873,311.7834997999016,None,y,311.7834997999016,None,312.5904128299793,None,0.3850170001387596,,,12005,0001,2021_Oct_15_1230,localizer,2021.1.3,61.82242620966559,
block,scrambled,scrambled032.bmp,,,,,0,139,139,139,,,,,,,,,,,,,,,,,,,,,,,,,,,,,,,,,,,,,,,,,,None,,312.5904128299793,None,312.5904128299793,None,2021-10-15-12:35:40.192833,312.60149239981547,312.90602430002764,312.60149239981547,None,None,312.60149239981547,None,313.40589012994894,None,,,,12005,0001,2021_Oct_15_1230,localizer,2021.1.3,61.82242620966559,
block,scrambled,scrambled060.bmp,,,,,0,140,140,140,,,,,,,,,,,,,,,,,,,,,,,,,,,,,,,,,,,,,,,,,,None,,313.40589012994894,None,313.40589012994894,None,2021-10-15-12:35:41.007823,313.4168740999885,313.72494330001064,313.4168740999885,None,y,313.4168740999885,None,314.2237996298121,None,0.3514590000268072,,,12005,0001,2021_Oct_15_1230,localizer,2021.1.3,61.82242620966559,
block,scrambled,scrambled044.bmp,,,,,0,141,141,141,,,,,,,,,,,,,,,,,,,,,,,,,,,,,,,,,,,,,,,,,,None,,314.2237996298121,None,314.2237996298121,None,2021-10-15-12:35:41.827387,314.2262108998839,314.53886549989693,314.2262108998839,None,None,314.2262108998839,None,315.02880503002086,None,,,,12005,0001,2021_Oct_15_1230,localizer,2021.1.3,61.82242620966559,
block,scrambled,scrambled034.bmp,,,,,0,142,142,142,,,,,,,,,,,,,,,,,,,,,,,,,,,,,,,,,,,,,,,,,,None,,315.02880503002086,None,315.02880503002086,None,2021-10-15-12:35:42.639180,315.03669699979946,315.3392723998986,315.03669699979946,315.03669699979946,None,315.03669699979946,315.03669699979946,315.8465919298818,None,,,,12005,0001,2021_Oct_15_1230,localizer,2021.1.3,61.82242620966559,
block,scrambled,scrambled024.bmp,,,,,0,143,143,143,,,,,,,,,,,,,,,,,,,,,,,,,,,,,,,,,,,,,,,,,,None,,315.8465919298818,None,315.8465919298818,None,2021-10-15-12:35:43.454921,315.86470719985664,316.1724994999822,315.86470719985664,None,y,315.86470719985664,None,316.6558612298453,None,0.44353419984690845,,,12005,0001,2021_Oct_15_1230,localizer,2021.1.3,61.82242620966559,
block,scrambled,scrambled042.bmp,,,,,0,144,144,144,,,,,,,,,,,,,,,,,,,,,,,,,,,,,,,,,,,,,,,,,,None,,316.6558612298453,None,316.6558612298453,None,2021-10-15-12:35:44.257340,316.6605795000214,316.97256010002457,316.6605795000214,None,None,316.6605795000214,None,317.4724292298546,None,,,,12005,0001,2021_Oct_15_1230,localizer,2021.1.3,61.82242620966559,
block,scrambled,scrambled069.bmp,,,,,0,145,145,145,,,,,,,,,,,,,,,,,,,,,,,,,,,,,,,,,,,,,,,,,,None,,317.4724292298546,None,317.4724292298546,None,2021-10-15-12:35:45.073862,317.48207709984854,317.78933169995435,317.48207709984854,None,None,317.48207709984854,None,318.2899699299363,None,,,,12005,0001,2021_Oct_15_1230,localizer,2021.1.3,61.82242620966559,
block,scrambled,scrambled036.bmp,,,,,0,146,146,146,,,,,,,,,,,,,,,,,,,,,,,,,,,,,,,,,,,,,,,,,,None,,318.2899699299363,None,318.2899699299363,None,2021-10-15-12:35:45.892413,318.29046099982224,318.6057468999643,318.29046099982224,None,None,318.29046099982224,None,319.0958099299809,None,,,,12005,0001,2021_Oct_15_1230,localizer,2021.1.3,61.82242620966559,
block,scrambled,scrambled007.bmp,,,,,0,147,147,147,,,,,,,,,,,,,,,,,,,,,,,,,,,,,,,,,,,,,,,,,,None,,319.0958099299809,None,319.0958099299809,None,2021-10-15-12:35:46.705193,319.1116030998528,319.4222834999673,319.1116030998528,None,None,319.1116030998528,None,319.90613402982706,None,,,,12005,0001,2021_Oct_15_1230,localizer,2021.1.3,61.82242620966559,
block,scrambled,scrambled061.bmp,,,,,0,148,148,148,,,,,,,,,,,,,,,,,,,,,,,,,,,,,,,,,,,,,,,,,,None,,319.90613402982706,None,319.90613402982706,None,2021-10-15-12:35:47.507670,319.9170119999908,320.2229151998181,319.9170119999908,None,None,319.9170119999908,None,320.7231295299483,None,,,,12005,0001,2021_Oct_15_1230,localizer,2021.1.3,61.82242620966559,
block,scrambled,scrambled088.bmp,,,,,0,149,149,149,,,,,,,,,,,,,,,,,,,,,,,,,,,,,,,,,,,,,,,,,,None,,320.7231295299483,None,320.7231295299483,None,2021-10-15-12:35:48.324570,320.7337839999236,321.03971379995346,320.7337839999236,None,None,320.7337839999236,None,321.5461874298984,None,,,,12005,0001,2021_Oct_15_1230,localizer,2021.1.3,61.82242620966559,
block,scrambled,scrambled056.bmp,,,,,0,150,150,150,,,,,,,,,,,,,,,,,,,,,,,,,,,,,,,,,,,,,,,,,,None,,321.5461874298984,None,321.5461874298984,None,2021-10-15-12:35:49.151547,321.56179169984534,321.87248469982296,321.56179169984534,None,None,321.56179169984534,None,322.35584553002843,None,,,,12005,0001,2021_Oct_15_1230,localizer,2021.1.3,61.82242620966559,
block_end,scrambled,scrambled076.bmp,,,,,0,151,151,151,,,,,,,,,,,,,,,,,,,,,,,,,,,,,,,,,,,,,,,,,,None,,322.35584553002843,None,322.35584553002843,None,2021-10-15-12:35:49.957512,322.3567969999276,322.65648219990544,322.3567969999276,None,None,322.3567969999276,None,323.1559438300086,None,,,,12005,0001,2021_Oct_15_1230,localizer,2021.1.3,61.82242620966559,
block_start,scenes,scenes015.bmp,,,,,0,152,152,152,,,,,,,,,,,,,,,,,,,,,,,,,,,,,,,,,,,,,,,,,,t,1.778646499849856,323.155768299941,None,323.155768299941,None,2021-10-15-12:35:52.559150,324.9576814000029,325.2727952999994,324.9576814000029,None,None,324.9576814000029,None,325.773078029952,None,,,,12005,0001,2021_Oct_15_1230,localizer,2021.1.3,61.82242620966559,
block,scenes,scenes040.bmp,,,,,0,153,153,153,,,,,,,,,,,,,,,,,,,,,,,,,,,,,,,,,,,,,,,,,,None,,325.773078029952,None,325.773078029952,None,2021-10-15-12:35:53.374530,325.78465259983204,326.0888987998478,325.78465259983204,None,None,325.78465259983204,None,326.58912842997813,None,,,,12005,0001,2021_Oct_15_1230,localizer,2021.1.3,61.82242620966559,
block,scenes,scenes065.bmp,,,,,0,154,154,154,,,,,,,,,,,,,,,,,,,,,,,,,,,,,,,,,,,,,,,,,,None,,326.58912842997813,None,326.58912842997813,None,2021-10-15-12:35:54.189569,326.5900130998343,326.8895864998922,326.5900130998343,None,None,326.5900130998343,None,327.39309892987364,None,,,,12005,0001,2021_Oct_15_1230,localizer,2021.1.3,61.82242620966559,
block,scenes,scenes051.bmp,,,,,0,155,155,155,,,,,,,,,,,,,,,,,,,,,,,,,,,,,,,,,,,,,,,,,,None,,327.39309892987364,None,327.39309892987364,None,2021-10-15-12:35:55.005446,327.4023099998012,327.70626829983667,327.4023099998012,327.4023099998012,None,327.4023099998012,327.4023099998012,328.2059653298696,None,,,,12005,0001,2021_Oct_15_1230,localizer,2021.1.3,61.82242620966559,
block,scenes,scenes044.bmp,,,,,0,156,156,156,,,,,,,,,,,,,,,,,,,,,,,,,,,,,,,,,,,,,,,,,,None,,328.2059653298696,None,328.2059653298696,None,2021-10-15-12:35:55.808028,328.20677959988825,328.5224104998633,328.20677959988825,None,None,328.20677959988825,None,329.01005742999257,None,,,,12005,0001,2021_Oct_15_1230,localizer,2021.1.3,61.82242620966559,
block,scenes,scenes013.bmp,,,,,0,157,157,157,,,,,,,,,,,,,,,,,,,,,,,,,,,,,,,,,,,,,,,,,,None,,329.01005742999257,None,329.01005742999257,None,2021-10-15-12:35:56.621398,329.02902299980633,329.3390912998002,329.02902299980633,329.02902299980633,None,329.02902299980633,329.02902299980633,329.8228835297981,None,,,,12005,0001,2021_Oct_15_1230,localizer,2021.1.3,61.82242620966559,
block,scenes,scenes064.bmp,,,,,0,158,158,158,,,,,,,,,,,,,,,,,,,,,,,,,,,,,,,,,,,,,,,,,,None,,329.8228835297981,None,329.8228835297981,None,2021-10-15-12:35:57.424354,329.8238067999482,330.1282079999801,329.8238067999482,None,None,329.8238067999482,None,330.6246834299294,None,,,,12005,0001,2021_Oct_15_1230,localizer,2021.1.3,61.82242620966559,
block,scenes,scenes072.bmp,,,,,0,159,159,159,,,,,,,,,,,,,,,,,,,,,,,,,,,,,,,,,,,,,,,,,,None,,330.6246834299294,None,330.6246834299294,None,2021-10-15-12:35:58.228141,330.6379066000227,330.93942139996216,330.6379066000227,330.6379066000227,None,330.6379066000227,330.6379066000227,331.4399199299281,None,,,,12005,0001,2021_Oct_15_1230,localizer,2021.1.3,61.82242620966559,
block,scenes,scenes010.bmp,,,,,0,160,160,160,,,,,,,,,,,,,,,,,,,,,,,,,,,,,,,,,,,,,,,,,,None,,331.4399199299281,None,331.4399199299281,None,2021-10-15-12:35:59.043190,331.4412346999161,331.75597749999724,331.4412346999161,None,None,331.4412346999161,None,332.25569772997403,None,,,,12005,0001,2021_Oct_15_1230,localizer,2021.1.3,61.82242620966559,
block,scenes,scenes061.bmp,,,,,0,161,161,161,,,,,,,,,,,,,,,,,,,,,,,,,,,,,,,,,,,,,,,,,,None,,332.25569772997403,None,332.25569772997403,None,2021-10-15-12:35:59.857128,332.2665211998392,332.57749279984273,332.2665211998392,None,None,332.2665211998392,None,333.07195462982634,None,,,,12005,0001,2021_Oct_15_1230,localizer,2021.1.3,61.82242620966559,
block,scenes,scenes061.bmp,,,,,0,162,162,162,,,,,,,,,,,,,,,,,,,,,,,,,,,,,,,,,,,,,,,,,,None,,333.07195462982634,None,333.07195462982634,None,2021-10-15-12:36:00.673390,333.0733938999474,333.3888893998228,333.0733938999474,None,y,333.0733938999474,None,333.87340162994803,None,0.7407599999569356,,,12005,0001,2021_Oct_15_1230,localizer,2021.1.3,61.82242620966559,
block,scenes,scenes091.bmp,,,,,0,163,163,163,,,,,,,,,,,,,,,,,,,,,,,,,,,,,,,,,,,,,,,,,,None,,333.87340162994803,None,333.87340162994803,None,2021-10-15-12:36:01.479045,333.8886257999111,334.18893009983003,333.8886257999111,333.8886257999111,None,333.8886257999111,333.8886257999111,334.68895253001244,None,,,,12005,0001,2021_Oct_15_1230,localizer,2021.1.3,61.82242620966559,
block,scenes,scenes004.bmp,,,,,0,164,164,164,,,,,,,,,,,,,,,,,,,,,,,,,,,,,,,,,,,,,,,,,,None,,334.68895253001244,None,334.68895253001244,None,2021-10-15-12:36:02.290388,334.699568499811,335.00693829986267,334.699568499811,None,None,334.699568499811,None,335.5059617298888,None,,,,12005,0001,2021_Oct_15_1230,localizer,2021.1.3,61.82242620966559,
block,scenes,scenes041.bmp,,,,,0,165,165,165,,,,,,,,,,,,,,,,,,,,,,,,,,,,,,,,,,,,,,,,,,None,,335.5059617298888,None,335.5059617298888,None,2021-10-15-12:36:03.106268,335.51439639995806,335.8226769999601,335.51439639995806,None,None,335.51439639995806,None,336.3233712299028,None,,,,12005,0001,2021_Oct_15_1230,localizer,2021.1.3,61.82242620966559,
block_end,scenes,scenes075.bmp,,,,,0,166,166,166,,,,,,,,,,,,,,,,,,,,,,,,,,,,,,,,,,,,,,,,,,None,,336.3233712299028,None,336.3233712299028,None,2021-10-15-12:36:03.924791,336.33440699987113,336.6425210998859,336.33440699987113,None,None,336.33440699987113,None,337.1387817298295,None,,,,12005,0001,2021_Oct_15_1230,localizer,2021.1.3,61.82242620966559,
block_start,objects,objects020.bmp,,,,,0,167,167,167,,,,,,,,,,,,,,,,,,,,,,,,,,,,,,,,,,,,,,,,,,t,1.7953786000143737,337.13893949985504,None,337.13893949985504,None,2021-10-15-12:36:06.556628,338.9603416000027,339.273495899979,338.9603416000027,None,None,338.9603416000027,None,339.7733180299168,None,,,,12005,0001,2021_Oct_15_1230,localizer,2021.1.3,61.82242620966559,
block,objects,objects082.bmp,,,,,0,168,168,168,,,,,,,,,,,,,,,,,,,,,,,,,,,,,,,,,,,,,,,,,,None,,339.7733180299168,None,339.7733180299168,None,2021-10-15-12:36:07.375842,339.7856335998513,340.089009599993,339.7856335998513,None,None,339.7856335998513,None,340.58920962989794,None,,,,12005,0001,2021_Oct_15_1230,localizer,2021.1.3,61.82242620966559,
block,objects,objects065.bmp,,,,,0,169,169,169,,,,,,,,,,,,,,,,,,,,,,,,,,,,,,,,,,,,,,,,,,None,,340.58920962989794,None,340.58920962989794,None,2021-10-15-12:36:08.190640,340.59942889981903,340.9060744999442,340.59942889981903,None,None,340.59942889981903,None,341.40539932993704,None,,,,12005,0001,2021_Oct_15_1230,localizer,2021.1.3,61.82242620966559,
block,objects,objects087.bmp,,,,,0,170,170,170,,,,,,,,,,,,,,,,,,,,,,,,,,,,,,,,,,,,,,,,,,None,,341.40539932993704,None,341.40539932993704,None,2021-10-15-12:36:09.006838,341.41342969983816,341.7224551998079,341.41342969983816,None,None,341.41342969983816,None,342.2224020298803,None,,,,12005,0001,2021_Oct_15_1230,localizer,2021.1.3,61.82242620966559,
block,objects,objects068.bmp,,,,,0,171,171,171,,,,,,,,,,,,,,,,,,,,,,,,,,,,,,,,,,,,,,,,,,None,,342.2224020298803,None,342.2224020298803,None,2021-10-15-12:36:09.823836,342.2336293000262,342.53916139993817,342.2336293000262,None,None,342.2336293000262,None,343.0390354299219,None,,,,12005,0001,2021_Oct_15_1230,localizer,2021.1.3,61.82242620966559,
block,objects,objects049.bmp,,,,,0,172,172,172,,,,,,,,,,,,,,,,,,,,,,,,,,,,,,,,,,,,,,,,,,None,,343.0390354299219,None,343.0390354299219,None,2021-10-15-12:36:10.640474,343.0478168998379,343.35646179993637,343.0478168998379,None,None,343.0478168998379,None,343.8566737298155,None,,,,12005,0001,2021_Oct_15_1230,localizer,2021.1.3,61.82242620966559,
block,objects,objects027.bmp,,,,,0,173,173,173,,,,,,,,,,,,,,,,,,,,,,,,,,,,,,,,,,,,,,,,,,None,,343.8566737298155,None,343.8566737298155,None,2021-10-15-12:36:11.459286,343.86830789991654,344.1724501999561,343.86830789991654,None,None,343.86830789991654,None,344.66241902995387,None,,,,12005,0001,2021_Oct_15_1230,localizer,2021.1.3,61.82242620966559,
block,objects,objects050.bmp,,,,,0,174,174,174,,,,,,,,,,,,,,,,,,,,,,,,,,,,,,,,,,,,,,,,,,None,,344.66241902995387,None,344.66241902995387,None,2021-10-15-12:36:12.267899,344.67693950003013,344.9892464999575,344.67693950003013,None,None,344.67693950003013,None,345.47280033000277,None,,,,12005,0001,2021_Oct_15_1230,localizer,2021.1.3,61.82242620966559,
block,objects,objects030.bmp,,,,,0,175,175,175,,,,,,,,,,,,,,,,,,,,,,,,,,,,,,,,,,,,,,,,,,None,,345.47280033000277,None,345.47280033000277,None,2021-10-15-12:36:13.074544,345.4833545999136,345.81235989998095,345.4833545999136,None,None,345.4833545999136,None,346.2900116299046,None,,,,12005,0001,2021_Oct_15_1230,localizer,2021.1.3,61.82242620966559,
block,objects,objects056.bmp,,,,,0,176,176,176,,,,,,,,,,,,,,,,,,,,,,,,,,,,,,,,,,,,,,,,,,None,,346.2900116299046,None,346.2900116299046,None,2021-10-15-12:36:13.892629,346.3012488000095,346.60572649980895,346.3012488000095,None,None,346.3012488000095,None,347.1060078299837,None,,,,12005,0001,2021_Oct_15_1230,localizer,2021.1.3,61.82242620966559,
block,objects,objects035.bmp,,,,,0,177,177,177,,,,,,,,,,,,,,,,,,,,,,,,,,,,,,,,,,,,,,,,,,None,,347.1060078299837,None,347.1060078299837,None,2021-10-15-12:36:14.707440,347.1068063999992,347.4058967998717,347.1068063999992,None,y,347.1068063999992,None,347.9222474298207,None,0.702506500063464,,,12005,0001,2021_Oct_15_1230,localizer,2021.1.3,61.82242620966559,
block,objects,objects003.bmp,,,,,0,178,178,178,,,,,,,,,,,,,,,,,,,,,,,,,,,,,,,,,,,,,,,,,,None,,347.9222474298207,None,347.9222474298207,None,2021-10-15-12:36:15.523355,347.93072039983235,348.2393582998775,347.93072039983235,None,None,347.93072039983235,None,348.7398702299455,None,,,,12005,0001,2021_Oct_15_1230,localizer,2021.1.3,61.82242620966559,
block,objects,objects070.bmp,,,,,0,179,179,179,,,,,,,,,,,,,,,,,,,,,,,,,,,,,,,,,,,,,,,,,,None,,348.7398702299455,None,348.7398702299455,None,2021-10-15-12:36:16.342287,348.74086969997734,349.04155149986036,348.74086969997734,None,y,348.74086969997734,None,349.5556876298273,None,0.735136799979955,,,12005,0001,2021_Oct_15_1230,localizer,2021.1.3,61.82242620966559,
block,objects,objects018.bmp,,,,,0,180,180,180,,,,,,,,,,,,,,,,,,,,,,,,,,,,,,,,,,,,,,,,,,None,,349.5556876298273,None,349.5556876298273,None,2021-10-15-12:36:17.157124,349.5639505998697,349.87249409989454,349.5639505998697,None,None,349.5639505998697,None,350.373030629917,None,,,,12005,0001,2021_Oct_15_1230,localizer,2021.1.3,61.82242620966559,
block_end,objects,objects075.bmp,,,,,0,181,181,181,,,,,,,,,,,,,,,,,,,,,,,,,,,,,,,,,,,,,,,,,,None,,350.373030629917,None,350.373030629917,None,2021-10-15-12:36:17.974661,350.38386969990097,350.6900375999976,350.38386969990097,None,None,350.38386969990097,None,351.1893495300086,None,,,,12005,0001,2021_Oct_15_1230,localizer,2021.1.3,61.82242620966559,
null_block,null_block,null_block.bmp,,,,,0,182,182,182,,,,,,,,,,,,,,,,,,,,,,,,,,,,,,,,,,,,,,,,,,t,1.745632000034675,351.18928849999793,None,351.18928849999793,None,2021-10-15-12:36:20.569769,352.9624622298637,None,352.9624622298637,None,None,352.9624622298637,None,352.9749486998189,None,,,,12005,0001,2021_Oct_15_1230,localizer,2021.1.3,61.82242620966559,
block_start,scenes,scenes009.bmp,,,,,0,183,183,183,,,,,,,,,,,,,,,,,,,,,,,,,,,,,,,,,,,,,,,,,,t,1.9450474998448044,364.9892562997993,None,364.9892562997993,None,2021-10-15-12:36:34.558312,366.9647321999073,367.2725910998415,366.9647321999073,None,None,366.9647321999073,None,367.77301672983447,None,,,,12005,0001,2021_Oct_15_1230,localizer,2021.1.3,61.82242620966559,
block,scenes,scenes081.bmp,,,,,0,184,184,184,,,,,,,,,,,,,,,,,,,,,,,,,,,,,,,,,,,,,,,,,,None,,367.77301672983447,None,367.77301672983447,None,2021-10-15-12:36:35.374458,367.7839955999516,368.08910749992356,367.7839955999516,None,None,367.7839955999516,None,368.5900805298937,None,,,,12005,0001,2021_Oct_15_1230,localizer,2021.1.3,61.82242620966559,
block,scenes,scenes057.bmp,,,,,0,185,185,185,,,,,,,,,,,,,,,,,,,,,,,,,,,,,,,,,,,,,,,,,,None,,368.5900805298937,None,368.5900805298937,None,2021-10-15-12:36:36.192690,368.60162829980254,368.9060763998423,368.60162829980254,None,None,368.60162829980254,None,369.40593642995225,None,,,,12005,0001,2021_Oct_15_1230,localizer,2021.1.3,61.82242620966559,
block,scenes,scenes003.bmp,,,,,0,186,186,186,,,,,,,,,,,,,,,,,,,,,,,,,,,,,,,,,,,,,,,,,,None,,369.40593642995225,None,369.40593642995225,None,2021-10-15-12:36:37.007375,369.4151694998145,369.72261099983007,369.4151694998145,None,None,369.4151694998145,None,370.22259282993616,None,,,,12005,0001,2021_Oct_15_1230,localizer,2021.1.3,61.82242620966559,
block,scenes,scenes088.bmp,,,,,0,187,187,187,,,,,,,,,,,,,,,,,,,,,,,,,,,,,,,,,,,,,,,,,,None,,370.22259282993616,None,370.22259282993616,None,2021-10-15-12:36:37.824113,370.23202639981173,370.5392691998277,370.23202639981173,None,None,370.23202639981173,None,371.0390538298292,None,,,,12005,0001,2021_Oct_15_1230,localizer,2021.1.3,61.82242620966559,
block,scenes,scenes025.bmp,,,,,0,188,188,188,,,,,,,,,,,,,,,,,,,,,,,,,,,,,,,,,,,,,,,,,,None,,371.0390538298292,None,371.0390538298292,None,2021-10-15-12:36:38.640491,371.04902569996193,371.35594339994714,371.04902569996193,None,None,371.04902569996193,None,371.85673392980823,None,,,,12005,0001,2021_Oct_15_1230,localizer,2021.1.3,61.82242620966559,
block,scenes,scenes075.bmp,,,,,0,189,189,189,,,,,,,,,,,,,,,,,,,,,,,,,,,,,,,,,,,,,,,,,,None,,371.85673392980823,None,371.85673392980823,None,2021-10-15-12:36:39.459351,371.85763879981823,372.17264839983545,371.85763879981823,None,None,371.85763879981823,None,372.67254692988934,None,,,,12005,0001,2021_Oct_15_1230,localizer,2021.1.3,61.82242620966559,
block,scenes,scenes078.bmp,,,,,0,190,190,190,,,,,,,,,,,,,,,,,,,,,,,,,,,,,,,,,,,,,,,,,,None,,372.67254692988934,None,372.67254692988934,None,2021-10-15-12:36:40.273652,372.6736166998744,372.97269329987466,372.6736166998744,None,None,372.6736166998744,None,373.47296202995346,None,,,,12005,0001,2021_Oct_15_1230,localizer,2021.1.3,61.82242620966559,
block,scenes,scenes005.bmp,,,,,0,191,191,191,,,,,,,,,,,,,,,,,,,,,,,,,,,,,,,,,,,,,,,,,,None,,373.47296202995346,None,373.47296202995346,None,2021-10-15-12:36:41.075813,373.47488419990987,373.78927579987794,373.47488419990987,373.47488419990987,None,373.47488419990987,373.47488419990987,374.27398182984905,None,,,,12005,0001,2021_Oct_15_1230,localizer,2021.1.3,61.82242620966559,
block,scenes,scenes020.bmp,,,,,0,192,192,192,,,,,,,,,,,,,,,,,,,,,,,,,,,,,,,,,,,,,,,,,,None,,374.27398182984905,None,374.27398182984905,None,2021-10-15-12:36:41.878878,374.28903370001353,374.58919600001536,374.28903370001353,374.28903370001353,None,374.28903370001353,374.28903370001353,375.08930762994567,None,,,,12005,0001,2021_Oct_15_1230,localizer,2021.1.3,61.82242620966559,
block,scenes,scenes006.bmp,,,,,0,193,193,193,,,,,,,,,,,,,,,,,,,,,,,,,,,,,,,,,,,,,,,,,,None,,375.08930762994567,None,375.08930762994567,None,2021-10-15-12:36:42.690743,375.0986023999285,375.40592119982466,375.0986023999285,None,None,375.0986023999285,None,375.90634152989367,None,,,,12005,0001,2021_Oct_15_1230,localizer,2021.1.3,61.82242620966559,
block,scenes,scenes047.bmp,,,,,0,194,194,194,,,,,,,,,,,,,,,,,,,,,,,,,,,,,,,,,,,,,,,,,,None,,375.90634152989367,None,375.90634152989367,None,2021-10-15-12:36:43.507970,375.91744180000387,376.2224369000178,375.91744180000387,None,None,375.91744180000387,None,376.721824829909,None,,,,12005,0001,2021_Oct_15_1230,localizer,2021.1.3,61.82242620966559,
block,scenes,scenes028.bmp,,,,,0,195,195,195,,,,,,,,,,,,,,,,,,,,,,,,,,,,,,,,,,,,,,,,,,None,,376.721824829909,None,376.721824829909,None,2021-10-15-12:36:44.322775,376.72310419986024,377.02264359989204,376.72310419986024,None,None,376.72310419986024,None,377.53093822996595,None,,,,12005,0001,2021_Oct_15_1230,localizer,2021.1.3,61.82242620966559,
block,scenes,scenes022.bmp,,,,,0,196,196,196,,,,,,,,,,,,,,,,,,,,,,,,,,,,,,,,,,,,,,,,,,None,,377.53093822996595,None,377.53093822996595,None,2021-10-15-12:36:45.138515,377.55109159997664,377.8559855998028,377.55109159997664,None,None,377.55109159997664,None,378.3395944298012,None,,,,12005,0001,2021_Oct_15_1230,localizer,2021.1.3,61.82242620966559,
block_end,scenes,scenes015.bmp,,,,,0,197,197,197,,,,,,,,,,,,,,,,,,,,,,,,,,,,,,,,,,,,,,,,,,None,,378.3395944298012,None,378.3395944298012,None,2021-10-15-12:36:45.941024,378.3404557998292,378.6398893999867,378.3404557998292,None,y,378.3404557998292,None,379.1560573298251,None,0.21775229997001588,,,12005,0001,2021_Oct_15_1230,localizer,2021.1.3,61.82242620966559,
null_block,null_block,null_block.bmp,,,,,0,198,198,198,,,,,,,,,,,,,,,,,,,,,,,,,,,,,,,,,,,,,,,,,,t,1.7782077000010759,379.1560648998711,None,379.1560648998711,None,2021-10-15-12:36:48.556704,380.9562704299809,None,380.9562704299809,None,None,380.9562704299809,None,380.95867770002224,None,,,,12005,0001,2021_Oct_15_1230,localizer,2021.1.3,61.82242620966559,
block_start,objects,objects060.bmp,,,,,0,199,199,199,,,,,,,,,,,,,,,,,,,,,,,,,,,,,,,,,,,,,,,,,,t,1.9613299001939595,392.972917499952,None,392.972917499952,None,2021-10-15-12:37:02.558454,394.9667611999903,395.272583700018,394.9667611999903,None,None,394.9667611999903,None,395.7727766299853,None,,,,12005,0001,2021_Oct_15_1230,localizer,2021.1.3,61.82242620966559,
block,objects,objects084.bmp,,,,,0,200,200,200,,,,,,,,,,,,,,,,,,,,,,,,,,,,,,,,,,,,,,,,,,None,,395.7727766299853,None,395.7727766299853,None,2021-10-15-12:37:03.374204,395.78238260000944,396.0893639998976,395.78238260000944,None,None,395.78238260000944,None,396.59723062997216,None,,,,12005,0001,2021_Oct_15_1230,localizer,2021.1.3,61.82242620966559,
block,objects,objects041.bmp,,,,,0,201,201,201,,,,,,,,,,,,,,,,,,,,,,,,,,,,,,,,,,,,,,,,,,None,,396.59723062997216,None,396.59723062997216,None,2021-10-15-12:37:04.205391,396.61123119993135,396.92258189991117,396.61123119993135,None,None,396.61123119993135,None,397.41271842990534,None,,,,12005,0001,2021_Oct_15_1230,localizer,2021.1.3,61.82242620966559,
block,objects,objects051.bmp,,,,,0,202,202,202,,,,,,,,,,,,,,,,,,,,,,,,,,,,,,,,,,,,,,,,,,None,,397.41271842990534,None,397.41271842990534,None,2021-10-15-12:37:05.021125,397.43213179986924,397.73962329979986,397.43213179986924,None,None,397.43213179986924,None,398.22288512995,None,,,,12005,0001,2021_Oct_15_1230,localizer,2021.1.3,61.82242620966559,
block,objects,objects009.bmp,,,,,0,203,203,203,,,,,,,,,,,,,,,,,,,,,,,,,,,,,,,,,,,,,,,,,,None,,398.22288512995,None,398.22288512995,None,2021-10-15-12:37:05.824534,398.22381519991904,398.5227848999202,398.22381519991904,None,y,398.22381519991904,None,399.0392300300067,None,0.6982032000087202,,,12005,0001,2021_Oct_15_1230,localizer,2021.1.3,61.82242620966559,
block,objects,objects044.bmp,,,,,0,204,204,204,,,,,,,,,,,,,,,,,,,,,,,,,,,,,,,,,,,,,,,,,,None,,399.0392300300067,None,399.0392300300067,None,2021-10-15-12:37:06.639682,399.0405412998516,399.3562222998589,399.0405412998516,None,y,399.0405412998516,None,399.8399041299475,None,0.6624184001702815,,,12005,0001,2021_Oct_15_1230,localizer,2021.1.3,61.82242620966559,
block,objects,objects067.bmp,,,,,0,205,205,205,,,,,,,,,,,,,,,,,,,,,,,,,,,,,,,,,,,,,,,,,,None,,399.8399041299475,None,399.8399041299475,None,2021-10-15-12:37:07.443440,399.8519468999002,400.15672650001943,399.8519468999002,399.8519468999002,None,399.8519468999002,399.8519468999002,400.65644072995053,None,,,,12005,0001,2021_Oct_15_1230,localizer,2021.1.3,61.82242620966559,
block,objects,objects070.bmp,,,,,0,206,206,206,,,,,,,,,,,,,,,,,,,,,,,,,,,,,,,,,,,,,,,,,,None,,400.65644072995053,None,400.65644072995053,None,2021-10-15-12:37:08.257872,400.6572429998778,400.9563582998235,400.6572429998778,None,y,400.6572429998778,None,401.4566460298141,None,0.49366319994442165,,,12005,0001,2021_Oct_15_1230,localizer,2021.1.3,61.82242620966559,
block,objects,objects049.bmp,,,,,0,207,207,207,,,,,,,,,,,,,,,,,,,,,,,,,,,,,,,,,,,,,,,,,,None,,401.4566460298141,None,401.4566460298141,None,2021-10-15-12:37:09.060269,401.45936999982223,401.77272069989704,401.45936999982223,401.45936999982223,y,401.45936999982223,401.45936999982223,402.2742627300089,None,0.7027173999231309,,,12005,0001,2021_Oct_15_1230,localizer,2021.1.3,61.82242620966559,
block,objects,objects077.bmp,,,,,0,208,208,208,,,,,,,,,,,,,,,,,,,,,,,,,,,,,,,,,,,,,,,,,,None,,402.2742627300089,None,402.2742627300089,None,2021-10-15-12:37:09.877858,402.27734019979835,402.590202299878,402.27734019979835,None,y,402.27734019979835,None,403.0903426299104,None,0.4696921000722796,,,12005,0001,2021_Oct_15_1230,localizer,2021.1.3,61.82242620966559,
block,objects,objects079.bmp,,,,,0,209,209,209,,,,,,,,,,,,,,,,,,,,,,,,,,,,,,,,,,,,,,,,,,None,,403.0903426299104,None,403.0903426299104,None,2021-10-15-12:37:10.692753,403.0911351998802,403.406664500013,403.0911351998802,None,y,403.0911351998802,None,403.90644532998556,None,0.46029610000550747,,,12005,0001,2021_Oct_15_1230,localizer,2021.1.3,61.82242620966559,
block,objects,objects015.bmp,,,,,0,210,210,210,,,,,,,,,,,,,,,,,,,,,,,,,,,,,,,,,,,,,,,,,,None,,403.90644532998556,None,403.90644532998556,None,2021-10-15-12:37:11.508083,403.9174436000176,404.22303659981117,403.9174436000176,None,None,403.9174436000176,None,404.7249673299724,None,,,,12005,0001,2021_Oct_15_1230,localizer,2021.1.3,61.82242620966559,
block,objects,objects055.bmp,,,,,0,211,211,211,,,,,,,,,,,,,,,,,,,,,,,,,,,,,,,,,,,,,,,,,,None,,404.7249673299724,None,404.7249673299724,None,2021-10-15-12:37:12.328573,404.7387488000095,405.03983229980804,404.7387488000095,None,None,404.7387488000095,None,405.5395312299719,None,,,,12005,0001,2021_Oct_15_1230,localizer,2021.1.3,61.82242620966559,
block,objects,objects048.bmp,,,,,0,212,212,212,,,,,,,,,,,,,,,,,,,,,,,,,,,,,,,,,,,,,,,,,,None,,405.5395312299719,None,405.5395312299719,None,2021-10-15-12:37:13.141204,405.54890409996733,405.8568053999916,405.54890409996733,None,None,405.54890409996733,None,406.35688193000385,None,,,,12005,0001,2021_Oct_15_1230,localizer,2021.1.3,61.82242620966559,
block_end,objects,objects047.bmp,,,,,0,213,213,213,,,,,,,,,,,,,,,,,,,,,,,,,,,,,,,,,,,,,,,,,,None,,406.35688193000385,None,406.35688193000385,None,2021-10-15-12:37:13.959285,406.3575128999073,406.67227589990944,406.3575128999073,None,None,406.3575128999073,None,407.1727920300094,None,,,,12005,0001,2021_Oct_15_1230,localizer,2021.1.3,61.82242620966559,
block_start,scrambled,scrambled051.bmp,,,,,0,214,214,214,,,,,,,,,,,,,,,,,,,,,,,,,,,,,,,,,,,,,,,,,,t,1.7616840000264347,407.1725517997984,None,407.1725517997984,None,2021-10-15-12:37:16.556921,408.9571938000154,409.25642659980804,408.9571938000154,None,None,408.9571938000154,None,409.77276682991067,None,,,,12005,0001,2021_Oct_15_1230,localizer,2021.1.3,61.82242620966559,
block,scrambled,scrambled025.bmp,,,,,0,215,215,215,,,,,,,,,,,,,,,,,,,,,,,,,,,,,,,,,,,,,,,,,,None,,409.77276682991067,None,409.77276682991067,None,2021-10-15-12:37:17.373778,409.7737794998102,410.07757219998166,409.7737794998102,None,None,409.7737794998102,None,410.57572322988415,None,,,,12005,0001,2021_Oct_15_1230,localizer,2021.1.3,61.82242620966559,
block,scrambled,scrambled042.bmp,,,,,0,216,216,216,,,,,,,,,,,,,,,,,,,,,,,,,,,,,,,,,,,,,,,,,,None,,410.57572322988415,None,410.57572322988415,None,2021-10-15-12:37:18.179296,410.5827587998938,410.8896251998376,410.5827587998938,410.5827587998938,None,410.5827587998938,410.5827587998938,411.3958387300139,None,,,,12005,0001,2021_Oct_15_1230,localizer,2021.1.3,61.82242620966559,
block,scrambled,scrambled088.bmp,,,,,0,217,217,217,,,,,,,,,,,,,,,,,,,,,,,,,,,,,,,,,,,,,,,,,,None,,411.3958387300139,None,411.3958387300139,None,2021-10-15-12:37:18.999321,411.39915349986404,411.7072953998577,411.39915349986404,None,y,411.39915349986404,None,412.2067798299016,None,0.4849594999104738,,,12005,0001,2021_Oct_15_1230,localizer,2021.1.3,61.82242620966559,
block,scrambled,scrambled033.bmp,,,,,0,218,218,218,,,,,,,,,,,,,,,,,,,,,,,,,,,,,,,,,,,,,,,,,,None,,412.2067798299016,None,412.2067798299016,None,2021-10-15-12:37:19.809369,412.217738899868,412.5229287999682,412.217738899868,None,None,412.217738899868,None,413.0294178297976,None,,,,12005,0001,2021_Oct_15_1230,localizer,2021.1.3,61.82242620966559,
block,scrambled,scrambled047.bmp,,,,,0,219,219,219,,,,,,,,,,,,,,,,,,,,,,,,,,,,,,,,,,,,,,,,,,None,,413.0294178297976,None,413.0294178297976,None,2021-10-15-12:37:20.638767,413.0493356999941,413.3562818998471,413.0493356999941,None,None,413.0493356999941,None,413.84268692994954,None,,,,12005,0001,2021_Oct_15_1230,localizer,2021.1.3,61.82242620966559,
block,scrambled,scrambled013.bmp,,,,,0,220,220,220,,,,,,,,,,,,,,,,,,,,,,,,,,,,,,,,,,,,,,,,,,None,,413.84268692994954,None,413.84268692994954,None,2021-10-15-12:37:21.445288,413.8544785999693,414.15633079991676,413.8544785999693,None,None,413.8544785999693,None,414.6561618298059,None,,,,12005,0001,2021_Oct_15_1230,localizer,2021.1.3,61.82242620966559,
block,scrambled,scrambled028.bmp,,,,,0,221,221,221,,,,,,,,,,,,,,,,,,,,,,,,,,,,,,,,,,,,,,,,,,None,,414.6561618298059,None,414.6561618298059,None,2021-10-15-12:37:22.257592,414.66629379987717,414.9726108999457,414.66629379987717,None,y,414.66629379987717,None,415.4626690298086,None,0.3225009001325816,,,12005,0001,2021_Oct_15_1230,localizer,2021.1.3,61.82242620966559,
block,scrambled,scrambled030.bmp,,,,,0,222,222,222,,,,,,,,,,,,,,,,,,,,,,,,,,,,,,,,,,,,,,,,,,None,,415.4626690298086,None,415.4626690298086,None,2021-10-15-12:37:23.070104,415.47960660001263,415.789484199835,415.47960660001263,None,None,415.47960660001263,None,416.27375852989496,None,,,,12005,0001,2021_Oct_15_1230,localizer,2021.1.3,61.82242620966559,
block,scrambled,scrambled010.bmp,,,,,0,223,223,223,,,,,,,,,,,,,,,,,,,,,,,,,,,,,,,,,,,,,,,,,,None,,416.27375852989496,None,416.27375852989496,None,2021-10-15-12:37:23.876260,416.2757988998201,416.5897725999821,416.2757988998201,None,None,416.2757988998201,None,417.07560992983633,None,,,,12005,0001,2021_Oct_15_1230,localizer,2021.1.3,61.82242620966559,
block,scrambled,scrambled011.bmp,,,,,0,224,224,224,,,,,,,,,,,,,,,,,,,,,,,,,,,,,,,,,,,,,,,,,,None,,417.07560992983633,None,417.07560992983633,None,2021-10-15-12:37:24.681200,417.0911379000172,417.40634629991837,417.0911379000172,417.0911379000172,None,417.0911379000172,417.0911379000172,417.88940043000036,None,,,,12005,0001,2021_Oct_15_1230,localizer,2021.1.3,61.82242620966559,
block,scrambled,scrambled029.bmp,,,,,0,225,225,225,,,,,,,,,,,,,,,,,,,,,,,,,,,,,,,,,,,,,,,,,,None,,417.88940043000036,None,417.88940043000036,None,2021-10-15-12:37:25.490485,417.8970720998477,418.2081369999796,417.8970720998477,None,None,417.8970720998477,None,418.7076236298075,None,,,,12005,0001,2021_Oct_15_1230,localizer,2021.1.3,61.82242620966559,
block,scrambled,scrambled075.bmp,,,,,0,226,226,226,,,,,,,,,,,,,,,,,,,,,,,,,,,,,,,,,,,,,,,,,,None,,418.7076236298075,None,418.7076236298075,None,2021-10-15-12:37:26.310216,418.7208455998916,419.0231643000152,418.7208455998916,None,None,418.7208455998916,None,419.53135862990746,None,,,,12005,0001,2021_Oct_15_1230,localizer,2021.1.3,61.82242620966559,
block,scrambled,scrambled037.bmp,,,,,0,227,227,227,,,,,,,,,,,,,,,,,,,,,,,,,,,,,,,,,,,,,,,,,,None,,419.53135862990746,None,419.53135862990746,None,2021-10-15-12:37:27.138988,419.5415502998512,419.8562803999521,419.5415502998512,None,None,419.5415502998512,None,420.3397188298171,None,,,,12005,0001,2021_Oct_15_1230,localizer,2021.1.3,61.82242620966559,
block_end,scrambled,scrambled004.bmp,,,,,0,228,228,228,,,,,,,,,,,,,,,,,,,,,,,,,,,,,,,,,,,,,,,,,,None,,420.3397188298171,None,420.3397188298171,None,2021-10-15-12:37:27.941345,420.34951499989256,420.6564463998657,420.34951499989256,None,None,420.34951499989256,None,421.15700312980914,None,,,,12005,0001,2021_Oct_15_1230,localizer,2021.1.3,61.82242620966559,
block_start,faces,faces056.bmp,,,,,0,229,229,229,,,,,,,,,,,,,,,,,,,,,,,,,,,,,,,,,,,,,,,,,,t,1.7772848000749946,421.1570027999114,None,421.1570027999114,None,2021-10-15-12:37:30.564424,422.97605049982667,423.2898481998127,422.97605049982667,None,None,422.97605049982667,None,423.7743760298239,None,,,,12005,0001,2021_Oct_15_1230,localizer,2021.1.3,61.82242620966559,
block,faces,faces059.bmp,,,,,0,230,230,230,,,,,,,,,,,,,,,,,,,,,,,,,,,,,,,,,,,,,,,,,,None,,423.7743760298239,None,423.7743760298239,None,2021-10-15-12:37:31.377394,423.7769361999817,424.0961913999636,423.7769361999817,None,y,423.7769361999817,None,424.5895905298879,None,0.6262562000192702,,,12005,0001,2021_Oct_15_1230,localizer,2021.1.3,61.82242620966559,
block,faces,faces006.bmp,,,,,0,231,231,231,,,,,,,,,,,,,,,,,,,,,,,,,,,,,,,,,,,,,,,,,,None,,424.5895905298879,None,424.5895905298879,None,2021-10-15-12:37:32.189677,424.5972294998355,424.90621149982326,424.5972294998355,None,y,424.5972294998355,None,425.40673202995674,None,0.5508170002140105,,,12005,0001,2021_Oct_15_1230,localizer,2021.1.3,61.82242620966559,
block,faces,faces079.bmp,,,,,0,232,232,232,,,,,,,,,,,,,,,,,,,,,,,,,,,,,,,,,,,,,,,,,,None,,425.40673202995674,None,425.40673202995674,None,2021-10-15-12:37:33.008362,425.4074303000234,425.7065579998307,425.4074303000234,None,None,425.4074303000234,None,426.20702842993194,None,,,,12005,0001,2021_Oct_15_1230,localizer,2021.1.3,61.82242620966559,
block,faces,faces082.bmp,,,,,0,233,233,233,,,,,,,,,,,,,,,,,,,,,,,,,,,,,,,,,,,,,,,,,,None,,426.20702842993194,None,426.20702842993194,None,2021-10-15-12:37:33.811632,426.22074719984084,426.52295639994554,426.22074719984084,426.22074719984084,None,426.22074719984084,426.22074719984084,427.0237478299299,None,,,,12005,0001,2021_Oct_15_1230,localizer,2021.1.3,61.82242620966559,
block,faces,faces063.bmp,,,,,0,234,234,234,,,,,,,,,,,,,,,,,,,,,,,,,,,,,,,,,,,,,,,,,,None,,427.0237478299299,None,427.0237478299299,None,2021-10-15-12:37:34.626360,427.0243863000069,427.3395402999595,427.0243863000069,None,y,427.0243863000069,None,427.83929552996995,None,0.5755833999719471,,,12005,0001,2021_Oct_15_1230,localizer,2021.1.3,61.82242620966559,
block,faces,faces076.bmp,,,,,0,235,235,235,,,,,,,,,,,,,,,,,,,,,,,,,,,,,,,,,,,,,,,,,,None,,427.83929552996995,None,427.83929552996995,None,2021-10-15-12:37:35.439665,427.84800019999966,428.1567379999906,427.84800019999966,None,None,427.84800019999966,None,428.6562596298521,None,,,,12005,0001,2021_Oct_15_1230,localizer,2021.1.3,61.82242620966559,
block,faces,faces051.bmp,,,,,0,236,236,236,,,,,,,,,,,,,,,,,,,,,,,,,,,,,,,,,,,,,,,,,,None,,428.6562596298521,None,428.6562596298521,None,2021-10-15-12:37:36.257697,428.6664474999998,428.97581329988316,428.6664474999998,None,None,428.6664474999998,None,429.47314262993166,None,,,,12005,0001,2021_Oct_15_1230,localizer,2021.1.3,61.82242620966559,
block,faces,faces023.bmp,,,,,0,237,237,237,,,,,,,,,,,,,,,,,,,,,,,,,,,,,,,,,,,,,,,,,,None,,429.47314262993166,None,429.47314262993166,None,2021-10-15-12:37:37.074989,429.47399909980595,429.7733626998961,429.47399909980595,None,y,429.47399909980595,None,430.2734521298902,None,0.5580577999353409,,,12005,0001,2021_Oct_15_1230,localizer,2021.1.3,61.82242620966559,
block,faces,faces020.bmp,,,,,0,238,238,238,,,,,,,,,,,,,,,,,,,,,,,,,,,,,,,,,,,,,,,,,,None,,430.2734521298902,None,430.2734521298902,None,2021-10-15-12:37:37.876994,430.2878999998793,430.589867600007,430.2878999998793,430.2878999998793,None,430.2878999998793,430.2878999998793,431.0895879298681,None,,,,12005,0001,2021_Oct_15_1230,localizer,2021.1.3,61.82242620966559,
block,faces,faces020.bmp,,,,,0,239,239,239,,,,,,,,,,,,,,,,,,,,,,,,,,,,,,,,,,,,,,,,,,None,,431.0895879298681,None,431.0895879298681,None,2021-10-15-12:37:38.691021,431.09057699982077,431.3917035998311,431.09057699982077,None,y,431.09057699982077,None,431.8900091298623,None,0.7563403998501599,,,12005,0001,2021_Oct_15_1230,localizer,2021.1.3,61.82242620966559,
block,faces,faces052.bmp,,,,,0,240,240,240,,,,,,,,,,,,,,,,,,,,,,,,,,,,,,,,,,,,,,,,,,None,,431.8900091298623,None,431.8900091298623,None,2021-10-15-12:37:39.493562,431.90354650001973,432.2063631999772,431.90354650001973,431.90354650001973,None,431.90354650001973,431.90354650001973,432.7070671298774,None,,,,12005,0001,2021_Oct_15_1230,localizer,2021.1.3,61.82242620966559,
block,faces,faces087.bmp,,,,,0,241,241,241,,,,,,,,,,,,,,,,,,,,,,,,,,,,,,,,,,,,,,,,,,None,,432.7070671298774,None,432.7070671298774,None,2021-10-15-12:37:40.309682,432.71604219987057,433.02286039991304,432.71604219987057,None,None,432.71604219987057,None,433.5237323299283,None,,,,12005,0001,2021_Oct_15_1230,localizer,2021.1.3,61.82242620966559,
block,faces,faces060.bmp,,,,,0,242,242,242,,,,,,,,,,,,,,,,,,,,,,,,,,,,,,,,,,,,,,,,,,None,,433.5237323299283,None,433.5237323299283,None,2021-10-15-12:37:41.126151,433.5351191998925,433.8461930998601,433.5351191998925,None,y,433.5351191998925,None,434.34107613002413,None,0.5225098000373691,,,12005,0001,2021_Oct_15_1230,localizer,2021.1.3,61.82242620966559,
block_end,faces,faces068.bmp,,,,,0,243,243,243,,,,,,,,,,,,,,,,,,,,,,,,,,,,,,,,,,,,,,,,,,None,,434.34107613002413,None,434.34107613002413,None,2021-10-15-12:37:41.944887,434.35145749989897,434.65683329990134,434.35145749989897,None,None,434.35145749989897,None,435.15713482999706,None,,,,12005,0001,2021_Oct_15_1230,localizer,2021.1.3,61.82242620966559,
,,,,,,,,,,,,,,,,,,,,,,,,,,,,,,,,,,,,,,,,,,,,,,,,,,,,,,,,,,,,,,,,,,,,,435.1571112999227,None,,,,,,,
