block_type,condition,img_name,Button.thisRepN,Button.thisTrialN,Button.thisN,Button.thisIndex,trials.thisRepN,trials.thisTrialN,trials.thisN,trials.thisIndex,Ready_experimenter_text.started,Ready_experimenter_text.stopped,Ready_experimenter_resp.keys,Ready_experimenter_resp.rt,Ready_experimenter_resp.started,Ready_experimenter_resp.stopped,Alignment_background.started,Alignment_background.stopped,Alignment_image.started,Alignment_image.stopped,Alignment_resp.keys,Alignment_resp.rt,Alignment_resp.started,Alignment_resp.stopped,Button_text.started,Button_text.stopped,Index_text.started,Index_text.stopped,Index_resp.keys,Index_resp.rt,Index_resp.started,Index_resp.stopped,Middle_text.started,Middle_text.stopped,Middle_resp.keys,Middle_resp.rt,Middle_resp.started,Middle_resp.stopped,Repeat_text.started,Repeat_text.stopped,Repeat_resp.keys,Repeat_resp.corr,Repeat_resp.rt,Repeat_resp.started,Repeat_resp.stopped,instruction_text.started,instruction_text.stopped,key_resp.keys,key_resp.rt,key_resp.started,key_resp.stopped,scanner_t.keys,scanner_t.rt,scanner_t.started,scanner_t.stopped,fixation_wait_for_t.started,fixation_wait_for_t.stopped,real_timestamp_trial_start,image.started,image.stopped,fixation.started,fixation.stopped,repeat_response.keys,repeat_response.started,repeat_response.stopped,fixation_null.started,fixation_null.stopped,repeat_response.rt,end_text.started,end_text.stopped,participant,run,date,expName,psychopyVersion,frameRate,
,,,,,,,,,,,12.378438299521804,None,return,470.599934999831,12.378438299521804,None,,,,,,,,,,,,,,,,,,,,,,,,,,,,,,,,,,,,,,,,,,,,,,,,,,,,,,,22029,0002,2023_Feb_13_1130,localizer,2021.1.3,60.13211031427299,
,,,,,,,,,,,,,,,,,483.0333213992417,None,483.0333213992417,None,return,0.8040107004344463,483.0333213992417,None,,,,,,,,,,,,,,,,,,,,,,,,,,,,,,,,,,,,,,,,,,,,,,,22029,0002,2023_Feb_13_1130,localizer,2021.1.3,60.13211031427299,
,,,0,0,0,0,,,,,,,,,,,,,,,,,,,483.8585367994383,None,484.85771879926324,None,y,1.3940147003158927,484.85771879926324,None,486.2742201993242,None,b,1.0776273999363184,486.2742201993242,None,487.374734999612,None,n,0,1.1307085994631052,487.374734999612,None,,,,,,,,,,,,,,,,,,,,,,,,,,22029,0002,2023_Feb_13_1130,localizer,2021.1.3,60.13211031427299,
,,,,,,,,,,,,,,,,,,,,,,,,,,,,,,,,,,,,,,,,,,,,,,488.52505199983716,None,y,22.45068810041994,488.52505199983716,None,,,,,,,,,,,,,,,,,,,,22029,0002,2023_Feb_13_1130,localizer,2021.1.3,60.13211031427299,
block_start,scrambled,scrambled005.bmp,,,,,0,0,0,0,,,,,,,,,,,,,,,,,,,,,,,,,,,,,,,,,,,,,,,,,,t,18.288717100396752,511.0189737994224,None,511.0189737994224,None,2023-02-13-11:39:09.807895,529.3395047998056,529.6414738995954,529.3395047998056,None,None,529.3395047998056,None,530.1420407397673,None,,,,22029,0002,2023_Feb_13_1130,localizer,2021.1.3,60.13211031427299,
block,scrambled,scrambled044.bmp,,,,,0,1,1,1,,,,,,,,,,,,,,,,,,,,,,,,,,,,,,,,,,,,,,,,,,None,,530.1420407397673,None,530.1420407397673,None,2023-02-13-11:39:10.628341,530.1588849993423,530.4748515998945,530.1588849993423,None,None,530.1588849993423,None,530.957836439833,None,,,,22029,0002,2023_Feb_13_1130,localizer,2021.1.3,60.13211031427299,
block,scrambled,scrambled009.bmp,,,,,0,2,2,2,,,,,,,,,,,,,,,,,,,,,,,,,,,,,,,,,,,,,,,,,,None,,530.957836439833,None,530.957836439833,None,2023-02-13-11:39:11.442199,530.9691934995353,531.274847199209,530.9691934995353,None,None,530.9691934995353,None,531.7747837398201,None,,,,22029,0002,2023_Feb_13_1130,localizer,2021.1.3,60.13211031427299,
block,scrambled,scrambled056.bmp,,,,,0,3,3,3,,,,,,,,,,,,,,,,,,,,,,,,,,,,,,,,,,,,,,,,,,None,,531.7747837398201,None,531.7747837398201,None,2023-02-13-11:39:12.259154,531.77575349994,532.0916561996564,531.77575349994,None,None,531.77575349994,None,532.5913762394339,None,,,,22029,0002,2023_Feb_13_1130,localizer,2021.1.3,60.13211031427299,
block,scrambled,scrambled074.bmp,,,,,0,4,4,4,,,,,,,,,,,,,,,,,,,,,,,,,,,,,,,,,,,,,,,,,,None,,532.5913762394339,None,532.5913762394339,None,2023-02-13-11:39:13.075616,532.5924650998786,532.9081969996914,532.5924650998786,None,None,532.5924650998786,None,533.4081065393984,None,,,,22029,0002,2023_Feb_13_1130,localizer,2021.1.3,60.13211031427299,
block,scrambled,scrambled081.bmp,,,,,0,5,5,5,,,,,,,,,,,,,,,,,,,,,,,,,,,,,,,,,,,,,,,,,,None,,533.4081065393984,None,533.4081065393984,None,2023-02-13-11:39:13.893019,533.4217002997175,533.7248660000041,533.4217002997175,None,None,533.4217002997175,None,534.22480933927,None,,,,22029,0002,2023_Feb_13_1130,localizer,2021.1.3,60.13211031427299,
block,scrambled,scrambled052.bmp,,,,,0,6,6,6,,,,,,,,,,,,,,,,,,,,,,,,,,,,,,,,,,,,,,,,,,None,,534.22480933927,None,534.22480933927,None,2023-02-13-11:39:14.709169,534.2259498992935,534.5416853995994,534.2259498992935,None,None,534.2259498992935,None,535.0411248393357,None,,,,22029,0002,2023_Feb_13_1130,localizer,2021.1.3,60.13211031427299,
block,scrambled,scrambled059.bmp,,,,,0,7,7,7,,,,,,,,,,,,,,,,,,,,,,,,,,,,,,,,,,,,,,,,,,None,,535.0411248393357,None,535.0411248393357,None,2023-02-13-11:39:15.524379,535.0424930993468,535.3581830998883,535.0424930993468,None,None,535.0424930993468,None,535.8577233394608,None,,,,22029,0002,2023_Feb_13_1130,localizer,2021.1.3,60.13211031427299,
block,scrambled,scrambled022.bmp,,,,,0,8,8,8,,,,,,,,,,,,,,,,,,,,,,,,,,,,,,,,,,,,,,,,,,None,,535.8577233394608,None,535.8577233394608,None,2023-02-13-11:39:16.342122,535.8686278993264,536.1747206998989,535.8686278993264,None,None,535.8686278993264,None,536.6745319394395,None,,,,22029,0002,2023_Feb_13_1130,localizer,2021.1.3,60.13211031427299,
block,scrambled,scrambled018.bmp,,,,,0,9,9,9,,,,,,,,,,,,,,,,,,,,,,,,,,,,,,,,,,,,,,,,,,None,,536.6745319394395,None,536.6745319394395,None,2023-02-13-11:39:17.158778,536.6854534000158,536.9911900991574,536.6854534000158,None,None,536.6854534000158,None,537.4913108395413,None,,,,22029,0002,2023_Feb_13_1130,localizer,2021.1.3,60.13211031427299,
block,scrambled,scrambled031.bmp,,,,,0,10,10,10,,,,,,,,,,,,,,,,,,,,,,,,,,,,,,,,,,,,,,,,,,None,,537.4913108395413,None,537.4913108395413,None,2023-02-13-11:39:17.975677,537.4926352994516,537.8083506999537,537.4926352994516,None,None,537.4926352994516,None,538.3080873396248,None,,,,22029,0002,2023_Feb_13_1130,localizer,2021.1.3,60.13211031427299,
block,scrambled,scrambled072.bmp,,,,,0,11,11,11,,,,,,,,,,,,,,,,,,,,,,,,,,,,,,,,,,,,,,,,,,None,,538.3080873396248,None,538.3080873396248,None,2023-02-13-11:39:18.792282,538.3161852993071,538.6252407999709,538.3161852993071,None,None,538.3161852993071,None,539.1252773394808,None,,,,22029,0002,2023_Feb_13_1130,localizer,2021.1.3,60.13211031427299,
block,scrambled,scrambled079.bmp,,,,,0,12,12,12,,,,,,,,,,,,,,,,,,,,,,,,,,,,,,,,,,,,,,,,,,None,,539.1252773394808,None,539.1252773394808,None,2023-02-13-11:39:19.609500,539.1263496996835,539.4254874000326,539.1263496996835,None,None,539.1263496996835,None,539.9419910395518,None,,,,22029,0002,2023_Feb_13_1130,localizer,2021.1.3,60.13211031427299,
block,scrambled,scrambled034.bmp,,,,,0,13,13,13,,,,,,,,,,,,,,,,,,,,,,,,,,,,,,,,,,,,,,,,,,None,,539.9419910395518,None,539.9419910395518,None,2023-02-13-11:39:20.426231,539.9425569996238,540.2422056999058,539.9425569996238,None,None,539.9425569996238,None,540.7417961396277,None,,,,22029,0002,2023_Feb_13_1130,localizer,2021.1.3,60.13211031427299,
block_end,scrambled,scrambled073.bmp,,,,,0,14,14,14,,,,,,,,,,,,,,,,,,,,,,,,,,,,,,,,,,,,,,,,,,None,,540.7417961396277,None,540.7417961396277,None,2023-02-13-11:39:21.228247,540.7441606000066,541.0585338994861,540.7441606000066,540.7441606000066,None,540.7441606000066,540.7441606000066,541.5582980392501,None,,,,22029,0002,2023_Feb_13_1130,localizer,2021.1.3,60.13211031427299,
block_start,scenes,scenes034.bmp,,,,,0,15,15,15,,,,,,,,,,,,,,,,,,,,,,,,,,,,,,,,,,,,,,,,,,t,1.749290400184691,541.5584118999541,None,541.5584118999541,None,2023-02-13-11:39:23.808490,543.3261253992096,543.6421338999644,543.3261253992096,None,None,543.3261253992096,None,544.1252669394016,None,,,,22029,0002,2023_Feb_13_1130,localizer,2021.1.3,60.13211031427299,
block,scenes,scenes063.bmp,,,,,0,16,16,16,,,,,,,,,,,,,,,,,,,,,,,,,,,,,,,,,,,,,,,,,,None,,544.1252669394016,None,544.1252669394016,None,2023-02-13-11:39:24.611714,544.1420624991879,544.4415663992986,544.1420624991879,544.1420624991879,None,544.1420624991879,544.1420624991879,544.9417432397604,None,,,,22029,0002,2023_Feb_13_1130,localizer,2021.1.3,60.13211031427299,
block,scenes,scenes029.bmp,,,,,0,17,17,17,,,,,,,,,,,,,,,,,,,,,,,,,,,,,,,,,,,,,,,,,,None,,544.9417432397604,None,544.9417432397604,None,2023-02-13-11:39:25.425985,544.9428134998307,545.2420741999522,544.9428134998307,None,None,544.9428134998307,None,545.7422427395359,None,,,,22029,0002,2023_Feb_13_1130,localizer,2021.1.3,60.13211031427299,
block,scenes,scenes068.bmp,,,,,0,18,18,18,,,,,,,,,,,,,,,,,,,,,,,,,,,,,,,,,,,,,,,,,,None,,545.7422427395359,None,545.7422427395359,None,2023-02-13-11:39:26.229676,545.745129100047,546.0658451998606,545.745129100047,545.745129100047,None,545.745129100047,545.745129100047,546.5589486397803,None,,,,22029,0002,2023_Feb_13_1130,localizer,2021.1.3,60.13211031427299,
block,scenes,scenes040.bmp,,,,,0,19,19,19,,,,,,,,,,,,,,,,,,,,,,,,,,,,,,,,,,,,,,,,,,None,,546.5589486397803,None,546.5589486397803,None,2023-02-13-11:39:27.044331,546.5599569994956,546.8752539996058,546.5599569994956,None,None,546.5599569994956,None,547.3753363396972,None,,,,22029,0002,2023_Feb_13_1130,localizer,2021.1.3,60.13211031427299,
block,scenes,scenes006.bmp,,,,,0,20,20,20,,,,,,,,,,,,,,,,,,,,,,,,,,,,,,,,,,,,,,,,,,None,,547.3753363396972,None,547.3753363396972,None,2023-02-13-11:39:27.859794,547.376326199621,547.6921603996307,547.376326199621,None,None,547.376326199621,None,548.192059439607,None,,,,22029,0002,2023_Feb_13_1130,localizer,2021.1.3,60.13211031427299,
block,scenes,scenes028.bmp,,,,,0,21,21,21,,,,,,,,,,,,,,,,,,,,,,,,,,,,,,,,,,,,,,,,,,None,,548.192059439607,None,548.192059439607,None,2023-02-13-11:39:28.676040,548.1930511994287,548.5086584994569,548.1930511994287,None,None,548.1930511994287,None,549.0083894394338,None,,,,22029,0002,2023_Feb_13_1130,localizer,2021.1.3,60.13211031427299,
block,scenes,scenes009.bmp,,,,,0,22,22,22,,,,,,,,,,,,,,,,,,,,,,,,,,,,,,,,,,,,,,,,,,None,,549.0083894394338,None,549.0083894394338,None,2023-02-13-11:39:29.492446,549.0095604993403,549.3251043995842,549.0095604993403,None,None,549.0095604993403,None,549.8086403394118,None,,,,22029,0002,2023_Feb_13_1130,localizer,2021.1.3,60.13211031427299,
block,scenes,scenes007.bmp,,,,,0,23,23,23,,,,,,,,,,,,,,,,,,,,,,,,,,,,,,,,,,,,,,,,,,None,,549.8086403394118,None,549.8086403394118,None,2023-02-13-11:39:30.294919,549.8116874992847,550.1251732995734,549.8116874992847,549.8116874992847,None,549.8116874992847,549.8116874992847,550.6250080391765,None,,,,22029,0002,2023_Feb_13_1130,localizer,2021.1.3,60.13211031427299,
block,scenes,scenes079.bmp,,,,,0,24,24,24,,,,,,,,,,,,,,,,,,,,,,,,,,,,,,,,,,,,,,,,,,None,,550.6250080391765,None,550.6250080391765,None,2023-02-13-11:39:31.109251,550.6373462993652,550.9418460000306,550.6373462993652,None,None,550.6373462993652,None,551.441687840037,None,,,,22029,0002,2023_Feb_13_1130,localizer,2021.1.3,60.13211031427299,
block,scenes,scenes023.bmp,,,,,0,25,25,25,,,,,,,,,,,,,,,,,,,,,,,,,,,,,,,,,,,,,,,,,,None,,551.441687840037,None,551.441687840037,None,2023-02-13-11:39:31.925931,551.4500581994653,551.7587478999048,551.4500581994653,None,None,551.4500581994653,None,552.2583803394809,None,,,,22029,0002,2023_Feb_13_1130,localizer,2021.1.3,60.13211031427299,
block,scenes,scenes075.bmp,,,,,0,26,26,26,,,,,,,,,,,,,,,,,,,,,,,,,,,,,,,,,,,,,,,,,,None,,552.2583803394809,None,552.2583803394809,None,2023-02-13-11:39:32.742948,552.2711566993967,552.5753798000515,552.2711566993967,None,None,552.2711566993967,None,553.0753182396293,None,,,,22029,0002,2023_Feb_13_1130,localizer,2021.1.3,60.13211031427299,
block,scenes,scenes070.bmp,,,,,0,27,27,27,,,,,,,,,,,,,,,,,,,,,,,,,,,,,,,,,,,,,,,,,,None,,553.0753182396293,None,553.0753182396293,None,2023-02-13-11:39:33.559540,553.0873439991847,553.3919062996283,553.0873439991847,None,None,553.0873439991847,None,553.8918061396107,None,,,,22029,0002,2023_Feb_13_1130,localizer,2021.1.3,60.13211031427299,
block,scenes,scenes069.bmp,,,,,0,28,28,28,,,,,,,,,,,,,,,,,,,,,,,,,,,,,,,,,,,,,,,,,,None,,553.8918061396107,None,553.8918061396107,None,2023-02-13-11:39:34.376240,553.8930310998112,554.2087488994002,553.8930310998112,None,None,553.8930310998112,None,554.6929130395874,None,,,,22029,0002,2023_Feb_13_1130,localizer,2021.1.3,60.13211031427299,
block_end,scenes,scenes086.bmp,,,,,0,29,29,29,,,,,,,,,,,,,,,,,,,,,,,,,,,,,,,,,,,,,,,,,,None,,554.6929130395874,None,554.6929130395874,None,2023-02-13-11:39:35.181281,554.7101117996499,555.0252141999081,554.7101117996499,554.7101117996499,None,554.7101117996499,554.7101117996499,555.5085559394211,None,,,,22029,0002,2023_Feb_13_1130,localizer,2021.1.3,60.13211031427299,
null_block,null_block,null_block.bmp,,,,,0,30,30,30,,,,,,,,,,,,,,,,,,,,,,,,,,,,,,,,,,,,,,,,,,t,1.7989030005410314,555.508623899892,None,555.508623899892,None,2023-02-13-11:39:37.807788,557.3253492396325,None,557.3253492396325,None,None,557.3253492396325,None,557.3274773992598,None,,,,22029,0002,2023_Feb_13_1130,localizer,2021.1.3,60.13211031427299,
block_start,objects,objects010.bmp,,,,,0,31,31,31,,,,,,,,,,,,,,,,,,,,,,,,,,,,,,,,,,,,,,,,,,t,1.9656178997829556,569.3419180996716,None,569.3419180996716,None,2023-02-13-11:39:51.811490,571.33825349994,571.6421481994912,571.33825349994,None,None,571.33825349994,None,572.1421288391575,None,,,,22029,0002,2023_Feb_13_1130,localizer,2021.1.3,60.13211031427299,
block,objects,objects063.bmp,,,,,0,32,32,32,,,,,,,,,,,,,,,,,,,,,,,,,,,,,,,,,,,,,,,,,,None,,572.1421288391575,None,572.1421288391575,None,2023-02-13-11:39:52.626583,572.1430120998994,572.4433447998017,572.1430120998994,None,None,572.1430120998994,None,572.942150939256,None,,,,22029,0002,2023_Feb_13_1130,localizer,2021.1.3,60.13211031427299,
block,objects,objects008.bmp,,,,,0,33,33,33,,,,,,,,,,,,,,,,,,,,,,,,,,,,,,,,,,,,,,,,,,None,,572.942150939256,None,572.942150939256,None,2023-02-13-11:39:53.428380,572.9453088995069,573.2583852000535,572.9453088995069,572.9453088995069,None,572.9453088995069,572.9453088995069,573.758674939163,None,,,,22029,0002,2023_Feb_13_1130,localizer,2021.1.3,60.13211031427299,
block,objects,objects072.bmp,,,,,0,34,34,34,,,,,,,,,,,,,,,,,,,,,,,,,,,,,,,,,,,,,,,,,,None,,573.758674939163,None,573.758674939163,None,2023-02-13-11:39:54.243133,573.7706643994898,574.075472199358,573.7706643994898,None,None,573.7706643994898,None,574.5753271393478,None,,,,22029,0002,2023_Feb_13_1130,localizer,2021.1.3,60.13211031427299,
block,objects,objects064.bmp,,,,,0,35,35,35,,,,,,,,,,,,,,,,,,,,,,,,,,,,,,,,,,,,,,,,,,None,,574.5753271393478,None,574.5753271393478,None,2023-02-13-11:39:55.059776,574.5873790998012,574.8919969992712,574.5873790998012,None,None,574.5873790998012,None,575.3917579399422,None,,,,22029,0002,2023_Feb_13_1130,localizer,2021.1.3,60.13211031427299,
block,objects,objects053.bmp,,,,,0,36,36,36,,,,,,,,,,,,,,,,,,,,,,,,,,,,,,,,,,,,,,,,,,None,,575.3917579399422,None,575.3917579399422,None,2023-02-13-11:39:55.876172,575.4030884997919,575.7087508998811,575.4030884997919,None,None,575.4030884997919,None,576.2087648399174,None,,,,22029,0002,2023_Feb_13_1130,localizer,2021.1.3,60.13211031427299,
block,objects,objects029.bmp,,,,,0,37,37,37,,,,,,,,,,,,,,,,,,,,,,,,,,,,,,,,,,,,,,,,,,None,,576.2087648399174,None,576.2087648399174,None,2023-02-13-11:39:56.693199,576.2096038991585,576.5088116992265,576.2096038991585,None,None,576.2096038991585,None,577.0086804395542,None,,,,22029,0002,2023_Feb_13_1130,localizer,2021.1.3,60.13211031427299,
block,objects,objects070.bmp,,,,,0,38,38,38,,,,,,,,,,,,,,,,,,,,,,,,,,,,,,,,,,,,,,,,,,None,,577.0086804395542,None,577.0086804395542,None,2023-02-13-11:39:57.494911,577.0235109999776,577.3254712000489,577.0235109999776,577.0235109999776,None,577.0235109999776,577.0235109999776,577.8252855399624,None,,,,22029,0002,2023_Feb_13_1130,localizer,2021.1.3,60.13211031427299,
block,objects,objects046.bmp,,,,,0,39,39,39,,,,,,,,,,,,,,,,,,,,,,,,,,,,,,,,,,,,,,,,,,None,,577.8252855399624,None,577.8252855399624,None,2023-02-13-11:39:58.309741,577.8263780996203,578.142180999741,577.8263780996203,None,None,577.8263780996203,None,578.6256983391941,None,,,,22029,0002,2023_Feb_13_1130,localizer,2021.1.3,60.13211031427299,
block,objects,objects027.bmp,,,,,0,40,40,40,,,,,,,,,,,,,,,,,,,,,,,,,,,,,,,,,,,,,,,,,,None,,578.6256983391941,None,578.6256983391941,None,2023-02-13-11:39:59.112829,578.6289684996009,578.9419836997986,578.6289684996009,578.6289684996009,None,578.6289684996009,578.6289684996009,579.4415841400623,None,,,,22029,0002,2023_Feb_13_1130,localizer,2021.1.3,60.13211031427299,
block,objects,objects073.bmp,,,,,0,41,41,41,,,,,,,,,,,,,,,,,,,,,,,,,,,,,,,,,,,,,,,,,,None,,579.4415841400623,None,579.4415841400623,None,2023-02-13-11:39:59.925827,579.4427616000175,579.742194599472,579.4427616000175,None,None,579.4427616000175,None,580.2422823393717,None,,,,22029,0002,2023_Feb_13_1130,localizer,2021.1.3,60.13211031427299,
block,objects,objects066.bmp,,,,,0,42,42,42,,,,,,,,,,,,,,,,,,,,,,,,,,,,,,,,,,,,,,,,,,None,,580.2422823393717,None,580.2422823393717,None,2023-02-13-11:40:00.729689,580.2449507992715,580.5589413000271,580.2449507992715,580.2449507992715,None,580.2449507992715,580.2449507992715,581.0589417396113,None,,,,22029,0002,2023_Feb_13_1130,localizer,2021.1.3,60.13211031427299,
block,objects,objects047.bmp,,,,,0,43,43,43,,,,,,,,,,,,,,,,,,,,,,,,,,,,,,,,,,,,,,,,,,None,,581.0589417396113,None,581.0589417396113,None,2023-02-13-11:40:01.544271,581.0597497997805,581.3751333998516,581.0597497997805,None,None,581.0597497997805,None,581.8648724397644,None,,,,22029,0002,2023_Feb_13_1130,localizer,2021.1.3,60.13211031427299,
block,objects,objects079.bmp,,,,,0,44,44,44,,,,,,,,,,,,,,,,,,,,,,,,,,,,,,,,,,,,,,,,,,None,,581.8648724397644,None,581.8648724397644,None,2023-02-13-11:40:02.356823,581.8711346993223,582.175322599709,581.8711346993223,None,None,581.8711346993223,None,582.6754849394783,None,,,,22029,0002,2023_Feb_13_1130,localizer,2021.1.3,60.13211031427299,
block_end,objects,objects018.bmp,,,,,0,45,45,45,,,,,,,,,,,,,,,,,,,,,,,,,,,,,,,,,,,,,,,,,,None,,582.6754849394783,None,582.6754849394783,None,2023-02-13-11:40:03.159933,582.6764781996608,582.9922627992928,582.6764781996608,None,None,582.6764781996608,None,583.4919452397153,None,,,,22029,0002,2023_Feb_13_1130,localizer,2021.1.3,60.13211031427299,
block_start,faces,faces080.bmp,,,,,0,46,46,46,,,,,,,,,,,,,,,,,,,,,,,,,,,,,,,,,,,,,,,,,,t,1.8155678007751703,583.4920474998653,None,583.4920474998653,None,2023-02-13-11:40:05.807731,585.3271126998588,585.6422694995999,585.3271126998588,None,None,585.3271126998588,None,586.1417423393577,None,,,,22029,0002,2023_Feb_13_1130,localizer,2021.1.3,60.13211031427299,
block,faces,faces037.bmp,,,,,0,47,47,47,,,,,,,,,,,,,,,,,,,,,,,,,,,,,,,,,,,,,,,,,,None,,586.1417423393577,None,586.1417423393577,None,2023-02-13-11:40:06.625980,586.143195499666,586.4587856000289,586.143195499666,None,None,586.143195499666,None,586.958351239562,None,,,,22029,0002,2023_Feb_13_1130,localizer,2021.1.3,60.13211031427299,
block,faces,faces034.bmp,,,,,0,48,48,48,,,,,,,,,,,,,,,,,,,,,,,,,,,,,,,,,,,,,,,,,,None,,586.958351239562,None,586.958351239562,None,2023-02-13-11:40:07.442592,586.965428199619,587.275558100082,586.965428199619,None,None,586.965428199619,None,587.7752274395898,None,,,,22029,0002,2023_Feb_13_1130,localizer,2021.1.3,60.13211031427299,
block,faces,faces030.bmp,,,,,0,49,49,49,,,,,,,,,,,,,,,,,,,,,,,,,,,,,,,,,,,,,,,,,,None,,587.7752274395898,None,587.7752274395898,None,2023-02-13-11:40:08.259462,587.7764096995816,588.092046899721,587.7764096995816,None,None,587.7764096995816,None,588.5920148398727,None,,,,22029,0002,2023_Feb_13_1130,localizer,2021.1.3,60.13211031427299,
block,faces,faces030.bmp,,,,,0,50,50,50,,,,,,,,,,,,,,,,,,,,,,,,,,,,,,,,,,,,,,,,,,None,,588.5920148398727,None,588.5920148398727,None,2023-02-13-11:40:09.076247,588.593170600012,588.9089345000684,588.593170600012,None,y,588.593170600012,None,589.3985567400232,None,0.52240139991045,,,22029,0002,2023_Feb_13_1130,localizer,2021.1.3,60.13211031427299,
block,faces,faces043.bmp,,,,,0,51,51,51,,,,,,,,,,,,,,,,,,,,,,,,,,,,,,,,,,,,,,,,,,None,,589.3985567400232,None,589.3985567400232,None,2023-02-13-11:40:09.886715,589.4157255999744,589.7253636997193,589.4157255999744,None,None,589.4157255999744,None,590.2087538400665,None,,,,22029,0002,2023_Feb_13_1130,localizer,2021.1.3,60.13211031427299,
block,faces,faces008.bmp,,,,,0,52,52,52,,,,,,,,,,,,,,,,,,,,,,,,,,,,,,,,,,,,,,,,,,None,,590.2087538400665,None,590.2087538400665,None,2023-02-13-11:40:10.692985,590.222821299918,590.5255963997915,590.222821299918,None,None,590.222821299918,None,591.0256473394111,None,,,,22029,0002,2023_Feb_13_1130,localizer,2021.1.3,60.13211031427299,
block,faces,faces059.bmp,,,,,0,53,53,53,,,,,,,,,,,,,,,,,,,,,,,,,,,,,,,,,,,,,,,,,,None,,591.0256473394111,None,591.0256473394111,None,2023-02-13-11:40:11.508878,591.0319973994046,591.3418076997623,591.0319973994046,None,None,591.0319973994046,None,591.8421379392967,None,,,,22029,0002,2023_Feb_13_1130,localizer,2021.1.3,60.13211031427299,
block,faces,faces085.bmp,,,,,0,54,54,54,,,,,,,,,,,,,,,,,,,,,,,,,,,,,,,,,,,,,,,,,,None,,591.8421379392967,None,591.8421379392967,None,2023-02-13-11:40:12.326350,591.843221699819,592.1425185995176,591.843221699819,None,None,591.843221699819,None,592.642309339717,None,,,,22029,0002,2023_Feb_13_1130,localizer,2021.1.3,60.13211031427299,
block,faces,faces019.bmp,,,,,0,55,55,55,,,,,,,,,,,,,,,,,,,,,,,,,,,,,,,,,,,,,,,,,,None,,592.642309339717,None,592.642309339717,None,2023-02-13-11:40:13.127624,592.6434210995212,592.9586092997342,592.6434210995212,592.6434210995212,None,592.6434210995212,592.6434210995212,593.4431552393362,None,,,,22029,0002,2023_Feb_13_1130,localizer,2021.1.3,60.13211031427299,
block,faces,faces044.bmp,,,,,0,56,56,56,,,,,,,,,,,,,,,,,,,,,,,,,,,,,,,,,,,,,,,,,,None,,593.4431552393362,None,593.4431552393362,None,2023-02-13-11:40:13.929817,593.4597507994622,593.775802699849,593.4597507994622,593.4597507994622,None,593.4597507994622,593.4597507994622,594.2588080400601,None,,,,22029,0002,2023_Feb_13_1130,localizer,2021.1.3,60.13211031427299,
block,faces,faces046.bmp,,,,,0,57,57,57,,,,,,,,,,,,,,,,,,,,,,,,,,,,,,,,,,,,,,,,,,None,,594.2588080400601,None,594.2588080400601,None,2023-02-13-11:40:14.743247,594.2738250000402,594.5755607997999,594.2738250000402,None,None,594.2738250000402,None,595.0750963399187,None,,,,22029,0002,2023_Feb_13_1130,localizer,2021.1.3,60.13211031427299,
block,faces,faces015.bmp,,,,,0,58,58,58,,,,,,,,,,,,,,,,,,,,,,,,,,,,,,,,,,,,,,,,,,None,,595.0750963399187,None,595.0750963399187,None,2023-02-13-11:40:15.559614,595.077018099837,595.3925279993564,595.077018099837,None,None,595.077018099837,None,595.8919057399035,None,,,,22029,0002,2023_Feb_13_1130,localizer,2021.1.3,60.13211031427299,
block,faces,faces063.bmp,,,,,0,59,59,59,,,,,,,,,,,,,,,,,,,,,,,,,,,,,,,,,,,,,,,,,,None,,595.8919057399035,None,595.8919057399035,None,2023-02-13-11:40:16.376138,595.9046068992466,596.2087507992983,595.9046068992466,None,None,595.9046068992466,None,596.7086487393826,None,,,,22029,0002,2023_Feb_13_1130,localizer,2021.1.3,60.13211031427299,
block_end,faces,faces062.bmp,,,,,0,60,60,60,,,,,,,,,,,,,,,,,,,,,,,,,,,,,,,,,,,,,,,,,,None,,596.7086487393826,None,596.7086487393826,None,2023-02-13-11:40:17.192877,596.7097016992047,597.0255867997184,596.7097016992047,None,None,596.7097016992047,None,597.5088730398566,None,,,,22029,0002,2023_Feb_13_1130,localizer,2021.1.3,60.13211031427299,
block_start,faces,faces070.bmp,,,,,0,61,61,61,,,,,,,,,,,,,,,,,,,,,,,,,,,,,,,,,,,,,,,,,,t,1.7977709006518126,597.508737899363,None,597.508737899363,None,2023-02-13-11:40:19.809672,599.3264526994899,599.6267886999995,599.3264526994899,None,None,599.3264526994899,None,600.1255952399224,None,,,,22029,0002,2023_Feb_13_1130,localizer,2021.1.3,60.13211031427299,
block,faces,faces011.bmp,,,,,0,62,62,62,,,,,,,,,,,,,,,,,,,,,,,,,,,,,,,,,,,,,,,,,,None,,600.1255952399224,None,600.1255952399224,None,2023-02-13-11:40:20.611998,600.1405340991914,600.4420753996819,600.1405340991914,600.1405340991914,None,600.1405340991914,600.1405340991914,600.9420840395615,None,,,,22029,0002,2023_Feb_13_1130,localizer,2021.1.3,60.13211031427299,
block,faces,faces017.bmp,,,,,0,63,63,63,,,,,,,,,,,,,,,,,,,,,,,,,,,,,,,,,,,,,,,,,,None,,600.9420840395615,None,600.9420840395615,None,2023-02-13-11:40:21.426309,600.9432179993019,601.2589290998876,600.9432179993019,None,None,600.9432179993019,None,601.7586754392833,None,,,,22029,0002,2023_Feb_13_1130,localizer,2021.1.3,60.13211031427299,
block,faces,faces050.bmp,,,,,0,64,64,64,,,,,,,,,,,,,,,,,,,,,,,,,,,,,,,,,,,,,,,,,,None,,601.7586754392833,None,601.7586754392833,None,2023-02-13-11:40:22.243112,601.7599593997002,602.0754331992939,601.7599593997002,None,None,601.7599593997002,None,602.5591559391469,None,,,,22029,0002,2023_Feb_13_1130,localizer,2021.1.3,60.13211031427299,
block,faces,faces074.bmp,,,,,0,65,65,65,,,,,,,,,,,,,,,,,,,,,,,,,,,,,,,,,,,,,,,,,,None,,602.5591559391469,None,602.5591559391469,None,2023-02-13-11:40:23.047364,602.5774135999382,602.8921439992264,602.5774135999382,602.5774135999382,None,602.5774135999382,602.5774135999382,603.3751233397052,None,,,,22029,0002,2023_Feb_13_1130,localizer,2021.1.3,60.13211031427299,
block,faces,faces084.bmp,,,,,0,66,66,66,,,,,,,,,,,,,,,,,,,,,,,,,,,,,,,,,,,,,,,,,,None,,603.3751233397052,None,603.3751233397052,None,2023-02-13-11:40:23.858359,603.3775040991604,603.6925282999873,603.3775040991604,None,None,603.3775040991604,None,604.192663339898,None,,,,22029,0002,2023_Feb_13_1130,localizer,2021.1.3,60.13211031427299,
block,faces,faces001.bmp,,,,,0,67,67,67,,,,,,,,,,,,,,,,,,,,,,,,,,,,,,,,,,,,,,,,,,None,,604.192663339898,None,604.192663339898,None,2023-02-13-11:40:24.678872,604.1960805999115,604.5090544996783,604.1960805999115,None,None,604.1960805999115,None,605.0089783398435,None,,,,22029,0002,2023_Feb_13_1130,localizer,2021.1.3,60.13211031427299,
block,faces,faces020.bmp,,,,,0,68,68,68,,,,,,,,,,,,,,,,,,,,,,,,,,,,,,,,,,,,,,,,,,None,,605.0089783398435,None,605.0089783398435,None,2023-02-13-11:40:25.493316,605.0101314000785,605.3255773996934,605.0101314000785,None,None,605.0101314000785,None,605.8256469396874,None,,,,22029,0002,2023_Feb_13_1130,localizer,2021.1.3,60.13211031427299,
block,faces,faces071.bmp,,,,,0,69,69,69,,,,,,,,,,,,,,,,,,,,,,,,,,,,,,,,,,,,,,,,,,None,,605.8256469396874,None,605.8256469396874,None,2023-02-13-11:40:26.309872,605.8268267996609,606.1425447994843,605.8268267996609,None,None,605.8268267996609,None,606.6421294398606,None,,,,22029,0002,2023_Feb_13_1130,localizer,2021.1.3,60.13211031427299,
block,faces,faces065.bmp,,,,,0,70,70,70,,,,,,,,,,,,,,,,,,,,,,,,,,,,,,,,,,,,,,,,,,None,,606.6421294398606,None,606.6421294398606,None,2023-02-13-11:40:27.126358,606.6432558000088,606.9590742997825,606.6432558000088,None,None,606.6432558000088,None,607.4589747395366,None,,,,22029,0002,2023_Feb_13_1130,localizer,2021.1.3,60.13211031427299,
block,faces,faces081.bmp,,,,,0,71,71,71,,,,,,,,,,,,,,,,,,,,,,,,,,,,,,,,,,,,,,,,,,None,,607.4589747395366,None,607.4589747395366,None,2023-02-13-11:40:27.943411,607.4600874995813,607.7757503995672,607.4600874995813,None,None,607.4600874995813,None,608.2756500393152,None,,,,22029,0002,2023_Feb_13_1130,localizer,2021.1.3,60.13211031427299,
block,faces,faces078.bmp,,,,,0,72,72,72,,,,,,,,,,,,,,,,,,,,,,,,,,,,,,,,,,,,,,,,,,None,,608.2756500393152,None,608.2756500393152,None,2023-02-13-11:40:28.760065,608.2875172998756,608.5921369995922,608.2875172998756,None,None,608.2875172998756,None,609.0923865400255,None,,,,22029,0002,2023_Feb_13_1130,localizer,2021.1.3,60.13211031427299,
block,faces,faces023.bmp,,,,,0,73,73,73,,,,,,,,,,,,,,,,,,,,,,,,,,,,,,,,,,,,,,,,,,None,,609.0923865400255,None,609.0923865400255,None,2023-02-13-11:40:29.576853,609.0933995991945,609.4088070997968,609.0933995991945,None,None,609.0933995991945,None,609.9089220399037,None,,,,22029,0002,2023_Feb_13_1130,localizer,2021.1.3,60.13211031427299,
block,faces,faces032.bmp,,,,,0,74,74,74,,,,,,,,,,,,,,,,,,,,,,,,,,,,,,,,,,,,,,,,,,None,,609.9089220399037,None,609.9089220399037,None,2023-02-13-11:40:30.393349,609.9208421995863,610.2257237993181,609.9208421995863,None,None,609.9208421995863,None,610.72545943968,None,,,,22029,0002,2023_Feb_13_1130,localizer,2021.1.3,60.13211031427299,
block_end,faces,faces013.bmp,,,,,0,75,75,75,,,,,,,,,,,,,,,,,,,,,,,,,,,,,,,,,,,,,,,,,,None,,610.72545943968,None,610.72545943968,None,2023-02-13-11:40:31.209682,610.7376623991877,611.0425001997501,610.7376623991877,None,None,610.7376623991877,None,611.5422704396769,None,,,,22029,0002,2023_Feb_13_1130,localizer,2021.1.3,60.13211031427299,
block_start,scrambled,scrambled056.bmp,,,,,0,76,76,76,,,,,,,,,,,,,,,,,,,,,,,,,,,,,,,,,,,,,,,,,,t,1.764237000606954,611.5423210998997,None,611.5423210998997,None,2023-02-13-11:40:33.807564,613.3268623994663,613.6425131000578,613.3268623994663,None,None,613.3268623994663,None,614.1423206394538,None,,,,22029,0002,2023_Feb_13_1130,localizer,2021.1.3,60.13211031427299,
block,scrambled,scrambled010.bmp,,,,,0,77,77,77,,,,,,,,,,,,,,,,,,,,,,,,,,,,,,,,,,,,,,,,,,None,,614.1423206394538,None,614.1423206394538,None,2023-02-13-11:40:34.626738,614.1548906993121,614.4592172997072,614.1548906993121,None,None,614.1548906993121,None,614.9591708397493,None,,,,22029,0002,2023_Feb_13_1130,localizer,2021.1.3,60.13211031427299,
block,scrambled,scrambled054.bmp,,,,,0,78,78,78,,,,,,,,,,,,,,,,,,,,,,,,,,,,,,,,,,,,,,,,,,None,,614.9591708397493,None,614.9591708397493,None,2023-02-13-11:40:35.443429,614.9600555999205,615.2756255995482,614.9600555999205,None,None,614.9600555999205,None,615.7755365399644,None,,,,22029,0002,2023_Feb_13_1130,localizer,2021.1.3,60.13211031427299,
block,scrambled,scrambled035.bmp,,,,,0,79,79,79,,,,,,,,,,,,,,,,,,,,,,,,,,,,,,,,,,,,,,,,,,None,,615.7755365399644,None,615.7755365399644,None,2023-02-13-11:40:36.259761,615.7765922993422,616.0922750998288,615.7765922993422,None,None,615.7765922993422,None,616.576623339206,None,,,,22029,0002,2023_Feb_13_1130,localizer,2021.1.3,60.13211031427299,
block,scrambled,scrambled080.bmp,,,,,0,80,80,80,,,,,,,,,,,,,,,,,,,,,,,,,,,,,,,,,,,,,,,,,,None,,616.576623339206,None,616.576623339206,None,2023-02-13-11:40:37.063890,616.5809704996645,616.8929552994668,616.5809704996645,616.5809704996645,None,616.5809704996645,616.5809704996645,617.39195583947,None,,,,22029,0002,2023_Feb_13_1130,localizer,2021.1.3,60.13211031427299,
block,scrambled,scrambled072.bmp,,,,,0,81,81,81,,,,,,,,,,,,,,,,,,,,,,,,,,,,,,,,,,,,,,,,,,None,,617.39195583947,None,617.39195583947,None,2023-02-13-11:40:37.876180,617.393408799544,617.7090278994292,617.393408799544,None,None,617.393408799544,None,618.2088923398405,None,,,,22029,0002,2023_Feb_13_1130,localizer,2021.1.3,60.13211031427299,
block,scrambled,scrambled033.bmp,,,,,0,82,82,82,,,,,,,,,,,,,,,,,,,,,,,,,,,,,,,,,,,,,,,,,,None,,618.2088923398405,None,618.2088923398405,None,2023-02-13-11:40:38.693480,618.2210577996448,618.525742799975,618.2210577996448,None,None,618.2210577996448,None,619.026034639217,None,,,,22029,0002,2023_Feb_13_1130,localizer,2021.1.3,60.13211031427299,
block,scrambled,scrambled025.bmp,,,,,0,83,83,83,,,,,,,,,,,,,,,,,,,,,,,,,,,,,,,,,,,,,,,,,,None,,619.026034639217,None,619.026034639217,None,2023-02-13-11:40:39.511244,619.0269567994401,619.3261257996783,619.0269567994401,None,None,619.0269567994401,None,619.8420169400051,None,,,,22029,0002,2023_Feb_13_1130,localizer,2021.1.3,60.13211031427299,
block,scrambled,scrambled022.bmp,,,,,0,84,84,84,,,,,,,,,,,,,,,,,,,,,,,,,,,,,,,,,,,,,,,,,,None,,619.8420169400051,None,619.8420169400051,None,2023-02-13-11:40:40.326245,619.8440779000521,620.1596455993131,619.8440779000521,None,None,619.8440779000521,None,620.6591255394742,None,,,,22029,0002,2023_Feb_13_1130,localizer,2021.1.3,60.13211031427299,
block,scrambled,scrambled017.bmp,,,,,0,85,85,85,,,,,,,,,,,,,,,,,,,,,,,,,,,,,,,,,,,,,,,,,,None,,620.6591255394742,None,620.6591255394742,None,2023-02-13-11:40:41.143322,620.6709717996418,620.9755800999701,620.6709717996418,None,None,620.6709717996418,None,621.4760683393106,None,,,,22029,0002,2023_Feb_13_1130,localizer,2021.1.3,60.13211031427299,
block,scrambled,scrambled088.bmp,,,,,0,86,86,86,,,,,,,,,,,,,,,,,,,,,,,,,,,,,,,,,,,,,,,,,,None,,621.4760683393106,None,621.4760683393106,None,2023-02-13-11:40:41.960283,621.4768403992057,621.7923508994281,621.4768403992057,None,None,621.4768403992057,None,622.2923695398495,None,,,,22029,0002,2023_Feb_13_1130,localizer,2021.1.3,60.13211031427299,
block,scrambled,scrambled024.bmp,,,,,0,87,87,87,,,,,,,,,,,,,,,,,,,,,,,,,,,,,,,,,,,,,,,,,,None,,622.2923695398495,None,622.2923695398495,None,2023-02-13-11:40:42.776904,622.2933986000717,622.609057799913,622.2933986000717,None,None,622.2933986000717,None,623.1088443398476,None,,,,22029,0002,2023_Feb_13_1130,localizer,2021.1.3,60.13211031427299,
block,scrambled,scrambled084.bmp,,,,,0,88,88,88,,,,,,,,,,,,,,,,,,,,,,,,,,,,,,,,,,,,,,,,,,None,,623.1088443398476,None,623.1088443398476,None,2023-02-13-11:40:43.593198,623.1099021993577,623.425560599193,623.1099021993577,None,None,623.1099021993577,None,623.9252992393449,None,,,,22029,0002,2023_Feb_13_1130,localizer,2021.1.3,60.13211031427299,
block,scrambled,scrambled063.bmp,,,,,0,89,89,89,,,,,,,,,,,,,,,,,,,,,,,,,,,,,,,,,,,,,,,,,,None,,623.9252992393449,None,623.9252992393449,None,2023-02-13-11:40:44.409522,623.9363870993257,624.2424357999116,623.9363870993257,None,None,623.9363870993257,None,624.7421529395506,None,,,,22029,0002,2023_Feb_13_1130,localizer,2021.1.3,60.13211031427299,
block_end,scrambled,scrambled012.bmp,,,,,0,90,90,90,,,,,,,,,,,,,,,,,,,,,,,,,,,,,,,,,,,,,,,,,,None,,624.7421529395506,None,624.7421529395506,None,2023-02-13-11:40:45.226564,624.7533360999078,625.0591284995899,624.7533360999078,None,None,624.7533360999078,None,625.5588099397719,None,,,,22029,0002,2023_Feb_13_1130,localizer,2021.1.3,60.13211031427299,
block_start,objects,objects086.bmp,,,,,0,91,91,91,,,,,,,,,,,,,,,,,,,,,,,,,,,,,,,,,,,,,,,,,,t,1.7474848004058003,625.559019099921,None,625.559019099921,None,2023-02-13-11:40:47.808221,627.3268505996093,627.6425165999681,627.3268505996093,None,None,627.3268505996093,None,628.1423129392788,None,,,,22029,0002,2023_Feb_13_1130,localizer,2021.1.3,60.13211031427299,
block,objects,objects002.bmp,,,,,0,92,92,92,,,,,,,,,,,,,,,,,,,,,,,,,,,,,,,,,,,,,,,,,,None,,628.1423129392788,None,628.1423129392788,None,2023-02-13-11:40:48.626567,628.1432157997042,628.4586963998154,628.1432157997042,None,None,628.1432157997042,None,628.9584575397894,None,,,,22029,0002,2023_Feb_13_1130,localizer,2021.1.3,60.13211031427299,
block,objects,objects017.bmp,,,,,0,93,93,93,,,,,,,,,,,,,,,,,,,,,,,,,,,,,,,,,,,,,,,,,,None,,628.9584575397894,None,628.9584575397894,None,2023-02-13-11:40:49.442680,628.9695026995614,629.2758409995586,628.9695026995614,None,None,628.9695026995614,None,629.7757323393598,None,,,,22029,0002,2023_Feb_13_1130,localizer,2021.1.3,60.13211031427299,
block,objects,objects057.bmp,,,,,0,94,94,94,,,,,,,,,,,,,,,,,,,,,,,,,,,,,,,,,,,,,,,,,,None,,629.7757323393598,None,629.7757323393598,None,2023-02-13-11:40:50.260143,629.7766910996288,630.0925888996571,629.7766910996288,None,None,629.7766910996288,None,630.5760283395648,None,,,,22029,0002,2023_Feb_13_1130,localizer,2021.1.3,60.13211031427299,
block,objects,objects019.bmp,,,,,0,95,95,95,,,,,,,,,,,,,,,,,,,,,,,,,,,,,,,,,,,,,,,,,,None,,630.5760283395648,None,630.5760283395648,None,2023-02-13-11:40:51.063229,630.5792124997824,630.8929220996797,630.5792124997824,630.5792124997824,None,630.5792124997824,630.5792124997824,631.3927370393649,None,,,,22029,0002,2023_Feb_13_1130,localizer,2021.1.3,60.13211031427299,
block,objects,objects007.bmp,,,,,0,96,96,96,,,,,,,,,,,,,,,,,,,,,,,,,,,,,,,,,,,,,,,,,,None,,631.3927370393649,None,631.3927370393649,None,2023-02-13-11:40:51.878175,631.4058885993436,631.7091256994754,631.4058885993436,None,None,631.4058885993436,None,632.2088507395238,None,,,,22029,0002,2023_Feb_13_1130,localizer,2021.1.3,60.13211031427299,
block,objects,objects020.bmp,,,,,0,97,97,97,,,,,,,,,,,,,,,,,,,,,,,,,,,,,,,,,,,,,,,,,,None,,632.2088507395238,None,632.2088507395238,None,2023-02-13-11:40:52.693369,632.2100040996447,632.525761500001,632.2100040996447,None,None,632.2100040996447,None,633.0257964394987,None,,,,22029,0002,2023_Feb_13_1130,localizer,2021.1.3,60.13211031427299,
block,objects,objects077.bmp,,,,,0,98,98,98,,,,,,,,,,,,,,,,,,,,,,,,,,,,,,,,,,,,,,,,,,None,,633.0257964394987,None,633.0257964394987,None,2023-02-13-11:40:53.510222,633.0267604999244,633.3422868996859,633.0267604999244,None,None,633.0267604999244,None,633.825842239894,None,,,,22029,0002,2023_Feb_13_1130,localizer,2021.1.3,60.13211031427299,
block,objects,objects029.bmp,,,,,0,99,99,99,,,,,,,,,,,,,,,,,,,,,,,,,,,,,,,,,,,,,,,,,,None,,633.825842239894,None,633.825842239894,None,2023-02-13-11:40:54.312226,633.829020800069,634.1427222993225,633.829020800069,633.829020800069,None,633.829020800069,633.829020800069,634.6424788394943,None,,,,22029,0002,2023_Feb_13_1130,localizer,2021.1.3,60.13211031427299,
block,objects,objects013.bmp,,,,,0,100,100,100,,,,,,,,,,,,,,,,,,,,,,,,,,,,,,,,,,,,,,,,,,None,,634.6424788394943,None,634.6424788394943,None,2023-02-13-11:40:55.126923,634.6435070000589,634.9426010996103,634.6435070000589,None,None,634.6435070000589,None,635.4591925395653,None,,,,22029,0002,2023_Feb_13_1130,localizer,2021.1.3,60.13211031427299,
block,objects,objects043.bmp,,,,,0,101,101,101,,,,,,,,,,,,,,,,,,,,,,,,,,,,,,,,,,,,,,,,,,None,,635.4591925395653,None,635.4591925395653,None,2023-02-13-11:40:55.943604,635.4712721994147,635.7757275998592,635.4712721994147,None,None,635.4712721994147,None,636.2754386393353,None,,,,22029,0002,2023_Feb_13_1130,localizer,2021.1.3,60.13211031427299,
block,objects,objects061.bmp,,,,,0,102,102,102,,,,,,,,,,,,,,,,,,,,,,,,,,,,,,,,,,,,,,,,,,None,,636.2754386393353,None,636.2754386393353,None,2023-02-13-11:40:56.759654,636.276672899723,636.5763349998742,636.276672899723,None,None,636.276672899723,None,637.0762353399768,None,,,,22029,0002,2023_Feb_13_1130,localizer,2021.1.3,60.13211031427299,
block,objects,objects034.bmp,,,,,0,103,103,103,,,,,,,,,,,,,,,,,,,,,,,,,,,,,,,,,,,,,,,,,,None,,637.0762353399768,None,637.0762353399768,None,2023-02-13-11:40:57.563590,637.0925962999463,637.392399199307,637.0925962999463,637.0925962999463,None,637.0925962999463,637.0925962999463,637.892536140047,None,,,,22029,0002,2023_Feb_13_1130,localizer,2021.1.3,60.13211031427299,
block,objects,objects034.bmp,,,,,0,104,104,104,,,,,,,,,,,,,,,,,,,,,,,,,,,,,,,,,,,,,,,,,,None,,637.892536140047,None,637.892536140047,None,2023-02-13-11:40:58.376944,637.8935380000621,638.1928442995995,637.8935380000621,None,y,637.8935380000621,None,638.6927254395559,None,0.6059050001204014,,,22029,0002,2023_Feb_13_1130,localizer,2021.1.3,60.13211031427299,
block_end,objects,objects047.bmp,,,,,0,105,105,105,,,,,,,,,,,,,,,,,,,,,,,,,,,,,,,,,,,,,,,,,,None,,638.6927254395559,None,638.6927254395559,None,2023-02-13-11:40:59.178923,638.6947622997686,639.0086957998574,638.6947622997686,638.6947622997686,None,638.6947622997686,638.6947622997686,639.5091097392142,None,,,,22029,0002,2023_Feb_13_1130,localizer,2021.1.3,60.13211031427299,
null_block,null_block,null_block.bmp,,,,,0,106,106,106,,,,,,,,,,,,,,,,,,,,,,,,,,,,,,,,,,,,,,,,,,t,1.797312599606812,639.5092723993585,None,639.5092723993585,None,2023-02-13-11:41:01.811033,641.3259463394061,None,641.3259463394061,None,None,641.3259463394061,None,641.3307619998232,None,,,,22029,0002,2023_Feb_13_1130,localizer,2021.1.3,60.13211031427299,
block_start,scenes,scenes035.bmp,,,,,0,107,107,107,,,,,,,,,,,,,,,,,,,,,,,,,,,,,,,,,,,,,,,,,,t,1.9634125996381044,653.3430947000161,None,653.3430947000161,None,2023-02-13-11:41:15.810517,655.3266185997054,655.6423210995272,655.3266185997054,None,None,655.3266185997054,None,656.1257425397635,None,,,,22029,0002,2023_Feb_13_1130,localizer,2021.1.3,60.13211031427299,
block,scenes,scenes090.bmp,,,,,0,108,108,108,,,,,,,,,,,,,,,,,,,,,,,,,,,,,,,,,,,,,,,,,,None,,656.1257425397635,None,656.1257425397635,None,2023-02-13-11:41:16.611264,656.1268540993333,656.4423283999786,656.1268540993333,656.1268540993333,None,656.1268540993333,656.1268540993333,656.9258997393772,None,,,,22029,0002,2023_Feb_13_1130,localizer,2021.1.3,60.13211031427299,
block,scenes,scenes002.bmp,,,,,0,109,109,109,,,,,,,,,,,,,,,,,,,,,,,,,,,,,,,,,,,,,,,,,,None,,656.9258997393772,None,656.9258997393772,None,2023-02-13-11:41:17.412098,656.929026699625,657.2426416995004,656.929026699625,656.929026699625,None,656.929026699625,656.929026699625,657.7425205400214,None,,,,22029,0002,2023_Feb_13_1130,localizer,2021.1.3,60.13211031427299,
block,scenes,scenes080.bmp,,,,,0,110,110,110,,,,,,,,,,,,,,,,,,,,,,,,,,,,,,,,,,,,,,,,,,None,,657.7425205400214,None,657.7425205400214,None,2023-02-13-11:41:18.226899,657.7548598991707,658.0592098999768,657.7548598991707,None,None,657.7548598991707,None,658.5595765393227,None,,,,22029,0002,2023_Feb_13_1130,localizer,2021.1.3,60.13211031427299,
block,scenes,scenes082.bmp,,,,,0,111,111,111,,,,,,,,,,,,,,,,,,,,,,,,,,,,,,,,,,,,,,,,,,None,,658.5595765393227,None,658.5595765393227,None,2023-02-13-11:41:19.044770,658.5746169993654,658.875936999917,658.5746169993654,None,None,658.5746169993654,None,659.3760240394622,None,,,,22029,0002,2023_Feb_13_1130,localizer,2021.1.3,60.13211031427299,
block,scenes,scenes007.bmp,,,,,0,112,112,112,,,,,,,,,,,,,,,,,,,,,,,,,,,,,,,,,,,,,,,,,,None,,659.3760240394622,None,659.3760240394622,None,2023-02-13-11:41:19.861397,659.3772336998954,659.6929314993322,659.3772336998954,None,None,659.3772336998954,None,660.1927078394219,None,,,,22029,0002,2023_Feb_13_1130,localizer,2021.1.3,60.13211031427299,
block,scenes,scenes045.bmp,,,,,0,113,113,113,,,,,,,,,,,,,,,,,,,,,,,,,,,,,,,,,,,,,,,,,,None,,660.1927078394219,None,660.1927078394219,None,2023-02-13-11:41:20.677904,660.2059524999931,660.5096285995096,660.2059524999931,None,None,660.2059524999931,None,661.0090968394652,None,,,,22029,0002,2023_Feb_13_1130,localizer,2021.1.3,60.13211031427299,
block,scenes,scenes042.bmp,,,,,0,114,114,114,,,,,,,,,,,,,,,,,,,,,,,,,,,,,,,,,,,,,,,,,,None,,661.0090968394652,None,661.0090968394652,None,2023-02-13-11:41:21.493514,661.0104737998918,661.3261865992099,661.0104737998918,None,None,661.0104737998918,None,661.8257700400427,None,,,,22029,0002,2023_Feb_13_1130,localizer,2021.1.3,60.13211031427299,
block,scenes,scenes022.bmp,,,,,0,115,115,115,,,,,,,,,,,,,,,,,,,,,,,,,,,,,,,,,,,,,,,,,,None,,661.8257700400427,None,661.8257700400427,None,2023-02-13-11:41:22.310226,661.8399866996333,662.142574599944,661.8399866996333,None,None,661.8399866996333,None,662.6423640400171,None,,,,22029,0002,2023_Feb_13_1130,localizer,2021.1.3,60.13211031427299,
block,scenes,scenes071.bmp,,,,,0,116,116,116,,,,,,,,,,,,,,,,,,,,,,,,,,,,,,,,,,,,,,,,,,None,,662.6423640400171,None,662.6423640400171,None,2023-02-13-11:41:23.126849,662.6437007999048,662.9593479000032,662.6437007999048,None,None,662.6437007999048,None,663.4591633398086,None,,,,22029,0002,2023_Feb_13_1130,localizer,2021.1.3,60.13211031427299,
block,scenes,scenes074.bmp,,,,,0,117,117,117,,,,,,,,,,,,,,,,,,,,,,,,,,,,,,,,,,,,,,,,,,None,,663.4591633398086,None,663.4591633398086,None,2023-02-13-11:41:23.943368,663.4710350995883,663.7759775994346,663.4710350995883,None,None,663.4710350995883,None,664.2756221396849,None,,,,22029,0002,2023_Feb_13_1130,localizer,2021.1.3,60.13211031427299,
block,scenes,scenes061.bmp,,,,,0,118,118,118,,,,,,,,,,,,,,,,,,,,,,,,,,,,,,,,,,,,,,,,,,None,,664.2756221396849,None,664.2756221396849,None,2023-02-13-11:41:24.759825,664.2769417995587,664.5926569998264,664.2769417995587,None,None,664.2769417995587,None,665.0762141393498,None,,,,22029,0002,2023_Feb_13_1130,localizer,2021.1.3,60.13211031427299,
block,scenes,scenes055.bmp,,,,,0,119,119,119,,,,,,,,,,,,,,,,,,,,,,,,,,,,,,,,,,,,,,,,,,None,,665.0762141393498,None,665.0762141393498,None,2023-02-13-11:41:25.563592,665.0932342996821,665.3930361997336,665.0932342996821,665.0932342996821,None,665.0932342996821,665.0932342996821,665.892554840073,None,,,,22029,0002,2023_Feb_13_1130,localizer,2021.1.3,60.13211031427299,
block,scenes,scenes014.bmp,,,,,0,120,120,120,,,,,,,,,,,,,,,,,,,,,,,,,,,,,,,,,,,,,,,,,,None,,665.892554840073,None,665.892554840073,None,2023-02-13-11:41:26.377944,665.9073747992516,666.2093833992258,665.9073747992516,None,None,665.9073747992516,None,666.7097228392959,None,,,,22029,0002,2023_Feb_13_1130,localizer,2021.1.3,60.13211031427299,
block_end,scenes,scenes086.bmp,,,,,0,121,121,121,,,,,,,,,,,,,,,,,,,,,,,,,,,,,,,,,,,,,,,,,,None,,666.7097228392959,None,666.7097228392959,None,2023-02-13-11:41:27.194932,666.7120153997093,667.0156296994537,666.7120153997093,None,None,666.7120153997093,None,667.5266318395734,None,,,,22029,0002,2023_Feb_13_1130,localizer,2021.1.3,60.13211031427299,
block_start,objects,objects087.bmp,,,,,0,122,122,122,,,,,,,,,,,,,,,,,,,,,,,,,,,,,,,,,,,,,,,,,,t,1.779892299324274,667.5266730999574,None,667.5266730999574,None,2023-02-13-11:41:29.812061,669.32955509983,669.6425064997748,669.32955509983,None,None,669.32955509983,None,670.1427261391655,None,,,,22029,0002,2023_Feb_13_1130,localizer,2021.1.3,60.13211031427299,
block,objects,objects029.bmp,,,,,0,123,123,123,,,,,,,,,,,,,,,,,,,,,,,,,,,,,,,,,,,,,,,,,,None,,670.1427261391655,None,670.1427261391655,None,2023-02-13-11:41:30.627935,670.1438162997365,670.4587224991992,670.1438162997365,None,None,670.1438162997365,None,670.945073639974,None,,,,22029,0002,2023_Feb_13_1130,localizer,2021.1.3,60.13211031427299,
block,objects,objects069.bmp,,,,,0,124,124,124,,,,,,,,,,,,,,,,,,,,,,,,,,,,,,,,,,,,,,,,,,None,,670.945073639974,None,670.945073639974,None,2023-02-13-11:41:31.433341,670.9612771999091,671.2755917999893,670.9612771999091,670.9612771999091,None,670.9612771999091,670.9612771999091,671.7594977393746,None,,,,22029,0002,2023_Feb_13_1130,localizer,2021.1.3,60.13211031427299,
block,objects,objects031.bmp,,,,,0,125,125,125,,,,,,,,,,,,,,,,,,,,,,,,,,,,,,,,,,,,,,,,,,None,,671.7594977393746,None,671.7594977393746,None,2023-02-13-11:41:32.243889,671.7604217994958,672.0598164992407,671.7604217994958,None,None,671.7604217994958,None,672.5602857396007,None,,,,22029,0002,2023_Feb_13_1130,localizer,2021.1.3,60.13211031427299,
block,objects,objects006.bmp,,,,,0,126,126,126,,,,,,,,,,,,,,,,,,,,,,,,,,,,,,,,,,,,,,,,,,None,,672.5602857396007,None,672.5602857396007,None,2023-02-13-11:41:33.048457,672.5647898996249,672.8772385995835,672.5647898996249,672.5647898996249,None,672.5647898996249,672.5647898996249,673.3763292394578,None,,,,22029,0002,2023_Feb_13_1130,localizer,2021.1.3,60.13211031427299,
block,objects,objects002.bmp,,,,,0,127,127,127,,,,,,,,,,,,,,,,,,,,,,,,,,,,,,,,,,,,,,,,,,None,,673.3763292394578,None,673.3763292394578,None,2023-02-13-11:41:33.860414,673.3771750992164,673.6927596991882,673.3771750992164,None,None,673.3771750992164,None,674.1766380397603,None,,,,22029,0002,2023_Feb_13_1130,localizer,2021.1.3,60.13211031427299,
block,objects,objects042.bmp,,,,,0,128,128,128,,,,,,,,,,,,,,,,,,,,,,,,,,,,,,,,,,,,,,,,,,None,,674.1766380397603,None,674.1766380397603,None,2023-02-13-11:41:34.663029,674.1864692997187,674.4926060000435,674.1864692997187,674.1864692997187,None,674.1864692997187,674.1864692997187,674.9931984394789,None,,,,22029,0002,2023_Feb_13_1130,localizer,2021.1.3,60.13211031427299,
block,objects,objects024.bmp,,,,,0,129,129,129,,,,,,,,,,,,,,,,,,,,,,,,,,,,,,,,,,,,,,,,,,None,,674.9931984394789,None,674.9931984394789,None,2023-02-13-11:41:35.478531,675.00662719924,675.3092622999102,675.00662719924,None,None,675.00662719924,None,675.8106708396226,None,,,,22029,0002,2023_Feb_13_1130,localizer,2021.1.3,60.13211031427299,
block,objects,objects065.bmp,,,,,0,130,130,130,,,,,,,,,,,,,,,,,,,,,,,,,,,,,,,,,,,,,,,,,,None,,675.8106708396226,None,675.8106708396226,None,2023-02-13-11:41:36.297992,675.827304999344,676.1427652994171,675.827304999344,None,None,675.827304999344,None,676.6258638398722,None,,,,22029,0002,2023_Feb_13_1130,localizer,2021.1.3,60.13211031427299,
block,objects,objects063.bmp,,,,,0,131,131,131,,,,,,,,,,,,,,,,,,,,,,,,,,,,,,,,,,,,,,,,,,None,,676.6258638398722,None,676.6258638398722,None,2023-02-13-11:41:37.110063,676.6268135998398,676.9330384992063,676.6268135998398,None,None,676.6268135998398,None,677.4263255400583,None,,,,22029,0002,2023_Feb_13_1130,localizer,2021.1.3,60.13211031427299,
block,objects,objects044.bmp,,,,,0,132,132,132,,,,,,,,,,,,,,,,,,,,,,,,,,,,,,,,,,,,,,,,,,None,,677.4263255400583,None,677.4263255400583,None,2023-02-13-11:41:37.913589,677.4297361997887,677.7494215993211,677.4297361997887,677.4297361997887,None,677.4297361997887,677.4297361997887,678.2431908398867,None,,,,22029,0002,2023_Feb_13_1130,localizer,2021.1.3,60.13211031427299,
block,objects,objects078.bmp,,,,,0,133,133,133,,,,,,,,,,,,,,,,,,,,,,,,,,,,,,,,,,,,,,,,,,None,,678.2431908398867,None,678.2431908398867,None,2023-02-13-11:41:38.728410,678.2454923996702,678.5599496997893,678.2454923996702,None,None,678.2454923996702,None,679.0597212398425,None,,,,22029,0002,2023_Feb_13_1130,localizer,2021.1.3,60.13211031427299,
block,objects,objects023.bmp,,,,,0,134,134,134,,,,,,,,,,,,,,,,,,,,,,,,,,,,,,,,,,,,,,,,,,None,,679.0597212398425,None,679.0597212398425,None,2023-02-13-11:41:39.544888,679.0620466992259,679.3766771992669,679.0620466992259,None,None,679.0620466992259,None,679.8764528399333,None,,,,22029,0002,2023_Feb_13_1130,localizer,2021.1.3,60.13211031427299,
block,objects,objects038.bmp,,,,,0,135,135,135,,,,,,,,,,,,,,,,,,,,,,,,,,,,,,,,,,,,,,,,,,None,,679.8764528399333,None,679.8764528399333,None,2023-02-13-11:41:40.361656,679.8901749998331,680.1927396999672,679.8901749998331,None,None,679.8901749998331,None,680.6928373398259,None,,,,22029,0002,2023_Feb_13_1130,localizer,2021.1.3,60.13211031427299,
block_end,objects,objects030.bmp,,,,,0,136,136,136,,,,,,,,,,,,,,,,,,,,,,,,,,,,,,,,,,,,,,,,,,None,,680.6928373398259,None,680.6928373398259,None,2023-02-13-11:41:41.178051,680.6936133997515,680.9932382991537,680.6936133997515,None,None,680.6936133997515,None,681.493067339994,None,,,,22029,0002,2023_Feb_13_1130,localizer,2021.1.3,60.13211031427299,
block_start,scrambled,scrambled043.bmp,,,,,0,137,137,137,,,,,,,,,,,,,,,,,,,,,,,,,,,,,,,,,,,,,,,,,,t,1.8128047995269299,681.4936816999689,None,681.4936816999689,None,2023-02-13-11:41:43.808852,683.3269353993237,683.6262080995366,683.3269353993237,None,None,683.3269353993237,None,684.1260926397517,None,,,,22029,0002,2023_Feb_13_1130,localizer,2021.1.3,60.13211031427299,
block,scrambled,scrambled002.bmp,,,,,0,138,138,138,,,,,,,,,,,,,,,,,,,,,,,,,,,,,,,,,,,,,,,,,,None,,684.1260926397517,None,684.1260926397517,None,2023-02-13-11:41:44.612279,684.1424128999934,684.4431880991906,684.1424128999934,684.1424128999934,None,684.1424128999934,684.1424128999934,684.9427191391587,None,,,,22029,0002,2023_Feb_13_1130,localizer,2021.1.3,60.13211031427299,
block,scrambled,scrambled077.bmp,,,,,0,139,139,139,,,,,,,,,,,,,,,,,,,,,,,,,,,,,,,,,,,,,,,,,,None,,684.9427191391587,None,684.9427191391587,None,2023-02-13-11:41:45.427123,684.9436571998522,685.2595466999337,684.9436571998522,None,None,684.9436571998522,None,685.7437974391505,None,,,,22029,0002,2023_Feb_13_1130,localizer,2021.1.3,60.13211031427299,
block,scrambled,scrambled064.bmp,,,,,0,140,140,140,,,,,,,,,,,,,,,,,,,,,,,,,,,,,,,,,,,,,,,,,,None,,685.7437974391505,None,685.7437974391505,None,2023-02-13-11:41:46.230414,685.7589777996764,686.05950059928,685.7589777996764,685.7589777996764,None,685.7589777996764,685.7589777996764,686.559636740014,None,,,,22029,0002,2023_Feb_13_1130,localizer,2021.1.3,60.13211031427299,
block,scrambled,scrambled058.bmp,,,,,0,141,141,141,,,,,,,,,,,,,,,,,,,,,,,,,,,,,,,,,,,,,,,,,,None,,686.559636740014,None,686.559636740014,None,2023-02-13-11:41:47.045029,686.5726381996647,686.8760218992829,686.5726381996647,None,None,686.5726381996647,None,687.3759091394022,None,,,,22029,0002,2023_Feb_13_1130,localizer,2021.1.3,60.13211031427299,
block,scrambled,scrambled058.bmp,,,,,0,142,142,142,,,,,,,,,,,,,,,,,,,,,,,,,,,,,,,,,,,,,,,,,,None,,687.3759091394022,None,687.3759091394022,None,2023-02-13-11:41:47.858852,687.3771032998338,687.6929430998862,687.3771032998338,None,y,687.3771032998338,None,688.1771646393463,None,0.4922588998451829,,,22029,0002,2023_Feb_13_1130,localizer,2021.1.3,60.13211031427299,
block,scrambled,scrambled079.bmp,,,,,0,143,143,143,,,,,,,,,,,,,,,,,,,,,,,,,,,,,,,,,,,,,,,,,,None,,688.1771646393463,None,688.1771646393463,None,2023-02-13-11:41:48.666443,688.1814774991944,688.4928718991578,688.1814774991944,688.1814774991944,None,688.1814774991944,688.1814774991944,688.9926450392231,None,,,,22029,0002,2023_Feb_13_1130,localizer,2021.1.3,60.13211031427299,
block,scrambled,scrambled027.bmp,,,,,0,144,144,144,,,,,,,,,,,,,,,,,,,,,,,,,,,,,,,,,,,,,,,,,,None,,688.9926450392231,None,688.9926450392231,None,2023-02-13-11:41:49.476834,689.0042268997058,689.3093206994236,689.0042268997058,None,None,689.0042268997058,None,689.8099432392046,None,,,,22029,0002,2023_Feb_13_1130,localizer,2021.1.3,60.13211031427299,
block,scrambled,scrambled063.bmp,,,,,0,145,145,145,,,,,,,,,,,,,,,,,,,,,,,,,,,,,,,,,,,,,,,,,,None,,689.8099432392046,None,689.8099432392046,None,2023-02-13-11:41:50.295302,689.8123787995428,690.1263292999938,689.8123787995428,None,None,689.8123787995428,None,690.6258934391662,None,,,,22029,0002,2023_Feb_13_1130,localizer,2021.1.3,60.13211031427299,
block,scrambled,scrambled031.bmp,,,,,0,146,146,146,,,,,,,,,,,,,,,,,,,,,,,,,,,,,,,,,,,,,,,,,,None,,690.6258934391662,None,690.6258934391662,None,2023-02-13-11:41:51.110086,690.6270065996796,690.9264228995889,690.6270065996796,None,None,690.6270065996796,None,691.4264882393181,None,,,,22029,0002,2023_Feb_13_1130,localizer,2021.1.3,60.13211031427299,
block,scrambled,scrambled003.bmp,,,,,0,147,147,147,,,,,,,,,,,,,,,,,,,,,,,,,,,,,,,,,,,,,,,,,,None,,691.4264882393181,None,691.4264882393181,None,2023-02-13-11:41:51.913663,691.4298481997102,691.7434952994809,691.4298481997102,691.4298481997102,None,691.4298481997102,691.4298481997102,692.2432205397636,None,,,,22029,0002,2023_Feb_13_1130,localizer,2021.1.3,60.13211031427299,
block,scrambled,scrambled060.bmp,,,,,0,148,148,148,,,,,,,,,,,,,,,,,,,,,,,,,,,,,,,,,,,,,,,,,,None,,692.2432205397636,None,692.2432205397636,None,2023-02-13-11:41:52.728592,692.2568179992959,692.5597481997684,692.2568179992959,None,None,692.2568179992959,None,693.0590745396912,None,,,,22029,0002,2023_Feb_13_1130,localizer,2021.1.3,60.13211031427299,
block,scrambled,scrambled033.bmp,,,,,0,149,149,149,,,,,,,,,,,,,,,,,,,,,,,,,,,,,,,,,,,,,,,,,,None,,693.0590745396912,None,693.0590745396912,None,2023-02-13-11:41:53.543272,693.0604694997892,693.3761460995302,693.0604694997892,None,None,693.0604694997892,None,693.8761792397127,None,,,,22029,0002,2023_Feb_13_1130,localizer,2021.1.3,60.13211031427299,
block,scrambled,scrambled056.bmp,,,,,0,150,150,150,,,,,,,,,,,,,,,,,,,,,,,,,,,,,,,,,,,,,,,,,,None,,693.8761792397127,None,693.8761792397127,None,2023-02-13-11:41:54.360567,693.87726729922,694.1930366996676,693.87726729922,None,None,693.87726729922,None,694.6766844391823,None,,,,22029,0002,2023_Feb_13_1130,localizer,2021.1.3,60.13211031427299,
block_end,scrambled,scrambled080.bmp,,,,,0,151,151,151,,,,,,,,,,,,,,,,,,,,,,,,,,,,,,,,,,,,,,,,,,None,,694.6766844391823,None,694.6766844391823,None,2023-02-13-11:41:55.163858,694.679908699356,694.9935530992225,694.679908699356,694.679908699356,None,694.679908699356,694.679908699356,695.493319939822,None,,,,22029,0002,2023_Feb_13_1130,localizer,2021.1.3,60.13211031427299,
block_start,faces,faces039.bmp,,,,,0,152,152,152,,,,,,,,,,,,,,,,,,,,,,,,,,,,,,,,,,,,,,,,,,t,1.8130918992683291,695.4934695996344,None,695.4934695996344,None,2023-02-13-11:41:57.812443,697.3366711996496,697.6428861999884,697.3366711996496,None,None,697.3366711996496,None,698.1426678393036,None,,,,22029,0002,2023_Feb_13_1130,localizer,2021.1.3,60.13211031427299,
block,faces,faces014.bmp,,,,,0,153,153,153,,,,,,,,,,,,,,,,,,,,,,,,,,,,,,,,,,,,,,,,,,None,,698.1426678393036,None,698.1426678393036,None,2023-02-13-11:41:58.626853,698.1438616998494,698.4594634994864,698.1438616998494,None,None,698.1438616998494,None,698.9432348394766,None,,,,22029,0002,2023_Feb_13_1130,localizer,2021.1.3,60.13211031427299,
block,faces,faces069.bmp,,,,,0,154,154,154,,,,,,,,,,,,,,,,,,,,,,,,,,,,,,,,,,,,,,,,,,None,,698.9432348394766,None,698.9432348394766,None,2023-02-13-11:41:59.430408,698.9594522994012,699.2595648998395,698.9594522994012,698.9594522994012,None,698.9594522994012,698.9594522994012,699.7606186391786,None,,,,22029,0002,2023_Feb_13_1130,localizer,2021.1.3,60.13211031427299,
block,faces,faces064.bmp,,,,,0,155,155,155,,,,,,,,,,,,,,,,,,,,,,,,,,,,,,,,,,,,,,,,,,None,,699.7606186391786,None,699.7606186391786,None,2023-02-13-11:42:00.245927,699.776138599962,700.0761350998655,699.776138599962,None,None,699.776138599962,None,700.5761213395745,None,,,,22029,0002,2023_Feb_13_1130,localizer,2021.1.3,60.13211031427299,
block,faces,faces008.bmp,,,,,0,156,156,156,,,,,,,,,,,,,,,,,,,,,,,,,,,,,,,,,,,,,,,,,,None,,700.5761213395745,None,700.5761213395745,None,2023-02-13-11:42:01.060307,700.5772631000727,700.8932088995352,700.5772631000727,None,None,700.5772631000727,None,701.3930793395266,None,,,,22029,0002,2023_Feb_13_1130,localizer,2021.1.3,60.13211031427299,
block,faces,faces040.bmp,,,,,0,157,157,157,,,,,,,,,,,,,,,,,,,,,,,,,,,,,,,,,,,,,,,,,,None,,701.3930793395266,None,701.3930793395266,None,2023-02-13-11:42:01.877459,701.3938542995602,701.7092856997624,701.3938542995602,None,None,701.3938542995602,None,702.2094934396446,None,,,,22029,0002,2023_Feb_13_1130,localizer,2021.1.3,60.13211031427299,
block,faces,faces088.bmp,,,,,0,158,158,158,,,,,,,,,,,,,,,,,,,,,,,,,,,,,,,,,,,,,,,,,,None,,702.2094934396446,None,702.2094934396446,None,2023-02-13-11:42:02.693650,702.2236642995849,702.5263073993847,702.2236642995849,None,None,702.2236642995849,None,703.0262084398419,None,,,,22029,0002,2023_Feb_13_1130,localizer,2021.1.3,60.13211031427299,
block,faces,faces022.bmp,,,,,0,159,159,159,,,,,,,,,,,,,,,,,,,,,,,,,,,,,,,,,,,,,,,,,,None,,703.0262084398419,None,703.0262084398419,None,2023-02-13-11:42:03.510605,703.0273338994011,703.3429699996486,703.0273338994011,None,None,703.0273338994011,None,703.8266004398465,None,,,,22029,0002,2023_Feb_13_1130,localizer,2021.1.3,60.13211031427299,
block,faces,faces029.bmp,,,,,0,160,160,160,,,,,,,,,,,,,,,,,,,,,,,,,,,,,,,,,,,,,,,,,,None,,703.8266004398465,None,703.8266004398465,None,2023-02-13-11:42:04.313800,703.8300001993775,704.1435217997059,703.8300001993775,703.8300001993775,None,703.8300001993775,703.8300001993775,704.6433353396133,None,,,,22029,0002,2023_Feb_13_1130,localizer,2021.1.3,60.13211031427299,
block,faces,faces020.bmp,,,,,0,161,161,161,,,,,,,,,,,,,,,,,,,,,,,,,,,,,,,,,,,,,,,,,,None,,704.6433353396133,None,704.6433353396133,None,2023-02-13-11:42:05.128901,704.6445194995031,704.9601827999577,704.6445194995031,None,None,704.6445194995031,None,705.4599706400186,None,,,,22029,0002,2023_Feb_13_1130,localizer,2021.1.3,60.13211031427299,
block,faces,faces030.bmp,,,,,0,162,162,162,,,,,,,,,,,,,,,,,,,,,,,,,,,,,,,,,,,,,,,,,,None,,705.4599706400186,None,705.4599706400186,None,2023-02-13-11:42:05.945323,705.4609997998923,705.7767988992855,705.4609997998923,None,None,705.4609997998923,None,706.276468439959,None,,,,22029,0002,2023_Feb_13_1130,localizer,2021.1.3,60.13211031427299,
block,faces,faces021.bmp,,,,,0,163,163,163,,,,,,,,,,,,,,,,,,,,,,,,,,,,,,,,,,,,,,,,,,None,,706.276468439959,None,706.276468439959,None,2023-02-13-11:42:06.760664,706.2773935999721,706.5932358996943,706.2773935999721,None,None,706.2773935999721,None,707.0768420398235,None,,,,22029,0002,2023_Feb_13_1130,localizer,2021.1.3,60.13211031427299,
block,faces,faces031.bmp,,,,,0,164,164,164,,,,,,,,,,,,,,,,,,,,,,,,,,,,,,,,,,,,,,,,,,None,,707.0768420398235,None,707.0768420398235,None,2023-02-13-11:42:07.564180,707.0932206995785,707.3928601993248,707.0932206995785,707.0932206995785,None,707.0932206995785,707.0932206995785,707.8927132394165,None,,,,22029,0002,2023_Feb_13_1130,localizer,2021.1.3,60.13211031427299,
block,faces,faces072.bmp,,,,,0,165,165,165,,,,,,,,,,,,,,,,,,,,,,,,,,,,,,,,,,,,,,,,,,None,,707.8927132394165,None,707.8927132394165,None,2023-02-13-11:42:08.377024,707.8938471991569,708.1935211997479,707.8938471991569,None,None,707.8938471991569,None,708.6934971399605,None,,,,22029,0002,2023_Feb_13_1130,localizer,2021.1.3,60.13211031427299,
block_end,faces,faces046.bmp,,,,,0,166,166,166,,,,,,,,,,,,,,,,,,,,,,,,,,,,,,,,,,,,,,,,,,None,,708.6934971399605,None,708.6934971399605,None,2023-02-13-11:42:09.180843,708.6969335991889,709.0103778997436,708.6969335991889,708.6969335991889,None,708.6969335991889,708.6969335991889,709.510637239553,None,,,,22029,0002,2023_Feb_13_1130,localizer,2021.1.3,60.13211031427299,
null_block,null_block,null_block.bmp,,,,,0,167,167,167,,,,,,,,,,,,,,,,,,,,,,,,,,,,,,,,,,,,,,,,,,t,1.795766199938953,709.5108564998955,None,709.5108564998955,None,2023-02-13-11:42:11.809702,711.3263672394678,None,711.3263672394678,None,None,711.3263672394678,None,711.3304318999872,None,,,,22029,0002,2023_Feb_13_1130,localizer,2021.1.3,60.13211031427299,
block_start,scenes,scenes054.bmp,,,,,0,168,168,168,,,,,,,,,,,,,,,,,,,,,,,,,,,,,,,,,,,,,,,,,,t,1.9623573003336787,723.3433429999277,None,723.3433429999277,None,2023-02-13-11:42:25.811252,725.3402013992891,725.6431609997526,725.3402013992891,None,None,725.3402013992891,None,726.1435572393239,None,,,,22029,0002,2023_Feb_13_1130,localizer,2021.1.3,60.13211031427299,
block,scenes,scenes047.bmp,,,,,0,169,169,169,,,,,,,,,,,,,,,,,,,,,,,,,,,,,,,,,,,,,,,,,,None,,726.1435572393239,None,726.1435572393239,None,2023-02-13-11:42:26.629716,726.1585489995778,726.4595765992999,726.1585489995778,None,None,726.1585489995778,None,726.9596533393487,None,,,,22029,0002,2023_Feb_13_1130,localizer,2021.1.3,60.13211031427299,
block,scenes,scenes081.bmp,,,,,0,170,170,170,,,,,,,,,,,,,,,,,,,,,,,,,,,,,,,,,,,,,,,,,,None,,726.9596533393487,None,726.9596533393487,None,2023-02-13-11:42:27.443833,726.9607326993719,727.2764355000108,726.9607326993719,None,None,726.9607326993719,None,727.7762274397537,None,,,,22029,0002,2023_Feb_13_1130,localizer,2021.1.3,60.13211031427299,
block,scenes,scenes033.bmp,,,,,0,171,171,171,,,,,,,,,,,,,,,,,,,,,,,,,,,,,,,,,,,,,,,,,,None,,727.7762274397537,None,727.7762274397537,None,2023-02-13-11:42:28.260458,727.7843429995701,728.0968555994332,727.7843429995701,None,None,727.7843429995701,None,728.5939796399325,None,,,,22029,0002,2023_Feb_13_1130,localizer,2021.1.3,60.13211031427299,
block,scenes,scenes005.bmp,,,,,0,172,172,172,,,,,,,,,,,,,,,,,,,,,,,,,,,,,,,,,,,,,,,,,,None,,728.5939796399325,None,728.5939796399325,None,2023-02-13-11:42:29.080280,728.6098910998553,728.9097445998341,728.6098910998553,None,None,728.6098910998553,None,729.4161896398291,None,,,,22029,0002,2023_Feb_13_1130,localizer,2021.1.3,60.13211031427299,
block,scenes,scenes007.bmp,,,,,0,173,173,173,,,,,,,,,,,,,,,,,,,,,,,,,,,,,,,,,,,,,,,,,,None,,729.4161896398291,None,729.4161896398291,None,2023-02-13-11:42:29.909333,729.4235845999792,729.7265670998022,729.4235845999792,None,None,729.4235845999792,None,730.2266511395574,None,,,,22029,0002,2023_Feb_13_1130,localizer,2021.1.3,60.13211031427299,
block,scenes,scenes055.bmp,,,,,0,174,174,174,,,,,,,,,,,,,,,,,,,,,,,,,,,,,,,,,,,,,,,,,,None,,730.2266511395574,None,730.2266511395574,None,2023-02-13-11:42:30.711897,730.2288377992809,730.5436804993078,730.2288377992809,None,None,730.2288377992809,None,731.0436371397227,None,,,,22029,0002,2023_Feb_13_1130,localizer,2021.1.3,60.13211031427299,
block,scenes,scenes057.bmp,,,,,0,175,175,175,,,,,,,,,,,,,,,,,,,,,,,,,,,,,,,,,,,,,,,,,,None,,731.0436371397227,None,731.0436371397227,None,2023-02-13-11:42:31.528607,731.0571437999606,731.3596942992881,731.0571437999606,None,None,731.0571437999606,None,731.8595526395366,None,,,,22029,0002,2023_Feb_13_1130,localizer,2021.1.3,60.13211031427299,
block,scenes,scenes067.bmp,,,,,0,176,176,176,,,,,,,,,,,,,,,,,,,,,,,,,,,,,,,,,,,,,,,,,,None,,731.8595526395366,None,731.8595526395366,None,2023-02-13-11:42:32.343759,731.8606507992372,732.1762762991711,731.8606507992372,None,None,731.8606507992372,None,732.6761673400179,None,,,,22029,0002,2023_Feb_13_1130,localizer,2021.1.3,60.13211031427299,
block,scenes,scenes089.bmp,,,,,0,177,177,177,,,,,,,,,,,,,,,,,,,,,,,,,,,,,,,,,,,,,,,,,,None,,732.6761673400179,None,732.6761673400179,None,2023-02-13-11:42:33.160727,732.688493900001,732.9933210993186,732.688493900001,None,None,732.688493900001,None,733.49262643978,None,,,,22029,0002,2023_Feb_13_1130,localizer,2021.1.3,60.13211031427299,
block,scenes,scenes069.bmp,,,,,0,178,178,178,,,,,,,,,,,,,,,,,,,,,,,,,,,,,,,,,,,,,,,,,,None,,733.49262643978,None,733.49262643978,None,2023-02-13-11:42:33.975811,733.4940799996257,733.809933799319,733.4940799996257,None,None,733.4940799996257,None,734.3095747400075,None,,,,22029,0002,2023_Feb_13_1130,localizer,2021.1.3,60.13211031427299,
block,scenes,scenes045.bmp,,,,,0,179,179,179,,,,,,,,,,,,,,,,,,,,,,,,,,,,,,,,,,,,,,,,,,None,,734.3095747400075,None,734.3095747400075,None,2023-02-13-11:42:34.793751,734.3105248995125,734.6263238992542,734.3105248995125,None,None,734.3105248995125,None,735.1096576396376,None,,,,22029,0002,2023_Feb_13_1130,localizer,2021.1.3,60.13211031427299,
block,scenes,scenes034.bmp,,,,,0,180,180,180,,,,,,,,,,,,,,,,,,,,,,,,,,,,,,,,,,,,,,,,,,None,,735.1096576396376,None,735.1096576396376,None,2023-02-13-11:42:35.596035,735.1119048995897,735.4261788995937,735.1119048995897,735.1119048995897,None,735.1119048995897,735.1119048995897,735.926782139577,None,,,,22029,0002,2023_Feb_13_1130,localizer,2021.1.3,60.13211031427299,
block,scenes,scenes060.bmp,,,,,0,181,181,181,,,,,,,,,,,,,,,,,,,,,,,,,,,,,,,,,,,,,,,,,,None,,735.926782139577,None,735.926782139577,None,2023-02-13-11:42:36.412133,735.9428747994825,736.2430945998058,735.9428747994825,None,None,735.9428747994825,None,736.7429014397785,None,,,,22029,0002,2023_Feb_13_1130,localizer,2021.1.3,60.13211031427299,
block_end,scenes,scenes014.bmp,,,,,0,182,182,182,,,,,,,,,,,,,,,,,,,,,,,,,,,,,,,,,,,,,,,,,,None,,736.7429014397785,None,736.7429014397785,None,2023-02-13-11:42:37.227076,736.7441859999672,737.0596131999046,736.7441859999672,None,None,736.7441859999672,None,737.5437939399853,None,,,,22029,0002,2023_Feb_13_1130,localizer,2021.1.3,60.13211031427299,
block_start,scrambled,scrambled083.bmp,,,,,0,183,183,183,,,,,,,,,,,,,,,,,,,,,,,,,,,,,,,,,,,,,,,,,,t,1.7608217997476459,737.54475549981,None,737.54475549981,None,2023-02-13-11:42:39.812127,739.329672199674,739.6436646999791,739.329672199674,None,None,739.329672199674,None,740.1426668399945,None,,,,22029,0002,2023_Feb_13_1130,localizer,2021.1.3,60.13211031427299,
block,scrambled,scrambled074.bmp,,,,,0,184,184,184,,,,,,,,,,,,,,,,,,,,,,,,,,,,,,,,,,,,,,,,,,None,,740.1426668399945,None,740.1426668399945,None,2023-02-13-11:42:40.626846,740.1439347993582,740.4461103994399,740.1439347993582,None,None,740.1439347993582,None,740.943052239716,None,,,,22029,0002,2023_Feb_13_1130,localizer,2021.1.3,60.13211031427299,
block,scrambled,scrambled039.bmp,,,,,0,185,185,185,,,,,,,,,,,,,,,,,,,,,,,,,,,,,,,,,,,,,,,,,,None,,740.943052239716,None,740.943052239716,None,2023-02-13-11:42:41.427822,740.9552847994491,741.260166999884,740.9552847994491,740.9552847994491,None,740.9552847994491,740.9552847994491,741.7598629398271,None,,,,22029,0002,2023_Feb_13_1130,localizer,2021.1.3,60.13211031427299,
block,scrambled,scrambled067.bmp,,,,,0,186,186,186,,,,,,,,,,,,,,,,,,,,,,,,,,,,,,,,,,,,,,,,,,None,,741.7598629398271,None,741.7598629398271,None,2023-02-13-11:42:42.244234,741.7610204992816,742.0767091996968,741.7610204992816,None,None,741.7610204992816,None,742.5602470394224,None,,,,22029,0002,2023_Feb_13_1130,localizer,2021.1.3,60.13211031427299,
block,scrambled,scrambled065.bmp,,,,,0,187,187,187,,,,,,,,,,,,,,,,,,,,,,,,,,,,,,,,,,,,,,,,,,None,,742.5602470394224,None,742.5602470394224,None,2023-02-13-11:42:43.047401,742.5636497000232,742.8771842997521,742.5636497000232,742.5636497000232,None,742.5636497000232,742.5636497000232,743.3759704399854,None,,,,22029,0002,2023_Feb_13_1130,localizer,2021.1.3,60.13211031427299,
block,scrambled,scrambled043.bmp,,,,,0,188,188,188,,,,,,,,,,,,,,,,,,,,,,,,,,,,,,,,,,,,,,,,,,None,,743.3759704399854,None,743.3759704399854,None,2023-02-13-11:42:43.860685,743.3774457992986,743.693093999289,743.3774457992986,None,None,743.3774457992986,None,744.1766069391742,None,,,,22029,0002,2023_Feb_13_1130,localizer,2021.1.3,60.13211031427299,
block,scrambled,scrambled081.bmp,,,,,0,189,189,189,,,,,,,,,,,,,,,,,,,,,,,,,,,,,,,,,,,,,,,,,,None,,744.1766069391742,None,744.1766069391742,None,2023-02-13-11:42:44.663982,744.1791602000594,744.4930119998753,744.1791602000594,744.1791602000594,None,744.1791602000594,744.1791602000594,744.9933381397277,None,,,,22029,0002,2023_Feb_13_1130,localizer,2021.1.3,60.13211031427299,
block,scrambled,scrambled022.bmp,,,,,0,190,190,190,,,,,,,,,,,,,,,,,,,,,,,,,,,,,,,,,,,,,,,,,,None,,744.9933381397277,None,744.9933381397277,None,2023-02-13-11:42:45.478500,744.9941756995395,745.2933689998463,744.9941756995395,None,None,744.9941756995395,None,745.7936190394685,None,,,,22029,0002,2023_Feb_13_1130,localizer,2021.1.3,60.13211031427299,
block,scrambled,scrambled046.bmp,,,,,0,191,191,191,,,,,,,,,,,,,,,,,,,,,,,,,,,,,,,,,,,,,,,,,,None,,745.7936190394685,None,745.7936190394685,None,2023-02-13-11:42:46.280957,745.8098859991878,746.1096954997629,745.8098859991878,745.8098859991878,None,745.8098859991878,745.8098859991878,746.6099972398952,None,,,,22029,0002,2023_Feb_13_1130,localizer,2021.1.3,60.13211031427299,
block,scrambled,scrambled063.bmp,,,,,0,192,192,192,,,,,,,,,,,,,,,,,,,,,,,,,,,,,,,,,,,,,,,,,,None,,746.6099972398952,None,746.6099972398952,None,2023-02-13-11:42:47.095156,746.6117044994608,746.9271034998819,746.6117044994608,None,None,746.6117044994608,None,747.4268507398665,None,,,,22029,0002,2023_Feb_13_1130,localizer,2021.1.3,60.13211031427299,
block,scrambled,scrambled003.bmp,,,,,0,193,193,193,,,,,,,,,,,,,,,,,,,,,,,,,,,,,,,,,,,,,,,,,,None,,747.4268507398665,None,747.4268507398665,None,2023-02-13-11:42:47.912212,747.4292837996036,747.7437990000471,747.4292837996036,None,None,747.4292837996036,None,748.2436055392027,None,,,,22029,0002,2023_Feb_13_1130,localizer,2021.1.3,60.13211031427299,
block,scrambled,scrambled011.bmp,,,,,0,194,194,194,,,,,,,,,,,,,,,,,,,,,,,,,,,,,,,,,,,,,,,,,,None,,748.2436055392027,None,748.2436055392027,None,2023-02-13-11:42:48.729238,748.2571018999442,748.5599082000554,748.2571018999442,None,None,748.2571018999442,None,749.0606603398919,None,,,,22029,0002,2023_Feb_13_1130,localizer,2021.1.3,60.13211031427299,
block,scrambled,scrambled068.bmp,,,,,0,195,195,195,,,,,,,,,,,,,,,,,,,,,,,,,,,,,,,,,,,,,,,,,,None,,749.0606603398919,None,749.0606603398919,None,2023-02-13-11:42:49.545967,749.0752792991698,749.3765424992889,749.0752792991698,None,None,749.0752792991698,None,749.8767439397052,None,,,,22029,0002,2023_Feb_13_1130,localizer,2021.1.3,60.13211031427299,
block,scrambled,scrambled070.bmp,,,,,0,196,196,196,,,,,,,,,,,,,,,,,,,,,,,,,,,,,,,,,,,,,,,,,,None,,749.8767439397052,None,749.8767439397052,None,2023-02-13-11:42:50.362091,749.8777462998405,750.1930708996952,749.8777462998405,None,None,749.8777462998405,None,750.6772900400683,None,,,,22029,0002,2023_Feb_13_1130,localizer,2021.1.3,60.13211031427299,
block_end,scrambled,scrambled059.bmp,,,,,0,197,197,197,,,,,,,,,,,,,,,,,,,,,,,,,,,,,,,,,,,,,,,,,,None,,750.6772900400683,None,750.6772900400683,None,2023-02-13-11:42:51.164573,750.6817490998656,750.994159899652,750.6817490998656,750.6817490998656,None,750.6817490998656,750.6817490998656,751.4940558392555,None,,,,22029,0002,2023_Feb_13_1130,localizer,2021.1.3,60.13211031427299,
null_block,null_block,null_block.bmp,,,,,0,198,198,198,,,,,,,,,,,,,,,,,,,,,,,,,,,,,,,,,,,,,,,,,,t,1.8112559001892805,751.4943916993216,None,751.4943916993216,None,2023-02-13-11:42:53.809300,753.3261246392503,None,753.3261246392503,None,None,753.3261246392503,None,753.3276116997004,None,,,,22029,0002,2023_Feb_13_1130,localizer,2021.1.3,60.13211031427299,
block_start,faces,faces066.bmp,,,,,0,199,199,199,,,,,,,,,,,,,,,,,,,,,,,,,,,,,,,,,,,,,,,,,,t,1.9786700000986457,765.3270154995844,None,765.3270154995844,None,2023-02-13-11:43:07.812725,767.329602399841,767.6434847991914,767.329602399841,None,None,767.329602399841,None,768.1432476397604,None,,,,22029,0002,2023_Feb_13_1130,localizer,2021.1.3,60.13211031427299,
block,faces,faces016.bmp,,,,,0,200,200,200,,,,,,,,,,,,,,,,,,,,,,,,,,,,,,,,,,,,,,,,,,None,,768.1432476397604,None,768.1432476397604,None,2023-02-13-11:43:08.627453,768.1583918994293,768.4601068999618,768.1583918994293,None,None,768.1583918994293,None,768.9600465400144,None,,,,22029,0002,2023_Feb_13_1130,localizer,2021.1.3,60.13211031427299,
block,faces,faces060.bmp,,,,,0,201,201,201,,,,,,,,,,,,,,,,,,,,,,,,,,,,,,,,,,,,,,,,,,None,,768.9600465400144,None,768.9600465400144,None,2023-02-13-11:43:09.444431,768.961185099557,769.2769073992968,768.961185099557,None,None,768.961185099557,None,769.7765719396994,None,,,,22029,0002,2023_Feb_13_1130,localizer,2021.1.3,60.13211031427299,
block,faces,faces020.bmp,,,,,0,202,202,202,,,,,,,,,,,,,,,,,,,,,,,,,,,,,,,,,,,,,,,,,,None,,769.7765719396994,None,769.7765719396994,None,2023-02-13-11:43:10.260850,769.7777745993808,770.0933716995642,769.7777745993808,None,None,769.7777745993808,None,770.5768839400262,None,,,,22029,0002,2023_Feb_13_1130,localizer,2021.1.3,60.13211031427299,
block,faces,faces027.bmp,,,,,0,203,203,203,,,,,,,,,,,,,,,,,,,,,,,,,,,,,,,,,,,,,,,,,,None,,770.5768839400262,None,770.5768839400262,None,2023-02-13-11:43:11.064229,770.5937369996682,770.893404899165,770.5937369996682,770.5937369996682,None,770.5937369996682,770.5937369996682,771.3933283397928,None,,,,22029,0002,2023_Feb_13_1130,localizer,2021.1.3,60.13211031427299,
block,faces,faces067.bmp,,,,,0,204,204,204,,,,,,,,,,,,,,,,,,,,,,,,,,,,,,,,,,,,,,,,,,None,,771.3933283397928,None,771.3933283397928,None,2023-02-13-11:43:11.877484,771.4083231994882,771.7099401997402,771.4083231994882,None,None,771.4083231994882,None,772.2099432395771,None,,,,22029,0002,2023_Feb_13_1130,localizer,2021.1.3,60.13211031427299,
block,faces,faces030.bmp,,,,,0,205,205,205,,,,,,,,,,,,,,,,,,,,,,,,,,,,,,,,,,,,,,,,,,None,,772.2099432395771,None,772.2099432395771,None,2023-02-13-11:43:12.694103,772.2111268993467,772.5265445997939,772.2111268993467,None,None,772.2111268993467,None,773.0266294395551,None,,,,22029,0002,2023_Feb_13_1130,localizer,2021.1.3,60.13211031427299,
block,faces,faces001.bmp,,,,,0,206,206,206,,,,,,,,,,,,,,,,,,,,,,,,,,,,,,,,,,,,,,,,,,None,,773.0266294395551,None,773.0266294395551,None,2023-02-13-11:43:13.510967,773.0279564000666,773.3432767000049,773.0279564000666,None,None,773.0279564000666,None,773.8429356394336,None,,,,22029,0002,2023_Feb_13_1130,localizer,2021.1.3,60.13211031427299,
block,faces,faces013.bmp,,,,,0,207,207,207,,,,,,,,,,,,,,,,,,,,,,,,,,,,,,,,,,,,,,,,,,None,,773.8429356394336,None,773.8429356394336,None,2023-02-13-11:43:14.326814,773.8447445994243,774.1600993992761,773.8447445994243,None,None,773.8447445994243,None,774.6600185399875,None,,,,22029,0002,2023_Feb_13_1130,localizer,2021.1.3,60.13211031427299,
block,faces,faces044.bmp,,,,,0,208,208,208,,,,,,,,,,,,,,,,,,,,,,,,,,,,,,,,,,,,,,,,,,None,,774.6600185399875,None,774.6600185399875,None,2023-02-13-11:43:15.144176,774.6611672993749,774.9768988993019,774.6611672993749,None,None,774.6611672993749,None,775.4765796400607,None,,,,22029,0002,2023_Feb_13_1130,localizer,2021.1.3,60.13211031427299,
block,faces,faces081.bmp,,,,,0,209,209,209,,,,,,,,,,,,,,,,,,,,,,,,,,,,,,,,,,,,,,,,,,None,,775.4765796400607,None,775.4765796400607,None,2023-02-13-11:43:15.960754,775.4778373995796,775.7934034997597,775.4778373995796,None,None,775.4778373995796,None,776.293155439198,None,,,,22029,0002,2023_Feb_13_1130,localizer,2021.1.3,60.13211031427299,
block,faces,faces006.bmp,,,,,0,210,210,210,,,,,,,,,,,,,,,,,,,,,,,,,,,,,,,,,,,,,,,,,,None,,776.293155439198,None,776.293155439198,None,2023-02-13-11:43:16.778013,776.3056140998378,776.6100731994957,776.3056140998378,None,None,776.3056140998378,None,777.1100144395605,None,,,,22029,0002,2023_Feb_13_1130,localizer,2021.1.3,60.13211031427299,
block,faces,faces054.bmp,,,,,0,211,211,211,,,,,,,,,,,,,,,,,,,,,,,,,,,,,,,,,,,,,,,,,,None,,777.1100144395605,None,777.1100144395605,None,2023-02-13-11:43:17.594173,777.1111573996022,777.4267347995192,777.1111573996022,None,None,777.1111573996022,None,777.9264967394993,None,,,,22029,0002,2023_Feb_13_1130,localizer,2021.1.3,60.13211031427299,
block,faces,faces079.bmp,,,,,0,212,212,212,,,,,,,,,,,,,,,,,,,,,,,,,,,,,,,,,,,,,,,,,,None,,777.9264967394993,None,777.9264967394993,None,2023-02-13-11:43:18.410660,777.9373743999749,778.2436456996948,777.9373743999749,None,None,777.9373743999749,None,778.7440304392949,None,,,,22029,0002,2023_Feb_13_1130,localizer,2021.1.3,60.13211031427299,
block_end,faces,faces065.bmp,,,,,0,213,213,213,,,,,,,,,,,,,,,,,,,,,,,,,,,,,,,,,,,,,,,,,,None,,778.7440304392949,None,778.7440304392949,None,2023-02-13-11:43:19.229265,778.7465733997524,779.0600741999224,778.7465733997524,None,None,778.7465733997524,None,779.559723239392,None,,,,22029,0002,2023_Feb_13_1130,localizer,2021.1.3,60.13211031427299,
block_start,scenes,scenes066.bmp,,,,,0,214,214,214,,,,,,,,,,,,,,,,,,,,,,,,,,,,,,,,,,,,,,,,,,t,1.7456400003284216,779.5600267993286,None,779.5600267993286,None,2023-02-13-11:43:21.810261,781.3385455999523,781.6435325993225,781.3385455999523,None,None,781.3385455999523,None,782.1435035392642,None,,,,22029,0002,2023_Feb_13_1130,localizer,2021.1.3,60.13211031427299,
block,scenes,scenes081.bmp,,,,,0,215,215,215,,,,,,,,,,,,,,,,,,,,,,,,,,,,,,,,,,,,,,,,,,None,,782.1435035392642,None,782.1435035392642,None,2023-02-13-11:43:22.627660,782.1446838993579,782.4599369997159,782.1446838993579,None,None,782.1446838993579,None,782.9438868397847,None,,,,22029,0002,2023_Feb_13_1130,localizer,2021.1.3,60.13211031427299,
block,scenes,scenes042.bmp,,,,,0,216,216,216,,,,,,,,,,,,,,,,,,,,,,,,,,,,,,,,,,,,,,,,,,None,,782.9438868397847,None,782.9438868397847,None,2023-02-13-11:43:23.431124,782.9473974993452,783.2609473997727,782.9473974993452,782.9473974993452,None,782.9473974993452,782.9473974993452,783.760038039647,None,,,,22029,0002,2023_Feb_13_1130,localizer,2021.1.3,60.13211031427299,
block,scenes,scenes021.bmp,,,,,0,217,217,217,,,,,,,,,,,,,,,,,,,,,,,,,,,,,,,,,,,,,,,,,,None,,783.760038039647,None,783.760038039647,None,2023-02-13-11:43:24.244408,783.7612466998398,784.0626317998394,783.7612466998398,None,None,783.7612466998398,None,784.576653639786,None,,,,22029,0002,2023_Feb_13_1130,localizer,2021.1.3,60.13211031427299,
block,scenes,scenes089.bmp,,,,,0,218,218,218,,,,,,,,,,,,,,,,,,,,,,,,,,,,,,,,,,,,,,,,,,None,,784.576653639786,None,784.576653639786,None,2023-02-13-11:43:25.060811,784.5778454998508,784.8934355992824,784.5778454998508,None,None,784.5778454998508,None,785.3768578395247,None,,,,22029,0002,2023_Feb_13_1130,localizer,2021.1.3,60.13211031427299,
block,scenes,scenes089.bmp,,,,,0,219,219,219,,,,,,,,,,,,,,,,,,,,,,,,,,,,,,,,,,,,,,,,,,None,,785.3768578395247,None,785.3768578395247,None,2023-02-13-11:43:25.862858,785.3799123996869,785.693646799773,785.3799123996869,785.3799123996869,y,785.3799123996869,785.3799123996869,786.1935705393553,None,0.46651600021868944,,,22029,0002,2023_Feb_13_1130,localizer,2021.1.3,60.13211031427299,
block,scenes,scenes055.bmp,,,,,0,220,220,220,,,,,,,,,,,,,,,,,,,,,,,,,,,,,,,,,,,,,,,,,,None,,786.1935705393553,None,786.1935705393553,None,2023-02-13-11:43:26.677904,786.1946522993967,786.5101200994104,786.1946522993967,None,None,786.1946522993967,None,786.9937629392371,None,,,,22029,0002,2023_Feb_13_1130,localizer,2021.1.3,60.13211031427299,
block,scenes,scenes057.bmp,,,,,0,221,221,221,,,,,,,,,,,,,,,,,,,,,,,,,,,,,,,,,,,,,,,,,,None,,786.9937629392371,None,786.9937629392371,None,2023-02-13-11:43:27.480901,786.9969547996297,787.3103426992893,786.9969547996297,786.9969547996297,None,786.9969547996297,786.9969547996297,787.8122197398916,None,,,,22029,0002,2023_Feb_13_1130,localizer,2021.1.3,60.13211031427299,
block,scenes,scenes023.bmp,,,,,0,222,222,222,,,,,,,,,,,,,,,,,,,,,,,,,,,,,,,,,,,,,,,,,,None,,787.8122197398916,None,787.8122197398916,None,2023-02-13-11:43:28.301373,787.816347300075,788.1266685994342,787.816347300075,None,None,787.816347300075,None,788.6268536392599,None,,,,22029,0002,2023_Feb_13_1130,localizer,2021.1.3,60.13211031427299,
block,scenes,scenes028.bmp,,,,,0,223,223,223,,,,,,,,,,,,,,,,,,,,,,,,,,,,,,,,,,,,,,,,,,None,,788.6268536392599,None,788.6268536392599,None,2023-02-13-11:43:29.111005,788.6278794994578,788.9433563994244,788.6278794994578,None,None,788.6278794994578,None,789.4430802399293,None,,,,22029,0002,2023_Feb_13_1130,localizer,2021.1.3,60.13211031427299,
block,scenes,scenes036.bmp,,,,,0,224,224,224,,,,,,,,,,,,,,,,,,,,,,,,,,,,,,,,,,,,,,,,,,None,,789.4430802399293,None,789.4430802399293,None,2023-02-13-11:43:29.927241,789.4547313991934,789.7601577993482,789.4547313991934,None,None,789.4547313991934,None,790.2605142397806,None,,,,22029,0002,2023_Feb_13_1130,localizer,2021.1.3,60.13211031427299,
block,scenes,scenes064.bmp,,,,,0,225,225,225,,,,,,,,,,,,,,,,,,,,,,,,,,,,,,,,,,,,,,,,,,None,,790.2605142397806,None,790.2605142397806,None,2023-02-13-11:43:30.745591,790.2613769993186,790.5772233000025,790.2613769993186,None,None,790.2613769993186,None,791.0621037399396,None,,,,22029,0002,2023_Feb_13_1130,localizer,2021.1.3,60.13211031427299,
block,scenes,scenes079.bmp,,,,,0,226,226,226,,,,,,,,,,,,,,,,,,,,,,,,,,,,,,,,,,,,,,,,,,None,,791.0621037399396,None,791.0621037399396,None,2023-02-13-11:43:31.552285,791.0699875997379,791.3768207998946,791.0699875997379,791.0699875997379,None,791.0699875997379,791.0699875997379,791.8769316393882,None,,,,22029,0002,2023_Feb_13_1130,localizer,2021.1.3,60.13211031427299,
block,scenes,scenes080.bmp,,,,,0,227,227,227,,,,,,,,,,,,,,,,,,,,,,,,,,,,,,,,,,,,,,,,,,None,,791.8769316393882,None,791.8769316393882,None,2023-02-13-11:43:32.361083,791.8780169999227,792.1938515994698,791.8780169999227,None,None,791.8780169999227,None,792.677384939976,None,,,,22029,0002,2023_Feb_13_1130,localizer,2021.1.3,60.13211031427299,
block_end,scenes,scenes049.bmp,,,,,0,228,228,228,,,,,,,,,,,,,,,,,,,,,,,,,,,,,,,,,,,,,,,,,,None,,792.677384939976,None,792.677384939976,None,2023-02-13-11:43:33.164517,792.6807893998921,792.9941822998226,792.6807893998921,792.6807893998921,None,792.6807893998921,792.6807893998921,793.4941773395985,None,,,,22029,0002,2023_Feb_13_1130,localizer,2021.1.3,60.13211031427299,
block_start,objects,objects061.bmp,,,,,0,229,229,229,,,,,,,,,,,,,,,,,,,,,,,,,,,,,,,,,,,,,,,,,,t,1.8113426994532347,793.4943480994552,None,793.4943480994552,None,2023-02-13-11:43:35.812591,795.3300821995363,795.6442507999018,795.3300821995363,None,None,795.3300821995363,None,796.1439578393474,None,,,,22029,0002,2023_Feb_13_1130,localizer,2021.1.3,60.13211031427299,
block,objects,objects053.bmp,,,,,0,230,230,230,,,,,,,,,,,,,,,,,,,,,,,,,,,,,,,,,,,,,,,,,,None,,796.1439578393474,None,796.1439578393474,None,2023-02-13-11:43:36.628993,796.1457452997565,796.4442951995879,796.1457452997565,None,None,796.1457452997565,None,796.9605776397511,None,,,,22029,0002,2023_Feb_13_1130,localizer,2021.1.3,60.13211031427299,
block,objects,objects021.bmp,,,,,0,231,231,231,,,,,,,,,,,,,,,,,,,,,,,,,,,,,,,,,,,,,,,,,,None,,796.9605776397511,None,796.9605776397511,None,2023-02-13-11:43:37.445715,796.962490499951,797.27767309919,796.962490499951,None,None,796.962490499951,None,797.777397739701,None,,,,22029,0002,2023_Feb_13_1130,localizer,2021.1.3,60.13211031427299,
block,objects,objects003.bmp,,,,,0,232,232,232,,,,,,,,,,,,,,,,,,,,,,,,,,,,,,,,,,,,,,,,,,None,,797.777397739701,None,797.777397739701,None,2023-02-13-11:43:38.262535,797.7913544997573,798.0935313999653,797.7913544997573,None,None,797.7913544997573,None,798.5934368399903,None,,,,22029,0002,2023_Feb_13_1130,localizer,2021.1.3,60.13211031427299,
block,objects,objects013.bmp,,,,,0,233,233,233,,,,,,,,,,,,,,,,,,,,,,,,,,,,,,,,,,,,,,,,,,None,,798.5934368399903,None,798.5934368399903,None,2023-02-13-11:43:39.077524,798.5946271996945,798.9103831993416,798.5946271996945,None,None,798.5946271996945,None,799.4102237392217,None,,,,22029,0002,2023_Feb_13_1130,localizer,2021.1.3,60.13211031427299,
block,objects,objects034.bmp,,,,,0,234,234,234,,,,,,,,,,,,,,,,,,,,,,,,,,,,,,,,,,,,,,,,,,None,,799.4102237392217,None,799.4102237392217,None,2023-02-13-11:43:39.894238,799.4112976994365,799.7273022998124,799.4112976994365,None,None,799.4112976994365,None,800.2104268399999,None,,,,22029,0002,2023_Feb_13_1130,localizer,2021.1.3,60.13211031427299,
block,objects,objects066.bmp,,,,,0,235,235,235,,,,,,,,,,,,,,,,,,,,,,,,,,,,,,,,,,,,,,,,,,None,,800.2104268399999,None,800.2104268399999,None,2023-02-13-11:43:40.697635,800.2135983994231,800.5266349995509,800.2135983994231,800.2135983994231,None,800.2135983994231,800.2135983994231,801.026604139246,None,,,,22029,0002,2023_Feb_13_1130,localizer,2021.1.3,60.13211031427299,
block,objects,objects027.bmp,,,,,0,236,236,236,,,,,,,,,,,,,,,,,,,,,,,,,,,,,,,,,,,,,,,,,,None,,801.026604139246,None,801.026604139246,None,2023-02-13-11:43:41.510966,801.0278768995777,801.3435217998922,801.0278768995777,None,None,801.0278768995777,None,801.8435242399573,None,,,,22029,0002,2023_Feb_13_1130,localizer,2021.1.3,60.13211031427299,
block,objects,objects086.bmp,,,,,0,237,237,237,,,,,,,,,,,,,,,,,,,,,,,,,,,,,,,,,,,,,,,,,,None,,801.8435242399573,None,801.8435242399573,None,2023-02-13-11:43:42.327296,801.8446460999548,802.1603557998314,801.8446460999548,None,None,801.8446460999548,None,802.6439725393429,None,,,,22029,0002,2023_Feb_13_1130,localizer,2021.1.3,60.13211031427299,
block,objects,objects070.bmp,,,,,0,238,238,238,,,,,,,,,,,,,,,,,,,,,,,,,,,,,,,,,,,,,,,,,,None,,802.6439725393429,None,802.6439725393429,None,2023-02-13-11:43:43.131102,802.6473122993484,802.9600939992815,802.6473122993484,802.6473122993484,None,802.6473122993484,802.6473122993484,803.4597226399928,None,,,,22029,0002,2023_Feb_13_1130,localizer,2021.1.3,60.13211031427299,
block,objects,objects040.bmp,,,,,0,239,239,239,,,,,,,,,,,,,,,,,,,,,,,,,,,,,,,,,,,,,,,,,,None,,803.4597226399928,None,803.4597226399928,None,2023-02-13-11:43:43.943908,803.4610832994804,803.7769522992894,803.4610832994804,None,None,803.4610832994804,None,804.2601330392063,None,,,,22029,0002,2023_Feb_13_1130,localizer,2021.1.3,60.13211031427299,
block,objects,objects078.bmp,,,,,0,240,240,240,,,,,,,,,,,,,,,,,,,,,,,,,,,,,,,,,,,,,,,,,,None,,804.2601330392063,None,804.2601330392063,None,2023-02-13-11:43:44.745461,804.2624364998192,804.5774151999503,804.2624364998192,804.2624364998192,None,804.2624364998192,804.2624364998192,805.0772687392309,None,,,,22029,0002,2023_Feb_13_1130,localizer,2021.1.3,60.13211031427299,
block,objects,objects060.bmp,,,,,0,241,241,241,,,,,,,,,,,,,,,,,,,,,,,,,,,,,,,,,,,,,,,,,,None,,805.0772687392309,None,805.0772687392309,None,2023-02-13-11:43:45.562404,805.0781797999516,805.4002700997517,805.0781797999516,None,None,805.0781797999516,None,805.8934597391635,None,,,,22029,0002,2023_Feb_13_1130,localizer,2021.1.3,60.13211031427299,
block,objects,objects046.bmp,,,,,0,242,242,242,,,,,,,,,,,,,,,,,,,,,,,,,,,,,,,,,,,,,,,,,,None,,805.8934597391635,None,805.8934597391635,None,2023-02-13-11:43:46.377606,805.8945482000709,806.1946206996217,805.8945482000709,None,None,805.8945482000709,None,806.6942537399009,None,,,,22029,0002,2023_Feb_13_1130,localizer,2021.1.3,60.13211031427299,
block_end,objects,objects057.bmp,,,,,0,243,243,243,,,,,,,,,,,,,,,,,,,,,,,,,,,,,,,,,,,,,,,,,,None,,806.6942537399009,None,806.6942537399009,None,2023-02-13-11:43:47.181075,806.698376099579,807.0112694995478,806.698376099579,806.698376099579,None,806.698376099579,806.698376099579,807.5104095395654,None,,,,22029,0002,2023_Feb_13_1130,localizer,2021.1.3,60.13211031427299,
,,,,,,,,,,,,,,,,,,,,,,,,,,,,,,,,,,,,,,,,,,,,,,,,,,,,,,,,,,,,,,,,,,,,,807.516575999558,None,,,,,,,
