block_type,condition,img_name,Button.thisRepN,Button.thisTrialN,Button.thisN,Button.thisIndex,trials.thisRepN,trials.thisTrialN,trials.thisN,trials.thisIndex,Ready_experimenter_text.started,Ready_experimenter_text.stopped,Ready_experimenter_resp.keys,Ready_experimenter_resp.rt,Ready_experimenter_resp.started,Ready_experimenter_resp.stopped,Alignment_background.started,Alignment_background.stopped,Alignment_image.started,Alignment_image.stopped,Alignment_resp.keys,Alignment_resp.rt,Alignment_resp.started,Alignment_resp.stopped,Button_text.started,Button_text.stopped,Index_text.started,Index_text.stopped,Index_resp.keys,Index_resp.rt,Index_resp.started,Index_resp.stopped,Middle_text.started,Middle_text.stopped,Middle_resp.keys,Middle_resp.rt,Middle_resp.started,Middle_resp.stopped,Repeat_text.started,Repeat_text.stopped,Repeat_resp.keys,Repeat_resp.corr,Repeat_resp.rt,Repeat_resp.started,Repeat_resp.stopped,instruction_text.started,instruction_text.stopped,key_resp.keys,key_resp.rt,key_resp.started,key_resp.stopped,scanner_t.keys,scanner_t.rt,scanner_t.started,scanner_t.stopped,fixation_wait_for_t.started,fixation_wait_for_t.stopped,real_timestamp_trial_start,image.started,image.stopped,fixation.started,fixation.stopped,repeat_response.keys,repeat_response.started,repeat_response.stopped,fixation_null.started,fixation_null.stopped,repeat_response.rt,end_text.started,end_text.stopped,participant,run,date,expName,psychopyVersion,frameRate,
,,,,,,,,,,,8.279780399985611,None,return,58.132896199822426,8.279780399985611,None,,,,,,,,,,,,,,,,,,,,,,,,,,,,,,,,,,,,,,,,,,,,,,,,,,,,,,,22008,0001,2022_Apr_21_1213,localizer,2021.1.3,61.51135862216349,
,,,,,,,,,,,,,,,,,66.45390770002268,None,66.45390770002268,None,return,5.346301899990067,66.45390770002268,None,,,,,,,,,,,,,,,,,,,,,,,,,,,,,,,,,,,,,,,,,,,,,,,22008,0001,2022_Apr_21_1213,localizer,2021.1.3,61.51135862216349,
,,,0,0,0,0,,,,,,,,,,,,,,,,,,,71.81787639996037,None,72.82965809991583,None,y,2.8561195998918265,72.82965809991583,None,75.71253889985383,None,b,1.7823685000184923,75.71253889985383,None,77.5194778998848,None,n,0,4.378914800006896,77.5194778998848,None,,,,,,,,,,,,,,,,,,,,,,,,,,22008,0001,2022_Apr_21_1213,localizer,2021.1.3,61.51135862216349,
,,,,,,,,,,,,,,,,,,,,,,,,,,,,,,,,,,,,,,,,,,,,,,81.9298390999902,None,y,33.574117599986494,81.9298390999902,None,,,,,,,,,,,,,,,,,,,,22008,0001,2022_Apr_21_1213,localizer,2021.1.3,61.51135862216349,
null_block,null_block,null_block.bmp,,,,,0,0,0,0,,,,,,,,,,,,,,,,,,,,,,,,,,,,,,,,,,,,,,,,,,t,16.799487699987367,115.5913784999866,None,115.5913784999866,None,2022-04-21-12:16:04.862589,132.42948025995867,None,132.42948025995867,None,None,132.42948025995867,None,132.42753200000152,None,,,,22008,0001,2022_Apr_21_1213,localizer,2021.1.3,61.51135862216349,
block_start,scenes,scenes006.bmp,,,,,0,1,1,1,,,,,,,,,,,,,,,,,,,,,,,,,,,,,,,,,,,,,,,,,,t,1.9579324999358505,144.43216619989835,None,144.43216619989835,None,2022-04-21-12:16:18.865434,146.4249185998924,146.72939600003883,146.4249185998924,None,None,146.4249185998924,None,147.22974327995908,None,,,,22008,0001,2022_Apr_21_1213,localizer,2021.1.3,61.51135862216349,
block,scenes,scenes060.bmp,,,,,0,2,2,2,,,,,,,,,,,,,,,,,,,,,,,,,,,,,,,,,,,,,,,,,,None,,147.22974327995908,None,147.22974327995908,None,2022-04-21-12:16:19.680554,147.35082429996692,147.66284050000831,147.35082429996692,None,None,147.35082429996692,None,148.04651547989343,None,,,,22008,0001,2022_Apr_21_1213,localizer,2021.1.3,61.51135862216349,
block,scenes,scenes035.bmp,,,,,0,3,3,3,,,,,,,,,,,,,,,,,,,,,,,,,,,,,,,,,,,,,,,,,,None,,148.04651547989343,None,148.04651547989343,None,2022-04-21-12:16:20.497319,148.05730900005437,148.36373710003681,148.05730900005437,None,None,148.05730900005437,None,148.86382557984908,None,,,,22008,0001,2022_Apr_21_1213,localizer,2021.1.3,61.51135862216349,
block,scenes,scenes001.bmp,,,,,0,4,4,4,,,,,,,,,,,,,,,,,,,,,,,,,,,,,,,,,,,,,,,,,,None,,148.86382557984908,None,148.86382557984908,None,2022-04-21-12:16:21.314131,148.8715979999397,149.17947490001097,148.8715979999397,None,None,148.8715979999397,None,149.6830301799113,None,,,,22008,0001,2022_Apr_21_1213,localizer,2021.1.3,61.51135862216349,
block,scenes,scenes012.bmp,,,,,0,5,5,5,,,,,,,,,,,,,,,,,,,,,,,,,,,,,,,,,,,,,,,,,,None,,149.6830301799113,None,149.6830301799113,None,2022-04-21-12:16:22.137800,149.6983153000474,150.01282329997048,149.6983153000474,None,None,149.6983153000474,None,150.49659617987928,None,,,,22008,0001,2022_Apr_21_1213,localizer,2021.1.3,61.51135862216349,
block,scenes,scenes031.bmp,,,,,0,6,6,6,,,,,,,,,,,,,,,,,,,,,,,,,,,,,,,,,,,,,,,,,,None,,150.49659617987928,None,150.49659617987928,None,2022-04-21-12:16:22.947381,150.50681259995326,150.81303550000302,150.50681259995326,None,None,150.50681259995326,None,151.31304357990157,None,,,,22008,0001,2022_Apr_21_1213,localizer,2021.1.3,61.51135862216349,
block,scenes,scenes066.bmp,,,,,0,7,7,7,,,,,,,,,,,,,,,,,,,,,,,,,,,,,,,,,,,,,,,,,,None,,151.31304357990157,None,151.31304357990157,None,2022-04-21-12:16:23.763850,151.32230019988492,151.62940149987116,151.32230019988492,None,None,151.32230019988492,None,152.12999147989322,None,,,,22008,0001,2022_Apr_21_1213,localizer,2021.1.3,61.51135862216349,
block,scenes,scenes085.bmp,,,,,0,8,8,8,,,,,,,,,,,,,,,,,,,,,,,,,,,,,,,,,,,,,,,,,,None,,152.12999147989322,None,152.12999147989322,None,2022-04-21-12:16:24.580852,152.13963870005682,152.44622569996864,152.13963870005682,None,None,152.13963870005682,None,152.9462288799463,None,,,,22008,0001,2022_Apr_21_1213,localizer,2021.1.3,61.51135862216349,
block,scenes,scenes024.bmp,,,,,0,9,9,9,,,,,,,,,,,,,,,,,,,,,,,,,,,,,,,,,,,,,,,,,,None,,152.9462288799463,None,152.9462288799463,None,2022-04-21-12:16:25.397038,152.95571439992636,153.26273590000346,152.95571439992636,None,None,152.95571439992636,None,153.76318898003083,None,,,,22008,0001,2022_Apr_21_1213,localizer,2021.1.3,61.51135862216349,
block,scenes,scenes083.bmp,,,,,0,10,10,10,,,,,,,,,,,,,,,,,,,,,,,,,,,,,,,,,,,,,,,,,,None,,153.76318898003083,None,153.76318898003083,None,2022-04-21-12:16:26.213990,153.7728893000167,154.07952869986184,153.7728893000167,None,None,153.7728893000167,None,154.58004528002348,None,,,,22008,0001,2022_Apr_21_1213,localizer,2021.1.3,61.51135862216349,
block,scenes,scenes050.bmp,,,,,0,11,11,11,,,,,,,,,,,,,,,,,,,,,,,,,,,,,,,,,,,,,,,,,,None,,154.58004528002348,None,154.58004528002348,None,2022-04-21-12:16:27.030843,154.59062849986367,154.8961487999186,154.59062849986367,None,None,154.59062849986367,None,155.38612148000394,None,,,,22008,0001,2022_Apr_21_1213,localizer,2021.1.3,61.51135862216349,
block,scenes,scenes092.bmp,,,,,0,12,12,12,,,,,,,,,,,,,,,,,,,,,,,,,,,,,,,,,,,,,,,,,,None,,155.38612148000394,None,155.38612148000394,None,2022-04-21-12:16:27.844851,155.40304829995148,155.71283430000767,155.40304829995148,None,None,155.40304829995148,None,156.20271787999664,None,,,,22008,0001,2022_Apr_21_1213,localizer,2021.1.3,61.51135862216349,
block,scenes,scenes045.bmp,,,,,0,13,13,13,,,,,,,,,,,,,,,,,,,,,,,,,,,,,,,,,,,,,,,,,,None,,156.20271787999664,None,156.20271787999664,None,2022-04-21-12:16:28.662390,156.22382029984146,156.5294665999245,156.22382029984146,None,None,156.22382029984146,None,157.0133264800301,None,,,,22008,0001,2022_Apr_21_1213,localizer,2021.1.3,61.51135862216349,
block,scenes,scenes043.bmp,,,,,0,14,14,14,,,,,,,,,,,,,,,,,,,,,,,,,,,,,,,,,,,,,,,,,,None,,157.0133264800301,None,157.0133264800301,None,2022-04-21-12:16:29.463962,157.0234974999912,157.32971389987506,157.0234974999912,None,None,157.0234974999912,None,157.8309993799543,None,,,,22008,0001,2022_Apr_21_1213,localizer,2021.1.3,61.51135862216349,
block_end,scenes,scenes030.bmp,,,,,0,15,15,15,,,,,,,,,,,,,,,,,,,,,,,,,,,,,,,,,,,,,,,,,,None,,157.8309993799543,None,157.8309993799543,None,2022-04-21-12:16:30.283583,157.84370790002868,158.1462091000285,157.84370790002868,None,None,157.84370790002868,None,158.64666687997524,None,,,,22008,0001,2022_Apr_21_1213,localizer,2021.1.3,61.51135862216349,
block_start,objects,objects076.bmp,,,,,0,16,16,16,,,,,,,,,,,,,,,,,,,,,,,,,,,,,,,,,,,,,,,,,,t,1.743678100174293,158.64637269987725,None,158.64637269987725,None,2022-04-21-12:16:32.865498,160.4254093999043,160.72970609995537,160.4254093999043,None,None,160.4254093999043,None,161.2299224799266,None,,,,22008,0001,2022_Apr_21_1213,localizer,2021.1.3,61.51135862216349,
block,objects,objects044.bmp,,,,,0,17,17,17,,,,,,,,,,,,,,,,,,,,,,,,,,,,,,,,,,,,,,,,,,None,,161.2299224799266,None,161.2299224799266,None,2022-04-21-12:16:33.680726,161.23576919990592,161.54602389992215,161.23576919990592,None,None,161.23576919990592,None,162.04639847993386,None,,,,22008,0001,2022_Apr_21_1213,localizer,2021.1.3,61.51135862216349,
block,objects,objects009.bmp,,,,,0,18,18,18,,,,,,,,,,,,,,,,,,,,,,,,,,,,,,,,,,,,,,,,,,None,,162.04639847993386,None,162.04639847993386,None,2022-04-21-12:16:34.497767,162.05622829985805,162.36251929984428,162.05622829985805,None,None,162.05622829985805,None,162.86319677995053,None,,,,22008,0001,2022_Apr_21_1213,localizer,2021.1.3,61.51135862216349,
block,objects,objects058.bmp,,,,,0,19,19,19,,,,,,,,,,,,,,,,,,,,,,,,,,,,,,,,,,,,,,,,,,None,,162.86319677995053,None,162.86319677995053,None,2022-04-21-12:16:35.314003,162.87316489988007,163.17965730000287,162.87316489988007,None,None,162.87316489988007,None,163.67982807985973,None,,,,22008,0001,2022_Apr_21_1213,localizer,2021.1.3,61.51135862216349,
block,objects,objects010.bmp,,,,,0,20,20,20,,,,,,,,,,,,,,,,,,,,,,,,,,,,,,,,,,,,,,,,,,None,,163.67982807985973,None,163.67982807985973,None,2022-04-21-12:16:36.130854,163.68983269995078,163.99693159991875,163.68983269995078,None,None,163.68983269995078,None,164.49616467996967,None,,,,22008,0001,2022_Apr_21_1213,localizer,2021.1.3,61.51135862216349,
block,objects,objects041.bmp,,,,,0,21,21,21,,,,,,,,,,,,,,,,,,,,,,,,,,,,,,,,,,,,,,,,,,None,,164.49616467996967,None,164.49616467996967,None,2022-04-21-12:16:36.947048,164.5046099999454,164.81286379997618,164.5046099999454,None,None,164.5046099999454,None,165.31304797993508,None,,,,22008,0001,2022_Apr_21_1213,localizer,2021.1.3,61.51135862216349,
block,objects,objects067.bmp,,,,,0,22,22,22,,,,,,,,,,,,,,,,,,,,,,,,,,,,,,,,,,,,,,,,,,None,,165.31304797993508,None,165.31304797993508,None,2022-04-21-12:16:37.764417,165.32322139991447,165.62947339983657,165.32322139991447,None,None,165.32322139991447,None,166.12966897988227,None,,,,22008,0001,2022_Apr_21_1213,localizer,2021.1.3,61.51135862216349,
block,objects,objects048.bmp,,,,,0,23,23,23,,,,,,,,,,,,,,,,,,,,,,,,,,,,,,,,,,,,,,,,,,None,,166.12966897988227,None,166.12966897988227,None,2022-04-21-12:16:38.580480,166.13782099983655,166.45283219986595,166.13782099983655,None,None,166.13782099983655,None,166.94615337995347,None,,,,22008,0001,2022_Apr_21_1213,localizer,2021.1.3,61.51135862216349,
block,objects,objects061.bmp,,,,,0,24,24,24,,,,,,,,,,,,,,,,,,,,,,,,,,,,,,,,,,,,,,,,,,None,,166.94615337995347,None,166.94615337995347,None,2022-04-21-12:16:39.396961,166.95453440002166,167.2628635999281,166.95453440002166,None,None,166.95453440002166,None,167.7629315799335,None,,,,22008,0001,2022_Apr_21_1213,localizer,2021.1.3,61.51135862216349,
block,objects,objects016.bmp,,,,,0,25,25,25,,,,,,,,,,,,,,,,,,,,,,,,,,,,,,,,,,,,,,,,,,None,,167.7629315799335,None,167.7629315799335,None,2022-04-21-12:16:40.214002,167.7678533999715,168.07991810003296,167.7678533999715,None,None,167.7678533999715,None,168.5796677800594,None,,,,22008,0001,2022_Apr_21_1213,localizer,2021.1.3,61.51135862216349,
block,objects,objects053.bmp,,,,,0,26,26,26,,,,,,,,,,,,,,,,,,,,,,,,,,,,,,,,,,,,,,,,,,None,,168.5796677800594,None,168.5796677800594,None,2022-04-21-12:16:41.030478,168.5876046998892,168.89622939983383,168.5876046998892,None,None,168.5876046998892,None,169.39645977991168,None,,,,22008,0001,2022_Apr_21_1213,localizer,2021.1.3,61.51135862216349,
block,objects,objects027.bmp,,,,,0,27,27,27,,,,,,,,,,,,,,,,,,,,,,,,,,,,,,,,,,,,,,,,,,None,,169.39645977991168,None,169.39645977991168,None,2022-04-21-12:16:41.847270,169.40472520003095,169.7133611999452,169.40472520003095,None,None,169.40472520003095,None,170.2138656798983,None,,,,22008,0001,2022_Apr_21_1213,localizer,2021.1.3,61.51135862216349,
block,objects,objects057.bmp,,,,,0,28,28,28,,,,,,,,,,,,,,,,,,,,,,,,,,,,,,,,,,,,,,,,,,None,,170.2138656798983,None,170.2138656798983,None,2022-04-21-12:16:42.665852,170.22528239991516,170.52950339997187,170.22528239991516,None,None,170.22528239991516,None,171.03051637995523,None,,,,22008,0001,2022_Apr_21_1213,localizer,2021.1.3,61.51135862216349,
block,objects,objects011.bmp,,,,,0,29,29,29,,,,,,,,,,,,,,,,,,,,,,,,,,,,,,,,,,,,,,,,,,None,,171.03051637995523,None,171.03051637995523,None,2022-04-21-12:16:43.482290,171.04185609985143,171.3464476999361,171.04185609985143,None,None,171.04185609985143,None,171.84713107997086,None,,,,22008,0001,2022_Apr_21_1213,localizer,2021.1.3,61.51135862216349,
block_end,objects,objects063.bmp,,,,,0,30,30,30,,,,,,,,,,,,,,,,,,,,,,,,,,,,,,,,,,,,,,,,,,None,,171.84713107997086,None,171.84713107997086,None,2022-04-21-12:16:44.299117,171.8584719998762,172.16300069983117,171.8584719998762,None,None,171.8584719998762,None,172.66333737990354,None,,,,22008,0001,2022_Apr_21_1213,localizer,2021.1.3,61.51135862216349,
block_start,faces,faces044.bmp,,,,,0,31,31,31,,,,,,,,,,,,,,,,,,,,,,,,,,,,,,,,,,,,,,,,,,t,1.7270983001217246,172.66309659997933,None,172.66309659997933,None,2022-04-21-12:16:46.870744,174.42906780005433,174.72974730003625,174.42906780005433,None,None,174.42906780005433,None,175.23017227996607,None,,,,22008,0001,2022_Apr_21_1213,localizer,2021.1.3,61.51135862216349,
block,faces,faces061.bmp,,,,,0,32,32,32,,,,,,,,,,,,,,,,,,,,,,,,,,,,,,,,,,,,,,,,,,None,,175.23017227996607,None,175.23017227996607,None,2022-04-21-12:16:47.681174,175.2429277000483,175.54628459992819,175.2429277000483,None,None,175.2429277000483,None,176.0464366799919,None,,,,22008,0001,2022_Apr_21_1213,localizer,2021.1.3,61.51135862216349,
block,faces,faces071.bmp,,,,,0,33,33,33,,,,,,,,,,,,,,,,,,,,,,,,,,,,,,,,,,,,,,,,,,None,,176.0464366799919,None,176.0464366799919,None,2022-04-21-12:16:48.497244,176.05629580002278,176.36272930004634,176.05629580002278,None,None,176.05629580002278,None,176.86327198005748,None,,,,22008,0001,2022_Apr_21_1213,localizer,2021.1.3,61.51135862216349,
block,faces,faces012.bmp,,,,,0,34,34,34,,,,,,,,,,,,,,,,,,,,,,,,,,,,,,,,,,,,,,,,,,None,,176.86327198005748,None,176.86327198005748,None,2022-04-21-12:16:49.314077,176.87319920002483,177.17975519993342,176.87319920002483,None,None,176.87319920002483,None,177.67990928001237,None,,,,22008,0001,2022_Apr_21_1213,localizer,2021.1.3,61.51135862216349,
block,faces,faces065.bmp,,,,,0,35,35,35,,,,,,,,,,,,,,,,,,,,,,,,,,,,,,,,,,,,,,,,,,None,,177.67990928001237,None,177.67990928001237,None,2022-04-21-12:16:50.130525,177.69783620000817,177.99656690005213,177.69783620000817,None,None,177.69783620000817,None,178.49642068005633,None,,,,22008,0001,2022_Apr_21_1213,localizer,2021.1.3,61.51135862216349,
block,faces,faces035.bmp,,,,,0,36,36,36,,,,,,,,,,,,,,,,,,,,,,,,,,,,,,,,,,,,,,,,,,None,,178.49642068005633,None,178.49642068005633,None,2022-04-21-12:16:50.947228,178.5069921000395,178.8129926000256,178.5069921000395,None,None,178.5069921000395,None,179.31336298000534,None,,,,22008,0001,2022_Apr_21_1213,localizer,2021.1.3,61.51135862216349,
block,faces,faces025.bmp,,,,,0,37,37,37,,,,,,,,,,,,,,,,,,,,,,,,,,,,,,,,,,,,,,,,,,None,,179.31336298000534,None,179.31336298000534,None,2022-04-21-12:16:51.764160,179.31899519986473,179.62953849998303,179.31899519986473,None,None,179.31899519986473,None,180.12995168005583,None,,,,22008,0001,2022_Apr_21_1213,localizer,2021.1.3,61.51135862216349,
block,faces,faces046.bmp,,,,,0,38,38,38,,,,,,,,,,,,,,,,,,,,,,,,,,,,,,,,,,,,,,,,,,None,,180.12995168005583,None,180.12995168005583,None,2022-04-21-12:16:52.581238,180.1427190999966,180.4462541998364,180.1427190999966,None,None,180.1427190999966,None,180.9466158798663,None,,,,22008,0001,2022_Apr_21_1213,localizer,2021.1.3,61.51135862216349,
block,faces,faces074.bmp,,,,,0,39,39,39,,,,,,,,,,,,,,,,,,,,,,,,,,,,,,,,,,,,,,,,,,None,,180.9466158798663,None,180.9466158798663,None,2022-04-21-12:16:53.397608,180.9547510999255,181.26311399997212,180.9547510999255,None,None,180.9547510999255,None,181.76541167984252,None,,,,22008,0001,2022_Apr_21_1213,localizer,2021.1.3,61.51135862216349,
block,faces,faces055.bmp,,,,,0,40,40,40,,,,,,,,,,,,,,,,,,,,,,,,,,,,,,,,,,,,,,,,,,None,,181.76541167984252,None,181.76541167984252,None,2022-04-21-12:16:54.219230,181.78057369985618,182.07995899999514,181.78057369985618,None,None,181.78057369985618,None,182.57986857995857,None,,,,22008,0001,2022_Apr_21_1213,localizer,2021.1.3,61.51135862216349,
block,faces,faces066.bmp,,,,,0,41,41,41,,,,,,,,,,,,,,,,,,,,,,,,,,,,,,,,,,,,,,,,,,None,,182.57986857995857,None,182.57986857995857,None,2022-04-21-12:16:55.030898,182.58973909984343,182.89627929986455,182.58973909984343,None,None,182.58973909984343,None,183.39649707984645,None,,,,22008,0001,2022_Apr_21_1213,localizer,2021.1.3,61.51135862216349,
block,faces,faces080.bmp,,,,,0,42,42,42,,,,,,,,,,,,,,,,,,,,,,,,,,,,,,,,,,,,,,,,,,None,,183.39649707984645,None,183.39649707984645,None,2022-04-21-12:16:55.847307,183.4084679998923,183.71341309999116,183.4084679998923,None,None,183.4084679998923,None,184.21315308006015,None,,,,22008,0001,2022_Apr_21_1213,localizer,2021.1.3,61.51135862216349,
block,faces,faces084.bmp,,,,,0,43,43,43,,,,,,,,,,,,,,,,,,,,,,,,,,,,,,,,,,,,,,,,,,None,,184.21315308006015,None,184.21315308006015,None,2022-04-21-12:16:56.663956,184.223454099847,184.53038869984448,184.223454099847,None,None,184.223454099847,None,185.0305648799753,None,,,,22008,0001,2022_Apr_21_1213,localizer,2021.1.3,61.51135862216349,
block,faces,faces064.bmp,,,,,0,44,44,44,,,,,,,,,,,,,,,,,,,,,,,,,,,,,,,,,,,,,,,,,,None,,185.0305648799753,None,185.0305648799753,None,2022-04-21-12:16:57.482355,185.04207620001398,185.34624299989082,185.04207620001398,None,None,185.04207620001398,None,185.84650677999016,None,,,,22008,0001,2022_Apr_21_1213,localizer,2021.1.3,61.51135862216349,
block_end,faces,faces021.bmp,,,,,0,45,45,45,,,,,,,,,,,,,,,,,,,,,,,,,,,,,,,,,,,,,,,,,,None,,185.84650677999016,None,185.84650677999016,None,2022-04-21-12:16:58.297534,185.85852409992367,186.16292189992964,185.85852409992367,None,None,185.85852409992367,None,186.66305737986696,None,,,,22008,0001,2022_Apr_21_1213,localizer,2021.1.3,61.51135862216349,
block_start,scrambled,scrambled076.bmp,,,,,0,46,46,46,,,,,,,,,,,,,,,,,,,,,,,,,,,,,,,,,,,,,,,,,,t,1.7270373001229018,186.662967100041,None,186.662967100041,None,2022-04-21-12:17:00.871924,188.43282860005274,188.74627109989524,188.43282860005274,None,None,188.43282860005274,None,189.23113477996085,None,,,,22008,0001,2022_Apr_21_1213,localizer,2021.1.3,61.51135862216349,
block,scrambled,scrambled036.bmp,,,,,0,47,47,47,,,,,,,,,,,,,,,,,,,,,,,,,,,,,,,,,,,,,,,,,,None,,189.23113477996085,None,189.23113477996085,None,2022-04-21-12:17:01.684099,189.24434149987064,189.54747479991056,189.24434149987064,None,None,189.24434149987064,None,190.0474125798559,None,,,,22008,0001,2022_Apr_21_1213,localizer,2021.1.3,61.51135862216349,
block,scrambled,scrambled073.bmp,,,,,0,48,48,48,,,,,,,,,,,,,,,,,,,,,,,,,,,,,,,,,,,,,,,,,,None,,190.0474125798559,None,190.0474125798559,None,2022-04-21-12:17:02.499185,190.05417499993928,190.3631207998842,190.05417499993928,None,None,190.05417499993928,None,190.86334257989657,None,,,,22008,0001,2022_Apr_21_1213,localizer,2021.1.3,61.51135862216349,
block,scrambled,scrambled075.bmp,,,,,0,49,49,49,,,,,,,,,,,,,,,,,,,,,,,,,,,,,,,,,,,,,,,,,,None,,190.86334257989657,None,190.86334257989657,None,2022-04-21-12:17:03.314150,190.87298059999011,191.17946869996376,190.87298059999011,None,None,190.87298059999011,None,191.680026679975,None,,,,22008,0001,2022_Apr_21_1213,localizer,2021.1.3,61.51135862216349,
block,scrambled,scrambled077.bmp,,,,,0,50,50,50,,,,,,,,,,,,,,,,,,,,,,,,,,,,,,,,,,,,,,,,,,None,,191.680026679975,None,191.680026679975,None,2022-04-21-12:17:04.130830,191.6897628000006,191.99640619987622,191.6897628000006,None,None,191.6897628000006,None,192.49677707997617,None,,,,22008,0001,2022_Apr_21_1213,localizer,2021.1.3,61.51135862216349,
block,scrambled,scrambled087.bmp,,,,,0,51,51,51,,,,,,,,,,,,,,,,,,,,,,,,,,,,,,,,,,,,,,,,,,None,,192.49677707997617,None,192.49677707997617,None,2022-04-21-12:17:04.947590,192.50569220003672,192.8130872999318,192.50569220003672,None,None,192.50569220003672,None,193.31329208004755,None,,,,22008,0001,2022_Apr_21_1213,localizer,2021.1.3,61.51135862216349,
block,scrambled,scrambled054.bmp,,,,,0,52,52,52,,,,,,,,,,,,,,,,,,,,,,,,,,,,,,,,,,,,,,,,,,None,,193.31329208004755,None,193.31329208004755,None,2022-04-21-12:17:05.764097,193.32275429996662,193.62969930004328,193.32275429996662,None,None,193.32275429996662,None,194.13026047984604,None,,,,22008,0001,2022_Apr_21_1213,localizer,2021.1.3,61.51135862216349,
block,scrambled,scrambled029.bmp,,,,,0,53,53,53,,,,,,,,,,,,,,,,,,,,,,,,,,,,,,,,,,,,,,,,,,None,,194.13026047984604,None,194.13026047984604,None,2022-04-21-12:17:06.581060,194.13976199994795,194.44606309989467,194.13976199994795,None,None,194.13976199994795,None,194.9464342798805,None,,,,22008,0001,2022_Apr_21_1213,localizer,2021.1.3,61.51135862216349,
block,scrambled,scrambled040.bmp,,,,,0,54,54,54,,,,,,,,,,,,,,,,,,,,,,,,,,,,,,,,,,,,,,,,,,None,,194.9464342798805,None,194.9464342798805,None,2022-04-21-12:17:07.397349,194.95451539987698,195.2633928998839,194.95451539987698,None,None,194.95451539987698,None,195.76359577986878,None,,,,22008,0001,2022_Apr_21_1213,localizer,2021.1.3,61.51135862216349,
block,scrambled,scrambled079.bmp,,,,,0,55,55,55,,,,,,,,,,,,,,,,,,,,,,,,,,,,,,,,,,,,,,,,,,None,,195.76359577986878,None,195.76359577986878,None,2022-04-21-12:17:08.214609,195.77327669993974,196.08046759990975,195.77327669993974,None,None,195.77327669993974,None,196.58063437996898,None,,,,22008,0001,2022_Apr_21_1213,localizer,2021.1.3,61.51135862216349,
block,scrambled,scrambled072.bmp,,,,,0,56,56,56,,,,,,,,,,,,,,,,,,,,,,,,,,,,,,,,,,,,,,,,,,None,,196.58063437996898,None,196.58063437996898,None,2022-04-21-12:17:09.032507,196.59210909996182,196.89620249997824,196.59210909996182,None,None,196.59210909996182,None,197.39624537990895,None,,,,22008,0001,2022_Apr_21_1213,localizer,2021.1.3,61.51135862216349,
block,scrambled,scrambled041.bmp,,,,,0,57,57,57,,,,,,,,,,,,,,,,,,,,,,,,,,,,,,,,,,,,,,,,,,None,,197.39624537990895,None,197.39624537990895,None,2022-04-21-12:17:09.847052,197.40504319989122,197.71320270001888,197.40504319989122,None,None,197.40504319989122,None,198.21341567996424,None,,,,22008,0001,2022_Apr_21_1213,localizer,2021.1.3,61.51135862216349,
block,scrambled,scrambled015.bmp,,,,,0,58,58,58,,,,,,,,,,,,,,,,,,,,,,,,,,,,,,,,,,,,,,,,,,None,,198.21341567996424,None,198.21341567996424,None,2022-04-21-12:17:10.664222,198.22306540003046,198.53049100004137,198.22306540003046,None,None,198.22306540003046,None,199.03069748005365,None,,,,22008,0001,2022_Apr_21_1213,localizer,2021.1.3,61.51135862216349,
block,scrambled,scrambled018.bmp,,,,,0,59,59,59,,,,,,,,,,,,,,,,,,,,,,,,,,,,,,,,,,,,,,,,,,None,,199.03069748005365,None,199.03069748005365,None,2022-04-21-12:17:11.482489,199.03747570002452,199.34634099993855,199.03747570002452,None,None,199.03747570002452,None,199.84691887998488,None,,,,22008,0001,2022_Apr_21_1213,localizer,2021.1.3,61.51135862216349,
block_end,scrambled,scrambled018.bmp,,,,,0,60,60,60,,,,,,,,,,,,,,,,,,,,,,,,,,,,,,,,,,,,,,,,,,None,,199.84691887998488,None,199.84691887998488,None,2022-04-21-12:17:12.297774,199.84751300001517,200.14664239995182,199.84751300001517,None,y,199.84751300001517,None,200.64660997989122,None,0.6124519999139011,,,22008,0001,2022_Apr_21_1213,localizer,2021.1.3,61.51135862216349,
null_block,null_block,null_block.bmp,,,,,0,61,61,61,,,,,,,,,,,,,,,,,,,,,,,,,,,,,,,,,,,,,,,,,,t,1.743674100143835,200.64609579998069,None,200.64609579998069,None,2022-04-21-12:17:14.862370,202.41331068004948,None,202.41331068004948,None,None,202.41331068004948,None,202.41442739986815,None,,,,22008,0001,2022_Apr_21_1213,localizer,2021.1.3,61.51135862216349,
block_start,scenes,scenes012.bmp,,,,,0,62,62,62,,,,,,,,,,,,,,,,,,,,,,,,,,,,,,,,,,,,,,,,,,t,1.9766327999532223,214.4130581000354,None,214.4130581000354,None,2022-04-21-12:17:28.865131,216.41409730003215,216.71315279998817,216.41409730003215,None,None,216.41409730003215,None,217.21483577995096,None,,,,22008,0001,2022_Apr_21_1213,localizer,2021.1.3,61.51135862216349,
block,scenes,scenes040.bmp,,,,,0,63,63,63,,,,,,,,,,,,,,,,,,,,,,,,,,,,,,,,,,,,,,,,,,None,,217.21483577995096,None,217.21483577995096,None,2022-04-21-12:17:29.671791,217.23201929987408,217.5464433999732,217.23201929987408,217.23201929987408,None,217.23201929987408,217.23201929987408,218.03014357991051,None,,,,22008,0001,2022_Apr_21_1213,localizer,2021.1.3,61.51135862216349,
block,scenes,scenes015.bmp,,,,,0,64,64,64,,,,,,,,,,,,,,,,,,,,,,,,,,,,,,,,,,,,,,,,,,None,,218.03014357991051,None,218.03014357991051,None,2022-04-21-12:17:30.481173,218.04125769995153,218.34644680004567,218.04125769995153,None,None,218.04125769995153,None,218.84689817994368,None,,,,22008,0001,2022_Apr_21_1213,localizer,2021.1.3,61.51135862216349,
block,scenes,scenes052.bmp,,,,,0,65,65,65,,,,,,,,,,,,,,,,,,,,,,,,,,,,,,,,,,,,,,,,,,None,,218.84689817994368,None,218.84689817994368,None,2022-04-21-12:17:31.298697,218.8577250998933,219.16297469986603,218.8577250998933,None,None,218.8577250998933,None,219.6636272798991,None,,,,22008,0001,2022_Apr_21_1213,localizer,2021.1.3,61.51135862216349,
block,scenes,scenes036.bmp,,,,,0,66,66,66,,,,,,,,,,,,,,,,,,,,,,,,,,,,,,,,,,,,,,,,,,None,,219.6636272798991,None,219.6636272798991,None,2022-04-21-12:17:32.114636,219.67346479999833,219.9796011999715,219.67346479999833,None,None,219.67346479999833,None,220.48005277987104,None,,,,22008,0001,2022_Apr_21_1213,localizer,2021.1.3,61.51135862216349,
block,scenes,scenes035.bmp,,,,,0,67,67,67,,,,,,,,,,,,,,,,,,,,,,,,,,,,,,,,,,,,,,,,,,None,,220.48005277987104,None,220.48005277987104,None,2022-04-21-12:17:32.930859,220.48091130005196,220.7799314998556,220.48091130005196,None,None,220.48091130005196,None,221.28003117998597,None,,,,22008,0001,2022_Apr_21_1213,localizer,2021.1.3,61.51135862216349,
block,scenes,scenes009.bmp,,,,,0,68,68,68,,,,,,,,,,,,,,,,,,,,,,,,,,,,,,,,,,,,,,,,,,None,,221.28003117998597,None,221.28003117998597,None,2022-04-21-12:17:33.731835,221.28987059998326,221.59643819998018,221.28987059998326,221.28987059998326,None,221.28987059998326,221.28987059998326,222.0968171800254,None,,,,22008,0001,2022_Apr_21_1213,localizer,2021.1.3,61.51135862216349,
block,scenes,scenes081.bmp,,,,,0,69,69,69,,,,,,,,,,,,,,,,,,,,,,,,,,,,,,,,,,,,,,,,,,None,,222.0968171800254,None,222.0968171800254,None,2022-04-21-12:17:34.548045,222.1077483999543,222.4138698000461,222.1077483999543,None,None,222.1077483999543,None,222.91344478002284,None,,,,22008,0001,2022_Apr_21_1213,localizer,2021.1.3,61.51135862216349,
block,scenes,scenes031.bmp,,,,,0,70,70,70,,,,,,,,,,,,,,,,,,,,,,,,,,,,,,,,,,,,,,,,,,None,,222.91344478002284,None,222.91344478002284,None,2022-04-21-12:17:35.364254,222.91403259988874,223.21323579992168,222.91403259988874,None,None,222.91403259988874,None,223.7131901799934,None,,,,22008,0001,2022_Apr_21_1213,localizer,2021.1.3,61.51135862216349,
block,scenes,scenes089.bmp,,,,,0,71,71,71,,,,,,,,,,,,,,,,,,,,,,,,,,,,,,,,,,,,,,,,,,None,,223.7131901799934,None,223.7131901799934,None,2022-04-21-12:17:36.164994,223.72332290001214,224.03009779984131,223.72332290001214,223.72332290001214,None,223.72332290001214,223.72332290001214,224.52997117999476,None,,,,22008,0001,2022_Apr_21_1213,localizer,2021.1.3,61.51135862216349,
block,scenes,scenes007.bmp,,,,,0,72,72,72,,,,,,,,,,,,,,,,,,,,,,,,,,,,,,,,,,,,,,,,,,None,,224.52997117999476,None,224.52997117999476,None,2022-04-21-12:17:36.980778,224.54559669992886,224.84630299988203,224.54559669992886,None,None,224.54559669992886,None,225.34715418003034,None,,,,22008,0001,2022_Apr_21_1213,localizer,2021.1.3,61.51135862216349,
block,scenes,scenes028.bmp,,,,,0,73,73,73,,,,,,,,,,,,,,,,,,,,,,,,,,,,,,,,,,,,,,,,,,None,,225.34715418003034,None,225.34715418003034,None,2022-04-21-12:17:37.798951,225.3579506999813,225.66317799990065,225.3579506999813,None,None,225.3579506999813,None,226.16361008000095,None,,,,22008,0001,2022_Apr_21_1213,localizer,2021.1.3,61.51135862216349,
block,scenes,scenes026.bmp,,,,,0,74,74,74,,,,,,,,,,,,,,,,,,,,,,,,,,,,,,,,,,,,,,,,,,None,,226.16361008000095,None,226.16361008000095,None,2022-04-21-12:17:38.614414,226.1754995000083,226.47969039995223,226.1754995000083,None,None,226.1754995000083,None,226.98026717987378,None,,,,22008,0001,2022_Apr_21_1213,localizer,2021.1.3,61.51135862216349,
block,scenes,scenes030.bmp,,,,,0,75,75,75,,,,,,,,,,,,,,,,,,,,,,,,,,,,,,,,,,,,,,,,,,None,,226.98026717987378,None,226.98026717987378,None,2022-04-21-12:17:39.431206,226.9809191999957,227.28012509993277,226.9809191999957,None,None,226.9809191999957,None,227.78033927988727,None,,,,22008,0001,2022_Apr_21_1213,localizer,2021.1.3,61.51135862216349,
block_end,scenes,scenes083.bmp,,,,,0,76,76,76,,,,,,,,,,,,,,,,,,,,,,,,,,,,,,,,,,,,,,,,,,None,,227.78033927988727,None,227.78033927988727,None,2022-04-21-12:17:40.233137,227.7827035000082,228.09655599994585,227.7827035000082,227.7827035000082,None,227.7827035000082,227.7827035000082,228.5969751798315,None,,,,22008,0001,2022_Apr_21_1213,localizer,2021.1.3,61.51135862216349,
block_start,objects,objects041.bmp,,,,,0,77,77,77,,,,,,,,,,,,,,,,,,,,,,,,,,,,,,,,,,,,,,,,,,t,1.7931807001587003,228.59654299984686,None,228.59654299984686,None,2022-04-21-12:17:42.867792,230.41754599986598,230.73075170000084,230.41754599986598,None,None,230.41754599986598,None,231.22987047999632,None,,,,22008,0001,2022_Apr_21_1213,localizer,2021.1.3,61.51135862216349,
block,objects,objects020.bmp,,,,,0,78,78,78,,,,,,,,,,,,,,,,,,,,,,,,,,,,,,,,,,,,,,,,,,None,,231.22987047999632,None,231.22987047999632,None,2022-04-21-12:17:43.680681,231.23794779996388,231.546450200025,231.23794779996388,None,None,231.23794779996388,None,232.0469926800346,None,,,,22008,0001,2022_Apr_21_1213,localizer,2021.1.3,61.51135862216349,
block,objects,objects016.bmp,,,,,0,79,79,79,,,,,,,,,,,,,,,,,,,,,,,,,,,,,,,,,,,,,,,,,,None,,232.0469926800346,None,232.0469926800346,None,2022-04-21-12:17:44.498013,232.04764999984764,232.34656980005093,232.04764999984764,None,None,232.04764999984764,None,232.84687137997244,None,,,,22008,0001,2022_Apr_21_1213,localizer,2021.1.3,61.51135862216349,
block,objects,objects085.bmp,,,,,0,80,80,80,,,,,,,,,,,,,,,,,,,,,,,,,,,,,,,,,,,,,,,,,,None,,232.84687137997244,None,232.84687137997244,None,2022-04-21-12:17:45.299673,232.85791829996742,233.1632795999758,232.85791829996742,232.85791829996742,None,232.85791829996742,232.85791829996742,233.6635219799122,None,,,,22008,0001,2022_Apr_21_1213,localizer,2021.1.3,61.51135862216349,
block,objects,objects062.bmp,,,,,0,81,81,81,,,,,,,,,,,,,,,,,,,,,,,,,,,,,,,,,,,,,,,,,,None,,233.6635219799122,None,233.6635219799122,None,2022-04-21-12:17:46.114547,233.67335109994747,233.9800684999209,233.67335109994747,None,None,233.67335109994747,None,234.4808055800153,None,,,,22008,0001,2022_Apr_21_1213,localizer,2021.1.3,61.51135862216349,
block,objects,objects051.bmp,,,,,0,82,82,82,,,,,,,,,,,,,,,,,,,,,,,,,,,,,,,,,,,,,,,,,,None,,234.4808055800153,None,234.4808055800153,None,2022-04-21-12:17:46.932790,234.4921819998417,234.79672549990937,234.4921819998417,None,None,234.4921819998417,None,235.2965634800261,None,,,,22008,0001,2022_Apr_21_1213,localizer,2021.1.3,61.51135862216349,
block,objects,objects013.bmp,,,,,0,83,83,83,,,,,,,,,,,,,,,,,,,,,,,,,,,,,,,,,,,,,,,,,,None,,235.2965634800261,None,235.2965634800261,None,2022-04-21-12:17:47.746376,235.30421869992279,235.6134366998449,235.30421869992279,None,None,235.30421869992279,None,236.11364227996674,None,,,,22008,0001,2022_Apr_21_1213,localizer,2021.1.3,61.51135862216349,
block,objects,objects087.bmp,,,,,0,84,84,84,,,,,,,,,,,,,,,,,,,,,,,,,,,,,,,,,,,,,,,,,,None,,236.11364227996674,None,236.11364227996674,None,2022-04-21-12:17:48.564446,236.12343329982832,236.42985129985027,236.12343329982832,None,None,236.12343329982832,None,236.92033197984566,None,,,,22008,0001,2022_Apr_21_1213,localizer,2021.1.3,61.51135862216349,
block,objects,objects040.bmp,,,,,0,85,85,85,,,,,,,,,,,,,,,,,,,,,,,,,,,,,,,,,,,,,,,,,,None,,236.92033197984566,None,236.92033197984566,None,2022-04-21-12:17:49.375089,236.9358848000411,237.24663259997033,236.9358848000411,None,None,236.9358848000411,None,237.73036328002345,None,,,,22008,0001,2022_Apr_21_1213,localizer,2021.1.3,61.51135862216349,
block,objects,objects042.bmp,,,,,0,86,86,86,,,,,,,,,,,,,,,,,,,,,,,,,,,,,,,,,,,,,,,,,,None,,237.73036328002345,None,237.73036328002345,None,2022-04-21-12:17:50.181166,237.7403949999716,238.0469204999972,237.7403949999716,None,None,237.7403949999716,None,238.54724467985798,None,,,,22008,0001,2022_Apr_21_1213,localizer,2021.1.3,61.51135862216349,
block,objects,objects033.bmp,,,,,0,87,87,87,,,,,,,,,,,,,,,,,,,,,,,,,,,,,,,,,,,,,,,,,,None,,238.54724467985798,None,238.54724467985798,None,2022-04-21-12:17:50.999239,238.5590494000353,238.86339519987814,238.5590494000353,None,None,238.5590494000353,None,239.36332237997559,None,,,,22008,0001,2022_Apr_21_1213,localizer,2021.1.3,61.51135862216349,
block,objects,objects033.bmp,,,,,0,88,88,88,,,,,,,,,,,,,,,,,,,,,,,,,,,,,,,,,,,,,,,,,,None,,239.36332237997559,None,239.36332237997559,None,2022-04-21-12:17:51.814402,239.36458639986813,239.67999370000325,239.36458639986813,None,None,239.36458639986813,None,240.16376948005055,None,,,,22008,0001,2022_Apr_21_1213,localizer,2021.1.3,61.51135862216349,
block,objects,objects063.bmp,,,,,0,89,89,89,,,,,,,,,,,,,,,,,,,,,,,,,,,,,,,,,,,,,,,,,,None,,240.16376948005055,None,240.16376948005055,None,2022-04-21-12:17:52.616568,240.16646069986746,240.48073409986682,240.16646069986746,240.16646069986746,None,240.16646069986746,240.16646069986746,240.98091117988807,None,,,,22008,0001,2022_Apr_21_1213,localizer,2021.1.3,61.51135862216349,
block,objects,objects029.bmp,,,,,0,90,90,90,,,,,,,,,,,,,,,,,,,,,,,,,,,,,,,,,,,,,,,,,,None,,240.98091117988807,None,240.98091117988807,None,2022-04-21-12:17:53.432703,240.99240459990688,241.29667719989084,240.99240459990688,None,None,240.99240459990688,None,241.79912457985338,None,,,,22008,0001,2022_Apr_21_1213,localizer,2021.1.3,61.51135862216349,
block_end,objects,objects069.bmp,,,,,0,91,91,91,,,,,,,,,,,,,,,,,,,,,,,,,,,,,,,,,,,,,,,,,,None,,241.79912457985338,None,241.79912457985338,None,2022-04-21-12:17:54.254926,241.81495100003667,242.13028489984572,241.81495100003667,None,None,241.81495100003667,None,242.61370687999298,None,,,,22008,0001,2022_Apr_21_1213,localizer,2021.1.3,61.51135862216349,
block_start,faces,faces067.bmp,,,,,0,92,92,92,,,,,,,,,,,,,,,,,,,,,,,,,,,,,,,,,,,,,,,,,,t,1.7763508998323232,242.61340150004253,None,242.61340150004253,None,2022-04-21-12:17:56.865434,244.42783279996365,244.73051419993863,244.42783279996365,None,None,244.42783279996365,None,245.23045248000417,None,,,,22008,0001,2022_Apr_21_1213,localizer,2021.1.3,61.51135862216349,
block,faces,faces002.bmp,,,,,0,93,93,93,,,,,,,,,,,,,,,,,,,,,,,,,,,,,,,,,,,,,,,,,,None,,245.23045248000417,None,245.23045248000417,None,2022-04-21-12:17:57.681500,245.24242080003023,245.54732250003144,245.24242080003023,None,None,245.24242080003023,None,246.04753767999355,None,,,,22008,0001,2022_Apr_21_1213,localizer,2021.1.3,61.51135862216349,
block,faces,faces022.bmp,,,,,0,94,94,94,,,,,,,,,,,,,,,,,,,,,,,,,,,,,,,,,,,,,,,,,,None,,246.04753767999355,None,246.04753767999355,None,2022-04-21-12:17:58.499412,246.06089839991182,246.36339730001055,246.06089839991182,None,None,246.06089839991182,None,246.8636767798802,None,,,,22008,0001,2022_Apr_21_1213,localizer,2021.1.3,61.51135862216349,
block,faces,faces020.bmp,,,,,0,95,95,95,,,,,,,,,,,,,,,,,,,,,,,,,,,,,,,,,,,,,,,,,,None,,246.8636767798802,None,246.8636767798802,None,2022-04-21-12:17:59.314482,246.87351439986378,247.18016680004075,246.87351439986378,None,None,246.87351439986378,None,247.68031607985031,None,,,,22008,0001,2022_Apr_21_1213,localizer,2021.1.3,61.51135862216349,
block,faces,faces026.bmp,,,,,0,96,96,96,,,,,,,,,,,,,,,,,,,,,,,,,,,,,,,,,,,,,,,,,,None,,247.68031607985031,None,247.68031607985031,None,2022-04-21-12:18:00.131342,247.71600809996016,248.02998319990002,247.71600809996016,None,None,247.71600809996016,None,248.49760577988346,None,,,,22008,0001,2022_Apr_21_1213,localizer,2021.1.3,61.51135862216349,
block,faces,faces038.bmp,,,,,0,97,97,97,,,,,,,,,,,,,,,,,,,,,,,,,,,,,,,,,,,,,,,,,,None,,248.49760577988346,None,248.49760577988346,None,2022-04-21-12:18:00.949593,248.51697240001522,248.8300309998449,248.51697240001522,None,None,248.51697240001522,None,249.31365737991874,None,,,,22008,0001,2022_Apr_21_1213,localizer,2021.1.3,61.51135862216349,
block,faces,faces045.bmp,,,,,0,98,98,98,,,,,,,,,,,,,,,,,,,,,,,,,,,,,,,,,,,,,,,,,,None,,249.31365737991874,None,249.31365737991874,None,2022-04-21-12:18:01.765001,249.32460169983096,249.63025849987753,249.32460169983096,None,None,249.32460169983096,None,250.13046477988829,None,,,,22008,0001,2022_Apr_21_1213,localizer,2021.1.3,61.51135862216349,
block,faces,faces054.bmp,,,,,0,99,99,99,,,,,,,,,,,,,,,,,,,,,,,,,,,,,,,,,,,,,,,,,,None,,250.13046477988829,None,250.13046477988829,None,2022-04-21-12:18:02.581273,250.14129309984855,250.44610009994358,250.14129309984855,None,None,250.14129309984855,None,250.93534457983915,None,,,,22008,0001,2022_Apr_21_1213,localizer,2021.1.3,61.51135862216349,
block,faces,faces031.bmp,,,,,0,100,100,100,,,,,,,,,,,,,,,,,,,,,,,,,,,,,,,,,,,,,,,,,,None,,250.93534457983915,None,250.93534457983915,None,2022-04-21-12:18:03.388144,250.9475497000385,251.24679369991645,250.9475497000385,None,None,250.9475497000385,None,251.74690417989623,None,,,,22008,0001,2022_Apr_21_1213,localizer,2021.1.3,61.51135862216349,
block,faces,faces075.bmp,,,,,0,101,101,101,,,,,,,,,,,,,,,,,,,,,,,,,,,,,,,,,,,,,,,,,,None,,251.74690417989623,None,251.74690417989623,None,2022-04-21-12:18:04.197712,251.75665330002084,252.0632996999193,251.75665330002084,None,None,251.75665330002084,None,252.56394787991886,None,,,,22008,0001,2022_Apr_21_1213,localizer,2021.1.3,61.51135862216349,
block,faces,faces005.bmp,,,,,0,102,102,102,,,,,,,,,,,,,,,,,,,,,,,,,,,,,,,,,,,,,,,,,,None,,252.56394787991886,None,252.56394787991886,None,2022-04-21-12:18:05.015939,252.57476369990036,252.88006279990077,252.57476369990036,None,None,252.57476369990036,None,253.38043797991705,None,,,,22008,0001,2022_Apr_21_1213,localizer,2021.1.3,61.51135862216349,
block,faces,faces003.bmp,,,,,0,103,103,103,,,,,,,,,,,,,,,,,,,,,,,,,,,,,,,,,,,,,,,,,,None,,253.38043797991705,None,253.38043797991705,None,2022-04-21-12:18:05.831241,253.39024510001764,253.69686489994638,253.39024510001764,None,None,253.39024510001764,None,254.19694927984384,None,,,,22008,0001,2022_Apr_21_1213,localizer,2021.1.3,61.51135862216349,
block,faces,faces010.bmp,,,,,0,104,104,104,,,,,,,,,,,,,,,,,,,,,,,,,,,,,,,,,,,,,,,,,,None,,254.19694927984384,None,254.19694927984384,None,2022-04-21-12:18:06.648019,254.20735169993713,254.5202349999454,254.20735169993713,None,None,254.20735169993713,None,255.01339747987222,None,,,,22008,0001,2022_Apr_21_1213,localizer,2021.1.3,61.51135862216349,
block,faces,faces086.bmp,,,,,0,105,105,105,,,,,,,,,,,,,,,,,,,,,,,,,,,,,,,,,,,,,,,,,,None,,255.01339747987222,None,255.01339747987222,None,2022-04-21-12:18:07.464203,255.02304849983193,255.33008420001715,255.02304849983193,None,None,255.02304849983193,None,255.83059328000527,None,,,,22008,0001,2022_Apr_21_1213,localizer,2021.1.3,61.51135862216349,
block_end,faces,faces044.bmp,,,,,0,106,106,106,,,,,,,,,,,,,,,,,,,,,,,,,,,,,,,,,,,,,,,,,,None,,255.83059328000527,None,255.83059328000527,None,2022-04-21-12:18:08.281871,255.83103049988858,256.12989340000786,255.83103049988858,None,None,255.83103049988858,None,256.6304630799917,None,,,,22008,0001,2022_Apr_21_1213,localizer,2021.1.3,61.51135862216349,
block_start,scrambled,scrambled087.bmp,,,,,0,107,107,107,,,,,,,,,,,,,,,,,,,,,,,,,,,,,,,,,,,,,,,,,,t,1.7599686000030488,256.6301501998678,None,256.6301501998678,None,2022-04-21-12:18:10.872827,258.4237764000427,258.73005210002884,258.4237764000427,None,None,258.4237764000427,None,259.23053907996507,None,,,,22008,0001,2022_Apr_21_1213,localizer,2021.1.3,61.51135862216349,
block,scrambled,scrambled059.bmp,,,,,0,108,108,108,,,,,,,,,,,,,,,,,,,,,,,,,,,,,,,,,,,,,,,,,,None,,259.23053907996507,None,259.23053907996507,None,2022-04-21-12:18:11.681759,259.2412775999401,259.5472128998954,259.2412775999401,None,None,259.2412775999401,None,260.04797877997623,None,,,,22008,0001,2022_Apr_21_1213,localizer,2021.1.3,61.51135862216349,
block,scrambled,scrambled057.bmp,,,,,0,109,109,109,,,,,,,,,,,,,,,,,,,,,,,,,,,,,,,,,,,,,,,,,,None,,260.04797877997623,None,260.04797877997623,None,2022-04-21-12:18:12.499765,260.055656200042,260.36371419997886,260.055656200042,None,None,260.055656200042,None,260.86377597993703,None,,,,22008,0001,2022_Apr_21_1213,localizer,2021.1.3,61.51135862216349,
block,scrambled,scrambled080.bmp,,,,,0,110,110,110,,,,,,,,,,,,,,,,,,,,,,,,,,,,,,,,,,,,,,,,,,None,,260.86377597993703,None,260.86377597993703,None,2022-04-21-12:18:13.314843,260.8740173999686,261.18144900002517,260.8740173999686,None,None,260.8740173999686,None,261.68091097983995,None,,,,22008,0001,2022_Apr_21_1213,localizer,2021.1.3,61.51135862216349,
block,scrambled,scrambled053.bmp,,,,,0,111,111,111,,,,,,,,,,,,,,,,,,,,,,,,,,,,,,,,,,,,,,,,,,None,,261.68091097983995,None,261.68091097983995,None,2022-04-21-12:18:14.132706,261.69139939988963,261.9968638999853,261.69139939988963,None,None,261.69139939988963,None,262.49777157998176,None,,,,22008,0001,2022_Apr_21_1213,localizer,2021.1.3,61.51135862216349,
block,scrambled,scrambled084.bmp,,,,,0,112,112,112,,,,,,,,,,,,,,,,,,,,,,,,,,,,,,,,,,,,,,,,,,None,,262.49777157998176,None,262.49777157998176,None,2022-04-21-12:18:14.949602,262.5109288999811,262.8138639999088,262.5109288999811,None,None,262.5109288999811,None,263.3141595800174,None,,,,22008,0001,2022_Apr_21_1213,localizer,2021.1.3,61.51135862216349,
block,scrambled,scrambled049.bmp,,,,,0,113,113,113,,,,,,,,,,,,,,,,,,,,,,,,,,,,,,,,,,,,,,,,,,None,,263.3141595800174,None,263.3141595800174,None,2022-04-21-12:18:15.764960,263.32025519991294,263.63016099995,263.32025519991294,None,None,263.32025519991294,None,264.12032717999534,None,,,,22008,0001,2022_Apr_21_1213,localizer,2021.1.3,61.51135862216349,
block,scrambled,scrambled064.bmp,,,,,0,114,114,114,,,,,,,,,,,,,,,,,,,,,,,,,,,,,,,,,,,,,,,,,,None,,264.12032717999534,None,264.12032717999534,None,2022-04-21-12:18:16.576850,264.1323666998651,264.4473496999126,264.1323666998651,None,None,264.1323666998651,None,264.93030557988675,None,,,,22008,0001,2022_Apr_21_1213,localizer,2021.1.3,61.51135862216349,
block,scrambled,scrambled002.bmp,,,,,0,115,115,115,,,,,,,,,,,,,,,,,,,,,,,,,,,,,,,,,,,,,,,,,,None,,264.93030557988675,None,264.93030557988675,None,2022-04-21-12:18:17.381288,264.940736199962,265.24684569984674,264.940736199962,None,None,264.940736199962,None,265.74729867998974,None,,,,22008,0001,2022_Apr_21_1213,localizer,2021.1.3,61.51135862216349,
block,scrambled,scrambled026.bmp,,,,,0,116,116,116,,,,,,,,,,,,,,,,,,,,,,,,,,,,,,,,,,,,,,,,,,None,,265.74729867998974,None,265.74729867998974,None,2022-04-21-12:18:18.198321,265.75734180002473,266.06333169993013,265.75734180002473,None,None,265.75734180002473,None,266.5638123799348,None,,,,22008,0001,2022_Apr_21_1213,localizer,2021.1.3,61.51135862216349,
block,scrambled,scrambled030.bmp,,,,,0,117,117,117,,,,,,,,,,,,,,,,,,,,,,,,,,,,,,,,,,,,,,,,,,None,,266.5638123799348,None,266.5638123799348,None,2022-04-21-12:18:19.014758,266.5731178999413,266.8801770999562,266.5731178999413,None,None,266.5731178999413,None,267.3803057798417,None,,,,22008,0001,2022_Apr_21_1213,localizer,2021.1.3,61.51135862216349,
block,scrambled,scrambled016.bmp,,,,,0,118,118,118,,,,,,,,,,,,,,,,,,,,,,,,,,,,,,,,,,,,,,,,,,None,,267.3803057798417,None,267.3803057798417,None,2022-04-21-12:18:19.831342,267.3902567999903,267.6972953998484,267.3902567999903,None,None,267.3902567999903,None,268.1976326799253,None,,,,22008,0001,2022_Apr_21_1213,localizer,2021.1.3,61.51135862216349,
block,scrambled,scrambled088.bmp,,,,,0,119,119,119,,,,,,,,,,,,,,,,,,,,,,,,,,,,,,,,,,,,,,,,,,None,,268.1976326799253,None,268.1976326799253,None,2022-04-21-12:18:20.648431,268.2092699999921,268.5139384998474,268.2092699999921,None,None,268.2092699999921,None,269.0136776799103,None,,,,22008,0001,2022_Apr_21_1213,localizer,2021.1.3,61.51135862216349,
block,scrambled,scrambled083.bmp,,,,,0,120,120,120,,,,,,,,,,,,,,,,,,,,,,,,,,,,,,,,,,,,,,,,,,None,,269.0136776799103,None,269.0136776799103,None,2022-04-21-12:18:21.464487,269.0219963998534,269.3304267998319,269.0219963998534,None,None,269.0219963998534,None,269.8310748799471,None,,,,22008,0001,2022_Apr_21_1213,localizer,2021.1.3,61.51135862216349,
block_end,scrambled,scrambled041.bmp,,,,,0,121,121,121,,,,,,,,,,,,,,,,,,,,,,,,,,,,,,,,,,,,,,,,,,None,,269.8310748799471,None,269.8310748799471,None,2022-04-21-12:18:22.282870,269.8313406999223,270.1469147000462,269.8313406999223,None,None,269.8313406999223,None,270.6307407798944,None,,,,22008,0001,2022_Apr_21_1213,localizer,2021.1.3,61.51135862216349,
block_start,faces,faces021.bmp,,,,,0,122,122,122,,,,,,,,,,,,,,,,,,,,,,,,,,,,,,,,,,,,,,,,,,t,1.7593280000146478,270.63040519994684,None,270.63040519994684,None,2022-04-21-12:18:24.868231,272.424205099931,272.7312831999734,272.424205099931,None,None,272.424205099931,None,273.23055177994536,None,,,,22008,0001,2022_Apr_21_1213,localizer,2021.1.3,61.51135862216349,
block,faces,faces033.bmp,,,,,0,123,123,123,,,,,,,,,,,,,,,,,,,,,,,,,,,,,,,,,,,,,,,,,,None,,273.23055177994536,None,273.23055177994536,None,2022-04-21-12:18:25.681543,273.27656639995985,273.58025879994966,273.27656639995985,None,None,273.27656639995985,None,274.04711867982985,None,,,,22008,0001,2022_Apr_21_1213,localizer,2021.1.3,61.51135862216349,
block,faces,faces017.bmp,,,,,0,124,124,124,,,,,,,,,,,,,,,,,,,,,,,,,,,,,,,,,,,,,,,,,,None,,274.04711867982985,None,274.04711867982985,None,2022-04-21-12:18:26.497925,274.0570666999556,274.3635217999108,274.0570666999556,None,None,274.0570666999556,None,274.8640693798428,None,,,,22008,0001,2022_Apr_21_1213,localizer,2021.1.3,61.51135862216349,
block,faces,faces081.bmp,,,,,0,125,125,125,,,,,,,,,,,,,,,,,,,,,,,,,,,,,,,,,,,,,,,,,,None,,274.8640693798428,None,274.8640693798428,None,2022-04-21-12:18:27.314869,274.87580060004257,275.1809884000104,274.87580060004257,None,None,274.87580060004257,None,275.6808148799231,None,,,,22008,0001,2022_Apr_21_1213,localizer,2021.1.3,61.51135862216349,
block,faces,faces042.bmp,,,,,0,126,126,126,,,,,,,,,,,,,,,,,,,,,,,,,,,,,,,,,,,,,,,,,,None,,275.6808148799231,None,275.6808148799231,None,2022-04-21-12:18:28.132816,275.6915034998674,275.9965651000384,275.6915034998674,None,None,275.6915034998674,None,276.49727508004287,None,,,,22008,0001,2022_Apr_21_1213,localizer,2021.1.3,61.51135862216349,
block,faces,faces020.bmp,,,,,0,127,127,127,,,,,,,,,,,,,,,,,,,,,,,,,,,,,,,,,,,,,,,,,,None,,276.49727508004287,None,276.49727508004287,None,2022-04-21-12:18:28.948077,276.4979230999015,276.7967344999779,276.4979230999015,None,None,276.4979230999015,None,277.2978223799495,None,,,,22008,0001,2022_Apr_21_1213,localizer,2021.1.3,61.51135862216349,
block,faces,faces078.bmp,,,,,0,128,128,128,,,,,,,,,,,,,,,,,,,,,,,,,,,,,,,,,,,,,,,,,,None,,277.2978223799495,None,277.2978223799495,None,2022-04-21-12:18:29.751563,277.31087729986757,277.6135535999201,277.31087729986757,277.31087729986757,None,277.31087729986757,277.31087729986757,278.1146433800226,None,,,,22008,0001,2022_Apr_21_1213,localizer,2021.1.3,61.51135862216349,
block,faces,faces062.bmp,,,,,0,129,129,129,,,,,,,,,,,,,,,,,,,,,,,,,,,,,,,,,,,,,,,,,,None,,278.1146433800226,None,278.1146433800226,None,2022-04-21-12:18:30.566432,278.1271601000335,278.43200060003437,278.1271601000335,None,None,278.1271601000335,None,278.93080157993825,None,,,,22008,0001,2022_Apr_21_1213,localizer,2021.1.3,61.51135862216349,
block,faces,faces060.bmp,,,,,0,130,130,130,,,,,,,,,,,,,,,,,,,,,,,,,,,,,,,,,,,,,,,,,,None,,278.93080157993825,None,278.93080157993825,None,2022-04-21-12:18:31.381818,278.93726309994236,279.2473621999379,278.93726309994236,None,None,278.93726309994236,None,279.74792007983194,None,,,,22008,0001,2022_Apr_21_1213,localizer,2021.1.3,61.51135862216349,
block,faces,faces015.bmp,,,,,0,131,131,131,,,,,,,,,,,,,,,,,,,,,,,,,,,,,,,,,,,,,,,,,,None,,279.74792007983194,None,279.74792007983194,None,2022-04-21-12:18:32.200659,279.7664560000412,280.08050929987803,279.7664560000412,None,None,279.7664560000412,None,280.5638756798347,None,,,,22008,0001,2022_Apr_21_1213,localizer,2021.1.3,61.51135862216349,
block,faces,faces061.bmp,,,,,0,132,132,132,,,,,,,,,,,,,,,,,,,,,,,,,,,,,,,,,,,,,,,,,,None,,280.5638756798347,None,280.5638756798347,None,2022-04-21-12:18:33.014886,280.5645971999038,280.8646398000419,280.5645971999038,None,None,280.5645971999038,None,281.3808137799846,None,,,,22008,0001,2022_Apr_21_1213,localizer,2021.1.3,61.51135862216349,
block,faces,faces039.bmp,,,,,0,133,133,133,,,,,,,,,,,,,,,,,,,,,,,,,,,,,,,,,,,,,,,,,,None,,281.3808137799846,None,281.3808137799846,None,2022-04-21-12:18:33.832013,281.39373679994605,281.69692040001974,281.39373679994605,None,None,281.39373679994605,None,282.1973006799584,None,,,,22008,0001,2022_Apr_21_1213,localizer,2021.1.3,61.51135862216349,
block,faces,faces040.bmp,,,,,0,134,134,134,,,,,,,,,,,,,,,,,,,,,,,,,,,,,,,,,,,,,,,,,,None,,282.1973006799584,None,282.1973006799584,None,2022-04-21-12:18:34.648103,282.2076319998596,282.51374910003506,282.2076319998596,None,None,282.2076319998596,None,283.0141089800512,None,,,,22008,0001,2022_Apr_21_1213,localizer,2021.1.3,61.51135862216349,
block,faces,faces027.bmp,,,,,0,135,135,135,,,,,,,,,,,,,,,,,,,,,,,,,,,,,,,,,,,,,,,,,,None,,283.0141089800512,None,283.0141089800512,None,2022-04-21-12:18:35.465315,283.02684989990667,283.33023729990236,283.02684989990667,None,None,283.02684989990667,None,283.8318631800124,None,,,,22008,0001,2022_Apr_21_1213,localizer,2021.1.3,61.51135862216349,
block_end,faces,faces066.bmp,,,,,0,136,136,136,,,,,,,,,,,,,,,,,,,,,,,,,,,,,,,,,,,,,,,,,,None,,283.8318631800124,None,283.8318631800124,None,2022-04-21-12:18:36.284828,283.833892500028,284.1473673998844,283.833892500028,None,None,283.833892500028,None,284.64762457993345,None,,,,22008,0001,2022_Apr_21_1213,localizer,2021.1.3,61.51135862216349,
block_start,scrambled,scrambled008.bmp,,,,,0,137,137,137,,,,,,,,,,,,,,,,,,,,,,,,,,,,,,,,,,,,,,,,,,t,1.7416676001157612,284.64727209997363,None,284.64727209997363,None,2022-04-21-12:18:38.862996,286.4223921999801,286.73102979990654,286.4223921999801,None,None,286.4223921999801,None,287.2311992798699,None,,,,22008,0001,2022_Apr_21_1213,localizer,2021.1.3,61.51135862216349,
block,scrambled,scrambled031.bmp,,,,,0,138,138,138,,,,,,,,,,,,,,,,,,,,,,,,,,,,,,,,,,,,,,,,,,None,,287.2311992798699,None,287.2311992798699,None,2022-04-21-12:18:39.683056,287.2426733998582,287.5469056998845,287.2426733998582,None,None,287.2426733998582,None,288.04722867996895,None,,,,22008,0001,2022_Apr_21_1213,localizer,2021.1.3,61.51135862216349,
block,scrambled,scrambled034.bmp,,,,,0,139,139,139,,,,,,,,,,,,,,,,,,,,,,,,,,,,,,,,,,,,,,,,,,None,,288.04722867996895,None,288.04722867996895,None,2022-04-21-12:18:40.498029,288.0569547000341,288.3637482000049,288.0569547000341,None,None,288.0569547000341,None,288.86427758003117,None,,,,22008,0001,2022_Apr_21_1213,localizer,2021.1.3,61.51135862216349,
block,scrambled,scrambled040.bmp,,,,,0,140,140,140,,,,,,,,,,,,,,,,,,,,,,,,,,,,,,,,,,,,,,,,,,None,,288.86427758003117,None,288.86427758003117,None,2022-04-21-12:18:41.316345,288.86477839993313,289.1640445999801,288.86477839993313,None,None,288.86477839993313,None,289.66522937987463,None,,,,22008,0001,2022_Apr_21_1213,localizer,2021.1.3,61.51135862216349,
block,scrambled,scrambled049.bmp,,,,,0,141,141,141,,,,,,,,,,,,,,,,,,,,,,,,,,,,,,,,,,,,,,,,,,None,,289.66522937987463,None,289.66522937987463,None,2022-04-21-12:18:42.122001,289.6711254999973,289.9802488000132,289.6711254999973,289.6711254999973,None,289.6711254999973,289.6711254999973,290.48009537996256,None,,,,22008,0001,2022_Apr_21_1213,localizer,2021.1.3,61.51135862216349,
block,scrambled,scrambled083.bmp,,,,,0,142,142,142,,,,,,,,,,,,,,,,,,,,,,,,,,,,,,,,,,,,,,,,,,None,,290.48009537996256,None,290.48009537996256,None,2022-04-21-12:18:42.931102,290.48153889994137,290.7970463000238,290.48153889994137,None,None,290.48153889994137,None,291.2971811799565,None,,,,22008,0001,2022_Apr_21_1213,localizer,2021.1.3,61.51135862216349,
block,scrambled,scrambled057.bmp,,,,,0,143,143,143,,,,,,,,,,,,,,,,,,,,,,,,,,,,,,,,,,,,,,,,,,None,,291.2971811799565,None,291.2971811799565,None,2022-04-21-12:18:43.746994,291.29796650004573,291.5969754999969,291.29796650004573,None,None,291.29796650004573,None,292.09732277991714,None,,,,22008,0001,2022_Apr_21_1213,localizer,2021.1.3,61.51135862216349,
block,scrambled,scrambled012.bmp,,,,,0,144,144,144,,,,,,,,,,,,,,,,,,,,,,,,,,,,,,,,,,,,,,,,,,None,,292.09732277991714,None,292.09732277991714,None,2022-04-21-12:18:44.550206,292.1099511999637,292.4142256998457,292.1099511999637,292.1099511999637,None,292.1099511999637,292.1099511999637,292.9145049799466,None,,,,22008,0001,2022_Apr_21_1213,localizer,2021.1.3,61.51135862216349,
block,scrambled,scrambled024.bmp,,,,,0,145,145,145,,,,,,,,,,,,,,,,,,,,,,,,,,,,,,,,,,,,,,,,,,None,,292.9145049799466,None,292.9145049799466,None,2022-04-21-12:18:45.366352,292.9253487000242,293.2303220999893,292.9253487000242,None,None,292.9253487000242,None,293.73066567999774,None,,,,22008,0001,2022_Apr_21_1213,localizer,2021.1.3,61.51135862216349,
block,scrambled,scrambled082.bmp,,,,,0,146,146,146,,,,,,,,,,,,,,,,,,,,,,,,,,,,,,,,,,,,,,,,,,None,,293.73066567999774,None,293.73066567999774,None,2022-04-21-12:18:46.181472,293.73959390004165,294.04746040003374,293.73959390004165,None,None,293.73959390004165,None,294.5475785799557,None,,,,22008,0001,2022_Apr_21_1213,localizer,2021.1.3,61.51135862216349,
block,scrambled,scrambled009.bmp,,,,,0,147,147,147,,,,,,,,,,,,,,,,,,,,,,,,,,,,,,,,,,,,,,,,,,None,,294.5475785799557,None,294.5475785799557,None,2022-04-21-12:18:46.998629,294.5581761000212,294.86363339982927,294.5581761000212,None,None,294.5581761000212,None,295.363755380013,None,,,,22008,0001,2022_Apr_21_1213,localizer,2021.1.3,61.51135862216349,
block,scrambled,scrambled072.bmp,,,,,0,148,148,148,,,,,,,,,,,,,,,,,,,,,,,,,,,,,,,,,,,,,,,,,,None,,295.363755380013,None,295.363755380013,None,2022-04-21-12:18:47.814498,295.36447869986296,295.6641687999945,295.36447869986296,None,None,295.36447869986296,None,296.1656682798406,None,,,,22008,0001,2022_Apr_21_1213,localizer,2021.1.3,61.51135862216349,
block,scrambled,scrambled074.bmp,,,,,0,149,149,149,,,,,,,,,,,,,,,,,,,,,,,,,,,,,,,,,,,,,,,,,,None,,296.1656682798406,None,296.1656682798406,None,2022-04-21-12:18:48.621664,296.18209579982795,296.4966384000145,296.18209579982795,296.18209579982795,None,296.18209579982795,296.18209579982795,296.98129097998606,None,,,,22008,0001,2022_Apr_21_1213,localizer,2021.1.3,61.51135862216349,
block,scrambled,scrambled004.bmp,,,,,0,150,150,150,,,,,,,,,,,,,,,,,,,,,,,,,,,,,,,,,,,,,,,,,,None,,296.98129097998606,None,296.98129097998606,None,2022-04-21-12:18:49.434146,296.9927970999852,297.2969774999656,296.9927970999852,None,None,296.9927970999852,None,297.79735357987227,None,,,,22008,0001,2022_Apr_21_1213,localizer,2021.1.3,61.51135862216349,
block_end,scrambled,scrambled010.bmp,,,,,0,151,151,151,,,,,,,,,,,,,,,,,,,,,,,,,,,,,,,,,,,,,,,,,,None,,297.79735357987227,None,297.79735357987227,None,2022-04-21-12:18:50.248159,297.8069134999532,298.11386349983513,297.8069134999532,None,None,297.8069134999532,None,298.614295080048,None,,,,22008,0001,2022_Apr_21_1213,localizer,2021.1.3,61.51135862216349,
block_start,scenes,scenes019.bmp,,,,,0,152,152,152,,,,,,,,,,,,,,,,,,,,,,,,,,,,,,,,,,,,,,,,,,t,1.7746734998654574,298.61421249993145,None,298.61421249993145,None,2022-04-21-12:18:52.863629,300.4219496999867,300.73062559985556,300.4219496999867,None,None,300.4219496999867,None,301.2307195800589,None,,,,22008,0001,2022_Apr_21_1213,localizer,2021.1.3,61.51135862216349,
block,scenes,scenes019.bmp,,,,,0,153,153,153,,,,,,,,,,,,,,,,,,,,,,,,,,,,,,,,,,,,,,,,,,None,,301.2307195800589,None,301.2307195800589,None,2022-04-21-12:18:53.681473,301.2314110000152,301.5536887999624,301.2314110000152,None,y,301.2314110000152,None,302.0308366799494,None,0.7533210997935385,,,22008,0001,2022_Apr_21_1213,localizer,2021.1.3,61.51135862216349,
block,scenes,scenes041.bmp,,,,,0,154,154,154,,,,,,,,,,,,,,,,,,,,,,,,,,,,,,,,,,,,,,,,,,None,,302.0308366799494,None,302.0308366799494,None,2022-04-21-12:18:54.483822,302.04325779993087,302.352744899923,302.04325779993087,302.04325779993087,None,302.04325779993087,302.04325779993087,302.8478972799843,None,,,,22008,0001,2022_Apr_21_1213,localizer,2021.1.3,61.51135862216349,
block,scenes,scenes081.bmp,,,,,0,155,155,155,,,,,,,,,,,,,,,,,,,,,,,,,,,,,,,,,,,,,,,,,,None,,302.8478972799843,None,302.8478972799843,None,2022-04-21-12:18:55.299725,302.84929949999787,303.16349599999376,302.84929949999787,None,None,302.84929949999787,None,303.64862637987824,None,,,,22008,0001,2022_Apr_21_1213,localizer,2021.1.3,61.51135862216349,
block,scenes,scenes028.bmp,,,,,0,156,156,156,,,,,,,,,,,,,,,,,,,,,,,,,,,,,,,,,,,,,,,,,,None,,303.64862637987824,None,303.64862637987824,None,2022-04-21-12:18:56.104624,303.65258009987883,303.9636303000152,303.65258009987883,303.65258009987883,None,303.65258009987883,303.65258009987883,304.4640298799844,None,,,,22008,0001,2022_Apr_21_1213,localizer,2021.1.3,61.51135862216349,
block,scenes,scenes087.bmp,,,,,0,157,157,157,,,,,,,,,,,,,,,,,,,,,,,,,,,,,,,,,,,,,,,,,,None,,304.4640298799844,None,304.4640298799844,None,2022-04-21-12:18:56.914834,304.4732808000408,304.7805269998498,304.4732808000408,None,None,304.4732808000408,None,305.2807062798878,None,,,,22008,0001,2022_Apr_21_1213,localizer,2021.1.3,61.51135862216349,
block,scenes,scenes057.bmp,,,,,0,158,158,158,,,,,,,,,,,,,,,,,,,,,,,,,,,,,,,,,,,,,,,,,,None,,305.2807062798878,None,305.2807062798878,None,2022-04-21-12:18:57.731535,305.2900626999326,305.59764549997635,305.2900626999326,None,None,305.2900626999326,None,306.0972763800295,None,,,,22008,0001,2022_Apr_21_1213,localizer,2021.1.3,61.51135862216349,
block,scenes,scenes083.bmp,,,,,0,159,159,159,,,,,,,,,,,,,,,,,,,,,,,,,,,,,,,,,,,,,,,,,,None,,306.0972763800295,None,306.0972763800295,None,2022-04-21-12:18:58.548112,306.0980783000123,306.39694579993375,306.0980783000123,None,None,306.0980783000123,None,306.91385608001144,None,,,,22008,0001,2022_Apr_21_1213,localizer,2021.1.3,61.51135862216349,
block,scenes,scenes070.bmp,,,,,0,160,160,160,,,,,,,,,,,,,,,,,,,,,,,,,,,,,,,,,,,,,,,,,,None,,306.91385608001144,None,306.91385608001144,None,2022-04-21-12:18:59.364662,306.92273249989375,307.2307623999659,306.92273249989375,None,None,306.92273249989375,None,307.7307438798947,None,,,,22008,0001,2022_Apr_21_1213,localizer,2021.1.3,61.51135862216349,
block,scenes,scenes005.bmp,,,,,0,161,161,161,,,,,,,,,,,,,,,,,,,,,,,,,,,,,,,,,,,,,,,,,,None,,307.7307438798947,None,307.7307438798947,None,2022-04-21-12:19:00.181549,307.7396956998855,308.04728109994903,307.7396956998855,None,None,307.7396956998855,None,308.54856478001454,None,,,,22008,0001,2022_Apr_21_1213,localizer,2021.1.3,61.51135862216349,
block,scenes,scenes050.bmp,,,,,0,162,162,162,,,,,,,,,,,,,,,,,,,,,,,,,,,,,,,,,,,,,,,,,,None,,308.54856478001454,None,308.54856478001454,None,2022-04-21-12:19:01.000536,308.5509587000124,308.86422859993763,308.5509587000124,None,None,308.5509587000124,None,309.36436978003474,None,,,,22008,0001,2022_Apr_21_1213,localizer,2021.1.3,61.51135862216349,
block,scenes,scenes014.bmp,,,,,0,163,163,163,,,,,,,,,,,,,,,,,,,,,,,,,,,,,,,,,,,,,,,,,,None,,309.36436978003474,None,309.36436978003474,None,2022-04-21-12:19:01.816156,309.3759806000162,309.68112579989247,309.3759806000162,None,None,309.3759806000162,None,310.1815405799774,None,,,,22008,0001,2022_Apr_21_1213,localizer,2021.1.3,61.51135862216349,
block,scenes,scenes012.bmp,,,,,0,164,164,164,,,,,,,,,,,,,,,,,,,,,,,,,,,,,,,,,,,,,,,,,,None,,310.1815405799774,None,310.1815405799774,None,2022-04-21-12:19:02.633358,310.1832593998406,310.4969246999826,310.1832593998406,None,None,310.1832593998406,None,310.9974485798506,None,,,,22008,0001,2022_Apr_21_1213,localizer,2021.1.3,61.51135862216349,
block,scenes,scenes086.bmp,,,,,0,165,165,165,,,,,,,,,,,,,,,,,,,,,,,,,,,,,,,,,,,,,,,,,,None,,310.9974485798506,None,310.9974485798506,None,2022-04-21-12:19:03.448252,311.00708410004154,311.3135508999694,311.00708410004154,None,None,311.00708410004154,None,311.8143646798329,None,,,,22008,0001,2022_Apr_21_1213,localizer,2021.1.3,61.51135862216349,
block_end,scenes,scenes020.bmp,,,,,0,166,166,166,,,,,,,,,,,,,,,,,,,,,,,,,,,,,,,,,,,,,,,,,,None,,311.8143646798329,None,311.8143646798329,None,2022-04-21-12:19:04.265163,311.8242672998458,312.13060799986124,311.8242672998458,None,None,311.8242672998458,None,312.6307683798717,None,,,,22008,0001,2022_Apr_21_1213,localizer,2021.1.3,61.51135862216349,
null_block,null_block,null_block.bmp,,,,,0,167,167,167,,,,,,,,,,,,,,,,,,,,,,,,,,,,,,,,,,,,,,,,,,t,1.7584361999761313,312.63053900003433,None,312.63053900003433,None,2022-04-21-12:19:06.863910,314.4138752799248,None,314.4138752799248,None,None,314.4138752799248,None,314.41507599991746,None,,,,22008,0001,2022_Apr_21_1213,localizer,2021.1.3,61.51135862216349,
block_start,objects,objects069.bmp,,,,,0,168,168,168,,,,,,,,,,,,,,,,,,,,,,,,,,,,,,,,,,,,,,,,,,t,1.9585121001582593,326.43039550003596,None,326.43039550003596,None,2022-04-21-12:19:20.866513,328.4160616998561,328.7310072998516,328.4160616998561,None,None,328.4160616998561,None,329.2151675799163,None,,,,22008,0001,2022_Apr_21_1213,localizer,2021.1.3,61.51135862216349,
block,objects,objects003.bmp,,,,,0,169,169,169,,,,,,,,,,,,,,,,,,,,,,,,,,,,,,,,,,,,,,,,,,None,,329.2151675799163,None,329.2151675799163,None,2022-04-21-12:19:21.668810,329.2259011999704,329.5307032999117,329.2259011999704,329.2259011999704,None,329.2259011999704,329.2259011999704,330.0309758798452,None,,,,22008,0001,2022_Apr_21_1213,localizer,2021.1.3,61.51135862216349,
block,objects,objects081.bmp,,,,,0,170,170,170,,,,,,,,,,,,,,,,,,,,,,,,,,,,,,,,,,,,,,,,,,None,,330.0309758798452,None,330.0309758798452,None,2022-04-21-12:19:22.481887,330.04089619987644,330.34715289995074,330.04089619987644,None,None,330.04089619987644,None,330.84879097992086,None,,,,22008,0001,2022_Apr_21_1213,localizer,2021.1.3,61.51135862216349,
block,objects,objects073.bmp,,,,,0,171,171,171,,,,,,,,,,,,,,,,,,,,,,,,,,,,,,,,,,,,,,,,,,None,,330.84879097992086,None,330.84879097992086,None,2022-04-21-12:19:23.300638,330.8610679998528,331.1638730999548,330.8610679998528,None,None,330.8610679998528,None,331.6650460799923,None,,,,22008,0001,2022_Apr_21_1213,localizer,2021.1.3,61.51135862216349,
block,objects,objects031.bmp,,,,,0,172,172,172,,,,,,,,,,,,,,,,,,,,,,,,,,,,,,,,,,,,,,,,,,None,,331.6650460799923,None,331.6650460799923,None,2022-04-21-12:19:24.116900,331.67638259986416,331.98041690001264,331.67638259986416,None,None,331.67638259986416,None,332.4805454800138,None,,,,22008,0001,2022_Apr_21_1213,localizer,2021.1.3,61.51135862216349,
block,objects,objects082.bmp,,,,,0,173,173,173,,,,,,,,,,,,,,,,,,,,,,,,,,,,,,,,,,,,,,,,,,None,,332.4805454800138,None,332.4805454800138,None,2022-04-21-12:19:24.931352,332.48885730002075,332.7974981998559,332.48885730002075,None,None,332.48885730002075,None,333.29767447987103,None,,,,22008,0001,2022_Apr_21_1213,localizer,2021.1.3,61.51135862216349,
block,objects,objects012.bmp,,,,,0,174,174,174,,,,,,,,,,,,,,,,,,,,,,,,,,,,,,,,,,,,,,,,,,None,,333.29767447987103,None,333.29767447987103,None,2022-04-21-12:19:25.748213,333.30664590001106,333.6140482998453,333.30664590001106,None,None,333.30664590001106,None,334.1148130800342,None,,,,22008,0001,2022_Apr_21_1213,localizer,2021.1.3,61.51135862216349,
block,objects,objects006.bmp,,,,,0,175,175,175,,,,,,,,,,,,,,,,,,,,,,,,,,,,,,,,,,,,,,,,,,None,,334.1148130800342,None,334.1148130800342,None,2022-04-21-12:19:26.566587,334.125778199872,334.4307307000272,334.125778199872,None,None,334.125778199872,None,334.93090347989926,None,,,,22008,0001,2022_Apr_21_1213,localizer,2021.1.3,61.51135862216349,
block,objects,objects047.bmp,,,,,0,176,176,176,,,,,,,,,,,,,,,,,,,,,,,,,,,,,,,,,,,,,,,,,,None,,334.93090347989926,None,334.93090347989926,None,2022-04-21-12:19:27.381705,334.9400607000571,335.2474350000266,334.9400607000571,None,None,334.9400607000571,None,335.7477092798566,None,,,,22008,0001,2022_Apr_21_1213,localizer,2021.1.3,61.51135862216349,
block,objects,objects034.bmp,,,,,0,177,177,177,,,,,,,,,,,,,,,,,,,,,,,,,,,,,,,,,,,,,,,,,,None,,335.7477092798566,None,335.7477092798566,None,2022-04-21-12:19:28.198512,335.758212500019,336.0643521999009,335.758212500019,None,None,335.758212500019,None,336.56427457996176,None,,,,22008,0001,2022_Apr_21_1213,localizer,2021.1.3,61.51135862216349,
block,objects,objects033.bmp,,,,,0,178,178,178,,,,,,,,,,,,,,,,,,,,,,,,,,,,,,,,,,,,,,,,,,None,,336.56427457996176,None,336.56427457996176,None,2022-04-21-12:19:29.015103,336.56493939994834,336.86398609983735,336.56493939994834,None,None,336.56493939994834,None,337.3641822798876,None,,,,22008,0001,2022_Apr_21_1213,localizer,2021.1.3,61.51135862216349,
block,objects,objects053.bmp,,,,,0,179,179,179,,,,,,,,,,,,,,,,,,,,,,,,,,,,,,,,,,,,,,,,,,None,,337.3641822798876,None,337.3641822798876,None,2022-04-21-12:19:29.815985,337.36483630002476,337.66406630002894,337.36483630002476,337.36483630002476,None,337.36483630002476,337.36483630002476,338.1644995799055,None,,,,22008,0001,2022_Apr_21_1213,localizer,2021.1.3,61.51135862216349,
block,objects,objects026.bmp,,,,,0,180,180,180,,,,,,,,,,,,,,,,,,,,,,,,,,,,,,,,,,,,,,,,,,None,,338.1644995799055,None,338.1644995799055,None,2022-04-21-12:19:30.618491,338.1772161000408,338.480743000051,338.1772161000408,338.1772161000408,None,338.1772161000408,338.1772161000408,338.9809392799856,None,,,,22008,0001,2022_Apr_21_1213,localizer,2021.1.3,61.51135862216349,
block,objects,objects052.bmp,,,,,0,181,181,181,,,,,,,,,,,,,,,,,,,,,,,,,,,,,,,,,,,,,,,,,,None,,338.9809392799856,None,338.9809392799856,None,2022-04-21-12:19:31.431741,338.99091469985433,339.2974264000077,338.99091469985433,None,None,338.99091469985433,None,339.79734147989655,None,,,,22008,0001,2022_Apr_21_1213,localizer,2021.1.3,61.51135862216349,
block_end,objects,objects015.bmp,,,,,0,182,182,182,,,,,,,,,,,,,,,,,,,,,,,,,,,,,,,,,,,,,,,,,,None,,339.79734147989655,None,339.79734147989655,None,2022-04-21-12:19:32.248146,339.8066268998664,340.1138466000557,339.8066268998664,None,None,339.8066268998664,None,340.6143666798947,None,,,,22008,0001,2022_Apr_21_1213,localizer,2021.1.3,61.51135862216349,
null_block,null_block,null_block.bmp,,,,,0,183,183,183,,,,,,,,,,,,,,,,,,,,,,,,,,,,,,,,,,,,,,,,,,t,1.774641799973324,340.6141262999736,None,340.6141262999736,None,2022-04-21-12:19:34.865152,342.41435377995947,None,342.41435377995947,None,None,342.41435377995947,None,342.4177733999677,None,,,,22008,0001,2022_Apr_21_1213,localizer,2021.1.3,61.51135862216349,
block_start,objects,objects042.bmp,,,,,0,184,184,184,,,,,,,,,,,,,,,,,,,,,,,,,,,,,,,,,,,,,,,,,,t,1.957895099883899,354.43084229994565,None,354.43084229994565,None,2022-04-21-12:19:48.866751,356.4152472000569,356.730738400016,356.4152472000569,None,None,356.4152472000569,None,357.2150358799612,None,,,,22008,0001,2022_Apr_21_1213,localizer,2021.1.3,61.51135862216349,
block,objects,objects006.bmp,,,,,0,185,185,185,,,,,,,,,,,,,,,,,,,,,,,,,,,,,,,,,,,,,,,,,,None,,357.2150358799612,None,357.2150358799612,None,2022-04-21-12:19:49.668822,357.21769599989057,357.53116480004974,357.21769599989057,357.21769599989057,None,357.21769599989057,357.21769599989057,358.0308880798751,None,,,,22008,0001,2022_Apr_21_1213,localizer,2021.1.3,61.51135862216349,
block,objects,objects088.bmp,,,,,0,186,186,186,,,,,,,,,,,,,,,,,,,,,,,,,,,,,,,,,,,,,,,,,,None,,358.0308880798751,None,358.0308880798751,None,2022-04-21-12:19:50.481842,358.040474700043,358.34779169992544,358.040474700043,None,None,358.040474700043,None,358.84792787998447,None,,,,22008,0001,2022_Apr_21_1213,localizer,2021.1.3,61.51135862216349,
block,objects,objects048.bmp,,,,,0,187,187,187,,,,,,,,,,,,,,,,,,,,,,,,,,,,,,,,,,,,,,,,,,None,,358.84792787998447,None,358.84792787998447,None,2022-04-21-12:19:51.299920,358.84846049989574,359.1477448998485,358.84846049989574,None,None,358.84846049989574,None,359.64774617992805,None,,,,22008,0001,2022_Apr_21_1213,localizer,2021.1.3,61.51135862216349,
block,objects,objects046.bmp,,,,,0,188,188,188,,,,,,,,,,,,,,,,,,,,,,,,,,,,,,,,,,,,,,,,,,None,,359.64774617992805,None,359.64774617992805,None,2022-04-21-12:19:52.101538,359.66081280005164,359.9647665999364,359.66081280005164,359.66081280005164,None,359.66081280005164,359.66081280005164,360.46456787989007,None,,,,22008,0001,2022_Apr_21_1213,localizer,2021.1.3,61.51135862216349,
block,objects,objects085.bmp,,,,,0,189,189,189,,,,,,,,,,,,,,,,,,,,,,,,,,,,,,,,,,,,,,,,,,None,,360.46456787989007,None,360.46456787989007,None,2022-04-21-12:19:52.916391,360.4651347999461,360.76482639997266,360.4651347999461,None,None,360.4651347999461,None,361.2651451800251,None,,,,22008,0001,2022_Apr_21_1213,localizer,2021.1.3,61.51135862216349,
block,objects,objects081.bmp,,,,,0,190,190,190,,,,,,,,,,,,,,,,,,,,,,,,,,,,,,,,,,,,,,,,,,None,,361.2651451800251,None,361.2651451800251,None,2022-04-21-12:19:53.718913,361.2679293998517,361.58116569998674,361.2679293998517,361.2679293998517,None,361.2679293998517,361.2679293998517,362.08144908000247,None,,,,22008,0001,2022_Apr_21_1213,localizer,2021.1.3,61.51135862216349,
block,objects,objects038.bmp,,,,,0,191,191,191,,,,,,,,,,,,,,,,,,,,,,,,,,,,,,,,,,,,,,,,,,None,,362.08144908000247,None,362.08144908000247,None,2022-04-21-12:19:54.533356,362.09196439990774,362.4004963999614,362.09196439990774,None,None,362.09196439990774,None,362.89773477984124,None,,,,22008,0001,2022_Apr_21_1213,localizer,2021.1.3,61.51135862216349,
block,objects,objects005.bmp,,,,,0,192,192,192,,,,,,,,,,,,,,,,,,,,,,,,,,,,,,,,,,,,,,,,,,None,,362.89773477984124,None,362.89773477984124,None,2022-04-21-12:19:55.348541,362.9034847000148,363.21375699993223,362.9034847000148,None,None,362.9034847000148,None,363.71565588002557,None,,,,22008,0001,2022_Apr_21_1213,localizer,2021.1.3,61.51135862216349,
block,objects,objects073.bmp,,,,,0,193,193,193,,,,,,,,,,,,,,,,,,,,,,,,,,,,,,,,,,,,,,,,,,None,,363.71565588002557,None,363.71565588002557,None,2022-04-21-12:19:56.167971,363.717954199994,364.0312230999116,363.717954199994,None,None,363.717954199994,None,364.5315282798605,None,,,,22008,0001,2022_Apr_21_1213,localizer,2021.1.3,61.51135862216349,
block,objects,objects032.bmp,,,,,0,194,194,194,,,,,,,,,,,,,,,,,,,,,,,,,,,,,,,,,,,,,,,,,,None,,364.5315282798605,None,364.5315282798605,None,2022-04-21-12:19:56.983526,364.5431709999684,364.847788099898,364.5431709999684,None,None,364.5431709999684,None,365.3477729798527,None,,,,22008,0001,2022_Apr_21_1213,localizer,2021.1.3,61.51135862216349,
block,objects,objects027.bmp,,,,,0,195,195,195,,,,,,,,,,,,,,,,,,,,,,,,,,,,,,,,,,,,,,,,,,None,,365.3477729798527,None,365.3477729798527,None,2022-04-21-12:19:57.799124,365.3483461998403,365.6479440999683,365.3483461998403,None,None,365.3483461998403,None,366.1485366800101,None,,,,22008,0001,2022_Apr_21_1213,localizer,2021.1.3,61.51135862216349,
block,objects,objects022.bmp,,,,,0,196,196,196,,,,,,,,,,,,,,,,,,,,,,,,,,,,,,,,,,,,,,,,,,None,,366.1485366800101,None,366.1485366800101,None,2022-04-21-12:19:58.602416,366.1623348998837,366.46383089991286,366.1623348998837,366.1623348998837,None,366.1623348998837,366.1623348998837,366.964405680052,None,,,,22008,0001,2022_Apr_21_1213,localizer,2021.1.3,61.51135862216349,
block,objects,objects056.bmp,,,,,0,197,197,197,,,,,,,,,,,,,,,,,,,,,,,,,,,,,,,,,,,,,,,,,,None,,366.964405680052,None,366.964405680052,None,2022-04-21-12:19:59.415210,366.9741557999514,367.2808470998425,366.9741557999514,None,None,366.9741557999514,None,367.7807825798867,None,,,,22008,0001,2022_Apr_21_1213,localizer,2021.1.3,61.51135862216349,
block_end,objects,objects040.bmp,,,,,0,198,198,198,,,,,,,,,,,,,,,,,,,,,,,,,,,,,,,,,,,,,,,,,,None,,367.7807825798867,None,367.7807825798867,None,2022-04-21-12:20:00.231588,367.78172770002857,368.0815291998442,367.78172770002857,None,None,367.78172770002857,None,368.5813086798647,None,,,,22008,0001,2022_Apr_21_1213,localizer,2021.1.3,61.51135862216349,
block_start,scenes,scenes086.bmp,,,,,0,199,199,199,,,,,,,,,,,,,,,,,,,,,,,,,,,,,,,,,,,,,,,,,,t,1.8080719001591206,368.5807650999632,None,368.5807650999632,None,2022-04-21-12:20:02.862929,370.41562939994037,370.73094130004756,370.41562939994037,None,None,370.41562939994037,None,371.23117327990474,None,,,,22008,0001,2022_Apr_21_1213,localizer,2021.1.3,61.51135862216349,
block,scenes,scenes020.bmp,,,,,0,200,200,200,,,,,,,,,,,,,,,,,,,,,,,,,,,,,,,,,,,,,,,,,,None,,371.23117327990474,None,371.23117327990474,None,2022-04-21-12:20:03.682222,371.23170659993775,371.5308077998925,371.23170659993775,None,None,371.23170659993775,None,372.03266367989124,None,,,,22008,0001,2022_Apr_21_1213,localizer,2021.1.3,61.51135862216349,
block,scenes,scenes089.bmp,,,,,0,201,201,201,,,,,,,,,,,,,,,,,,,,,,,,,,,,,,,,,,,,,,,,,,None,,372.03266367989124,None,372.03266367989124,None,2022-04-21-12:20:04.487439,372.03662439994514,372.34739400004037,372.03662439994514,372.03662439994514,None,372.03662439994514,372.03662439994514,372.8476787798339,None,,,,22008,0001,2022_Apr_21_1213,localizer,2021.1.3,61.51135862216349,
block,scenes,scenes090.bmp,,,,,0,202,202,202,,,,,,,,,,,,,,,,,,,,,,,,,,,,,,,,,,,,,,,,,,None,,372.8476787798339,None,372.8476787798339,None,2022-04-21-12:20:05.298485,372.8577335998416,373.16431199992076,372.8577335998416,None,None,372.8577335998416,None,373.66437768002504,None,,,,22008,0001,2022_Apr_21_1213,localizer,2021.1.3,61.51135862216349,
block,scenes,scenes059.bmp,,,,,0,203,203,203,,,,,,,,,,,,,,,,,,,,,,,,,,,,,,,,,,,,,,,,,,None,,373.66437768002504,None,373.66437768002504,None,2022-04-21-12:20:06.115182,373.67339459992945,373.9808236998506,373.67339459992945,None,None,373.67339459992945,None,374.4807208799524,None,,,,22008,0001,2022_Apr_21_1213,localizer,2021.1.3,61.51135862216349,
block,scenes,scenes076.bmp,,,,,0,204,204,204,,,,,,,,,,,,,,,,,,,,,,,,,,,,,,,,,,,,,,,,,,None,,374.4807208799524,None,374.4807208799524,None,2022-04-21-12:20:06.931607,374.48959050001577,374.79745589988306,374.48959050001577,None,None,374.48959050001577,None,375.2977341799764,None,,,,22008,0001,2022_Apr_21_1213,localizer,2021.1.3,61.51135862216349,
block,scenes,scenes082.bmp,,,,,0,205,205,205,,,,,,,,,,,,,,,,,,,,,,,,,,,,,,,,,,,,,,,,,,None,,375.2977341799764,None,375.2977341799764,None,2022-04-21-12:20:07.749173,375.30516600003466,375.61481249984354,375.30516600003466,None,None,375.30516600003466,None,376.11432827983515,None,,,,22008,0001,2022_Apr_21_1213,localizer,2021.1.3,61.51135862216349,
block,scenes,scenes061.bmp,,,,,0,206,206,206,,,,,,,,,,,,,,,,,,,,,,,,,,,,,,,,,,,,,,,,,,None,,376.11432827983515,None,376.11432827983515,None,2022-04-21-12:20:08.565136,376.1226119999774,376.4309358999599,376.1226119999774,None,None,376.1226119999774,None,376.93124478005336,None,,,,22008,0001,2022_Apr_21_1213,localizer,2021.1.3,61.51135862216349,
block,scenes,scenes030.bmp,,,,,0,207,207,207,,,,,,,,,,,,,,,,,,,,,,,,,,,,,,,,,,,,,,,,,,None,,376.93124478005336,None,376.93124478005336,None,2022-04-21-12:20:09.382047,376.9317311998457,377.2308873999864,376.9317311998457,None,None,376.9317311998457,None,377.73090238005386,None,,,,22008,0001,2022_Apr_21_1213,localizer,2021.1.3,61.51135862216349,
block,scenes,scenes036.bmp,,,,,0,208,208,208,,,,,,,,,,,,,,,,,,,,,,,,,,,,,,,,,,,,,,,,,,None,,377.73090238005386,None,377.73090238005386,None,2022-04-21-12:20:10.183712,377.7323082999792,378.04720290005207,377.7323082999792,377.7323082999792,None,377.7323082999792,377.7323082999792,378.54775777992324,None,,,,22008,0001,2022_Apr_21_1213,localizer,2021.1.3,61.51135862216349,
block,scenes,scenes070.bmp,,,,,0,209,209,209,,,,,,,,,,,,,,,,,,,,,,,,,,,,,,,,,,,,,,,,,,None,,378.54775777992324,None,378.54775777992324,None,2022-04-21-12:20:10.999102,378.5485308000352,378.86406159983017,378.5485308000352,None,None,378.5485308000352,None,379.3478133799275,None,,,,22008,0001,2022_Apr_21_1213,localizer,2021.1.3,61.51135862216349,
block,scenes,scenes092.bmp,,,,,0,210,210,210,,,,,,,,,,,,,,,,,,,,,,,,,,,,,,,,,,,,,,,,,,None,,379.3478133799275,None,379.3478133799275,None,2022-04-21-12:20:11.800545,379.3490041999612,379.66395239997655,379.3490041999612,379.3490041999612,None,379.3490041999612,379.3490041999612,380.1644775799708,None,,,,22008,0001,2022_Apr_21_1213,localizer,2021.1.3,61.51135862216349,
block,scenes,scenes032.bmp,,,,,0,211,211,211,,,,,,,,,,,,,,,,,,,,,,,,,,,,,,,,,,,,,,,,,,None,,380.1644775799708,None,380.1644775799708,None,2022-04-21-12:20:12.615427,380.17431699996814,380.4808771000244,380.17431699996814,None,None,380.17431699996814,None,380.9815122799249,None,,,,22008,0001,2022_Apr_21_1213,localizer,2021.1.3,61.51135862216349,
block,scenes,scenes039.bmp,,,,,0,212,212,212,,,,,,,,,,,,,,,,,,,,,,,,,,,,,,,,,,,,,,,,,,None,,380.9815122799249,None,380.9815122799249,None,2022-04-21-12:20:13.433676,380.99313429999165,381.297730299877,380.99313429999165,None,None,380.99313429999165,None,381.7976621798938,None,,,,22008,0001,2022_Apr_21_1213,localizer,2021.1.3,61.51135862216349,
block_end,scenes,scenes049.bmp,,,,,0,213,213,213,,,,,,,,,,,,,,,,,,,,,,,,,,,,,,,,,,,,,,,,,,None,,381.7976621798938,None,381.7976621798938,None,2022-04-21-12:20:14.248471,381.8061470000539,382.11421479983255,381.8061470000539,None,None,381.8061470000539,None,382.61517407998906,None,,,,22008,0001,2022_Apr_21_1213,localizer,2021.1.3,61.51135862216349,
block_start,faces,faces053.bmp,,,,,0,214,214,214,,,,,,,,,,,,,,,,,,,,,,,,,,,,,,,,,,,,,,,,,,t,1.7738280000630766,382.6150590998586,None,382.6150590998586,None,2022-04-21-12:20:16.864766,384.4186853999272,384.7306590999942,384.4186853999272,None,None,384.4186853999272,None,385.23115957991683,None,,,,22008,0001,2022_Apr_21_1213,localizer,2021.1.3,61.51135862216349,
block,faces,faces053.bmp,,,,,0,215,215,215,,,,,,,,,,,,,,,,,,,,,,,,,,,,,,,,,,,,,,,,,,None,,385.23115957991683,None,385.23115957991683,None,2022-04-21-12:20:17.681966,385.2318054998759,385.53094279998913,385.2318054998759,None,y,385.2318054998759,None,386.03117968000004,None,0.5445570999290794,,,22008,0001,2022_Apr_21_1213,localizer,2021.1.3,61.51135862216349,
block,faces,faces043.bmp,,,,,0,216,216,216,,,,,,,,,,,,,,,,,,,,,,,,,,,,,,,,,,,,,,,,,,None,,386.03117968000004,None,386.03117968000004,None,2022-04-21-12:20:18.484192,386.0450694998726,386.34757929993793,386.0450694998726,386.0450694998726,None,386.0450694998726,386.0450694998726,386.84864867988506,None,,,,22008,0001,2022_Apr_21_1213,localizer,2021.1.3,61.51135862216349,
block,faces,faces061.bmp,,,,,0,217,217,217,,,,,,,,,,,,,,,,,,,,,,,,,,,,,,,,,,,,,,,,,,None,,386.84864867988506,None,386.84864867988506,None,2022-04-21-12:20:19.299889,386.84865399985574,387.1638918998651,386.84865399985574,None,None,386.84865399985574,None,387.6479340798454,None,,,,22008,0001,2022_Apr_21_1213,localizer,2021.1.3,61.51135862216349,
block,faces,faces018.bmp,,,,,0,218,218,218,,,,,,,,,,,,,,,,,,,,,,,,,,,,,,,,,,,,,,,,,,None,,387.6479340798454,None,387.6479340798454,None,2022-04-21-12:20:20.101704,387.6615923999343,387.9642552998848,387.6615923999343,387.6615923999343,None,387.6615923999343,387.6615923999343,388.46522037985267,None,,,,22008,0001,2022_Apr_21_1213,localizer,2021.1.3,61.51135862216349,
block,faces,faces045.bmp,,,,,0,219,219,219,,,,,,,,,,,,,,,,,,,,,,,,,,,,,,,,,,,,,,,,,,None,,388.46522037985267,None,388.46522037985267,None,2022-04-21-12:20:20.917011,388.46692579984665,388.78103439998813,388.46692579984665,None,None,388.46692579984665,None,389.28156687992157,None,,,,22008,0001,2022_Apr_21_1213,localizer,2021.1.3,61.51135862216349,
block,faces,faces035.bmp,,,,,0,220,220,220,,,,,,,,,,,,,,,,,,,,,,,,,,,,,,,,,,,,,,,,,,None,,389.28156687992157,None,389.28156687992157,None,2022-04-21-12:20:21.732408,389.282144599827,389.58127769990824,389.282144599827,None,None,389.282144599827,None,390.081151179946,None,,,,22008,0001,2022_Apr_21_1213,localizer,2021.1.3,61.51135862216349,
block,faces,faces060.bmp,,,,,0,221,221,221,,,,,,,,,,,,,,,,,,,,,,,,,,,,,,,,,,,,,,,,,,None,,390.081151179946,None,390.081151179946,None,2022-04-21-12:20:22.533907,390.08210589992814,390.38098159991205,390.08210589992814,390.08210589992814,None,390.08210589992814,390.08210589992814,390.8816338800592,None,,,,22008,0001,2022_Apr_21_1213,localizer,2021.1.3,61.51135862216349,
block,faces,faces038.bmp,,,,,0,222,222,222,,,,,,,,,,,,,,,,,,,,,,,,,,,,,,,,,,,,,,,,,,None,,390.8816338800592,None,390.8816338800592,None,2022-04-21-12:20:23.334437,390.88199729984626,391.197443400044,390.88199729984626,390.88199729984626,None,390.88199729984626,390.88199729984626,391.6811608799966,None,,,,22008,0001,2022_Apr_21_1213,localizer,2021.1.3,61.51135862216349,
block,faces,faces031.bmp,,,,,0,223,223,223,,,,,,,,,,,,,,,,,,,,,,,,,,,,,,,,,,,,,,,,,,None,,391.6811608799966,None,391.6811608799966,None,2022-04-21-12:20:24.133212,391.6817942999769,391.9810241998639,391.6817942999769,391.6817942999769,None,391.6817942999769,391.6817942999769,392.4812681800453,None,,,,22008,0001,2022_Apr_21_1213,localizer,2021.1.3,61.51135862216349,
block,faces,faces065.bmp,,,,,0,224,224,224,,,,,,,,,,,,,,,,,,,,,,,,,,,,,,,,,,,,,,,,,,None,,392.4812681800453,None,392.4812681800453,None,2022-04-21-12:20:24.934067,392.48234899993986,392.79776489990763,392.48234899993986,392.48234899993986,None,392.48234899993986,392.48234899993986,393.2977411800297,None,,,,22008,0001,2022_Apr_21_1213,localizer,2021.1.3,61.51135862216349,
block,faces,faces051.bmp,,,,,0,225,225,225,,,,,,,,,,,,,,,,,,,,,,,,,,,,,,,,,,,,,,,,,,None,,393.2977411800297,None,393.2977411800297,None,2022-04-21-12:20:25.748800,393.33817350002937,393.64832639996894,393.33817350002937,None,None,393.33817350002937,None,394.1151416799752,None,,,,22008,0001,2022_Apr_21_1213,localizer,2021.1.3,61.51135862216349,
block,faces,faces027.bmp,,,,,0,226,226,226,,,,,,,,,,,,,,,,,,,,,,,,,,,,,,,,,,,,,,,,,,None,,394.1151416799752,None,394.1151416799752,None,2022-04-21-12:20:26.566913,394.1164798999671,394.43160040001385,394.1164798999671,None,None,394.1164798999671,None,394.9315061799483,None,,,,22008,0001,2022_Apr_21_1213,localizer,2021.1.3,61.51135862216349,
block,faces,faces029.bmp,,,,,0,227,227,227,,,,,,,,,,,,,,,,,,,,,,,,,,,,,,,,,,,,,,,,,,None,,394.9315061799483,None,394.9315061799483,None,2022-04-21-12:20:27.382394,394.9393325999845,395.24776209983975,394.9393325999845,None,None,394.9393325999845,None,395.7482003799872,None,,,,22008,0001,2022_Apr_21_1213,localizer,2021.1.3,61.51135862216349,
block_end,faces,faces063.bmp,,,,,0,228,228,228,,,,,,,,,,,,,,,,,,,,,,,,,,,,,,,,,,,,,,,,,,None,,395.7482003799872,None,395.7482003799872,None,2022-04-21-12:20:28.199059,395.7606183998287,396.0643553000409,395.7606183998287,None,None,395.7606183998287,None,396.56454777994657,None,,,,22008,0001,2022_Apr_21_1213,localizer,2021.1.3,61.51135862216349,
block_start,scrambled,scrambled063.bmp,,,,,0,229,229,229,,,,,,,,,,,,,,,,,,,,,,,,,,,,,,,,,,,,,,,,,,t,1.8244525000918657,396.5644077998586,None,396.5644077998586,None,2022-04-21-12:20:30.864389,398.41755050001666,398.7311451998539,398.41755050001666,None,None,398.41755050001666,None,399.23148038003126,None,,,,22008,0001,2022_Apr_21_1213,localizer,2021.1.3,61.51135862216349,
block,scrambled,scrambled055.bmp,,,,,0,230,230,230,,,,,,,,,,,,,,,,,,,,,,,,,,,,,,,,,,,,,,,,,,None,,399.23148038003126,None,399.23148038003126,None,2022-04-21-12:20:31.683309,399.241985199973,399.5476632998325,399.241985199973,None,None,399.241985199973,None,400.0485601799795,None,,,,22008,0001,2022_Apr_21_1213,localizer,2021.1.3,61.51135862216349,
block,scrambled,scrambled044.bmp,,,,,0,231,231,231,,,,,,,,,,,,,,,,,,,,,,,,,,,,,,,,,,,,,,,,,,None,,400.0485601799795,None,400.0485601799795,None,2022-04-21-12:20:32.500541,400.05999620002694,400.3643377998378,400.05999620002694,None,None,400.05999620002694,None,400.86484337991567,None,,,,22008,0001,2022_Apr_21_1213,localizer,2021.1.3,61.51135862216349,
block,scrambled,scrambled031.bmp,,,,,0,232,232,232,,,,,,,,,,,,,,,,,,,,,,,,,,,,,,,,,,,,,,,,,,None,,400.86484337991567,None,400.86484337991567,None,2022-04-21-12:20:33.315731,400.865402800031,401.16466669994406,400.865402800031,None,None,400.865402800031,None,401.6647110800026,None,,,,22008,0001,2022_Apr_21_1213,localizer,2021.1.3,61.51135862216349,
block,scrambled,scrambled041.bmp,,,,,0,233,233,233,,,,,,,,,,,,,,,,,,,,,,,,,,,,,,,,,,,,,,,,,,None,,401.6647110800026,None,401.6647110800026,None,2022-04-21-12:20:34.117515,401.66625609993935,401.98105899989605,401.66625609993935,401.66625609993935,None,401.66625609993935,401.66625609993935,402.4816188800381,None,,,,22008,0001,2022_Apr_21_1213,localizer,2021.1.3,61.51135862216349,
block,scrambled,scrambled033.bmp,,,,,0,234,234,234,,,,,,,,,,,,,,,,,,,,,,,,,,,,,,,,,,,,,,,,,,None,,402.4816188800381,None,402.4816188800381,None,2022-04-21-12:20:34.933690,402.49313739989884,402.79787559993565,402.49313739989884,None,None,402.49313739989884,None,403.29826617983633,None,,,,22008,0001,2022_Apr_21_1213,localizer,2021.1.3,61.51135862216349,
block,scrambled,scrambled076.bmp,,,,,0,235,235,235,,,,,,,,,,,,,,,,,,,,,,,,,,,,,,,,,,,,,,,,,,None,,403.29826617983633,None,403.29826617983633,None,2022-04-21-12:20:35.749230,403.298752799863,403.59787059994414,403.298752799863,None,None,403.298752799863,None,404.0981077798409,None,,,,22008,0001,2022_Apr_21_1213,localizer,2021.1.3,61.51135862216349,
block,scrambled,scrambled062.bmp,,,,,0,236,236,236,,,,,,,,,,,,,,,,,,,,,,,,,,,,,,,,,,,,,,,,,,None,,404.0981077798409,None,404.0981077798409,None,2022-04-21-12:20:36.550950,404.11084309988655,404.41440959996544,404.11084309988655,404.11084309988655,None,404.11084309988655,404.11084309988655,404.9144882799359,None,,,,22008,0001,2022_Apr_21_1213,localizer,2021.1.3,61.51135862216349,
block,scrambled,scrambled025.bmp,,,,,0,237,237,237,,,,,,,,,,,,,,,,,,,,,,,,,,,,,,,,,,,,,,,,,,None,,404.9144882799359,None,404.9144882799359,None,2022-04-21-12:20:37.365296,404.9228572999127,405.23092740005814,404.9228572999127,None,None,404.9228572999127,None,405.7314729799749,None,,,,22008,0001,2022_Apr_21_1213,localizer,2021.1.3,61.51135862216349,
block,scrambled,scrambled068.bmp,,,,,0,238,238,238,,,,,,,,,,,,,,,,,,,,,,,,,,,,,,,,,,,,,,,,,,None,,405.7314729799749,None,405.7314729799749,None,2022-04-21-12:20:38.182173,405.74226239998825,406.04665749985725,405.74226239998825,None,None,405.74226239998825,None,406.54942757983224,None,,,,22008,0001,2022_Apr_21_1213,localizer,2021.1.3,61.51135862216349,
block,scrambled,scrambled060.bmp,,,,,0,239,239,239,,,,,,,,,,,,,,,,,,,,,,,,,,,,,,,,,,,,,,,,,,None,,406.54942757983224,None,406.54942757983224,None,2022-04-21-12:20:39.002207,406.56241160002537,406.86481199995615,406.56241160002537,None,None,406.56241160002537,None,407.3648598799249,None,,,,22008,0001,2022_Apr_21_1213,localizer,2021.1.3,61.51135862216349,
block,scrambled,scrambled046.bmp,,,,,0,240,240,240,,,,,,,,,,,,,,,,,,,,,,,,,,,,,,,,,,,,,,,,,,None,,407.3648598799249,None,407.3648598799249,None,2022-04-21-12:20:39.815662,407.3756221998483,407.6812795998994,407.3756221998483,None,None,407.3756221998483,None,408.18113977995233,None,,,,22008,0001,2022_Apr_21_1213,localizer,2021.1.3,61.51135862216349,
block,scrambled,scrambled085.bmp,,,,,0,241,241,241,,,,,,,,,,,,,,,,,,,,,,,,,,,,,,,,,,,,,,,,,,None,,408.18113977995233,None,408.18113977995233,None,2022-04-21-12:20:40.631913,408.18996170000173,408.4977635999676,408.18996170000173,None,None,408.18996170000173,None,408.9981248799944,None,,,,22008,0001,2022_Apr_21_1213,localizer,2021.1.3,61.51135862216349,
block,scrambled,scrambled048.bmp,,,,,0,242,242,242,,,,,,,,,,,,,,,,,,,,,,,,,,,,,,,,,,,,,,,,,,None,,408.9981248799944,None,408.9981248799944,None,2022-04-21-12:20:41.448927,409.00893779983744,409.3145109999459,409.00893779983744,None,None,409.00893779983744,None,409.81454317991154,None,,,,22008,0001,2022_Apr_21_1213,localizer,2021.1.3,61.51135862216349,
block_end,scrambled,scrambled067.bmp,,,,,0,243,243,243,,,,,,,,,,,,,,,,,,,,,,,,,,,,,,,,,,,,,,,,,,None,,409.81454317991154,None,409.81454317991154,None,2022-04-21-12:20:42.265229,409.82357069989666,410.1311170000117,409.82357069989666,None,None,409.82357069989666,None,410.6312163800234,None,,,,22008,0001,2022_Apr_21_1213,localizer,2021.1.3,61.51135862216349,
,,,,,,,,,,,,,,,,,,,,,,,,,,,,,,,,,,,,,,,,,,,,,,,,,,,,,,,,,,,,,,,,,,,,,410.63115309993736,None,,,,,,,
