block_type,condition,img_name,Button.thisRepN,Button.thisTrialN,Button.thisN,Button.thisIndex,trials.thisRepN,trials.thisTrialN,trials.thisN,trials.thisIndex,Ready_experimenter_text.started,Ready_experimenter_text.stopped,Ready_experimenter_resp.keys,Ready_experimenter_resp.rt,Ready_experimenter_resp.started,Ready_experimenter_resp.stopped,Alignment_background.started,Alignment_background.stopped,Alignment_image.started,Alignment_image.stopped,Alignment_resp.keys,Alignment_resp.rt,Alignment_resp.started,Alignment_resp.stopped,Button_text.started,Button_text.stopped,Index_text.started,Index_text.stopped,Index_resp.keys,Index_resp.rt,Index_resp.started,Index_resp.stopped,Middle_text.started,Middle_text.stopped,Middle_resp.keys,Middle_resp.rt,Middle_resp.started,Middle_resp.stopped,Repeat_text.started,Repeat_text.stopped,Repeat_resp.keys,Repeat_resp.corr,Repeat_resp.rt,Repeat_resp.started,Repeat_resp.stopped,instruction_text.started,instruction_text.stopped,key_resp.keys,key_resp.rt,key_resp.started,key_resp.stopped,scanner_t.keys,scanner_t.rt,scanner_t.started,scanner_t.stopped,fixation_wait_for_t.started,fixation_wait_for_t.stopped,real_timestamp_trial_start,image.started,image.stopped,fixation.started,fixation.stopped,repeat_response.keys,repeat_response.started,repeat_response.stopped,fixation_null.started,fixation_null.stopped,repeat_response.rt,end_text.started,end_text.stopped,participant,run,date,expName,psychopyVersion,frameRate,
,,,,,,,,,,,11.123582200030796,None,return,276.2801325999899,11.123582200030796,None,,,,,,,,,,,,,,,,,,,,,,,,,,,,,,,,,,,,,,,,,,,,,,,,,,,,,,,21016,0002,2022_Nov_30_0819,localizer,2021.1.3,58.36171656774447,
,,,,,,,,,,,,,,,,,287.4489215000067,None,287.4489215000067,None,return,0.3899488999741152,287.4489215000067,None,,,,,,,,,,,,,,,,,,,,,,,,,,,,,,,,,,,,,,,,,,,,,,,21016,0002,2022_Nov_30_0819,localizer,2021.1.3,58.36171656774447,
,,,0,0,0,0,,,,,,,,,,,,,,,,,,,287.8557981000049,None,288.85479000001214,None,y,54.96580630005337,288.85479000001214,None,343.838891100022,None,b,2.071538000018336,343.838891100022,None,345.93957279995084,None,y,1,2.992819699924439,345.93957279995084,None,,,,,,,,,,,,,,,,,,,,,,,,,,21016,0002,2022_Nov_30_0819,localizer,2021.1.3,58.36171656774447,
,,,1,0,1,0,,,,,,,,,,,,,,,,,,,348.95534970005974,None,349.955801300006,None,y,5.111657399917021,349.955801300006,None,355.08937760000117,None,b,1.1929871999891475,355.08937760000117,None,356.3060594999697,None,n,0,2.6273060999810696,356.3060594999697,None,,,,,,,,,,,,,,,,,,,,,,,,,,21016,0002,2022_Nov_30_0819,localizer,2021.1.3,58.36171656774447,
,,,,,,,,,,,,,,,,,,,,,,,,,,,,,,,,,,,,,,,,,,,,,,358.9563290999504,None,y,53.823055299930274,358.9563290999504,None,,,,,,,,,,,,,,,,,,,,21016,0002,2022_Nov_30_0819,localizer,2021.1.3,58.36171656774447,
block_start,scenes,scenes017.bmp,,,,,0,0,0,0,,,,,,,,,,,,,,,,,,,,,,,,,,,,,,,,,,,,,,,,,,t,14.708772900048643,412.8349929000251,None,412.8349929000251,None,2022-11-30-08:26:11.331419,427.56610809999984,427.8729335999815,427.56610809999984,None,None,427.56610809999984,None,428.3733602000051,None,,,,21016,0002,2022_Nov_30_0819,localizer,2021.1.3,58.36171656774447,
block,scenes,scenes016.bmp,,,,,0,1,1,1,,,,,,,,,,,,,,,,,,,,,,,,,,,,,,,,,,,,,,,,,,None,,428.3733602000051,None,428.3733602000051,None,2022-11-30-08:26:12.146899,428.39267009997275,428.7062646000413,428.39267009997275,None,None,428.39267009997275,None,429.1896475999732,None,,,,21016,0002,2022_Nov_30_0819,localizer,2021.1.3,58.36171656774447,
block,scenes,scenes014.bmp,,,,,0,2,2,2,,,,,,,,,,,,,,,,,,,,,,,,,,,,,,,,,,,,,,,,,,None,,429.1896475999732,None,429.1896475999732,None,2022-11-30-08:26:12.962306,429.1903912000125,429.4893559999764,429.1903912000125,None,None,429.1903912000125,None,430.005998999963,None,,,,21016,0002,2022_Nov_30_0819,localizer,2021.1.3,58.36171656774447,
block,scenes,scenes031.bmp,,,,,0,3,3,3,,,,,,,,,,,,,,,,,,,,,,,,,,,,,,,,,,,,,,,,,,None,,430.005998999963,None,430.005998999963,None,2022-11-30-08:26:13.778668,430.0159516000422,430.3225248999661,430.0159516000422,None,None,430.0159516000422,None,430.82331249994456,None,,,,21016,0002,2022_Nov_30_0819,localizer,2021.1.3,58.36171656774447,
block,scenes,scenes081.bmp,,,,,0,4,4,4,,,,,,,,,,,,,,,,,,,,,,,,,,,,,,,,,,,,,,,,,,None,,430.82331249994456,None,430.82331249994456,None,2022-11-30-08:26:14.596982,430.83608789998107,431.1431141999783,430.83608789998107,None,None,430.83608789998107,None,431.63940320004474,None,,,,21016,0002,2022_Nov_30_0819,localizer,2021.1.3,58.36171656774447,
block,scenes,scenes025.bmp,,,,,0,5,5,5,,,,,,,,,,,,,,,,,,,,,,,,,,,,,,,,,,,,,,,,,,None,,431.63940320004474,None,431.63940320004474,None,2022-11-30-08:26:15.412073,431.6531107999617,431.9559289000463,431.6531107999617,None,None,431.6531107999617,None,432.4562650999636,None,,,,21016,0002,2022_Nov_30_0819,localizer,2021.1.3,58.36171656774447,
block,scenes,scenes083.bmp,,,,,0,6,6,6,,,,,,,,,,,,,,,,,,,,,,,,,,,,,,,,,,,,,,,,,,None,,432.4562650999636,None,432.4562650999636,None,2022-11-30-08:26:16.228927,432.4675024000462,432.7734356999863,432.4675024000462,None,None,432.4675024000462,None,433.2730281999451,None,,,,21016,0002,2022_Nov_30_0819,localizer,2021.1.3,58.36171656774447,
block,scenes,scenes032.bmp,,,,,0,7,7,7,,,,,,,,,,,,,,,,,,,,,,,,,,,,,,,,,,,,,,,,,,None,,433.2730281999451,None,433.2730281999451,None,2022-11-30-08:26:17.045902,433.28460270003416,433.58949250006117,433.28460270003416,None,None,433.28460270003416,None,434.0898881999659,None,,,,21016,0002,2022_Nov_30_0819,localizer,2021.1.3,58.36171656774447,
block,scenes,scenes069.bmp,,,,,0,8,8,8,,,,,,,,,,,,,,,,,,,,,,,,,,,,,,,,,,,,,,,,,,None,,434.0898881999659,None,434.0898881999659,None,2022-11-30-08:26:17.862602,434.090413399972,434.3897619000636,434.090413399972,None,None,434.090413399972,None,434.8896429000073,None,,,,21016,0002,2022_Nov_30_0819,localizer,2021.1.3,58.36171656774447,
block,scenes,scenes069.bmp,,,,,0,9,9,9,,,,,,,,,,,,,,,,,,,,,,,,,,,,,,,,,,,,,,,,,,None,,434.8896429000073,None,434.8896429000073,None,2022-11-30-08:26:18.664301,434.89094700000715,435.20602439995855,434.89094700000715,434.89094700000715,y,434.89094700000715,434.89094700000715,435.7060598000302,None,0.5163238999666646,,,21016,0002,2022_Nov_30_0819,localizer,2021.1.3,58.36171656774447,
block,scenes,scenes053.bmp,,,,,0,10,10,10,,,,,,,,,,,,,,,,,,,,,,,,,,,,,,,,,,,,,,,,,,None,,435.7060598000302,None,435.7060598000302,None,2022-11-30-08:26:19.478727,435.71636670001317,436.0226013000356,435.71636670001317,None,None,435.71636670001317,None,436.523138099967,None,,,,21016,0002,2022_Nov_30_0819,localizer,2021.1.3,58.36171656774447,
block,scenes,scenes074.bmp,,,,,0,11,11,11,,,,,,,,,,,,,,,,,,,,,,,,,,,,,,,,,,,,,,,,,,None,,436.523138099967,None,436.523138099967,None,2022-11-30-08:26:20.296816,436.53497939999215,436.83930260001216,436.53497939999215,None,None,436.53497939999215,None,437.33943149998083,None,,,,21016,0002,2022_Nov_30_0819,localizer,2021.1.3,58.36171656774447,
block,scenes,scenes071.bmp,,,,,0,12,12,12,,,,,,,,,,,,,,,,,,,,,,,,,,,,,,,,,,,,,,,,,,None,,437.33943149998083,None,437.33943149998083,None,2022-11-30-08:26:21.112098,437.34531570004765,437.6559278999921,437.34531570004765,None,None,437.34531570004765,None,438.1564211000572,None,,,,21016,0002,2022_Nov_30_0819,localizer,2021.1.3,58.36171656774447,
block,scenes,scenes045.bmp,,,,,0,13,13,13,,,,,,,,,,,,,,,,,,,,,,,,,,,,,,,,,,,,,,,,,,None,,438.1564211000572,None,438.1564211000572,None,2022-11-30-08:26:21.929140,438.15681259997655,438.4561441000551,438.15681259997655,None,None,438.15681259997655,None,438.9564848000067,None,,,,21016,0002,2022_Nov_30_0819,localizer,2021.1.3,58.36171656774447,
block_end,scenes,scenes002.bmp,,,,,0,14,14,14,,,,,,,,,,,,,,,,,,,,,,,,,,,,,,,,,,,,,,,,,,None,,438.9564848000067,None,438.9564848000067,None,2022-11-30-08:26:22.731251,438.9592762000393,439.27264930005185,438.9592762000393,438.9592762000393,None,438.9592762000393,438.9592762000393,439.77294550001386,None,,,,21016,0002,2022_Nov_30_0819,localizer,2021.1.3,58.36171656774447,
null_block,null_block,null_block.bmp,,,,,0,15,15,15,,,,,,,,,,,,,,,,,,,,,,,,,,,,,,,,,,,,,,,,,,t,1.7704400999937207,439.7728109000018,None,439.7728109000018,None,2022-11-30-08:26:25.345767,441.5730694999569,None,441.5730694999569,None,None,441.5730694999569,None,441.5765064000152,None,,,,21016,0002,2022_Nov_30_0819,localizer,2021.1.3,58.36171656774447,
block_start,faces,faces039.bmp,,,,,0,16,16,16,,,,,,,,,,,,,,,,,,,,,,,,,,,,,,,,,,,,,,,,,,t,1.9472134000388905,453.596067699953,None,453.596067699953,None,2022-11-30-08:26:39.346852,455.58653970004525,455.889756700024,455.58653970004525,None,None,455.58653970004525,None,456.38988049995385,None,,,,21016,0002,2022_Nov_30_0819,localizer,2021.1.3,58.36171656774447,
block,faces,faces046.bmp,,,,,0,17,17,17,,,,,,,,,,,,,,,,,,,,,,,,,,,,,,,,,,,,,,,,,,None,,456.38988049995385,None,456.38988049995385,None,2022-11-30-08:26:40.162363,456.39046549994964,456.6899091999512,456.39046549994964,None,None,456.39046549994964,None,457.190026499948,None,,,,21016,0002,2022_Nov_30_0819,localizer,2021.1.3,58.36171656774447,
block,faces,faces088.bmp,,,,,0,18,18,18,,,,,,,,,,,,,,,,,,,,,,,,,,,,,,,,,,,,,,,,,,None,,457.190026499948,None,457.190026499948,None,2022-11-30-08:26:40.964624,457.19268600002397,457.50665350002237,457.19268600002397,457.19268600002397,None,457.19268600002397,457.19268600002397,458.00676870000314,None,,,,21016,0002,2022_Nov_30_0819,localizer,2021.1.3,58.36171656774447,
block,faces,faces085.bmp,,,,,0,19,19,19,,,,,,,,,,,,,,,,,,,,,,,,,,,,,,,,,,,,,,,,,,None,,458.00676870000314,None,458.00676870000314,None,2022-11-30-08:26:41.779429,458.0181162999943,458.32927800004836,458.0181162999943,None,None,458.0181162999943,None,458.8250203000265,None,,,,21016,0002,2022_Nov_30_0819,localizer,2021.1.3,58.36171656774447,
block,faces,faces018.bmp,,,,,0,20,20,20,,,,,,,,,,,,,,,,,,,,,,,,,,,,,,,,,,,,,,,,,,None,,458.8250203000265,None,458.8250203000265,None,2022-11-30-08:26:42.600815,458.8425501000602,459.156927300035,458.8425501000602,None,None,458.8425501000602,None,459.64045129999283,None,,,,21016,0002,2022_Nov_30_0819,localizer,2021.1.3,58.36171656774447,
block,faces,faces086.bmp,,,,,0,21,21,21,,,,,,,,,,,,,,,,,,,,,,,,,,,,,,,,,,,,,,,,,,None,,459.64045129999283,None,459.64045129999283,None,2022-11-30-08:26:43.414275,459.6409945000196,459.94026049994864,459.6409945000196,None,None,459.6409945000196,None,460.44030030005376,None,,,,21016,0002,2022_Nov_30_0819,localizer,2021.1.3,58.36171656774447,
block,faces,faces041.bmp,,,,,0,22,22,22,,,,,,,,,,,,,,,,,,,,,,,,,,,,,,,,,,,,,,,,,,None,,460.44030030005376,None,460.44030030005376,None,2022-11-30-08:26:44.215929,460.45633379998617,460.75609799998347,460.45633379998617,460.45633379998617,None,460.45633379998617,460.45633379998617,461.2563795999507,None,,,,21016,0002,2022_Nov_30_0819,localizer,2021.1.3,58.36171656774447,
block,faces,faces003.bmp,,,,,0,23,23,23,,,,,,,,,,,,,,,,,,,,,,,,,,,,,,,,,,,,,,,,,,None,,461.2563795999507,None,461.2563795999507,None,2022-11-30-08:26:45.029043,461.2571684999857,461.5562584999716,461.2571684999857,None,None,461.2571684999857,None,462.056912299979,None,,,,21016,0002,2022_Nov_30_0819,localizer,2021.1.3,58.36171656774447,
block,faces,faces010.bmp,,,,,0,24,24,24,,,,,,,,,,,,,,,,,,,,,,,,,,,,,,,,,,,,,,,,,,None,,462.056912299979,None,462.056912299979,None,2022-11-30-08:26:45.832560,462.0594025000464,462.37369250005577,462.0594025000464,462.0594025000464,None,462.0594025000464,462.0594025000464,462.87320850001413,None,,,,21016,0002,2022_Nov_30_0819,localizer,2021.1.3,58.36171656774447,
block,faces,faces033.bmp,,,,,0,25,25,25,,,,,,,,,,,,,,,,,,,,,,,,,,,,,,,,,,,,,,,,,,None,,462.87320850001413,None,462.87320850001413,None,2022-11-30-08:26:46.645869,462.87382450001314,463.1733343000524,462.87382450001314,None,None,462.87382450001314,None,463.6733417000272,None,,,,21016,0002,2022_Nov_30_0819,localizer,2021.1.3,58.36171656774447,
block,faces,faces052.bmp,,,,,0,26,26,26,,,,,,,,,,,,,,,,,,,,,,,,,,,,,,,,,,,,,,,,,,None,,463.6733417000272,None,463.6733417000272,None,2022-11-30-08:26:47.448198,463.67624599998817,463.98996210005134,463.67624599998817,463.67624599998817,None,463.67624599998817,463.67624599998817,464.49097580000523,None,,,,21016,0002,2022_Nov_30_0819,localizer,2021.1.3,58.36171656774447,
block,faces,faces015.bmp,,,,,0,27,27,27,,,,,,,,,,,,,,,,,,,,,,,,,,,,,,,,,,,,,,,,,,None,,464.49097580000523,None,464.49097580000523,None,2022-11-30-08:26:48.264805,464.50913030002266,464.8291196000064,464.50913030002266,None,None,464.50913030002266,None,465.3074365000124,None,,,,21016,0002,2022_Nov_30_0819,localizer,2021.1.3,58.36171656774447,
block,faces,faces008.bmp,,,,,0,28,28,28,,,,,,,,,,,,,,,,,,,,,,,,,,,,,,,,,,,,,,,,,,None,,465.3074365000124,None,465.3074365000124,None,2022-11-30-08:26:49.082058,465.3224062999943,465.62337200006004,465.3224062999943,None,None,465.3224062999943,None,466.1236233000294,None,,,,21016,0002,2022_Nov_30_0819,localizer,2021.1.3,58.36171656774447,
block,faces,faces017.bmp,,,,,0,29,29,29,,,,,,,,,,,,,,,,,,,,,,,,,,,,,,,,,,,,,,,,,,None,,466.1236233000294,None,466.1236233000294,None,2022-11-30-08:26:49.897274,466.136306899949,466.43942790001165,466.136306899949,None,None,466.136306899949,None,466.9417282999842,None,,,,21016,0002,2022_Nov_30_0819,localizer,2021.1.3,58.36171656774447,
block_end,faces,faces009.bmp,,,,,0,30,30,30,,,,,,,,,,,,,,,,,,,,,,,,,,,,,,,,,,,,,,,,,,None,,466.9417282999842,None,466.9417282999842,None,2022-11-30-08:26:50.717395,466.9457848999882,467.2568337999983,466.9457848999882,None,None,466.9457848999882,None,467.7564121999661,None,,,,21016,0002,2022_Nov_30_0819,localizer,2021.1.3,58.36171656774447,
block_start,objects,objects044.bmp,,,,,0,31,31,31,,,,,,,,,,,,,,,,,,,,,,,,,,,,,,,,,,,,,,,,,,t,1.7872816000599414,467.7563367000548,None,467.7563367000548,None,2022-11-30-08:26:53.344877,469.5817550000502,469.8895555000054,469.5817550000502,None,None,469.5817550000502,None,470.3898589000222,None,,,,21016,0002,2022_Nov_30_0819,localizer,2021.1.3,58.36171656774447,
block,objects,objects042.bmp,,,,,0,32,32,32,,,,,,,,,,,,,,,,,,,,,,,,,,,,,,,,,,,,,,,,,,None,,470.3898589000222,None,470.3898589000222,None,2022-11-30-08:26:54.162521,470.40102850005496,470.7064226999646,470.40102850005496,None,None,470.40102850005496,None,471.2075933999498,None,,,,21016,0002,2022_Nov_30_0819,localizer,2021.1.3,58.36171656774447,
block,objects,objects045.bmp,,,,,0,33,33,33,,,,,,,,,,,,,,,,,,,,,,,,,,,,,,,,,,,,,,,,,,None,,471.2075933999498,None,471.2075933999498,None,2022-11-30-08:26:54.982327,471.2098960999865,471.5235533999512,471.2098960999865,None,None,471.2098960999865,None,472.02363270000785,None,,,,21016,0002,2022_Nov_30_0819,localizer,2021.1.3,58.36171656774447,
block,objects,objects047.bmp,,,,,0,34,34,34,,,,,,,,,,,,,,,,,,,,,,,,,,,,,,,,,,,,,,,,,,None,,472.02363270000785,None,472.02363270000785,None,2022-11-30-08:26:55.797341,472.0244188000215,472.323594699963,472.0244188000215,None,None,472.0244188000215,None,472.8397410000092,None,,,,21016,0002,2022_Nov_30_0819,localizer,2021.1.3,58.36171656774447,
block,objects,objects076.bmp,,,,,0,35,35,35,,,,,,,,,,,,,,,,,,,,,,,,,,,,,,,,,,,,,,,,,,None,,472.8397410000092,None,472.8397410000092,None,2022-11-30-08:26:56.612623,472.850950299995,473.1564415000612,472.850950299995,None,None,472.850950299995,None,473.6568074999726,None,,,,21016,0002,2022_Nov_30_0819,localizer,2021.1.3,58.36171656774447,
block,objects,objects014.bmp,,,,,0,36,36,36,,,,,,,,,,,,,,,,,,,,,,,,,,,,,,,,,,,,,,,,,,None,,473.6568074999726,None,473.6568074999726,None,2022-11-30-08:26:57.430459,473.65753319999203,473.9564073999645,473.65753319999203,None,None,473.65753319999203,None,474.47301710004683,None,,,,21016,0002,2022_Nov_30_0819,localizer,2021.1.3,58.36171656774447,
block,objects,objects053.bmp,,,,,0,37,37,37,,,,,,,,,,,,,,,,,,,,,,,,,,,,,,,,,,,,,,,,,,None,,474.47301710004683,None,474.47301710004683,None,2022-11-30-08:26:58.245714,474.4837098000571,474.79032260004897,474.4837098000571,None,None,474.4837098000571,None,475.29036350004606,None,,,,21016,0002,2022_Nov_30_0819,localizer,2021.1.3,58.36171656774447,
block,objects,objects064.bmp,,,,,0,38,38,38,,,,,,,,,,,,,,,,,,,,,,,,,,,,,,,,,,,,,,,,,,None,,475.29036350004606,None,475.29036350004606,None,2022-11-30-08:26:59.064204,475.2907527999487,475.590190500021,475.2907527999487,None,None,475.2907527999487,None,476.0903503999929,None,,,,21016,0002,2022_Nov_30_0819,localizer,2021.1.3,58.36171656774447,
block,objects,objects039.bmp,,,,,0,39,39,39,,,,,,,,,,,,,,,,,,,,,,,,,,,,,,,,,,,,,,,,,,None,,476.0903503999929,None,476.0903503999929,None,2022-11-30-08:26:59.865998,476.0931298000505,476.4062594999559,476.0931298000505,476.0931298000505,None,476.0931298000505,476.0931298000505,476.9064818000537,None,,,,21016,0002,2022_Nov_30_0819,localizer,2021.1.3,58.36171656774447,
block,objects,objects009.bmp,,,,,0,40,40,40,,,,,,,,,,,,,,,,,,,,,,,,,,,,,,,,,,,,,,,,,,None,,476.9064818000537,None,476.9064818000537,None,2022-11-30-08:27:00.679148,476.91332789999433,477.2270220000064,476.91332789999433,None,None,476.91332789999433,None,477.7226803000434,None,,,,21016,0002,2022_Nov_30_0819,localizer,2021.1.3,58.36171656774447,
block,objects,objects012.bmp,,,,,0,41,41,41,,,,,,,,,,,,,,,,,,,,,,,,,,,,,,,,,,,,,,,,,,None,,477.7226803000434,None,477.7226803000434,None,2022-11-30-08:27:01.495275,477.7327195999678,478.0396506000543,477.7327195999678,None,None,477.7327195999678,None,478.5398102000239,None,,,,21016,0002,2022_Nov_30_0819,localizer,2021.1.3,58.36171656774447,
block,objects,objects063.bmp,,,,,0,42,42,42,,,,,,,,,,,,,,,,,,,,,,,,,,,,,,,,,,,,,,,,,,None,,478.5398102000239,None,478.5398102000239,None,2022-11-30-08:27:02.312690,478.54078829998616,478.85580370004755,478.54078829998616,None,None,478.54078829998616,None,479.33995670002184,None,,,,21016,0002,2022_Nov_30_0819,localizer,2021.1.3,58.36171656774447,
block,objects,objects031.bmp,,,,,0,43,43,43,,,,,,,,,,,,,,,,,,,,,,,,,,,,,,,,,,,,,,,,,,None,,479.33995670002184,None,479.33995670002184,None,2022-11-30-08:27:03.114615,479.3518975999905,479.65611950005405,479.3518975999905,479.3518975999905,None,479.3518975999905,479.3518975999905,480.15653469999086,None,,,,21016,0002,2022_Nov_30_0819,localizer,2021.1.3,58.36171656774447,
block,objects,objects003.bmp,,,,,0,44,44,44,,,,,,,,,,,,,,,,,,,,,,,,,,,,,,,,,,,,,,,,,,None,,480.15653469999086,None,480.15653469999086,None,2022-11-30-08:27:03.929223,480.1673426000634,480.47293609997723,480.1673426000634,None,None,480.1673426000634,None,480.973128399963,None,,,,21016,0002,2022_Nov_30_0819,localizer,2021.1.3,58.36171656774447,
block_end,objects,objects027.bmp,,,,,0,45,45,45,,,,,,,,,,,,,,,,,,,,,,,,,,,,,,,,,,,,,,,,,,None,,480.973128399963,None,480.973128399963,None,2022-11-30-08:27:04.745794,480.98360949999187,481.2898565999931,480.98360949999187,None,None,480.98360949999187,None,481.7898387000081,None,,,,21016,0002,2022_Nov_30_0819,localizer,2021.1.3,58.36171656774447,
block_start,scrambled,scrambled045.bmp,,,,,0,46,46,46,,,,,,,,,,,,,,,,,,,,,,,,,,,,,,,,,,,,,,,,,,t,1.7527536998968571,481.7897872000467,None,481.7897872000467,None,2022-11-30-08:27:07.350665,483.59247020003386,483.90635699999984,483.59247020003386,None,None,483.59247020003386,None,484.39010640004415,None,,,,21016,0002,2022_Nov_30_0819,localizer,2021.1.3,58.36171656774447,
block,scrambled,scrambled029.bmp,,,,,0,47,47,47,,,,,,,,,,,,,,,,,,,,,,,,,,,,,,,,,,,,,,,,,,None,,484.39010640004415,None,484.39010640004415,None,2022-11-30-08:27:08.162941,484.40078679996077,484.70624049997423,484.40078679996077,None,None,484.40078679996077,None,485.20744429997865,None,,,,21016,0002,2022_Nov_30_0819,localizer,2021.1.3,58.36171656774447,
block,scrambled,scrambled032.bmp,,,,,0,48,48,48,,,,,,,,,,,,,,,,,,,,,,,,,,,,,,,,,,,,,,,,,,None,,485.20744429997865,None,485.20744429997865,None,2022-11-30-08:27:08.981285,485.21981369995046,485.52304100000765,485.21981369995046,None,None,485.21981369995046,None,486.0231633000425,None,,,,21016,0002,2022_Nov_30_0819,localizer,2021.1.3,58.36171656774447,
block,scrambled,scrambled075.bmp,,,,,0,49,49,49,,,,,,,,,,,,,,,,,,,,,,,,,,,,,,,,,,,,,,,,,,None,,486.0231633000425,None,486.0231633000425,None,2022-11-30-08:27:09.795910,486.034242899972,486.33962810004596,486.034242899972,None,None,486.034242899972,None,486.8410066999844,None,,,,21016,0002,2022_Nov_30_0819,localizer,2021.1.3,58.36171656774447,
block,scrambled,scrambled066.bmp,,,,,0,50,50,50,,,,,,,,,,,,,,,,,,,,,,,,,,,,,,,,,,,,,,,,,,None,,486.8410066999844,None,486.8410066999844,None,2022-11-30-08:27:10.614652,486.8428699000506,487.15706150000915,486.8428699000506,None,None,486.8428699000506,None,487.65713580002773,None,,,,21016,0002,2022_Nov_30_0819,localizer,2021.1.3,58.36171656774447,
block,scrambled,scrambled077.bmp,,,,,0,51,51,51,,,,,,,,,,,,,,,,,,,,,,,,,,,,,,,,,,,,,,,,,,None,,487.65713580002773,None,487.65713580002773,None,2022-11-30-08:27:11.430747,487.6696187000489,487.9729760000482,487.6696187000489,None,None,487.6696187000489,None,488.4732090999954,None,,,,21016,0002,2022_Nov_30_0819,localizer,2021.1.3,58.36171656774447,
block,scrambled,scrambled048.bmp,,,,,0,52,52,52,,,,,,,,,,,,,,,,,,,,,,,,,,,,,,,,,,,,,,,,,,None,,488.4732090999954,None,488.4732090999954,None,2022-11-30-08:27:12.245874,488.47402009996586,488.7737693999661,488.47402009996586,None,None,488.47402009996586,None,489.2737565000192,None,,,,21016,0002,2022_Nov_30_0819,localizer,2021.1.3,58.36171656774447,
block,scrambled,scrambled067.bmp,,,,,0,53,53,53,,,,,,,,,,,,,,,,,,,,,,,,,,,,,,,,,,,,,,,,,,None,,489.2737565000192,None,489.2737565000192,None,2022-11-30-08:27:13.049355,489.2882265000371,489.5894036999671,489.2882265000371,489.2882265000371,None,489.2882265000371,489.2882265000371,490.0899149000528,None,,,,21016,0002,2022_Nov_30_0819,localizer,2021.1.3,58.36171656774447,
block,scrambled,scrambled052.bmp,,,,,0,54,54,54,,,,,,,,,,,,,,,,,,,,,,,,,,,,,,,,,,,,,,,,,,None,,490.0899149000528,None,490.0899149000528,None,2022-11-30-08:27:13.862576,490.09047850000206,490.3900369000621,490.09047850000206,None,None,490.09047850000206,None,490.89050070001974,None,,,,21016,0002,2022_Nov_30_0819,localizer,2021.1.3,58.36171656774447,
block,scrambled,scrambled060.bmp,,,,,0,55,55,55,,,,,,,,,,,,,,,,,,,,,,,,,,,,,,,,,,,,,,,,,,None,,490.89050070001974,None,490.89050070001974,None,2022-11-30-08:27:14.666147,490.9052593000233,491.2062649000436,490.9052593000233,490.9052593000233,None,490.9052593000233,490.9052593000233,491.70666289996586,None,,,,21016,0002,2022_Nov_30_0819,localizer,2021.1.3,58.36171656774447,
block,scrambled,scrambled020.bmp,,,,,0,56,56,56,,,,,,,,,,,,,,,,,,,,,,,,,,,,,,,,,,,,,,,,,,None,,491.70666289996586,None,491.70666289996586,None,2022-11-30-08:27:15.479285,491.70703289995436,492.0067819999531,491.70703289995436,None,None,491.70703289995436,None,492.50687009996034,None,,,,21016,0002,2022_Nov_30_0819,localizer,2021.1.3,58.36171656774447,
block,scrambled,scrambled011.bmp,,,,,0,57,57,57,,,,,,,,,,,,,,,,,,,,,,,,,,,,,,,,,,,,,,,,,,None,,492.50687009996034,None,492.50687009996034,None,2022-11-30-08:27:16.281506,492.50945969996974,492.8228953999933,492.50945969996974,492.50945969996974,None,492.50945969996974,492.50945969996974,493.3238167000585,None,,,,21016,0002,2022_Nov_30_0819,localizer,2021.1.3,58.36171656774447,
block,scrambled,scrambled063.bmp,,,,,0,58,58,58,,,,,,,,,,,,,,,,,,,,,,,,,,,,,,,,,,,,,,,,,,None,,493.3238167000585,None,493.3238167000585,None,2022-11-30-08:27:17.097638,493.3243049000157,493.6236590000335,493.3243049000157,None,None,493.3243049000157,None,494.12386920003917,None,,,,21016,0002,2022_Nov_30_0819,localizer,2021.1.3,58.36171656774447,
block,scrambled,scrambled056.bmp,,,,,0,59,59,59,,,,,,,,,,,,,,,,,,,,,,,,,,,,,,,,,,,,,,,,,,None,,494.12386920003917,None,494.12386920003917,None,2022-11-30-08:27:17.899710,494.13762960000895,494.4396988999797,494.13762960000895,494.13762960000895,None,494.13762960000895,494.13762960000895,494.9397704999777,None,,,,21016,0002,2022_Nov_30_0819,localizer,2021.1.3,58.36171656774447,
block_end,scrambled,scrambled064.bmp,,,,,0,60,60,60,,,,,,,,,,,,,,,,,,,,,,,,,,,,,,,,,,,,,,,,,,None,,494.9397704999777,None,494.9397704999777,None,2022-11-30-08:27:18.712438,494.94976200000383,495.2563448000001,494.94976200000383,None,None,494.94976200000383,None,495.75663490003205,None,,,,21016,0002,2022_Nov_30_0819,localizer,2021.1.3,58.36171656774447,
null_block,null_block,null_block.bmp,,,,,0,61,61,61,,,,,,,,,,,,,,,,,,,,,,,,,,,,,,,,,,,,,,,,,,t,1.7859368999488652,495.7564360999968,None,495.7564360999968,None,2022-11-30-08:27:21.345868,497.5731839000131,None,497.5731839000131,None,None,497.5731839000131,None,497.5754852000391,None,,,,21016,0002,2022_Nov_30_0819,localizer,2021.1.3,58.36171656774447,
block_start,objects,objects037.bmp,,,,,0,62,62,62,,,,,,,,,,,,,,,,,,,,,,,,,,,,,,,,,,,,,,,,,,t,1.952492400072515,509.59000009996817,None,509.59000009996817,None,2022-11-30-08:27:35.349607,511.5757576000178,511.8897636999609,511.5757576000178,None,None,511.5757576000178,None,512.3901457999949,None,,,,21016,0002,2022_Nov_30_0819,localizer,2021.1.3,58.36171656774447,
block,objects,objects076.bmp,,,,,0,63,63,63,,,,,,,,,,,,,,,,,,,,,,,,,,,,,,,,,,,,,,,,,,None,,512.3901457999949,None,512.3901457999949,None,2022-11-30-08:27:36.162621,512.3908360999776,512.7062965000514,512.3908360999776,None,None,512.3908360999776,None,513.1901312000467,None,,,,21016,0002,2022_Nov_30_0819,localizer,2021.1.3,58.36171656774447,
block,objects,objects083.bmp,,,,,0,64,64,64,,,,,,,,,,,,,,,,,,,,,,,,,,,,,,,,,,,,,,,,,,None,,513.1901312000467,None,513.1901312000467,None,2022-11-30-08:27:36.965006,513.2042181000579,513.5069125000155,513.2042181000579,513.2042181000579,None,513.2042181000579,513.2042181000579,514.0068785000243,None,,,,21016,0002,2022_Nov_30_0819,localizer,2021.1.3,58.36171656774447,
block,objects,objects068.bmp,,,,,0,65,65,65,,,,,,,,,,,,,,,,,,,,,,,,,,,,,,,,,,,,,,,,,,None,,514.0068785000243,None,514.0068785000243,None,2022-11-30-08:27:37.779541,514.0177737000631,514.323338999995,514.0177737000631,None,None,514.0177737000631,None,514.8234323000419,None,,,,21016,0002,2022_Nov_30_0819,localizer,2021.1.3,58.36171656774447,
block,objects,objects055.bmp,,,,,0,66,66,66,,,,,,,,,,,,,,,,,,,,,,,,,,,,,,,,,,,,,,,,,,None,,514.8234323000419,None,514.8234323000419,None,2022-11-30-08:27:38.596281,514.8241632999852,515.1233319999883,514.8241632999852,None,None,514.8241632999852,None,515.623422400013,None,,,,21016,0002,2022_Nov_30_0819,localizer,2021.1.3,58.36171656774447,
block,objects,objects051.bmp,,,,,0,67,67,67,,,,,,,,,,,,,,,,,,,,,,,,,,,,,,,,,,,,,,,,,,None,,515.623422400013,None,515.623422400013,None,2022-11-30-08:27:39.398081,515.6356790000573,515.939768500044,515.6356790000573,515.6356790000573,None,515.6356790000573,515.6356790000573,516.4400168999913,None,,,,21016,0002,2022_Nov_30_0819,localizer,2021.1.3,58.36171656774447,
block,objects,objects028.bmp,,,,,0,68,68,68,,,,,,,,,,,,,,,,,,,,,,,,,,,,,,,,,,,,,,,,,,None,,516.4400168999913,None,516.4400168999913,None,2022-11-30-08:27:40.212681,516.4407932000468,516.7398872000631,516.4407932000468,None,None,516.4407932000468,None,517.2400678999605,None,,,,21016,0002,2022_Nov_30_0819,localizer,2021.1.3,58.36171656774447,
block,objects,objects062.bmp,,,,,0,69,69,69,,,,,,,,,,,,,,,,,,,,,,,,,,,,,,,,,,,,,,,,,,None,,517.2400678999605,None,517.2400678999605,None,2022-11-30-08:27:41.014727,517.2413144999882,517.5565017999616,517.2413144999882,517.2413144999882,None,517.2413144999882,517.2413144999882,518.055877800018,None,,,,21016,0002,2022_Nov_30_0819,localizer,2021.1.3,58.36171656774447,
block,objects,objects045.bmp,,,,,0,70,70,70,,,,,,,,,,,,,,,,,,,,,,,,,,,,,,,,,,,,,,,,,,None,,518.055877800018,None,518.055877800018,None,2022-11-30-08:27:41.827131,518.0570313000353,518.3563855000539,518.0570313000353,None,None,518.0570313000353,None,518.8566422999487,None,,,,21016,0002,2022_Nov_30_0819,localizer,2021.1.3,58.36171656774447,
block,objects,objects039.bmp,,,,,0,71,71,71,,,,,,,,,,,,,,,,,,,,,,,,,,,,,,,,,,,,,,,,,,None,,518.8566422999487,None,518.8566422999487,None,2022-11-30-08:27:42.630306,518.8575971999671,519.1729339000303,518.8575971999671,518.8575971999671,None,518.8575971999671,518.8575971999671,519.6603563999873,None,,,,21016,0002,2022_Nov_30_0819,localizer,2021.1.3,58.36171656774447,
block,objects,objects035.bmp,,,,,0,72,72,72,,,,,,,,,,,,,,,,,,,,,,,,,,,,,,,,,,,,,,,,,,None,,519.6603563999873,None,519.6603563999873,None,2022-11-30-08:27:43.439085,519.6842471000273,519.9907085000305,519.6842471000273,519.6842471000273,None,519.6842471000273,519.6842471000273,520.4742413000553,None,,,,21016,0002,2022_Nov_30_0819,localizer,2021.1.3,58.36171656774447,
block,objects,objects002.bmp,,,,,0,73,73,73,,,,,,,,,,,,,,,,,,,,,,,,,,,,,,,,,,,,,,,,,,None,,520.4742413000553,None,520.4742413000553,None,2022-11-30-08:27:44.247890,520.4865071000531,520.7900621000445,520.4865071000531,None,None,520.4865071000531,None,521.291282699944,None,,,,21016,0002,2022_Nov_30_0819,localizer,2021.1.3,58.36171656774447,
block,objects,objects016.bmp,,,,,0,74,74,74,,,,,,,,,,,,,,,,,,,,,,,,,,,,,,,,,,,,,,,,,,None,,521.291282699944,None,521.291282699944,None,2022-11-30-08:27:45.065855,521.3092032000422,521.623102099984,521.3092032000422,None,None,521.3092032000422,None,522.1067438000231,None,,,,21016,0002,2022_Nov_30_0819,localizer,2021.1.3,58.36171656774447,
block,objects,objects038.bmp,,,,,0,75,75,75,,,,,,,,,,,,,,,,,,,,,,,,,,,,,,,,,,,,,,,,,,None,,522.1067438000231,None,522.1067438000231,None,2022-11-30-08:27:45.879409,522.1169761000201,522.4231198000489,522.1169761000201,None,None,522.1169761000201,None,522.923619500047,None,,,,21016,0002,2022_Nov_30_0819,localizer,2021.1.3,58.36171656774447,
block_end,objects,objects021.bmp,,,,,0,76,76,76,,,,,,,,,,,,,,,,,,,,,,,,,,,,,,,,,,,,,,,,,,None,,522.923619500047,None,522.923619500047,None,2022-11-30-08:27:46.696394,522.9242527000606,523.2233830000041,522.9242527000606,None,None,522.9242527000606,None,523.7234328999533,None,,,,21016,0002,2022_Nov_30_0819,localizer,2021.1.3,58.36171656774447,
block_start,faces,faces036.bmp,,,,,0,77,77,77,,,,,,,,,,,,,,,,,,,,,,,,,,,,,,,,,,,,,,,,,,t,1.8194748000241816,523.7231135000475,None,523.7231135000475,None,2022-11-30-08:27:49.333497,525.5604123000521,525.8734997999854,525.5604123000521,None,None,525.5604123000521,None,526.3736480999854,None,,,,21016,0002,2022_Nov_30_0819,localizer,2021.1.3,58.36171656774447,
block,faces,faces008.bmp,,,,,0,78,78,78,,,,,,,,,,,,,,,,,,,,,,,,,,,,,,,,,,,,,,,,,,None,,526.3736480999854,None,526.3736480999854,None,2022-11-30-08:27:50.146518,526.3740871000336,526.67284689995,526.3740871000336,None,None,526.3740871000336,None,527.2073988000512,None,,,,21016,0002,2022_Nov_30_0819,localizer,2021.1.3,58.36171656774447,
block,faces,faces033.bmp,,,,,0,79,79,79,,,,,,,,,,,,,,,,,,,,,,,,,,,,,,,,,,,,,,,,,,None,,527.2073988000512,None,527.2073988000512,None,2022-11-30-08:27:50.980558,527.205855499953,527.5067812000634,527.205855499953,527.205855499953,None,527.205855499953,527.205855499953,528.0074126000167,None,,,,21016,0002,2022_Nov_30_0819,localizer,2021.1.3,58.36171656774447,
block,faces,faces046.bmp,,,,,0,80,80,80,,,,,,,,,,,,,,,,,,,,,,,,,,,,,,,,,,,,,,,,,,None,,528.0074126000167,None,528.0074126000167,None,2022-11-30-08:27:51.783252,528.0096772999968,528.3239267000463,528.0096772999968,528.0096772999968,None,528.0096772999968,528.0096772999968,528.8239794000168,None,,,,21016,0002,2022_Nov_30_0819,localizer,2021.1.3,58.36171656774447,
block,faces,faces081.bmp,,,,,0,81,81,81,,,,,,,,,,,,,,,,,,,,,,,,,,,,,,,,,,,,,,,,,,None,,528.8239794000168,None,528.8239794000168,None,2022-11-30-08:27:52.597809,528.8327677999623,529.1399133000523,528.8327677999623,None,None,528.8327677999623,None,529.6397812000126,None,,,,21016,0002,2022_Nov_30_0819,localizer,2021.1.3,58.36171656774447,
block,faces,faces037.bmp,,,,,0,82,82,82,,,,,,,,,,,,,,,,,,,,,,,,,,,,,,,,,,,,,,,,,,None,,529.6397812000126,None,529.6397812000126,None,2022-11-30-08:27:53.412446,529.641152300057,529.9405084999744,529.641152300057,None,None,529.641152300057,None,530.4407268000417,None,,,,21016,0002,2022_Nov_30_0819,localizer,2021.1.3,58.36171656774447,
block,faces,faces007.bmp,,,,,0,83,83,83,,,,,,,,,,,,,,,,,,,,,,,,,,,,,,,,,,,,,,,,,,None,,530.4407268000417,None,530.4407268000417,None,2022-11-30-08:27:54.216574,530.4437155999476,530.7564122000476,530.4437155999476,530.4437155999476,None,530.4437155999476,530.4437155999476,531.257049400045,None,,,,21016,0002,2022_Nov_30_0819,localizer,2021.1.3,58.36171656774447,
block,faces,faces034.bmp,,,,,0,84,84,84,,,,,,,,,,,,,,,,,,,,,,,,,,,,,,,,,,,,,,,,,,None,,531.257049400045,None,531.257049400045,None,2022-11-30-08:27:55.030706,531.2688663000008,531.5734158999985,531.2688663000008,None,None,531.2688663000008,None,532.0733647999936,None,,,,21016,0002,2022_Nov_30_0819,localizer,2021.1.3,58.36171656774447,
block,faces,faces004.bmp,,,,,0,85,85,85,,,,,,,,,,,,,,,,,,,,,,,,,,,,,,,,,,,,,,,,,,None,,532.0733647999936,None,532.0733647999936,None,2022-11-30-08:27:55.846030,532.0835651999805,532.3899718000321,532.0835651999805,None,None,532.0835651999805,None,532.8903490000288,None,,,,21016,0002,2022_Nov_30_0819,localizer,2021.1.3,58.36171656774447,
block,faces,faces012.bmp,,,,,0,86,86,86,,,,,,,,,,,,,,,,,,,,,,,,,,,,,,,,,,,,,,,,,,None,,532.8903490000288,None,532.8903490000288,None,2022-11-30-08:27:56.663231,532.8910965999821,533.190178800025,532.8910965999821,None,None,532.8910965999821,None,533.6903232999961,None,,,,21016,0002,2022_Nov_30_0819,localizer,2021.1.3,58.36171656774447,
block,faces,faces089.bmp,,,,,0,87,87,87,,,,,,,,,,,,,,,,,,,,,,,,,,,,,,,,,,,,,,,,,,None,,533.6903232999961,None,533.6903232999961,None,2022-11-30-08:27:57.464271,533.7021381000523,534.0068242000416,533.7021381000523,533.7021381000523,None,533.7021381000523,533.7021381000523,534.5089754000422,None,,,,21016,0002,2022_Nov_30_0819,localizer,2021.1.3,58.36171656774447,
block,faces,faces083.bmp,,,,,0,88,88,88,,,,,,,,,,,,,,,,,,,,,,,,,,,,,,,,,,,,,,,,,,None,,534.5089754000422,None,534.5089754000422,None,2022-11-30-08:27:58.285804,534.5129566000542,534.823032699991,534.5129566000542,None,None,534.5129566000542,None,535.3233369000139,None,,,,21016,0002,2022_Nov_30_0819,localizer,2021.1.3,58.36171656774447,
block,faces,faces054.bmp,,,,,0,89,89,89,,,,,,,,,,,,,,,,,,,,,,,,,,,,,,,,,,,,,,,,,,None,,535.3233369000139,None,535.3233369000139,None,2022-11-30-08:27:59.096009,535.3244197999593,535.6395884000231,535.3244197999593,None,None,535.3244197999593,None,536.124671599979,None,,,,21016,0002,2022_Nov_30_0819,localizer,2021.1.3,58.36171656774447,
block,faces,faces015.bmp,,,,,0,90,90,90,,,,,,,,,,,,,,,,,,,,,,,,,,,,,,,,,,,,,,,,,,None,,536.124671599979,None,536.124671599979,None,2022-11-30-08:27:59.901501,536.1289118999848,536.4407729000086,536.1289118999848,536.1289118999848,None,536.1289118999848,536.1289118999848,536.9400990000344,None,,,,21016,0002,2022_Nov_30_0819,localizer,2021.1.3,58.36171656774447,
block_end,faces,faces044.bmp,,,,,0,91,91,91,,,,,,,,,,,,,,,,,,,,,,,,,,,,,,,,,,,,,,,,,,None,,536.9400990000344,None,536.9400990000344,None,2022-11-30-08:28:00.712766,536.9511584000429,537.2555857000407,536.9511584000429,None,None,536.9511584000429,None,537.7580498999799,None,,,,21016,0002,2022_Nov_30_0819,localizer,2021.1.3,58.36171656774447,
block_start,scenes,scenes016.bmp,,,,,0,92,92,92,,,,,,,,,,,,,,,,,,,,,,,,,,,,,,,,,,,,,,,,,,t,1.7842882999684662,537.758025099989,None,537.758025099989,None,2022-11-30-08:28:03.329990,539.5577773000114,539.87334619998,539.5577773000114,None,None,539.5577773000114,None,540.3570837000501,None,,,,21016,0002,2022_Nov_30_0819,localizer,2021.1.3,58.36171656774447,
block,scenes,scenes073.bmp,,,,,0,93,93,93,,,,,,,,,,,,,,,,,,,,,,,,,,,,,,,,,,,,,,,,,,None,,540.3570837000501,None,540.3570837000501,None,2022-11-30-08:28:04.131934,540.3728699999629,540.6739428000292,540.3728699999629,540.3728699999629,None,540.3728699999629,540.3728699999629,541.1743497000192,None,,,,21016,0002,2022_Nov_30_0819,localizer,2021.1.3,58.36171656774447,
block,scenes,scenes081.bmp,,,,,0,94,94,94,,,,,,,,,,,,,,,,,,,,,,,,,,,,,,,,,,,,,,,,,,None,,541.1743497000192,None,541.1743497000192,None,2022-11-30-08:28:04.948203,541.1769329999806,541.4906028000405,541.1769329999806,None,None,541.1769329999806,None,541.9900231999694,None,,,,21016,0002,2022_Nov_30_0819,localizer,2021.1.3,58.36171656774447,
block,scenes,scenes079.bmp,,,,,0,95,95,95,,,,,,,,,,,,,,,,,,,,,,,,,,,,,,,,,,,,,,,,,,None,,541.9900231999694,None,541.9900231999694,None,2022-11-30-08:28:05.762861,541.990762899979,542.2899397000438,541.990762899979,None,None,541.990762899979,None,542.7901538999635,None,,,,21016,0002,2022_Nov_30_0819,localizer,2021.1.3,58.36171656774447,
block,scenes,scenes010.bmp,,,,,0,96,96,96,,,,,,,,,,,,,,,,,,,,,,,,,,,,,,,,,,,,,,,,,,None,,542.7901538999635,None,542.7901538999635,None,2022-11-30-08:28:06.563817,542.8021234000335,543.1066772999475,542.8021234000335,542.8021234000335,None,542.8021234000335,542.8021234000335,543.6071615999448,None,,,,21016,0002,2022_Nov_30_0819,localizer,2021.1.3,58.36171656774447,
block,scenes,scenes091.bmp,,,,,0,97,97,97,,,,,,,,,,,,,,,,,,,,,,,,,,,,,,,,,,,,,,,,,,None,,543.6071615999448,None,543.6071615999448,None,2022-11-30-08:28:07.380027,543.6077427000273,543.9079312999966,543.6077427000273,None,None,543.6077427000273,None,544.4080293999635,None,,,,21016,0002,2022_Nov_30_0819,localizer,2021.1.3,58.36171656774447,
block,scenes,scenes031.bmp,,,,,0,98,98,98,,,,,,,,,,,,,,,,,,,,,,,,,,,,,,,,,,,,,,,,,,None,,544.4080293999635,None,544.4080293999635,None,2022-11-30-08:28:08.184763,544.4119877000339,544.7232227999484,544.4119877000339,544.4119877000339,None,544.4119877000339,544.4119877000339,545.2236333999666,None,,,,21016,0002,2022_Nov_30_0819,localizer,2021.1.3,58.36171656774447,
block,scenes,scenes044.bmp,,,,,0,99,99,99,,,,,,,,,,,,,,,,,,,,,,,,,,,,,,,,,,,,,,,,,,None,,545.2236333999666,None,545.2236333999666,None,2022-11-30-08:28:08.996438,545.2243107999675,545.5234547000146,545.2243107999675,None,None,545.2243107999675,None,546.0234655000153,None,,,,21016,0002,2022_Nov_30_0819,localizer,2021.1.3,58.36171656774447,
block,scenes,scenes061.bmp,,,,,0,100,100,100,,,,,,,,,,,,,,,,,,,,,,,,,,,,,,,,,,,,,,,,,,None,,546.0234655000153,None,546.0234655000153,None,2022-11-30-08:28:09.797131,546.0243480999488,546.3234649000224,546.0243480999488,546.0243480999488,None,546.0243480999488,546.0243480999488,546.8237390000489,None,,,,21016,0002,2022_Nov_30_0819,localizer,2021.1.3,58.36171656774447,
block,scenes,scenes089.bmp,,,,,0,101,101,101,,,,,,,,,,,,,,,,,,,,,,,,,,,,,,,,,,,,,,,,,,None,,546.8237390000489,None,546.8237390000489,None,2022-11-30-08:28:10.598395,546.8367519000312,547.1400533999549,546.8367519000312,546.8367519000312,None,546.8367519000312,546.8367519000312,547.6402477999567,None,,,,21016,0002,2022_Nov_30_0819,localizer,2021.1.3,58.36171656774447,
block,scenes,scenes023.bmp,,,,,0,102,102,102,,,,,,,,,,,,,,,,,,,,,,,,,,,,,,,,,,,,,,,,,,None,,547.6402477999567,None,547.6402477999567,None,2022-11-30-08:28:11.412895,547.6510686000111,547.9570569000207,547.6510686000111,None,None,547.6510686000111,None,548.4569604000193,None,,,,21016,0002,2022_Nov_30_0819,localizer,2021.1.3,58.36171656774447,
block,scenes,scenes022.bmp,,,,,0,103,103,103,,,,,,,,,,,,,,,,,,,,,,,,,,,,,,,,,,,,,,,,,,None,,548.4569604000193,None,548.4569604000193,None,2022-11-30-08:28:12.229623,548.4577301000245,548.7568024999928,548.4577301000245,None,None,548.4577301000245,None,549.2570348000503,None,,,,21016,0002,2022_Nov_30_0819,localizer,2021.1.3,58.36171656774447,
block,scenes,scenes050.bmp,,,,,0,104,104,104,,,,,,,,,,,,,,,,,,,,,,,,,,,,,,,,,,,,,,,,,,None,,549.2570348000503,None,549.2570348000503,None,2022-11-30-08:28:13.031901,549.26984860003,549.5733512999723,549.26984860003,549.26984860003,None,549.26984860003,549.26984860003,550.0737280999659,None,,,,21016,0002,2022_Nov_30_0819,localizer,2021.1.3,58.36171656774447,
block,scenes,scenes046.bmp,,,,,0,105,105,105,,,,,,,,,,,,,,,,,,,,,,,,,,,,,,,,,,,,,,,,,,None,,550.0737280999659,None,550.0737280999659,None,2022-11-30-08:28:13.846393,550.074424099992,550.3734555999981,550.074424099992,None,None,550.074424099992,None,550.8737766000326,None,,,,21016,0002,2022_Nov_30_0819,localizer,2021.1.3,58.36171656774447,
block_end,scenes,scenes054.bmp,,,,,0,106,106,106,,,,,,,,,,,,,,,,,,,,,,,,,,,,,,,,,,,,,,,,,,None,,550.8737766000326,None,550.8737766000326,None,2022-11-30-08:28:14.648194,550.8748430999694,551.1899968000362,550.8748430999694,550.8748430999694,None,550.8748430999694,550.8748430999694,551.6903199999709,None,,,,21016,0002,2022_Nov_30_0819,localizer,2021.1.3,58.36171656774447,
block_start,scrambled,scrambled075.bmp,,,,,0,107,107,107,,,,,,,,,,,,,,,,,,,,,,,,,,,,,,,,,,,,,,,,,,t,1.8522889000596479,551.690007600002,None,551.690007600002,None,2022-11-30-08:28:17.332051,553.5602368999971,553.8736380999908,553.5602368999971,None,None,553.5602368999971,None,554.3735154000227,None,,,,21016,0002,2022_Nov_30_0819,localizer,2021.1.3,58.36171656774447,
block,scrambled,scrambled056.bmp,,,,,0,108,108,108,,,,,,,,,,,,,,,,,,,,,,,,,,,,,,,,,,,,,,,,,,None,,554.3735154000227,None,554.3735154000227,None,2022-11-30-08:28:18.146181,554.3743749000132,554.6735260999994,554.3743749000132,None,None,554.3743749000132,None,555.1740296000265,None,,,,21016,0002,2022_Nov_30_0819,localizer,2021.1.3,58.36171656774447,
block,scrambled,scrambled076.bmp,,,,,0,109,109,109,,,,,,,,,,,,,,,,,,,,,,,,,,,,,,,,,,,,,,,,,,None,,555.1740296000265,None,555.1740296000265,None,2022-11-30-08:28:18.948815,555.1825124999741,555.4901057999814,555.1825124999741,555.1825124999741,None,555.1825124999741,555.1825124999741,555.9903607999789,None,,,,21016,0002,2022_Nov_30_0819,localizer,2021.1.3,58.36171656774447,
block,scrambled,scrambled072.bmp,,,,,0,110,110,110,,,,,,,,,,,,,,,,,,,,,,,,,,,,,,,,,,,,,,,,,,None,,555.9903607999789,None,555.9903607999789,None,2022-11-30-08:28:19.763024,556.0014963999856,556.3073555000592,556.0014963999856,None,None,556.0014963999856,None,556.8075549999834,None,,,,21016,0002,2022_Nov_30_0819,localizer,2021.1.3,58.36171656774447,
block,scrambled,scrambled067.bmp,,,,,0,111,111,111,,,,,,,,,,,,,,,,,,,,,,,,,,,,,,,,,,,,,,,,,,None,,556.8075549999834,None,556.8075549999834,None,2022-11-30-08:28:20.581961,556.8087063999847,557.107592000044,556.8087063999847,None,None,556.8087063999847,None,557.62364869999,None,,,,21016,0002,2022_Nov_30_0819,localizer,2021.1.3,58.36171656774447,
block,scrambled,scrambled027.bmp,,,,,0,112,112,112,,,,,,,,,,,,,,,,,,,,,,,,,,,,,,,,,,,,,,,,,,None,,557.62364869999,None,557.62364869999,None,2022-11-30-08:28:21.396312,557.6347638999578,557.9401441999944,557.6347638999578,None,None,557.6347638999578,None,558.4405669999891,None,,,,21016,0002,2022_Nov_30_0819,localizer,2021.1.3,58.36171656774447,
block,scrambled,scrambled063.bmp,,,,,0,113,113,113,,,,,,,,,,,,,,,,,,,,,,,,,,,,,,,,,,,,,,,,,,None,,558.4405669999891,None,558.4405669999891,None,2022-11-30-08:28:22.213461,558.4411193999695,558.7565909000114,558.4411193999695,None,None,558.4411193999695,None,559.2403576999553,None,,,,21016,0002,2022_Nov_30_0819,localizer,2021.1.3,58.36171656774447,
block,scrambled,scrambled034.bmp,,,,,0,114,114,114,,,,,,,,,,,,,,,,,,,,,,,,,,,,,,,,,,,,,,,,,,None,,559.2403576999553,None,559.2403576999553,None,2022-11-30-08:28:23.014501,559.2518871000502,559.5567879000446,559.2518871000502,559.2518871000502,None,559.2518871000502,559.2518871000502,560.0572071000119,None,,,,21016,0002,2022_Nov_30_0819,localizer,2021.1.3,58.36171656774447,
block,scrambled,scrambled088.bmp,,,,,0,115,115,115,,,,,,,,,,,,,,,,,,,,,,,,,,,,,,,,,,,,,,,,,,None,,560.0572071000119,None,560.0572071000119,None,2022-11-30-08:28:23.829868,560.0576525999932,560.3567872999702,560.0576525999932,None,None,560.0576525999932,None,560.8582317999447,None,,,,21016,0002,2022_Nov_30_0819,localizer,2021.1.3,58.36171656774447,
block,scrambled,scrambled013.bmp,,,,,0,116,116,116,,,,,,,,,,,,,,,,,,,,,,,,,,,,,,,,,,,,,,,,,,None,,560.8582317999447,None,560.8582317999447,None,2022-11-30-08:28:24.632819,560.8587851000484,561.1734207000118,560.8587851000484,560.8587851000484,None,560.8587851000484,560.8587851000484,561.6734723999747,None,,,,21016,0002,2022_Nov_30_0819,localizer,2021.1.3,58.36171656774447,
block,scrambled,scrambled036.bmp,,,,,0,117,117,117,,,,,,,,,,,,,,,,,,,,,,,,,,,,,,,,,,,,,,,,,,None,,561.6734723999747,None,561.6734723999747,None,2022-11-30-08:28:25.446302,561.6834456999786,561.9905439000577,561.6834456999786,None,None,561.6834456999786,None,562.4905467999982,None,,,,21016,0002,2022_Nov_30_0819,localizer,2021.1.3,58.36171656774447,
block,scrambled,scrambled058.bmp,,,,,0,118,118,118,,,,,,,,,,,,,,,,,,,,,,,,,,,,,,,,,,,,,,,,,,None,,562.4905467999982,None,562.4905467999982,None,2022-11-30-08:28:26.263328,562.5013652000343,562.8068224999588,562.5013652000343,None,None,562.5013652000343,None,563.3072157999617,None,,,,21016,0002,2022_Nov_30_0819,localizer,2021.1.3,58.36171656774447,
block,scrambled,scrambled016.bmp,,,,,0,119,119,119,,,,,,,,,,,,,,,,,,,,,,,,,,,,,,,,,,,,,,,,,,None,,563.3072157999617,None,563.3072157999617,None,2022-11-30-08:28:27.080092,563.3181082999799,563.6233659000136,563.3181082999799,None,None,563.3181082999799,None,564.1240604999824,None,,,,21016,0002,2022_Nov_30_0819,localizer,2021.1.3,58.36171656774447,
block,scrambled,scrambled023.bmp,,,,,0,120,120,120,,,,,,,,,,,,,,,,,,,,,,,,,,,,,,,,,,,,,,,,,,None,,564.1240604999824,None,564.1240604999824,None,2022-11-30-08:28:27.896837,564.1245807999512,564.4238515000325,564.1245807999512,None,None,564.1245807999512,None,564.9240925000398,None,,,,21016,0002,2022_Nov_30_0819,localizer,2021.1.3,58.36171656774447,
block_end,scrambled,scrambled023.bmp,,,,,0,121,121,121,,,,,,,,,,,,,,,,,,,,,,,,,,,,,,,,,,,,,,,,,,None,,564.9240925000398,None,564.9240925000398,None,2022-11-30-08:28:28.697862,564.9245557000395,565.2233654999873,564.9245557000395,564.9245557000395,y,564.9245557000395,564.9245557000395,565.7235773000051,None,0.432765300036408,,,21016,0002,2022_Nov_30_0819,localizer,2021.1.3,58.36171656774447,
block_start,objects,objects009.bmp,,,,,0,122,122,122,,,,,,,,,,,,,,,,,,,,,,,,,,,,,,,,,,,,,,,,,,t,1.819606599980034,565.7232453000033,None,565.7232453000033,None,2022-11-30-08:28:31.338196,567.5674752000486,567.873448300059,567.5674752000486,None,None,567.5674752000486,None,568.3736573000555,None,,,,21016,0002,2022_Nov_30_0819,localizer,2021.1.3,58.36171656774447,
block,objects,objects011.bmp,,,,,0,123,123,123,,,,,,,,,,,,,,,,,,,,,,,,,,,,,,,,,,,,,,,,,,None,,568.3736573000555,None,568.3736573000555,None,2022-11-30-08:28:32.146698,568.3744132999564,568.6731930000242,568.3744132999564,None,None,568.3744132999564,None,569.1740632000495,None,,,,21016,0002,2022_Nov_30_0819,localizer,2021.1.3,58.36171656774447,
block,objects,objects010.bmp,,,,,0,124,124,124,,,,,,,,,,,,,,,,,,,,,,,,,,,,,,,,,,,,,,,,,,None,,569.1740632000495,None,569.1740632000495,None,2022-11-30-08:28:32.948686,569.1766216000542,569.4906644000439,569.1766216000542,569.1766216000542,None,569.1766216000542,569.1766216000542,569.9906425000285,None,,,,21016,0002,2022_Nov_30_0819,localizer,2021.1.3,58.36171656774447,
block,objects,objects067.bmp,,,,,0,125,125,125,,,,,,,,,,,,,,,,,,,,,,,,,,,,,,,,,,,,,,,,,,None,,569.9906425000285,None,569.9906425000285,None,2022-11-30-08:28:33.763497,569.9912539999932,570.2905619000085,569.9912539999932,None,None,569.9912539999932,None,570.7904499000055,None,,,,21016,0002,2022_Nov_30_0819,localizer,2021.1.3,58.36171656774447,
block,objects,objects017.bmp,,,,,0,126,126,126,,,,,,,,,,,,,,,,,,,,,,,,,,,,,,,,,,,,,,,,,,None,,570.7904499000055,None,570.7904499000055,None,2022-11-30-08:28:34.565109,570.7915272000246,571.1066367999883,570.7915272000246,570.7915272000246,None,570.7915272000246,570.7915272000246,571.5965215999516,None,,,,21016,0002,2022_Nov_30_0819,localizer,2021.1.3,58.36171656774447,
block,objects,objects045.bmp,,,,,0,127,127,127,,,,,,,,,,,,,,,,,,,,,,,,,,,,,,,,,,,,,,,,,,None,,571.5965215999516,None,571.5965215999516,None,2022-11-30-08:28:35.375764,571.6010292000137,571.9069552000146,571.6010292000137,571.6010292000137,None,571.6010292000137,571.6010292000137,572.4078193999943,None,,,,21016,0002,2022_Nov_30_0819,localizer,2021.1.3,58.36171656774447,
block,objects,objects002.bmp,,,,,0,128,128,128,,,,,,,,,,,,,,,,,,,,,,,,,,,,,,,,,,,,,,,,,,None,,572.4078193999943,None,572.4078193999943,None,2022-11-30-08:28:36.182256,572.4094194000354,572.724317300017,572.4094194000354,None,None,572.4094194000354,None,573.2244140999741,None,,,,21016,0002,2022_Nov_30_0819,localizer,2021.1.3,58.36171656774447,
block,objects,objects081.bmp,,,,,0,129,129,129,,,,,,,,,,,,,,,,,,,,,,,,,,,,,,,,,,,,,,,,,,None,,573.2244140999741,None,573.2244140999741,None,2022-11-30-08:28:36.998066,573.2350281999679,573.5403218000429,573.2350281999679,None,None,573.2350281999679,None,574.0408583999728,None,,,,21016,0002,2022_Nov_30_0819,localizer,2021.1.3,58.36171656774447,
block,objects,objects086.bmp,,,,,0,130,130,130,,,,,,,,,,,,,,,,,,,,,,,,,,,,,,,,,,,,,,,,,,None,,574.0408583999728,None,574.0408583999728,None,2022-11-30-08:28:37.813723,574.0411068999674,574.3405388999963,574.0411068999674,None,None,574.0411068999674,None,574.8408337999484,None,,,,21016,0002,2022_Nov_30_0819,localizer,2021.1.3,58.36171656774447,
block,objects,objects063.bmp,,,,,0,131,131,131,,,,,,,,,,,,,,,,,,,,,,,,,,,,,,,,,,,,,,,,,,None,,574.8408337999484,None,574.8408337999484,None,2022-11-30-08:28:38.615487,574.8433734000428,575.1573257000418,574.8433734000428,574.8433734000428,None,574.8433734000428,574.8433734000428,575.6575441999943,None,,,,21016,0002,2022_Nov_30_0819,localizer,2021.1.3,58.36171656774447,
block,objects,objects063.bmp,,,,,0,132,132,132,,,,,,,,,,,,,,,,,,,,,,,,,,,,,,,,,,,,,,,,,,None,,575.6575441999943,None,575.6575441999943,None,2022-11-30-08:28:39.430412,575.658014100045,575.9573066000594,575.658014100045,None,y,575.658014100045,None,576.4574761999887,None,0.544327300041914,,,21016,0002,2022_Nov_30_0819,localizer,2021.1.3,58.36171656774447,
block,objects,objects083.bmp,,,,,0,133,133,133,,,,,,,,,,,,,,,,,,,,,,,,,,,,,,,,,,,,,,,,,,None,,576.4574761999887,None,576.4574761999887,None,2022-11-30-08:28:40.232171,576.4600590000628,576.7735474000219,576.4600590000628,576.4600590000628,None,576.4600590000628,576.4600590000628,577.2738161000074,None,,,,21016,0002,2022_Nov_30_0819,localizer,2021.1.3,58.36171656774447,
block,objects,objects065.bmp,,,,,0,134,134,134,,,,,,,,,,,,,,,,,,,,,,,,,,,,,,,,,,,,,,,,,,None,,577.2738161000074,None,577.2738161000074,None,2022-11-30-08:28:41.046481,577.2848480000393,577.5902948000003,577.2848480000393,None,None,577.2848480000393,None,578.0906193999457,None,,,,21016,0002,2022_Nov_30_0819,localizer,2021.1.3,58.36171656774447,
block,objects,objects082.bmp,,,,,0,135,135,135,,,,,,,,,,,,,,,,,,,,,,,,,,,,,,,,,,,,,,,,,,None,,578.0906193999457,None,578.0906193999457,None,2022-11-30-08:28:41.863491,578.091155000031,578.3903366000159,578.091155000031,None,None,578.091155000031,None,578.8906986000133,None,,,,21016,0002,2022_Nov_30_0819,localizer,2021.1.3,58.36171656774447,
block_end,objects,objects025.bmp,,,,,0,136,136,136,,,,,,,,,,,,,,,,,,,,,,,,,,,,,,,,,,,,,,,,,,None,,578.8906986000133,None,578.8906986000133,None,2022-11-30-08:28:42.664616,578.8912390000187,579.1904414000455,578.8912390000187,578.8912390000187,None,578.8912390000187,578.8912390000187,579.6917677000514,None,,,,21016,0002,2022_Nov_30_0819,localizer,2021.1.3,58.36171656774447,
null_block,null_block,null_block.bmp,,,,,0,137,137,137,,,,,,,,,,,,,,,,,,,,,,,,,,,,,,,,,,,,,,,,,,t,1.8498550000367686,579.6927530999528,None,579.6927530999528,None,2022-11-30-08:28:45.345782,581.5733513000072,None,581.5733513000072,None,None,581.5733513000072,None,581.5752195999958,None,,,,21016,0002,2022_Nov_30_0819,localizer,2021.1.3,58.36171656774447,
block_start,faces,faces042.bmp,,,,,0,138,138,138,,,,,,,,,,,,,,,,,,,,,,,,,,,,,,,,,,,,,,,,,,t,1.9675438000122085,593.5749695999548,None,593.5749695999548,None,2022-11-30-08:28:59.347667,595.5743903999683,595.8737083000597,595.5743903999683,None,None,595.5743903999683,None,596.37390120005,None,,,,21016,0002,2022_Nov_30_0819,localizer,2021.1.3,58.36171656774447,
block,faces,faces008.bmp,,,,,0,139,139,139,,,,,,,,,,,,,,,,,,,,,,,,,,,,,,,,,,,,,,,,,,None,,596.37390120005,None,596.37390120005,None,2022-11-30-08:29:00.148408,596.3749652999686,596.6905468000332,596.3749652999686,596.3749652999686,None,596.3749652999686,596.3749652999686,597.1905268000322,None,,,,21016,0002,2022_Nov_30_0819,localizer,2021.1.3,58.36171656774447,
block,faces,faces081.bmp,,,,,0,140,140,140,,,,,,,,,,,,,,,,,,,,,,,,,,,,,,,,,,,,,,,,,,None,,597.1905268000322,None,597.1905268000322,None,2022-11-30-08:29:00.963192,597.1913780999603,597.4904464000138,597.1913780999603,None,None,597.1913780999603,None,597.9906360999797,None,,,,21016,0002,2022_Nov_30_0819,localizer,2021.1.3,58.36171656774447,
block,faces,faces030.bmp,,,,,0,141,141,141,,,,,,,,,,,,,,,,,,,,,,,,,,,,,,,,,,,,,,,,,,None,,597.9906360999797,None,597.9906360999797,None,2022-11-30-08:29:01.764597,598.0032724000048,598.3075202000327,598.0032724000048,598.0032724000048,None,598.0032724000048,598.0032724000048,598.8078266999568,None,,,,21016,0002,2022_Nov_30_0819,localizer,2021.1.3,58.36171656774447,
block,faces,faces023.bmp,,,,,0,142,142,142,,,,,,,,,,,,,,,,,,,,,,,,,,,,,,,,,,,,,,,,,,None,,598.8078266999568,None,598.8078266999568,None,2022-11-30-08:29:02.581679,598.8157834999729,599.1238690000027,598.8157834999729,None,None,598.8157834999729,None,599.613715800026,None,,,,21016,0002,2022_Nov_30_0819,localizer,2021.1.3,58.36171656774447,
block,faces,faces069.bmp,,,,,0,143,143,143,,,,,,,,,,,,,,,,,,,,,,,,,,,,,,,,,,,,,,,,,,None,,599.613715800026,None,599.613715800026,None,2022-11-30-08:29:03.390370,599.6180325000314,599.9240810000338,599.6180325000314,None,None,599.6180325000314,None,600.424308400054,None,,,,21016,0002,2022_Nov_30_0819,localizer,2021.1.3,58.36171656774447,
block,faces,faces051.bmp,,,,,0,144,144,144,,,,,,,,,,,,,,,,,,,,,,,,,,,,,,,,,,,,,,,,,,None,,600.424308400054,None,600.424308400054,None,2022-11-30-08:29:04.196969,600.4249719999498,600.7241204000311,600.4249719999498,None,None,600.4249719999498,None,601.2241257999907,None,,,,21016,0002,2022_Nov_30_0819,localizer,2021.1.3,58.36171656774447,
block,faces,faces076.bmp,,,,,0,145,145,145,,,,,,,,,,,,,,,,,,,,,,,,,,,,,,,,,,,,,,,,,,None,,601.2241257999907,None,601.2241257999907,None,2022-11-30-08:29:04.998903,601.2378007000079,601.5403750999831,601.2378007000079,601.2378007000079,None,601.2378007000079,601.2378007000079,602.0411110000335,None,,,,21016,0002,2022_Nov_30_0819,localizer,2021.1.3,58.36171656774447,
block,faces,faces024.bmp,,,,,0,146,146,146,,,,,,,,,,,,,,,,,,,,,,,,,,,,,,,,,,,,,,,,,,None,,602.0411110000335,None,602.0411110000335,None,2022-11-30-08:29:05.814963,602.0416923000012,602.3571578999981,602.0416923000012,None,None,602.0416923000012,None,602.8418015999836,None,,,,21016,0002,2022_Nov_30_0819,localizer,2021.1.3,58.36171656774447,
block,faces,faces043.bmp,,,,,0,147,147,147,,,,,,,,,,,,,,,,,,,,,,,,,,,,,,,,,,,,,,,,,,None,,602.8418015999836,None,602.8418015999836,None,2022-11-30-08:29:06.619438,602.8469636000227,603.1577574999537,602.8469636000227,602.8469636000227,None,602.8469636000227,602.8469636000227,603.6584778000018,None,,,,21016,0002,2022_Nov_30_0819,localizer,2021.1.3,58.36171656774447,
block,faces,faces031.bmp,,,,,0,148,148,148,,,,,,,,,,,,,,,,,,,,,,,,,,,,,,,,,,,,,,,,,,None,,603.6584778000018,None,603.6584778000018,None,2022-11-30-08:29:07.432306,603.6606009999523,603.9741235000547,603.6606009999523,None,None,603.6606009999523,None,604.4744380000396,None,,,,21016,0002,2022_Nov_30_0819,localizer,2021.1.3,58.36171656774447,
block,faces,faces016.bmp,,,,,0,149,149,149,,,,,,,,,,,,,,,,,,,,,,,,,,,,,,,,,,,,,,,,,,None,,604.4744380000396,None,604.4744380000396,None,2022-11-30-08:29:08.247501,604.4750378000317,604.7749168999726,604.4750378000317,None,None,604.4750378000317,None,605.2751891999854,None,,,,21016,0002,2022_Nov_30_0819,localizer,2021.1.3,58.36171656774447,
block,faces,faces070.bmp,,,,,0,150,150,150,,,,,,,,,,,,,,,,,,,,,,,,,,,,,,,,,,,,,,,,,,None,,605.2751891999854,None,605.2751891999854,None,2022-11-30-08:29:09.053011,605.2805113999639,605.5910771000199,605.2805113999639,605.2805113999639,None,605.2805113999639,605.2805113999639,606.0912766999448,None,,,,21016,0002,2022_Nov_30_0819,localizer,2021.1.3,58.36171656774447,
block,faces,faces048.bmp,,,,,0,151,151,151,,,,,,,,,,,,,,,,,,,,,,,,,,,,,,,,,,,,,,,,,,None,,606.0912766999448,None,606.0912766999448,None,2022-11-30-08:29:09.864930,606.0920222999994,606.3910417000297,606.0920222999994,None,None,606.0920222999994,None,606.8913322999491,None,,,,21016,0002,2022_Nov_30_0819,localizer,2021.1.3,58.36171656774447,
block_end,faces,faces032.bmp,,,,,0,152,152,152,,,,,,,,,,,,,,,,,,,,,,,,,,,,,,,,,,,,,,,,,,None,,606.8913322999491,None,606.8913322999491,None,2022-11-30-08:29:10.666980,606.9063965999521,607.207344399998,606.9063965999521,606.9063965999521,None,606.9063965999521,606.9063965999521,607.7072209000238,None,,,,21016,0002,2022_Nov_30_0819,localizer,2021.1.3,58.36171656774447,
block_start,scrambled,scrambled050.bmp,,,,,0,153,153,153,,,,,,,,,,,,,,,,,,,,,,,,,,,,,,,,,,,,,,,,,,t,1.8342556999996305,607.7071508000372,None,607.7071508000372,None,2022-11-30-08:29:13.331237,609.5695416999515,609.8741527999518,609.5695416999515,None,None,609.5695416999515,None,610.3743048999808,None,,,,21016,0002,2022_Nov_30_0819,localizer,2021.1.3,58.36171656774447,
block,scrambled,scrambled052.bmp,,,,,0,154,154,154,,,,,,,,,,,,,,,,,,,,,,,,,,,,,,,,,,,,,,,,,,None,,610.3743048999808,None,610.3743048999808,None,2022-11-30-08:29:14.146907,610.3748276999686,610.6904604999581,610.3748276999686,None,None,610.3748276999686,None,611.1903850000002,None,,,,21016,0002,2022_Nov_30_0819,localizer,2021.1.3,58.36171656774447,
block,scrambled,scrambled076.bmp,,,,,0,155,155,155,,,,,,,,,,,,,,,,,,,,,,,,,,,,,,,,,,,,,,,,,,None,,611.1903850000002,None,611.1903850000002,None,2022-11-30-08:29:14.963258,611.1912570999702,611.4905874000397,611.1912570999702,None,None,611.1912570999702,None,611.9907110999687,None,,,,21016,0002,2022_Nov_30_0819,localizer,2021.1.3,58.36171656774447,
block,scrambled,scrambled019.bmp,,,,,0,156,156,156,,,,,,,,,,,,,,,,,,,,,,,,,,,,,,,,,,,,,,,,,,None,,611.9907110999687,None,611.9907110999687,None,2022-11-30-08:29:15.765372,611.9917690999573,612.307299499982,611.9917690999573,611.9917690999573,None,611.9917690999573,611.9917690999573,612.7911686000065,None,,,,21016,0002,2022_Nov_30_0819,localizer,2021.1.3,58.36171656774447,
block,scrambled,scrambled020.bmp,,,,,0,157,157,157,,,,,,,,,,,,,,,,,,,,,,,,,,,,,,,,,,,,,,,,,,None,,612.7911686000065,None,612.7911686000065,None,2022-11-30-08:29:16.566900,612.7941351999762,613.1073670999613,612.7941351999762,612.7941351999762,None,612.7941351999762,612.7941351999762,613.5978508999455,None,,,,21016,0002,2022_Nov_30_0819,localizer,2021.1.3,58.36171656774447,
block,scrambled,scrambled045.bmp,,,,,0,158,158,158,,,,,,,,,,,,,,,,,,,,,,,,,,,,,,,,,,,,,,,,,,None,,613.5978508999455,None,613.5978508999455,None,2022-11-30-08:29:17.378519,613.6045536999591,613.9074145000195,613.6045536999591,613.6045536999591,None,613.6045536999591,613.6045536999591,614.4084281999734,None,,,,21016,0002,2022_Nov_30_0819,localizer,2021.1.3,58.36171656774447,
block,scrambled,scrambled065.bmp,,,,,0,159,159,159,,,,,,,,,,,,,,,,,,,,,,,,,,,,,,,,,,,,,,,,,,None,,614.4084281999734,None,614.4084281999734,None,2022-11-30-08:29:18.182240,614.4103332000086,614.7245060000569,614.4103332000086,None,None,614.4103332000086,None,615.2247271000291,None,,,,21016,0002,2022_Nov_30_0819,localizer,2021.1.3,58.36171656774447,
block,scrambled,scrambled062.bmp,,,,,0,160,160,160,,,,,,,,,,,,,,,,,,,,,,,,,,,,,,,,,,,,,,,,,,None,,615.2247271000291,None,615.2247271000291,None,2022-11-30-08:29:18.998479,615.2250664000167,615.5244541000575,615.2250664000167,None,None,615.2250664000167,None,616.0241169999703,None,,,,21016,0002,2022_Nov_30_0819,localizer,2021.1.3,58.36171656774447,
block,scrambled,scrambled018.bmp,,,,,0,161,161,161,,,,,,,,,,,,,,,,,,,,,,,,,,,,,,,,,,,,,,,,,,None,,616.0241169999703,None,616.0241169999703,None,2022-11-30-08:29:19.798988,616.0368973000441,616.3405145000434,616.0368973000441,616.0368973000441,None,616.0368973000441,616.0368973000441,616.8407540000393,None,,,,21016,0002,2022_Nov_30_0819,localizer,2021.1.3,58.36171656774447,
block,scrambled,scrambled037.bmp,,,,,0,162,162,162,,,,,,,,,,,,,,,,,,,,,,,,,,,,,,,,,,,,,,,,,,None,,616.8407540000393,None,616.8407540000393,None,2022-11-30-08:29:20.613420,616.8509517000057,617.1575260000536,616.8509517000057,None,None,616.8509517000057,None,617.6461430000257,None,,,,21016,0002,2022_Nov_30_0819,localizer,2021.1.3,58.36171656774447,
block,scrambled,scrambled001.bmp,,,,,0,163,163,163,,,,,,,,,,,,,,,,,,,,,,,,,,,,,,,,,,,,,,,,,,None,,617.6461430000257,None,617.6461430000257,None,2022-11-30-08:29:21.423706,617.6695182999829,617.9775097999955,617.6695182999829,None,None,617.6695182999829,None,618.4594173999852,None,,,,21016,0002,2022_Nov_30_0819,localizer,2021.1.3,58.36171656774447,
block,scrambled,scrambled031.bmp,,,,,0,164,164,164,,,,,,,,,,,,,,,,,,,,,,,,,,,,,,,,,,,,,,,,,,None,,618.4594173999852,None,618.4594173999852,None,2022-11-30-08:29:22.235107,618.4624172999756,618.77393939998,618.4624172999756,None,None,618.4624172999756,None,619.2741555000306,None,,,,21016,0002,2022_Nov_30_0819,localizer,2021.1.3,58.36171656774447,
block,scrambled,scrambled015.bmp,,,,,0,165,165,165,,,,,,,,,,,,,,,,,,,,,,,,,,,,,,,,,,,,,,,,,,None,,619.2741555000306,None,619.2741555000306,None,2022-11-30-08:29:23.047038,619.2805097999517,619.5903133000247,619.2805097999517,None,None,619.2805097999517,None,620.0911030000192,None,,,,21016,0002,2022_Nov_30_0819,localizer,2021.1.3,58.36171656774447,
block,scrambled,scrambled048.bmp,,,,,0,166,166,166,,,,,,,,,,,,,,,,,,,,,,,,,,,,,,,,,,,,,,,,,,None,,620.0911030000192,None,620.0911030000192,None,2022-11-30-08:29:23.863765,620.0915495000081,620.391189099988,620.0915495000081,None,None,620.0915495000081,None,620.8971652000095,None,,,,21016,0002,2022_Nov_30_0819,localizer,2021.1.3,58.36171656774447,
block_end,scrambled,scrambled025.bmp,,,,,0,167,167,167,,,,,,,,,,,,,,,,,,,,,,,,,,,,,,,,,,,,,,,,,,None,,620.8971652000095,None,620.8971652000095,None,2022-11-30-08:29:24.674573,620.9021107000299,621.2076515000081,620.9021107000299,None,None,620.9021107000299,None,621.7068985000136,None,,,,21016,0002,2022_Nov_30_0819,localizer,2021.1.3,58.36171656774447,
block_start,scenes,scenes038.bmp,,,,,0,168,168,168,,,,,,,,,,,,,,,,,,,,,,,,,,,,,,,,,,,,,,,,,,t,1.834636399988085,621.7069539000513,None,621.7069539000513,None,2022-11-30-08:29:27.333035,623.5593897999497,623.873960500001,623.5593897999497,None,None,623.5593897999497,None,624.358561700012,None,,,,21016,0002,2022_Nov_30_0819,localizer,2021.1.3,58.36171656774447,
block,scenes,scenes066.bmp,,,,,0,169,169,169,,,,,,,,,,,,,,,,,,,,,,,,,,,,,,,,,,,,,,,,,,None,,624.358561700012,None,624.358561700012,None,2022-11-30-08:29:28.134229,624.3626542000566,624.673622900038,624.3626542000566,624.3626542000566,None,624.3626542000566,624.3626542000566,625.1747719999752,None,,,,21016,0002,2022_Nov_30_0819,localizer,2021.1.3,58.36171656774447,
block,scenes,scenes088.bmp,,,,,0,170,170,170,,,,,,,,,,,,,,,,,,,,,,,,,,,,,,,,,,,,,,,,,,None,,625.1747719999752,None,625.1747719999752,None,2022-11-30-08:29:28.948423,625.1749838000396,625.4740134000313,625.1749838000396,None,None,625.1749838000396,None,625.9800902000046,None,,,,21016,0002,2022_Nov_30_0819,localizer,2021.1.3,58.36171656774447,
block,scenes,scenes005.bmp,,,,,0,171,171,171,,,,,,,,,,,,,,,,,,,,,,,,,,,,,,,,,,,,,,,,,,None,,625.9800902000046,None,625.9800902000046,None,2022-11-30-08:29:29.751972,625.9881194999907,626.2910055000102,625.9881194999907,None,None,625.9881194999907,None,626.7910304000019,None,,,,21016,0002,2022_Nov_30_0819,localizer,2021.1.3,58.36171656774447,
block,scenes,scenes087.bmp,,,,,0,172,172,172,,,,,,,,,,,,,,,,,,,,,,,,,,,,,,,,,,,,,,,,,,None,,626.7910304000019,None,626.7910304000019,None,2022-11-30-08:29:30.563901,626.8017631999683,627.1072523000184,626.8017631999683,None,None,626.8017631999683,None,627.6073649999802,None,,,,21016,0002,2022_Nov_30_0819,localizer,2021.1.3,58.36171656774447,
block,scenes,scenes033.bmp,,,,,0,173,173,173,,,,,,,,,,,,,,,,,,,,,,,,,,,,,,,,,,,,,,,,,,None,,627.6073649999802,None,627.6073649999802,None,2022-11-30-08:29:31.380031,627.6079398000147,627.9068479000125,627.6079398000147,None,None,627.6079398000147,None,628.407413400046,None,,,,21016,0002,2022_Nov_30_0819,localizer,2021.1.3,58.36171656774447,
block,scenes,scenes085.bmp,,,,,0,174,174,174,,,,,,,,,,,,,,,,,,,,,,,,,,,,,,,,,,,,,,,,,,None,,628.407413400046,None,628.407413400046,None,2022-11-30-08:29:32.181302,628.4082429000409,628.7074969999958,628.4082429000409,628.4082429000409,None,628.4082429000409,628.4082429000409,629.2078381999512,None,,,,21016,0002,2022_Nov_30_0819,localizer,2021.1.3,58.36171656774447,
block,scenes,scenes078.bmp,,,,,0,175,175,175,,,,,,,,,,,,,,,,,,,,,,,,,,,,,,,,,,,,,,,,,,None,,629.2078381999512,None,629.2078381999512,None,2022-11-30-08:29:32.982700,629.2105601000367,629.5241932000499,629.2105601000367,629.2105601000367,None,629.2105601000367,629.2105601000367,630.0243208000087,None,,,,21016,0002,2022_Nov_30_0819,localizer,2021.1.3,58.36171656774447,
block,scenes,scenes020.bmp,,,,,0,176,176,176,,,,,,,,,,,,,,,,,,,,,,,,,,,,,,,,,,,,,,,,,,None,,630.0243208000087,None,630.0243208000087,None,2022-11-30-08:29:33.797190,630.0250608000206,630.3261616999516,630.0250608000206,None,None,630.0250608000206,None,630.8241259999689,None,,,,21016,0002,2022_Nov_30_0819,localizer,2021.1.3,58.36171656774447,
block,scenes,scenes017.bmp,,,,,0,177,177,177,,,,,,,,,,,,,,,,,,,,,,,,,,,,,,,,,,,,,,,,,,None,,630.8241259999689,None,630.8241259999689,None,2022-11-30-08:29:34.598017,630.8249017000198,631.1240393000189,630.8249017000198,630.8249017000198,None,630.8249017000198,630.8249017000198,631.6258599999477,None,,,,21016,0002,2022_Nov_30_0819,localizer,2021.1.3,58.36171656774447,
block,scenes,scenes069.bmp,,,,,0,178,178,178,,,,,,,,,,,,,,,,,,,,,,,,,,,,,,,,,,,,,,,,,,None,,631.6258599999477,None,631.6258599999477,None,2022-11-30-08:29:35.401508,631.6286879000254,631.9405756000197,631.6286879000254,631.6286879000254,None,631.6286879000254,631.6286879000254,632.4406881999806,None,,,,21016,0002,2022_Nov_30_0819,localizer,2021.1.3,58.36171656774447,
block,scenes,scenes035.bmp,,,,,0,179,179,179,,,,,,,,,,,,,,,,,,,,,,,,,,,,,,,,,,,,,,,,,,None,,632.4406881999806,None,632.4406881999806,None,2022-11-30-08:29:36.212356,632.4412958000321,632.7414315999486,632.4412958000321,None,None,632.4412958000321,None,633.2429481000057,None,,,,21016,0002,2022_Nov_30_0819,localizer,2021.1.3,58.36171656774447,
block,scenes,scenes012.bmp,,,,,0,180,180,180,,,,,,,,,,,,,,,,,,,,,,,,,,,,,,,,,,,,,,,,,,None,,633.2429481000057,None,633.2429481000057,None,2022-11-30-08:29:37.021756,633.2683120999718,633.5760560999624,633.2683120999718,633.2683120999718,None,633.2683120999718,633.2683120999718,634.0598916999646,None,,,,21016,0002,2022_Nov_30_0819,localizer,2021.1.3,58.36171656774447,
block,scenes,scenes044.bmp,,,,,0,181,181,181,,,,,,,,,,,,,,,,,,,,,,,,,,,,,,,,,,,,,,,,,,None,,634.0598916999646,None,634.0598916999646,None,2022-11-30-08:29:37.835690,634.0643593999557,634.3742694000248,634.0643593999557,None,None,634.0643593999557,None,634.8744939000229,None,,,,21016,0002,2022_Nov_30_0819,localizer,2021.1.3,58.36171656774447,
block_end,scenes,scenes091.bmp,,,,,0,182,182,182,,,,,,,,,,,,,,,,,,,,,,,,,,,,,,,,,,,,,,,,,,None,,634.8744939000229,None,634.8744939000229,None,2022-11-30-08:29:38.648153,634.8748962000245,635.174382199999,634.8748962000245,None,None,634.8748962000245,None,635.6746114000329,None,,,,21016,0002,2022_Nov_30_0819,localizer,2021.1.3,58.36171656774447,
block_start,faces,faces036.bmp,,,,,0,183,183,183,,,,,,,,,,,,,,,,,,,,,,,,,,,,,,,,,,,,,,,,,,t,1.8668352999957278,635.6745841000229,None,635.6745841000229,None,2022-11-30-08:29:41.330931,637.558511100011,637.8740101000294,637.558511100011,None,None,637.558511100011,None,638.3742581999744,None,,,,21016,0002,2022_Nov_30_0819,localizer,2021.1.3,58.36171656774447,
block,faces,faces048.bmp,,,,,0,184,184,184,,,,,,,,,,,,,,,,,,,,,,,,,,,,,,,,,,,,,,,,,,None,,638.3742581999744,None,638.3742581999744,None,2022-11-30-08:29:42.147189,638.3749942999566,638.6903809000505,638.3749942999566,None,None,638.3749942999566,None,639.1745032000239,None,,,,21016,0002,2022_Nov_30_0819,localizer,2021.1.3,58.36171656774447,
block,faces,faces050.bmp,,,,,0,185,185,185,,,,,,,,,,,,,,,,,,,,,,,,,,,,,,,,,,,,,,,,,,None,,639.1745032000239,None,639.1745032000239,None,2022-11-30-08:29:42.948339,639.1861893000314,639.4906881999923,639.1861893000314,639.1861893000314,None,639.1861893000314,639.1861893000314,639.991284700029,None,,,,21016,0002,2022_Nov_30_0819,localizer,2021.1.3,58.36171656774447,
block,faces,faces028.bmp,,,,,0,186,186,186,,,,,,,,,,,,,,,,,,,,,,,,,,,,,,,,,,,,,,,,,,None,,639.991284700029,None,639.991284700029,None,2022-11-30-08:29:43.764940,639.9922414000612,640.291182099958,639.9922414000612,None,None,639.9922414000612,None,640.7914159000269,None,,,,21016,0002,2022_Nov_30_0819,localizer,2021.1.3,58.36171656774447,
block,faces,faces059.bmp,,,,,0,187,187,187,,,,,,,,,,,,,,,,,,,,,,,,,,,,,,,,,,,,,,,,,,None,,640.7914159000269,None,640.7914159000269,None,2022-11-30-08:29:44.568030,640.8061520999763,641.1074116999516,640.8061520999763,640.8061520999763,None,640.8061520999763,640.8061520999763,641.6077932999818,None,,,,21016,0002,2022_Nov_30_0819,localizer,2021.1.3,58.36171656774447,
block,faces,faces041.bmp,,,,,0,188,188,188,,,,,,,,,,,,,,,,,,,,,,,,,,,,,,,,,,,,,,,,,,None,,641.6077932999818,None,641.6077932999818,None,2022-11-30-08:29:45.380452,641.6083283000626,641.907828800031,641.6083283000626,None,None,641.6083283000626,None,642.4078698000288,None,,,,21016,0002,2022_Nov_30_0819,localizer,2021.1.3,58.36171656774447,
block,faces,faces067.bmp,,,,,0,189,189,189,,,,,,,,,,,,,,,,,,,,,,,,,,,,,,,,,,,,,,,,,,None,,642.4078698000288,None,642.4078698000288,None,2022-11-30-08:29:46.182725,642.4107365000527,642.7245707999682,642.4107365000527,642.4107365000527,None,642.4107365000527,642.4107365000527,643.2248071000562,None,,,,21016,0002,2022_Nov_30_0819,localizer,2021.1.3,58.36171656774447,
block,faces,faces020.bmp,,,,,0,190,190,190,,,,,,,,,,,,,,,,,,,,,,,,,,,,,,,,,,,,,,,,,,None,,643.2248071000562,None,643.2248071000562,None,2022-11-30-08:29:46.998399,643.2256121999817,643.5246642000275,643.2256121999817,None,None,643.2256121999817,None,644.0409274000325,None,,,,21016,0002,2022_Nov_30_0819,localizer,2021.1.3,58.36171656774447,
block,faces,faces007.bmp,,,,,0,191,191,191,,,,,,,,,,,,,,,,,,,,,,,,,,,,,,,,,,,,,,,,,,None,,644.0409274000325,None,644.0409274000325,None,2022-11-30-08:29:47.813984,644.0418419999769,644.3409882000415,644.0418419999769,None,None,644.0418419999769,None,644.841584199958,None,,,,21016,0002,2022_Nov_30_0819,localizer,2021.1.3,58.36171656774447,
block,faces,faces049.bmp,,,,,0,192,192,192,,,,,,,,,,,,,,,,,,,,,,,,,,,,,,,,,,,,,,,,,,None,,644.841584199958,None,644.841584199958,None,2022-11-30-08:29:48.617422,644.8447234999621,645.1579968000297,644.8447234999621,644.8447234999621,None,644.8447234999621,644.8447234999621,645.6581148000317,None,,,,21016,0002,2022_Nov_30_0819,localizer,2021.1.3,58.36171656774447,
block,faces,faces080.bmp,,,,,0,193,193,193,,,,,,,,,,,,,,,,,,,,,,,,,,,,,,,,,,,,,,,,,,None,,645.6581148000317,None,645.6581148000317,None,2022-11-30-08:29:49.431614,645.6604739000322,645.9744221000001,645.6604739000322,None,None,645.6604739000322,None,646.4745208999724,None,,,,21016,0002,2022_Nov_30_0819,localizer,2021.1.3,58.36171656774447,
block,faces,faces089.bmp,,,,,0,194,194,194,,,,,,,,,,,,,,,,,,,,,,,,,,,,,,,,,,,,,,,,,,None,,646.4745208999724,None,646.4745208999724,None,2022-11-30-08:29:50.247380,646.4756592999911,646.7746488000266,646.4756592999911,None,None,646.4756592999911,None,647.2749720999622,None,,,,21016,0002,2022_Nov_30_0819,localizer,2021.1.3,58.36171656774447,
block,faces,faces056.bmp,,,,,0,195,195,195,,,,,,,,,,,,,,,,,,,,,,,,,,,,,,,,,,,,,,,,,,None,,647.2749720999622,None,647.2749720999622,None,2022-11-30-08:29:51.050774,647.2901926999912,647.5908522000536,647.2901926999912,647.2901926999912,None,647.2901926999912,647.2901926999912,648.0910147000453,None,,,,21016,0002,2022_Nov_30_0819,localizer,2021.1.3,58.36171656774447,
block,faces,faces056.bmp,,,,,0,196,196,196,,,,,,,,,,,,,,,,,,,,,,,,,,,,,,,,,,,,,,,,,,None,,648.0910147000453,None,648.0910147000453,None,2022-11-30-08:29:51.863678,648.0919316000072,648.3912137000589,648.0919316000072,None,y,648.0919316000072,None,648.8930577000486,None,0.655297499964945,,,21016,0002,2022_Nov_30_0819,localizer,2021.1.3,58.36171656774447,
block_end,faces,faces025.bmp,,,,,0,197,197,197,,,,,,,,,,,,,,,,,,,,,,,,,,,,,,,,,,,,,,,,,,None,,648.8930577000486,None,648.8930577000486,None,2022-11-30-08:29:52.671778,648.9005756999832,649.2080151999835,648.9005756999832,648.9005756999832,None,648.9005756999832,648.9005756999832,649.7082191000576,None,,,,21016,0002,2022_Nov_30_0819,localizer,2021.1.3,58.36171656774447,
block_start,scrambled,scrambled057.bmp,,,,,0,198,198,198,,,,,,,,,,,,,,,,,,,,,,,,,,,,,,,,,,,,,,,,,,t,1.833267099922523,649.708126100013,None,649.708126100013,None,2022-11-30-08:29:55.331725,651.5583880000049,651.8573948000558,651.5583880000049,None,None,651.5583880000049,None,652.3574678999488,None,,,,21016,0002,2022_Nov_30_0819,localizer,2021.1.3,58.36171656774447,
block,scrambled,scrambled040.bmp,,,,,0,199,199,199,,,,,,,,,,,,,,,,,,,,,,,,,,,,,,,,,,,,,,,,,,None,,652.3574678999488,None,652.3574678999488,None,2022-11-30-08:29:56.132133,652.3588361999718,652.6580624000635,652.3588361999718,652.3588361999718,None,652.3588361999718,652.3588361999718,653.1579691999708,None,,,,21016,0002,2022_Nov_30_0819,localizer,2021.1.3,58.36171656774447,
block,scrambled,scrambled015.bmp,,,,,0,200,200,200,,,,,,,,,,,,,,,,,,,,,,,,,,,,,,,,,,,,,,,,,,None,,653.1579691999708,None,653.1579691999708,None,2022-11-30-08:29:56.932703,653.1595497999806,653.4743994000601,653.1595497999806,653.1595497999806,None,653.1595497999806,653.1595497999806,653.9741726999986,None,,,,21016,0002,2022_Nov_30_0819,localizer,2021.1.3,58.36171656774447,
block,scrambled,scrambled006.bmp,,,,,0,201,201,201,,,,,,,,,,,,,,,,,,,,,,,,,,,,,,,,,,,,,,,,,,None,,653.9741726999986,None,653.9741726999986,None,2022-11-30-08:29:57.746836,653.9749643000541,654.2745253000176,653.9749643000541,None,None,653.9749643000541,None,654.7745516000199,None,,,,21016,0002,2022_Nov_30_0819,localizer,2021.1.3,58.36171656774447,
block,scrambled,scrambled025.bmp,,,,,0,202,202,202,,,,,,,,,,,,,,,,,,,,,,,,,,,,,,,,,,,,,,,,,,None,,654.7745516000199,None,654.7745516000199,None,2022-11-30-08:29:58.549299,654.7771750000538,655.0910473000258,654.7771750000538,654.7771750000538,None,654.7771750000538,654.7771750000538,655.5904964000568,None,,,,21016,0002,2022_Nov_30_0819,localizer,2021.1.3,58.36171656774447,
block,scrambled,scrambled038.bmp,,,,,0,203,203,203,,,,,,,,,,,,,,,,,,,,,,,,,,,,,,,,,,,,,,,,,,None,,655.5904964000568,None,655.5904964000568,None,2022-11-30-08:29:59.363168,655.5919046000345,655.8911048000446,655.5919046000345,None,None,655.5919046000345,None,656.391012799961,None,,,,21016,0002,2022_Nov_30_0819,localizer,2021.1.3,58.36171656774447,
block,scrambled,scrambled049.bmp,,,,,0,204,204,204,,,,,,,,,,,,,,,,,,,,,,,,,,,,,,,,,,,,,,,,,,None,,656.391012799961,None,656.391012799961,None,2022-11-30-08:30:00.165675,656.3924130999949,656.707802799996,656.3924130999949,656.3924130999949,None,656.3924130999949,656.3924130999949,657.2077004999504,None,,,,21016,0002,2022_Nov_30_0819,localizer,2021.1.3,58.36171656774447,
block,scrambled,scrambled055.bmp,,,,,0,205,205,205,,,,,,,,,,,,,,,,,,,,,,,,,,,,,,,,,,,,,,,,,,None,,657.2077004999504,None,657.2077004999504,None,2022-11-30-08:30:00.980494,657.2178883999586,657.5230037999572,657.2178883999586,None,None,657.2178883999586,None,658.0243864000425,None,,,,21016,0002,2022_Nov_30_0819,localizer,2021.1.3,58.36171656774447,
block,scrambled,scrambled053.bmp,,,,,0,206,206,206,,,,,,,,,,,,,,,,,,,,,,,,,,,,,,,,,,,,,,,,,,None,,658.0243864000425,None,658.0243864000425,None,2022-11-30-08:30:01.797054,658.0345241000177,658.3406841000542,658.0345241000177,None,None,658.0345241000177,None,658.8423196999705,None,,,,21016,0002,2022_Nov_30_0819,localizer,2021.1.3,58.36171656774447,
block,scrambled,scrambled027.bmp,,,,,0,207,207,207,,,,,,,,,,,,,,,,,,,,,,,,,,,,,,,,,,,,,,,,,,None,,658.8423196999705,None,658.8423196999705,None,2022-11-30-08:30:02.616144,658.8442763000494,659.1577160999877,658.8442763000494,None,None,658.8442763000494,None,659.6438984000473,None,,,,21016,0002,2022_Nov_30_0819,localizer,2021.1.3,58.36171656774447,
block,scrambled,scrambled016.bmp,,,,,0,208,208,208,,,,,,,,,,,,,,,,,,,,,,,,,,,,,,,,,,,,,,,,,,None,,659.6438984000473,None,659.6438984000473,None,2022-11-30-08:30:03.420459,659.6480224999832,659.9578379000304,659.6480224999832,659.6480224999832,None,659.6480224999832,659.6480224999832,660.4579840000137,None,,,,21016,0002,2022_Nov_30_0819,localizer,2021.1.3,58.36171656774447,
block,scrambled,scrambled065.bmp,,,,,0,209,209,209,,,,,,,,,,,,,,,,,,,,,,,,,,,,,,,,,,,,,,,,,,None,,660.4579840000137,None,660.4579840000137,None,2022-11-30-08:30:04.230641,660.4585596000543,660.757562499959,660.4585596000543,None,None,660.4585596000543,None,661.2576272000209,None,,,,21016,0002,2022_Nov_30_0819,localizer,2021.1.3,58.36171656774447,
block,scrambled,scrambled074.bmp,,,,,0,210,210,210,,,,,,,,,,,,,,,,,,,,,,,,,,,,,,,,,,,,,,,,,,None,,661.2576272000209,None,661.2576272000209,None,2022-11-30-08:30:05.032290,661.2699294000631,661.5740053000627,661.2699294000631,661.2699294000631,None,661.2699294000631,661.2699294000631,662.0747570000007,None,,,,21016,0002,2022_Nov_30_0819,localizer,2021.1.3,58.36171656774447,
block,scrambled,scrambled037.bmp,,,,,0,211,211,211,,,,,,,,,,,,,,,,,,,,,,,,,,,,,,,,,,,,,,,,,,None,,662.0747570000007,None,662.0747570000007,None,2022-11-30-08:30:05.847615,662.0752081000246,662.3744770999765,662.0752081000246,None,None,662.0752081000246,None,662.8743922999478,None,,,,21016,0002,2022_Nov_30_0819,localizer,2021.1.3,58.36171656774447,
block_end,scrambled,scrambled048.bmp,,,,,0,212,212,212,,,,,,,,,,,,,,,,,,,,,,,,,,,,,,,,,,,,,,,,,,None,,662.8743922999478,None,662.8743922999478,None,2022-11-30-08:30:06.649053,662.8754242999712,663.190872099949,662.8754242999712,662.8754242999712,None,662.8754242999712,662.8754242999712,663.6755234999931,None,,,,21016,0002,2022_Nov_30_0819,localizer,2021.1.3,58.36171656774447,
null_block,null_block,null_block.bmp,,,,,0,213,213,213,,,,,,,,,,,,,,,,,,,,,,,,,,,,,,,,,,,,,,,,,,t,1.8652938000159338,663.6763740000315,None,663.6763740000315,None,2022-11-30-08:30:09.331810,665.5580484000151,None,665.5580484000151,None,None,665.5580484000151,None,665.5626490999712,None,,,,21016,0002,2022_Nov_30_0819,localizer,2021.1.3,58.36171656774447,
block_start,scenes,scenes090.bmp,,,,,0,214,214,214,,,,,,,,,,,,,,,,,,,,,,,,,,,,,,,,,,,,,,,,,,t,1.9673314000247046,677.5743270999519,None,677.5743270999519,None,2022-11-30-08:30:23.332804,679.5713691000128,679.8744222000241,679.5713691000128,None,None,679.5713691000128,None,680.3745184999774,None,,,,21016,0002,2022_Nov_30_0819,localizer,2021.1.3,58.36171656774447,
block,scenes,scenes073.bmp,,,,,0,215,215,215,,,,,,,,,,,,,,,,,,,,,,,,,,,,,,,,,,,,,,,,,,None,,680.3745184999774,None,680.3745184999774,None,2022-11-30-08:30:24.147182,680.3758700999897,680.6909315000521,680.3758700999897,None,None,680.3758700999897,None,681.1913261999492,None,,,,21016,0002,2022_Nov_30_0819,localizer,2021.1.3,58.36171656774447,
block,scenes,scenes035.bmp,,,,,0,216,216,216,,,,,,,,,,,,,,,,,,,,,,,,,,,,,,,,,,,,,,,,,,None,,681.1913261999492,None,681.1913261999492,None,2022-11-30-08:30:24.963324,681.1925238999538,681.5076868999749,681.1925238999538,None,None,681.1925238999538,None,682.0075916999834,None,,,,21016,0002,2022_Nov_30_0819,localizer,2021.1.3,58.36171656774447,
block,scenes,scenes015.bmp,,,,,0,217,217,217,,,,,,,,,,,,,,,,,,,,,,,,,,,,,,,,,,,,,,,,,,None,,682.0075916999834,None,682.0075916999834,None,2022-11-30-08:30:25.780544,682.0088150999509,682.3078793999739,682.0088150999509,None,None,682.0088150999509,None,682.8090088999946,None,,,,21016,0002,2022_Nov_30_0819,localizer,2021.1.3,58.36171656774447,
block,scenes,scenes087.bmp,,,,,0,218,218,218,,,,,,,,,,,,,,,,,,,,,,,,,,,,,,,,,,,,,,,,,,None,,682.8090088999946,None,682.8090088999946,None,2022-11-30-08:30:26.584835,682.8133307000389,683.1249367999844,682.8133307000389,682.8133307000389,None,682.8133307000389,682.8133307000389,683.6249792999937,None,,,,21016,0002,2022_Nov_30_0819,localizer,2021.1.3,58.36171656774447,
block,scenes,scenes061.bmp,,,,,0,219,219,219,,,,,,,,,,,,,,,,,,,,,,,,,,,,,,,,,,,,,,,,,,None,,683.6249792999937,None,683.6249792999937,None,2022-11-30-08:30:27.397635,683.625404600054,683.941015999997,683.625404600054,None,None,683.625404600054,None,684.4244897000375,None,,,,21016,0002,2022_Nov_30_0819,localizer,2021.1.3,58.36171656774447,
block,scenes,scenes050.bmp,,,,,0,220,220,220,,,,,,,,,,,,,,,,,,,,,,,,,,,,,,,,,,,,,,,,,,None,,684.4244897000375,None,684.4244897000375,None,2022-11-30-08:30:28.199149,684.4255464000162,684.7409308999777,684.4255464000162,684.4255464000162,None,684.4255464000162,684.4255464000162,685.2411887999973,None,,,,21016,0002,2022_Nov_30_0819,localizer,2021.1.3,58.36171656774447,
block,scenes,scenes067.bmp,,,,,0,221,221,221,,,,,,,,,,,,,,,,,,,,,,,,,,,,,,,,,,,,,,,,,,None,,685.2411887999973,None,685.2411887999973,None,2022-11-30-08:30:29.013997,685.2419817000628,685.5410424000584,685.2419817000628,None,None,685.2419817000628,None,686.0415113000548,None,,,,21016,0002,2022_Nov_30_0819,localizer,2021.1.3,58.36171656774447,
block,scenes,scenes074.bmp,,,,,0,222,222,222,,,,,,,,,,,,,,,,,,,,,,,,,,,,,,,,,,,,,,,,,,None,,686.0415113000548,None,686.0415113000548,None,2022-11-30-08:30:29.816355,686.0442828000523,686.3575987999793,686.0442828000523,686.0442828000523,None,686.0442828000523,686.0442828000523,686.858942600002,None,,,,21016,0002,2022_Nov_30_0819,localizer,2021.1.3,58.36171656774447,
block,scenes,scenes026.bmp,,,,,0,223,223,223,,,,,,,,,,,,,,,,,,,,,,,,,,,,,,,,,,,,,,,,,,None,,686.858942600002,None,686.858942600002,None,2022-11-30-08:30:30.632773,686.8731830000179,687.1743389000185,686.8731830000179,None,None,686.8731830000179,None,687.675216399983,None,,,,21016,0002,2022_Nov_30_0819,localizer,2021.1.3,58.36171656774447,
block,scenes,scenes017.bmp,,,,,0,224,224,224,,,,,,,,,,,,,,,,,,,,,,,,,,,,,,,,,,,,,,,,,,None,,687.675216399983,None,687.675216399983,None,2022-11-30-08:30:31.449077,687.6759202999528,687.9749515999574,687.6759202999528,None,None,687.6759202999528,None,688.475215400022,None,,,,21016,0002,2022_Nov_30_0819,localizer,2021.1.3,58.36171656774447,
block,scenes,scenes010.bmp,,,,,0,225,225,225,,,,,,,,,,,,,,,,,,,,,,,,,,,,,,,,,,,,,,,,,,None,,688.475215400022,None,688.475215400022,None,2022-11-30-08:30:32.251059,688.4783840000164,688.7909104999853,688.4783840000164,688.4783840000164,None,688.4783840000164,688.4783840000164,689.2914453000179,None,,,,21016,0002,2022_Nov_30_0819,localizer,2021.1.3,58.36171656774447,
block,scenes,scenes053.bmp,,,,,0,226,226,226,,,,,,,,,,,,,,,,,,,,,,,,,,,,,,,,,,,,,,,,,,None,,689.2914453000179,None,689.2914453000179,None,2022-11-30-08:30:33.064105,689.292080800049,689.5913837000262,689.292080800049,None,None,689.292080800049,None,690.0916461999644,None,,,,21016,0002,2022_Nov_30_0819,localizer,2021.1.3,58.36171656774447,
block,scenes,scenes034.bmp,,,,,0,227,227,227,,,,,,,,,,,,,,,,,,,,,,,,,,,,,,,,,,,,,,,,,,None,,690.0916461999644,None,690.0916461999644,None,2022-11-30-08:30:33.866507,690.0944871000247,690.4080796999624,690.0944871000247,690.0944871000247,None,690.0944871000247,690.0944871000247,690.9082888999604,None,,,,21016,0002,2022_Nov_30_0819,localizer,2021.1.3,58.36171656774447,
block_end,scenes,scenes056.bmp,,,,,0,228,228,228,,,,,,,,,,,,,,,,,,,,,,,,,,,,,,,,,,,,,,,,,,None,,690.9082888999604,None,690.9082888999604,None,2022-11-30-08:30:34.681091,690.908747700043,691.2078231000341,690.908747700043,None,None,690.908747700043,None,691.7080338000436,None,,,,21016,0002,2022_Nov_30_0819,localizer,2021.1.3,58.36171656774447,
block_start,objects,objects052.bmp,,,,,0,229,229,229,,,,,,,,,,,,,,,,,,,,,,,,,,,,,,,,,,,,,,,,,,t,1.8337807999923825,691.7077846999746,None,691.7077846999746,None,2022-11-30-08:30:37.329876,693.5587919000536,693.8579319999553,693.5587919000536,None,None,693.5587919000536,None,694.3583468000055,None,,,,21016,0002,2022_Nov_30_0819,localizer,2021.1.3,58.36171656774447,
block,objects,objects022.bmp,,,,,0,230,230,230,,,,,,,,,,,,,,,,,,,,,,,,,,,,,,,,,,,,,,,,,,None,,694.3583468000055,None,694.3583468000055,None,2022-11-30-08:30:38.133961,694.3723851999966,694.6741969999857,694.3723851999966,694.3723851999966,None,694.3723851999966,694.3723851999966,695.1745799000258,None,,,,21016,0002,2022_Nov_30_0819,localizer,2021.1.3,58.36171656774447,
block,objects,objects012.bmp,,,,,0,231,231,231,,,,,,,,,,,,,,,,,,,,,,,,,,,,,,,,,,,,,,,,,,None,,695.1745799000258,None,695.1745799000258,None,2022-11-30-08:30:38.947245,695.1753751999931,695.4910647999495,695.1753751999931,None,None,695.1753751999931,None,695.9758545999997,None,,,,21016,0002,2022_Nov_30_0819,localizer,2021.1.3,58.36171656774447,
block,objects,objects009.bmp,,,,,0,232,232,232,,,,,,,,,,,,,,,,,,,,,,,,,,,,,,,,,,,,,,,,,,None,,695.9758545999997,None,695.9758545999997,None,2022-11-30-08:30:39.752615,695.9795863999752,696.2910207000095,695.9795863999752,695.9795863999752,None,695.9795863999752,695.9795863999752,696.7918618000461,None,,,,21016,0002,2022_Nov_30_0819,localizer,2021.1.3,58.36171656774447,
block,objects,objects051.bmp,,,,,0,233,233,233,,,,,,,,,,,,,,,,,,,,,,,,,,,,,,,,,,,,,,,,,,None,,696.7918618000461,None,696.7918618000461,None,2022-11-30-08:30:40.565629,696.792228700011,697.0918396000052,696.792228700011,None,None,696.792228700011,None,697.5976428999915,None,,,,21016,0002,2022_Nov_30_0819,localizer,2021.1.3,58.36171656774447,
block,objects,objects079.bmp,,,,,0,234,234,234,,,,,,,,,,,,,,,,,,,,,,,,,,,,,,,,,,,,,,,,,,None,,697.5976428999915,None,697.5976428999915,None,2022-11-30-08:30:41.377285,697.6195830999641,697.9243209999986,697.6195830999641,None,None,697.6195830999641,None,698.4091570000513,None,,,,21016,0002,2022_Nov_30_0819,localizer,2021.1.3,58.36171656774447,
block,objects,objects087.bmp,,,,,0,235,235,235,,,,,,,,,,,,,,,,,,,,,,,,,,,,,,,,,,,,,,,,,,None,,698.4091570000513,None,698.4091570000513,None,2022-11-30-08:30:42.184912,698.4133889999939,698.7244267000351,698.4133889999939,None,None,698.4133889999939,None,699.2246836000471,None,,,,21016,0002,2022_Nov_30_0819,localizer,2021.1.3,58.36171656774447,
block,objects,objects030.bmp,,,,,0,236,236,236,,,,,,,,,,,,,,,,,,,,,,,,,,,,,,,,,,,,,,,,,,None,,699.2246836000471,None,699.2246836000471,None,2022-11-30-08:30:42.997348,699.2252616999904,699.524466700037,699.2252616999904,None,None,699.2252616999904,None,700.026611899992,None,,,,21016,0002,2022_Nov_30_0819,localizer,2021.1.3,58.36171656774447,
block,objects,objects045.bmp,,,,,0,237,237,237,,,,,,,,,,,,,,,,,,,,,,,,,,,,,,,,,,,,,,,,,,None,,700.026611899992,None,700.026611899992,None,2022-11-30-08:30:43.805415,700.0331415999681,700.3417462999932,700.0331415999681,700.0331415999681,None,700.0331415999681,700.0331415999681,700.8418888999498,None,,,,21016,0002,2022_Nov_30_0819,localizer,2021.1.3,58.36171656774447,
block,objects,objects068.bmp,,,,,0,238,238,238,,,,,,,,,,,,,,,,,,,,,,,,,,,,,,,,,,,,,,,,,,None,,700.8418888999498,None,700.8418888999498,None,2022-11-30-08:30:44.615739,700.8422659999924,701.1415501000592,700.8422659999924,None,None,700.8422659999924,None,701.6578271000529,None,,,,21016,0002,2022_Nov_30_0819,localizer,2021.1.3,58.36171656774447,
block,objects,objects055.bmp,,,,,0,239,239,239,,,,,,,,,,,,,,,,,,,,,,,,,,,,,,,,,,,,,,,,,,None,,701.6578271000529,None,701.6578271000529,None,2022-11-30-08:30:45.430495,701.6587041000603,701.9585049999878,701.6587041000603,None,None,701.6587041000603,None,702.4581649999949,None,,,,21016,0002,2022_Nov_30_0819,localizer,2021.1.3,58.36171656774447,
block,objects,objects056.bmp,,,,,0,240,240,240,,,,,,,,,,,,,,,,,,,,,,,,,,,,,,,,,,,,,,,,,,None,,702.4581649999949,None,702.4581649999949,None,2022-11-30-08:30:46.232822,702.4704553999472,702.7748256999766,702.4704553999472,702.4704553999472,None,702.4704553999472,702.4704553999472,703.274618999951,None,,,,21016,0002,2022_Nov_30_0819,localizer,2021.1.3,58.36171656774447,
block,objects,objects010.bmp,,,,,0,241,241,241,,,,,,,,,,,,,,,,,,,,,,,,,,,,,,,,,,,,,,,,,,None,,703.274618999951,None,703.274618999951,None,2022-11-30-08:30:47.047512,703.27533460001,703.5977086999919,703.27533460001,None,None,703.27533460001,None,704.0753641999676,None,,,,21016,0002,2022_Nov_30_0819,localizer,2021.1.3,58.36171656774447,
block,objects,objects070.bmp,,,,,0,242,242,242,,,,,,,,,,,,,,,,,,,,,,,,,,,,,,,,,,,,,,,,,,None,,704.0753641999676,None,704.0753641999676,None,2022-11-30-08:30:47.851011,704.0901125000091,704.39108760003,704.0901125000091,704.0901125000091,None,704.0901125000091,704.0901125000091,704.8920012000366,None,,,,21016,0002,2022_Nov_30_0819,localizer,2021.1.3,58.36171656774447,
block_end,objects,objects059.bmp,,,,,0,243,243,243,,,,,,,,,,,,,,,,,,,,,,,,,,,,,,,,,,,,,,,,,,None,,704.8920012000366,None,704.8920012000366,None,2022-11-30-08:30:48.665756,704.8923711000243,705.1913705000188,704.8923711000243,None,None,704.8923711000243,None,705.6980590999941,None,,,,21016,0002,2022_Nov_30_0819,localizer,2021.1.3,58.36171656774447,
,,,,,,,,,,,,,,,,,,,,,,,,,,,,,,,,,,,,,,,,,,,,,,,,,,,,,,,,,,,,,,,,,,,,,705.6944772000425,None,,,,,,,
