block_type,condition,img_name,Button.thisRepN,Button.thisTrialN,Button.thisN,Button.thisIndex,trials.thisRepN,trials.thisTrialN,trials.thisN,trials.thisIndex,Ready_experimenter_text.started,Ready_experimenter_text.stopped,Ready_experimenter_resp.keys,Ready_experimenter_resp.rt,Ready_experimenter_resp.started,Ready_experimenter_resp.stopped,Alignment_background.started,Alignment_background.stopped,Alignment_image.started,Alignment_image.stopped,Alignment_resp.keys,Alignment_resp.rt,Alignment_resp.started,Alignment_resp.stopped,Button_text.started,Button_text.stopped,Index_text.started,Index_text.stopped,Index_resp.keys,Index_resp.rt,Index_resp.started,Index_resp.stopped,Middle_text.started,Middle_text.stopped,Middle_resp.keys,Middle_resp.rt,Middle_resp.started,Middle_resp.stopped,Repeat_text.started,Repeat_text.stopped,Repeat_resp.keys,Repeat_resp.corr,Repeat_resp.rt,Repeat_resp.started,Repeat_resp.stopped,instruction_text.started,instruction_text.stopped,key_resp.keys,key_resp.rt,key_resp.started,key_resp.stopped,scanner_t.keys,scanner_t.rt,scanner_t.started,scanner_t.stopped,fixation_wait_for_t.started,fixation_wait_for_t.stopped,real_timestamp_trial_start,image.started,image.stopped,fixation.started,fixation.stopped,repeat_response.keys,repeat_response.started,repeat_response.stopped,fixation_null.started,fixation_null.stopped,repeat_response.rt,end_text.started,end_text.stopped,participant,run,date,expName,psychopyVersion,frameRate,
,,,,,,,,,,,9.158755399985239,None,return,57.89114470011555,9.158755399985239,None,,,,,,,,,,,,,,,,,,,,,,,,,,,,,,,,,,,,,,,,,,,,,,,,,,,,,,,12012,0001,2022_Feb_22_1455,localizer,2021.1.3,59.60150433288612,
,,,,,,,,,,,,,,,,,67.1021245000884,None,67.1021245000884,None,return,10.055957299889997,67.1021245000884,None,,,,,,,,,,,,,,,,,,,,,,,,,,,,,,,,,,,,,,,,,,,,,,,12012,0001,2022_Feb_22_1455,localizer,2021.1.3,59.60150433288612,
,,,0,0,0,0,,,,,,,,,,,,,,,,,,,77.17933680000715,None,78.1961799999699,None,y,2.8242188000585884,78.1961799999699,None,81.04163750004955,None,b,1.4726527000311762,81.04163750004955,None,82.54125880007632,None,n,0,33.880671199876815,82.54125880007632,None,,,,,,,,,,,,,,,,,,,,,,,,,,12012,0001,2022_Feb_22_1455,localizer,2021.1.3,59.60150433288612,
,,,,,,,,,,,,,,,,,,,,,,,,,,,,,,,,,,,,,,,,,,,,,,116.4413258000277,None,y,9.290152200032026,116.4413258000277,None,,,,,,,,,,,,,,,,,,,,12012,0001,2022_Feb_22_1455,localizer,2021.1.3,59.60150433288612,
block_start,objects,objects028.bmp,,,,,0,0,0,0,,,,,,,,,,,,,,,,,,,,,,,,,,,,,,,,,,,,,,,,,,t,15.726123000029474,125.82430769992061,None,125.82430769992061,None,2022-02-22-14:57:49.483904,141.59044419997372,141.8914069000166,141.59044419997372,None,None,141.59044419997372,None,142.3913495000219,None,,,,12012,0001,2022_Feb_22_1455,localizer,2021.1.3,59.60150433288612,
block,objects,objects070.bmp,,,,,0,1,1,1,,,,,,,,,,,,,,,,,,,,,,,,,,,,,,,,,,,,,,,,,,None,,142.3913495000219,None,142.3913495000219,None,2022-02-22-14:57:50.300588,142.40406129998155,142.708380300086,142.40406129998155,None,None,142.40406129998155,None,143.21003849988338,None,,,,12012,0001,2022_Feb_22_1455,localizer,2021.1.3,59.60150433288612,
block,objects,objects065.bmp,,,,,0,2,2,2,,,,,,,,,,,,,,,,,,,,,,,,,,,,,,,,,,,,,,,,,,None,,143.21003849988338,None,143.21003849988338,None,2022-02-22-14:57:51.121255,143.22638930007815,143.52634930005297,143.22638930007815,None,None,143.22638930007815,None,144.02569589994383,None,,,,12012,0001,2022_Feb_22_1455,localizer,2021.1.3,59.60150433288612,
block,objects,objects084.bmp,,,,,0,3,3,3,,,,,,,,,,,,,,,,,,,,,,,,,,,,,,,,,,,,,,,,,,None,,144.02569589994383,None,144.02569589994383,None,2022-02-22-14:57:51.936108,144.04206199990585,144.35778549988754,144.04206199990585,None,None,144.04206199990585,None,144.84144879991655,None,,,,12012,0001,2022_Feb_22_1455,localizer,2021.1.3,59.60150433288612,
block,objects,objects039.bmp,,,,,0,4,4,4,,,,,,,,,,,,,,,,,,,,,,,,,,,,,,,,,,,,,,,,,,None,,144.84144879991655,None,144.84144879991655,None,2022-02-22-14:57:52.749825,144.8514183999505,145.15812800009735,144.8514183999505,None,None,144.8514183999505,None,145.65784420000855,None,,,,12012,0001,2022_Feb_22_1455,localizer,2021.1.3,59.60150433288612,
block,objects,objects080.bmp,,,,,0,5,5,5,,,,,,,,,,,,,,,,,,,,,,,,,,,,,,,,,,,,,,,,,,None,,145.65784420000855,None,145.65784420000855,None,2022-02-22-14:57:53.566623,145.66805580002256,145.97482510004193,145.66805580002256,None,None,145.66805580002256,None,146.4747234999435,None,,,,12012,0001,2022_Feb_22_1455,localizer,2021.1.3,59.60150433288612,
block,objects,objects041.bmp,,,,,0,6,6,6,,,,,,,,,,,,,,,,,,,,,,,,,,,,,,,,,,,,,,,,,,None,,146.4747234999435,None,146.4747234999435,None,2022-02-22-14:57:54.383233,146.48583910008892,146.7913293999154,146.48583910008892,None,None,146.48583910008892,None,147.29231950009708,None,,,,12012,0001,2022_Feb_22_1455,localizer,2021.1.3,59.60150433288612,
block,objects,objects024.bmp,,,,,0,7,7,7,,,,,,,,,,,,,,,,,,,,,,,,,,,,,,,,,,,,,,,,,,None,,147.29231950009708,None,147.29231950009708,None,2022-02-22-14:57:55.202736,147.30838260008022,147.60778669989668,147.30838260008022,None,None,147.30838260008022,None,148.1090770000359,None,,,,12012,0001,2022_Feb_22_1455,localizer,2021.1.3,59.60150433288612,
block,objects,objects033.bmp,,,,,0,8,8,8,,,,,,,,,,,,,,,,,,,,,,,,,,,,,,,,,,,,,,,,,,None,,148.1090770000359,None,148.1090770000359,None,2022-02-22-14:57:56.019134,148.1241357999388,148.42478269990534,148.1241357999388,None,None,148.1241357999388,None,148.9244335999014,None,,,,12012,0001,2022_Feb_22_1455,localizer,2021.1.3,59.60150433288612,
block,objects,objects051.bmp,,,,,0,9,9,9,,,,,,,,,,,,,,,,,,,,,,,,,,,,,,,,,,,,,,,,,,None,,148.9244335999014,None,148.9244335999014,None,2022-02-22-14:57:56.832768,148.9332103000488,149.24254909995943,148.9332103000488,None,None,148.9332103000488,None,149.74136670001317,None,,,,12012,0001,2022_Feb_22_1455,localizer,2021.1.3,59.60150433288612,
block,objects,objects072.bmp,,,,,0,10,10,10,,,,,,,,,,,,,,,,,,,,,,,,,,,,,,,,,,,,,,,,,,None,,149.74136670001317,None,149.74136670001317,None,2022-02-22-14:57:57.649799,149.75180500000715,150.05796210002154,149.75180500000715,None,None,149.75180500000715,None,150.55800789988135,None,,,,12012,0001,2022_Feb_22_1455,localizer,2021.1.3,59.60150433288612,
block,objects,objects034.bmp,,,,,0,11,11,11,,,,,,,,,,,,,,,,,,,,,,,,,,,,,,,,,,,,,,,,,,None,,150.55800789988135,None,150.55800789988135,None,2022-02-22-14:57:58.466481,150.56910880003124,150.87470949999988,150.56910880003124,None,None,150.56910880003124,None,151.37533350007143,None,,,,12012,0001,2022_Feb_22_1455,localizer,2021.1.3,59.60150433288612,
block,objects,objects063.bmp,,,,,0,12,12,12,,,,,,,,,,,,,,,,,,,,,,,,,,,,,,,,,,,,,,,,,,None,,151.37533350007143,None,151.37533350007143,None,2022-02-22-14:57:59.284877,151.38661519996822,151.69125119992532,151.38661519996822,None,None,151.38661519996822,None,152.1974075000966,None,,,,12012,0001,2022_Feb_22_1455,localizer,2021.1.3,59.60150433288612,
block,objects,objects023.bmp,,,,,0,13,13,13,,,,,,,,,,,,,,,,,,,,,,,,,,,,,,,,,,,,,,,,,,None,,152.1974075000966,None,152.1974075000966,None,2022-02-22-14:58:00.114450,152.22297129989602,152.52442150004208,152.22297129989602,None,None,152.22297129989602,None,153.0075739999069,None,,,,12012,0001,2022_Feb_22_1455,localizer,2021.1.3,59.60150433288612,
block_end,objects,objects085.bmp,,,,,0,14,14,14,,,,,,,,,,,,,,,,,,,,,,,,,,,,,,,,,,,,,,,,,,None,,153.0075739999069,None,153.0075739999069,None,2022-02-22-14:58:00.915963,153.0133744000923,153.32478619995527,153.0133744000923,None,None,153.0133744000923,None,153.82465879989323,None,,,,12012,0001,2022_Feb_22_1455,localizer,2021.1.3,59.60150433288612,
block_start,scenes,scenes025.bmp,,,,,0,15,15,15,,,,,,,,,,,,,,,,,,,,,,,,,,,,,,,,,,,,,,,,,,t,1.7253633998334408,153.82493479992263,None,153.82493479992263,None,2022-02-22-14:58:03.482008,155.58639149996452,155.8918025000021,155.58639149996452,None,None,155.58639149996452,None,156.3916275999276,None,,,,12012,0001,2022_Feb_22_1455,localizer,2021.1.3,59.60150433288612,
block,scenes,scenes044.bmp,,,,,0,16,16,16,,,,,,,,,,,,,,,,,,,,,,,,,,,,,,,,,,,,,,,,,,None,,156.3916275999276,None,156.3916275999276,None,2022-02-22-14:58:04.300256,156.40268729999661,156.70847010007128,156.40268729999661,None,None,156.40268729999661,None,157.20821560008918,None,,,,12012,0001,2022_Feb_22_1455,localizer,2021.1.3,59.60150433288612,
block,scenes,scenes037.bmp,,,,,0,17,17,17,,,,,,,,,,,,,,,,,,,,,,,,,,,,,,,,,,,,,,,,,,None,,157.20821560008918,None,157.20821560008918,None,2022-02-22-14:58:05.116649,157.2193302998785,157.52473609987646,157.2193302998785,None,None,157.2193302998785,None,158.02483760004398,None,,,,12012,0001,2022_Feb_22_1455,localizer,2021.1.3,59.60150433288612,
block,scenes,scenes012.bmp,,,,,0,18,18,18,,,,,,,,,,,,,,,,,,,,,,,,,,,,,,,,,,,,,,,,,,None,,158.02483760004398,None,158.02483760004398,None,2022-02-22-14:58:05.933509,158.03256449988112,158.34140160004608,158.03256449988112,None,None,158.03256449988112,None,158.84129139988218,None,,,,12012,0001,2022_Feb_22_1455,localizer,2021.1.3,59.60150433288612,
block,scenes,scenes028.bmp,,,,,0,19,19,19,,,,,,,,,,,,,,,,,,,,,,,,,,,,,,,,,,,,,,,,,,None,,158.84129139988218,None,158.84129139988218,None,2022-02-22-14:58:06.749755,158.85170600004494,159.15813799994066,158.85170600004494,None,None,158.85170600004494,None,159.65783630006482,None,,,,12012,0001,2022_Feb_22_1455,localizer,2021.1.3,59.60150433288612,
block,scenes,scenes008.bmp,,,,,0,20,20,20,,,,,,,,,,,,,,,,,,,,,,,,,,,,,,,,,,,,,,,,,,None,,159.65783630006482,None,159.65783630006482,None,2022-02-22-14:58:07.566315,159.66712219989859,159.97482190001756,159.66712219989859,None,None,159.66712219989859,None,160.48085139992182,None,,,,12012,0001,2022_Feb_22_1455,localizer,2021.1.3,59.60150433288612,
block,scenes,scenes050.bmp,,,,,0,21,21,21,,,,,,,,,,,,,,,,,,,,,,,,,,,,,,,,,,,,,,,,,,None,,160.48085139992182,None,160.48085139992182,None,2022-02-22-14:58:08.394004,160.49749740003608,160.8082433999516,160.49749740003608,None,None,160.49749740003608,None,161.29156149991323,None,,,,12012,0001,2022_Feb_22_1455,localizer,2021.1.3,59.60150433288612,
block,scenes,scenes005.bmp,,,,,0,22,22,22,,,,,,,,,,,,,,,,,,,,,,,,,,,,,,,,,,,,,,,,,,None,,161.29156149991323,None,161.29156149991323,None,2022-02-22-14:58:09.200057,161.30274459999055,161.60803620005026,161.30274459999055,None,None,161.30274459999055,None,162.10835219987203,None,,,,12012,0001,2022_Feb_22_1455,localizer,2021.1.3,59.60150433288612,
block,scenes,scenes068.bmp,,,,,0,23,23,23,,,,,,,,,,,,,,,,,,,,,,,,,,,,,,,,,,,,,,,,,,None,,162.10835219987203,None,162.10835219987203,None,2022-02-22-14:58:10.016950,162.11939119989984,162.42557749990374,162.11939119989984,None,None,162.11939119989984,None,162.925295700063,None,,,,12012,0001,2022_Feb_22_1455,localizer,2021.1.3,59.60150433288612,
block,scenes,scenes049.bmp,,,,,0,24,24,24,,,,,,,,,,,,,,,,,,,,,,,,,,,,,,,,,,,,,,,,,,None,,162.925295700063,None,162.925295700063,None,2022-02-22-14:58:10.834796,162.9390233999584,163.24184620007873,162.9390233999584,None,None,162.9390233999584,None,163.7418740000343,None,,,,12012,0001,2022_Feb_22_1455,localizer,2021.1.3,59.60150433288612,
block,scenes,scenes092.bmp,,,,,0,25,25,25,,,,,,,,,,,,,,,,,,,,,,,,,,,,,,,,,,,,,,,,,,None,,163.7418740000343,None,163.7418740000343,None,2022-02-22-14:58:11.650585,163.7527441000566,164.05858050007373,163.7527441000566,None,None,163.7527441000566,None,164.56046180005652,None,,,,12012,0001,2022_Feb_22_1455,localizer,2021.1.3,59.60150433288612,
block,scenes,scenes006.bmp,,,,,0,26,26,26,,,,,,,,,,,,,,,,,,,,,,,,,,,,,,,,,,,,,,,,,,None,,164.56046180005652,None,164.56046180005652,None,2022-02-22-14:58:12.472978,164.57440949999727,164.87490849988535,164.57440949999727,None,None,164.57440949999727,None,165.37557350003627,None,,,,12012,0001,2022_Feb_22_1455,localizer,2021.1.3,59.60150433288612,
block,scenes,scenes057.bmp,,,,,0,27,27,27,,,,,,,,,,,,,,,,,,,,,,,,,,,,,,,,,,,,,,,,,,None,,165.37557350003627,None,165.37557350003627,None,2022-02-22-14:58:13.285233,165.3884381998796,165.69147439999506,165.3884381998796,None,None,165.3884381998796,None,166.19126159998123,None,,,,12012,0001,2022_Feb_22_1455,localizer,2021.1.3,59.60150433288612,
block,scenes,scenes057.bmp,,,,,0,28,28,28,,,,,,,,,,,,,,,,,,,,,,,,,,,,,,,,,,,,,,,,,,None,,166.19126159998123,None,166.19126159998123,None,2022-02-22-14:58:14.099823,166.19235139992088,166.50807300000452,166.19235139992088,None,y,166.19235139992088,None,166.99151120006573,None,0.431788100162521,,,12012,0001,2022_Feb_22_1455,localizer,2021.1.3,59.60150433288612,
block_end,scenes,scenes071.bmp,,,,,0,29,29,29,,,,,,,,,,,,,,,,,,,,,,,,,,,,,,,,,,,,,,,,,,None,,166.99151120006573,None,166.99151120006573,None,2022-02-22-14:58:14.902285,167.00375030003488,167.3082185999956,167.00375030003488,167.00375030003488,None,167.00375030003488,167.00375030003488,167.80910859999713,None,,,,12012,0001,2022_Feb_22_1455,localizer,2021.1.3,59.60150433288612,
block_start,faces,faces043.bmp,,,,,0,30,30,30,,,,,,,,,,,,,,,,,,,,,,,,,,,,,,,,,,,,,,,,,,t,1.7426061001606286,167.8077648000326,None,167.8077648000326,None,2022-02-22-14:58:17.482369,169.58519300003536,169.89145980007015,169.58519300003536,None,None,169.58519300003536,None,170.39137979990338,None,,,,12012,0001,2022_Feb_22_1455,localizer,2021.1.3,59.60150433288612,
block,faces,faces032.bmp,,,,,0,31,31,31,,,,,,,,,,,,,,,,,,,,,,,,,,,,,,,,,,,,,,,,,,None,,170.39137979990338,None,170.39137979990338,None,2022-02-22-14:58:18.299719,170.40048979991116,170.70826269988902,170.40048979991116,None,None,170.40048979991116,None,171.20940200004262,None,,,,12012,0001,2022_Feb_22_1455,localizer,2021.1.3,59.60150433288612,
block,faces,faces048.bmp,,,,,0,32,32,32,,,,,,,,,,,,,,,,,,,,,,,,,,,,,,,,,,,,,,,,,,None,,171.20940200004262,None,171.20940200004262,None,2022-02-22-14:58:19.121193,171.22581769991666,171.54137900006026,171.22581769991666,None,None,171.22581769991666,None,172.02599989993033,None,,,,12012,0001,2022_Feb_22_1455,localizer,2021.1.3,59.60150433288612,
block,faces,faces033.bmp,,,,,0,33,33,33,,,,,,,,,,,,,,,,,,,,,,,,,,,,,,,,,,,,,,,,,,None,,172.02599989993033,None,172.02599989993033,None,2022-02-22-14:58:19.936614,172.0518173999153,172.35842130007222,172.0518173999153,None,None,172.0518173999153,None,172.84758449995425,None,,,,12012,0001,2022_Feb_22_1455,localizer,2021.1.3,59.60150433288612,
block,faces,faces080.bmp,,,,,0,34,34,34,,,,,,,,,,,,,,,,,,,,,,,,,,,,,,,,,,,,,,,,,,None,,172.84758449995425,None,172.84758449995425,None,2022-02-22-14:58:20.762625,172.86926369997673,173.1751999000553,172.86926369997673,None,None,172.86926369997673,None,173.6582969000796,None,,,,12012,0001,2022_Feb_22_1455,localizer,2021.1.3,59.60150433288612,
block,faces,faces051.bmp,,,,,0,35,35,35,,,,,,,,,,,,,,,,,,,,,,,,,,,,,,,,,,,,,,,,,,None,,173.6582969000796,None,173.6582969000796,None,2022-02-22-14:58:21.568160,173.67083019996062,173.97511300002225,173.67083019996062,None,None,173.67083019996062,None,174.47543799991254,None,,,,12012,0001,2022_Feb_22_1455,localizer,2021.1.3,59.60150433288612,
block,faces,faces054.bmp,,,,,0,36,36,36,,,,,,,,,,,,,,,,,,,,,,,,,,,,,,,,,,,,,,,,,,None,,174.47543799991254,None,174.47543799991254,None,2022-02-22-14:58:22.385280,174.4872713999357,174.791189200012,174.4872713999357,None,None,174.4872713999357,None,175.29242939988617,None,,,,12012,0001,2022_Feb_22_1455,localizer,2021.1.3,59.60150433288612,
block,faces,faces005.bmp,,,,,0,37,37,37,,,,,,,,,,,,,,,,,,,,,,,,,,,,,,,,,,,,,,,,,,None,,175.29242939988617,None,175.29242939988617,None,2022-02-22-14:58:23.203097,175.3072224999778,175.6085101000499,175.3072224999778,None,None,175.3072224999778,None,176.1085809999844,None,,,,12012,0001,2022_Feb_22_1455,localizer,2021.1.3,59.60150433288612,
block,faces,faces075.bmp,,,,,0,38,38,38,,,,,,,,,,,,,,,,,,,,,,,,,,,,,,,,,,,,,,,,,,None,,176.1085809999844,None,176.1085809999844,None,2022-02-22-14:58:24.018462,176.12050829990767,176.4254828998819,176.12050829990767,None,None,176.12050829990767,None,176.92454649994616,None,,,,12012,0001,2022_Feb_22_1455,localizer,2021.1.3,59.60150433288612,
block,faces,faces078.bmp,,,,,0,39,39,39,,,,,,,,,,,,,,,,,,,,,,,,,,,,,,,,,,,,,,,,,,None,,176.92454649994616,None,176.92454649994616,None,2022-02-22-14:58:24.833500,176.9338644000236,177.24197730002925,176.9338644000236,None,None,176.9338644000236,None,177.74214309987147,None,,,,12012,0001,2022_Feb_22_1455,localizer,2021.1.3,59.60150433288612,
block,faces,faces066.bmp,,,,,0,40,40,40,,,,,,,,,,,,,,,,,,,,,,,,,,,,,,,,,,,,,,,,,,None,,177.74214309987147,None,177.74214309987147,None,2022-02-22-14:58:25.651845,177.75502529996447,178.05816129990853,177.75502529996447,None,None,177.75502529996447,None,178.55787990007084,None,,,,12012,0001,2022_Feb_22_1455,localizer,2021.1.3,59.60150433288612,
block,faces,faces045.bmp,,,,,0,41,41,41,,,,,,,,,,,,,,,,,,,,,,,,,,,,,,,,,,,,,,,,,,None,,178.55787990007084,None,178.55787990007084,None,2022-02-22-14:58:26.466610,178.5666408999823,178.8749680998735,178.5666408999823,None,None,178.5666408999823,None,179.37540689993185,None,,,,12012,0001,2022_Feb_22_1455,localizer,2021.1.3,59.60150433288612,
block,faces,faces083.bmp,,,,,0,42,42,42,,,,,,,,,,,,,,,,,,,,,,,,,,,,,,,,,,,,,,,,,,None,,179.37540689993185,None,179.37540689993185,None,2022-02-22-14:58:27.285132,179.38718319986947,179.69145829998888,179.38718319986947,None,None,179.38718319986947,None,180.1917234998895,None,,,,12012,0001,2022_Feb_22_1455,localizer,2021.1.3,59.60150433288612,
block,faces,faces008.bmp,,,,,0,43,43,43,,,,,,,,,,,,,,,,,,,,,,,,,,,,,,,,,,,,,,,,,,None,,180.1917234998895,None,180.1917234998895,None,2022-02-22-14:58:28.100676,180.20369710004888,180.5081301999744,180.20369710004888,None,None,180.20369710004888,None,181.0087141999742,None,,,,12012,0001,2022_Feb_22_1455,localizer,2021.1.3,59.60150433288612,
block_end,faces,faces027.bmp,,,,,0,44,44,44,,,,,,,,,,,,,,,,,,,,,,,,,,,,,,,,,,,,,,,,,,None,,181.0087141999742,None,181.0087141999742,None,2022-02-22-14:58:28.918438,181.0218386000488,181.32546230009757,181.0218386000488,None,None,181.0218386000488,None,181.82547380004544,None,,,,12012,0001,2022_Feb_22_1455,localizer,2021.1.3,59.60150433288612,
null_block,null_block,null_block.bmp,,,,,0,45,45,45,,,,,,,,,,,,,,,,,,,,,,,,,,,,,,,,,,,,,,,,,,t,1.7248561000451446,181.82545930007473,None,181.82545930007473,None,2022-02-22-14:58:31.482739,183.59146099998617,None,183.59146099998617,None,None,183.59146099998617,None,183.5891561000608,None,,,,12012,0001,2022_Feb_22_1455,localizer,2021.1.3,59.60150433288612,
block_start,scrambled,scrambled079.bmp,,,,,0,46,46,46,,,,,,,,,,,,,,,,,,,,,,,,,,,,,,,,,,,,,,,,,,t,1.957834999775514,195.59172919997945,None,195.59172919997945,None,2022-02-22-14:58:45.484663,197.58575389999896,197.89179360005073,197.58575389999896,None,None,197.58575389999896,None,198.3918677000096,None,,,,12012,0001,2022_Feb_22_1455,localizer,2021.1.3,59.60150433288612,
block,scrambled,scrambled029.bmp,,,,,0,47,47,47,,,,,,,,,,,,,,,,,,,,,,,,,,,,,,,,,,,,,,,,,,None,,198.3918677000096,None,198.3918677000096,None,2022-02-22-14:58:46.300764,198.40286129992455,198.70846090000123,198.40286129992455,None,None,198.40286129992455,None,199.19765600000974,None,,,,12012,0001,2022_Feb_22_1455,localizer,2021.1.3,59.60150433288612,
block,scrambled,scrambled001.bmp,,,,,0,48,48,48,,,,,,,,,,,,,,,,,,,,,,,,,,,,,,,,,,,,,,,,,,None,,199.19765600000974,None,199.19765600000974,None,2022-02-22-14:58:47.115628,199.21815199987032,199.52616279991344,199.21815199987032,None,None,199.21815199987032,None,200.00820469993633,None,,,,12012,0001,2022_Feb_22_1455,localizer,2021.1.3,59.60150433288612,
block,scrambled,scrambled060.bmp,,,,,0,49,49,49,,,,,,,,,,,,,,,,,,,,,,,,,,,,,,,,,,,,,,,,,,None,,200.00820469993633,None,200.00820469993633,None,2022-02-22-14:58:47.916228,200.01659119990654,200.3251370000653,200.01659119990654,None,None,200.01659119990654,None,200.82484930006322,None,,,,12012,0001,2022_Feb_22_1455,localizer,2021.1.3,59.60150433288612,
block,scrambled,scrambled015.bmp,,,,,0,50,50,50,,,,,,,,,,,,,,,,,,,,,,,,,,,,,,,,,,,,,,,,,,None,,200.82484930006322,None,200.82484930006322,None,2022-02-22-14:58:48.733875,200.83412840007804,201.14169960003346,200.83412840007804,None,None,200.83412840007804,None,201.64165209999774,None,,,,12012,0001,2022_Feb_22_1455,localizer,2021.1.3,59.60150433288612,
block,scrambled,scrambled002.bmp,,,,,0,51,51,51,,,,,,,,,,,,,,,,,,,,,,,,,,,,,,,,,,,,,,,,,,None,,201.64165209999774,None,201.64165209999774,None,2022-02-22-14:58:49.550691,201.65238870005123,201.95856579998508,201.65238870005123,None,None,201.65238870005123,None,202.45844550009352,None,,,,12012,0001,2022_Feb_22_1455,localizer,2021.1.3,59.60150433288612,
block,scrambled,scrambled073.bmp,,,,,0,52,52,52,,,,,,,,,,,,,,,,,,,,,,,,,,,,,,,,,,,,,,,,,,None,,202.45844550009352,None,202.45844550009352,None,2022-02-22-14:58:50.367521,202.46932430006564,202.7751831000205,202.46932430006564,None,None,202.46932430006564,None,203.27521490000655,None,,,,12012,0001,2022_Feb_22_1455,localizer,2021.1.3,59.60150433288612,
block,scrambled,scrambled022.bmp,,,,,0,53,53,53,,,,,,,,,,,,,,,,,,,,,,,,,,,,,,,,,,,,,,,,,,None,,203.27521490000655,None,203.27521490000655,None,2022-02-22-14:58:51.184239,203.28236220008694,203.59170600003563,203.28236220008694,None,None,203.28236220008694,None,204.0925797999138,None,,,,12012,0001,2022_Feb_22_1455,localizer,2021.1.3,59.60150433288612,
block,scrambled,scrambled051.bmp,,,,,0,54,54,54,,,,,,,,,,,,,,,,,,,,,,,,,,,,,,,,,,,,,,,,,,None,,204.0925797999138,None,204.0925797999138,None,2022-02-22-14:58:52.002763,204.1031512999907,204.40838539996184,204.1031512999907,None,None,204.1031512999907,None,204.90900560000446,None,,,,12012,0001,2022_Feb_22_1455,localizer,2021.1.3,59.60150433288612,
block,scrambled,scrambled019.bmp,,,,,0,55,55,55,,,,,,,,,,,,,,,,,,,,,,,,,,,,,,,,,,,,,,,,,,None,,204.90900560000446,None,204.90900560000446,None,2022-02-22-14:58:52.819840,204.921803599922,205.2251504000742,204.921803599922,None,None,204.921803599922,None,205.72507479994093,None,,,,12012,0001,2022_Feb_22_1455,localizer,2021.1.3,59.60150433288612,
block,scrambled,scrambled084.bmp,,,,,0,56,56,56,,,,,,,,,,,,,,,,,,,,,,,,,,,,,,,,,,,,,,,,,,None,,205.72507479994093,None,205.72507479994093,None,2022-02-22-14:58:53.634163,205.73640659986995,206.04194499994628,205.73640659986995,None,None,205.73640659986995,None,206.5415910999058,None,,,,12012,0001,2022_Feb_22_1455,localizer,2021.1.3,59.60150433288612,
block,scrambled,scrambled043.bmp,,,,,0,57,57,57,,,,,,,,,,,,,,,,,,,,,,,,,,,,,,,,,,,,,,,,,,None,,206.5415910999058,None,206.5415910999058,None,2022-02-22-14:58:54.449702,206.54992739995942,206.8588811000809,206.54992739995942,None,None,206.54992739995942,None,207.35900370005984,None,,,,12012,0001,2022_Feb_22_1455,localizer,2021.1.3,59.60150433288612,
block,scrambled,scrambled061.bmp,,,,,0,58,58,58,,,,,,,,,,,,,,,,,,,,,,,,,,,,,,,,,,,,,,,,,,None,,207.35900370005984,None,207.35900370005984,None,2022-02-22-14:58:55.269102,207.37077519996092,207.675332600018,207.37077519996092,None,None,207.37077519996092,None,208.17535530005117,None,,,,12012,0001,2022_Feb_22_1455,localizer,2021.1.3,59.60150433288612,
block,scrambled,scrambled054.bmp,,,,,0,59,59,59,,,,,,,,,,,,,,,,,,,,,,,,,,,,,,,,,,,,,,,,,,None,,208.17535530005117,None,208.17535530005117,None,2022-02-22-14:58:56.084473,208.18747889995575,208.49166910001077,208.18747889995575,None,None,208.18747889995575,None,208.99241490007844,None,,,,12012,0001,2022_Feb_22_1455,localizer,2021.1.3,59.60150433288612,
block_end,scrambled,scrambled034.bmp,,,,,0,60,60,60,,,,,,,,,,,,,,,,,,,,,,,,,,,,,,,,,,,,,,,,,,None,,208.99241490007844,None,208.99241490007844,None,2022-02-22-14:58:56.902533,209.00423599989153,209.3102500999812,209.00423599989153,None,None,209.00423599989153,None,209.8083369000582,None,,,,12012,0001,2022_Feb_22_1455,localizer,2021.1.3,59.60150433288612,
block_start,faces,faces013.bmp,,,,,0,61,61,61,,,,,,,,,,,,,,,,,,,,,,,,,,,,,,,,,,,,,,,,,,t,1.7412707000039518,209.80830099992454,None,209.80830099992454,None,2022-02-22-14:58:59.483489,211.58754380000755,211.89221079996787,211.58754380000755,None,None,211.58754380000755,None,212.39178719997872,None,,,,12012,0001,2022_Feb_22_1455,localizer,2021.1.3,59.60150433288612,
block,faces,faces028.bmp,,,,,0,62,62,62,,,,,,,,,,,,,,,,,,,,,,,,,,,,,,,,,,,,,,,,,,None,,212.39178719997872,None,212.39178719997872,None,2022-02-22-14:59:00.300967,212.40220290003344,212.7084530000575,212.40220290003344,None,None,212.40220290003344,None,213.2084864000557,None,,,,12012,0001,2022_Feb_22_1455,localizer,2021.1.3,59.60150433288612,
block,faces,faces080.bmp,,,,,0,63,63,63,,,,,,,,,,,,,,,,,,,,,,,,,,,,,,,,,,,,,,,,,,None,,213.2084864000557,None,213.2084864000557,None,2022-02-22-14:59:01.117675,213.21057259989902,213.5251599000767,213.21057259989902,None,None,213.21057259989902,None,214.0147885998944,None,,,,12012,0001,2022_Feb_22_1455,localizer,2021.1.3,59.60150433288612,
block,faces,faces034.bmp,,,,,0,64,64,64,,,,,,,,,,,,,,,,,,,,,,,,,,,,,,,,,,,,,,,,,,None,,214.0147885998944,None,214.0147885998944,None,2022-02-22-14:59:01.931797,214.03524870006368,214.34172570006922,214.03524870006368,None,None,214.03524870006368,None,214.82556980007794,None,,,,12012,0001,2022_Feb_22_1455,localizer,2021.1.3,59.60150433288612,
block,faces,faces075.bmp,,,,,0,65,65,65,,,,,,,,,,,,,,,,,,,,,,,,,,,,,,,,,,,,,,,,,,None,,214.82556980007794,None,214.82556980007794,None,2022-02-22-14:59:02.735752,214.82648280006833,215.12570389988832,214.82648280006833,None,None,214.82648280006833,None,215.6256196999224,None,,,,12012,0001,2022_Feb_22_1455,localizer,2021.1.3,59.60150433288612,
block,faces,faces007.bmp,,,,,0,66,66,66,,,,,,,,,,,,,,,,,,,,,,,,,,,,,,,,,,,,,,,,,,None,,215.6256196999224,None,215.6256196999224,None,2022-02-22-14:59:03.537825,215.64035969995894,215.94172869995236,215.64035969995894,215.64035969995894,None,215.64035969995894,215.64035969995894,216.4418178999098,None,,,,12012,0001,2022_Feb_22_1455,localizer,2021.1.3,59.60150433288612,
block,faces,faces044.bmp,,,,,0,67,67,67,,,,,,,,,,,,,,,,,,,,,,,,,,,,,,,,,,,,,,,,,,None,,216.4418178999098,None,216.4418178999098,None,2022-02-22-14:59:04.351073,216.45320270000957,216.75808169995435,216.45320270000957,None,None,216.45320270000957,None,217.25880039993208,None,,,,12012,0001,2022_Feb_22_1455,localizer,2021.1.3,59.60150433288612,
block,faces,faces012.bmp,,,,,0,68,68,68,,,,,,,,,,,,,,,,,,,,,,,,,,,,,,,,,,,,,,,,,,None,,217.25880039993208,None,217.25880039993208,None,2022-02-22-14:59:05.168039,217.26976029993966,217.57548490003683,217.26976029993966,None,None,217.26976029993966,None,218.07564010003117,None,,,,12012,0001,2022_Feb_22_1455,localizer,2021.1.3,59.60150433288612,
block,faces,faces048.bmp,,,,,0,69,69,69,,,,,,,,,,,,,,,,,,,,,,,,,,,,,,,,,,,,,,,,,,None,,218.07564010003117,None,218.07564010003117,None,2022-02-22-14:59:05.986062,218.07644889992662,218.3916370999068,218.07644889992662,None,None,218.07644889992662,None,218.89153919995297,None,,,,12012,0001,2022_Feb_22_1455,localizer,2021.1.3,59.60150433288612,
block,faces,faces011.bmp,,,,,0,70,70,70,,,,,,,,,,,,,,,,,,,,,,,,,,,,,,,,,,,,,,,,,,None,,218.89153919995297,None,218.89153919995297,None,2022-02-22-14:59:06.799813,218.90011080005206,219.21066290000454,218.90011080005206,None,None,218.90011080005206,None,219.7087260000175,None,,,,12012,0001,2022_Feb_22_1455,localizer,2021.1.3,59.60150433288612,
block,faces,faces047.bmp,,,,,0,71,71,71,,,,,,,,,,,,,,,,,,,,,,,,,,,,,,,,,,,,,,,,,,None,,219.7087260000175,None,219.7087260000175,None,2022-02-22-14:59:07.618176,219.72580979997292,220.0249892999418,219.72580979997292,None,None,219.72580979997292,None,220.52553880002816,None,,,,12012,0001,2022_Feb_22_1455,localizer,2021.1.3,59.60150433288612,
block,faces,faces046.bmp,,,,,0,72,72,72,,,,,,,,,,,,,,,,,,,,,,,,,,,,,,,,,,,,,,,,,,None,,220.52553880002816,None,220.52553880002816,None,2022-02-22-14:59:08.434823,220.53746000002138,220.84221379994415,220.53746000002138,None,None,220.53746000002138,None,221.34214009994176,None,,,,12012,0001,2022_Feb_22_1455,localizer,2021.1.3,59.60150433288612,
block,faces,faces033.bmp,,,,,0,73,73,73,,,,,,,,,,,,,,,,,,,,,,,,,,,,,,,,,,,,,,,,,,None,,221.34214009994176,None,221.34214009994176,None,2022-02-22-14:59:09.251638,221.34301399998367,221.64227889990434,221.34301399998367,None,None,221.34301399998367,None,222.1424197999062,None,,,,12012,0001,2022_Feb_22_1455,localizer,2021.1.3,59.60150433288612,
block,faces,faces021.bmp,,,,,0,74,74,74,,,,,,,,,,,,,,,,,,,,,,,,,,,,,,,,,,,,,,,,,,None,,222.1424197999062,None,222.1424197999062,None,2022-02-22-14:59:10.054712,222.1568817999214,222.45853760000318,222.1568817999214,222.1568817999214,None,222.1568817999214,222.1568817999214,222.95852850002703,None,,,,12012,0001,2022_Feb_22_1455,localizer,2021.1.3,59.60150433288612,
block_end,faces,faces003.bmp,,,,,0,75,75,75,,,,,,,,,,,,,,,,,,,,,,,,,,,,,,,,,,,,,,,,,,None,,222.95852850002703,None,222.95852850002703,None,2022-02-22-14:59:10.867848,222.96938970009796,223.27540430007502,222.96938970009796,None,None,222.96938970009796,None,223.77544010009152,None,,,,12012,0001,2022_Feb_22_1455,localizer,2021.1.3,59.60150433288612,
null_block,null_block,null_block.bmp,,,,,0,76,76,76,,,,,,,,,,,,,,,,,,,,,,,,,,,,,,,,,,,,,,,,,,t,1.7740444000810385,223.775437500095,None,223.775437500095,None,2022-02-22-14:59:13.487847,225.5763743000338,None,225.5763743000338,None,None,225.5763743000338,None,225.58246259996668,None,,,,12012,0001,2022_Feb_22_1455,localizer,2021.1.3,59.60150433288612,
block_start,objects,objects063.bmp,,,,,0,77,77,77,,,,,,,,,,,,,,,,,,,,,,,,,,,,,,,,,,,,,,,,,,t,1.956183300120756,237.59330409998074,None,237.59330409998074,None,2022-02-22-14:59:27.485729,239.57606910006143,239.87603759998456,239.57606910006143,None,None,239.57606910006143,None,240.37573629987892,None,,,,12012,0001,2022_Feb_22_1455,localizer,2021.1.3,59.60150433288612,
block,objects,objects003.bmp,,,,,0,78,78,78,,,,,,,,,,,,,,,,,,,,,,,,,,,,,,,,,,,,,,,,,,None,,240.37573629987892,None,240.37573629987892,None,2022-02-22-14:59:28.288472,240.39023340004496,240.69253599992953,240.39023340004496,240.39023340004496,None,240.39023340004496,240.39023340004496,241.19148449993227,None,,,,12012,0001,2022_Feb_22_1455,localizer,2021.1.3,59.60150433288612,
block,objects,objects077.bmp,,,,,0,79,79,79,,,,,,,,,,,,,,,,,,,,,,,,,,,,,,,,,,,,,,,,,,None,,241.19148449993227,None,241.19148449993227,None,2022-02-22-14:59:29.101055,241.19666619994678,241.5086324000731,241.19666619994678,None,None,241.19666619994678,None,242.00841240000446,None,,,,12012,0001,2022_Feb_22_1455,localizer,2021.1.3,59.60150433288612,
block,objects,objects073.bmp,,,,,0,80,80,80,,,,,,,,,,,,,,,,,,,,,,,,,,,,,,,,,,,,,,,,,,None,,242.00841240000446,None,242.00841240000446,None,2022-02-22-14:59:29.916997,242.01709360000677,242.3255266000051,242.01709360000677,None,None,242.01709360000677,None,242.82592070007232,None,,,,12012,0001,2022_Feb_22_1455,localizer,2021.1.3,59.60150433288612,
block,objects,objects018.bmp,,,,,0,81,81,81,,,,,,,,,,,,,,,,,,,,,,,,,,,,,,,,,,,,,,,,,,None,,242.82592070007232,None,242.82592070007232,None,2022-02-22-14:59:30.736453,242.83765350002795,243.14230039995164,242.83765350002795,None,None,242.83765350002795,None,243.64189129995648,None,,,,12012,0001,2022_Feb_22_1455,localizer,2021.1.3,59.60150433288612,
block,objects,objects002.bmp,,,,,0,82,82,82,,,,,,,,,,,,,,,,,,,,,,,,,,,,,,,,,,,,,,,,,,None,,243.64189129995648,None,243.64189129995648,None,2022-02-22-14:59:31.551713,243.65228389995173,243.958810799988,243.65228389995173,None,None,243.65228389995173,None,244.45916080006864,None,,,,12012,0001,2022_Feb_22_1455,localizer,2021.1.3,59.60150433288612,
block,objects,objects076.bmp,,,,,0,83,83,83,,,,,,,,,,,,,,,,,,,,,,,,,,,,,,,,,,,,,,,,,,None,,244.45916080006864,None,244.45916080006864,None,2022-02-22-14:59:32.369896,244.4698121000547,244.77509139990434,244.4698121000547,None,None,244.4698121000547,None,245.27536539987196,None,,,,12012,0001,2022_Feb_22_1455,localizer,2021.1.3,59.60150433288612,
block,objects,objects076.bmp,,,,,0,84,84,84,,,,,,,,,,,,,,,,,,,,,,,,,,,,,,,,,,,,,,,,,,None,,245.27536539987196,None,245.27536539987196,None,2022-02-22-14:59:33.184983,245.27633460005745,245.57577540003695,245.27633460005745,None,y,245.27633460005745,None,246.09166870007758,None,0.6341367000713944,,,12012,0001,2022_Feb_22_1455,localizer,2021.1.3,59.60150433288612,
block,objects,objects057.bmp,,,,,0,85,85,85,,,,,,,,,,,,,,,,,,,,,,,,,,,,,,,,,,,,,,,,,,None,,246.09166870007758,None,246.09166870007758,None,2022-02-22-14:59:34.000365,246.10019179992378,246.4084761000704,246.10019179992378,None,None,246.10019179992378,None,246.90978439988103,None,,,,12012,0001,2022_Feb_22_1455,localizer,2021.1.3,59.60150433288612,
block,objects,objects084.bmp,,,,,0,86,86,86,,,,,,,,,,,,,,,,,,,,,,,,,,,,,,,,,,,,,,,,,,None,,246.90978439988103,None,246.90978439988103,None,2022-02-22-14:59:34.820539,246.91213679988869,247.22527309996076,246.91213679988869,None,None,246.91213679988869,None,247.72535430009012,None,,,,12012,0001,2022_Feb_22_1455,localizer,2021.1.3,59.60150433288612,
block,objects,objects021.bmp,,,,,0,87,87,87,,,,,,,,,,,,,,,,,,,,,,,,,,,,,,,,,,,,,,,,,,None,,247.72535430009012,None,247.72535430009012,None,2022-02-22-14:59:35.634668,247.73600380006246,248.0420164000243,247.73600380006246,None,None,247.73600380006246,None,248.54754419995007,None,,,,12012,0001,2022_Feb_22_1455,localizer,2021.1.3,59.60150433288612,
block,objects,objects050.bmp,,,,,0,88,88,88,,,,,,,,,,,,,,,,,,,,,,,,,,,,,,,,,,,,,,,,,,None,,248.54754419995007,None,248.54754419995007,None,2022-02-22-14:59:36.464721,248.5675373999402,248.87515580002218,248.5675373999402,None,None,248.5675373999402,None,249.35862540008966,None,,,,12012,0001,2022_Feb_22_1455,localizer,2021.1.3,59.60150433288612,
block,objects,objects004.bmp,,,,,0,89,89,89,,,,,,,,,,,,,,,,,,,,,,,,,,,,,,,,,,,,,,,,,,None,,249.35862540008966,None,249.35862540008966,None,2022-02-22-14:59:37.268520,249.36898520006798,249.67527549993247,249.36898520006798,None,None,249.36898520006798,None,250.17519919991028,None,,,,12012,0001,2022_Feb_22_1455,localizer,2021.1.3,59.60150433288612,
block,objects,objects037.bmp,,,,,0,90,90,90,,,,,,,,,,,,,,,,,,,,,,,,,,,,,,,,,,,,,,,,,,None,,250.17519919991028,None,250.17519919991028,None,2022-02-22-14:59:38.084990,250.1849615999963,250.498692400055,250.1849615999963,None,None,250.1849615999963,None,250.99189419995528,None,,,,12012,0001,2022_Feb_22_1455,localizer,2021.1.3,59.60150433288612,
block_end,objects,objects033.bmp,,,,,0,91,91,91,,,,,,,,,,,,,,,,,,,,,,,,,,,,,,,,,,,,,,,,,,None,,250.99189419995528,None,250.99189419995528,None,2022-02-22-14:59:38.901591,250.99311770009808,251.3129018000327,250.99311770009808,None,None,250.99311770009808,None,251.80885010000785,None,,,,12012,0001,2022_Feb_22_1455,localizer,2021.1.3,59.60150433288612,
block_start,scrambled,scrambled053.bmp,,,,,0,92,92,92,,,,,,,,,,,,,,,,,,,,,,,,,,,,,,,,,,,,,,,,,,t,1.740526899928227,251.80895269988105,None,251.80895269988105,None,2022-02-22-14:59:41.484032,253.58480249997228,253.89220810006373,253.58480249997228,None,None,253.58480249997228,None,254.3924146999838,None,,,,12012,0001,2022_Feb_22_1455,localizer,2021.1.3,59.60150433288612,
block,scrambled,scrambled065.bmp,,,,,0,93,93,93,,,,,,,,,,,,,,,,,,,,,,,,,,,,,,,,,,,,,,,,,,None,,254.3924146999838,None,254.3924146999838,None,2022-02-22-14:59:42.303336,254.40346270008013,254.7092977000866,254.40346270008013,None,None,254.40346270008013,None,255.20964640004095,None,,,,12012,0001,2022_Feb_22_1455,localizer,2021.1.3,59.60150433288612,
block,scrambled,scrambled087.bmp,,,,,0,94,94,94,,,,,,,,,,,,,,,,,,,,,,,,,,,,,,,,,,,,,,,,,,None,,255.20964640004095,None,255.20964640004095,None,2022-02-22-14:59:43.121034,255.22217709990218,255.52541580004618,255.22217709990218,None,None,255.22217709990218,None,256.0252318000188,None,,,,12012,0001,2022_Feb_22_1455,localizer,2021.1.3,59.60150433288612,
block,scrambled,scrambled002.bmp,,,,,0,95,95,95,,,,,,,,,,,,,,,,,,,,,,,,,,,,,,,,,,,,,,,,,,None,,256.0252318000188,None,256.0252318000188,None,2022-02-22-14:59:43.934996,256.0264230999164,256.3426600000821,256.0264230999164,None,None,256.0264230999164,None,256.84205289997624,None,,,,12012,0001,2022_Feb_22_1455,localizer,2021.1.3,59.60150433288612,
block,scrambled,scrambled033.bmp,,,,,0,96,96,96,,,,,,,,,,,,,,,,,,,,,,,,,,,,,,,,,,,,,,,,,,None,,256.84205289997624,None,256.84205289997624,None,2022-02-22-14:59:44.752037,256.85234580002725,257.15876860008575,256.85234580002725,None,None,256.85234580002725,None,257.65989969994405,None,,,,12012,0001,2022_Feb_22_1455,localizer,2021.1.3,59.60150433288612,
block,scrambled,scrambled044.bmp,,,,,0,97,97,97,,,,,,,,,,,,,,,,,,,,,,,,,,,,,,,,,,,,,,,,,,None,,257.65989969994405,None,257.65989969994405,None,2022-02-22-14:59:45.570664,257.67242929991335,257.97556679998524,257.67242929991335,None,None,257.67242929991335,None,258.47542129990177,None,,,,12012,0001,2022_Feb_22_1455,localizer,2021.1.3,59.60150433288612,
block,scrambled,scrambled005.bmp,,,,,0,98,98,98,,,,,,,,,,,,,,,,,,,,,,,,,,,,,,,,,,,,,,,,,,None,,258.47542129990177,None,258.47542129990177,None,2022-02-22-14:59:46.385418,258.48626570007764,258.7920824000612,258.48626570007764,None,None,258.48626570007764,None,259.2920854000607,None,,,,12012,0001,2022_Feb_22_1455,localizer,2021.1.3,59.60150433288612,
block,scrambled,scrambled011.bmp,,,,,0,99,99,99,,,,,,,,,,,,,,,,,,,,,,,,,,,,,,,,,,,,,,,,,,None,,259.2920854000607,None,259.2920854000607,None,2022-02-22-14:59:47.201891,259.30234050005674,259.6087785998825,259.30234050005674,None,None,259.30234050005674,None,260.1086355000501,None,,,,12012,0001,2022_Feb_22_1455,localizer,2021.1.3,59.60150433288612,
block,scrambled,scrambled081.bmp,,,,,0,100,100,100,,,,,,,,,,,,,,,,,,,,,,,,,,,,,,,,,,,,,,,,,,None,,260.1086355000501,None,260.1086355000501,None,2022-02-22-14:59:48.018659,260.12007250008173,260.4255311000161,260.12007250008173,None,None,260.12007250008173,None,260.9253094999352,None,,,,12012,0001,2022_Feb_22_1455,localizer,2021.1.3,59.60150433288612,
block,scrambled,scrambled046.bmp,,,,,0,101,101,101,,,,,,,,,,,,,,,,,,,,,,,,,,,,,,,,,,,,,,,,,,None,,260.9253094999352,None,260.9253094999352,None,2022-02-22-14:59:48.835138,260.93534129997715,261.2422376999166,260.93534129997715,None,None,260.93534129997715,None,261.7420374999987,None,,,,12012,0001,2022_Feb_22_1455,localizer,2021.1.3,59.60150433288612,
block,scrambled,scrambled017.bmp,,,,,0,102,102,102,,,,,,,,,,,,,,,,,,,,,,,,,,,,,,,,,,,,,,,,,,None,,261.7420374999987,None,261.7420374999987,None,2022-02-22-14:59:49.651876,261.75197759992443,262.0588350999169,261.75197759992443,None,None,261.75197759992443,None,262.5591998998774,None,,,,12012,0001,2022_Feb_22_1455,localizer,2021.1.3,59.60150433288612,
block,scrambled,scrambled071.bmp,,,,,0,103,103,103,,,,,,,,,,,,,,,,,,,,,,,,,,,,,,,,,,,,,,,,,,None,,262.5591998998774,None,262.5591998998774,None,2022-02-22-14:59:50.469050,262.57007930008695,262.8754869000986,262.57007930008695,None,None,262.57007930008695,None,263.376477600052,None,,,,12012,0001,2022_Feb_22_1455,localizer,2021.1.3,59.60150433288612,
block,scrambled,scrambled015.bmp,,,,,0,104,104,104,,,,,,,,,,,,,,,,,,,,,,,,,,,,,,,,,,,,,,,,,,None,,263.376477600052,None,263.376477600052,None,2022-02-22-14:59:51.287521,263.37922020000406,263.6922249000054,263.37922020000406,None,None,263.37922020000406,None,264.19195379989685,None,,,,12012,0001,2022_Feb_22_1455,localizer,2021.1.3,59.60150433288612,
block,scrambled,scrambled018.bmp,,,,,0,105,105,105,,,,,,,,,,,,,,,,,,,,,,,,,,,,,,,,,,,,,,,,,,None,,264.19195379989685,None,264.19195379989685,None,2022-02-22-14:59:52.101822,264.20141340000555,264.5088520999998,264.20141340000555,None,None,264.20141340000555,None,265.00854089993516,None,,,,12012,0001,2022_Feb_22_1455,localizer,2021.1.3,59.60150433288612,
block_end,scrambled,scrambled083.bmp,,,,,0,106,106,106,,,,,,,,,,,,,,,,,,,,,,,,,,,,,,,,,,,,,,,,,,None,,265.00854089993516,None,265.00854089993516,None,2022-02-22-14:59:52.917371,265.0175874000415,265.3254636998754,265.0175874000415,None,None,265.0175874000415,None,265.8253751999931,None,,,,12012,0001,2022_Feb_22_1455,localizer,2021.1.3,59.60150433288612,
block_start,scenes,scenes072.bmp,,,,,0,107,107,107,,,,,,,,,,,,,,,,,,,,,,,,,,,,,,,,,,,,,,,,,,t,1.7238787999376655,265.82562400004826,None,265.82562400004826,None,2022-02-22-14:59:55.483801,267.58354649995454,267.89201349997893,267.58354649995454,None,None,267.58354649995454,None,268.39200359999666,None,,,,12012,0001,2022_Feb_22_1455,localizer,2021.1.3,59.60150433288612,
block,scenes,scenes079.bmp,,,,,0,108,108,108,,,,,,,,,,,,,,,,,,,,,,,,,,,,,,,,,,,,,,,,,,None,,268.39200359999666,None,268.39200359999666,None,2022-02-22-14:59:56.302149,268.4024990000762,268.7087932000868,268.4024990000762,None,None,268.4024990000762,None,269.20923750007057,None,,,,12012,0001,2022_Feb_22_1455,localizer,2021.1.3,59.60150433288612,
block,scenes,scenes061.bmp,,,,,0,109,109,109,,,,,,,,,,,,,,,,,,,,,,,,,,,,,,,,,,,,,,,,,,None,,269.20923750007057,None,269.20923750007057,None,2022-02-22-14:59:57.120365,269.22233280004,269.52547820005566,269.22233280004,None,None,269.22233280004,None,270.0259402000578,None,,,,12012,0001,2022_Feb_22_1455,localizer,2021.1.3,59.60150433288612,
block,scenes,scenes010.bmp,,,,,0,110,110,110,,,,,,,,,,,,,,,,,,,,,,,,,,,,,,,,,,,,,,,,,,None,,270.0259402000578,None,270.0259402000578,None,2022-02-22-14:59:57.936921,270.0335264999885,270.3419319000095,270.0335264999885,None,None,270.0335264999885,None,270.84211859989443,None,,,,12012,0001,2022_Feb_22_1455,localizer,2021.1.3,59.60150433288612,
block,scenes,scenes016.bmp,,,,,0,111,111,111,,,,,,,,,,,,,,,,,,,,,,,,,,,,,,,,,,,,,,,,,,None,,270.84211859989443,None,270.84211859989443,None,2022-02-22-14:59:58.752082,270.85924970009364,271.1588196000084,270.85924970009364,None,None,270.85924970009364,None,271.6588588999351,None,,,,12012,0001,2022_Feb_22_1455,localizer,2021.1.3,59.60150433288612,
block,scenes,scenes032.bmp,,,,,0,112,112,112,,,,,,,,,,,,,,,,,,,,,,,,,,,,,,,,,,,,,,,,,,None,,271.6588588999351,None,271.6588588999351,None,2022-02-22-14:59:59.568838,271.66773089999333,271.97545580007136,271.66773089999333,None,None,271.66773089999333,None,272.4752462999662,None,,,,12012,0001,2022_Feb_22_1455,localizer,2021.1.3,59.60150433288612,
block,scenes,scenes048.bmp,,,,,0,113,113,113,,,,,,,,,,,,,,,,,,,,,,,,,,,,,,,,,,,,,,,,,,None,,272.4752462999662,None,272.4752462999662,None,2022-02-22-15:00:00.385234,272.48942420003004,272.7923806000035,272.48942420003004,None,None,272.48942420003004,None,273.2923189999768,None,,,,12012,0001,2022_Feb_22_1455,localizer,2021.1.3,59.60150433288612,
block,scenes,scenes029.bmp,,,,,0,114,114,114,,,,,,,,,,,,,,,,,,,,,,,,,,,,,,,,,,,,,,,,,,None,,273.2923189999768,None,273.2923189999768,None,2022-02-22-15:00:01.202556,273.2995124999434,273.60869650007226,273.2995124999434,None,None,273.2995124999434,None,274.1089691000292,None,,,,12012,0001,2022_Feb_22_1455,localizer,2021.1.3,59.60150433288612,
block,scenes,scenes056.bmp,,,,,0,115,115,115,,,,,,,,,,,,,,,,,,,,,,,,,,,,,,,,,,,,,,,,,,None,,274.1089691000292,None,274.1089691000292,None,2022-02-22-15:00:02.019269,274.11661759996787,274.42609649989754,274.11661759996787,None,None,274.11661759996787,None,274.92542900003025,None,,,,12012,0001,2022_Feb_22_1455,localizer,2021.1.3,59.60150433288612,
block,scenes,scenes058.bmp,,,,,0,116,116,116,,,,,,,,,,,,,,,,,,,,,,,,,,,,,,,,,,,,,,,,,,None,,274.92542900003025,None,274.92542900003025,None,2022-02-22-15:00:02.835428,274.9357952999417,275.24219719995745,274.9357952999417,None,None,274.9357952999417,None,275.7442996999947,None,,,,12012,0001,2022_Feb_22_1455,localizer,2021.1.3,59.60150433288612,
block,scenes,scenes071.bmp,,,,,0,117,117,117,,,,,,,,,,,,,,,,,,,,,,,,,,,,,,,,,,,,,,,,,,None,,275.7442996999947,None,275.7442996999947,None,2022-02-22-15:00:03.659447,275.7500891999807,276.0592370000668,275.7500891999807,None,None,275.7500891999807,None,276.5591369999805,None,,,,12012,0001,2022_Feb_22_1455,localizer,2021.1.3,59.60150433288612,
block,scenes,scenes069.bmp,,,,,0,118,118,118,,,,,,,,,,,,,,,,,,,,,,,,,,,,,,,,,,,,,,,,,,None,,276.5591369999805,None,276.5591369999805,None,2022-02-22-15:00:04.470282,276.57112400000915,276.8753561999183,276.57112400000915,None,None,276.57112400000915,None,277.37525060002224,None,,,,12012,0001,2022_Feb_22_1455,localizer,2021.1.3,59.60150433288612,
block,scenes,scenes084.bmp,,,,,0,119,119,119,,,,,,,,,,,,,,,,,,,,,,,,,,,,,,,,,,,,,,,,,,None,,277.37525060002224,None,277.37525060002224,None,2022-02-22-15:00:05.285324,277.38592669996433,277.6924211999867,277.38592669996433,None,None,277.38592669996433,None,278.19234449996145,None,,,,12012,0001,2022_Feb_22_1455,localizer,2021.1.3,59.60150433288612,
block,scenes,scenes081.bmp,,,,,0,120,120,120,,,,,,,,,,,,,,,,,,,,,,,,,,,,,,,,,,,,,,,,,,None,,278.19234449996145,None,278.19234449996145,None,2022-02-22-15:00:06.102403,278.2045382000506,278.5153679999057,278.2045382000506,None,None,278.2045382000506,None,279.0100905999774,None,,,,12012,0001,2022_Feb_22_1455,localizer,2021.1.3,59.60150433288612,
block_end,scenes,scenes073.bmp,,,,,0,121,121,121,,,,,,,,,,,,,,,,,,,,,,,,,,,,,,,,,,,,,,,,,,None,,279.0100905999774,None,279.0100905999774,None,2022-02-22-15:00:06.922279,279.02557890000753,279.3262205000501,279.02557890000753,None,None,279.02557890000753,None,279.82603100009726,None,,,,12012,0001,2022_Feb_22_1455,localizer,2021.1.3,59.60150433288612,
block_start,scrambled,scrambled034.bmp,,,,,0,122,122,122,,,,,,,,,,,,,,,,,,,,,,,,,,,,,,,,,,,,,,,,,,t,1.7231757000554353,279.82618959993124,None,279.82618959993124,None,2022-02-22-15:00:09.484701,281.57684849994257,281.8762278999202,281.57684849994257,None,None,281.57684849994257,None,282.37600319993214,None,,,,12012,0001,2022_Feb_22_1455,localizer,2021.1.3,59.60150433288612,
block,scrambled,scrambled050.bmp,,,,,0,123,123,123,,,,,,,,,,,,,,,,,,,,,,,,,,,,,,,,,,,,,,,,,,None,,282.37600319993214,None,282.37600319993214,None,2022-02-22-15:00:10.289091,282.3904635999352,282.6926430000458,282.3904635999352,282.3904635999352,None,282.3904635999352,282.3904635999352,283.1923776999814,None,,,,12012,0001,2022_Feb_22_1455,localizer,2021.1.3,59.60150433288612,
block,scrambled,scrambled040.bmp,,,,,0,124,124,124,,,,,,,,,,,,,,,,,,,,,,,,,,,,,,,,,,,,,,,,,,None,,283.1923776999814,None,283.1923776999814,None,2022-02-22-15:00:11.102936,283.2045291000977,283.5130805000663,283.2045291000977,None,None,283.2045291000977,None,284.00850289987864,None,,,,12012,0001,2022_Feb_22_1455,localizer,2021.1.3,59.60150433288612,
block,scrambled,scrambled037.bmp,,,,,0,125,125,125,,,,,,,,,,,,,,,,,,,,,,,,,,,,,,,,,,,,,,,,,,None,,284.00850289987864,None,284.00850289987864,None,2022-02-22-15:00:11.918654,284.0176734998822,284.3255976000801,284.0176734998822,None,None,284.0176734998822,None,284.82561939998993,None,,,,12012,0001,2022_Feb_22_1455,localizer,2021.1.3,59.60150433288612,
block,scrambled,scrambled017.bmp,,,,,0,126,126,126,,,,,,,,,,,,,,,,,,,,,,,,,,,,,,,,,,,,,,,,,,None,,284.82561939998993,None,284.82561939998993,None,2022-02-22-15:00:12.735993,284.82647860003635,285.12594270007685,284.82647860003635,None,None,284.82647860003635,None,285.6262680000858,None,,,,12012,0001,2022_Feb_22_1455,localizer,2021.1.3,59.60150433288612,
block,scrambled,scrambled067.bmp,,,,,0,127,127,127,,,,,,,,,,,,,,,,,,,,,,,,,,,,,,,,,,,,,,,,,,None,,285.6262680000858,None,285.6262680000858,None,2022-02-22-15:00:13.539434,285.640645199921,285.9421528999228,285.640645199921,285.640645199921,None,285.640645199921,285.640645199921,286.4423547000391,None,,,,12012,0001,2022_Feb_22_1455,localizer,2021.1.3,59.60150433288612,
block,scrambled,scrambled074.bmp,,,,,0,128,128,128,,,,,,,,,,,,,,,,,,,,,,,,,,,,,,,,,,,,,,,,,,None,,286.4423547000391,None,286.4423547000391,None,2022-02-22-15:00:14.352524,286.4535300999414,286.7591395000927,286.4535300999414,None,None,286.4535300999414,None,287.2589595000958,None,,,,12012,0001,2022_Feb_22_1455,localizer,2021.1.3,59.60150433288612,
block,scrambled,scrambled080.bmp,,,,,0,129,129,129,,,,,,,,,,,,,,,,,,,,,,,,,,,,,,,,,,,,,,,,,,None,,287.2589595000958,None,287.2589595000958,None,2022-02-22-15:00:15.169173,287.27012600004673,287.57591379992664,287.27012600004673,None,None,287.27012600004673,None,288.07567370005415,None,,,,12012,0001,2022_Feb_22_1455,localizer,2021.1.3,59.60150433288612,
block,scrambled,scrambled045.bmp,,,,,0,130,130,130,,,,,,,,,,,,,,,,,,,,,,,,,,,,,,,,,,,,,,,,,,None,,288.07567370005415,None,288.07567370005415,None,2022-02-22-15:00:15.985865,288.0867009998765,288.3925614000764,288.0867009998765,None,None,288.0867009998765,None,288.89235650000626,None,,,,12012,0001,2022_Feb_22_1455,localizer,2021.1.3,59.60150433288612,
block,scrambled,scrambled070.bmp,,,,,0,131,131,131,,,,,,,,,,,,,,,,,,,,,,,,,,,,,,,,,,,,,,,,,,None,,288.89235650000626,None,288.89235650000626,None,2022-02-22-15:00:16.802766,288.9035394000821,289.20921220001765,288.9035394000821,None,None,288.9035394000821,None,289.70959919991435,None,,,,12012,0001,2022_Feb_22_1455,localizer,2021.1.3,59.60150433288612,
block,scrambled,scrambled025.bmp,,,,,0,132,132,132,,,,,,,,,,,,,,,,,,,,,,,,,,,,,,,,,,,,,,,,,,None,,289.70959919991435,None,289.70959919991435,None,2022-02-22-15:00:17.620801,289.72144220001064,290.025304999901,289.72144220001064,None,None,289.72144220001064,None,290.525389499939,None,,,,12012,0001,2022_Feb_22_1455,localizer,2021.1.3,59.60150433288612,
block,scrambled,scrambled025.bmp,,,,,0,133,133,133,,,,,,,,,,,,,,,,,,,,,,,,,,,,,,,,,,,,,,,,,,None,,290.525389499939,None,290.525389499939,None,2022-02-22-15:00:18.435915,290.5266314998735,290.84232739987783,290.5266314998735,None,y,290.5266314998735,None,291.3258191998815,None,0.5405387000646442,,,12012,0001,2022_Feb_22_1455,localizer,2021.1.3,59.60150433288612,
block,scrambled,scrambled088.bmp,,,,,0,134,134,134,,,,,,,,,,,,,,,,,,,,,,,,,,,,,,,,,,,,,,,,,,None,,291.3258191998815,None,291.3258191998815,None,2022-02-22-15:00:19.238251,291.33934529987164,291.64225149992853,291.33934529987164,291.33934529987164,None,291.33934529987164,291.33934529987164,292.14196250003295,None,,,,12012,0001,2022_Feb_22_1455,localizer,2021.1.3,59.60150433288612,
block,scrambled,scrambled086.bmp,,,,,0,135,135,135,,,,,,,,,,,,,,,,,,,,,,,,,,,,,,,,,,,,,,,,,,None,,292.14196250003295,None,292.14196250003295,None,2022-02-22-15:00:20.051217,292.15025290008634,292.45876149996184,292.15025290008634,None,None,292.15025290008634,None,292.95881969991603,None,,,,12012,0001,2022_Feb_22_1455,localizer,2021.1.3,59.60150433288612,
block_end,scrambled,scrambled060.bmp,,,,,0,136,136,136,,,,,,,,,,,,,,,,,,,,,,,,,,,,,,,,,,,,,,,,,,None,,292.95881969991603,None,292.95881969991603,None,2022-02-22-15:00:20.869081,292.95984059991315,293.27576199988835,292.95984059991315,None,None,292.95984059991315,None,293.7601268000202,None,,,,12012,0001,2022_Feb_22_1455,localizer,2021.1.3,59.60150433288612,
block_start,scenes,scenes015.bmp,,,,,0,137,137,137,,,,,,,,,,,,,,,,,,,,,,,,,,,,,,,,,,,,,,,,,,t,1.7881342000328004,293.7613862999715,None,293.7613862999715,None,2022-02-22-15:00:23.487599,295.58946920000017,295.89241120009683,295.58946920000017,None,None,295.58946920000017,None,296.39217899993525,None,,,,12012,0001,2022_Feb_22_1455,localizer,2021.1.3,59.60150433288612,
block,scenes,scenes053.bmp,,,,,0,138,138,138,,,,,,,,,,,,,,,,,,,,,,,,,,,,,,,,,,,,,,,,,,None,,296.39217899993525,None,296.39217899993525,None,2022-02-22-15:00:24.302485,296.4031116999686,296.70915109990165,296.4031116999686,None,None,296.4031116999686,None,297.20893070006275,None,,,,12012,0001,2022_Feb_22_1455,localizer,2021.1.3,59.60150433288612,
block,scenes,scenes007.bmp,,,,,0,139,139,139,,,,,,,,,,,,,,,,,,,,,,,,,,,,,,,,,,,,,,,,,,None,,297.20893070006275,None,297.20893070006275,None,2022-02-22-15:00:25.119477,297.22400799999014,297.53034409997053,297.22400799999014,None,None,297.22400799999014,None,298.02635630008297,None,,,,12012,0001,2022_Feb_22_1455,localizer,2021.1.3,59.60150433288612,
block,scenes,scenes087.bmp,,,,,0,140,140,140,,,,,,,,,,,,,,,,,,,,,,,,,,,,,,,,,,,,,,,,,,None,,298.02635630008297,None,298.02635630008297,None,2022-02-22-15:00:25.937860,298.0396147000138,298.3422858999111,298.0396147000138,None,None,298.0396147000138,None,298.84215250003615,None,,,,12012,0001,2022_Feb_22_1455,localizer,2021.1.3,59.60150433288612,
block,scenes,scenes004.bmp,,,,,0,141,141,141,,,,,,,,,,,,,,,,,,,,,,,,,,,,,,,,,,,,,,,,,,None,,298.84215250003615,None,298.84215250003615,None,2022-02-22-15:00:26.752770,298.8574238999281,299.15971859986894,298.8574238999281,None,None,298.8574238999281,None,299.6587962999241,None,,,,12012,0001,2022_Feb_22_1455,localizer,2021.1.3,59.60150433288612,
block,scenes,scenes078.bmp,,,,,0,142,142,142,,,,,,,,,,,,,,,,,,,,,,,,,,,,,,,,,,,,,,,,,,None,,299.6587962999241,None,299.6587962999241,None,2022-02-22-15:00:27.569150,299.66909689991735,299.9755380998831,299.66909689991735,None,None,299.66909689991735,None,300.4755152000347,None,,,,12012,0001,2022_Feb_22_1455,localizer,2021.1.3,59.60150433288612,
block,scenes,scenes045.bmp,,,,,0,143,143,143,,,,,,,,,,,,,,,,,,,,,,,,,,,,,,,,,,,,,,,,,,None,,300.4755152000347,None,300.4755152000347,None,2022-02-22-15:00:28.385876,300.4857415999286,300.79218270001,300.4857415999286,None,None,300.4857415999286,None,301.29248640008734,None,,,,12012,0001,2022_Feb_22_1455,localizer,2021.1.3,59.60150433288612,
block,scenes,scenes049.bmp,,,,,0,144,144,144,,,,,,,,,,,,,,,,,,,,,,,,,,,,,,,,,,,,,,,,,,None,,301.29248640008734,None,301.29248640008734,None,2022-02-22-15:00:29.202804,301.29341929988004,301.6090005999431,301.29341929988004,None,None,301.29341929988004,None,302.1089039998827,None,,,,12012,0001,2022_Feb_22_1455,localizer,2021.1.3,59.60150433288612,
block,scenes,scenes037.bmp,,,,,0,145,145,145,,,,,,,,,,,,,,,,,,,,,,,,,,,,,,,,,,,,,,,,,,None,,302.1089039998827,None,302.1089039998827,None,2022-02-22-15:00:30.019288,302.1099888999015,302.42578940000385,302.1099888999015,None,None,302.1099888999015,None,302.9091439998941,None,,,,12012,0001,2022_Feb_22_1455,localizer,2021.1.3,59.60150433288612,
block,scenes,scenes011.bmp,,,,,0,146,146,146,,,,,,,,,,,,,,,,,,,,,,,,,,,,,,,,,,,,,,,,,,None,,302.9091439998941,None,302.9091439998941,None,2022-02-22-15:00:30.821584,302.9215472000651,303.2260869999882,302.9215472000651,302.9215472000651,None,302.9215472000651,302.9215472000651,303.7268451000331,None,,,,12012,0001,2022_Feb_22_1455,localizer,2021.1.3,59.60150433288612,
block,scenes,scenes050.bmp,,,,,0,147,147,147,,,,,,,,,,,,,,,,,,,,,,,,,,,,,,,,,,,,,,,,,,None,,303.7268451000331,None,303.7268451000331,None,2022-02-22-15:00:31.638362,303.72953379992396,304.0430558999069,303.72953379992396,None,None,303.72953379992396,None,304.53217529992105,None,,,,12012,0001,2022_Feb_22_1455,localizer,2021.1.3,59.60150433288612,
block,scenes,scenes068.bmp,,,,,0,148,148,148,,,,,,,,,,,,,,,,,,,,,,,,,,,,,,,,,,,,,,,,,,None,,304.53217529992105,None,304.53217529992105,None,2022-02-22-15:00:32.449564,304.540663999971,304.8422161999624,304.540663999971,None,None,304.540663999971,None,305.34232869998084,None,,,,12012,0001,2022_Feb_22_1455,localizer,2021.1.3,59.60150433288612,
block,scenes,scenes026.bmp,,,,,0,149,149,149,,,,,,,,,,,,,,,,,,,,,,,,,,,,,,,,,,,,,,,,,,None,,305.34232869998084,None,305.34232869998084,None,2022-02-22-15:00:33.252985,305.3558354000561,305.65944830002263,305.3558354000561,None,None,305.3558354000561,None,306.1594479998806,None,,,,12012,0001,2022_Feb_22_1455,localizer,2021.1.3,59.60150433288612,
block,scenes,scenes052.bmp,,,,,0,150,150,150,,,,,,,,,,,,,,,,,,,,,,,,,,,,,,,,,,,,,,,,,,None,,306.1594479998806,None,306.1594479998806,None,2022-02-22-15:00:34.070876,306.17132230009884,306.47628729999997,306.17132230009884,None,None,306.17132230009884,None,306.9752736000577,None,,,,12012,0001,2022_Feb_22_1455,localizer,2021.1.3,59.60150433288612,
block_end,scenes,scenes089.bmp,,,,,0,151,151,151,,,,,,,,,,,,,,,,,,,,,,,,,,,,,,,,,,,,,,,,,,None,,306.9752736000577,None,306.9752736000577,None,2022-02-22-15:00:34.884729,306.9843733999878,307.29242939990945,306.9843733999878,None,None,306.9843733999878,None,307.7928240999812,None,,,,12012,0001,2022_Feb_22_1455,localizer,2021.1.3,59.60150433288612,
block_start,faces,faces057.bmp,,,,,0,152,152,152,,,,,,,,,,,,,,,,,,,,,,,,,,,,,,,,,,,,,,,,,,t,1.7566123998258263,307.79275129991584,None,307.79275129991584,None,2022-02-22-15:00:37.485412,309.5873249999713,309.8931054000277,309.5873249999713,None,None,309.5873249999713,None,310.39304549989754,None,,,,12012,0001,2022_Feb_22_1455,localizer,2021.1.3,59.60150433288612,
block,faces,faces085.bmp,,,,,0,153,153,153,,,,,,,,,,,,,,,,,,,,,,,,,,,,,,,,,,,,,,,,,,None,,310.39304549989754,None,310.39304549989754,None,2022-02-22-15:00:38.304685,310.4048077000771,310.7092679000925,310.4048077000771,None,None,310.4048077000771,None,311.20939019995274,None,,,,12012,0001,2022_Feb_22_1455,localizer,2021.1.3,59.60150433288612,
block,faces,faces089.bmp,,,,,0,154,154,154,,,,,,,,,,,,,,,,,,,,,,,,,,,,,,,,,,,,,,,,,,None,,311.20939019995274,None,311.20939019995274,None,2022-02-22-15:00:39.121081,311.22168039996177,311.5260584000498,311.22168039996177,None,None,311.22168039996177,None,312.02604350002946,None,,,,12012,0001,2022_Feb_22_1455,localizer,2021.1.3,59.60150433288612,
block,faces,faces053.bmp,,,,,0,155,155,155,,,,,,,,,,,,,,,,,,,,,,,,,,,,,,,,,,,,,,,,,,None,,312.02604350002946,None,312.02604350002946,None,2022-02-22-15:00:39.936750,312.03703420003876,312.34251029998995,312.03703420003876,None,None,312.03703420003876,None,312.84242799992205,None,,,,12012,0001,2022_Feb_22_1455,localizer,2021.1.3,59.60150433288612,
block,faces,faces070.bmp,,,,,0,156,156,156,,,,,,,,,,,,,,,,,,,,,,,,,,,,,,,,,,,,,,,,,,None,,312.84242799992205,None,312.84242799992205,None,2022-02-22-15:00:40.753029,312.8541343999095,313.1593341999687,312.8541343999095,None,None,312.8541343999095,None,313.6591191999381,None,,,,12012,0001,2022_Feb_22_1455,localizer,2021.1.3,59.60150433288612,
block,faces,faces041.bmp,,,,,0,157,157,157,,,,,,,,,,,,,,,,,,,,,,,,,,,,,,,,,,,,,,,,,,None,,313.6591191999381,None,313.6591191999381,None,2022-02-22-15:00:41.569646,313.66491819988005,313.97590860002674,313.66491819988005,None,None,313.66491819988005,None,314.48288460003675,None,,,,12012,0001,2022_Feb_22_1455,localizer,2021.1.3,59.60150433288612,
block,faces,faces028.bmp,,,,,0,158,158,158,,,,,,,,,,,,,,,,,,,,,,,,,,,,,,,,,,,,,,,,,,None,,314.48288460003675,None,314.48288460003675,None,2022-02-22-15:00:42.399177,314.48780789994635,314.7925797000062,314.48780789994635,None,None,314.48780789994635,None,315.2925132000586,None,,,,12012,0001,2022_Feb_22_1455,localizer,2021.1.3,59.60150433288612,
block,faces,faces078.bmp,,,,,0,159,159,159,,,,,,,,,,,,,,,,,,,,,,,,,,,,,,,,,,,,,,,,,,None,,315.2925132000586,None,315.2925132000586,None,2022-02-22-15:00:43.203094,315.2935681999661,315.5958290998824,315.2935681999661,None,None,315.2935681999661,None,316.0944159999257,None,,,,12012,0001,2022_Feb_22_1455,localizer,2021.1.3,59.60150433288612,
block,faces,faces062.bmp,,,,,0,160,160,160,,,,,,,,,,,,,,,,,,,,,,,,,,,,,,,,,,,,,,,,,,None,,316.0944159999257,None,316.0944159999257,None,2022-02-22-15:00:44.011016,316.11374530009925,316.42626879992895,316.11374530009925,316.11374530009925,None,316.11374530009925,316.11374530009925,316.9093083999818,None,,,,12012,0001,2022_Feb_22_1455,localizer,2021.1.3,59.60150433288612,
block,faces,faces003.bmp,,,,,0,161,161,161,,,,,,,,,,,,,,,,,,,,,,,,,,,,,,,,,,,,,,,,,,None,,316.9093083999818,None,316.9093083999818,None,2022-02-22-15:00:44.820009,316.91028909990564,317.2095923998859,316.91028909990564,None,None,316.91028909990564,None,317.7093607999617,None,,,,12012,0001,2022_Feb_22_1455,localizer,2021.1.3,59.60150433288612,
block,faces,faces022.bmp,,,,,0,162,162,162,,,,,,,,,,,,,,,,,,,,,,,,,,,,,,,,,,,,,,,,,,None,,317.7093607999617,None,317.7093607999617,None,2022-02-22-15:00:45.622369,317.72312669991516,318.02599960006773,317.72312669991516,317.72312669991516,None,317.72312669991516,317.72312669991516,318.52533559987785,None,,,,12012,0001,2022_Feb_22_1455,localizer,2021.1.3,59.60150433288612,
block,faces,faces019.bmp,,,,,0,163,163,163,,,,,,,,,,,,,,,,,,,,,,,,,,,,,,,,,,,,,,,,,,None,,318.52533559987785,None,318.52533559987785,None,2022-02-22-15:00:46.436191,318.5408715000376,318.8424637001008,318.5408715000376,None,None,318.5408715000376,None,319.3434782998869,None,,,,12012,0001,2022_Feb_22_1455,localizer,2021.1.3,59.60150433288612,
block,faces,faces065.bmp,,,,,0,164,164,164,,,,,,,,,,,,,,,,,,,,,,,,,,,,,,,,,,,,,,,,,,None,,319.3434782998869,None,319.3434782998869,None,2022-02-22-15:00:47.256223,319.3637953000143,319.67593989986926,319.3637953000143,None,None,319.3637953000143,None,320.1612513998756,None,,,,12012,0001,2022_Feb_22_1455,localizer,2021.1.3,59.60150433288612,
block,faces,faces084.bmp,,,,,0,165,165,165,,,,,,,,,,,,,,,,,,,,,,,,,,,,,,,,,,,,,,,,,,None,,320.1612513998756,None,320.1612513998756,None,2022-02-22-15:00:48.074965,320.17796269990504,320.4921013000421,320.17796269990504,None,None,320.17796269990504,None,320.9764320999151,None,,,,12012,0001,2022_Feb_22_1455,localizer,2021.1.3,59.60150433288612,
block_end,faces,faces023.bmp,,,,,0,166,166,166,,,,,,,,,,,,,,,,,,,,,,,,,,,,,,,,,,,,,,,,,,None,,320.9764320999151,None,320.9764320999151,None,2022-02-22-15:00:48.888033,320.9884911000263,321.29258030001074,320.9884911000263,None,None,320.9884911000263,None,321.7924053000519,None,,,,12012,0001,2022_Feb_22_1455,localizer,2021.1.3,59.60150433288612,
block_start,objects,objects063.bmp,,,,,0,167,167,167,,,,,,,,,,,,,,,,,,,,,,,,,,,,,,,,,,,,,,,,,,t,1.7571148998104036,321.79242109996267,None,321.79242109996267,None,2022-02-22-15:00:51.488268,323.5793874000665,323.8932922000531,323.5793874000665,None,None,323.5793874000665,None,324.39227710010016,None,,,,12012,0001,2022_Feb_22_1455,localizer,2021.1.3,59.60150433288612,
block,objects,objects014.bmp,,,,,0,168,168,168,,,,,,,,,,,,,,,,,,,,,,,,,,,,,,,,,,,,,,,,,,None,,324.39227710010016,None,324.39227710010016,None,2022-02-22-15:00:52.303231,324.4012315000873,324.70919459988363,324.4012315000873,None,None,324.4012315000873,None,325.20901399988213,None,,,,12012,0001,2022_Feb_22_1455,localizer,2021.1.3,59.60150433288612,
block,objects,objects030.bmp,,,,,0,169,169,169,,,,,,,,,,,,,,,,,,,,,,,,,,,,,,,,,,,,,,,,,,None,,325.20901399988213,None,325.20901399988213,None,2022-02-22-15:00:53.119766,325.2198131000623,325.5305484998971,325.2198131000623,None,None,325.2198131000623,None,326.0153683000011,None,,,,12012,0001,2022_Feb_22_1455,localizer,2021.1.3,59.60150433288612,
block,objects,objects068.bmp,,,,,0,170,170,170,,,,,,,,,,,,,,,,,,,,,,,,,,,,,,,,,,,,,,,,,,None,,326.0153683000011,None,326.0153683000011,None,2022-02-22-15:00:53.932945,326.03102690004744,326.34261430008337,326.03102690004744,None,None,326.03102690004744,None,326.8257136000087,None,,,,12012,0001,2022_Feb_22_1455,localizer,2021.1.3,59.60150433288612,
block,objects,objects038.bmp,,,,,0,171,171,171,,,,,,,,,,,,,,,,,,,,,,,,,,,,,,,,,,,,,,,,,,None,,326.8257136000087,None,326.8257136000087,None,2022-02-22-15:00:54.736595,326.8360218000598,327.14328709989786,326.8360218000598,None,None,326.8360218000598,None,327.64446459987664,None,,,,12012,0001,2022_Feb_22_1455,localizer,2021.1.3,59.60150433288612,
block,objects,objects011.bmp,,,,,0,172,172,172,,,,,,,,,,,,,,,,,,,,,,,,,,,,,,,,,,,,,,,,,,None,,327.64446459987664,None,327.64446459987664,None,2022-02-22-15:00:55.560122,327.66128470003605,327.97583399992436,327.66128470003605,None,None,327.66128470003605,None,328.4587852998869,None,,,,12012,0001,2022_Feb_22_1455,localizer,2021.1.3,59.60150433288612,
block,objects,objects078.bmp,,,,,0,173,173,173,,,,,,,,,,,,,,,,,,,,,,,,,,,,,,,,,,,,,,,,,,None,,328.4587852998869,None,328.4587852998869,None,2022-02-22-15:00:56.369114,328.46825539995916,328.7758996998891,328.46825539995916,None,None,328.46825539995916,None,329.2757167001022,None,,,,12012,0001,2022_Feb_22_1455,localizer,2021.1.3,59.60150433288612,
block,objects,objects033.bmp,,,,,0,174,174,174,,,,,,,,,,,,,,,,,,,,,,,,,,,,,,,,,,,,,,,,,,None,,329.2757167001022,None,329.2757167001022,None,2022-02-22-15:00:57.186464,329.2767936999444,329.5922916000709,329.2767936999444,None,None,329.2767936999444,None,330.092141000065,None,,,,12012,0001,2022_Feb_22_1455,localizer,2021.1.3,59.60150433288612,
block,objects,objects057.bmp,,,,,0,175,175,175,,,,,,,,,,,,,,,,,,,,,,,,,,,,,,,,,,,,,,,,,,None,,330.092141000065,None,330.092141000065,None,2022-02-22-15:00:58.003028,330.09352350002155,330.4091080999933,330.09352350002155,None,None,330.09352350002155,None,330.9089512999402,None,,,,12012,0001,2022_Feb_22_1455,localizer,2021.1.3,59.60150433288612,
block,objects,objects019.bmp,,,,,0,176,176,176,,,,,,,,,,,,,,,,,,,,,,,,,,,,,,,,,,,,,,,,,,None,,330.9089512999402,None,330.9089512999402,None,2022-02-22-15:00:58.819734,330.92032540007494,331.2258027000353,330.92032540007494,None,None,330.92032540007494,None,331.72576979987787,None,,,,12012,0001,2022_Feb_22_1455,localizer,2021.1.3,59.60150433288612,
block,objects,objects021.bmp,,,,,0,177,177,177,,,,,,,,,,,,,,,,,,,,,,,,,,,,,,,,,,,,,,,,,,None,,331.72576979987787,None,331.72576979987787,None,2022-02-22-15:00:59.636545,331.72683100006543,332.0422604000196,331.72683100006543,None,None,331.72683100006543,None,332.5422457998851,None,,,,12012,0001,2022_Feb_22_1455,localizer,2021.1.3,59.60150433288612,
block,objects,objects074.bmp,,,,,0,178,178,178,,,,,,,,,,,,,,,,,,,,,,,,,,,,,,,,,,,,,,,,,,None,,332.5422457998851,None,332.5422457998851,None,2022-02-22-15:01:00.453166,332.5472240000963,332.85909259994514,332.5472240000963,None,None,332.5472240000963,None,333.3598009000765,None,,,,12012,0001,2022_Feb_22_1455,localizer,2021.1.3,59.60150433288612,
block,objects,objects073.bmp,,,,,0,179,179,179,,,,,,,,,,,,,,,,,,,,,,,,,,,,,,,,,,,,,,,,,,None,,333.3598009000765,None,333.3598009000765,None,2022-02-22-15:01:01.271616,333.3621439000126,333.6757563999854,333.3621439000126,None,None,333.3621439000126,None,334.17565870003307,None,,,,12012,0001,2022_Feb_22_1455,localizer,2021.1.3,59.60150433288612,
block,objects,objects051.bmp,,,,,0,180,180,180,,,,,,,,,,,,,,,,,,,,,,,,,,,,,,,,,,,,,,,,,,None,,334.17565870003307,None,334.17565870003307,None,2022-02-22-15:01:02.086470,334.17697199992836,334.4927397000138,334.17697199992836,None,None,334.17697199992836,None,334.99235270007046,None,,,,12012,0001,2022_Feb_22_1455,localizer,2021.1.3,59.60150433288612,
block_end,objects,objects026.bmp,,,,,0,181,181,181,,,,,,,,,,,,,,,,,,,,,,,,,,,,,,,,,,,,,,,,,,None,,334.99235270007046,None,334.99235270007046,None,2022-02-22-15:01:02.902185,335.001180900028,335.30996340001,335.001180900028,None,None,335.001180900028,None,335.7967527999775,None,,,,12012,0001,2022_Feb_22_1455,localizer,2021.1.3,59.60150433288612,
null_block,null_block,null_block.bmp,,,,,0,182,182,182,,,,,,,,,,,,,,,,,,,,,,,,,,,,,,,,,,,,,,,,,,t,1.7545350999571383,335.79399450006895,None,335.79399450006895,None,2022-02-22-15:01:05.490089,337.57708039993884,None,337.57708039993884,None,None,337.57708039993884,None,337.584910399979,None,,,,12012,0001,2022_Feb_22_1455,localizer,2021.1.3,59.60150433288612,
block_start,scrambled,scrambled045.bmp,,,,,0,183,183,183,,,,,,,,,,,,,,,,,,,,,,,,,,,,,,,,,,,,,,,,,,t,1.9557284000329673,349.5925151000265,None,349.5925151000265,None,2022-02-22-15:01:19.488005,351.57783349999227,351.8783881999552,351.57783349999227,None,None,351.57783349999227,None,352.37712349996434,None,,,,12012,0001,2022_Feb_22_1455,localizer,2021.1.3,59.60150433288612,
block,scrambled,scrambled021.bmp,,,,,0,184,184,184,,,,,,,,,,,,,,,,,,,,,,,,,,,,,,,,,,,,,,,,,,None,,352.37712349996434,None,352.37712349996434,None,2022-02-22-15:01:20.291969,352.3926913999021,352.69238050002605,352.3926913999021,352.3926913999021,None,352.3926913999021,352.3926913999021,353.1927559999516,None,,,,12012,0001,2022_Feb_22_1455,localizer,2021.1.3,59.60150433288612,
block,scrambled,scrambled068.bmp,,,,,0,185,185,185,,,,,,,,,,,,,,,,,,,,,,,,,,,,,,,,,,,,,,,,,,None,,353.1927559999516,None,353.1927559999516,None,2022-02-22-15:01:21.103831,353.1996285999194,353.50942709995434,353.1996285999194,None,None,353.1996285999194,None,354.00979140002744,None,,,,12012,0001,2022_Feb_22_1455,localizer,2021.1.3,59.60150433288612,
block,scrambled,scrambled040.bmp,,,,,0,186,186,186,,,,,,,,,,,,,,,,,,,,,,,,,,,,,,,,,,,,,,,,,,None,,354.00979140002744,None,354.00979140002744,None,2022-02-22-15:01:21.922040,354.01206269999966,354.3260709999595,354.01206269999966,None,None,354.01206269999966,None,354.81147020005153,None,,,,12012,0001,2022_Feb_22_1455,localizer,2021.1.3,59.60150433288612,
block,scrambled,scrambled010.bmp,,,,,0,187,187,187,,,,,,,,,,,,,,,,,,,,,,,,,,,,,,,,,,,,,,,,,,None,,354.81147020005153,None,354.81147020005153,None,2022-02-22-15:01:22.728513,354.830807399936,355.14264449989423,354.830807399936,354.830807399936,None,354.830807399936,354.830807399936,355.6260270999977,None,,,,12012,0001,2022_Feb_22_1455,localizer,2021.1.3,59.60150433288612,
block,scrambled,scrambled044.bmp,,,,,0,188,188,188,,,,,,,,,,,,,,,,,,,,,,,,,,,,,,,,,,,,,,,,,,None,,355.6260270999977,None,355.6260270999977,None,2022-02-22-15:01:23.537329,355.62697550002486,355.932797400048,355.62697550002486,None,None,355.62697550002486,None,356.4266469999915,None,,,,12012,0001,2022_Feb_22_1455,localizer,2021.1.3,59.60150433288612,
block,scrambled,scrambled012.bmp,,,,,0,189,189,189,,,,,,,,,,,,,,,,,,,,,,,,,,,,,,,,,,,,,,,,,,None,,356.4266469999915,None,356.4266469999915,None,2022-02-22-15:01:24.340718,356.4411508999765,356.7426771998871,356.4411508999765,356.4411508999765,None,356.4411508999765,356.4411508999765,357.2425071999663,None,,,,12012,0001,2022_Feb_22_1455,localizer,2021.1.3,59.60150433288612,
block,scrambled,scrambled050.bmp,,,,,0,190,190,190,,,,,,,,,,,,,,,,,,,,,,,,,,,,,,,,,,,,,,,,,,None,,357.2425071999663,None,357.2425071999663,None,2022-02-22-15:01:25.153857,357.2436516000889,357.5594361999538,357.2436516000889,None,None,357.2436516000889,None,358.0435095000779,None,,,,12012,0001,2022_Feb_22_1455,localizer,2021.1.3,59.60150433288612,
block,scrambled,scrambled074.bmp,,,,,0,191,191,191,,,,,,,,,,,,,,,,,,,,,,,,,,,,,,,,,,,,,,,,,,None,,358.0435095000779,None,358.0435095000779,None,2022-02-22-15:01:25.957599,358.0467534000054,358.36030209995806,358.0467534000054,358.0467534000054,None,358.0467534000054,358.0467534000054,358.8602768999757,None,,,,12012,0001,2022_Feb_22_1455,localizer,2021.1.3,59.60150433288612,
block,scrambled,scrambled053.bmp,,,,,0,192,192,192,,,,,,,,,,,,,,,,,,,,,,,,,,,,,,,,,,,,,,,,,,None,,358.8602768999757,None,358.8602768999757,None,2022-02-22-15:01:26.772404,358.8625244998839,359.1771009999793,358.8625244998839,None,None,358.8625244998839,None,359.6758884000359,None,,,,12012,0001,2022_Feb_22_1455,localizer,2021.1.3,59.60150433288612,
block,scrambled,scrambled081.bmp,,,,,0,193,193,193,,,,,,,,,,,,,,,,,,,,,,,,,,,,,,,,,,,,,,,,,,None,,359.6758884000359,None,359.6758884000359,None,2022-02-22-15:01:27.587042,359.677122999914,359.99289239989594,359.677122999914,None,None,359.677122999914,None,360.4926676999079,None,,,,12012,0001,2022_Feb_22_1455,localizer,2021.1.3,59.60150433288612,
block,scrambled,scrambled015.bmp,,,,,0,194,194,194,,,,,,,,,,,,,,,,,,,,,,,,,,,,,,,,,,,,,,,,,,None,,360.4926676999079,None,360.4926676999079,None,2022-02-22-15:01:28.403833,360.4934926000424,360.80943699995987,360.4934926000424,None,None,360.4934926000424,None,361.2932273999089,None,,,,12012,0001,2022_Feb_22_1455,localizer,2021.1.3,59.60150433288612,
block,scrambled,scrambled071.bmp,,,,,0,195,195,195,,,,,,,,,,,,,,,,,,,,,,,,,,,,,,,,,,,,,,,,,,None,,361.2932273999089,None,361.2932273999089,None,2022-02-22-15:01:29.208556,361.29750719992444,361.60920309997164,361.29750719992444,361.29750719992444,None,361.29750719992444,361.29750719992444,362.10940410008186,None,,,,12012,0001,2022_Feb_22_1455,localizer,2021.1.3,59.60150433288612,
block,scrambled,scrambled035.bmp,,,,,0,196,196,196,,,,,,,,,,,,,,,,,,,,,,,,,,,,,,,,,,,,,,,,,,None,,362.10940410008186,None,362.10940410008186,None,2022-02-22-15:01:30.020589,362.11961170006543,362.4271815000102,362.11961170006543,None,None,362.11961170006543,None,362.9261092999717,None,,,,12012,0001,2022_Feb_22_1455,localizer,2021.1.3,59.60150433288612,
block_end,scrambled,scrambled069.bmp,,,,,0,197,197,197,,,,,,,,,,,,,,,,,,,,,,,,,,,,,,,,,,,,,,,,,,None,,362.9261092999717,None,362.9261092999717,None,2022-02-22-15:01:30.837306,362.9364754999988,363.24356579990126,362.9364754999988,None,None,362.9364754999988,None,363.74342279995324,None,,,,12012,0001,2022_Feb_22_1455,localizer,2021.1.3,59.60150433288612,
block_start,faces,faces049.bmp,,,,,0,198,198,198,,,,,,,,,,,,,,,,,,,,,,,,,,,,,,,,,,,,,,,,,,t,1.8048197999596596,363.74363259994425,None,363.74363259994425,None,2022-02-22-15:01:33.488639,365.5877618000377,365.89274669997394,365.5877618000377,None,None,365.5877618000377,None,366.3931712000398,None,,,,12012,0001,2022_Feb_22_1455,localizer,2021.1.3,59.60150433288612,
block,faces,faces051.bmp,,,,,0,199,199,199,,,,,,,,,,,,,,,,,,,,,,,,,,,,,,,,,,,,,,,,,,None,,366.3931712000398,None,366.3931712000398,None,2022-02-22-15:01:34.305401,366.3943769999314,366.7101558998693,366.3943769999314,None,None,366.3943769999314,None,367.1947961000027,None,,,,12012,0001,2022_Feb_22_1455,localizer,2021.1.3,59.60150433288612,
block,faces,faces075.bmp,,,,,0,200,200,200,,,,,,,,,,,,,,,,,,,,,,,,,,,,,,,,,,,,,,,,,,None,,367.1947961000027,None,367.1947961000027,None,2022-02-22-15:01:35.112048,367.2025363999419,367.50932130008005,367.2025363999419,367.2025363999419,None,367.2025363999419,367.2025363999419,368.00943609999956,None,,,,12012,0001,2022_Feb_22_1455,localizer,2021.1.3,59.60150433288612,
block,faces,faces072.bmp,,,,,0,201,201,201,,,,,,,,,,,,,,,,,,,,,,,,,,,,,,,,,,,,,,,,,,None,,368.00943609999956,None,368.00943609999956,None,2022-02-22-15:01:35.920902,368.0207334998995,368.3262618998997,368.0207334998995,None,None,368.0207334998995,None,368.8266374000581,None,,,,12012,0001,2022_Feb_22_1455,localizer,2021.1.3,59.60150433288612,
block,faces,faces067.bmp,,,,,0,202,202,202,,,,,,,,,,,,,,,,,,,,,,,,,,,,,,,,,,,,,,,,,,None,,368.8266374000581,None,368.8266374000581,None,2022-02-22-15:01:36.739099,368.83976779994555,369.1426768999081,368.83976779994555,None,None,368.83976779994555,None,369.6426248999545,None,,,,12012,0001,2022_Feb_22_1455,localizer,2021.1.3,59.60150433288612,
block,faces,faces026.bmp,,,,,0,203,203,203,,,,,,,,,,,,,,,,,,,,,,,,,,,,,,,,,,,,,,,,,,None,,369.6426248999545,None,369.6426248999545,None,2022-02-22-15:01:37.553914,369.6803935999051,369.99283419991843,369.6803935999051,None,None,369.6803935999051,None,370.4592899000039,None,,,,12012,0001,2022_Feb_22_1455,localizer,2021.1.3,59.60150433288612,
block,faces,faces012.bmp,,,,,0,204,204,204,,,,,,,,,,,,,,,,,,,,,,,,,,,,,,,,,,,,,,,,,,None,,370.4592899000039,None,370.4592899000039,None,2022-02-22-15:01:38.370586,370.46048330003396,370.77607119991444,370.46048330003396,None,None,370.46048330003396,None,371.2760312000522,None,,,,12012,0001,2022_Feb_22_1455,localizer,2021.1.3,59.60150433288612,
block,faces,faces042.bmp,,,,,0,205,205,205,,,,,,,,,,,,,,,,,,,,,,,,,,,,,,,,,,,,,,,,,,None,,371.2760312000522,None,371.2760312000522,None,2022-02-22-15:01:39.187339,371.28625310002826,371.5927750999108,371.28625310002826,None,None,371.28625310002826,None,372.09342340005094,None,,,,12012,0001,2022_Feb_22_1455,localizer,2021.1.3,59.60150433288612,
block,faces,faces080.bmp,,,,,0,206,206,206,,,,,,,,,,,,,,,,,,,,,,,,,,,,,,,,,,,,,,,,,,None,,372.09342340005094,None,372.09342340005094,None,2022-02-22-15:01:40.005880,372.0978194999043,372.4095570000354,372.0978194999043,None,None,372.0978194999043,None,372.9108206999721,None,,,,12012,0001,2022_Feb_22_1455,localizer,2021.1.3,59.60150433288612,
block,faces,faces062.bmp,,,,,0,207,207,207,,,,,,,,,,,,,,,,,,,,,,,,,,,,,,,,,,,,,,,,,,None,,372.9108206999721,None,372.9108206999721,None,2022-02-22-15:01:40.824127,372.9136707999278,373.22645629988983,372.9136707999278,None,None,372.9136707999278,None,373.7272797000827,None,,,,12012,0001,2022_Feb_22_1455,localizer,2021.1.3,59.60150433288612,
block,faces,faces048.bmp,,,,,0,208,208,208,,,,,,,,,,,,,,,,,,,,,,,,,,,,,,,,,,,,,,,,,,None,,373.7272797000827,None,373.7272797000827,None,2022-02-22-15:01:41.640598,373.7299142999109,374.0434002999682,373.7299142999109,None,None,373.7299142999109,None,374.5425064000068,None,,,,12012,0001,2022_Feb_22_1455,localizer,2021.1.3,59.60150433288612,
block,faces,faces068.bmp,,,,,0,209,209,209,,,,,,,,,,,,,,,,,,,,,,,,,,,,,,,,,,,,,,,,,,None,,374.5425064000068,None,374.5425064000068,None,2022-02-22-15:01:42.453864,374.5525873999577,374.85953449993394,374.5525873999577,None,None,374.5525873999577,None,375.3594112000195,None,,,,12012,0001,2022_Feb_22_1455,localizer,2021.1.3,59.60150433288612,
block,faces,faces046.bmp,,,,,0,210,210,210,,,,,,,,,,,,,,,,,,,,,,,,,,,,,,,,,,,,,,,,,,None,,375.3594112000195,None,375.3594112000195,None,2022-02-22-15:01:43.270990,375.3603924000636,375.6760911999736,375.3603924000636,None,None,375.3603924000636,None,376.17597110008353,None,,,,12012,0001,2022_Feb_22_1455,localizer,2021.1.3,59.60150433288612,
block,faces,faces046.bmp,,,,,0,211,211,211,,,,,,,,,,,,,,,,,,,,,,,,,,,,,,,,,,,,,,,,,,None,,376.17597110008353,None,376.17597110008353,None,2022-02-22-15:01:44.087344,376.1770929999184,376.4929853999056,376.1770929999184,None,y,376.1770929999184,None,376.99276800008954,None,0.3951381000224501,,,12012,0001,2022_Feb_22_1455,localizer,2021.1.3,59.60150433288612,
block_end,faces,faces003.bmp,,,,,0,212,212,212,,,,,,,,,,,,,,,,,,,,,,,,,,,,,,,,,,,,,,,,,,None,,376.99276800008954,None,376.99276800008954,None,2022-02-22-15:01:44.904160,376.9939037999138,377.3098013000563,376.9939037999138,None,None,376.9939037999138,None,377.79327060000503,None,,,,12012,0001,2022_Feb_22_1455,localizer,2021.1.3,59.60150433288612,
block_start,scenes,scenes061.bmp,,,,,0,213,213,213,,,,,,,,,,,,,,,,,,,,,,,,,,,,,,,,,,,,,,,,,,t,1.7547066998668015,377.79363709990866,None,377.79363709990866,None,2022-02-22-15:01:47.487759,379.5773259999696,379.87665389990434,379.5773259999696,None,None,379.5773259999696,None,380.37950109990777,None,,,,12012,0001,2022_Feb_22_1455,localizer,2021.1.3,59.60150433288612,
block,scenes,scenes079.bmp,,,,,0,214,214,214,,,,,,,,,,,,,,,,,,,,,,,,,,,,,,,,,,,,,,,,,,None,,380.37950109990777,None,380.37950109990777,None,2022-02-22-15:01:48.296965,380.38724100007676,380.69278570008464,380.38724100007676,380.38724100007676,None,380.38724100007676,380.38724100007676,381.1930710999062,None,,,,12012,0001,2022_Feb_22_1455,localizer,2021.1.3,59.60150433288612,
block,scenes,scenes038.bmp,,,,,0,215,215,215,,,,,,,,,,,,,,,,,,,,,,,,,,,,,,,,,,,,,,,,,,None,,381.1930710999062,None,381.1930710999062,None,2022-02-22-15:01:49.104508,381.2042690999806,381.509668600047,381.2042690999806,None,None,381.2042690999806,None,382.00946559987494,None,,,,12012,0001,2022_Feb_22_1455,localizer,2021.1.3,59.60150433288612,
block,scenes,scenes089.bmp,,,,,0,216,216,216,,,,,,,,,,,,,,,,,,,,,,,,,,,,,,,,,,,,,,,,,,None,,382.00946559987494,None,382.00946559987494,None,2022-02-22-15:01:49.921398,382.01052000001073,382.32638340000995,382.01052000001073,None,None,382.01052000001073,None,382.826165599958,None,,,,12012,0001,2022_Feb_22_1455,localizer,2021.1.3,59.60150433288612,
block,scenes,scenes087.bmp,,,,,0,217,217,217,,,,,,,,,,,,,,,,,,,,,,,,,,,,,,,,,,,,,,,,,,None,,382.826165599958,None,382.826165599958,None,2022-02-22-15:01:50.737631,382.8271598999854,383.14290599990636,382.8271598999854,None,None,382.8271598999854,None,383.64275309999937,None,,,,12012,0001,2022_Feb_22_1455,localizer,2021.1.3,59.60150433288612,
block,scenes,scenes006.bmp,,,,,0,218,218,218,,,,,,,,,,,,,,,,,,,,,,,,,,,,,,,,,,,,,,,,,,None,,383.64275309999937,None,383.64275309999937,None,2022-02-22-15:01:51.554230,383.6437593998853,383.95952469995245,383.6437593998853,None,None,383.6437593998853,None,384.44304249992126,None,,,,12012,0001,2022_Feb_22_1455,localizer,2021.1.3,59.60150433288612,
block,scenes,scenes090.bmp,,,,,0,219,219,219,,,,,,,,,,,,,,,,,,,,,,,,,,,,,,,,,,,,,,,,,,None,,384.44304249992126,None,384.44304249992126,None,2022-02-22-15:01:52.355826,384.4562693000771,384.75966880004853,384.4562693000771,384.4562693000771,None,384.4562693000771,384.4562693000771,385.25942760005125,None,,,,12012,0001,2022_Feb_22_1455,localizer,2021.1.3,59.60150433288612,
block,scenes,scenes008.bmp,,,,,0,220,220,220,,,,,,,,,,,,,,,,,,,,,,,,,,,,,,,,,,,,,,,,,,None,,385.25942760005125,None,385.25942760005125,None,2022-02-22-15:01:53.170926,385.2606248999946,385.57610370009206,385.2606248999946,None,None,385.2606248999946,None,386.0760643000016,None,,,,12012,0001,2022_Feb_22_1455,localizer,2021.1.3,59.60150433288612,
block,scenes,scenes080.bmp,,,,,0,221,221,221,,,,,,,,,,,,,,,,,,,,,,,,,,,,,,,,,,,,,,,,,,None,,386.0760643000016,None,386.0760643000016,None,2022-02-22-15:01:53.987573,386.0852256999351,386.39287610002793,386.0852256999351,None,None,386.0852256999351,None,386.89314720008986,None,,,,12012,0001,2022_Feb_22_1455,localizer,2021.1.3,59.60150433288612,
block,scenes,scenes088.bmp,,,,,0,222,222,222,,,,,,,,,,,,,,,,,,,,,,,,,,,,,,,,,,,,,,,,,,None,,386.89314720008986,None,386.89314720008986,None,2022-02-22-15:01:54.805700,386.90423159999773,387.20965020009317,386.90423159999773,None,None,386.90423159999773,None,387.70938370001966,None,,,,12012,0001,2022_Feb_22_1455,localizer,2021.1.3,59.60150433288612,
block,scenes,scenes069.bmp,,,,,0,223,223,223,,,,,,,,,,,,,,,,,,,,,,,,,,,,,,,,,,,,,,,,,,None,,387.70938370001966,None,387.70938370001966,None,2022-02-22-15:01:55.620936,387.7106892000884,388.02612890000455,387.7106892000884,None,None,387.7106892000884,None,388.5100918998709,None,,,,12012,0001,2022_Feb_22_1455,localizer,2021.1.3,59.60150433288612,
block,scenes,scenes084.bmp,,,,,0,224,224,224,,,,,,,,,,,,,,,,,,,,,,,,,,,,,,,,,,,,,,,,,,None,,388.5100918998709,None,388.5100918998709,None,2022-02-22-15:01:56.424664,388.51422020001337,388.8262368000578,388.51422020001337,388.51422020001337,None,388.51422020001337,388.51422020001337,389.3262678999221,None,,,,12012,0001,2022_Feb_22_1455,localizer,2021.1.3,59.60150433288612,
block,scenes,scenes026.bmp,,,,,0,225,225,225,,,,,,,,,,,,,,,,,,,,,,,,,,,,,,,,,,,,,,,,,,None,,389.3262678999221,None,389.3262678999221,None,2022-02-22-15:01:57.238040,389.32733840006404,389.64298389991745,389.32733840006404,None,None,389.32733840006404,None,390.126826799917,None,,,,12012,0001,2022_Feb_22_1455,localizer,2021.1.3,59.60150433288612,
block,scenes,scenes002.bmp,,,,,0,226,226,226,,,,,,,,,,,,,,,,,,,,,,,,,,,,,,,,,,,,,,,,,,None,,390.126826799917,None,390.126826799917,None,2022-02-22-15:01:58.041525,390.1410318999551,390.44300119997934,390.1410318999551,390.1410318999551,None,390.1410318999551,390.1410318999551,390.9432572000427,None,,,,12012,0001,2022_Feb_22_1455,localizer,2021.1.3,59.60150433288612,
block_end,scenes,scenes044.bmp,,,,,0,227,227,227,,,,,,,,,,,,,,,,,,,,,,,,,,,,,,,,,,,,,,,,,,None,,390.9432572000427,None,390.9432572000427,None,2022-02-22-15:01:58.856021,390.9443405000493,391.2594775999896,390.9443405000493,None,None,390.9443405000493,None,391.7597177999327,None,,,,12012,0001,2022_Feb_22_1455,localizer,2021.1.3,59.60150433288612,
block_start,objects,objects033.bmp,,,,,0,228,228,228,,,,,,,,,,,,,,,,,,,,,,,,,,,,,,,,,,,,,,,,,,t,1.7885296000167727,391.75988580007106,None,391.75988580007106,None,2022-02-22-15:02:01.486462,393.5772307999432,393.87670570006594,393.5772307999432,None,None,393.5772307999432,None,394.37661170002536,None,,,,12012,0001,2022_Feb_22_1455,localizer,2021.1.3,59.60150433288612,
block,objects,objects074.bmp,,,,,0,229,229,229,,,,,,,,,,,,,,,,,,,,,,,,,,,,,,,,,,,,,,,,,,None,,394.37661170002536,None,394.37661170002536,None,2022-02-22-15:02:02.291423,394.37965520005673,394.6936274000909,394.37965520005673,394.37965520005673,None,394.37965520005673,394.37965520005673,395.19348239989483,None,,,,12012,0001,2022_Feb_22_1455,localizer,2021.1.3,59.60150433288612,
block,objects,objects087.bmp,,,,,0,230,230,230,,,,,,,,,,,,,,,,,,,,,,,,,,,,,,,,,,,,,,,,,,None,,395.19348239989483,None,395.19348239989483,None,2022-02-22-15:02:03.106099,395.20636849990115,395.5095478000585,395.20636849990115,None,None,395.20636849990115,None,396.0096436999505,None,,,,12012,0001,2022_Feb_22_1455,localizer,2021.1.3,59.60150433288612,
block,objects,objects063.bmp,,,,,0,231,231,231,,,,,,,,,,,,,,,,,,,,,,,,,,,,,,,,,,,,,,,,,,None,,396.0096436999505,None,396.0096436999505,None,2022-02-22-15:02:03.921285,396.01053830003366,396.30981820006855,396.01053830003366,None,None,396.01053830003366,None,396.81095400007905,None,,,,12012,0001,2022_Feb_22_1455,localizer,2021.1.3,59.60150433288612,
block,objects,objects004.bmp,,,,,0,232,232,232,,,,,,,,,,,,,,,,,,,,,,,,,,,,,,,,,,,,,,,,,,None,,396.81095400007905,None,396.81095400007905,None,2022-02-22-15:02:04.726719,396.8154162000865,397.1271357999649,396.8154162000865,396.8154162000865,None,396.8154162000865,396.8154162000865,397.6263006001012,None,,,,12012,0001,2022_Feb_22_1455,localizer,2021.1.3,59.60150433288612,
block,objects,objects054.bmp,,,,,0,233,233,233,,,,,,,,,,,,,,,,,,,,,,,,,,,,,,,,,,,,,,,,,,None,,397.6263006001012,None,397.6263006001012,None,2022-02-22-15:02:05.537958,397.6365684000775,397.9431914000306,397.6365684000775,None,None,397.6365684000775,None,398.4433486999245,None,,,,12012,0001,2022_Feb_22_1455,localizer,2021.1.3,59.60150433288612,
block,objects,objects046.bmp,,,,,0,234,234,234,,,,,,,,,,,,,,,,,,,,,,,,,,,,,,,,,,,,,,,,,,None,,398.4433486999245,None,398.4433486999245,None,2022-02-22-15:02:06.356212,398.4542773999274,398.7597739000339,398.4542773999274,None,None,398.4542773999274,None,399.26175560008267,None,,,,12012,0001,2022_Feb_22_1455,localizer,2021.1.3,59.60150433288612,
block,objects,objects077.bmp,,,,,0,235,235,235,,,,,,,,,,,,,,,,,,,,,,,,,,,,,,,,,,,,,,,,,,None,,399.26175560008267,None,399.26175560008267,None,2022-02-22-15:02:07.178397,399.26721549988724,399.5768351999577,399.26721549988724,None,None,399.26721549988724,None,400.0806523000123,None,,,,12012,0001,2022_Feb_22_1455,localizer,2021.1.3,59.60150433288612,
block,objects,objects005.bmp,,,,,0,236,236,236,,,,,,,,,,,,,,,,,,,,,,,,,,,,,,,,,,,,,,,,,,None,,400.0806523000123,None,400.0806523000123,None,2022-02-22-15:02:07.995486,400.09536969987676,400.4100997999776,400.09536969987676,None,None,400.09536969987676,None,400.89291459994854,None,,,,12012,0001,2022_Feb_22_1455,localizer,2021.1.3,59.60150433288612,
block,objects,objects082.bmp,,,,,0,237,237,237,,,,,,,,,,,,,,,,,,,,,,,,,,,,,,,,,,,,,,,,,,None,,400.89291459994854,None,400.89291459994854,None,2022-02-22-15:02:08.804620,400.9029435000848,401.20961349993013,400.9029435000848,None,None,400.9029435000848,None,401.70964240001047,None,,,,12012,0001,2022_Feb_22_1455,localizer,2021.1.3,59.60150433288612,
block,objects,objects015.bmp,,,,,0,238,238,238,,,,,,,,,,,,,,,,,,,,,,,,,,,,,,,,,,,,,,,,,,None,,401.70964240001047,None,401.70964240001047,None,2022-02-22-15:02:09.621399,401.72004529996775,402.0263255999889,401.72004529996775,None,None,401.72004529996775,None,402.52631080008575,None,,,,12012,0001,2022_Feb_22_1455,localizer,2021.1.3,59.60150433288612,
block,objects,objects012.bmp,,,,,0,239,239,239,,,,,,,,,,,,,,,,,,,,,,,,,,,,,,,,,,,,,,,,,,None,,402.52631080008575,None,402.52631080008575,None,2022-02-22-15:02:10.438033,402.5376244999934,402.84329449990764,402.5376244999934,None,None,402.5376244999934,None,403.3430624999804,None,,,,12012,0001,2022_Feb_22_1455,localizer,2021.1.3,59.60150433288612,
block,objects,objects047.bmp,,,,,0,240,240,240,,,,,,,,,,,,,,,,,,,,,,,,,,,,,,,,,,,,,,,,,,None,,403.3430624999804,None,403.3430624999804,None,2022-02-22-15:02:11.254996,403.3544091999065,403.6595582999289,403.3544091999065,None,None,403.3544091999065,None,404.15951679993884,None,,,,12012,0001,2022_Feb_22_1455,localizer,2021.1.3,59.60150433288612,
block,objects,objects020.bmp,,,,,0,241,241,241,,,,,,,,,,,,,,,,,,,,,,,,,,,,,,,,,,,,,,,,,,None,,404.15951679993884,None,404.15951679993884,None,2022-02-22-15:02:12.071256,404.16902390006,404.4765111000743,404.16902390006,None,None,404.16902390006,None,404.97708990003446,None,,,,12012,0001,2022_Feb_22_1455,localizer,2021.1.3,59.60150433288612,
block_end,objects,objects065.bmp,,,,,0,242,242,242,,,,,,,,,,,,,,,,,,,,,,,,,,,,,,,,,,,,,,,,,,None,,404.97708990003446,None,404.97708990003446,None,2022-02-22-15:02:12.889815,404.97916199988686,405.2937254998833,404.97916199988686,None,None,404.97916199988686,None,405.79351820002773,None,,,,12012,0001,2022_Feb_22_1455,localizer,2021.1.3,59.60150433288612,
null_block,null_block,null_block.bmp,,,,,0,243,243,243,,,,,,,,,,,,,,,,,,,,,,,,,,,,,,,,,,,,,,,,,,t,1.7546657000202686,405.79377530002967,None,405.79377530002967,None,2022-02-22-15:02:15.486725,407.576117499941,None,407.576117499941,None,None,407.576117499941,None,407.57838850002736,None,,,,12012,0001,2022_Feb_22_1455,localizer,2021.1.3,59.60150433288612,
,,,,,,,,,,,,,,,,,,,,,,,,,,,,,,,,,,,,,,,,,,,,,,,,,,,,,,,,,,,,,,,,,,,,,419.5930156998802,None,,,,,,,
