block_type,condition,img_name,Button.thisRepN,Button.thisTrialN,Button.thisN,Button.thisIndex,trials.thisRepN,trials.thisTrialN,trials.thisN,trials.thisIndex,Ready_experimenter_text.started,Ready_experimenter_text.stopped,Ready_experimenter_resp.keys,Ready_experimenter_resp.rt,Ready_experimenter_resp.started,Ready_experimenter_resp.stopped,Alignment_background.started,Alignment_background.stopped,Alignment_image.started,Alignment_image.stopped,Alignment_resp.keys,Alignment_resp.rt,Alignment_resp.started,Alignment_resp.stopped,Button_text.started,Button_text.stopped,Index_text.started,Index_text.stopped,Index_resp.keys,Index_resp.rt,Index_resp.started,Index_resp.stopped,Middle_text.started,Middle_text.stopped,Middle_resp.keys,Middle_resp.rt,Middle_resp.started,Middle_resp.stopped,Repeat_text.started,Repeat_text.stopped,Repeat_resp.keys,Repeat_resp.corr,Repeat_resp.rt,Repeat_resp.started,Repeat_resp.stopped,instruction_text.started,instruction_text.stopped,key_resp.keys,key_resp.rt,key_resp.started,key_resp.stopped,scanner_t.keys,scanner_t.rt,scanner_t.started,scanner_t.stopped,fixation_wait_for_t.started,fixation_wait_for_t.stopped,real_timestamp_trial_start,image.started,image.stopped,fixation.started,fixation.stopped,repeat_response.keys,repeat_response.started,repeat_response.stopped,fixation_null.started,fixation_null.stopped,repeat_response.rt,end_text.started,end_text.stopped,participant,run,date,expName,psychopyVersion,frameRate,
,,,,,,,,,,,30.466330099850893,None,return,6.4816443007439375,30.466330099850893,None,,,,,,,,,,,,,,,,,,,,,,,,,,,,,,,,,,,,,,,,,,,,,,,,,,,,,,,22029,0001,2023_Feb_13_1124,localizer,2021.1.3,59.33284978143076,
,,,,,,,,,,,,,,,,,37.001269799657166,None,37.001269799657166,None,return,0.43491890002042055,37.001269799657166,None,,,,,,,,,,,,,,,,,,,,,,,,,,,,,,,,,,,,,,,,,,,,,,,22029,0001,2023_Feb_13_1124,localizer,2021.1.3,59.33284978143076,
,,,0,0,0,0,,,,,,,,,,,,,,,,,,,37.4529841998592,None,38.474544699303806,None,y,1.4184723002836108,38.474544699303806,None,39.91850349958986,None,b,1.1644482994452119,39.91850349958986,None,41.10276469960809,None,n,0,1.099468200467527,41.10276469960809,None,,,,,,,,,,,,,,,,,,,,,,,,,,22029,0001,2023_Feb_13_1124,localizer,2021.1.3,59.33284978143076,
,,,,,,,,,,,,,,,,,,,,,,,,,,,,,,,,,,,,,,,,,,,,,,42.219725399278104,None,y,7.754162699915469,42.219725399278104,None,,,,,,,,,,,,,,,,,,,,22029,0001,2023_Feb_13_1124,localizer,2021.1.3,59.33284978143076,
block_start,objects,objects087.bmp,,,,,0,0,0,0,,,,,,,,,,,,,,,,,,,,,,,,,,,,,,,,,,,,,,,,,,t,31.599151799455285,50.07153919991106,None,50.07153919991106,None,2023-02-13-11:25:04.690310,81.71164380013943,82.01916239969432,81.71164380013943,None,None,81.71164380013943,None,82.51932310992852,None,,,,22029,0001,2023_Feb_13_1124,localizer,2021.1.3,59.33284978143076,
block,objects,objects075.bmp,,,,,0,1,1,1,,,,,,,,,,,,,,,,,,,,,,,,,,,,,,,,,,,,,,,,,,None,,82.51932310992852,None,82.51932310992852,None,2023-02-13-11:25:05.510876,82.53145089931786,82.83596519939601,82.53145089931786,None,None,82.53145089931786,None,83.33573990995065,None,,,,22029,0001,2023_Feb_13_1124,localizer,2021.1.3,59.33284978143076,
block,objects,objects078.bmp,,,,,0,2,2,2,,,,,,,,,,,,,,,,,,,,,,,,,,,,,,,,,,,,,,,,,,None,,83.33573990995065,None,83.33573990995065,None,2023-02-13-11:25:06.325065,83.34733319934458,83.65287849958986,83.34733319934458,None,None,83.34733319934458,None,84.15287460973487,None,,,,22029,0001,2023_Feb_13_1124,localizer,2021.1.3,59.33284978143076,
block,objects,objects036.bmp,,,,,0,3,3,3,,,,,,,,,,,,,,,,,,,,,,,,,,,,,,,,,,,,,,,,,,None,,84.15287460973487,None,84.15287460973487,None,2023-02-13-11:25:07.142396,84.16584569960833,84.46919219940901,84.16584569960833,None,None,84.16584569960833,None,84.96939540961758,None,,,,22029,0001,2023_Feb_13_1124,localizer,2021.1.3,59.33284978143076,
block,objects,objects086.bmp,,,,,0,4,4,4,,,,,,,,,,,,,,,,,,,,,,,,,,,,,,,,,,,,,,,,,,None,,84.96939540961758,None,84.96939540961758,None,2023-02-13-11:25:07.958743,84.98137670010328,85.28591379988939,84.98137670010328,None,None,84.98137670010328,None,85.78582780929283,None,,,,22029,0001,2023_Feb_13_1124,localizer,2021.1.3,59.33284978143076,
block,objects,objects015.bmp,,,,,0,5,5,5,,,,,,,,,,,,,,,,,,,,,,,,,,,,,,,,,,,,,,,,,,None,,85.78582780929283,None,85.78582780929283,None,2023-02-13-11:25:08.775161,85.79623010009527,86.10281419940293,85.79623010009527,None,None,85.79623010009527,None,86.60254970965907,None,,,,22029,0001,2023_Feb_13_1124,localizer,2021.1.3,59.33284978143076,
block,objects,objects021.bmp,,,,,0,6,6,6,,,,,,,,,,,,,,,,,,,,,,,,,,,,,,,,,,,,,,,,,,None,,86.60254970965907,None,86.60254970965907,None,2023-02-13-11:25:09.592220,86.6137501001358,86.91924839932472,86.6137501001358,None,None,86.6137501001358,None,87.41948690945283,None,,,,22029,0001,2023_Feb_13_1124,localizer,2021.1.3,59.33284978143076,
block,objects,objects027.bmp,,,,,0,7,7,7,,,,,,,,,,,,,,,,,,,,,,,,,,,,,,,,,,,,,,,,,,None,,87.41948690945283,None,87.41948690945283,None,2023-02-13-11:25:10.408834,87.43078689929098,87.7358463993296,87.43078689929098,None,None,87.43078689929098,None,88.2364179094322,None,,,,22029,0001,2023_Feb_13_1124,localizer,2021.1.3,59.33284978143076,
block,objects,objects079.bmp,,,,,0,8,8,8,,,,,,,,,,,,,,,,,,,,,,,,,,,,,,,,,,,,,,,,,,None,,88.2364179094322,None,88.2364179094322,None,2023-02-13-11:25:11.225918,88.24921619985253,88.55262769944966,88.24921619985253,None,None,88.24921619985253,None,89.05264920955524,None,,,,22029,0001,2023_Feb_13_1124,localizer,2021.1.3,59.33284978143076,
block,objects,objects019.bmp,,,,,0,9,9,9,,,,,,,,,,,,,,,,,,,,,,,,,,,,,,,,,,,,,,,,,,None,,89.05264920955524,None,89.05264920955524,None,2023-02-13-11:25:12.041972,89.06098760012537,89.36921779997647,89.06098760012537,None,None,89.06098760012537,None,89.86929580969736,None,,,,22029,0001,2023_Feb_13_1124,localizer,2021.1.3,59.33284978143076,
block,objects,objects047.bmp,,,,,0,10,10,10,,,,,,,,,,,,,,,,,,,,,,,,,,,,,,,,,,,,,,,,,,None,,89.86929580969736,None,89.86929580969736,None,2023-02-13-11:25:12.858867,89.88047059997916,90.18603299930692,89.88047059997916,None,None,89.88047059997916,None,90.68626760998741,None,,,,22029,0001,2023_Feb_13_1124,localizer,2021.1.3,59.33284978143076,
block,objects,objects052.bmp,,,,,0,11,11,11,,,,,,,,,,,,,,,,,,,,,,,,,,,,,,,,,,,,,,,,,,None,,90.68626760998741,None,90.68626760998741,None,2023-02-13-11:25:13.675807,90.6952757993713,91.00231769960374,90.6952757993713,None,None,90.6952757993713,None,91.50259671015665,None,,,,22029,0001,2023_Feb_13_1124,localizer,2021.1.3,59.33284978143076,
block,objects,objects016.bmp,,,,,0,12,12,12,,,,,,,,,,,,,,,,,,,,,,,,,,,,,,,,,,,,,,,,,,None,,91.50259671015665,None,91.50259671015665,None,2023-02-13-11:25:14.491920,91.51351069938391,91.81923739984632,91.51351069938391,None,None,91.51351069938391,None,92.3199367097579,None,,,,22029,0001,2023_Feb_13_1124,localizer,2021.1.3,59.33284978143076,
block,objects,objects049.bmp,,,,,0,13,13,13,,,,,,,,,,,,,,,,,,,,,,,,,,,,,,,,,,,,,,,,,,None,,92.3199367097579,None,92.3199367097579,None,2023-02-13-11:25:15.309115,92.32988869957626,92.63576079998165,92.32988869957626,None,None,92.32988869957626,None,93.1361770101823,None,,,,22029,0001,2023_Feb_13_1124,localizer,2021.1.3,59.33284978143076,
block_end,objects,objects062.bmp,,,,,0,14,14,14,,,,,,,,,,,,,,,,,,,,,,,,,,,,,,,,,,,,,,,,,,None,,93.1361770101823,None,93.1361770101823,None,2023-02-13-11:25:16.125495,93.14810089953244,93.45292679965496,93.14810089953244,None,None,93.14810089953244,None,93.95265320995823,None,,,,22029,0001,2023_Feb_13_1124,localizer,2021.1.3,59.33284978143076,
block_start,scenes,scenes012.bmp,,,,,0,15,15,15,,,,,,,,,,,,,,,,,,,,,,,,,,,,,,,,,,,,,,,,,,t,1.7182957995682955,93.95279059931636,None,93.95279059931636,None,2023-02-13-11:25:18.677502,95.70235619973391,96.00292549934238,95.70235619973391,None,None,95.70235619973391,None,96.50157430982217,None,,,,22029,0001,2023_Feb_13_1124,localizer,2021.1.3,59.33284978143076,
block,scenes,scenes040.bmp,,,,,0,16,16,16,,,,,,,,,,,,,,,,,,,,,,,,,,,,,,,,,,,,,,,,,,None,,96.50157430982217,None,96.50157430982217,None,2023-02-13-11:25:19.490298,96.51188779994845,96.81944519933313,96.51188779994845,None,None,96.51188779994845,None,97.31946480954066,None,,,,22029,0001,2023_Feb_13_1124,localizer,2021.1.3,59.33284978143076,
block,scenes,scenes029.bmp,,,,,0,17,17,17,,,,,,,,,,,,,,,,,,,,,,,,,,,,,,,,,,,,,,,,,,None,,97.31946480954066,None,97.31946480954066,None,2023-02-13-11:25:20.308782,97.33184849936515,97.63560009934008,97.33184849936515,None,None,97.33184849936515,None,98.13710540933535,None,,,,22029,0001,2023_Feb_13_1124,localizer,2021.1.3,59.33284978143076,
block,scenes,scenes035.bmp,,,,,0,18,18,18,,,,,,,,,,,,,,,,,,,,,,,,,,,,,,,,,,,,,,,,,,None,,98.13710540933535,None,98.13710540933535,None,2023-02-13-11:25:21.127407,98.14962889999151,98.45282940007746,98.14962889999151,None,None,98.14962889999151,None,98.95302980979905,None,,,,22029,0001,2023_Feb_13_1124,localizer,2021.1.3,59.33284978143076,
block,scenes,scenes006.bmp,,,,,0,19,19,19,,,,,,,,,,,,,,,,,,,,,,,,,,,,,,,,,,,,,,,,,,None,,98.95302980979905,None,98.95302980979905,None,2023-02-13-11:25:21.943320,98.9660179996863,99.2696177996695,98.9660179996863,None,None,98.9660179996863,None,99.76918381014839,None,,,,22029,0001,2023_Feb_13_1124,localizer,2021.1.3,59.33284978143076,
block,scenes,scenes004.bmp,,,,,0,20,20,20,,,,,,,,,,,,,,,,,,,,,,,,,,,,,,,,,,,,,,,,,,None,,99.76918381014839,None,99.76918381014839,None,2023-02-13-11:25:22.758506,99.7832453995943,100.08626819960773,99.7832453995943,None,None,99.7832453995943,None,100.58688190979883,None,,,,22029,0001,2023_Feb_13_1124,localizer,2021.1.3,59.33284978143076,
block,scenes,scenes068.bmp,,,,,0,21,21,21,,,,,,,,,,,,,,,,,,,,,,,,,,,,,,,,,,,,,,,,,,None,,100.58688190979883,None,100.58688190979883,None,2023-02-13-11:25:23.577185,100.601463499479,100.90275239944458,100.601463499479,None,None,100.601463499479,None,101.40276700938121,None,,,,22029,0001,2023_Feb_13_1124,localizer,2021.1.3,59.33284978143076,
block,scenes,scenes092.bmp,,,,,0,22,22,22,,,,,,,,,,,,,,,,,,,,,,,,,,,,,,,,,,,,,,,,,,None,,101.40276700938121,None,101.40276700938121,None,2023-02-13-11:25:24.392082,101.41491959989071,101.72604879923165,101.41491959989071,None,None,101.41491959989071,None,102.2199120095931,None,,,,22029,0001,2023_Feb_13_1124,localizer,2021.1.3,59.33284978143076,
block,scenes,scenes059.bmp,,,,,0,23,23,23,,,,,,,,,,,,,,,,,,,,,,,,,,,,,,,,,,,,,,,,,,None,,102.2199120095931,None,102.2199120095931,None,2023-02-13-11:25:25.210218,102.23307590000331,102.53601199947298,102.23307590000331,None,None,102.23307590000331,None,103.03604180952534,None,,,,22029,0001,2023_Feb_13_1124,localizer,2021.1.3,59.33284978143076,
block,scenes,scenes090.bmp,,,,,0,24,24,24,,,,,,,,,,,,,,,,,,,,,,,,,,,,,,,,,,,,,,,,,,None,,103.03604180952534,None,103.03604180952534,None,2023-02-13-11:25:26.025360,103.04801059979945,103.35278389975429,103.04801059979945,None,None,103.04801059979945,None,103.85250761015341,None,,,,22029,0001,2023_Feb_13_1124,localizer,2021.1.3,59.33284978143076,
block,scenes,scenes073.bmp,,,,,0,25,25,25,,,,,,,,,,,,,,,,,,,,,,,,,,,,,,,,,,,,,,,,,,None,,103.85250761015341,None,103.85250761015341,None,2023-02-13-11:25:26.842265,103.86527389939874,104.1695850994438,103.86527389939874,None,None,103.86527389939874,None,104.66952500985936,None,,,,22029,0001,2023_Feb_13_1124,localizer,2021.1.3,59.33284978143076,
block,scenes,scenes044.bmp,,,,,0,26,26,26,,,,,,,,,,,,,,,,,,,,,,,,,,,,,,,,,,,,,,,,,,None,,104.66952500985936,None,104.66952500985936,None,2023-02-13-11:25:27.658840,104.68174210004508,104.98606720007956,104.68174210004508,None,None,104.68174210004508,None,105.48606860945002,None,,,,22029,0001,2023_Feb_13_1124,localizer,2021.1.3,59.33284978143076,
block,scenes,scenes042.bmp,,,,,0,27,27,27,,,,,,,,,,,,,,,,,,,,,,,,,,,,,,,,,,,,,,,,,,None,,105.48606860945002,None,105.48606860945002,None,2023-02-13-11:25:28.475384,105.49820039980114,105.80269359983504,105.49820039980114,None,None,105.49820039980114,None,106.3028053094633,None,,,,22029,0001,2023_Feb_13_1124,localizer,2021.1.3,59.33284978143076,
block,scenes,scenes018.bmp,,,,,0,28,28,28,,,,,,,,,,,,,,,,,,,,,,,,,,,,,,,,,,,,,,,,,,None,,106.3028053094633,None,106.3028053094633,None,2023-02-13-11:25:29.292120,106.31549379974604,106.61941900011152,106.31549379974604,None,None,106.31549379974604,None,107.11956321010366,None,,,,22029,0001,2023_Feb_13_1124,localizer,2021.1.3,59.33284978143076,
block_end,scenes,scenes064.bmp,,,,,0,29,29,29,,,,,,,,,,,,,,,,,,,,,,,,,,,,,,,,,,,,,,,,,,None,,107.11956321010366,None,107.11956321010366,None,2023-02-13-11:25:30.108878,107.1315735001117,107.43619449995458,107.1315735001117,None,None,107.1315735001117,None,107.93576701013372,None,,,,22029,0001,2023_Feb_13_1124,localizer,2021.1.3,59.33284978143076,
null_block,null_block,null_block.bmp,,,,,0,30,30,30,,,,,,,,,,,,,,,,,,,,,,,,,,,,,,,,,,,,,,,,,,t,1.7350257998332381,107.9358489997685,None,107.9358489997685,None,2023-02-13-11:25:32.673930,109.70248651932926,None,109.70248651932926,None,None,109.70248651932926,None,109.70246629975736,None,,,,22029,0001,2023_Feb_13_1124,localizer,2021.1.3,59.33284978143076,
block_start,faces,faces026.bmp,,,,,0,31,31,31,,,,,,,,,,,,,,,,,,,,,,,,,,,,,,,,,,,,,,,,,,t,1.9671968994662166,121.7029139995575,None,121.7029139995575,None,2023-02-13-11:25:46.677667,123.72999469935894,124.03635339997709,123.72999469935894,None,None,123.72999469935894,None,124.50292070982978,None,,,,22029,0001,2023_Feb_13_1124,localizer,2021.1.3,59.33284978143076,
block,faces,faces047.bmp,,,,,0,32,32,32,,,,,,,,,,,,,,,,,,,,,,,,,,,,,,,,,,,,,,,,,,None,,124.50292070982978,None,124.50292070982978,None,2023-02-13-11:25:47.492338,124.52007630001754,124.8195452997461,124.52007630001754,None,None,124.52007630001754,None,125.31969600943849,None,,,,22029,0001,2023_Feb_13_1124,localizer,2021.1.3,59.33284978143076,
block,faces,faces050.bmp,,,,,0,33,33,33,,,,,,,,,,,,,,,,,,,,,,,,,,,,,,,,,,,,,,,,,,None,,125.31969600943849,None,125.31969600943849,None,2023-02-13-11:25:48.309209,125.33278589975089,125.63635509926826,125.33278589975089,None,None,125.33278589975089,None,126.13679811013863,None,,,,22029,0001,2023_Feb_13_1124,localizer,2021.1.3,59.33284978143076,
block,faces,faces030.bmp,,,,,0,34,34,34,,,,,,,,,,,,,,,,,,,,,,,,,,,,,,,,,,,,,,,,,,None,,126.13679811013863,None,126.13679811013863,None,2023-02-13-11:25:49.127095,126.1479911999777,126.4535825997591,126.1479911999777,None,None,126.1479911999777,None,126.95333540933207,None,,,,22029,0001,2023_Feb_13_1124,localizer,2021.1.3,59.33284978143076,
block,faces,faces072.bmp,,,,,0,35,35,35,,,,,,,,,,,,,,,,,,,,,,,,,,,,,,,,,,,,,,,,,,None,,126.95333540933207,None,126.95333540933207,None,2023-02-13-11:25:49.943845,126.96693670004606,127.26972059998661,126.96693670004606,None,None,126.96693670004606,None,127.76943870941177,None,,,,22029,0001,2023_Feb_13_1124,localizer,2021.1.3,59.33284978143076,
block,faces,faces068.bmp,,,,,0,36,36,36,,,,,,,,,,,,,,,,,,,,,,,,,,,,,,,,,,,,,,,,,,None,,127.76943870941177,None,127.76943870941177,None,2023-02-13-11:25:50.758754,127.78125499933958,128.08631089981645,127.78125499933958,None,None,127.78125499933958,None,128.5865245101042,None,,,,22029,0001,2023_Feb_13_1124,localizer,2021.1.3,59.33284978143076,
block,faces,faces066.bmp,,,,,0,37,37,37,,,,,,,,,,,,,,,,,,,,,,,,,,,,,,,,,,,,,,,,,,None,,128.5865245101042,None,128.5865245101042,None,2023-02-13-11:25:51.576033,128.59910149965435,128.90283909998834,128.59910149965435,None,None,128.59910149965435,None,129.4027570097707,None,,,,22029,0001,2023_Feb_13_1124,localizer,2021.1.3,59.33284978143076,
block,faces,faces049.bmp,,,,,0,38,38,38,,,,,,,,,,,,,,,,,,,,,,,,,,,,,,,,,,,,,,,,,,None,,129.4027570097707,None,129.4027570097707,None,2023-02-13-11:25:52.392071,129.41328019928187,129.7199025992304,129.41328019928187,None,None,129.41328019928187,None,130.2197988101281,None,,,,22029,0001,2023_Feb_13_1124,localizer,2021.1.3,59.33284978143076,
block,faces,faces048.bmp,,,,,0,39,39,39,,,,,,,,,,,,,,,,,,,,,,,,,,,,,,,,,,,,,,,,,,None,,130.2197988101281,None,130.2197988101281,None,2023-02-13-11:25:53.209103,130.23056979943067,130.5362932998687,130.23056979943067,None,None,130.23056979943067,None,131.03642781013622,None,,,,22029,0001,2023_Feb_13_1124,localizer,2021.1.3,59.33284978143076,
block,faces,faces080.bmp,,,,,0,40,40,40,,,,,,,,,,,,,,,,,,,,,,,,,,,,,,,,,,,,,,,,,,None,,131.03642781013622,None,131.03642781013622,None,2023-02-13-11:25:54.025947,131.05344669986516,131.35311760008335,131.05344669986516,None,None,131.05344669986516,None,131.84173380983992,None,,,,22029,0001,2023_Feb_13_1124,localizer,2021.1.3,59.33284978143076,
block,faces,faces005.bmp,,,,,0,41,41,41,,,,,,,,,,,,,,,,,,,,,,,,,,,,,,,,,,,,,,,,,,None,,131.84173380983992,None,131.84173380983992,None,2023-02-13-11:25:54.834480,131.85737999994308,132.16967049986124,131.85737999994308,None,None,131.85737999994308,None,132.65302640972658,None,,,,22029,0001,2023_Feb_13_1124,localizer,2021.1.3,59.33284978143076,
block,faces,faces070.bmp,,,,,0,42,42,42,,,,,,,,,,,,,,,,,,,,,,,,,,,,,,,,,,,,,,,,,,None,,132.65302640972658,None,132.65302640972658,None,2023-02-13-11:25:55.642330,132.6671953992918,132.969858199358,132.6671953992918,None,None,132.6671953992918,None,133.4692622100003,None,,,,22029,0001,2023_Feb_13_1124,localizer,2021.1.3,59.33284978143076,
block,faces,faces070.bmp,,,,,0,43,43,43,,,,,,,,,,,,,,,,,,,,,,,,,,,,,,,,,,,,,,,,,,None,,133.4692622100003,None,133.4692622100003,None,2023-02-13-11:25:56.458607,133.4710136000067,133.77620430011302,133.4710136000067,None,y,133.4710136000067,None,134.27157640950753,None,0.6857385998591781,,,22029,0001,2023_Feb_13_1124,localizer,2021.1.3,59.33284978143076,
block,faces,faces042.bmp,,,,,0,44,44,44,,,,,,,,,,,,,,,,,,,,,,,,,,,,,,,,,,,,,,,,,,None,,134.27157640950753,None,134.27157640950753,None,2023-02-13-11:25:57.266838,134.29092529974878,134.60307709965855,134.29092529974878,134.29092529974878,None,134.29092529974878,134.29092529974878,135.08639270933344,None,,,,22029,0001,2023_Feb_13_1124,localizer,2021.1.3,59.33284978143076,
block_end,faces,faces017.bmp,,,,,0,45,45,45,,,,,,,,,,,,,,,,,,,,,,,,,,,,,,,,,,,,,,,,,,None,,135.08639270933344,None,135.08639270933344,None,2023-02-13-11:25:58.075697,135.09463619999588,135.40308189950883,135.09463619999588,None,None,135.09463619999588,None,135.90301450928672,None,,,,22029,0001,2023_Feb_13_1124,localizer,2021.1.3,59.33284978143076,
block_start,scrambled,scrambled055.bmp,,,,,0,46,46,46,,,,,,,,,,,,,,,,,,,,,,,,,,,,,,,,,,,,,,,,,,t,1.766750100068748,135.9033308001235,None,135.9033308001235,None,2023-02-13-11:26:00.677573,137.7007602993399,138.00289369933307,137.7007602993399,None,None,137.7007602993399,None,138.50290130944921,None,,,,22029,0001,2023_Feb_13_1124,localizer,2021.1.3,59.33284978143076,
block,scrambled,scrambled007.bmp,,,,,0,47,47,47,,,,,,,,,,,,,,,,,,,,,,,,,,,,,,,,,,,,,,,,,,None,,138.50290130944921,None,138.50290130944921,None,2023-02-13-11:26:01.492205,138.51433029957116,138.82022039964795,138.51433029957116,None,None,138.51433029957116,None,139.3197140100412,None,,,,22029,0001,2023_Feb_13_1124,localizer,2021.1.3,59.33284978143076,
block,scrambled,scrambled034.bmp,,,,,0,48,48,48,,,,,,,,,,,,,,,,,,,,,,,,,,,,,,,,,,,,,,,,,,None,,139.3197140100412,None,139.3197140100412,None,2023-02-13-11:26:02.309013,139.32813289947808,139.63619119953364,139.32813289947808,None,None,139.32813289947808,None,140.13738030968233,None,,,,22029,0001,2023_Feb_13_1124,localizer,2021.1.3,59.33284978143076,
block,scrambled,scrambled013.bmp,,,,,0,49,49,49,,,,,,,,,,,,,,,,,,,,,,,,,,,,,,,,,,,,,,,,,,None,,140.13738030968233,None,140.13738030968233,None,2023-02-13-11:26:03.127791,140.1518443999812,140.45304910000414,140.1518443999812,None,None,140.1518443999812,None,140.95316560966893,None,,,,22029,0001,2023_Feb_13_1124,localizer,2021.1.3,59.33284978143076,
block,scrambled,scrambled077.bmp,,,,,0,50,50,50,,,,,,,,,,,,,,,,,,,,,,,,,,,,,,,,,,,,,,,,,,None,,140.95316560966893,None,140.95316560966893,None,2023-02-13-11:26:03.942466,140.96504199970514,141.26964779943228,140.96504199970514,None,None,140.96504199970514,None,141.76927441013976,None,,,,22029,0001,2023_Feb_13_1124,localizer,2021.1.3,59.33284978143076,
block,scrambled,scrambled059.bmp,,,,,0,51,51,51,,,,,,,,,,,,,,,,,,,,,,,,,,,,,,,,,,,,,,,,,,None,,141.76927441013976,None,141.76927441013976,None,2023-02-13-11:26:04.757487,141.77477869950235,142.08570950012654,141.77477869950235,None,None,141.77477869950235,None,142.5865375095047,None,,,,22029,0001,2023_Feb_13_1124,localizer,2021.1.3,59.33284978143076,
block,scrambled,scrambled069.bmp,,,,,0,52,52,52,,,,,,,,,,,,,,,,,,,,,,,,,,,,,,,,,,,,,,,,,,None,,142.5865375095047,None,142.5865375095047,None,2023-02-13-11:26:05.575819,142.600423399359,142.90744529943913,142.600423399359,None,None,142.600423399359,None,143.40298790978267,None,,,,22029,0001,2023_Feb_13_1124,localizer,2021.1.3,59.33284978143076,
block,scrambled,scrambled067.bmp,,,,,0,53,53,53,,,,,,,,,,,,,,,,,,,,,,,,,,,,,,,,,,,,,,,,,,None,,143.40298790978267,None,143.40298790978267,None,2023-02-13-11:26:06.392277,143.4101106999442,143.71957969944924,143.4101106999442,None,None,143.4101106999442,None,144.2208373093046,None,,,,22029,0001,2023_Feb_13_1124,localizer,2021.1.3,59.33284978143076,
block,scrambled,scrambled023.bmp,,,,,0,54,54,54,,,,,,,,,,,,,,,,,,,,,,,,,,,,,,,,,,,,,,,,,,None,,144.2208373093046,None,144.2208373093046,None,2023-02-13-11:26:07.212091,144.23676820006222,144.5362627999857,144.23676820006222,None,None,144.23676820006222,None,145.0365670093335,None,,,,22029,0001,2023_Feb_13_1124,localizer,2021.1.3,59.33284978143076,
block,scrambled,scrambled045.bmp,,,,,0,55,55,55,,,,,,,,,,,,,,,,,,,,,,,,,,,,,,,,,,,,,,,,,,None,,145.0365670093335,None,145.0365670093335,None,2023-02-13-11:26:08.026070,145.0484315995127,145.35384509991854,145.0484315995127,None,None,145.0484315995127,None,145.8549593093805,None,,,,22029,0001,2023_Feb_13_1124,localizer,2021.1.3,59.33284978143076,
block,scrambled,scrambled074.bmp,,,,,0,56,56,56,,,,,,,,,,,,,,,,,,,,,,,,,,,,,,,,,,,,,,,,,,None,,145.8549593093805,None,145.8549593093805,None,2023-02-13-11:26:08.848345,145.87262469995767,146.18637019954622,145.87262469995767,None,None,145.87262469995767,None,146.66996340947225,None,,,,22029,0001,2023_Feb_13_1124,localizer,2021.1.3,59.33284978143076,
block,scrambled,scrambled024.bmp,,,,,0,57,57,57,,,,,,,,,,,,,,,,,,,,,,,,,,,,,,,,,,,,,,,,,,None,,146.66996340947225,None,146.66996340947225,None,2023-02-13-11:26:09.659471,146.6817735992372,146.98645969945937,146.6817735992372,None,None,146.6817735992372,None,147.4866080100648,None,,,,22029,0001,2023_Feb_13_1124,localizer,2021.1.3,59.33284978143076,
block,scrambled,scrambled025.bmp,,,,,0,58,58,58,,,,,,,,,,,,,,,,,,,,,,,,,,,,,,,,,,,,,,,,,,None,,147.4866080100648,None,147.4866080100648,None,2023-02-13-11:26:10.475990,147.49522269982845,147.80312329996377,147.49522269982845,None,None,147.49522269982845,None,148.30341040929778,None,,,,22029,0001,2023_Feb_13_1124,localizer,2021.1.3,59.33284978143076,
block,scrambled,scrambled073.bmp,,,,,0,59,59,59,,,,,,,,,,,,,,,,,,,,,,,,,,,,,,,,,,,,,,,,,,None,,148.30341040929778,None,148.30341040929778,None,2023-02-13-11:26:11.292820,148.3159227995202,148.6198840001598,148.3159227995202,None,y,148.3159227995202,None,149.1197962093167,None,0.5529131004586816,,,22029,0001,2023_Feb_13_1124,localizer,2021.1.3,59.33284978143076,
block_end,scrambled,scrambled003.bmp,,,,,0,60,60,60,,,,,,,,,,,,,,,,,,,,,,,,,,,,,,,,,,,,,,,,,,None,,149.1197962093167,None,149.1197962093167,None,2023-02-13-11:26:12.109095,149.1279902998358,149.43657539971173,149.1279902998358,None,None,149.1279902998358,None,149.9364335102029,None,,,,22029,0001,2023_Feb_13_1124,localizer,2021.1.3,59.33284978143076,
block_start,scenes,scenes056.bmp,,,,,0,61,61,61,,,,,,,,,,,,,,,,,,,,,,,,,,,,,,,,,,,,,,,,,,t,1.7336242003366351,149.93646399956197,None,149.93646399956197,None,2023-02-13-11:26:14.676188,151.70078049972653,152.00292500015348,151.70078049972653,None,None,151.70078049972653,None,152.50280870990827,None,,,,22029,0001,2023_Feb_13_1124,localizer,2021.1.3,59.33284978143076,
block,scenes,scenes067.bmp,,,,,0,62,62,62,,,,,,,,,,,,,,,,,,,,,,,,,,,,,,,,,,,,,,,,,,None,,152.50280870990827,None,152.50280870990827,None,2023-02-13-11:26:15.492416,152.51391780003905,152.81980029959232,152.51391780003905,None,None,152.51391780003905,None,153.31984330927952,None,,,,22029,0001,2023_Feb_13_1124,localizer,2021.1.3,59.33284978143076,
block,scenes,scenes013.bmp,,,,,0,63,63,63,,,,,,,,,,,,,,,,,,,,,,,,,,,,,,,,,,,,,,,,,,None,,153.31984330927952,None,153.31984330927952,None,2023-02-13-11:26:16.309689,153.331876299344,153.63668499980122,153.331876299344,None,None,153.331876299344,None,154.1376380094327,None,,,,22029,0001,2023_Feb_13_1124,localizer,2021.1.3,59.33284978143076,
block,scenes,scenes048.bmp,,,,,0,64,64,64,,,,,,,,,,,,,,,,,,,,,,,,,,,,,,,,,,,,,,,,,,None,,154.1376380094327,None,154.1376380094327,None,2023-02-13-11:26:17.129060,154.15806979965419,154.46983789931983,154.15806979965419,None,None,154.15806979965419,None,154.9534037097357,None,,,,22029,0001,2023_Feb_13_1124,localizer,2021.1.3,59.33284978143076,
block,scenes,scenes021.bmp,,,,,0,65,65,65,,,,,,,,,,,,,,,,,,,,,,,,,,,,,,,,,,,,,,,,,,None,,154.9534037097357,None,154.9534037097357,None,2023-02-13-11:26:17.942908,154.96713009942323,155.26999639999121,154.96713009942323,None,None,154.96713009942323,None,155.772118609678,None,,,,22029,0001,2023_Feb_13_1124,localizer,2021.1.3,59.33284978143076,
block,scenes,scenes081.bmp,,,,,0,66,66,66,,,,,,,,,,,,,,,,,,,,,,,,,,,,,,,,,,,,,,,,,,None,,155.772118609678,None,155.772118609678,None,2023-02-13-11:26:18.761611,155.78361439984292,156.08662719931453,155.78361439984292,None,None,155.78361439984292,None,156.5870331100188,None,,,,22029,0001,2023_Feb_13_1124,localizer,2021.1.3,59.33284978143076,
block,scenes,scenes049.bmp,,,,,0,67,67,67,,,,,,,,,,,,,,,,,,,,,,,,,,,,,,,,,,,,,,,,,,None,,156.5870331100188,None,156.5870331100188,None,2023-02-13-11:26:19.576613,156.5973173994571,156.9032295998186,156.5973173994571,None,None,156.5973173994571,None,157.40348590938373,None,,,,22029,0001,2023_Feb_13_1124,localizer,2021.1.3,59.33284978143076,
block,scenes,scenes002.bmp,,,,,0,68,68,68,,,,,,,,,,,,,,,,,,,,,,,,,,,,,,,,,,,,,,,,,,None,,157.40348590938373,None,157.40348590938373,None,2023-02-13-11:26:20.393012,157.41519139986485,157.7202425999567,157.41519139986485,None,None,157.41519139986485,None,158.22096820948644,None,,,,22029,0001,2023_Feb_13_1124,localizer,2021.1.3,59.33284978143076,
block,scenes,scenes071.bmp,,,,,0,69,69,69,,,,,,,,,,,,,,,,,,,,,,,,,,,,,,,,,,,,,,,,,,None,,158.22096820948644,None,158.22096820948644,None,2023-02-13-11:26:21.212243,158.23673819936812,158.53674810007215,158.23673819936812,None,None,158.23673819936812,None,159.03667670981957,None,,,,22029,0001,2023_Feb_13_1124,localizer,2021.1.3,59.33284978143076,
block,scenes,scenes009.bmp,,,,,0,70,70,70,,,,,,,,,,,,,,,,,,,,,,,,,,,,,,,,,,,,,,,,,,None,,159.03667670981957,None,159.03667670981957,None,2023-02-13-11:26:22.026064,159.0486514000222,159.35332039929926,159.0486514000222,None,None,159.0486514000222,None,159.8552289095707,None,,,,22029,0001,2023_Feb_13_1124,localizer,2021.1.3,59.33284978143076,
block,scenes,scenes037.bmp,,,,,0,71,71,71,,,,,,,,,,,,,,,,,,,,,,,,,,,,,,,,,,,,,,,,,,None,,159.8552289095707,None,159.8552289095707,None,2023-02-13-11:26:22.849241,159.87189209926873,160.1868966994807,159.87189209926873,None,None,159.87189209926873,None,160.66991520980372,None,,,,22029,0001,2023_Feb_13_1124,localizer,2021.1.3,59.33284978143076,
block,scenes,scenes061.bmp,,,,,0,72,72,72,,,,,,,,,,,,,,,,,,,,,,,,,,,,,,,,,,,,,,,,,,None,,160.66991520980372,None,160.66991520980372,None,2023-02-13-11:26:23.659209,160.68365210015327,160.98670739959925,160.68365210015327,None,None,160.68365210015327,None,161.48671270934864,None,,,,22029,0001,2023_Feb_13_1124,localizer,2021.1.3,59.33284978143076,
block,scenes,scenes061.bmp,,,,,0,73,73,73,,,,,,,,,,,,,,,,,,,,,,,,,,,,,,,,,,,,,,,,,,None,,161.48671270934864,None,161.48671270934864,None,2023-02-13-11:26:24.476006,161.48738549929112,161.78705269936472,161.48738549929112,None,None,161.48738549929112,None,162.28639540942385,None,,,,22029,0001,2023_Feb_13_1124,localizer,2021.1.3,59.33284978143076,
block,scenes,scenes072.bmp,,,,,0,74,74,74,,,,,,,,,,,,,,,,,,,,,,,,,,,,,,,,,,,,,,,,,,None,,162.28639540942385,None,162.28639540942385,None,2023-02-13-11:26:25.277895,162.299923799932,162.6032924996689,162.299923799932,162.299923799932,None,162.299923799932,162.299923799932,163.10350530995055,None,,,,22029,0001,2023_Feb_13_1124,localizer,2021.1.3,59.33284978143076,
block_end,scenes,scenes008.bmp,,,,,0,75,75,75,,,,,,,,,,,,,,,,,,,,,,,,,,,,,,,,,,,,,,,,,,None,,163.10350530995055,None,163.10350530995055,None,2023-02-13-11:26:26.092795,163.11546729970723,163.42012649960816,163.11546729970723,None,None,163.11546729970723,None,163.92037401003762,None,,,,22029,0001,2023_Feb_13_1124,localizer,2021.1.3,59.33284978143076,
block_start,scrambled,scrambled019.bmp,,,,,0,76,76,76,,,,,,,,,,,,,,,,,,,,,,,,,,,,,,,,,,,,,,,,,,t,1.74951979983598,163.92052719928324,None,163.92052719928324,None,2023-02-13-11:26:28.674474,165.69663619995117,166.00376150012016,165.69663619995117,None,None,165.69663619995117,None,166.50359000945463,None,,,,22029,0001,2023_Feb_13_1124,localizer,2021.1.3,59.33284978143076,
block,scrambled,scrambled082.bmp,,,,,0,77,77,77,,,,,,,,,,,,,,,,,,,,,,,,,,,,,,,,,,,,,,,,,,None,,166.50359000945463,None,166.50359000945463,None,2023-02-13-11:26:29.493960,166.51646529976279,166.82178149931133,166.51646529976279,None,None,166.51646529976279,None,167.32181920977308,None,,,,22029,0001,2023_Feb_13_1124,localizer,2021.1.3,59.33284978143076,
block,scrambled,scrambled040.bmp,,,,,0,78,78,78,,,,,,,,,,,,,,,,,,,,,,,,,,,,,,,,,,,,,,,,,,None,,167.32181920977308,None,167.32181920977308,None,2023-02-13-11:26:30.315074,167.33856569975615,167.65316919982433,167.33856569975615,None,None,167.33856569975615,None,168.13661020928993,None,,,,22029,0001,2023_Feb_13_1124,localizer,2021.1.3,59.33284978143076,
block,scrambled,scrambled025.bmp,,,,,0,79,79,79,,,,,,,,,,,,,,,,,,,,,,,,,,,,,,,,,,,,,,,,,,None,,168.13661020928993,None,168.13661020928993,None,2023-02-13-11:26:31.126114,168.1375202992931,168.45306559931487,168.1375202992931,None,None,168.1375202992931,None,168.93665530933066,None,,,,22029,0001,2023_Feb_13_1124,localizer,2021.1.3,59.33284978143076,
block,scrambled,scrambled035.bmp,,,,,0,80,80,80,,,,,,,,,,,,,,,,,,,,,,,,,,,,,,,,,,,,,,,,,,None,,168.93665530933066,None,168.93665530933066,None,2023-02-13-11:26:31.928152,168.95140369981527,169.2532552992925,168.95140369981527,168.95140369981527,None,168.95140369981527,168.95140369981527,169.75336721008642,None,,,,22029,0001,2023_Feb_13_1124,localizer,2021.1.3,59.33284978143076,
block,scrambled,scrambled026.bmp,,,,,0,81,81,81,,,,,,,,,,,,,,,,,,,,,,,,,,,,,,,,,,,,,,,,,,None,,169.75336721008642,None,169.75336721008642,None,2023-02-13-11:26:32.742639,169.763290300034,170.0700939996168,169.763290300034,None,None,169.763290300034,None,170.56965630995109,None,,,,22029,0001,2023_Feb_13_1124,localizer,2021.1.3,59.33284978143076,
block,scrambled,scrambled073.bmp,,,,,0,82,82,82,,,,,,,,,,,,,,,,,,,,,,,,,,,,,,,,,,,,,,,,,,None,,170.56965630995109,None,170.56965630995109,None,2023-02-13-11:26:33.559176,170.57075779978186,170.88668629992753,170.57075779978186,None,None,170.57075779978186,None,171.37007551016285,None,,,,22029,0001,2023_Feb_13_1124,localizer,2021.1.3,59.33284978143076,
block,scrambled,scrambled088.bmp,,,,,0,83,83,83,,,,,,,,,,,,,,,,,,,,,,,,,,,,,,,,,,,,,,,,,,None,,171.37007551016285,None,171.37007551016285,None,2023-02-13-11:26:34.361359,171.38381680008024,171.68654670007527,171.38381680008024,171.38381680008024,None,171.38381680008024,171.38381680008024,172.18638030933215,None,,,,22029,0001,2023_Feb_13_1124,localizer,2021.1.3,59.33284978143076,
block,scrambled,scrambled053.bmp,,,,,0,84,84,84,,,,,,,,,,,,,,,,,,,,,,,,,,,,,,,,,,,,,,,,,,None,,172.18638030933215,None,172.18638030933215,None,2023-02-13-11:26:35.176474,172.1985221998766,172.50346679985523,172.1985221998766,None,None,172.1985221998766,None,173.00341190984471,None,,,,22029,0001,2023_Feb_13_1124,localizer,2021.1.3,59.33284978143076,
block,scrambled,scrambled015.bmp,,,,,0,85,85,85,,,,,,,,,,,,,,,,,,,,,,,,,,,,,,,,,,,,,,,,,,None,,173.00341190984471,None,173.00341190984471,None,2023-02-13-11:26:35.992903,173.01546060014516,173.32007749937475,173.01546060014516,None,None,173.01546060014516,None,173.81951000941916,None,,,,22029,0001,2023_Feb_13_1124,localizer,2021.1.3,59.33284978143076,
block,scrambled,scrambled066.bmp,,,,,0,86,86,86,,,,,,,,,,,,,,,,,,,,,,,,,,,,,,,,,,,,,,,,,,None,,173.81951000941916,None,173.81951000941916,None,2023-02-13-11:26:36.809059,173.8302553994581,174.1367492992431,173.8302553994581,None,None,173.8302553994581,None,174.63654851010068,None,,,,22029,0001,2023_Feb_13_1124,localizer,2021.1.3,59.33284978143076,
block,scrambled,scrambled048.bmp,,,,,0,87,87,87,,,,,,,,,,,,,,,,,,,,,,,,,,,,,,,,,,,,,,,,,,None,,174.63654851010068,None,174.63654851010068,None,2023-02-13-11:26:37.626073,174.64858989976346,174.95354559924453,174.64858989976346,None,None,174.64858989976346,None,175.45340350950136,None,,,,22029,0001,2023_Feb_13_1124,localizer,2021.1.3,59.33284978143076,
block,scrambled,scrambled016.bmp,,,,,0,88,88,88,,,,,,,,,,,,,,,,,,,,,,,,,,,,,,,,,,,,,,,,,,None,,175.45340350950136,None,175.45340350950136,None,2023-02-13-11:26:38.442782,175.46529159974307,175.77006419934332,175.46529159974307,None,None,175.46529159974307,None,176.27014031009747,None,,,,22029,0001,2023_Feb_13_1124,localizer,2021.1.3,59.33284978143076,
block,scrambled,scrambled056.bmp,,,,,0,89,89,89,,,,,,,,,,,,,,,,,,,,,,,,,,,,,,,,,,,,,,,,,,None,,176.27014031009747,None,176.27014031009747,None,2023-02-13-11:26:39.259659,176.2820347994566,176.58681529946625,176.2820347994566,None,None,176.2820347994566,None,177.08643231010063,None,,,,22029,0001,2023_Feb_13_1124,localizer,2021.1.3,59.33284978143076,
block_end,scrambled,scrambled083.bmp,,,,,0,90,90,90,,,,,,,,,,,,,,,,,,,,,,,,,,,,,,,,,,,,,,,,,,None,,177.08643231010063,None,177.08643231010063,None,2023-02-13-11:26:40.075720,177.09729789942503,177.40339899994433,177.09729789942503,None,None,177.09729789942503,None,177.90309360930695,None,,,,22029,0001,2023_Feb_13_1124,localizer,2021.1.3,59.33284978143076,
block_start,faces,faces015.bmp,,,,,0,91,91,91,,,,,,,,,,,,,,,,,,,,,,,,,,,,,,,,,,,,,,,,,,t,1.7667205994948745,177.90321639925241,None,177.90321639925241,None,2023-02-13-11:26:42.674741,179.70494089927524,180.00936219934374,179.70494089927524,None,None,179.70494089927524,None,180.5035551100038,None,,,,22029,0001,2023_Feb_13_1124,localizer,2021.1.3,59.33284978143076,
block,faces,faces065.bmp,,,,,0,92,92,92,,,,,,,,,,,,,,,,,,,,,,,,,,,,,,,,,,,,,,,,,,None,,180.5035551100038,None,180.5035551100038,None,2023-02-13-11:26:43.493026,180.52342969924212,180.83640399947762,180.52342969924212,None,None,180.52342969924212,None,181.31998631013556,None,,,,22029,0001,2023_Feb_13_1124,localizer,2021.1.3,59.33284978143076,
block,faces,faces041.bmp,,,,,0,93,93,93,,,,,,,,,,,,,,,,,,,,,,,,,,,,,,,,,,,,,,,,,,None,,181.31998631013556,None,181.31998631013556,None,2023-02-13-11:26:44.309410,181.33251629956067,181.63670349959284,181.33251629956067,None,None,181.33251629956067,None,182.13706940999253,None,,,,22029,0001,2023_Feb_13_1124,localizer,2021.1.3,59.33284978143076,
block,faces,faces022.bmp,,,,,0,94,94,94,,,,,,,,,,,,,,,,,,,,,,,,,,,,,,,,,,,,,,,,,,None,,182.13706940999253,None,182.13706940999253,None,2023-02-13-11:26:45.126530,182.15275099966675,182.4533172994852,182.15275099966675,None,None,182.15275099966675,None,182.95357091007753,None,,,,22029,0001,2023_Feb_13_1124,localizer,2021.1.3,59.33284978143076,
block,faces,faces017.bmp,,,,,0,95,95,95,,,,,,,,,,,,,,,,,,,,,,,,,,,,,,,,,,,,,,,,,,None,,182.95357091007753,None,182.95357091007753,None,2023-02-13-11:26:45.943060,182.95424580015242,183.2537015993148,182.95424580015242,None,None,182.95424580015242,None,183.75359080946072,None,,,,22029,0001,2023_Feb_13_1124,localizer,2021.1.3,59.33284978143076,
block,faces,faces029.bmp,,,,,0,96,96,96,,,,,,,,,,,,,,,,,,,,,,,,,,,,,,,,,,,,,,,,,,None,,183.75359080946072,None,183.75359080946072,None,2023-02-13-11:26:46.743850,183.7672735992819,184.0701679000631,183.7672735992819,183.7672735992819,None,183.7672735992819,183.7672735992819,184.57015750957652,None,,,,22029,0001,2023_Feb_13_1124,localizer,2021.1.3,59.33284978143076,
block,faces,faces085.bmp,,,,,0,97,97,97,,,,,,,,,,,,,,,,,,,,,,,,,,,,,,,,,,,,,,,,,,None,,184.57015750957652,None,184.57015750957652,None,2023-02-13-11:26:47.560632,184.58319279924035,184.886796599254,184.58319279924035,None,None,184.58319279924035,None,185.3868980093859,None,,,,22029,0001,2023_Feb_13_1124,localizer,2021.1.3,59.33284978143076,
block,faces,faces071.bmp,,,,,0,98,98,98,,,,,,,,,,,,,,,,,,,,,,,,,,,,,,,,,,,,,,,,,,None,,185.3868980093859,None,185.3868980093859,None,2023-02-13-11:26:48.376318,185.39541359990835,185.7034061998129,185.39541359990835,None,None,185.39541359990835,None,186.20332060968502,None,,,,22029,0001,2023_Feb_13_1124,localizer,2021.1.3,59.33284978143076,
block,faces,faces053.bmp,,,,,0,99,99,99,,,,,,,,,,,,,,,,,,,,,,,,,,,,,,,,,,,,,,,,,,None,,186.20332060968502,None,186.20332060968502,None,2023-02-13-11:26:49.192602,186.21534129977226,186.5201196996495,186.21534129977226,None,None,186.21534129977226,None,187.01999480957164,None,,,,22029,0001,2023_Feb_13_1124,localizer,2021.1.3,59.33284978143076,
block,faces,faces028.bmp,,,,,0,100,100,100,,,,,,,,,,,,,,,,,,,,,,,,,,,,,,,,,,,,,,,,,,None,,187.01999480957164,None,187.01999480957164,None,2023-02-13-11:26:50.009507,187.02831389941275,187.3366524996236,187.02831389941275,None,None,187.02831389941275,None,187.83652730965986,None,,,,22029,0001,2023_Feb_13_1124,localizer,2021.1.3,59.33284978143076,
block,faces,faces038.bmp,,,,,0,101,101,101,,,,,,,,,,,,,,,,,,,,,,,,,,,,,,,,,,,,,,,,,,None,,187.83652730965986,None,187.83652730965986,None,2023-02-13-11:26:50.826067,187.85460789967328,188.17008790001273,187.85460789967328,None,None,187.85460789967328,None,188.65305340969934,None,,,,22029,0001,2023_Feb_13_1124,localizer,2021.1.3,59.33284978143076,
block,faces,faces045.bmp,,,,,0,102,102,102,,,,,,,,,,,,,,,,,,,,,,,,,,,,,,,,,,,,,,,,,,None,,188.65305340969934,None,188.65305340969934,None,2023-02-13-11:26:51.642344,188.66392279975116,188.97572859935462,188.66392279975116,None,None,188.66392279975116,None,189.46985610974951,None,,,,22029,0001,2023_Feb_13_1124,localizer,2021.1.3,59.33284978143076,
block,faces,faces018.bmp,,,,,0,103,103,103,,,,,,,,,,,,,,,,,,,,,,,,,,,,,,,,,,,,,,,,,,None,,189.46985610974951,None,189.46985610974951,None,2023-02-13-11:26:52.459137,189.4812134001404,189.78653510008007,189.4812134001404,None,None,189.4812134001404,None,190.286881109979,None,,,,22029,0001,2023_Feb_13_1124,localizer,2021.1.3,59.33284978143076,
block,faces,faces004.bmp,,,,,0,104,104,104,,,,,,,,,,,,,,,,,,,,,,,,,,,,,,,,,,,,,,,,,,None,,190.286881109979,None,190.286881109979,None,2023-02-13-11:26:53.277176,190.3047952996567,190.62016549985856,190.3047952996567,None,None,190.3047952996567,None,191.10342520968987,None,,,,22029,0001,2023_Feb_13_1124,localizer,2021.1.3,59.33284978143076,
block_end,faces,faces084.bmp,,,,,0,105,105,105,,,,,,,,,,,,,,,,,,,,,,,,,,,,,,,,,,,,,,,,,,None,,191.10342520968987,None,191.10342520968987,None,2023-02-13-11:26:54.092906,191.11295069940388,191.42018479947,191.11295069940388,None,None,191.11295069940388,None,191.91990900998934,None,,,,22029,0001,2023_Feb_13_1124,localizer,2021.1.3,59.33284978143076,
null_block,null_block,null_block.bmp,,,,,0,106,106,106,,,,,,,,,,,,,,,,,,,,,,,,,,,,,,,,,,,,,,,,,,t,1.7503264006227255,191.92006909940392,None,191.92006909940392,None,2023-02-13-11:26:56.676964,193.68867140943183,None,193.68867140943183,None,None,193.68867140943183,None,193.69154579937458,None,,,,22029,0001,2023_Feb_13_1124,localizer,2021.1.3,59.33284978143076,
block_start,objects,objects057.bmp,,,,,0,107,107,107,,,,,,,,,,,,,,,,,,,,,,,,,,,,,,,,,,,,,,,,,,t,1.9663359001278877,205.70361460000277,None,205.70361460000277,None,2023-02-13-11:27:10.677638,207.69965889956802,208.0038046995178,207.69965889956802,None,None,207.69965889956802,None,208.5036672095768,None,,,,22029,0001,2023_Feb_13_1124,localizer,2021.1.3,59.33284978143076,
block,objects,objects077.bmp,,,,,0,108,108,108,,,,,,,,,,,,,,,,,,,,,,,,,,,,,,,,,,,,,,,,,,None,,208.5036672095768,None,208.5036672095768,None,2023-02-13-11:27:11.494155,208.51680149976164,208.82035299949348,208.51680149976164,None,None,208.51680149976164,None,209.32033490976318,None,,,,22029,0001,2023_Feb_13_1124,localizer,2021.1.3,59.33284978143076,
block,objects,objects005.bmp,,,,,0,109,109,109,,,,,,,,,,,,,,,,,,,,,,,,,,,,,,,,,,,,,,,,,,None,,209.32033490976318,None,209.32033490976318,None,2023-02-13-11:27:12.309606,209.3322518998757,209.63691659923643,209.3322518998757,None,None,209.3322518998757,None,210.13657471006735,None,,,,22029,0001,2023_Feb_13_1124,localizer,2021.1.3,59.33284978143076,
block,objects,objects078.bmp,,,,,0,110,110,110,,,,,,,,,,,,,,,,,,,,,,,,,,,,,,,,,,,,,,,,,,None,,210.13657471006735,None,210.13657471006735,None,2023-02-13-11:27:13.125857,210.13810759969056,210.4534626994282,210.13810759969056,None,None,210.13810759969056,None,210.95367930950596,None,,,,22029,0001,2023_Feb_13_1124,localizer,2021.1.3,59.33284978143076,
block,objects,objects037.bmp,,,,,0,111,111,111,,,,,,,,,,,,,,,,,,,,,,,,,,,,,,,,,,,,,,,,,,None,,210.95367930950596,None,210.95367930950596,None,2023-02-13-11:27:13.943163,210.96569210011512,211.27019509952515,210.96569210011512,None,None,210.96569210011512,None,211.7695141092874,None,,,,22029,0001,2023_Feb_13_1124,localizer,2021.1.3,59.33284978143076,
block,objects,objects086.bmp,,,,,0,112,112,112,,,,,,,,,,,,,,,,,,,,,,,,,,,,,,,,,,,,,,,,,,None,,211.7695141092874,None,211.7695141092874,None,2023-02-13-11:27:14.758965,211.77189170010388,212.08675049990416,211.77189170010388,None,None,211.77189170010388,None,212.58688330957665,None,,,,22029,0001,2023_Feb_13_1124,localizer,2021.1.3,59.33284978143076,
block,objects,objects021.bmp,,,,,0,113,113,113,,,,,,,,,,,,,,,,,,,,,,,,,,,,,,,,,,,,,,,,,,None,,212.58688330957665,None,212.58688330957665,None,2023-02-13-11:27:15.576156,212.58797100000083,212.90314839966595,212.58797100000083,None,None,212.58797100000083,None,213.3872343099676,None,,,,22029,0001,2023_Feb_13_1124,localizer,2021.1.3,59.33284978143076,
block,objects,objects006.bmp,,,,,0,114,114,114,,,,,,,,,,,,,,,,,,,,,,,,,,,,,,,,,,,,,,,,,,None,,213.3872343099676,None,213.3872343099676,None,2023-02-13-11:27:16.383395,213.40431419946253,213.70362129993737,213.40431419946253,213.40431419946253,None,213.40431419946253,213.40431419946253,214.20360600976272,None,,,,22029,0001,2023_Feb_13_1124,localizer,2021.1.3,59.33284978143076,
block,objects,objects056.bmp,,,,,0,115,115,115,,,,,,,,,,,,,,,,,,,,,,,,,,,,,,,,,,,,,,,,,,None,,214.20360600976272,None,214.20360600976272,None,2023-02-13-11:27:17.193282,214.2155976993963,214.52028180006891,214.2155976993963,None,None,214.2155976993963,None,215.02037791004403,None,,,,22029,0001,2023_Feb_13_1124,localizer,2021.1.3,59.33284978143076,
block,objects,objects058.bmp,,,,,0,116,116,116,,,,,,,,,,,,,,,,,,,,,,,,,,,,,,,,,,,,,,,,,,None,,215.02037791004403,None,215.02037791004403,None,2023-02-13-11:27:18.009828,215.02968359924853,215.33707149978727,215.02968359924853,None,None,215.02968359924853,None,215.83789960974826,None,,,,22029,0001,2023_Feb_13_1124,localizer,2021.1.3,59.33284978143076,
block,objects,objects008.bmp,,,,,0,117,117,117,,,,,,,,,,,,,,,,,,,,,,,,,,,,,,,,,,,,,,,,,,None,,215.83789960974826,None,215.83789960974826,None,2023-02-13-11:27:18.828311,215.8524847999215,216.15374720003456,215.8524847999215,None,None,215.8524847999215,None,216.65352930994703,None,,,,22029,0001,2023_Feb_13_1124,localizer,2021.1.3,59.33284978143076,
block,objects,objects060.bmp,,,,,0,118,118,118,,,,,,,,,,,,,,,,,,,,,,,,,,,,,,,,,,,,,,,,,,None,,216.65352930994703,None,216.65352930994703,None,2023-02-13-11:27:19.642775,216.6652534995228,216.97056099958718,216.6652534995228,None,None,216.6652534995228,None,217.4702944097109,None,,,,22029,0001,2023_Feb_13_1124,localizer,2021.1.3,59.33284978143076,
block,objects,objects029.bmp,,,,,0,119,119,119,,,,,,,,,,,,,,,,,,,,,,,,,,,,,,,,,,,,,,,,,,None,,217.4702944097109,None,217.4702944097109,None,2023-02-13-11:27:20.459764,217.4835016001016,217.78669039998204,217.4835016001016,None,None,217.4835016001016,None,218.28700690930708,None,,,,22029,0001,2023_Feb_13_1124,localizer,2021.1.3,59.33284978143076,
block,objects,objects047.bmp,,,,,0,120,120,120,,,,,,,,,,,,,,,,,,,,,,,,,,,,,,,,,,,,,,,,,,None,,218.28700690930708,None,218.28700690930708,None,2023-02-13-11:27:21.275970,218.28788399975747,218.5870607998222,218.28788399975747,None,None,218.28788399975747,None,219.10360921015962,None,,,,22029,0001,2023_Feb_13_1124,localizer,2021.1.3,59.33284978143076,
block_end,objects,objects020.bmp,,,,,0,121,121,121,,,,,,,,,,,,,,,,,,,,,,,,,,,,,,,,,,,,,,,,,,None,,219.10360921015962,None,219.10360921015962,None,2023-02-13-11:27:22.092879,219.11532660014927,219.42068299930543,219.11532660014927,None,None,219.11532660014927,None,219.92030490962787,None,,,,22029,0001,2023_Feb_13_1124,localizer,2021.1.3,59.33284978143076,
block_start,scenes,scenes016.bmp,,,,,0,122,122,122,,,,,,,,,,,,,,,,,,,,,,,,,,,,,,,,,,,,,,,,,,t,1.749681099317968,219.92031119950116,None,219.92031119950116,None,2023-02-13-11:27:24.676627,221.70642719976604,222.02049829997122,221.70642719976604,None,None,221.70642719976604,None,222.5040265101008,None,,,,22029,0001,2023_Feb_13_1124,localizer,2021.1.3,59.33284978143076,
block,scenes,scenes021.bmp,,,,,0,123,123,123,,,,,,,,,,,,,,,,,,,,,,,,,,,,,,,,,,,,,,,,,,None,,222.5040265101008,None,222.5040265101008,None,2023-02-13-11:27:25.494474,222.5048957997933,222.80404930002987,222.5048957997933,None,None,222.5048957997933,None,223.30398600948973,None,,,,22029,0001,2023_Feb_13_1124,localizer,2021.1.3,59.33284978143076,
block,scenes,scenes030.bmp,,,,,0,124,124,124,,,,,,,,,,,,,,,,,,,,,,,,,,,,,,,,,,,,,,,,,,None,,223.30398600948973,None,223.30398600948973,None,2023-02-13-11:27:26.296240,223.31854339968413,223.62090289965272,223.31854339968413,223.31854339968413,None,223.31854339968413,223.31854339968413,224.12080310964956,None,,,,22029,0001,2023_Feb_13_1124,localizer,2021.1.3,59.33284978143076,
block,scenes,scenes020.bmp,,,,,0,125,125,125,,,,,,,,,,,,,,,,,,,,,,,,,,,,,,,,,,,,,,,,,,None,,224.12080310964956,None,224.12080310964956,None,2023-02-13-11:27:27.111062,224.13370979949832,224.43709160014987,224.13370979949832,None,None,224.13370979949832,None,224.9370733101852,None,,,,22029,0001,2023_Feb_13_1124,localizer,2021.1.3,59.33284978143076,
block,scenes,scenes018.bmp,,,,,0,126,126,126,,,,,,,,,,,,,,,,,,,,,,,,,,,,,,,,,,,,,,,,,,None,,224.9370733101852,None,224.9370733101852,None,2023-02-13-11:27:27.926000,224.93801519926637,225.2371108001098,224.93801519926637,None,None,224.93801519926637,None,225.7536555093713,None,,,,22029,0001,2023_Feb_13_1124,localizer,2021.1.3,59.33284978143076,
block,scenes,scenes068.bmp,,,,,0,127,127,127,,,,,,,,,,,,,,,,,,,,,,,,,,,,,,,,,,,,,,,,,,None,,225.7536555093713,None,225.7536555093713,None,2023-02-13-11:27:28.742923,225.75486969947815,226.07044869940728,225.75486969947815,None,None,225.75486969947815,None,226.57013390986248,None,,,,22029,0001,2023_Feb_13_1124,localizer,2021.1.3,59.33284978143076,
block,scenes,scenes069.bmp,,,,,0,128,128,128,,,,,,,,,,,,,,,,,,,,,,,,,,,,,,,,,,,,,,,,,,None,,226.57013390986248,None,226.57013390986248,None,2023-02-13-11:27:29.558414,226.57726150006056,226.88677340000868,226.57726150006056,None,None,226.57726150006056,None,227.38720141006633,None,,,,22029,0001,2023_Feb_13_1124,localizer,2021.1.3,59.33284978143076,
block,scenes,scenes083.bmp,,,,,0,129,129,129,,,,,,,,,,,,,,,,,,,,,,,,,,,,,,,,,,,,,,,,,,None,,227.38720141006633,None,227.38720141006633,None,2023-02-13-11:27:30.376652,227.39930339995772,227.70404199976474,227.39930339995772,None,None,227.39930339995772,None,228.2039101098664,None,,,,22029,0001,2023_Feb_13_1124,localizer,2021.1.3,59.33284978143076,
block,scenes,scenes040.bmp,,,,,0,130,130,130,,,,,,,,,,,,,,,,,,,,,,,,,,,,,,,,,,,,,,,,,,None,,228.2039101098664,None,228.2039101098664,None,2023-02-13-11:27:31.193183,228.2048307992518,228.50406239926815,228.2048307992518,None,None,228.2048307992518,None,229.0204267094843,None,,,,22029,0001,2023_Feb_13_1124,localizer,2021.1.3,59.33284978143076,
block,scenes,scenes007.bmp,,,,,0,131,131,131,,,,,,,,,,,,,,,,,,,,,,,,,,,,,,,,,,,,,,,,,,None,,229.0204267094843,None,229.0204267094843,None,2023-02-13-11:27:32.009846,229.03828960005194,229.35359639953822,229.03828960005194,None,None,229.03828960005194,None,229.83877490954472,None,,,,22029,0001,2023_Feb_13_1124,localizer,2021.1.3,59.33284978143076,
block,scenes,scenes034.bmp,,,,,0,132,132,132,,,,,,,,,,,,,,,,,,,,,,,,,,,,,,,,,,,,,,,,,,None,,229.83877490954472,None,229.83877490954472,None,2023-02-13-11:27:32.831214,229.85476229991764,230.15401950012892,229.85476229991764,None,None,229.85476229991764,None,230.65403091004117,None,,,,22029,0001,2023_Feb_13_1124,localizer,2021.1.3,59.33284978143076,
block,scenes,scenes062.bmp,,,,,0,133,133,133,,,,,,,,,,,,,,,,,,,,,,,,,,,,,,,,,,,,,,,,,,None,,230.65403091004117,None,230.65403091004117,None,2023-02-13-11:27:33.644469,230.66468899976462,230.97031279932708,230.66468899976462,None,None,230.66468899976462,None,231.47036150963976,None,,,,22029,0001,2023_Feb_13_1124,localizer,2021.1.3,59.33284978143076,
block,scenes,scenes004.bmp,,,,,0,134,134,134,,,,,,,,,,,,,,,,,,,,,,,,,,,,,,,,,,,,,,,,,,None,,231.47036150963976,None,231.47036150963976,None,2023-02-13-11:27:34.459831,231.47136359941214,231.78725720010698,231.47136359941214,None,None,231.47136359941214,None,232.28689480973406,None,,,,22029,0001,2023_Feb_13_1124,localizer,2021.1.3,59.33284978143076,
block,scenes,scenes028.bmp,,,,,0,135,135,135,,,,,,,,,,,,,,,,,,,,,,,,,,,,,,,,,,,,,,,,,,None,,232.28689480973406,None,232.28689480973406,None,2023-02-13-11:27:35.276397,232.29810999985784,232.60357599984854,232.29810999985784,None,None,232.29810999985784,None,233.10361440973355,None,,,,22029,0001,2023_Feb_13_1124,localizer,2021.1.3,59.33284978143076,
block_end,scenes,scenes010.bmp,,,,,0,136,136,136,,,,,,,,,,,,,,,,,,,,,,,,,,,,,,,,,,,,,,,,,,None,,233.10361440973355,None,233.10361440973355,None,2023-02-13-11:27:36.093228,233.11581009998918,233.42054339963943,233.11581009998918,None,None,233.11581009998918,None,233.9201429097913,None,,,,22029,0001,2023_Feb_13_1124,localizer,2021.1.3,59.33284978143076,
block_start,objects,objects019.bmp,,,,,0,137,137,137,,,,,,,,,,,,,,,,,,,,,,,,,,,,,,,,,,,,,,,,,,t,1.7502613998949528,233.92005049996078,None,233.92005049996078,None,2023-02-13-11:27:38.679112,235.69075409974903,236.00433029979467,235.69075409974903,None,None,235.69075409974903,None,236.50432300968095,None,,,,22029,0001,2023_Feb_13_1124,localizer,2021.1.3,59.33284978143076,
block,objects,objects023.bmp,,,,,0,138,138,138,,,,,,,,,,,,,,,,,,,,,,,,,,,,,,,,,,,,,,,,,,None,,236.50432300968095,None,236.50432300968095,None,2023-02-13-11:27:39.494575,236.51775089930743,236.82108089979738,236.51775089930743,None,None,236.51775089930743,None,237.3210746099241,None,,,,22029,0001,2023_Feb_13_1124,localizer,2021.1.3,59.33284978143076,
block,objects,objects063.bmp,,,,,0,139,139,139,,,,,,,,,,,,,,,,,,,,,,,,,,,,,,,,,,,,,,,,,,None,,237.3210746099241,None,237.3210746099241,None,2023-02-13-11:27:40.311506,237.33392359968275,237.63723389990628,237.33392359968275,None,None,237.33392359968275,None,238.1377968101762,None,,,,22029,0001,2023_Feb_13_1124,localizer,2021.1.3,59.33284978143076,
block,objects,objects030.bmp,,,,,0,140,140,140,,,,,,,,,,,,,,,,,,,,,,,,,,,,,,,,,,,,,,,,,,None,,238.1377968101762,None,238.1377968101762,None,2023-02-13-11:27:41.128582,238.15242869965732,238.453779399395,238.15242869965732,None,None,238.15242869965732,None,238.9539482093416,None,,,,22029,0001,2023_Feb_13_1124,localizer,2021.1.3,59.33284978143076,
block,objects,objects087.bmp,,,,,0,141,141,141,,,,,,,,,,,,,,,,,,,,,,,,,,,,,,,,,,,,,,,,,,None,,238.9539482093416,None,238.9539482093416,None,2023-02-13-11:27:41.943209,238.95480579975992,239.27058380004019,238.95480579975992,None,None,238.95480579975992,None,239.76992540927603,None,,,,22029,0001,2023_Feb_13_1124,localizer,2021.1.3,59.33284978143076,
block,objects,objects046.bmp,,,,,0,142,142,142,,,,,,,,,,,,,,,,,,,,,,,,,,,,,,,,,,,,,,,,,,None,,239.76992540927603,None,239.76992540927603,None,2023-02-13-11:27:42.758465,239.77992150001228,240.08739439956844,239.77992150001228,None,None,239.77992150001228,None,240.58716340949758,None,,,,22029,0001,2023_Feb_13_1124,localizer,2021.1.3,59.33284978143076,
block,objects,objects044.bmp,,,,,0,143,143,143,,,,,,,,,,,,,,,,,,,,,,,,,,,,,,,,,,,,,,,,,,None,,240.58716340949758,None,240.58716340949758,None,2023-02-13-11:27:43.576554,240.59911770001054,240.90376190003008,240.59911770001054,None,None,240.59911770001054,None,241.40389911020173,None,,,,22029,0001,2023_Feb_13_1124,localizer,2021.1.3,59.33284978143076,
block,objects,objects033.bmp,,,,,0,144,144,144,,,,,,,,,,,,,,,,,,,,,,,,,,,,,,,,,,,,,,,,,,None,,241.40389911020173,None,241.40389911020173,None,2023-02-13-11:27:44.393382,241.41577309928834,241.72406130004674,241.41577309928834,None,None,241.41577309928834,None,242.22057880954816,None,,,,22029,0001,2023_Feb_13_1124,localizer,2021.1.3,59.33284978143076,
block,objects,objects076.bmp,,,,,0,145,145,145,,,,,,,,,,,,,,,,,,,,,,,,,,,,,,,,,,,,,,,,,,None,,242.22057880954816,None,242.22057880954816,None,2023-02-13-11:27:45.210054,242.2324290992692,242.5371193997562,242.2324290992692,None,None,242.2324290992692,None,243.03691520942374,None,,,,22029,0001,2023_Feb_13_1124,localizer,2021.1.3,59.33284978143076,
block,objects,objects006.bmp,,,,,0,146,146,146,,,,,,,,,,,,,,,,,,,,,,,,,,,,,,,,,,,,,,,,,,None,,243.03691520942374,None,243.03691520942374,None,2023-02-13-11:27:46.025183,243.03918689955026,243.3542703995481,243.03918689955026,None,None,243.03918689955026,None,243.85350071014835,None,,,,22029,0001,2023_Feb_13_1124,localizer,2021.1.3,59.33284978143076,
block,objects,objects015.bmp,,,,,0,147,147,147,,,,,,,,,,,,,,,,,,,,,,,,,,,,,,,,,,,,,,,,,,None,,243.85350071014835,None,243.85350071014835,None,2023-02-13-11:27:46.841769,243.85472110006958,244.15404769964516,243.85472110006958,None,None,243.85472110006958,None,244.65375801017507,None,,,,22029,0001,2023_Feb_13_1124,localizer,2021.1.3,59.33284978143076,
block,objects,objects022.bmp,,,,,0,148,148,148,,,,,,,,,,,,,,,,,,,,,,,,,,,,,,,,,,,,,,,,,,None,,244.65375801017507,None,244.65375801017507,None,2023-02-13-11:27:47.645948,244.66892809979618,244.97133219987154,244.66892809979618,244.66892809979618,None,244.66892809979618,244.66892809979618,245.4708451100625,None,,,,22029,0001,2023_Feb_13_1124,localizer,2021.1.3,59.33284978143076,
block,objects,objects022.bmp,,,,,0,149,149,149,,,,,,,,,,,,,,,,,,,,,,,,,,,,,,,,,,,,,,,,,,None,,245.4708451100625,None,245.4708451100625,None,2023-02-13-11:27:48.461093,245.47182129975408,245.77032949961722,245.47182129975408,None,y,245.47182129975408,None,246.2873997095041,None,0.5881278999149799,,,22029,0001,2023_Feb_13_1124,localizer,2021.1.3,59.33284978143076,
block,objects,objects066.bmp,,,,,0,150,150,150,,,,,,,,,,,,,,,,,,,,,,,,,,,,,,,,,,,,,,,,,,None,,246.2873997095041,None,246.2873997095041,None,2023-02-13-11:27:49.276870,246.29937539994717,246.60386729985476,246.29937539994717,None,None,246.29937539994717,None,247.1039610098116,None,,,,22029,0001,2023_Feb_13_1124,localizer,2021.1.3,59.33284978143076,
block_end,objects,objects075.bmp,,,,,0,151,151,151,,,,,,,,,,,,,,,,,,,,,,,,,,,,,,,,,,,,,,,,,,None,,247.1039610098116,None,247.1039610098116,None,2023-02-13-11:27:50.093344,247.10474599990994,247.4037858992815,247.10474599990994,None,None,247.10474599990994,None,247.9047936101444,None,,,,22029,0001,2023_Feb_13_1124,localizer,2021.1.3,59.33284978143076,
block_start,scrambled,scrambled083.bmp,,,,,0,152,152,152,,,,,,,,,,,,,,,,,,,,,,,,,,,,,,,,,,,,,,,,,,t,1.763782899826765,247.90541990008205,None,247.90541990008205,None,2023-02-13-11:27:52.675354,249.68849419988692,250.0038231993094,249.68849419988692,None,None,249.68849419988692,None,250.50379690928384,None,,,,22029,0001,2023_Feb_13_1124,localizer,2021.1.3,59.33284978143076,
block,scrambled,scrambled031.bmp,,,,,0,153,153,153,,,,,,,,,,,,,,,,,,,,,,,,,,,,,,,,,,,,,,,,,,None,,250.50379690928384,None,250.50379690928384,None,2023-02-13-11:27:53.493057,250.51167539972812,250.82069939933717,250.51167539972812,None,None,250.51167539972812,None,251.32070121010764,None,,,,22029,0001,2023_Feb_13_1124,localizer,2021.1.3,59.33284978143076,
block,scrambled,scrambled084.bmp,,,,,0,154,154,154,,,,,,,,,,,,,,,,,,,,,,,,,,,,,,,,,,,,,,,,,,None,,251.32070121010764,None,251.32070121010764,None,2023-02-13-11:27:54.310162,251.33677279949188,251.63706329930574,251.33677279949188,None,None,251.33677279949188,None,252.13708360986783,None,,,,22029,0001,2023_Feb_13_1124,localizer,2021.1.3,59.33284978143076,
block,scrambled,scrambled053.bmp,,,,,0,155,155,155,,,,,,,,,,,,,,,,,,,,,,,,,,,,,,,,,,,,,,,,,,None,,252.13708360986783,None,252.13708360986783,None,2023-02-13-11:27:55.126525,252.13814609963447,252.4376646997407,252.13814609963447,None,None,252.13814609963447,None,252.93729170998557,None,,,,22029,0001,2023_Feb_13_1124,localizer,2021.1.3,59.33284978143076,
block,scrambled,scrambled034.bmp,,,,,0,156,156,156,,,,,,,,,,,,,,,,,,,,,,,,,,,,,,,,,,,,,,,,,,None,,252.93729170998557,None,252.93729170998557,None,2023-02-13-11:27:55.928885,252.9397398000583,253.25404720008373,252.9397398000583,252.9397398000583,None,252.9397398000583,252.9397398000583,253.75381941003724,None,,,,22029,0001,2023_Feb_13_1124,localizer,2021.1.3,59.33284978143076,
block,scrambled,scrambled082.bmp,,,,,0,157,157,157,,,,,,,,,,,,,,,,,,,,,,,,,,,,,,,,,,,,,,,,,,None,,253.75381941003724,None,253.75381941003724,None,2023-02-13-11:27:56.742913,253.7548690000549,254.05423589982092,253.7548690000549,None,None,253.7548690000549,None,254.55407420946284,None,,,,22029,0001,2023_Feb_13_1124,localizer,2021.1.3,59.33284978143076,
block,scrambled,scrambled043.bmp,,,,,0,158,158,158,,,,,,,,,,,,,,,,,,,,,,,,,,,,,,,,,,,,,,,,,,None,,254.55407420946284,None,254.55407420946284,None,2023-02-13-11:27:57.545532,254.56876030005515,254.87053649965674,254.56876030005515,254.56876030005515,None,254.56876030005515,254.56876030005515,255.3704301093705,None,,,,22029,0001,2023_Feb_13_1124,localizer,2021.1.3,59.33284978143076,
block,scrambled,scrambled062.bmp,,,,,0,159,159,159,,,,,,,,,,,,,,,,,,,,,,,,,,,,,,,,,,,,,,,,,,None,,255.3704301093705,None,255.3704301093705,None,2023-02-13-11:27:58.359682,255.38223079964519,255.68695629946887,255.38223079964519,None,None,255.38223079964519,None,256.18721440928056,None,,,,22029,0001,2023_Feb_13_1124,localizer,2021.1.3,59.33284978143076,
block,scrambled,scrambled079.bmp,,,,,0,160,160,160,,,,,,,,,,,,,,,,,,,,,,,,,,,,,,,,,,,,,,,,,,None,,256.18721440928056,None,256.18721440928056,None,2023-02-13-11:27:59.176468,256.19915599934757,256.5040066000074,256.19915599934757,None,None,256.19915599934757,None,257.0037916100584,None,,,,22029,0001,2023_Feb_13_1124,localizer,2021.1.3,59.33284978143076,
block,scrambled,scrambled023.bmp,,,,,0,161,161,161,,,,,,,,,,,,,,,,,,,,,,,,,,,,,,,,,,,,,,,,,,None,,257.0037916100584,None,257.0037916100584,None,2023-02-13-11:27:59.993047,257.00482299923897,257.30416789930314,257.00482299923897,None,None,257.00482299923897,None,257.8069637094624,None,,,,22029,0001,2023_Feb_13_1124,localizer,2021.1.3,59.33284978143076,
block,scrambled,scrambled019.bmp,,,,,0,162,162,162,,,,,,,,,,,,,,,,,,,,,,,,,,,,,,,,,,,,,,,,,,None,,257.8069637094624,None,257.8069637094624,None,2023-02-13-11:28:00.802167,257.81346219964325,258.12118749972433,257.81346219964325,257.81346219964325,None,257.81346219964325,257.81346219964325,258.62102170968427,None,,,,22029,0001,2023_Feb_13_1124,localizer,2021.1.3,59.33284978143076,
block,scrambled,scrambled065.bmp,,,,,0,163,163,163,,,,,,,,,,,,,,,,,,,,,,,,,,,,,,,,,,,,,,,,,,None,,258.62102170968427,None,258.62102170968427,None,2023-02-13-11:28:01.611443,258.6338613992557,258.9373145997524,258.6338613992557,None,None,258.6338613992557,None,259.4373013100587,None,,,,22029,0001,2023_Feb_13_1124,localizer,2021.1.3,59.33284978143076,
block,scrambled,scrambled038.bmp,,,,,0,164,164,164,,,,,,,,,,,,,,,,,,,,,,,,,,,,,,,,,,,,,,,,,,None,,259.4373013100587,None,259.4373013100587,None,2023-02-13-11:28:02.426553,259.4505563993007,259.7575918994844,259.4505563993007,None,None,259.4505563993007,None,260.2548624093644,None,,,,22029,0001,2023_Feb_13_1124,localizer,2021.1.3,59.33284978143076,
block,scrambled,scrambled016.bmp,,,,,0,165,165,165,,,,,,,,,,,,,,,,,,,,,,,,,,,,,,,,,,,,,,,,,,None,,260.2548624093644,None,260.2548624093644,None,2023-02-13-11:28:03.246168,260.2576011996716,260.5710779996589,260.2576011996716,None,None,260.2576011996716,None,261.070669209864,None,,,,22029,0001,2023_Feb_13_1124,localizer,2021.1.3,59.33284978143076,
block_end,scrambled,scrambled007.bmp,,,,,0,166,166,166,,,,,,,,,,,,,,,,,,,,,,,,,,,,,,,,,,,,,,,,,,None,,261.070669209864,None,261.070669209864,None,2023-02-13-11:28:04.059788,261.07148609962314,261.3871157998219,261.07148609962314,None,None,261.07148609962314,None,261.8714702094905,None,,,,22029,0001,2023_Feb_13_1124,localizer,2021.1.3,59.33284978143076,
block_start,faces,faces015.bmp,,,,,0,167,167,167,,,,,,,,,,,,,,,,,,,,,,,,,,,,,,,,,,,,,,,,,,t,1.7951819999143481,261.8737026993185,None,261.8737026993185,None,2023-02-13-11:28:06.676971,263.6885902993381,264.00389819964767,263.6885902993381,None,None,263.6885902993381,None,264.5046693098731,None,,,,22029,0001,2023_Feb_13_1124,localizer,2021.1.3,59.33284978143076,
block,faces,faces040.bmp,,,,,0,168,168,168,,,,,,,,,,,,,,,,,,,,,,,,,,,,,,,,,,,,,,,,,,None,,264.5046693098731,None,264.5046693098731,None,2023-02-13-11:28:07.494906,264.51813029963523,264.82028219942003,264.51813029963523,None,None,264.51813029963523,None,265.3206588097848,None,,,,22029,0001,2023_Feb_13_1124,localizer,2021.1.3,59.33284978143076,
block,faces,faces062.bmp,,,,,0,169,169,169,,,,,,,,,,,,,,,,,,,,,,,,,,,,,,,,,,,,,,,,,,None,,265.3206588097848,None,265.3206588097848,None,2023-02-13-11:28:08.309905,265.33272759988904,265.6373197995126,265.33272759988904,None,None,265.33272759988904,None,266.13921781005337,None,,,,22029,0001,2023_Feb_13_1124,localizer,2021.1.3,59.33284978143076,
block,faces,faces085.bmp,,,,,0,170,170,170,,,,,,,,,,,,,,,,,,,,,,,,,,,,,,,,,,,,,,,,,,None,,266.13921781005337,None,266.13921781005337,None,2023-02-13-11:28:09.131436,266.1437059994787,266.4545673998073,266.1437059994787,None,None,266.1437059994787,None,266.9549080098979,None,,,,22029,0001,2023_Feb_13_1124,localizer,2021.1.3,59.33284978143076,
block,faces,faces037.bmp,,,,,0,171,171,171,,,,,,,,,,,,,,,,,,,,,,,,,,,,,,,,,,,,,,,,,,None,,266.9549080098979,None,266.9549080098979,None,2023-02-13-11:28:09.946230,266.97017899993807,267.2706816000864,266.97017899993807,None,None,266.97017899993807,None,267.7702737099491,None,,,,22029,0001,2023_Feb_13_1124,localizer,2021.1.3,59.33284978143076,
block,faces,faces070.bmp,,,,,0,172,172,172,,,,,,,,,,,,,,,,,,,,,,,,,,,,,,,,,,,,,,,,,,None,,267.7702737099491,None,267.7702737099491,None,2023-02-13-11:28:10.758399,267.7726489994675,268.08718929998577,267.7726489994675,None,None,267.7726489994675,None,268.5873503101058,None,,,,22029,0001,2023_Feb_13_1124,localizer,2021.1.3,59.33284978143076,
block,faces,faces081.bmp,,,,,0,173,173,173,,,,,,,,,,,,,,,,,,,,,,,,,,,,,,,,,,,,,,,,,,None,,268.5873503101058,None,268.5873503101058,None,2023-02-13-11:28:11.576597,268.60156060010195,268.90410019923,268.60156060010195,None,None,268.60156060010195,None,269.40404161000623,None,,,,22029,0001,2023_Feb_13_1124,localizer,2021.1.3,59.33284978143076,
block,faces,faces023.bmp,,,,,0,174,174,174,,,,,,,,,,,,,,,,,,,,,,,,,,,,,,,,,,,,,,,,,,None,,269.40404161000623,None,269.40404161000623,None,2023-02-13-11:28:12.393494,269.4164054999128,269.72031729947776,269.4164054999128,None,None,269.4164054999128,None,270.22018380956723,None,,,,22029,0001,2023_Feb_13_1124,localizer,2021.1.3,59.33284978143076,
block,faces,faces017.bmp,,,,,0,175,175,175,,,,,,,,,,,,,,,,,,,,,,,,,,,,,,,,,,,,,,,,,,None,,270.22018380956723,None,270.22018380956723,None,2023-02-13-11:28:13.209687,270.22170129977167,270.5370977995917,270.22170129977167,None,None,270.22170129977167,None,271.0207651101984,None,,,,22029,0001,2023_Feb_13_1124,localizer,2021.1.3,59.33284978143076,
block,faces,faces014.bmp,,,,,0,176,176,176,,,,,,,,,,,,,,,,,,,,,,,,,,,,,,,,,,,,,,,,,,None,,271.0207651101984,None,271.0207651101984,None,2023-02-13-11:28:14.012221,271.03579169977456,271.3370867995545,271.03579169977456,271.03579169977456,None,271.03579169977456,271.03579169977456,271.83696940941735,None,,,,22029,0001,2023_Feb_13_1124,localizer,2021.1.3,59.33284978143076,
block,faces,faces030.bmp,,,,,0,177,177,177,,,,,,,,,,,,,,,,,,,,,,,,,,,,,,,,,,,,,,,,,,None,,271.83696940941735,None,271.83696940941735,None,2023-02-13-11:28:14.826450,271.83841079939157,272.15396869927645,271.83841079939157,None,None,271.83841079939157,None,272.6538589096628,None,,,,22029,0001,2023_Feb_13_1124,localizer,2021.1.3,59.33284978143076,
block,faces,faces036.bmp,,,,,0,178,178,178,,,,,,,,,,,,,,,,,,,,,,,,,,,,,,,,,,,,,,,,,,None,,272.6538589096628,None,272.6538589096628,None,2023-02-13-11:28:15.643105,272.66121200006455,272.9711106000468,272.66121200006455,None,None,272.66121200006455,None,273.47170161018147,None,,,,22029,0001,2023_Feb_13_1124,localizer,2021.1.3,59.33284978143076,
block,faces,faces083.bmp,,,,,0,179,179,179,,,,,,,,,,,,,,,,,,,,,,,,,,,,,,,,,,,,,,,,,,None,,273.47170161018147,None,273.47170161018147,None,2023-02-13-11:28:16.462925,273.4820098998025,273.79332759976387,273.4820098998025,None,None,273.4820098998025,None,274.28788600983097,None,,,,22029,0001,2023_Feb_13_1124,localizer,2021.1.3,59.33284978143076,
block,faces,faces005.bmp,,,,,0,180,180,180,,,,,,,,,,,,,,,,,,,,,,,,,,,,,,,,,,,,,,,,,,None,,274.28788600983097,None,274.28788600983097,None,2023-02-13-11:28:17.278239,274.2885793996975,274.58787039946765,274.2885793996975,None,None,274.2885793996975,None,275.08780630985274,None,,,,22029,0001,2023_Feb_13_1124,localizer,2021.1.3,59.33284978143076,
block_end,faces,faces054.bmp,,,,,0,181,181,181,,,,,,,,,,,,,,,,,,,,,,,,,,,,,,,,,,,,,,,,,,None,,275.08780630985274,None,275.08780630985274,None,2023-02-13-11:28:18.080031,275.1029273997992,275.4041472999379,275.1029273997992,275.1029273997992,None,275.1029273997992,275.1029273997992,275.90439440989866,None,,,,22029,0001,2023_Feb_13_1124,localizer,2021.1.3,59.33284978143076,
null_block,null_block,null_block.bmp,,,,,0,182,182,182,,,,,,,,,,,,,,,,,,,,,,,,,,,,,,,,,,,,,,,,,,t,1.7642588997259736,275.9046093998477,None,275.9046093998477,None,2023-02-13-11:28:20.677910,277.6877256094478,None,277.6877256094478,None,None,277.6877256094478,None,277.6934057995677,None,,,,22029,0001,2023_Feb_13_1124,localizer,2021.1.3,59.33284978143076,
block_start,scrambled,scrambled084.bmp,,,,,0,183,183,183,,,,,,,,,,,,,,,,,,,,,,,,,,,,,,,,,,,,,,,,,,t,1.9651767006143928,289.70371989998966,None,289.70371989998966,None,2023-02-13-11:28:34.677919,291.6880740998313,291.98769279941916,291.6880740998313,None,None,291.6880740998313,None,292.48740011015906,None,,,,22029,0001,2023_Feb_13_1124,localizer,2021.1.3,59.33284978143076,
block,scrambled,scrambled054.bmp,,,,,0,184,184,184,,,,,,,,,,,,,,,,,,,,,,,,,,,,,,,,,,,,,,,,,,None,,292.48740011015906,None,292.48740011015906,None,2023-02-13-11:28:35.478625,292.5015762001276,292.80466069933027,292.5015762001276,292.5015762001276,None,292.5015762001276,292.5015762001276,293.30444071004166,None,,,,22029,0001,2023_Feb_13_1124,localizer,2021.1.3,59.33284978143076,
block,scrambled,scrambled069.bmp,,,,,0,185,185,185,,,,,,,,,,,,,,,,,,,,,,,,,,,,,,,,,,,,,,,,,,None,,293.30444071004166,None,293.30444071004166,None,2023-02-13-11:28:36.294674,293.30536209978163,293.6046890998259,293.30536209978163,None,None,293.30536209978163,None,294.1047538093291,None,,,,22029,0001,2023_Feb_13_1124,localizer,2021.1.3,59.33284978143076,
block,scrambled,scrambled038.bmp,,,,,0,186,186,186,,,,,,,,,,,,,,,,,,,,,,,,,,,,,,,,,,,,,,,,,,None,,294.1047538093291,None,294.1047538093291,None,2023-02-13-11:28:37.096968,294.10804269928485,294.4216384999454,294.10804269928485,294.10804269928485,None,294.10804269928485,294.10804269928485,294.921623709891,None,,,,22029,0001,2023_Feb_13_1124,localizer,2021.1.3,59.33284978143076,
block,scrambled,scrambled085.bmp,,,,,0,187,187,187,,,,,,,,,,,,,,,,,,,,,,,,,,,,,,,,,,,,,,,,,,None,,294.921623709891,None,294.921623709891,None,2023-02-13-11:28:37.911844,294.9348369995132,295.2374425996095,294.9348369995132,None,None,294.9348369995132,None,295.73747030952944,None,,,,22029,0001,2023_Feb_13_1124,localizer,2021.1.3,59.33284978143076,
block,scrambled,scrambled080.bmp,,,,,0,188,188,188,,,,,,,,,,,,,,,,,,,,,,,,,,,,,,,,,,,,,,,,,,None,,295.73747030952944,None,295.73747030952944,None,2023-02-13-11:28:38.726706,295.7483088998124,296.0547410994768,295.7483088998124,None,None,295.7483088998124,None,296.55424510994925,None,,,,22029,0001,2023_Feb_13_1124,localizer,2021.1.3,59.33284978143076,
block,scrambled,scrambled041.bmp,,,,,0,189,189,189,,,,,,,,,,,,,,,,,,,,,,,,,,,,,,,,,,,,,,,,,,None,,296.55424510994925,None,296.55424510994925,None,2023-02-13-11:28:39.543475,296.5662249000743,296.87113199941814,296.5662249000743,None,None,296.5662249000743,None,297.3710314094089,None,,,,22029,0001,2023_Feb_13_1124,localizer,2021.1.3,59.33284978143076,
block,scrambled,scrambled030.bmp,,,,,0,190,190,190,,,,,,,,,,,,,,,,,,,,,,,,,,,,,,,,,,,,,,,,,,None,,297.3710314094089,None,297.3710314094089,None,2023-02-13-11:28:40.360254,297.38371319975704,297.68753949925303,297.38371319975704,None,None,297.38371319975704,None,298.1870081101544,None,,,,22029,0001,2023_Feb_13_1124,localizer,2021.1.3,59.33284978143076,
block,scrambled,scrambled057.bmp,,,,,0,191,191,191,,,,,,,,,,,,,,,,,,,,,,,,,,,,,,,,,,,,,,,,,,None,,298.1870081101544,None,298.1870081101544,None,2023-02-13-11:28:41.176241,298.1976391999051,298.50473769940436,298.1976391999051,None,None,298.1976391999051,None,299.0047585100867,None,,,,22029,0001,2023_Feb_13_1124,localizer,2021.1.3,59.33284978143076,
block,scrambled,scrambled035.bmp,,,,,0,192,192,192,,,,,,,,,,,,,,,,,,,,,,,,,,,,,,,,,,,,,,,,,,None,,299.0047585100867,None,299.0047585100867,None,2023-02-13-11:28:41.994977,299.0052568996325,299.30451679974794,299.0052568996325,None,None,299.0052568996325,None,299.82041010940446,None,,,,22029,0001,2023_Feb_13_1124,localizer,2021.1.3,59.33284978143076,
block,scrambled,scrambled052.bmp,,,,,0,193,193,193,,,,,,,,,,,,,,,,,,,,,,,,,,,,,,,,,,,,,,,,,,None,,299.82041010940446,None,299.82041010940446,None,2023-02-13-11:28:42.808650,299.8302723998204,300.13712679967284,299.8302723998204,None,None,299.8302723998204,None,300.63727430934085,None,,,,22029,0001,2023_Feb_13_1124,localizer,2021.1.3,59.33284978143076,
block,scrambled,scrambled075.bmp,,,,,0,194,194,194,,,,,,,,,,,,,,,,,,,,,,,,,,,,,,,,,,,,,,,,,,None,,300.63727430934085,None,300.63727430934085,None,2023-02-13-11:28:43.626502,300.64967929944396,300.95461829937994,300.64967929944396,None,None,300.64967929944396,None,301.45402391003444,None,,,,22029,0001,2023_Feb_13_1124,localizer,2021.1.3,59.33284978143076,
block,scrambled,scrambled070.bmp,,,,,0,195,195,195,,,,,,,,,,,,,,,,,,,,,,,,,,,,,,,,,,,,,,,,,,None,,301.45402391003444,None,301.45402391003444,None,2023-02-13-11:28:44.443253,301.4650342995301,301.77825360000134,301.4650342995301,None,None,301.4650342995301,None,302.27192990975453,None,,,,22029,0001,2023_Feb_13_1124,localizer,2021.1.3,59.33284978143076,
block,scrambled,scrambled042.bmp,,,,,0,196,196,196,,,,,,,,,,,,,,,,,,,,,,,,,,,,,,,,,,,,,,,,,,None,,302.27192990975453,None,302.27192990975453,None,2023-02-13-11:28:45.262138,302.2864069994539,302.58843069989234,302.2864069994539,None,None,302.2864069994539,None,303.0886030097492,None,,,,22029,0001,2023_Feb_13_1124,localizer,2021.1.3,59.33284978143076,
block_end,scrambled,scrambled042.bmp,,,,,0,197,197,197,,,,,,,,,,,,,,,,,,,,,,,,,,,,,,,,,,,,,,,,,,None,,303.0886030097492,None,303.0886030097492,None,2023-02-13-11:28:46.078812,303.0909519996494,303.411582400091,303.0909519996494,None,y,303.0909519996494,None,303.90417130971326,None,0.46484250016510487,,,22029,0001,2023_Feb_13_1124,localizer,2021.1.3,59.33284978143076,
block_start,objects,objects025.bmp,,,,,0,198,198,198,,,,,,,,,,,,,,,,,,,,,,,,,,,,,,,,,,,,,,,,,,t,1.764626200310886,303.9043445000425,None,303.9043445000425,None,2023-02-13-11:28:48.675885,305.6990427998826,306.0049714995548,305.6990427998826,None,None,305.6990427998826,None,306.5039986095391,None,,,,22029,0001,2023_Feb_13_1124,localizer,2021.1.3,59.33284978143076,
block,objects,objects040.bmp,,,,,0,199,199,199,,,,,,,,,,,,,,,,,,,,,,,,,,,,,,,,,,,,,,,,,,None,,306.5039986095391,None,306.5039986095391,None,2023-02-13-11:28:49.493229,306.51485839951783,306.82076779939234,306.51485839951783,None,None,306.51485839951783,None,307.3207746095024,None,,,,22029,0001,2023_Feb_13_1124,localizer,2021.1.3,59.33284978143076,
block,objects,objects013.bmp,,,,,0,200,200,200,,,,,,,,,,,,,,,,,,,,,,,,,,,,,,,,,,,,,,,,,,None,,307.3207746095024,None,307.3207746095024,None,2023-02-13-11:28:50.310200,307.3325004996732,307.63771259970963,307.3325004996732,None,None,307.3325004996732,None,308.1385368092917,None,,,,22029,0001,2023_Feb_13_1124,localizer,2021.1.3,59.33284978143076,
block,objects,objects063.bmp,,,,,0,201,201,201,,,,,,,,,,,,,,,,,,,,,,,,,,,,,,,,,,,,,,,,,,None,,308.1385368092917,None,308.1385368092917,None,2023-02-13-11:28:51.129888,308.1410015998408,308.45451469998807,308.1410015998408,None,None,308.1410015998408,None,308.9541395095177,None,,,,22029,0001,2023_Feb_13_1124,localizer,2021.1.3,59.33284978143076,
block,objects,objects042.bmp,,,,,0,202,202,202,,,,,,,,,,,,,,,,,,,,,,,,,,,,,,,,,,,,,,,,,,None,,308.9541395095177,None,308.9541395095177,None,2023-02-13-11:28:51.943387,308.96619619987905,309.2709069000557,308.96619619987905,None,None,308.96619619987905,None,309.7707614100538,None,,,,22029,0001,2023_Feb_13_1124,localizer,2021.1.3,59.33284978143076,
block,objects,objects031.bmp,,,,,0,203,203,203,,,,,,,,,,,,,,,,,,,,,,,,,,,,,,,,,,,,,,,,,,None,,309.7707614100538,None,309.7707614100538,None,2023-02-13-11:28:52.759983,309.7812006995082,310.08765359967947,309.7812006995082,None,None,309.7812006995082,None,310.58804290955885,None,,,,22029,0001,2023_Feb_13_1124,localizer,2021.1.3,59.33284978143076,
block,objects,objects073.bmp,,,,,0,204,204,204,,,,,,,,,,,,,,,,,,,,,,,,,,,,,,,,,,,,,,,,,,None,,310.58804290955885,None,310.58804290955885,None,2023-02-13-11:28:53.578442,310.6014647996053,310.90438529942185,310.6014647996053,None,None,310.6014647996053,None,311.4042834092863,None,,,,22029,0001,2023_Feb_13_1124,localizer,2021.1.3,59.33284978143076,
block,objects,objects061.bmp,,,,,0,205,205,205,,,,,,,,,,,,,,,,,,,,,,,,,,,,,,,,,,,,,,,,,,None,,311.4042834092863,None,311.4042834092863,None,2023-02-13-11:28:54.393724,311.41731049958616,311.72090609930456,311.41731049958616,None,None,311.41731049958616,None,312.22096440969034,None,,,,22029,0001,2023_Feb_13_1124,localizer,2021.1.3,59.33284978143076,
block,objects,objects018.bmp,,,,,0,206,206,206,,,,,,,,,,,,,,,,,,,,,,,,,,,,,,,,,,,,,,,,,,None,,312.22096440969034,None,312.22096440969034,None,2023-02-13-11:28:55.210208,312.2329714000225,312.5381054999307,312.2329714000225,None,None,312.2329714000225,None,313.0375655100681,None,,,,22029,0001,2023_Feb_13_1124,localizer,2021.1.3,59.33284978143076,
block,objects,objects088.bmp,,,,,0,207,207,207,,,,,,,,,,,,,,,,,,,,,,,,,,,,,,,,,,,,,,,,,,None,,313.0375655100681,None,313.0375655100681,None,2023-02-13-11:28:56.026980,313.0501598995179,313.35412969999015,313.0501598995179,None,None,313.0501598995179,None,313.85426630945875,None,,,,22029,0001,2023_Feb_13_1124,localizer,2021.1.3,59.33284978143076,
block,objects,objects076.bmp,,,,,0,208,208,208,,,,,,,,,,,,,,,,,,,,,,,,,,,,,,,,,,,,,,,,,,None,,313.85426630945875,None,313.85426630945875,None,2023-02-13-11:28:56.843486,313.8551938999444,314.1544499993324,313.8551938999444,None,None,313.8551938999444,None,314.65501411007716,None,,,,22029,0001,2023_Feb_13_1124,localizer,2021.1.3,59.33284978143076,
block,objects,objects004.bmp,,,,,0,209,209,209,,,,,,,,,,,,,,,,,,,,,,,,,,,,,,,,,,,,,,,,,,None,,314.65501411007716,None,314.65501411007716,None,2023-02-13-11:28:57.647213,314.67152249999344,314.97072339989245,314.67152249999344,314.67152249999344,None,314.67152249999344,314.67152249999344,315.47090970939024,None,,,,22029,0001,2023_Feb_13_1124,localizer,2021.1.3,59.33284978143076,
block,objects,objects002.bmp,,,,,0,210,210,210,,,,,,,,,,,,,,,,,,,,,,,,,,,,,,,,,,,,,,,,,,None,,315.47090970939024,None,315.47090970939024,None,2023-02-13-11:28:58.460177,315.4823885001242,315.7942608995363,315.4823885001242,None,None,315.4823885001242,None,316.2880202096887,None,,,,22029,0001,2023_Feb_13_1124,localizer,2021.1.3,59.33284978143076,
block,objects,objects074.bmp,,,,,0,211,211,211,,,,,,,,,,,,,,,,,,,,,,,,,,,,,,,,,,,,,,,,,,None,,316.2880202096887,None,316.2880202096887,None,2023-02-13-11:28:59.277183,316.29669220000505,316.60411959979683,316.29669220000505,None,None,316.29669220000505,None,317.1037409094162,None,,,,22029,0001,2023_Feb_13_1124,localizer,2021.1.3,59.33284978143076,
block_end,objects,objects066.bmp,,,,,0,212,212,212,,,,,,,,,,,,,,,,,,,,,,,,,,,,,,,,,,,,,,,,,,None,,317.1037409094162,None,317.1037409094162,None,2023-02-13-11:29:00.092964,317.1052513998002,317.4210134996101,317.1052513998002,None,None,317.1052513998002,None,317.90451050950213,None,,,,22029,0001,2023_Feb_13_1124,localizer,2021.1.3,59.33284978143076,
block_start,scenes,scenes003.bmp,,,,,0,213,213,213,,,,,,,,,,,,,,,,,,,,,,,,,,,,,,,,,,,,,,,,,,t,1.7633902998641133,317.90563559997827,None,317.90563559997827,None,2023-02-13-11:29:02.678561,319.7052866993472,320.0049581993371,319.7052866993472,None,None,319.7052866993472,None,320.5065046095289,None,,,,22029,0001,2023_Feb_13_1124,localizer,2021.1.3,59.33284978143076,
block,scenes,scenes067.bmp,,,,,0,214,214,214,,,,,,,,,,,,,,,,,,,,,,,,,,,,,,,,,,,,,,,,,,None,,320.5065046095289,None,320.5065046095289,None,2023-02-13-11:29:03.498441,320.5108420001343,320.8216836992651,320.5108420001343,None,None,320.5108420001343,None,321.321418510098,None,,,,22029,0001,2023_Feb_13_1124,localizer,2021.1.3,59.33284978143076,
block,scenes,scenes038.bmp,,,,,0,215,215,215,,,,,,,,,,,,,,,,,,,,,,,,,,,,,,,,,,,,,,,,,,None,,321.321418510098,None,321.321418510098,None,2023-02-13-11:29:04.311786,321.3313416996971,321.63766079954803,321.3313416996971,None,None,321.3313416996971,None,322.13778860988094,None,,,,22029,0001,2023_Feb_13_1124,localizer,2021.1.3,59.33284978143076,
block,scenes,scenes065.bmp,,,,,0,216,216,216,,,,,,,,,,,,,,,,,,,,,,,,,,,,,,,,,,,,,,,,,,None,,322.13778860988094,None,322.13778860988094,None,2023-02-13-11:29:05.127194,322.15076989959925,322.4543121000752,322.15076989959925,None,None,322.15076989959925,None,322.9544996100478,None,,,,22029,0001,2023_Feb_13_1124,localizer,2021.1.3,59.33284978143076,
block,scenes,scenes012.bmp,,,,,0,217,217,217,,,,,,,,,,,,,,,,,,,,,,,,,,,,,,,,,,,,,,,,,,None,,322.9544996100478,None,322.9544996100478,None,2023-02-13-11:29:05.943898,322.95538209937513,323.254600699991,322.95538209937513,None,None,322.95538209937513,None,323.77049201009794,None,,,,22029,0001,2023_Feb_13_1124,localizer,2021.1.3,59.33284978143076,
block,scenes,scenes004.bmp,,,,,0,218,218,218,,,,,,,,,,,,,,,,,,,,,,,,,,,,,,,,,,,,,,,,,,None,,323.77049201009794,None,323.77049201009794,None,2023-02-13-11:29:06.759659,323.77213319949806,324.0712528992444,323.77213319949806,None,None,323.77213319949806,None,324.57144711008294,None,,,,22029,0001,2023_Feb_13_1124,localizer,2021.1.3,59.33284978143076,
block,scenes,scenes015.bmp,,,,,0,219,219,219,,,,,,,,,,,,,,,,,,,,,,,,,,,,,,,,,,,,,,,,,,None,,324.57144711008294,None,324.57144711008294,None,2023-02-13-11:29:07.563835,324.5886228000745,324.9042491996661,324.5886228000745,324.5886228000745,None,324.5886228000745,324.5886228000745,325.3885390100069,None,,,,22029,0001,2023_Feb_13_1124,localizer,2021.1.3,59.33284978143076,
block,scenes,scenes081.bmp,,,,,0,220,220,220,,,,,,,,,,,,,,,,,,,,,,,,,,,,,,,,,,,,,,,,,,None,,325.3885390100069,None,325.3885390100069,None,2023-02-13-11:29:08.379430,325.39158059936017,325.7051178999245,325.39158059936017,None,None,325.39158059936017,None,326.20529310991986,None,,,,22029,0001,2023_Feb_13_1124,localizer,2021.1.3,59.33284978143076,
block,scenes,scenes017.bmp,,,,,0,221,221,221,,,,,,,,,,,,,,,,,,,,,,,,,,,,,,,,,,,,,,,,,,None,,326.20529310991986,None,326.20529310991986,None,2023-02-13-11:29:09.196189,326.2202314995229,326.5209709992632,326.2202314995229,None,None,326.2202314995229,None,327.02113730954005,None,,,,22029,0001,2023_Feb_13_1124,localizer,2021.1.3,59.33284978143076,
block,scenes,scenes028.bmp,,,,,0,222,222,222,,,,,,,,,,,,,,,,,,,,,,,,,,,,,,,,,,,,,,,,,,None,,327.02113730954005,None,327.02113730954005,None,2023-02-13-11:29:10.010348,327.0219754995778,327.33757369965315,327.0219754995778,None,None,327.0219754995778,None,327.8625046197325,None,,,,22029,0001,2023_Feb_13_1124,localizer,2021.1.3,59.33284978143076,
block,scenes,scenes007.bmp,,,,,0,223,223,223,,,,,,,,,,,,,,,,,,,,,,,,,,,,,,,,,,,,,,,,,,None,,327.8790146297775,None,327.8790146297775,None,2023-02-13-11:29:10.948865,327.9594753999263,328.27301019988954,327.9594753999263,None,None,327.9594753999263,None,328.73717060992493,None,,,,22029,0001,2023_Feb_13_1124,localizer,2021.1.3,59.33284978143076,
block,scenes,scenes069.bmp,,,,,0,224,224,224,,,,,,,,,,,,,,,,,,,,,,,,,,,,,,,,,,,,,,,,,,None,,328.73717060992493,None,328.73717060992493,None,2023-02-13-11:29:11.725067,328.7402670998126,329.0389330992475,328.7402670998126,None,None,328.7402670998126,None,329.5554187095724,None,,,,22029,0001,2023_Feb_13_1124,localizer,2021.1.3,59.33284978143076,
block,scenes,scenes050.bmp,,,,,0,225,225,225,,,,,,,,,,,,,,,,,,,,,,,,,,,,,,,,,,,,,,,,,,None,,329.5554187095724,None,329.5554187095724,None,2023-02-13-11:29:12.545745,329.56991709955037,329.8709977995604,329.56991709955037,None,None,329.56991709955037,None,330.3711556096561,None,,,,22029,0001,2023_Feb_13_1124,localizer,2021.1.3,59.33284978143076,
block,scenes,scenes035.bmp,,,,,0,226,226,226,,,,,,,,,,,,,,,,,,,,,,,,,,,,,,,,,,,,,,,,,,None,,330.3711556096561,None,330.3711556096561,None,2023-02-13-11:29:13.361012,330.37199189979583,330.68771579954773,330.37199189979583,None,None,330.37199189979583,None,331.18732300987466,None,,,,22029,0001,2023_Feb_13_1124,localizer,2021.1.3,59.33284978143076,
block_end,scenes,scenes076.bmp,,,,,0,227,227,227,,,,,,,,,,,,,,,,,,,,,,,,,,,,,,,,,,,,,,,,,,None,,331.18732300987466,None,331.18732300987466,None,2023-02-13-11:29:14.175541,331.19786679930985,331.5047833994031,331.19786679930985,None,None,331.19786679930985,None,332.00443260958417,None,,,,22029,0001,2023_Feb_13_1124,localizer,2021.1.3,59.33284978143076,
block_start,faces,faces021.bmp,,,,,0,228,228,228,,,,,,,,,,,,,,,,,,,,,,,,,,,,,,,,,,,,,,,,,,t,1.664465700276196,332.00444189924747,None,332.00444189924747,None,2023-02-13-11:29:16.677060,333.7020314000547,334.0045456001535,333.7020314000547,None,None,333.7020314000547,None,334.50441991006954,None,,,,22029,0001,2023_Feb_13_1124,localizer,2021.1.3,59.33284978143076,
block,faces,faces081.bmp,,,,,0,229,229,229,,,,,,,,,,,,,,,,,,,,,,,,,,,,,,,,,,,,,,,,,,None,,334.50441991006954,None,334.50441991006954,None,2023-02-13-11:29:17.493825,334.50517889950424,334.80533210001886,334.50517889950424,None,None,334.50517889950424,None,335.3052390099503,None,,,,22029,0001,2023_Feb_13_1124,localizer,2021.1.3,59.33284978143076,
block,faces,faces019.bmp,,,,,0,230,230,230,,,,,,,,,,,,,,,,,,,,,,,,,,,,,,,,,,,,,,,,,,None,,335.3052390099503,None,335.3052390099503,None,2023-02-13-11:29:18.297909,335.32854229956865,335.63760279957205,335.32854229956865,335.32854229956865,None,335.32854229956865,335.32854229956865,336.12166520981117,None,,,,22029,0001,2023_Feb_13_1124,localizer,2021.1.3,59.33284978143076,
block,faces,faces039.bmp,,,,,0,231,231,231,,,,,,,,,,,,,,,,,,,,,,,,,,,,,,,,,,,,,,,,,,None,,336.12166520981117,None,336.12166520981117,None,2023-02-13-11:29:19.112070,336.1373726995662,336.437678899616,336.1373726995662,None,None,336.1373726995662,None,336.93791770962997,None,,,,22029,0001,2023_Feb_13_1124,localizer,2021.1.3,59.33284978143076,
block,faces,faces041.bmp,,,,,0,232,232,232,,,,,,,,,,,,,,,,,,,,,,,,,,,,,,,,,,,,,,,,,,None,,336.93791770962997,None,336.93791770962997,None,2023-02-13-11:29:19.927121,336.93889519944787,337.2540655992925,336.93889519944787,None,None,336.93889519944787,None,337.7545108099468,None,,,,22029,0001,2023_Feb_13_1124,localizer,2021.1.3,59.33284978143076,
block,faces,faces012.bmp,,,,,0,233,233,233,,,,,,,,,,,,,,,,,,,,,,,,,,,,,,,,,,,,,,,,,,None,,337.7545108099468,None,337.7545108099468,None,2023-02-13-11:29:20.743915,337.768311499618,338.0715155992657,337.768311499618,None,None,337.768311499618,None,338.57157461000605,None,,,,22029,0001,2023_Feb_13_1124,localizer,2021.1.3,59.33284978143076,
block,faces,faces051.bmp,,,,,0,234,234,234,,,,,,,,,,,,,,,,,,,,,,,,,,,,,,,,,,,,,,,,,,None,,338.57157461000605,None,338.57157461000605,None,2023-02-13-11:29:21.561771,338.5862751994282,338.8880150001496,338.5862751994282,None,None,338.5862751994282,None,339.3879498097114,None,,,,22029,0001,2023_Feb_13_1124,localizer,2021.1.3,59.33284978143076,
block,faces,faces004.bmp,,,,,0,235,235,235,,,,,,,,,,,,,,,,,,,,,,,,,,,,,,,,,,,,,,,,,,None,,339.3879498097114,None,339.3879498097114,None,2023-02-13-11:29:22.377153,339.3889047000557,339.7045941995457,339.3889047000557,None,None,339.3889047000557,None,340.20453630974515,None,,,,22029,0001,2023_Feb_13_1124,localizer,2021.1.3,59.33284978143076,
block,faces,faces085.bmp,,,,,0,236,236,236,,,,,,,,,,,,,,,,,,,,,,,,,,,,,,,,,,,,,,,,,,None,,340.20453630974515,None,340.20453630974515,None,2023-02-13-11:29:23.193959,340.2054880000651,340.5211681993678,340.2054880000651,None,None,340.2054880000651,None,341.00507470993324,None,,,,22029,0001,2023_Feb_13_1124,localizer,2021.1.3,59.33284978143076,
block,faces,faces066.bmp,,,,,0,237,237,237,,,,,,,,,,,,,,,,,,,,,,,,,,,,,,,,,,,,,,,,,,None,,341.00507470993324,None,341.00507470993324,None,2023-02-13-11:29:23.998256,341.00939270015806,341.3221645997837,341.00939270015806,341.00939270015806,None,341.00939270015806,341.00939270015806,341.8208736100234,None,,,,22029,0001,2023_Feb_13_1124,localizer,2021.1.3,59.33284978143076,
block,faces,faces077.bmp,,,,,0,238,238,238,,,,,,,,,,,,,,,,,,,,,,,,,,,,,,,,,,,,,,,,,,None,,341.8208736100234,None,341.8208736100234,None,2023-02-13-11:29:24.809087,341.83333359938115,342.1379017001018,341.83333359938115,None,None,341.83333359938115,None,342.6377258098684,None,,,,22029,0001,2023_Feb_13_1124,localizer,2021.1.3,59.33284978143076,
block,faces,faces001.bmp,,,,,0,239,239,239,,,,,,,,,,,,,,,,,,,,,,,,,,,,,,,,,,,,,,,,,,None,,342.6377258098684,None,342.6377258098684,None,2023-02-13-11:29:25.626928,342.65166619978845,342.95432499982417,342.65166619978845,None,None,342.65166619978845,None,343.4547396100126,None,,,,22029,0001,2023_Feb_13_1124,localizer,2021.1.3,59.33284978143076,
block,faces,faces060.bmp,,,,,0,240,240,240,,,,,,,,,,,,,,,,,,,,,,,,,,,,,,,,,,,,,,,,,,None,,343.4547396100126,None,343.4547396100126,None,2023-02-13-11:29:26.444129,343.46671649999917,343.7747236993164,343.46671649999917,None,None,343.46671649999917,None,344.2716802100651,None,,,,22029,0001,2023_Feb_13_1124,localizer,2021.1.3,59.33284978143076,
block,faces,faces014.bmp,,,,,0,241,241,241,,,,,,,,,,,,,,,,,,,,,,,,,,,,,,,,,,,,,,,,,,None,,344.2716802100651,None,344.2716802100651,None,2023-02-13-11:29:27.261869,344.2726517999545,344.5717014996335,344.2726517999545,None,None,344.2726517999545,None,345.0720357096754,None,,,,22029,0001,2023_Feb_13_1124,localizer,2021.1.3,59.33284978143076,
block_end,faces,faces020.bmp,,,,,0,242,242,242,,,,,,,,,,,,,,,,,,,,,,,,,,,,,,,,,,,,,,,,,,None,,345.0720357096754,None,345.0720357096754,None,2023-02-13-11:29:28.064396,345.0889595998451,345.4044117992744,345.0889595998451,345.0889595998451,None,345.0889595998451,345.0889595998451,345.89429280934854,None,,,,22029,0001,2023_Feb_13_1124,localizer,2021.1.3,59.33284978143076,
null_block,null_block,null_block.bmp,,,,,0,243,243,243,,,,,,,,,,,,,,,,,,,,,,,,,,,,,,,,,,,,,,,,,,t,1.777704999782145,345.89116320014,None,345.89116320014,None,2023-02-13-11:29:30.678306,347.6881180101074,None,347.6881180101074,None,None,347.6881180101074,None,347.69401769991964,None,,,,22029,0001,2023_Feb_13_1124,localizer,2021.1.3,59.33284978143076,
,,,,,,,,,,,,,,,,,,,,,,,,,,,,,,,,,,,,,,,,,,,,,,,,,,,,,,,,,,,,,,,,,,,,,359.7105738995597,None,,,,,,,
