block_type,condition,img_name,Button.thisRepN,Button.thisTrialN,Button.thisN,Button.thisIndex,trials.thisRepN,trials.thisTrialN,trials.thisN,trials.thisIndex,Ready_experimenter_text.started,Ready_experimenter_text.stopped,Ready_experimenter_resp.keys,Ready_experimenter_resp.rt,Ready_experimenter_resp.started,Ready_experimenter_resp.stopped,Alignment_background.started,Alignment_background.stopped,Alignment_image.started,Alignment_image.stopped,Alignment_resp.keys,Alignment_resp.rt,Alignment_resp.started,Alignment_resp.stopped,Button_text.started,Button_text.stopped,Index_text.started,Index_text.stopped,Index_resp.keys,Index_resp.rt,Index_resp.started,Index_resp.stopped,Middle_text.started,Middle_text.stopped,Middle_resp.keys,Middle_resp.rt,Middle_resp.started,Middle_resp.stopped,Repeat_text.started,Repeat_text.stopped,Repeat_resp.keys,Repeat_resp.corr,Repeat_resp.rt,Repeat_resp.started,Repeat_resp.stopped,instruction_text.started,instruction_text.stopped,key_resp.keys,key_resp.rt,key_resp.started,key_resp.stopped,scanner_t.keys,scanner_t.rt,scanner_t.started,scanner_t.stopped,fixation_wait_for_t.started,fixation_wait_for_t.stopped,real_timestamp_trial_start,image.started,image.stopped,fixation.started,fixation.stopped,repeat_response.keys,repeat_response.started,repeat_response.stopped,fixation_null.started,fixation_null.stopped,repeat_response.rt,end_text.started,end_text.stopped,participant,run,date,expName,psychopyVersion,frameRate,
,,,,,,,,,,,9.67063260031864,None,return,133.58141139987856,9.67063260031864,None,,,,,,,,,,,,,,,,,,,,,,,,,,,,,,,,,,,,,,,,,,,,,,,,,,,,,,,22017,0001,2022_Nov_14_1225,localizer,2021.1.3,59.93403666909781,
,,,,,,,,,,,,,,,,,143.29907459998503,None,143.29907459998503,None,return,1.2823387002572417,143.29907459998503,None,,,,,,,,,,,,,,,,,,,,,,,,,,,,,,,,,,,,,,,,,,,,,,,22017,0001,2022_Nov_14_1225,localizer,2021.1.3,59.93403666909781,
,,,0,0,0,0,,,,,,,,,,,,,,,,,,,144.60587069997564,None,145.62120559997857,None,y,5.96339250029996,145.62120559997857,None,151.6086711003445,None,b,3.746192699763924,151.6086711003445,None,155.37198420008644,None,n,0,1.5654667997732759,155.37198420008644,None,,,,,,,,,,,,,,,,,,,,,,,,,,22017,0001,2022_Nov_14_1225,localizer,2021.1.3,59.93403666909781,
,,,,,,,,,,,,,,,,,,,,,,,,,,,,,,,,,,,,,,,,,,,,,,156.95518800010905,None,y,55.179575900081545,156.95518800010905,None,,,,,,,,,,,,,,,,,,,,22017,0001,2022_Nov_14_1225,localizer,2021.1.3,59.93403666909781,
block_start,objects,objects031.bmp,,,,,0,0,0,0,,,,,,,,,,,,,,,,,,,,,,,,,,,,,,,,,,,,,,,,,,t,17.27669439977035,212.22912950022146,None,212.22912950022146,None,2022-11-14-12:28:49.338395,229.53367110015824,229.83870320022106,229.53367110015824,None,None,229.53367110015824,None,230.3387595301494,None,,,,22017,0001,2022_Nov_14_1225,localizer,2021.1.3,59.93403666909781,
block,objects,objects072.bmp,,,,,0,1,1,1,,,,,,,,,,,,,,,,,,,,,,,,,,,,,,,,,,,,,,,,,,None,,230.3387595301494,None,230.3387595301494,None,2022-11-14-12:28:50.154837,230.34810200007632,230.65544490003958,230.34810200007632,None,None,230.34810200007632,None,231.15576192997395,None,,,,22017,0001,2022_Nov_14_1225,localizer,2021.1.3,59.93403666909781,
block,objects,objects015.bmp,,,,,0,2,2,2,,,,,,,,,,,,,,,,,,,,,,,,,,,,,,,,,,,,,,,,,,None,,231.15576192997395,None,231.15576192997395,None,2022-11-14-12:28:50.970926,231.1664379001595,231.47174790035933,231.1664379001595,None,None,231.1664379001595,None,231.97334963018073,None,,,,22017,0001,2022_Nov_14_1225,localizer,2021.1.3,59.93403666909781,
block,objects,objects043.bmp,,,,,0,3,3,3,,,,,,,,,,,,,,,,,,,,,,,,,,,,,,,,,,,,,,,,,,None,,231.97334963018073,None,231.97334963018073,None,2022-11-14-12:28:51.790452,231.99207299994305,232.30647810036317,231.99207299994305,None,None,231.99207299994305,None,232.78942253002896,None,,,,22017,0001,2022_Nov_14_1225,localizer,2021.1.3,59.93403666909781,
block,objects,objects011.bmp,,,,,0,4,4,4,,,,,,,,,,,,,,,,,,,,,,,,,,,,,,,,,,,,,,,,,,None,,232.78942253002896,None,232.78942253002896,None,2022-11-14-12:28:52.605551,232.80516079999506,233.10587500035763,232.80516079999506,None,None,232.80516079999506,None,233.60532422997056,None,,,,22017,0001,2022_Nov_14_1225,localizer,2021.1.3,59.93403666909781,
block,objects,objects027.bmp,,,,,0,5,5,5,,,,,,,,,,,,,,,,,,,,,,,,,,,,,,,,,,,,,,,,,,None,,233.60532422997056,None,233.60532422997056,None,2022-11-14-12:28:53.420489,233.6159930001013,233.92183620017022,233.6159930001013,None,None,233.6159930001013,None,234.42218723036348,None,,,,22017,0001,2022_Nov_14_1225,localizer,2021.1.3,59.93403666909781,
block,objects,objects045.bmp,,,,,0,6,6,6,,,,,,,,,,,,,,,,,,,,,,,,,,,,,,,,,,,,,,,,,,None,,234.42218723036348,None,234.42218723036348,None,2022-11-14-12:28:54.237370,234.4330217000097,234.7378870001994,234.4330217000097,None,None,234.4330217000097,None,235.23898752992972,None,,,,22017,0001,2022_Nov_14_1225,localizer,2021.1.3,59.93403666909781,
block,objects,objects084.bmp,,,,,0,7,7,7,,,,,,,,,,,,,,,,,,,,,,,,,,,,,,,,,,,,,,,,,,None,,235.23898752992972,None,235.23898752992972,None,2022-11-14-12:28:55.054396,235.2508080000989,235.5553264003247,235.2508080000989,None,None,235.2508080000989,None,236.05580673022195,None,,,,22017,0001,2022_Nov_14_1225,localizer,2021.1.3,59.93403666909781,
block,objects,objects073.bmp,,,,,0,8,8,8,,,,,,,,,,,,,,,,,,,,,,,,,,,,,,,,,,,,,,,,,,None,,236.05580673022195,None,236.05580673022195,None,2022-11-14-12:28:55.871230,236.06737900013104,236.37190630007535,236.06737900013104,None,None,236.06737900013104,None,236.87213453026487,None,,,,22017,0001,2022_Nov_14_1225,localizer,2021.1.3,59.93403666909781,
block,objects,objects066.bmp,,,,,0,9,9,9,,,,,,,,,,,,,,,,,,,,,,,,,,,,,,,,,,,,,,,,,,None,,236.87213453026487,None,236.87213453026487,None,2022-11-14-12:28:56.687381,236.88267330033705,237.18865310028195,236.88267330033705,None,None,236.88267330033705,None,237.6890325302258,None,,,,22017,0001,2022_Nov_14_1225,localizer,2021.1.3,59.93403666909781,
block,objects,objects030.bmp,,,,,0,10,10,10,,,,,,,,,,,,,,,,,,,,,,,,,,,,,,,,,,,,,,,,,,None,,237.6890325302258,None,237.6890325302258,None,2022-11-14-12:28:57.503322,237.69777030032128,238.00507110031322,237.69777030032128,None,None,237.69777030032128,None,238.50544333020224,None,,,,22017,0001,2022_Nov_14_1225,localizer,2021.1.3,59.93403666909781,
block,objects,objects071.bmp,,,,,0,11,11,11,,,,,,,,,,,,,,,,,,,,,,,,,,,,,,,,,,,,,,,,,,None,,238.50544333020224,None,238.50544333020224,None,2022-11-14-12:28:58.320750,238.51598270004615,238.82208860013634,238.51598270004615,None,None,238.51598270004615,None,239.32224083021282,None,,,,22017,0001,2022_Nov_14_1225,localizer,2021.1.3,59.93403666909781,
block,objects,objects001.bmp,,,,,0,12,12,12,,,,,,,,,,,,,,,,,,,,,,,,,,,,,,,,,,,,,,,,,,None,,239.32224083021282,None,239.32224083021282,None,2022-11-14-12:28:59.137546,239.3331348001957,239.63861540006474,239.3331348001957,None,None,239.3331348001957,None,240.13911433033644,None,,,,22017,0001,2022_Nov_14_1225,localizer,2021.1.3,59.93403666909781,
block,objects,objects008.bmp,,,,,0,13,13,13,,,,,,,,,,,,,,,,,,,,,,,,,,,,,,,,,,,,,,,,,,None,,240.13911433033644,None,240.13911433033644,None,2022-11-14-12:28:59.954613,240.1507113999687,240.4553967001848,240.1507113999687,None,None,240.1507113999687,None,240.9560085300356,None,,,,22017,0001,2022_Nov_14_1225,localizer,2021.1.3,59.93403666909781,
block_end,objects,objects061.bmp,,,,,0,14,14,14,,,,,,,,,,,,,,,,,,,,,,,,,,,,,,,,,,,,,,,,,,None,,240.9560085300356,None,240.9560085300356,None,2022-11-14-12:29:00.772343,240.97087100008503,241.27278889995068,240.97087100008503,None,None,240.97087100008503,None,241.77272593025117,None,,,,22017,0001,2022_Nov_14_1225,localizer,2021.1.3,59.93403666909781,
null_block,null_block,null_block.bmp,,,,,0,15,15,15,,,,,,,,,,,,,,,,,,,,,,,,,,,,,,,,,,,,,,,,,,t,1.7331019998528063,241.77266430016607,None,241.77266430016607,None,2022-11-14-12:29:03.337799,243.53904876029117,None,243.53904876029117,None,None,243.53904876029117,None,243.5368641000241,None,,,,22017,0001,2022_Nov_14_1225,localizer,2021.1.3,59.93403666909781,
block_start,scrambled,scrambled086.bmp,,,,,0,16,16,16,,,,,,,,,,,,,,,,,,,,,,,,,,,,,,,,,,,,,,,,,,t,1.964986199978739,255.54066140018404,None,255.54066140018404,None,2022-11-14-12:29:17.342525,257.53891619993374,257.8385282000527,257.53891619993374,None,None,257.53891619993374,None,258.3389825302176,None,,,,22017,0001,2022_Nov_14_1225,localizer,2021.1.3,59.93403666909781,
block,scrambled,scrambled064.bmp,,,,,0,17,17,17,,,,,,,,,,,,,,,,,,,,,,,,,,,,,,,,,,,,,,,,,,None,,258.3389825302176,None,258.3389825302176,None,2022-11-14-12:29:18.154768,258.3503228002228,258.65540700033307,258.3503228002228,None,None,258.3503228002228,None,259.15575893018394,None,,,,22017,0001,2022_Nov_14_1225,localizer,2021.1.3,59.93403666909781,
block,scrambled,scrambled085.bmp,,,,,0,18,18,18,,,,,,,,,,,,,,,,,,,,,,,,,,,,,,,,,,,,,,,,,,None,,259.15575893018394,None,259.15575893018394,None,2022-11-14-12:29:18.971566,259.16766910022125,259.4723037001677,259.16766910022125,None,None,259.16766910022125,None,259.9725375299342,None,,,,22017,0001,2022_Nov_14_1225,localizer,2021.1.3,59.93403666909781,
block,scrambled,scrambled069.bmp,,,,,0,19,19,19,,,,,,,,,,,,,,,,,,,,,,,,,,,,,,,,,,,,,,,,,,None,,259.9725375299342,None,259.9725375299342,None,2022-11-14-12:29:19.788548,259.9840167001821,260.2888949001208,259.9840167001821,None,None,259.9840167001821,None,260.7910309301689,None,,,,22017,0001,2022_Nov_14_1225,localizer,2021.1.3,59.93403666909781,
block,scrambled,scrambled080.bmp,,,,,0,20,20,20,,,,,,,,,,,,,,,,,,,,,,,,,,,,,,,,,,,,,,,,,,None,,260.7910309301689,None,260.7910309301689,None,2022-11-14-12:29:20.611739,260.80883909994736,261.12191980006173,260.80883909994736,None,None,260.80883909994736,None,261.60641862992196,None,,,,22017,0001,2022_Nov_14_1225,localizer,2021.1.3,59.93403666909781,
block,scrambled,scrambled084.bmp,,,,,0,21,21,21,,,,,,,,,,,,,,,,,,,,,,,,,,,,,,,,,,,,,,,,,,None,,261.60641862992196,None,261.60641862992196,None,2022-11-14-12:29:21.422295,261.6164083001204,261.9219832001254,261.6164083001204,None,None,261.6164083001204,None,262.42231513028963,None,,,,22017,0001,2022_Nov_14_1225,localizer,2021.1.3,59.93403666909781,
block,scrambled,scrambled060.bmp,,,,,0,22,22,22,,,,,,,,,,,,,,,,,,,,,,,,,,,,,,,,,,,,,,,,,,None,,262.42231513028963,None,262.42231513028963,None,2022-11-14-12:29:22.238206,262.43301750021055,262.74052920006216,262.43301750021055,None,None,262.43301750021055,None,263.2395992300473,None,,,,22017,0001,2022_Nov_14_1225,localizer,2021.1.3,59.93403666909781,
block,scrambled,scrambled057.bmp,,,,,0,23,23,23,,,,,,,,,,,,,,,,,,,,,,,,,,,,,,,,,,,,,,,,,,None,,263.2395992300473,None,263.2395992300473,None,2022-11-14-12:29:23.056499,263.25442000012845,263.55609200010076,263.25442000012845,None,None,263.25442000012845,None,264.05629673022776,None,,,,22017,0001,2022_Nov_14_1225,localizer,2021.1.3,59.93403666909781,
block,scrambled,scrambled014.bmp,,,,,0,24,24,24,,,,,,,,,,,,,,,,,,,,,,,,,,,,,,,,,,,,,,,,,,None,,264.05629673022776,None,264.05629673022776,None,2022-11-14-12:29:23.873216,264.0694784000516,264.37211250001565,264.0694784000516,None,y,264.0694784000516,None,264.8716984300874,None,0.1647538999095559,,,22017,0001,2022_Nov_14_1225,localizer,2021.1.3,59.93403666909781,
block,scrambled,scrambled061.bmp,,,,,0,25,25,25,,,,,,,,,,,,,,,,,,,,,,,,,,,,,,,,,,,,,,,,,,None,,264.8716984300874,None,264.8716984300874,None,2022-11-14-12:29:24.686766,264.8762908000499,265.1887238002382,264.8762908000499,None,None,264.8762908000499,None,265.6891076302156,None,,,,22017,0001,2022_Nov_14_1225,localizer,2021.1.3,59.93403666909781,
block,scrambled,scrambled067.bmp,,,,,0,26,26,26,,,,,,,,,,,,,,,,,,,,,,,,,,,,,,,,,,,,,,,,,,None,,265.6891076302156,None,265.6891076302156,None,2022-11-14-12:29:25.505277,265.70011130021885,266.00542700011283,265.70011130021885,None,y,265.70011130021885,None,266.5054876299575,None,0.17923579970374703,,,22017,0001,2022_Nov_14_1225,localizer,2021.1.3,59.93403666909781,
block,scrambled,scrambled051.bmp,,,,,0,27,27,27,,,,,,,,,,,,,,,,,,,,,,,,,,,,,,,,,,,,,,,,,,None,,266.5054876299575,None,266.5054876299575,None,2022-11-14-12:29:26.321486,266.5158065003343,266.8220432000235,266.5158065003343,None,y,266.5158065003343,None,267.32235023034735,None,0.023839199915528297,,,22017,0001,2022_Nov_14_1225,localizer,2021.1.3,59.93403666909781,
block,scrambled,scrambled053.bmp,,,,,0,28,28,28,,,,,,,,,,,,,,,,,,,,,,,,,,,,,,,,,,,,,,,,,,None,,267.32235023034735,None,267.32235023034735,None,2022-11-14-12:29:27.138457,267.333061600104,267.63864789996296,267.333061600104,None,y,267.333061600104,None,268.1390052300878,None,0.6081902999430895,,,22017,0001,2022_Nov_14_1225,localizer,2021.1.3,59.93403666909781,
block,scrambled,scrambled052.bmp,,,,,0,29,29,29,,,,,,,,,,,,,,,,,,,,,,,,,,,,,,,,,,,,,,,,,,None,,268.1390052300878,None,268.1390052300878,None,2022-11-14-12:29:27.955043,268.14890190027654,268.45572170009837,268.14890190027654,None,None,268.14890190027654,None,268.9559832301922,None,,,,22017,0001,2022_Nov_14_1225,localizer,2021.1.3,59.93403666909781,
block_end,scrambled,scrambled045.bmp,,,,,0,30,30,30,,,,,,,,,,,,,,,,,,,,,,,,,,,,,,,,,,,,,,,,,,None,,268.9559832301922,None,268.9559832301922,None,2022-11-14-12:29:28.772139,268.96417340030894,269.2721220003441,268.96417340030894,None,None,268.96417340030894,None,269.7721036302857,None,,,,22017,0001,2022_Nov_14_1225,localizer,2021.1.3,59.93403666909781,
block_start,scenes,scenes046.bmp,,,,,0,31,31,31,,,,,,,,,,,,,,,,,,,,,,,,,,,,,,,,,,,,,,,,,,t,1.7335338997654617,269.7721421001479,None,269.7721421001479,None,2022-11-14-12:29:31.338645,271.53574090031907,271.83944620005786,271.53574090031907,None,None,271.53574090031907,None,272.33963703019543,None,,,,22017,0001,2022_Nov_14_1225,localizer,2021.1.3,59.93403666909781,
block,scenes,scenes086.bmp,,,,,0,32,32,32,,,,,,,,,,,,,,,,,,,,,,,,,,,,,,,,,,,,,,,,,,None,,272.33963703019543,None,272.33963703019543,None,2022-11-14-12:29:32.155028,272.3448887001723,272.65591889992356,272.3448887001723,None,None,272.3448887001723,None,273.15595902996137,None,,,,22017,0001,2022_Nov_14_1225,localizer,2021.1.3,59.93403666909781,
block,scenes,scenes031.bmp,,,,,0,33,33,33,,,,,,,,,,,,,,,,,,,,,,,,,,,,,,,,,,,,,,,,,,None,,273.15595902996137,None,273.15595902996137,None,2022-11-14-12:29:32.972116,273.16793989995494,273.4720351002179,273.16793989995494,None,None,273.16793989995494,None,273.96215753005816,None,,,,22017,0001,2022_Nov_14_1225,localizer,2021.1.3,59.93403666909781,
block,scenes,scenes004.bmp,,,,,0,34,34,34,,,,,,,,,,,,,,,,,,,,,,,,,,,,,,,,,,,,,,,,,,None,,273.96215753005816,None,273.96215753005816,None,2022-11-14-12:29:33.787075,273.98910120036453,274.2888807002455,273.98910120036453,None,None,273.98910120036453,None,274.77215153006836,None,,,,22017,0001,2022_Nov_14_1225,localizer,2021.1.3,59.93403666909781,
block,scenes,scenes088.bmp,,,,,0,35,35,35,,,,,,,,,,,,,,,,,,,,,,,,,,,,,,,,,,,,,,,,,,None,,274.77215153006836,None,274.77215153006836,None,2022-11-14-12:29:34.588386,274.7812104001641,275.0888348999433,274.7812104001641,None,None,274.7812104001641,None,275.5890454303473,None,,,,22017,0001,2022_Nov_14_1225,localizer,2021.1.3,59.93403666909781,
block,scenes,scenes069.bmp,,,,,0,36,36,36,,,,,,,,,,,,,,,,,,,,,,,,,,,,,,,,,,,,,,,,,,None,,275.5890454303473,None,275.5890454303473,None,2022-11-14-12:29:35.405478,275.60023800004274,275.9063070002012,275.60023800004274,None,None,275.60023800004274,None,276.40642513036727,None,,,,22017,0001,2022_Nov_14_1225,localizer,2021.1.3,59.93403666909781,
block,scenes,scenes012.bmp,,,,,0,37,37,37,,,,,,,,,,,,,,,,,,,,,,,,,,,,,,,,,,,,,,,,,,None,,276.40642513036727,None,276.40642513036727,None,2022-11-14-12:29:36.223833,276.4191328003071,276.7220700001344,276.4191328003071,None,None,276.4191328003071,None,277.22243993012233,None,,,,22017,0001,2022_Nov_14_1225,localizer,2021.1.3,59.93403666909781,
block,scenes,scenes012.bmp,,,,,0,38,38,38,,,,,,,,,,,,,,,,,,,,,,,,,,,,,,,,,,,,,,,,,,None,,277.22243993012233,None,277.22243993012233,None,2022-11-14-12:29:37.038707,277.22322629997507,277.5223298999481,277.22322629997507,None,None,277.22322629997507,None,278.02238672999664,None,,,,22017,0001,2022_Nov_14_1225,localizer,2021.1.3,59.93403666909781,
block,scenes,scenes007.bmp,,,,,0,39,39,39,,,,,,,,,,,,,,,,,,,,,,,,,,,,,,,,,,,,,,,,,,None,,278.02238672999664,None,278.02238672999664,None,2022-11-14-12:29:37.840934,278.04058640031144,278.355695000384,278.04058640031144,278.04058640031144,None,278.04058640031144,278.04058640031144,278.84023663010447,None,,,,22017,0001,2022_Nov_14_1225,localizer,2021.1.3,59.93403666909781,
block,scenes,scenes081.bmp,,,,,0,40,40,40,,,,,,,,,,,,,,,,,,,,,,,,,,,,,,,,,,,,,,,,,,None,,278.84023663010447,None,278.84023663010447,None,2022-11-14-12:29:38.658669,278.8550295000896,279.15546660032123,278.8550295000896,None,None,278.8550295000896,None,279.65574983023106,None,,,,22017,0001,2022_Nov_14_1225,localizer,2021.1.3,59.93403666909781,
block,scenes,scenes022.bmp,,,,,0,41,41,41,,,,,,,,,,,,,,,,,,,,,,,,,,,,,,,,,,,,,,,,,,None,,279.65574983023106,None,279.65574983023106,None,2022-11-14-12:29:39.472077,279.6673461003229,279.97207050025463,279.6673461003229,None,None,279.6673461003229,None,280.4723705302924,None,,,,22017,0001,2022_Nov_14_1225,localizer,2021.1.3,59.93403666909781,
block,scenes,scenes002.bmp,,,,,0,42,42,42,,,,,,,,,,,,,,,,,,,,,,,,,,,,,,,,,,,,,,,,,,None,,280.4723705302924,None,280.4723705302924,None,2022-11-14-12:29:40.289112,280.4829994002357,280.7888067001477,280.4829994002357,None,None,280.4829994002357,None,281.28920323010533,None,,,,22017,0001,2022_Nov_14_1225,localizer,2021.1.3,59.93403666909781,
block,scenes,scenes054.bmp,,,,,0,43,43,43,,,,,,,,,,,,,,,,,,,,,,,,,,,,,,,,,,,,,,,,,,None,,281.28920323010533,None,281.28920323010533,None,2022-11-14-12:29:41.105787,281.29713930003345,281.60531370015815,281.29713930003345,None,None,281.29713930003345,None,282.10607452997937,None,,,,22017,0001,2022_Nov_14_1225,localizer,2021.1.3,59.93403666909781,
block,scenes,scenes021.bmp,,,,,0,44,44,44,,,,,,,,,,,,,,,,,,,,,,,,,,,,,,,,,,,,,,,,,,None,,282.10607452997937,None,282.10607452997937,None,2022-11-14-12:29:41.922637,282.11806060001254,282.42227110033855,282.11806060001254,None,None,282.11806060001254,None,282.9245547301136,None,,,,22017,0001,2022_Nov_14_1225,localizer,2021.1.3,59.93403666909781,
block_end,scenes,scenes079.bmp,,,,,0,45,45,45,,,,,,,,,,,,,,,,,,,,,,,,,,,,,,,,,,,,,,,,,,None,,282.9245547301136,None,282.9245547301136,None,2022-11-14-12:29:42.743761,282.94068260025233,283.25567280035466,282.94068260025233,None,None,282.94068260025233,None,283.74559703031554,None,,,,22017,0001,2022_Nov_14_1225,localizer,2021.1.3,59.93403666909781,
block_start,faces,faces003.bmp,,,,,0,46,46,46,,,,,,,,,,,,,,,,,,,,,,,,,,,,,,,,,,,,,,,,,,t,1.7632483001798391,283.741357000079,None,283.741357000079,None,2022-11-14-12:29:45.339113,285.5339812999591,285.83906810032204,285.5339812999591,None,None,285.5339812999591,None,286.33933653011917,None,,,,22017,0001,2022_Nov_14_1225,localizer,2021.1.3,59.93403666909781,
block,faces,faces027.bmp,,,,,0,47,47,47,,,,,,,,,,,,,,,,,,,,,,,,,,,,,,,,,,,,,,,,,,None,,286.33933653011917,None,286.33933653011917,None,2022-11-14-12:29:46.155850,286.351124800276,286.655496600084,286.351124800276,None,None,286.351124800276,None,287.15594592997803,None,,,,22017,0001,2022_Nov_14_1225,localizer,2021.1.3,59.93403666909781,
block,faces,faces010.bmp,,,,,0,48,48,48,,,,,,,,,,,,,,,,,,,,,,,,,,,,,,,,,,,,,,,,,,None,,287.15594592997803,None,287.15594592997803,None,2022-11-14-12:29:46.972659,287.1687644002959,287.47222170000896,287.1687644002959,None,None,287.1687644002959,None,287.97234863024204,None,,,,22017,0001,2022_Nov_14_1225,localizer,2021.1.3,59.93403666909781,
block,faces,faces019.bmp,,,,,0,49,49,49,,,,,,,,,,,,,,,,,,,,,,,,,,,,,,,,,,,,,,,,,,None,,287.97234863024204,None,287.97234863024204,None,2022-11-14-12:29:47.788889,287.98446079995483,288.28902000002563,287.98446079995483,None,None,287.98446079995483,None,288.7888581299223,None,,,,22017,0001,2022_Nov_14_1225,localizer,2021.1.3,59.93403666909781,
block,faces,faces087.bmp,,,,,0,50,50,50,,,,,,,,,,,,,,,,,,,,,,,,,,,,,,,,,,,,,,,,,,None,,288.7888581299223,None,288.7888581299223,None,2022-11-14-12:29:48.605634,288.7999076000415,289.10601230012253,288.7999076000415,None,None,288.7999076000415,None,289.6054722301662,None,,,,22017,0001,2022_Nov_14_1225,localizer,2021.1.3,59.93403666909781,
block,faces,faces084.bmp,,,,,0,51,51,51,,,,,,,,,,,,,,,,,,,,,,,,,,,,,,,,,,,,,,,,,,None,,289.6054722301662,None,289.6054722301662,None,2022-11-14-12:29:49.421627,289.61497160000727,289.92218280024827,289.61497160000727,None,None,289.61497160000727,None,290.4226869300939,None,,,,22017,0001,2022_Nov_14_1225,localizer,2021.1.3,59.93403666909781,
block,faces,faces070.bmp,,,,,0,52,52,52,,,,,,,,,,,,,,,,,,,,,,,,,,,,,,,,,,,,,,,,,,None,,290.4226869300939,None,290.4226869300939,None,2022-11-14-12:29:50.239284,290.43475090013817,290.73959650006145,290.43475090013817,None,None,290.43475090013817,None,291.2391933303326,None,,,,22017,0001,2022_Nov_14_1225,localizer,2021.1.3,59.93403666909781,
block,faces,faces011.bmp,,,,,0,53,53,53,,,,,,,,,,,,,,,,,,,,,,,,,,,,,,,,,,,,,,,,,,None,,291.2391933303326,None,291.2391933303326,None,2022-11-14-12:29:51.055815,291.2458466999233,291.5556030003354,291.2458466999233,None,None,291.2458466999233,None,292.056220130343,None,,,,22017,0001,2022_Nov_14_1225,localizer,2021.1.3,59.93403666909781,
block,faces,faces026.bmp,,,,,0,54,54,54,,,,,,,,,,,,,,,,,,,,,,,,,,,,,,,,,,,,,,,,,,None,,292.056220130343,None,292.056220130343,None,2022-11-14-12:29:51.872691,292.0914892000146,292.4054571003653,292.0914892000146,None,None,292.0914892000146,None,292.8727179302834,None,,,,22017,0001,2022_Nov_14_1225,localizer,2021.1.3,59.93403666909781,
block,faces,faces056.bmp,,,,,0,55,55,55,,,,,,,,,,,,,,,,,,,,,,,,,,,,,,,,,,,,,,,,,,None,,292.8727179302834,None,292.8727179302834,None,2022-11-14-12:29:52.689587,292.88436549995095,293.1892711999826,292.88436549995095,None,None,292.88436549995095,None,293.68966852994635,None,,,,22017,0001,2022_Nov_14_1225,localizer,2021.1.3,59.93403666909781,
block,faces,faces007.bmp,,,,,0,56,56,56,,,,,,,,,,,,,,,,,,,,,,,,,,,,,,,,,,,,,,,,,,None,,293.68966852994635,None,293.68966852994635,None,2022-11-14-12:29:53.507338,293.702381500043,294.0063694999553,293.702381500043,None,None,293.702381500043,None,294.50647093011065,None,,,,22017,0001,2022_Nov_14_1225,localizer,2021.1.3,59.93403666909781,
block,faces,faces047.bmp,,,,,0,57,57,57,,,,,,,,,,,,,,,,,,,,,,,,,,,,,,,,,,,,,,,,,,None,,294.50647093011065,None,294.50647093011065,None,2022-11-14-12:29:54.324304,294.5239685000852,294.8226054003462,294.5239685000852,None,None,294.5239685000852,None,295.32236053030937,None,,,,22017,0001,2022_Nov_14_1225,localizer,2021.1.3,59.93403666909781,
block,faces,faces037.bmp,,,,,0,58,58,58,,,,,,,,,,,,,,,,,,,,,,,,,,,,,,,,,,,,,,,,,,None,,295.32236053030937,None,295.32236053030937,None,2022-11-14-12:29:55.138985,295.3280336000025,295.6392288003117,295.3280336000025,None,None,295.3280336000025,None,296.1394375300035,None,,,,22017,0001,2022_Nov_14_1225,localizer,2021.1.3,59.93403666909781,
block,faces,faces015.bmp,,,,,0,59,59,59,,,,,,,,,,,,,,,,,,,,,,,,,,,,,,,,,,,,,,,,,,None,,296.1394375300035,None,296.1394375300035,None,2022-11-14-12:29:55.956179,296.1512540001422,296.4557688999921,296.1512540001422,None,None,296.1512540001422,None,296.95572463031857,None,,,,22017,0001,2022_Nov_14_1225,localizer,2021.1.3,59.93403666909781,
block_end,faces,faces023.bmp,,,,,0,60,60,60,,,,,,,,,,,,,,,,,,,,,,,,,,,,,,,,,,,,,,,,,,None,,296.95572463031857,None,296.95572463031857,None,2022-11-14-12:29:56.772712,296.96676260000095,297.27252950007096,296.96676260000095,None,None,296.96676260000095,None,297.77291823020204,None,,,,22017,0001,2022_Nov_14_1225,localizer,2021.1.3,59.93403666909781,
null_block,null_block,null_block.bmp,,,,,0,61,61,61,,,,,,,,,,,,,,,,,,,,,,,,,,,,,,,,,,,,,,,,,,t,1.732020600233227,297.7725699003786,None,297.7725699003786,None,2022-11-14-12:29:59.346158,299.54028936019165,None,299.54028936019165,None,None,299.54028936019165,None,299.5369611000642,None,,,,22017,0001,2022_Nov_14_1225,localizer,2021.1.3,59.93403666909781,
block_start,objects,objects059.bmp,,,,,0,62,62,62,,,,,,,,,,,,,,,,,,,,,,,,,,,,,,,,,,,,,,,,,,t,1.965435499791056,311.5391404000111,None,311.5391404000111,None,2022-11-14-12:30:13.343579,313.53638930013403,313.8389757000841,313.53638930013403,None,None,313.53638930013403,None,314.3394128301181,None,,,,22017,0001,2022_Nov_14_1225,localizer,2021.1.3,59.93403666909781,
block,objects,objects080.bmp,,,,,0,63,63,63,,,,,,,,,,,,,,,,,,,,,,,,,,,,,,,,,,,,,,,,,,None,,314.3394128301181,None,314.3394128301181,None,2022-11-14-12:30:14.156445,314.35278460010886,314.6560676000081,314.35278460010886,None,None,314.35278460010886,None,315.1567039301619,None,,,,22017,0001,2022_Nov_14_1225,localizer,2021.1.3,59.93403666909781,
block,objects,objects017.bmp,,,,,0,64,64,64,,,,,,,,,,,,,,,,,,,,,,,,,,,,,,,,,,,,,,,,,,None,,315.1567039301619,None,315.1567039301619,None,2022-11-14-12:30:14.975832,315.1699670003727,315.47267540032044,315.1699670003727,None,None,315.1699670003727,None,315.9733690300956,None,,,,22017,0001,2022_Nov_14_1225,localizer,2021.1.3,59.93403666909781,
block,objects,objects032.bmp,,,,,0,65,65,65,,,,,,,,,,,,,,,,,,,,,,,,,,,,,,,,,,,,,,,,,,None,,315.9733690300956,None,315.9733690300956,None,2022-11-14-12:30:15.791390,315.9858310003765,316.28918720036745,315.9858310003765,None,None,315.9858310003765,None,316.7891507300548,None,,,,22017,0001,2022_Nov_14_1225,localizer,2021.1.3,59.93403666909781,
block,objects,objects087.bmp,,,,,0,66,66,66,,,,,,,,,,,,,,,,,,,,,,,,,,,,,,,,,,,,,,,,,,None,,316.7891507300548,None,316.7891507300548,None,2022-11-14-12:30:16.606188,316.79830199992284,317.1060310001485,316.79830199992284,None,None,316.79830199992284,None,317.60614882996305,None,,,,22017,0001,2022_Nov_14_1225,localizer,2021.1.3,59.93403666909781,
block,objects,objects016.bmp,,,,,0,67,67,67,,,,,,,,,,,,,,,,,,,,,,,,,,,,,,,,,,,,,,,,,,None,,317.60614882996305,None,317.60614882996305,None,2022-11-14-12:30:17.423122,317.61991030024365,317.92237129993737,317.61991030024365,None,None,317.61991030024365,None,318.42363853035494,None,,,,22017,0001,2022_Nov_14_1225,localizer,2021.1.3,59.93403666909781,
block,objects,objects086.bmp,,,,,0,68,68,68,,,,,,,,,,,,,,,,,,,,,,,,,,,,,,,,,,,,,,,,,,None,,318.42363853035494,None,318.42363853035494,None,2022-11-14-12:30:18.241830,318.4359682002105,318.7389909001067,318.4359682002105,None,None,318.4359682002105,None,319.23948693023993,None,,,,22017,0001,2022_Nov_14_1225,localizer,2021.1.3,59.93403666909781,
block,objects,objects076.bmp,,,,,0,69,69,69,,,,,,,,,,,,,,,,,,,,,,,,,,,,,,,,,,,,,,,,,,None,,319.23948693023993,None,319.23948693023993,None,2022-11-14-12:30:19.056525,319.24985729996115,319.5558887999505,319.24985729996115,None,None,319.24985729996115,None,320.05631992993875,None,,,,22017,0001,2022_Nov_14_1225,localizer,2021.1.3,59.93403666909781,
block,objects,objects026.bmp,,,,,0,70,70,70,,,,,,,,,,,,,,,,,,,,,,,,,,,,,,,,,,,,,,,,,,None,,320.05631992993875,None,320.05631992993875,None,2022-11-14-12:30:19.873614,320.0679717999883,320.3723182003014,320.0679717999883,None,None,320.0679717999883,None,320.87269833013414,None,,,,22017,0001,2022_Nov_14_1225,localizer,2021.1.3,59.93403666909781,
block,objects,objects038.bmp,,,,,0,71,71,71,,,,,,,,,,,,,,,,,,,,,,,,,,,,,,,,,,,,,,,,,,None,,320.87269833013414,None,320.87269833013414,None,2022-11-14-12:30:20.689729,320.88275290001184,321.18911570031196,320.88275290001184,None,None,320.88275290001184,None,321.68942583007737,None,,,,22017,0001,2022_Nov_14_1225,localizer,2021.1.3,59.93403666909781,
block,objects,objects034.bmp,,,,,0,72,72,72,,,,,,,,,,,,,,,,,,,,,,,,,,,,,,,,,,,,,,,,,,None,,321.68942583007737,None,321.68942583007737,None,2022-11-14-12:30:21.506460,321.70004629995674,322.00601499993354,321.70004629995674,None,None,321.70004629995674,None,322.5062949301675,None,,,,22017,0001,2022_Nov_14_1225,localizer,2021.1.3,59.93403666909781,
block,objects,objects088.bmp,,,,,0,73,73,73,,,,,,,,,,,,,,,,,,,,,,,,,,,,,,,,,,,,,,,,,,None,,322.5062949301675,None,322.5062949301675,None,2022-11-14-12:30:22.323434,322.5176411001012,322.82253620028496,322.5176411001012,None,None,322.5176411001012,None,323.3230141301639,None,,,,22017,0001,2022_Nov_14_1225,localizer,2021.1.3,59.93403666909781,
block,objects,objects056.bmp,,,,,0,74,74,74,,,,,,,,,,,,,,,,,,,,,,,,,,,,,,,,,,,,,,,,,,None,,323.3230141301639,None,323.3230141301639,None,2022-11-14-12:30:23.140087,323.33367930026725,323.6391213000752,323.33367930026725,None,None,323.33367930026725,None,324.13991353036835,None,,,,22017,0001,2022_Nov_14_1225,localizer,2021.1.3,59.93403666909781,
block,objects,objects068.bmp,,,,,0,75,75,75,,,,,,,,,,,,,,,,,,,,,,,,,,,,,,,,,,,,,,,,,,None,,324.13991353036835,None,324.13991353036835,None,2022-11-14-12:30:23.957934,324.15166510036215,324.45586850028485,324.15166510036215,None,None,324.15166510036215,None,324.9551720300689,None,,,,22017,0001,2022_Nov_14_1225,localizer,2021.1.3,59.93403666909781,
block_end,objects,objects053.bmp,,,,,0,76,76,76,,,,,,,,,,,,,,,,,,,,,,,,,,,,,,,,,,,,,,,,,,None,,324.9551720300689,None,324.9551720300689,None,2022-11-14-12:30:24.771813,324.96024900022894,325.27251170016825,324.96024900022894,None,None,324.96024900022894,None,325.77251422991975,None,,,,22017,0001,2022_Nov_14_1225,localizer,2021.1.3,59.93403666909781,
block_start,faces,faces058.bmp,,,,,0,77,77,77,,,,,,,,,,,,,,,,,,,,,,,,,,,,,,,,,,,,,,,,,,t,1.7324052997864783,325.7722660000436,None,325.7722660000436,None,2022-11-14-12:30:27.338835,327.5301222000271,327.83927500015125,327.5301222000271,None,None,327.5301222000271,None,328.3394011299126,None,,,,22017,0001,2022_Nov_14_1225,localizer,2021.1.3,59.93403666909781,
block,faces,faces018.bmp,,,,,0,78,78,78,,,,,,,,,,,,,,,,,,,,,,,,,,,,,,,,,,,,,,,,,,None,,328.3394011299126,None,328.3394011299126,None,2022-11-14-12:30:28.156437,328.3498361003585,328.6559800999239,328.3498361003585,None,None,328.3498361003585,None,329.1559897300787,None,,,,22017,0001,2022_Nov_14_1225,localizer,2021.1.3,59.93403666909781,
block,faces,faces072.bmp,,,,,0,79,79,79,,,,,,,,,,,,,,,,,,,,,,,,,,,,,,,,,,,,,,,,,,None,,329.1559897300787,None,329.1559897300787,None,2022-11-14-12:30:28.972948,329.1666084001772,329.4725155001506,329.1666084001772,None,None,329.1666084001772,None,329.9727939300239,None,,,,22017,0001,2022_Nov_14_1225,localizer,2021.1.3,59.93403666909781,
block,faces,faces056.bmp,,,,,0,80,80,80,,,,,,,,,,,,,,,,,,,,,,,,,,,,,,,,,,,,,,,,,,None,,329.9727939300239,None,329.9727939300239,None,2022-11-14-12:30:29.790272,329.97346800006926,330.2727205003612,329.97346800006926,None,None,329.97346800006926,None,330.7727784303017,None,,,,22017,0001,2022_Nov_14_1225,localizer,2021.1.3,59.93403666909781,
block,faces,faces053.bmp,,,,,0,81,81,81,,,,,,,,,,,,,,,,,,,,,,,,,,,,,,,,,,,,,,,,,,None,,330.7727784303017,None,330.7727784303017,None,2022-11-14-12:30:30.590796,330.77972740028054,331.0896069002338,330.77972740028054,330.77972740028054,y,330.77972740028054,330.77972740028054,331.59152073021977,None,0.053880099672824144,,,22017,0001,2022_Nov_14_1225,localizer,2021.1.3,59.93403666909781,
block,faces,faces065.bmp,,,,,0,82,82,82,,,,,,,,,,,,,,,,,,,,,,,,,,,,,,,,,,,,,,,,,,None,,331.59152073021977,None,331.59152073021977,None,2022-11-14-12:30:31.412503,331.6111543001607,331.9228425002657,331.6111543001607,None,None,331.6111543001607,None,332.40641433028503,None,,,,22017,0001,2022_Nov_14_1225,localizer,2021.1.3,59.93403666909781,
block,faces,faces086.bmp,,,,,0,83,83,83,,,,,,,,,,,,,,,,,,,,,,,,,,,,,,,,,,,,,,,,,,None,,332.40641433028503,None,332.40641433028503,None,2022-11-14-12:30:32.223566,332.41705590020865,332.7226066002622,332.41705590020865,None,None,332.41705590020865,None,333.2233070300892,None,,,,22017,0001,2022_Nov_14_1225,localizer,2021.1.3,59.93403666909781,
block,faces,faces005.bmp,,,,,0,84,84,84,,,,,,,,,,,,,,,,,,,,,,,,,,,,,,,,,,,,,,,,,,None,,333.2233070300892,None,333.2233070300892,None,2022-11-14-12:30:33.041313,333.23551930021495,333.53937340015545,333.23551930021495,None,None,333.23551930021495,None,334.03940833015366,None,,,,22017,0001,2022_Nov_14_1225,localizer,2021.1.3,59.93403666909781,
block,faces,faces001.bmp,,,,,0,85,85,85,,,,,,,,,,,,,,,,,,,,,,,,,,,,,,,,,,,,,,,,,,None,,334.03940833015366,None,334.03940833015366,None,2022-11-14-12:30:33.856479,334.05081530008465,334.3569609001279,334.05081530008465,None,None,334.05081530008465,None,334.85581643022596,None,,,,22017,0001,2022_Nov_14_1225,localizer,2021.1.3,59.93403666909781,
block,faces,faces050.bmp,,,,,0,86,86,86,,,,,,,,,,,,,,,,,,,,,,,,,,,,,,,,,,,,,,,,,,None,,334.85581643022596,None,334.85581643022596,None,2022-11-14-12:30:34.672912,334.86521039996296,335.17282060021535,334.86521039996296,None,None,334.86521039996296,None,335.6728209301829,None,,,,22017,0001,2022_Nov_14_1225,localizer,2021.1.3,59.93403666909781,
block,faces,faces034.bmp,,,,,0,87,87,87,,,,,,,,,,,,,,,,,,,,,,,,,,,,,,,,,,,,,,,,,,None,,335.6728209301829,None,335.6728209301829,None,2022-11-14-12:30:35.490064,335.67956109996885,335.9890598002821,335.67956109996885,None,None,335.67956109996885,None,336.4894397303462,None,,,,22017,0001,2022_Nov_14_1225,localizer,2021.1.3,59.93403666909781,
block,faces,faces003.bmp,,,,,0,88,88,88,,,,,,,,,,,,,,,,,,,,,,,,,,,,,,,,,,,,,,,,,,None,,336.4894397303462,None,336.4894397303462,None,2022-11-14-12:30:36.306473,336.4902804000303,336.8057256001048,336.4902804000303,None,None,336.4902804000303,None,337.28940932992845,None,,,,22017,0001,2022_Nov_14_1225,localizer,2021.1.3,59.93403666909781,
block,faces,faces076.bmp,,,,,0,89,89,89,,,,,,,,,,,,,,,,,,,,,,,,,,,,,,,,,,,,,,,,,,None,,337.28940932992845,None,337.28940932992845,None,2022-11-14-12:30:37.107676,337.3004377000034,337.6058681001887,337.3004377000034,337.3004377000034,None,337.3004377000034,337.3004377000034,338.1063717299141,None,,,,22017,0001,2022_Nov_14_1225,localizer,2021.1.3,59.93403666909781,
block,faces,faces031.bmp,,,,,0,90,90,90,,,,,,,,,,,,,,,,,,,,,,,,,,,,,,,,,,,,,,,,,,None,,338.1063717299141,None,338.1063717299141,None,2022-11-14-12:30:37.923406,338.118268399965,338.42258180025965,338.118268399965,None,None,338.118268399965,None,338.923141530063,None,,,,22017,0001,2022_Nov_14_1225,localizer,2021.1.3,59.93403666909781,
block_end,faces,faces029.bmp,,,,,0,91,91,91,,,,,,,,,,,,,,,,,,,,,,,,,,,,,,,,,,,,,,,,,,None,,338.923141530063,None,338.923141530063,None,2022-11-14-12:30:38.741169,338.9359272001311,339.23934009997174,338.9359272001311,None,None,338.9359272001311,None,339.72963773021473,None,,,,22017,0001,2022_Nov_14_1225,localizer,2021.1.3,59.93403666909781,
block_start,scenes,scenes012.bmp,,,,,0,92,92,92,,,,,,,,,,,,,,,,,,,,,,,,,,,,,,,,,,,,,,,,,,t,1.7780627999454737,339.72698409995064,None,339.72698409995064,None,2022-11-14-12:30:41.339658,341.5238919002004,341.839351600036,341.5238919002004,None,None,341.5238919002004,None,342.3394431302324,None,,,,22017,0001,2022_Nov_14_1225,localizer,2021.1.3,59.93403666909781,
block,scenes,scenes004.bmp,,,,,0,93,93,93,,,,,,,,,,,,,,,,,,,,,,,,,,,,,,,,,,,,,,,,,,None,,342.3394431302324,None,342.3394431302324,None,2022-11-14-12:30:42.156481,342.340323000215,342.6394786001183,342.340323000215,None,None,342.340323000215,None,343.13948293011634,None,,,,22017,0001,2022_Nov_14_1225,localizer,2021.1.3,59.93403666909781,
block,scenes,scenes050.bmp,,,,,0,94,94,94,,,,,,,,,,,,,,,,,,,,,,,,,,,,,,,,,,,,,,,,,,None,,343.13948293011634,None,343.13948293011634,None,2022-11-14-12:30:42.958711,343.15155980037525,343.4558580000885,343.15155980037525,343.15155980037525,None,343.15155980037525,343.15155980037525,343.9574737300165,None,,,,22017,0001,2022_Nov_14_1225,localizer,2021.1.3,59.93403666909781,
block,scenes,scenes074.bmp,,,,,0,95,95,95,,,,,,,,,,,,,,,,,,,,,,,,,,,,,,,,,,,,,,,,,,None,,343.9574737300165,None,343.9574737300165,None,2022-11-14-12:30:43.776563,343.9714716002345,344.27282740036026,343.9714716002345,None,None,343.9714716002345,None,344.77274043001233,None,,,,22017,0001,2022_Nov_14_1225,localizer,2021.1.3,59.93403666909781,
block,scenes,scenes089.bmp,,,,,0,96,96,96,,,,,,,,,,,,,,,,,,,,,,,,,,,,,,,,,,,,,,,,,,None,,344.77274043001233,None,344.77274043001233,None,2022-11-14-12:30:44.589785,344.7818601001054,345.0893064001575,344.7818601001054,None,None,344.7818601001054,None,345.5907978301868,None,,,,22017,0001,2022_Nov_14_1225,localizer,2021.1.3,59.93403666909781,
block,scenes,scenes064.bmp,,,,,0,97,97,97,,,,,,,,,,,,,,,,,,,,,,,,,,,,,,,,,,,,,,,,,,None,,345.5907978301868,None,345.5907978301868,None,2022-11-14-12:30:45.410003,345.6048274002969,345.9059036001563,345.6048274002969,None,None,345.6048274002969,None,346.4066392302513,None,,,,22017,0001,2022_Nov_14_1225,localizer,2021.1.3,59.93403666909781,
block,scenes,scenes013.bmp,,,,,0,98,98,98,,,,,,,,,,,,,,,,,,,,,,,,,,,,,,,,,,,,,,,,,,None,,346.4066392302513,None,346.4066392302513,None,2022-11-14-12:30:46.223668,346.41852850001305,346.7226023003459,346.41852850001305,None,None,346.41852850001305,None,347.2229523302987,None,,,,22017,0001,2022_Nov_14_1225,localizer,2021.1.3,59.93403666909781,
block,scenes,scenes060.bmp,,,,,0,99,99,99,,,,,,,,,,,,,,,,,,,,,,,,,,,,,,,,,,,,,,,,,,None,,347.2229523302987,None,347.2229523302987,None,2022-11-14-12:30:47.039991,347.2349229003303,347.53937030024827,347.2349229003303,None,None,347.2349229003303,None,348.0396534300409,None,,,,22017,0001,2022_Nov_14_1225,localizer,2021.1.3,59.93403666909781,
block,scenes,scenes073.bmp,,,,,0,100,100,100,,,,,,,,,,,,,,,,,,,,,,,,,,,,,,,,,,,,,,,,,,None,,348.0396534300409,None,348.0396534300409,None,2022-11-14-12:30:47.856693,348.0525438003242,348.35608260007575,348.0525438003242,None,None,348.0525438003242,None,348.85593983000143,None,,,,22017,0001,2022_Nov_14_1225,localizer,2021.1.3,59.93403666909781,
block,scenes,scenes083.bmp,,,,,0,101,101,101,,,,,,,,,,,,,,,,,,,,,,,,,,,,,,,,,,,,,,,,,,None,,348.85593983000143,None,348.85593983000143,None,2022-11-14-12:30:48.671985,348.86615050025284,349.1730746002868,348.86615050025284,None,None,348.86615050025284,None,349.67279763035475,None,,,,22017,0001,2022_Nov_14_1225,localizer,2021.1.3,59.93403666909781,
block,scenes,scenes027.bmp,,,,,0,102,102,102,,,,,,,,,,,,,,,,,,,,,,,,,,,,,,,,,,,,,,,,,,None,,349.67279763035475,None,349.67279763035475,None,2022-11-14-12:30:49.489836,349.6826619999483,349.98935900023207,349.6826619999483,None,None,349.6826619999483,None,350.48995543019845,None,,,,22017,0001,2022_Nov_14_1225,localizer,2021.1.3,59.93403666909781,
block,scenes,scenes072.bmp,,,,,0,103,103,103,,,,,,,,,,,,,,,,,,,,,,,,,,,,,,,,,,,,,,,,,,None,,350.48995543019845,None,350.48995543019845,None,2022-11-14-12:30:50.307081,350.50159270036966,350.80680100014433,350.50159270036966,None,None,350.50159270036966,None,351.30690043028443,None,,,,22017,0001,2022_Nov_14_1225,localizer,2021.1.3,59.93403666909781,
block,scenes,scenes029.bmp,,,,,0,104,104,104,,,,,,,,,,,,,,,,,,,,,,,,,,,,,,,,,,,,,,,,,,None,,351.30690043028443,None,351.30690043028443,None,2022-11-14-12:30:51.124926,351.31950550014153,351.62261159997433,351.31950550014153,None,None,351.31950550014153,None,352.1230952300131,None,,,,22017,0001,2022_Nov_14_1225,localizer,2021.1.3,59.93403666909781,
block,scenes,scenes076.bmp,,,,,0,105,105,105,,,,,,,,,,,,,,,,,,,,,,,,,,,,,,,,,,,,,,,,,,None,,352.1230952300131,None,352.1230952300131,None,2022-11-14-12:30:51.940316,352.1348741003312,352.4391866000369,352.1348741003312,None,None,352.1348741003312,None,352.9407801300287,None,,,,22017,0001,2022_Nov_14_1225,localizer,2021.1.3,59.93403666909781,
block_end,scenes,scenes078.bmp,,,,,0,106,106,106,,,,,,,,,,,,,,,,,,,,,,,,,,,,,,,,,,,,,,,,,,None,,352.9407801300287,None,352.9407801300287,None,2022-11-14-12:30:52.758799,352.9538580002263,353.25569920009,352.9538580002263,None,None,352.9538580002263,None,353.75900902999564,None,,,,22017,0001,2022_Nov_14_1225,localizer,2021.1.3,59.93403666909781,
block_start,scrambled,scrambled018.bmp,,,,,0,107,107,107,,,,,,,,,,,,,,,,,,,,,,,,,,,,,,,,,,,,,,,,,,t,1.7462372998706996,353.75881520006806,None,353.75881520006806,None,2022-11-14-12:30:55.339057,355.53172490000725,355.83989199995995,355.53172490000725,None,None,355.53172490000725,None,356.34018263015895,None,,,,22017,0001,2022_Nov_14_1225,localizer,2021.1.3,59.93403666909781,
block,scrambled,scrambled039.bmp,,,,,0,108,108,108,,,,,,,,,,,,,,,,,,,,,,,,,,,,,,,,,,,,,,,,,,None,,356.34018263015895,None,356.34018263015895,None,2022-11-14-12:30:56.158212,356.3486864003353,356.6564107001759,356.3486864003353,None,None,356.3486864003353,None,357.1563054302707,None,,,,22017,0001,2022_Nov_14_1225,localizer,2021.1.3,59.93403666909781,
block,scrambled,scrambled050.bmp,,,,,0,109,109,109,,,,,,,,,,,,,,,,,,,,,,,,,,,,,,,,,,,,,,,,,,None,,357.1563054302707,None,357.1563054302707,None,2022-11-14-12:30:56.973347,357.1669761002995,357.4726141002029,357.1669761002995,None,None,357.1669761002995,None,357.97316942997276,None,,,,22017,0001,2022_Nov_14_1225,localizer,2021.1.3,59.93403666909781,
block,scrambled,scrambled083.bmp,,,,,0,110,110,110,,,,,,,,,,,,,,,,,,,,,,,,,,,,,,,,,,,,,,,,,,None,,357.97316942997276,None,357.97316942997276,None,2022-11-14-12:30:57.790246,357.9838751000352,358.2895231000148,357.9838751000352,None,None,357.9838751000352,None,358.7894183302298,None,,,,22017,0001,2022_Nov_14_1225,localizer,2021.1.3,59.93403666909781,
block,scrambled,scrambled035.bmp,,,,,0,111,111,111,,,,,,,,,,,,,,,,,,,,,,,,,,,,,,,,,,,,,,,,,,None,,358.7894183302298,None,358.7894183302298,None,2022-11-14-12:30:58.606463,358.79879190027714,359.1060101003386,358.79879190027714,None,None,358.79879190027714,None,359.606510730274,None,,,,22017,0001,2022_Nov_14_1225,localizer,2021.1.3,59.93403666909781,
block,scrambled,scrambled020.bmp,,,,,0,112,112,112,,,,,,,,,,,,,,,,,,,,,,,,,,,,,,,,,,,,,,,,,,None,,359.606510730274,None,359.606510730274,None,2022-11-14-12:30:59.423751,359.61724480008706,359.92304360028356,359.61724480008706,None,None,359.61724480008706,None,360.4234981302172,None,,,,22017,0001,2022_Nov_14_1225,localizer,2021.1.3,59.93403666909781,
block,scrambled,scrambled029.bmp,,,,,0,113,113,113,,,,,,,,,,,,,,,,,,,,,,,,,,,,,,,,,,,,,,,,,,None,,360.4234981302172,None,360.4234981302172,None,2022-11-14-12:31:00.241527,360.43771000020206,360.7393010002561,360.43771000020206,None,None,360.43771000020206,None,361.2395503300242,None,,,,22017,0001,2022_Nov_14_1225,localizer,2021.1.3,59.93403666909781,
block,scrambled,scrambled007.bmp,,,,,0,114,114,114,,,,,,,,,,,,,,,,,,,,,,,,,,,,,,,,,,,,,,,,,,None,,361.2395503300242,None,361.2395503300242,None,2022-11-14-12:31:01.056594,361.25009230012074,361.55675550037995,361.25009230012074,None,None,361.25009230012074,None,362.0568627303466,None,,,,22017,0001,2022_Nov_14_1225,localizer,2021.1.3,59.93403666909781,
block,scrambled,scrambled066.bmp,,,,,0,115,115,115,,,,,,,,,,,,,,,,,,,,,,,,,,,,,,,,,,,,,,,,,,None,,362.0568627303466,None,362.0568627303466,None,2022-11-14-12:31:01.874892,362.06855949992314,362.3726702001877,362.06855949992314,None,None,362.06855949992314,None,362.874067330081,None,,,,22017,0001,2022_Nov_14_1225,localizer,2021.1.3,59.93403666909781,
block,scrambled,scrambled033.bmp,,,,,0,116,116,116,,,,,,,,,,,,,,,,,,,,,,,,,,,,,,,,,,,,,,,,,,None,,362.874067330081,None,362.874067330081,None,2022-11-14-12:31:02.693152,362.888219000306,363.18962280033156,362.888219000306,None,None,362.888219000306,None,363.6896718300879,None,,,,22017,0001,2022_Nov_14_1225,localizer,2021.1.3,59.93403666909781,
block,scrambled,scrambled033.bmp,,,,,0,117,117,117,,,,,,,,,,,,,,,,,,,,,,,,,,,,,,,,,,,,,,,,,,None,,363.6896718300879,None,363.6896718300879,None,2022-11-14-12:31:03.505929,363.6905020000413,364.0061087002978,363.6905020000413,None,None,363.6905020000413,None,364.49077323013915,None,,,,22017,0001,2022_Nov_14_1225,localizer,2021.1.3,59.93403666909781,
block,scrambled,scrambled058.bmp,,,,,0,118,118,118,,,,,,,,,,,,,,,,,,,,,,,,,,,,,,,,,,,,,,,,,,None,,364.49077323013915,None,364.49077323013915,None,2022-11-14-12:31:04.311989,364.506342000328,364.80597430001944,364.506342000328,364.506342000328,None,364.506342000328,364.506342000328,365.30639033000915,None,,,,22017,0001,2022_Nov_14_1225,localizer,2021.1.3,59.93403666909781,
block,scrambled,scrambled065.bmp,,,,,0,119,119,119,,,,,,,,,,,,,,,,,,,,,,,,,,,,,,,,,,,,,,,,,,None,,365.30639033000915,None,365.30639033000915,None,2022-11-14-12:31:05.123428,365.31632099999115,365.622781699989,365.31632099999115,None,None,365.31632099999115,None,366.1228961300105,None,,,,22017,0001,2022_Nov_14_1225,localizer,2021.1.3,59.93403666909781,
block,scrambled,scrambled057.bmp,,,,,0,120,120,120,,,,,,,,,,,,,,,,,,,,,,,,,,,,,,,,,,,,,,,,,,None,,366.1228961300105,None,366.1228961300105,None,2022-11-14-12:31:05.939942,366.12386900000274,366.422759400215,366.12386900000274,None,None,366.12386900000274,None,366.92418283019214,None,,,,22017,0001,2022_Nov_14_1225,localizer,2021.1.3,59.93403666909781,
block_end,scrambled,scrambled008.bmp,,,,,0,121,121,121,,,,,,,,,,,,,,,,,,,,,,,,,,,,,,,,,,,,,,,,,,None,,366.92418283019214,None,366.92418283019214,None,2022-11-14-12:31:06.745322,366.9399948003702,367.23942270036787,366.9399948003702,366.9399948003702,None,366.9399948003702,366.9399948003702,367.7397309302352,None,,,,22017,0001,2022_Nov_14_1225,localizer,2021.1.3,59.93403666909781,
block_start,scenes,scenes077.bmp,,,,,0,122,122,122,,,,,,,,,,,,,,,,,,,,,,,,,,,,,,,,,,,,,,,,,,t,1.7584588997997344,367.7460495000705,None,367.7460495000705,None,2022-11-14-12:31:09.340409,369.53419170016423,369.83933370001614,369.53419170016423,None,None,369.53419170016423,None,370.3398197300732,None,,,,22017,0001,2022_Nov_14_1225,localizer,2021.1.3,59.93403666909781,
block,scenes,scenes050.bmp,,,,,0,123,123,123,,,,,,,,,,,,,,,,,,,,,,,,,,,,,,,,,,,,,,,,,,None,,370.3398197300732,None,370.3398197300732,None,2022-11-14-12:31:10.156882,370.3407017001882,370.63959020003676,370.3407017001882,None,None,370.3407017001882,None,371.14028003001584,None,,,,22017,0001,2022_Nov_14_1225,localizer,2021.1.3,59.93403666909781,
block,scenes,scenes089.bmp,,,,,0,124,124,124,,,,,,,,,,,,,,,,,,,,,,,,,,,,,,,,,,,,,,,,,,None,,371.14028003001584,None,371.14028003001584,None,2022-11-14-12:31:10.960499,371.1435040999204,371.4567351001315,371.1435040999204,371.1435040999204,None,371.1435040999204,371.1435040999204,371.9566166301258,None,,,,22017,0001,2022_Nov_14_1225,localizer,2021.1.3,59.93403666909781,
block,scenes,scenes047.bmp,,,,,0,125,125,125,,,,,,,,,,,,,,,,,,,,,,,,,,,,,,,,,,,,,,,,,,None,,371.9566166301258,None,371.9566166301258,None,2022-11-14-12:31:11.773495,371.9684318001382,372.2728071003221,371.9684318001382,None,None,371.9684318001382,None,372.7728771300055,None,,,,22017,0001,2022_Nov_14_1225,localizer,2021.1.3,59.93403666909781,
block,scenes,scenes063.bmp,,,,,0,126,126,126,,,,,,,,,,,,,,,,,,,,,,,,,,,,,,,,,,,,,,,,,,None,,372.7728771300055,None,372.7728771300055,None,2022-11-14-12:31:12.589925,372.7837181999348,373.08958130003884,372.7837181999348,None,None,372.7837181999348,None,373.5897613300942,None,,,,22017,0001,2022_Nov_14_1225,localizer,2021.1.3,59.93403666909781,
block,scenes,scenes059.bmp,,,,,0,127,127,127,,,,,,,,,,,,,,,,,,,,,,,,,,,,,,,,,,,,,,,,,,None,,373.5897613300942,None,373.5897613300942,None,2022-11-14-12:31:13.407155,373.60046839993447,373.9060355001129,373.60046839993447,None,None,373.60046839993447,None,374.4060802299529,None,,,,22017,0001,2022_Nov_14_1225,localizer,2021.1.3,59.93403666909781,
block,scenes,scenes075.bmp,,,,,0,128,128,128,,,,,,,,,,,,,,,,,,,,,,,,,,,,,,,,,,,,,,,,,,None,,374.4060802299529,None,374.4060802299529,None,2022-11-14-12:31:14.223123,374.4165934002958,374.72640620032325,374.4165934002958,None,None,374.4165934002958,None,375.2229965299368,None,,,,22017,0001,2022_Nov_14_1225,localizer,2021.1.3,59.93403666909781,
block,scenes,scenes064.bmp,,,,,0,129,129,129,,,,,,,,,,,,,,,,,,,,,,,,,,,,,,,,,,,,,,,,,,None,,375.2229965299368,None,375.2229965299368,None,2022-11-14-12:31:15.040044,375.2237925003283,375.52265840023756,375.2237925003283,None,None,375.2237925003283,None,376.0231091303751,None,,,,22017,0001,2022_Nov_14_1225,localizer,2021.1.3,59.93403666909781,
block,scenes,scenes055.bmp,,,,,0,130,130,130,,,,,,,,,,,,,,,,,,,,,,,,,,,,,,,,,,,,,,,,,,None,,376.0231091303751,None,376.0231091303751,None,2022-11-14-12:31:15.841468,376.03602060023695,376.33957220008597,376.03602060023695,376.03602060023695,None,376.03602060023695,376.03602060023695,376.840914730262,None,,,,22017,0001,2022_Nov_14_1225,localizer,2021.1.3,59.93403666909781,
block,scenes,scenes060.bmp,,,,,0,131,131,131,,,,,,,,,,,,,,,,,,,,,,,,,,,,,,,,,,,,,,,,,,None,,376.840914730262,None,376.840914730262,None,2022-11-14-12:31:16.658939,376.84305550018325,377.1564909000881,376.84305550018325,None,None,376.84305550018325,None,377.6583417302929,None,,,,22017,0001,2022_Nov_14_1225,localizer,2021.1.3,59.93403666909781,
block,scenes,scenes053.bmp,,,,,0,132,132,132,,,,,,,,,,,,,,,,,,,,,,,,,,,,,,,,,,,,,,,,,,None,,377.6583417302929,None,377.6583417302929,None,2022-11-14-12:31:17.479407,377.67482750024647,377.98960590036586,377.67482750024647,None,None,377.67482750024647,None,378.47309083007275,None,,,,22017,0001,2022_Nov_14_1225,localizer,2021.1.3,59.93403666909781,
block,scenes,scenes033.bmp,,,,,0,133,133,133,,,,,,,,,,,,,,,,,,,,,,,,,,,,,,,,,,,,,,,,,,None,,378.47309083007275,None,378.47309083007275,None,2022-11-14-12:31:18.290378,378.48365180008113,378.7898439001292,378.48365180008113,None,None,378.48365180008113,None,379.2896594300866,None,,,,22017,0001,2022_Nov_14_1225,localizer,2021.1.3,59.93403666909781,
block,scenes,scenes071.bmp,,,,,0,134,134,134,,,,,,,,,,,,,,,,,,,,,,,,,,,,,,,,,,,,,,,,,,None,,379.2896594300866,None,379.2896594300866,None,2022-11-14-12:31:19.106904,379.30054929992184,379.611732700374,379.30054929992184,None,None,379.30054929992184,None,380.1070239299908,None,,,,22017,0001,2022_Nov_14_1225,localizer,2021.1.3,59.93403666909781,
block,scenes,scenes032.bmp,,,,,0,135,135,135,,,,,,,,,,,,,,,,,,,,,,,,,,,,,,,,,,,,,,,,,,None,,380.1070239299908,None,380.1070239299908,None,2022-11-14-12:31:19.925036,380.11510229995474,380.4228898999281,380.11510229995474,None,None,380.11510229995474,None,380.92432092996313,None,,,,22017,0001,2022_Nov_14_1225,localizer,2021.1.3,59.93403666909781,
block_end,scenes,scenes020.bmp,,,,,0,136,136,136,,,,,,,,,,,,,,,,,,,,,,,,,,,,,,,,,,,,,,,,,,None,,380.92432092996313,None,380.92432092996313,None,2022-11-14-12:31:20.742913,380.93822399992496,381.2394612003118,380.93822399992496,None,None,380.93822399992496,None,381.73982882993295,None,,,,22017,0001,2022_Nov_14_1225,localizer,2021.1.3,59.93403666909781,
block_start,scrambled,scrambled010.bmp,,,,,0,137,137,137,,,,,,,,,,,,,,,,,,,,,,,,,,,,,,,,,,,,,,,,,,t,1.7651029000990093,381.7394924000837,None,381.7394924000837,None,2022-11-14-12:31:23.342439,383.5377789000049,383.83950010035187,383.5377789000049,None,None,383.5377789000049,None,384.3397123299539,None,,,,22017,0001,2022_Nov_14_1225,localizer,2021.1.3,59.93403666909781,
block,scrambled,scrambled014.bmp,,,,,0,138,138,138,,,,,,,,,,,,,,,,,,,,,,,,,,,,,,,,,,,,,,,,,,None,,384.3397123299539,None,384.3397123299539,None,2022-11-14-12:31:24.156769,384.3405320001766,384.63954210001975,384.3405320001766,None,None,384.3405320001766,None,385.15535843027754,None,,,,22017,0001,2022_Nov_14_1225,localizer,2021.1.3,59.93403666909781,
block,scrambled,scrambled001.bmp,,,,,0,139,139,139,,,,,,,,,,,,,,,,,,,,,,,,,,,,,,,,,,,,,,,,,,None,,385.15535843027754,None,385.15535843027754,None,2022-11-14-12:31:24.971775,385.1619078000076,385.4732651002705,385.1619078000076,None,None,385.1619078000076,None,385.9729831300676,None,,,,22017,0001,2022_Nov_14_1225,localizer,2021.1.3,59.93403666909781,
block,scrambled,scrambled004.bmp,,,,,0,140,140,140,,,,,,,,,,,,,,,,,,,,,,,,,,,,,,,,,,,,,,,,,,None,,385.9729831300676,None,385.9729831300676,None,2022-11-14-12:31:25.790028,385.9818446999416,386.2894659000449,385.9818446999416,None,None,385.9818446999416,None,386.78961223019286,None,,,,22017,0001,2022_Nov_14_1225,localizer,2021.1.3,59.93403666909781,
block,scrambled,scrambled078.bmp,,,,,0,141,141,141,,,,,,,,,,,,,,,,,,,,,,,,,,,,,,,,,,,,,,,,,,None,,386.78961223019286,None,386.78961223019286,None,2022-11-14-12:31:26.606664,386.79845520015806,387.10600240016356,386.79845520015806,None,None,386.79845520015806,None,387.6067216301337,None,,,,22017,0001,2022_Nov_14_1225,localizer,2021.1.3,59.93403666909781,
block,scrambled,scrambled019.bmp,,,,,0,142,142,142,,,,,,,,,,,,,,,,,,,,,,,,,,,,,,,,,,,,,,,,,,None,,387.6067216301337,None,387.6067216301337,None,2022-11-14-12:31:27.423965,387.6175187001936,387.9231145000085,387.6175187001936,None,None,387.6175187001936,None,388.42310163034125,None,,,,22017,0001,2022_Nov_14_1225,localizer,2021.1.3,59.93403666909781,
block,scrambled,scrambled042.bmp,,,,,0,143,143,143,,,,,,,,,,,,,,,,,,,,,,,,,,,,,,,,,,,,,,,,,,None,,388.42310163034125,None,388.42310163034125,None,2022-11-14-12:31:28.240151,388.4329934003763,388.7395633999258,388.4329934003763,None,None,388.4329934003763,None,389.2397252300754,None,,,,22017,0001,2022_Nov_14_1225,localizer,2021.1.3,59.93403666909781,
block,scrambled,scrambled067.bmp,,,,,0,144,144,144,,,,,,,,,,,,,,,,,,,,,,,,,,,,,,,,,,,,,,,,,,None,,389.2397252300754,None,389.2397252300754,None,2022-11-14-12:31:29.056773,389.24058260023594,389.53958770027384,389.24058260023594,None,None,389.24058260023594,None,390.03980213012545,None,,,,22017,0001,2022_Nov_14_1225,localizer,2021.1.3,59.93403666909781,
block,scrambled,scrambled038.bmp,,,,,0,145,145,145,,,,,,,,,,,,,,,,,,,,,,,,,,,,,,,,,,,,,,,,,,None,,390.03980213012545,None,390.03980213012545,None,2022-11-14-12:31:29.858370,390.05266290018335,390.3564078002237,390.05266290018335,390.05266290018335,None,390.05266290018335,390.05266290018335,390.8586819300428,None,,,,22017,0001,2022_Nov_14_1225,localizer,2021.1.3,59.93403666909781,
block,scrambled,scrambled032.bmp,,,,,0,146,146,146,,,,,,,,,,,,,,,,,,,,,,,,,,,,,,,,,,,,,,,,,,None,,390.8586819300428,None,390.8586819300428,None,2022-11-14-12:31:30.679711,390.872472200077,391.1729534002952,390.872472200077,None,None,390.872472200077,None,391.6732835302129,None,,,,22017,0001,2022_Nov_14_1225,localizer,2021.1.3,59.93403666909781,
block,scrambled,scrambled021.bmp,,,,,0,147,147,147,,,,,,,,,,,,,,,,,,,,,,,,,,,,,,,,,,,,,,,,,,None,,391.6732835302129,None,391.6732835302129,None,2022-11-14-12:31:31.490314,391.68375390022993,391.989521200303,391.68375390022993,None,None,391.68375390022993,None,392.4897912301123,None,,,,22017,0001,2022_Nov_14_1225,localizer,2021.1.3,59.93403666909781,
block,scrambled,scrambled016.bmp,,,,,0,148,148,148,,,,,,,,,,,,,,,,,,,,,,,,,,,,,,,,,,,,,,,,,,None,,392.4897912301123,None,392.4897912301123,None,2022-11-14-12:31:32.307065,392.50037620030344,392.8061518999748,392.50037620030344,None,None,392.50037620030344,None,393.30687733022495,None,,,,22017,0001,2022_Nov_14_1225,localizer,2021.1.3,59.93403666909781,
block,scrambled,scrambled013.bmp,,,,,0,149,149,149,,,,,,,,,,,,,,,,,,,,,,,,,,,,,,,,,,,,,,,,,,None,,393.30687733022495,None,393.30687733022495,None,2022-11-14-12:31:33.123921,393.3185085002333,393.6227903999388,393.3185085002333,None,None,393.3185085002333,None,394.1231925299391,None,,,,22017,0001,2022_Nov_14_1225,localizer,2021.1.3,59.93403666909781,
block,scrambled,scrambled054.bmp,,,,,0,150,150,150,,,,,,,,,,,,,,,,,,,,,,,,,,,,,,,,,,,,,,,,,,None,,394.1231925299391,None,394.1231925299391,None,2022-11-14-12:31:33.940481,394.1329310000874,394.43958240002394,394.1329310000874,None,None,394.1329310000874,None,394.94047522991895,None,,,,22017,0001,2022_Nov_14_1225,localizer,2021.1.3,59.93403666909781,
block_end,scrambled,scrambled028.bmp,,,,,0,151,151,151,,,,,,,,,,,,,,,,,,,,,,,,,,,,,,,,,,,,,,,,,,None,,394.94047522991895,None,394.94047522991895,None,2022-11-14-12:31:34.759593,394.9537448002957,395.2563287001103,394.9537448002957,None,None,394.9537448002957,None,395.7590620301664,None,,,,22017,0001,2022_Nov_14_1225,localizer,2021.1.3,59.93403666909781,
block_start,objects,objects043.bmp,,,,,0,152,152,152,,,,,,,,,,,,,,,,,,,,,,,,,,,,,,,,,,,,,,,,,,t,1.7458473001606762,395.75892820023,None,395.75892820023,None,2022-11-14-12:31:37.339606,397.52408580016345,397.8396564000286,397.52408580016345,None,None,397.52408580016345,None,398.3231870301999,None,,,,22017,0001,2022_Nov_14_1225,localizer,2021.1.3,59.93403666909781,
block,objects,objects044.bmp,,,,,0,153,153,153,,,,,,,,,,,,,,,,,,,,,,,,,,,,,,,,,,,,,,,,,,None,,398.3231870301999,None,398.3231870301999,None,2022-11-14-12:31:38.142231,398.33638270013034,398.6396105000749,398.33638270013034,398.33638270013034,None,398.33638270013034,398.33638270013034,399.14007953023537,None,,,,22017,0001,2022_Nov_14_1225,localizer,2021.1.3,59.93403666909781,
block,objects,objects031.bmp,,,,,0,154,154,154,,,,,,,,,,,,,,,,,,,,,,,,,,,,,,,,,,,,,,,,,,None,,399.14007953023537,None,399.14007953023537,None,2022-11-14-12:31:38.957335,399.14047199999914,399.43957860022783,399.14047199999914,None,None,399.14047199999914,None,399.9398326299153,None,,,,22017,0001,2022_Nov_14_1225,localizer,2021.1.3,59.93403666909781,
block,objects,objects012.bmp,,,,,0,155,155,155,,,,,,,,,,,,,,,,,,,,,,,,,,,,,,,,,,,,,,,,,,None,,399.9398326299153,None,399.9398326299153,None,2022-11-14-12:31:39.757880,399.95172170037404,400.2562880003825,399.95172170037404,399.95172170037404,None,399.95172170037404,399.95172170037404,400.7563187301159,None,,,,22017,0001,2022_Nov_14_1225,localizer,2021.1.3,59.93403666909781,
block,objects,objects027.bmp,,,,,0,156,156,156,,,,,,,,,,,,,,,,,,,,,,,,,,,,,,,,,,,,,,,,,,None,,400.7563187301159,None,400.7563187301159,None,2022-11-14-12:31:40.573375,400.75719640031457,401.05609290022403,400.75719640031457,None,None,400.75719640031457,None,401.5566353302449,None,,,,22017,0001,2022_Nov_14_1225,localizer,2021.1.3,59.93403666909781,
block,objects,objects058.bmp,,,,,0,157,157,157,,,,,,,,,,,,,,,,,,,,,,,,,,,,,,,,,,,,,,,,,,None,,401.5566353302449,None,401.5566353302449,None,2022-11-14-12:31:41.374684,401.5684410999529,401.87309390027076,401.5684410999529,401.5684410999529,None,401.5684410999529,401.5684410999529,402.37525253025814,None,,,,22017,0001,2022_Nov_14_1225,localizer,2021.1.3,59.93403666909781,
block,objects,objects035.bmp,,,,,0,158,158,158,,,,,,,,,,,,,,,,,,,,,,,,,,,,,,,,,,,,,,,,,,None,,402.37525253025814,None,402.37525253025814,None,2022-11-14-12:31:42.196248,402.38751710020006,402.6894185002893,402.38751710020006,None,None,402.38751710020006,None,403.1899482303299,None,,,,22017,0001,2022_Nov_14_1225,localizer,2021.1.3,59.93403666909781,
block,objects,objects076.bmp,,,,,0,159,159,159,,,,,,,,,,,,,,,,,,,,,,,,,,,,,,,,,,,,,,,,,,None,,403.1899482303299,None,403.1899482303299,None,2022-11-14-12:31:43.006992,403.1906845001504,403.48976580007,403.1906845001504,None,None,403.1906845001504,None,403.989940030314,None,,,,22017,0001,2022_Nov_14_1225,localizer,2021.1.3,59.93403666909781,
block,objects,objects030.bmp,,,,,0,160,160,160,,,,,,,,,,,,,,,,,,,,,,,,,,,,,,,,,,,,,,,,,,None,,403.989940030314,None,403.989940030314,None,2022-11-14-12:31:43.808986,403.99114740034565,404.3065426000394,403.99114740034565,403.99114740034565,None,403.99114740034565,403.99114740034565,404.8064953301102,None,,,,22017,0001,2022_Nov_14_1225,localizer,2021.1.3,59.93403666909781,
block,objects,objects022.bmp,,,,,0,161,161,161,,,,,,,,,,,,,,,,,,,,,,,,,,,,,,,,,,,,,,,,,,None,,404.8064953301102,None,404.8064953301102,None,2022-11-14-12:31:44.622199,404.8153650001623,405.12303930008784,404.8153650001623,None,None,404.8153650001623,None,405.62367923026903,None,,,,22017,0001,2022_Nov_14_1225,localizer,2021.1.3,59.93403666909781,
block,objects,objects061.bmp,,,,,0,162,162,162,,,,,,,,,,,,,,,,,,,,,,,,,,,,,,,,,,,,,,,,,,None,,405.62367923026903,None,405.62367923026903,None,2022-11-14-12:31:45.440780,405.6241033002734,405.9238011999987,405.6241033002734,None,None,405.6241033002734,None,406.4238967302255,None,,,,22017,0001,2022_Nov_14_1225,localizer,2021.1.3,59.93403666909781,
block,objects,objects016.bmp,,,,,0,163,163,163,,,,,,,,,,,,,,,,,,,,,,,,,,,,,,,,,,,,,,,,,,None,,406.4238967302255,None,406.4238967302255,None,2022-11-14-12:31:46.243930,406.4269396001473,406.74046020023525,406.4269396001473,406.4269396001473,None,406.4269396001473,406.4269396001473,407.24060843028127,None,,,,22017,0001,2022_Nov_14_1225,localizer,2021.1.3,59.93403666909781,
block,objects,objects063.bmp,,,,,0,164,164,164,,,,,,,,,,,,,,,,,,,,,,,,,,,,,,,,,,,,,,,,,,None,,407.24060843028127,None,407.24060843028127,None,2022-11-14-12:31:47.058645,407.25220240000635,407.55617870017886,407.25220240000635,None,None,407.25220240000635,None,408.0567642299458,None,,,,22017,0001,2022_Nov_14_1225,localizer,2021.1.3,59.93403666909781,
block,objects,objects057.bmp,,,,,0,165,165,165,,,,,,,,,,,,,,,,,,,,,,,,,,,,,,,,,,,,,,,,,,None,,408.0567642299458,None,408.0567642299458,None,2022-11-14-12:31:47.874333,408.0675862999633,408.372874900233,408.0675862999633,None,None,408.0675862999633,None,408.8733072302304,None,,,,22017,0001,2022_Nov_14_1225,localizer,2021.1.3,59.93403666909781,
block_end,objects,objects046.bmp,,,,,0,166,166,166,,,,,,,,,,,,,,,,,,,,,,,,,,,,,,,,,,,,,,,,,,None,,408.8733072302304,None,408.8733072302304,None,2022-11-14-12:31:48.690358,408.88410220015794,409.1897237999365,408.88410220015794,None,None,408.88410220015794,None,409.6899240299128,None,,,,22017,0001,2022_Nov_14_1225,localizer,2021.1.3,59.93403666909781,
null_block,null_block,null_block.bmp,,,,,0,167,167,167,,,,,,,,,,,,,,,,,,,,,,,,,,,,,,,,,,,,,,,,,,t,1.8140767002478242,409.68953700037673,None,409.68953700037673,None,2022-11-14-12:31:51.339355,411.52329903030767,None,411.52329903030767,None,None,411.52329903030767,None,411.5330954999663,None,,,,22017,0001,2022_Nov_14_1225,localizer,2021.1.3,59.93403666909781,
block_start,faces,faces036.bmp,,,,,0,168,168,168,,,,,,,,,,,,,,,,,,,,,,,,,,,,,,,,,,,,,,,,,,t,1.958695599809289,423.54493790026754,None,423.54493790026754,None,2022-11-14-12:32:05.342513,425.5352932000533,425.8399587003514,425.5352932000533,None,None,425.5352932000533,None,426.3401675301604,None,,,,22017,0001,2022_Nov_14_1225,localizer,2021.1.3,59.93403666909781,
block,faces,faces067.bmp,,,,,0,169,169,169,,,,,,,,,,,,,,,,,,,,,,,,,,,,,,,,,,,,,,,,,,None,,426.3401675301604,None,426.3401675301604,None,2022-11-14-12:32:06.157220,426.352109500207,426.6568676000461,426.352109500207,None,None,426.352109500207,None,427.15689172996207,None,,,,22017,0001,2022_Nov_14_1225,localizer,2021.1.3,59.93403666909781,
block,faces,faces035.bmp,,,,,0,170,170,170,,,,,,,,,,,,,,,,,,,,,,,,,,,,,,,,,,,,,,,,,,None,,427.15689172996207,None,427.15689172996207,None,2022-11-14-12:32:06.973994,427.168621300254,427.47312760027125,427.168621300254,None,None,427.168621300254,None,427.9735357303172,None,,,,22017,0001,2022_Nov_14_1225,localizer,2021.1.3,59.93403666909781,
block,faces,faces075.bmp,,,,,0,171,171,171,,,,,,,,,,,,,,,,,,,,,,,,,,,,,,,,,,,,,,,,,,None,,427.9735357303172,None,427.9735357303172,None,2022-11-14-12:32:07.790588,427.9846143000759,428.2899707001634,427.9846143000759,None,None,427.9846143000759,None,428.7914062303491,None,,,,22017,0001,2022_Nov_14_1225,localizer,2021.1.3,59.93403666909781,
block,faces,faces063.bmp,,,,,0,172,172,172,,,,,,,,,,,,,,,,,,,,,,,,,,,,,,,,,,,,,,,,,,None,,428.7914062303491,None,428.7914062303491,None,2022-11-14-12:32:08.609614,428.8015156001784,429.10664970008656,428.8015156001784,None,None,428.8015156001784,None,429.6079234302044,None,,,,22017,0001,2022_Nov_14_1225,localizer,2021.1.3,59.93403666909781,
block,faces,faces077.bmp,,,,,0,173,173,173,,,,,,,,,,,,,,,,,,,,,,,,,,,,,,,,,,,,,,,,,,None,,429.6079234302044,None,429.6079234302044,None,2022-11-14-12:32:09.428102,429.6248834002763,429.9250921001658,429.6248834002763,None,None,429.6248834002763,None,430.4246119300835,None,,,,22017,0001,2022_Nov_14_1225,localizer,2021.1.3,59.93403666909781,
block,faces,faces054.bmp,,,,,0,174,174,174,,,,,,,,,,,,,,,,,,,,,,,,,,,,,,,,,,,,,,,,,,None,,430.4246119300835,None,430.4246119300835,None,2022-11-14-12:32:10.244756,430.4403643999249,430.74004420032725,430.4403643999249,None,None,430.4403643999249,None,431.2401110299863,None,,,,22017,0001,2022_Nov_14_1225,localizer,2021.1.3,59.93403666909781,
block,faces,faces017.bmp,,,,,0,175,175,175,,,,,,,,,,,,,,,,,,,,,,,,,,,,,,,,,,,,,,,,,,None,,431.2401110299863,None,431.2401110299863,None,2022-11-14-12:32:11.057167,431.2510498999618,431.55663620028645,431.2510498999618,None,None,431.2510498999618,None,432.05679282993077,None,,,,22017,0001,2022_Nov_14_1225,localizer,2021.1.3,59.93403666909781,
block,faces,faces028.bmp,,,,,0,176,176,176,,,,,,,,,,,,,,,,,,,,,,,,,,,,,,,,,,,,,,,,,,None,,432.05679282993077,None,432.05679282993077,None,2022-11-14-12:32:11.873935,432.06778240017593,432.37354950001463,432.06778240017593,None,None,432.06778240017593,None,432.8740008299239,None,,,,22017,0001,2022_Nov_14_1225,localizer,2021.1.3,59.93403666909781,
block,faces,faces086.bmp,,,,,0,177,177,177,,,,,,,,,,,,,,,,,,,,,,,,,,,,,,,,,,,,,,,,,,None,,432.8740008299239,None,432.8740008299239,None,2022-11-14-12:32:12.692952,432.8755076001398,433.19624100020155,432.8755076001398,None,None,432.8755076001398,None,433.6902010299265,None,,,,22017,0001,2022_Nov_14_1225,localizer,2021.1.3,59.93403666909781,
block,faces,faces052.bmp,,,,,0,178,178,178,,,,,,,,,,,,,,,,,,,,,,,,,,,,,,,,,,,,,,,,,,None,,433.6902010299265,None,433.6902010299265,None,2022-11-14-12:32:13.507258,433.70151490019634,434.0066810999997,433.70151490019634,None,None,433.70151490019634,None,434.5068103301339,None,,,,22017,0001,2022_Nov_14_1225,localizer,2021.1.3,59.93403666909781,
block,faces,faces020.bmp,,,,,0,179,179,179,,,,,,,,,,,,,,,,,,,,,,,,,,,,,,,,,,,,,,,,,,None,,434.5068103301339,None,434.5068103301339,None,2022-11-14-12:32:14.323896,434.51792309992015,434.8233050000854,434.51792309992015,None,None,434.51792309992015,None,435.3237423303537,None,,,,22017,0001,2022_Nov_14_1225,localizer,2021.1.3,59.93403666909781,
block,faces,faces012.bmp,,,,,0,180,180,180,,,,,,,,,,,,,,,,,,,,,,,,,,,,,,,,,,,,,,,,,,None,,435.3237423303537,None,435.3237423303537,None,2022-11-14-12:32:15.140791,435.33549520000815,435.6399672999978,435.33549520000815,None,None,435.33549520000815,None,436.14040153035893,None,,,,22017,0001,2022_Nov_14_1225,localizer,2021.1.3,59.93403666909781,
block,faces,faces012.bmp,,,,,0,181,181,181,,,,,,,,,,,,,,,,,,,,,,,,,,,,,,,,,,,,,,,,,,None,,436.14040153035893,None,436.14040153035893,None,2022-11-14-12:32:15.957455,436.14089959999546,436.4399272999726,436.14089959999546,None,None,436.14089959999546,None,436.94024943029507,None,,,,22017,0001,2022_Nov_14_1225,localizer,2021.1.3,59.93403666909781,
block_end,faces,faces034.bmp,,,,,0,182,182,182,,,,,,,,,,,,,,,,,,,,,,,,,,,,,,,,,,,,,,,,,,None,,436.94024943029507,None,436.94024943029507,None,2022-11-14-12:32:16.759302,436.942032400053,437.2568294000812,436.942032400053,436.942032400053,None,436.942032400053,436.942032400053,437.7468564303592,None,,,,22017,0001,2022_Nov_14_1225,localizer,2021.1.3,59.93403666909781,
block_start,faces,faces075.bmp,,,,,0,183,183,183,,,,,,,,,,,,,,,,,,,,,,,,,,,,,,,,,,,,,,,,,,t,1.7607073998078704,437.7429283000529,None,437.7429283000529,None,2022-11-14-12:32:19.339019,439.52498200023547,439.8400707002729,439.52498200023547,None,None,439.52498200023547,None,440.3401858301833,None,,,,22017,0001,2022_Nov_14_1225,localizer,2021.1.3,59.93403666909781,
block,faces,faces073.bmp,,,,,0,184,184,184,,,,,,,,,,,,,,,,,,,,,,,,,,,,,,,,,,,,,,,,,,None,,440.3401858301833,None,440.3401858301833,None,2022-11-14-12:32:20.157400,440.3507774001919,440.65662150038406,440.3507774001919,None,None,440.3507774001919,None,441.15796013018115,None,,,,22017,0001,2022_Nov_14_1225,localizer,2021.1.3,59.93403666909781,
block,faces,faces043.bmp,,,,,0,185,185,185,,,,,,,,,,,,,,,,,,,,,,,,,,,,,,,,,,,,,,,,,,None,,441.15796013018115,None,441.15796013018115,None,2022-11-14-12:32:20.977141,441.17354129999876,441.473438099958,441.17354129999876,None,None,441.17354129999876,None,441.9755148303695,None,,,,22017,0001,2022_Nov_14_1225,localizer,2021.1.3,59.93403666909781,
block,faces,faces018.bmp,,,,,0,186,186,186,,,,,,,,,,,,,,,,,,,,,,,,,,,,,,,,,,,,,,,,,,None,,441.9755148303695,None,441.9755148303695,None,2022-11-14-12:32:21.796514,441.980853700079,442.29012989997864,441.980853700079,None,None,441.980853700079,None,442.79125083032994,None,,,,22017,0001,2022_Nov_14_1225,localizer,2021.1.3,59.93403666909781,
block,faces,faces011.bmp,,,,,0,187,187,187,,,,,,,,,,,,,,,,,,,,,,,,,,,,,,,,,,,,,,,,,,None,,442.79125083032994,None,442.79125083032994,None,2022-11-14-12:32:22.610367,442.7935087000951,443.1068824999966,442.7935087000951,None,None,442.7935087000951,None,443.60722453035413,None,,,,22017,0001,2022_Nov_14_1225,localizer,2021.1.3,59.93403666909781,
block,faces,faces038.bmp,,,,,0,188,188,188,,,,,,,,,,,,,,,,,,,,,,,,,,,,,,,,,,,,,,,,,,None,,443.60722453035413,None,443.60722453035413,None,2022-11-14-12:32:23.424277,443.62489880016074,443.92396849999204,443.62489880016074,None,None,443.62489880016074,None,444.4240593302995,None,,,,22017,0001,2022_Nov_14_1225,localizer,2021.1.3,59.93403666909781,
block,faces,faces058.bmp,,,,,0,189,189,189,,,,,,,,,,,,,,,,,,,,,,,,,,,,,,,,,,,,,,,,,,None,,444.4240593302995,None,444.4240593302995,None,2022-11-14-12:32:24.242294,444.4248413001187,444.7395004001446,444.4248413001187,None,None,444.4248413001187,None,445.2400846302509,None,,,,22017,0001,2022_Nov_14_1225,localizer,2021.1.3,59.93403666909781,
block,faces,faces014.bmp,,,,,0,190,190,190,,,,,,,,,,,,,,,,,,,,,,,,,,,,,,,,,,,,,,,,,,None,,445.2400846302509,None,445.2400846302509,None,2022-11-14-12:32:25.057659,445.250472899992,445.5572855002247,445.250472899992,None,None,445.250472899992,None,446.0573649302125,None,,,,22017,0001,2022_Nov_14_1225,localizer,2021.1.3,59.93403666909781,
block,faces,faces002.bmp,,,,,0,191,191,191,,,,,,,,,,,,,,,,,,,,,,,,,,,,,,,,,,,,,,,,,,None,,446.0573649302125,None,446.0573649302125,None,2022-11-14-12:32:25.875386,446.0702213002369,446.37329869996756,446.0702213002369,None,None,446.0702213002369,None,446.87329003009944,None,,,,22017,0001,2022_Nov_14_1225,localizer,2021.1.3,59.93403666909781,
block,faces,faces025.bmp,,,,,0,192,192,192,,,,,,,,,,,,,,,,,,,,,,,,,,,,,,,,,,,,,,,,,,None,,446.87329003009944,None,446.87329003009944,None,2022-11-14-12:32:26.690350,446.8830276001245,447.19006710033864,446.8830276001245,None,None,446.8830276001245,None,447.68989833006634,None,,,,22017,0001,2022_Nov_14_1225,localizer,2021.1.3,59.93403666909781,
block,faces,faces034.bmp,,,,,0,193,193,193,,,,,,,,,,,,,,,,,,,,,,,,,,,,,,,,,,,,,,,,,,None,,447.68989833006634,None,447.68989833006634,None,2022-11-14-12:32:27.507129,447.6910097999498,448.00663179997355,447.6910097999498,None,None,447.6910097999498,None,448.4902629300952,None,,,,22017,0001,2022_Nov_14_1225,localizer,2021.1.3,59.93403666909781,
block,faces,faces088.bmp,,,,,0,194,194,194,,,,,,,,,,,,,,,,,,,,,,,,,,,,,,,,,,,,,,,,,,None,,448.4902629300952,None,448.4902629300952,None,2022-11-14-12:32:28.308320,448.50331080006436,448.8069339999929,448.50331080006436,448.50331080006436,None,448.50331080006436,448.50331080006436,449.30720133036374,None,,,,22017,0001,2022_Nov_14_1225,localizer,2021.1.3,59.93403666909781,
block,faces,faces021.bmp,,,,,0,195,195,195,,,,,,,,,,,,,,,,,,,,,,,,,,,,,,,,,,,,,,,,,,None,,449.30720133036374,None,449.30720133036374,None,2022-11-14-12:32:29.124396,449.31991220032796,449.6231331001036,449.31991220032796,None,None,449.31991220032796,None,450.1237872301601,None,,,,22017,0001,2022_Nov_14_1225,localizer,2021.1.3,59.93403666909781,
block,faces,faces076.bmp,,,,,0,196,196,196,,,,,,,,,,,,,,,,,,,,,,,,,,,,,,,,,,,,,,,,,,None,,450.1237872301601,None,450.1237872301601,None,2022-11-14-12:32:29.941036,450.1243616002612,450.43987820018083,450.1243616002612,None,None,450.1243616002612,None,450.92348603000863,None,,,,22017,0001,2022_Nov_14_1225,localizer,2021.1.3,59.93403666909781,
block_end,faces,faces003.bmp,,,,,0,197,197,197,,,,,,,,,,,,,,,,,,,,,,,,,,,,,,,,,,,,,,,,,,None,,450.92348603000863,None,450.92348603000863,None,2022-11-14-12:32:30.741546,450.9243270000443,451.2400293000974,450.9243270000443,450.9243270000443,None,450.9243270000443,450.9243270000443,451.72365363016723,None,,,,22017,0001,2022_Nov_14_1225,localizer,2021.1.3,59.93403666909781,
block_start,scenes,scenes059.bmp,,,,,0,198,198,198,,,,,,,,,,,,,,,,,,,,,,,,,,,,,,,,,,,,,,,,,,t,1.7798917000181973,451.7237996002659,None,451.7237996002659,None,2022-11-14-12:32:33.339714,453.52424520021304,453.8240122999996,453.52424520021304,None,None,453.52424520021304,None,454.32500913022085,None,,,,22017,0001,2022_Nov_14_1225,localizer,2021.1.3,59.93403666909781,
block,scenes,scenes030.bmp,,,,,0,199,199,199,,,,,,,,,,,,,,,,,,,,,,,,,,,,,,,,,,,,,,,,,,None,,454.32500913022085,None,454.32500913022085,None,2022-11-14-12:32:34.146228,454.33790499996394,454.63968730019405,454.33790499996394,454.33790499996394,None,454.33790499996394,454.33790499996394,455.1401410301216,None,,,,22017,0001,2022_Nov_14_1225,localizer,2021.1.3,59.93403666909781,
block,scenes,scenes037.bmp,,,,,0,200,200,200,,,,,,,,,,,,,,,,,,,,,,,,,,,,,,,,,,,,,,,,,,None,,455.1401410301216,None,455.1401410301216,None,2022-11-14-12:32:34.957202,455.15088960016146,455.45632590027526,455.15088960016146,None,None,455.15088960016146,None,455.9567551303655,None,,,,22017,0001,2022_Nov_14_1225,localizer,2021.1.3,59.93403666909781,
block,scenes,scenes068.bmp,,,,,0,201,201,201,,,,,,,,,,,,,,,,,,,,,,,,,,,,,,,,,,,,,,,,,,None,,455.9567551303655,None,455.9567551303655,None,2022-11-14-12:32:35.773816,455.96768940007314,456.27302240021527,455.96768940007314,None,None,455.96768940007314,None,456.77422453025355,None,,,,22017,0001,2022_Nov_14_1225,localizer,2021.1.3,59.93403666909781,
block,scenes,scenes033.bmp,,,,,0,202,202,202,,,,,,,,,,,,,,,,,,,,,,,,,,,,,,,,,,,,,,,,,,None,,456.77422453025355,None,456.77422453025355,None,2022-11-14-12:32:36.592272,456.77476700022817,457.0900360001251,456.77476700022817,None,None,456.77476700022817,None,457.59026183029636,None,,,,22017,0001,2022_Nov_14_1225,localizer,2021.1.3,59.93403666909781,
block,scenes,scenes078.bmp,,,,,0,203,203,203,,,,,,,,,,,,,,,,,,,,,,,,,,,,,,,,,,,,,,,,,,None,,457.59026183029636,None,457.59026183029636,None,2022-11-14-12:32:37.407320,457.5912558999844,457.8903267001733,457.5912558999844,None,None,457.5912558999844,None,458.4068772302009,None,,,,22017,0001,2022_Nov_14_1225,localizer,2021.1.3,59.93403666909781,
block,scenes,scenes057.bmp,,,,,0,204,204,204,,,,,,,,,,,,,,,,,,,,,,,,,,,,,,,,,,,,,,,,,,None,,458.4068772302009,None,458.4068772302009,None,2022-11-14-12:32:38.223939,458.41404050029814,458.7230575000867,458.41404050029814,None,None,458.41404050029814,None,459.22344762999563,None,,,,22017,0001,2022_Nov_14_1225,localizer,2021.1.3,59.93403666909781,
block,scenes,scenes070.bmp,,,,,0,205,205,205,,,,,,,,,,,,,,,,,,,,,,,,,,,,,,,,,,,,,,,,,,None,,459.22344762999563,None,459.22344762999563,None,2022-11-14-12:32:39.040510,459.23435090016574,459.5398840000853,459.23435090016574,None,None,459.23435090016574,None,460.040193930082,None,,,,22017,0001,2022_Nov_14_1225,localizer,2021.1.3,59.93403666909781,
block,scenes,scenes085.bmp,,,,,0,206,206,206,,,,,,,,,,,,,,,,,,,,,,,,,,,,,,,,,,,,,,,,,,None,,460.040193930082,None,460.040193930082,None,2022-11-14-12:32:39.857895,460.0539711001329,460.35673210024834,460.0539711001329,None,None,460.0539711001329,None,460.85825133025645,None,,,,22017,0001,2022_Nov_14_1225,localizer,2021.1.3,59.93403666909781,
block,scenes,scenes023.bmp,,,,,0,207,207,207,,,,,,,,,,,,,,,,,,,,,,,,,,,,,,,,,,,,,,,,,,None,,460.85825133025645,None,460.85825133025645,None,2022-11-14-12:32:40.676459,460.8714775000699,461.1731370999478,460.8714775000699,None,None,460.8714775000699,None,461.67349192993714,None,,,,22017,0001,2022_Nov_14_1225,localizer,2021.1.3,59.93403666909781,
block,scenes,scenes049.bmp,,,,,0,208,208,208,,,,,,,,,,,,,,,,,,,,,,,,,,,,,,,,,,,,,,,,,,None,,461.67349192993714,None,461.67349192993714,None,2022-11-14-12:32:41.490721,461.6845407001674,461.9898647000082,461.6845407001674,None,None,461.6845407001674,None,462.4902620299719,None,,,,22017,0001,2022_Nov_14_1225,localizer,2021.1.3,59.93403666909781,
block,scenes,scenes074.bmp,,,,,0,209,209,209,,,,,,,,,,,,,,,,,,,,,,,,,,,,,,,,,,,,,,,,,,None,,462.4902620299719,None,462.4902620299719,None,2022-11-14-12:32:42.307325,462.4912316999398,462.7903192001395,462.4912316999398,None,None,462.4912316999398,None,463.2905528301373,None,,,,22017,0001,2022_Nov_14_1225,localizer,2021.1.3,59.93403666909781,
block,scenes,scenes022.bmp,,,,,0,210,210,210,,,,,,,,,,,,,,,,,,,,,,,,,,,,,,,,,,,,,,,,,,None,,463.2905528301373,None,463.2905528301373,None,2022-11-14-12:32:43.109606,463.29349670000374,463.60721040004864,463.29349670000374,463.29349670000374,None,463.29349670000374,463.29349670000374,464.1068867303431,None,,,,22017,0001,2022_Nov_14_1225,localizer,2021.1.3,59.93403666909781,
block,scenes,scenes013.bmp,,,,,0,211,211,211,,,,,,,,,,,,,,,,,,,,,,,,,,,,,,,,,,,,,,,,,,None,,464.1068867303431,None,464.1068867303431,None,2022-11-14-12:32:43.924309,464.10776050016284,464.4067454999313,464.10776050016284,None,None,464.10776050016284,None,464.907632930018,None,,,,22017,0001,2022_Nov_14_1225,localizer,2021.1.3,59.93403666909781,
block_end,scenes,scenes024.bmp,,,,,0,212,212,212,,,,,,,,,,,,,,,,,,,,,,,,,,,,,,,,,,,,,,,,,,None,,464.907632930018,None,464.907632930018,None,2022-11-14-12:32:44.727675,464.92262790026143,465.223558800295,464.92262790026143,464.92262790026143,None,464.92262790026143,464.92262790026143,465.730151930172,None,,,,22017,0001,2022_Nov_14_1225,localizer,2021.1.3,59.93403666909781,
block_start,objects,objects009.bmp,,,,,0,213,213,213,,,,,,,,,,,,,,,,,,,,,,,,,,,,,,,,,,,,,,,,,,t,1.7773525998927653,465.72616690024734,None,465.72616690024734,None,2022-11-14-12:32:47.339612,467.53284740028903,467.83996000001207,467.53284740028903,None,None,467.53284740028903,None,468.34026123005896,None,,,,22017,0001,2022_Nov_14_1225,localizer,2021.1.3,59.93403666909781,
block,objects,objects088.bmp,,,,,0,214,214,214,,,,,,,,,,,,,,,,,,,,,,,,,,,,,,,,,,,,,,,,,,None,,468.34026123005896,None,468.34026123005896,None,2022-11-14-12:32:48.157550,468.34089500037953,468.63984220009297,468.34089500037953,None,None,468.34089500037953,None,469.1404113302007,None,,,,22017,0001,2022_Nov_14_1225,localizer,2021.1.3,59.93403666909781,
block,objects,objects025.bmp,,,,,0,215,215,215,,,,,,,,,,,,,,,,,,,,,,,,,,,,,,,,,,,,,,,,,,None,,469.1404113302007,None,469.1404113302007,None,2022-11-14-12:32:48.959713,469.1521816002205,469.4566955999471,469.1521816002205,469.1521816002205,None,469.1521816002205,469.1521816002205,469.95715823005884,None,,,,22017,0001,2022_Nov_14_1225,localizer,2021.1.3,59.93403666909781,
block,objects,objects069.bmp,,,,,0,216,216,216,,,,,,,,,,,,,,,,,,,,,,,,,,,,,,,,,,,,,,,,,,None,,469.95715823005884,None,469.95715823005884,None,2022-11-14-12:32:49.774407,469.9680675002746,470.27347860019654,469.9680675002746,None,None,469.9680675002746,None,470.7735296299681,None,,,,22017,0001,2022_Nov_14_1225,localizer,2021.1.3,59.93403666909781,
block,objects,objects032.bmp,,,,,0,217,217,217,,,,,,,,,,,,,,,,,,,,,,,,,,,,,,,,,,,,,,,,,,None,,470.7735296299681,None,470.7735296299681,None,2022-11-14-12:32:50.590599,470.7748541003093,471.0899468003772,470.7748541003093,None,None,470.7748541003093,None,471.59029743010177,None,,,,22017,0001,2022_Nov_14_1225,localizer,2021.1.3,59.93403666909781,
block,objects,objects037.bmp,,,,,0,218,218,218,,,,,,,,,,,,,,,,,,,,,,,,,,,,,,,,,,,,,,,,,,None,,471.59029743010177,None,471.59029743010177,None,2022-11-14-12:32:51.407361,471.6008462002501,471.9067321000621,471.6008462002501,None,None,471.6008462002501,None,472.407050930243,None,,,,22017,0001,2022_Nov_14_1225,localizer,2021.1.3,59.93403666909781,
block,objects,objects037.bmp,,,,,0,219,219,219,,,,,,,,,,,,,,,,,,,,,,,,,,,,,,,,,,,,,,,,,,None,,472.407050930243,None,472.407050930243,None,2022-11-14-12:32:52.224116,472.4074311000295,472.71345490030944,472.4074311000295,None,y,472.4074311000295,None,473.2077937301248,None,0.7214164999313653,,,22017,0001,2022_Nov_14_1225,localizer,2021.1.3,59.93403666909781,
block,objects,objects040.bmp,,,,,0,220,220,220,,,,,,,,,,,,,,,,,,,,,,,,,,,,,,,,,,,,,,,,,,None,,473.2077937301248,None,473.2077937301248,None,2022-11-14-12:32:53.028046,473.22205050010234,473.5234425999224,473.22205050010234,473.22205050010234,None,473.22205050010234,473.22205050010234,474.0239572299644,None,,,,22017,0001,2022_Nov_14_1225,localizer,2021.1.3,59.93403666909781,
block,objects,objects075.bmp,,,,,0,221,221,221,,,,,,,,,,,,,,,,,,,,,,,,,,,,,,,,,,,,,,,,,,None,,474.0239572299644,None,474.0239572299644,None,2022-11-14-12:32:53.841238,474.03460740018636,474.3399952002801,474.03460740018636,None,None,474.03460740018636,None,474.8402391302399,None,,,,22017,0001,2022_Nov_14_1225,localizer,2021.1.3,59.93403666909781,
block,objects,objects058.bmp,,,,,0,222,222,222,,,,,,,,,,,,,,,,,,,,,,,,,,,,,,,,,,,,,,,,,,None,,474.8402391302399,None,474.8402391302399,None,2022-11-14-12:32:54.657307,474.8411711999215,475.15660380013287,474.8411711999215,None,None,474.8411711999215,None,475.6402323300019,None,,,,22017,0001,2022_Nov_14_1225,localizer,2021.1.3,59.93403666909781,
block,objects,objects079.bmp,,,,,0,223,223,223,,,,,,,,,,,,,,,,,,,,,,,,,,,,,,,,,,,,,,,,,,None,,475.6402323300019,None,475.6402323300019,None,2022-11-14-12:32:55.459003,475.6512037003413,475.95666170027107,475.6512037003413,475.6512037003413,None,475.6512037003413,475.6512037003413,476.45692613003774,None,,,,22017,0001,2022_Nov_14_1225,localizer,2021.1.3,59.93403666909781,
block,objects,objects030.bmp,,,,,0,224,224,224,,,,,,,,,,,,,,,,,,,,,,,,,,,,,,,,,,,,,,,,,,None,,476.45692613003774,None,476.45692613003774,None,2022-11-14-12:32:56.273992,476.4576365002431,476.7566432999447,476.4576365002431,None,None,476.4576365002431,None,477.2573466303758,None,,,,22017,0001,2022_Nov_14_1225,localizer,2021.1.3,59.93403666909781,
block,objects,objects034.bmp,,,,,0,225,225,225,,,,,,,,,,,,,,,,,,,,,,,,,,,,,,,,,,,,,,,,,,None,,477.2573466303758,None,477.2573466303758,None,2022-11-14-12:32:57.076401,477.2601382001303,477.5739100999199,477.2601382001303,477.2601382001303,None,477.2601382001303,477.2601382001303,478.07392013007774,None,,,,22017,0001,2022_Nov_14_1225,localizer,2021.1.3,59.93403666909781,
block,objects,objects085.bmp,,,,,0,226,226,226,,,,,,,,,,,,,,,,,,,,,,,,,,,,,,,,,,,,,,,,,,None,,478.07392013007774,None,478.07392013007774,None,2022-11-14-12:32:57.890984,478.084739100188,478.3901454000734,478.084739100188,None,None,478.084739100188,None,478.8902093300596,None,,,,22017,0001,2022_Nov_14_1225,localizer,2021.1.3,59.93403666909781,
block_end,objects,objects024.bmp,,,,,0,227,227,227,,,,,,,,,,,,,,,,,,,,,,,,,,,,,,,,,,,,,,,,,,None,,478.8902093300596,None,478.8902093300596,None,2022-11-14-12:32:58.707277,478.8994130003266,479.20693110022694,478.8994130003266,None,None,478.8994130003266,None,479.7069885300472,None,,,,22017,0001,2022_Nov_14_1225,localizer,2021.1.3,59.93403666909781,
null_block,null_block,null_block.bmp,,,,,0,228,228,228,,,,,,,,,,,,,,,,,,,,,,,,,,,,,,,,,,,,,,,,,,t,1.7968160002492368,479.7068187003024,None,479.7068187003024,None,2022-11-14-12:33:01.340915,481.52386953011154,None,481.52386953011154,None,None,481.52386953011154,None,481.52646060008556,None,,,,22017,0001,2022_Nov_14_1225,localizer,2021.1.3,59.93403666909781,
block_start,scrambled,scrambled039.bmp,,,,,0,229,229,229,,,,,,,,,,,,,,,,,,,,,,,,,,,,,,,,,,,,,,,,,,t,1.9631491000764072,493.5404318002984,None,493.5404318002984,None,2022-11-14-12:33:15.341071,495.524373000022,495.8235198999755,495.524373000022,None,None,495.524373000022,None,496.3239342303015,None,,,,22017,0001,2022_Nov_14_1225,localizer,2021.1.3,59.93403666909781,
block,scrambled,scrambled080.bmp,,,,,0,230,230,230,,,,,,,,,,,,,,,,,,,,,,,,,,,,,,,,,,,,,,,,,,None,,496.3239342303015,None,496.3239342303015,None,2022-11-14-12:33:16.142314,496.3245899002068,496.62380720023066,496.3245899002068,496.3245899002068,None,496.3245899002068,496.3245899002068,497.12381633026524,None,,,,22017,0001,2022_Nov_14_1225,localizer,2021.1.3,59.93403666909781,
block,scrambled,scrambled056.bmp,,,,,0,231,231,231,,,,,,,,,,,,,,,,,,,,,,,,,,,,,,,,,,,,,,,,,,None,,497.12381633026524,None,497.12381633026524,None,2022-11-14-12:33:16.941884,497.13815980032086,497.440099300351,497.13815980032086,497.13815980032086,None,497.13815980032086,497.13815980032086,497.9409263299778,None,,,,22017,0001,2022_Nov_14_1225,localizer,2021.1.3,59.93403666909781,
block,scrambled,scrambled002.bmp,,,,,0,232,232,232,,,,,,,,,,,,,,,,,,,,,,,,,,,,,,,,,,,,,,,,,,None,,497.9409263299778,None,497.9409263299778,None,2022-11-14-12:33:17.758421,497.949961300008,498.2570716999471,497.949961300008,None,None,497.949961300008,None,498.7584517302923,None,,,,22017,0001,2022_Nov_14_1225,localizer,2021.1.3,59.93403666909781,
block,scrambled,scrambled065.bmp,,,,,0,233,233,233,,,,,,,,,,,,,,,,,,,,,,,,,,,,,,,,,,,,,,,,,,None,,498.7584517302923,None,498.7584517302923,None,2022-11-14-12:33:18.576509,498.75871139997616,499.07369820028543,498.75871139997616,None,None,498.75871139997616,None,499.5736421302892,None,,,,22017,0001,2022_Nov_14_1225,localizer,2021.1.3,59.93403666909781,
block,scrambled,scrambled062.bmp,,,,,0,234,234,234,,,,,,,,,,,,,,,,,,,,,,,,,,,,,,,,,,,,,,,,,,None,,499.5736421302892,None,499.5736421302892,None,2022-11-14-12:33:19.390715,499.57966510020196,499.89031610032544,499.57966510020196,None,None,499.57966510020196,None,500.3908156303689,None,,,,22017,0001,2022_Nov_14_1225,localizer,2021.1.3,59.93403666909781,
block,scrambled,scrambled032.bmp,,,,,0,235,235,235,,,,,,,,,,,,,,,,,,,,,,,,,,,,,,,,,,,,,,,,,,None,,500.3908156303689,None,500.3908156303689,None,2022-11-14-12:33:20.207864,500.39123880025,500.69410960003734,500.39123880025,None,None,500.39123880025,None,501.19113173037766,None,,,,22017,0001,2022_Nov_14_1225,localizer,2021.1.3,59.93403666909781,
block,scrambled,scrambled042.bmp,,,,,0,236,236,236,,,,,,,,,,,,,,,,,,,,,,,,,,,,,,,,,,,,,,,,,,None,,501.19113173037766,None,501.19113173037766,None,2022-11-14-12:33:21.011358,501.1943124001846,501.50753109995276,501.1943124001846,501.1943124001846,None,501.1943124001846,501.1943124001846,502.0080216301605,None,,,,22017,0001,2022_Nov_14_1225,localizer,2021.1.3,59.93403666909781,
block,scrambled,scrambled063.bmp,,,,,0,237,237,237,,,,,,,,,,,,,,,,,,,,,,,,,,,,,,,,,,,,,,,,,,None,,502.0080216301605,None,502.0080216301605,None,2022-11-14-12:33:21.826182,502.0206369999796,502.3235443001613,502.0206369999796,None,None,502.0206369999796,None,502.82371323024853,None,,,,22017,0001,2022_Nov_14_1225,localizer,2021.1.3,59.93403666909781,
block,scrambled,scrambled069.bmp,,,,,0,238,238,238,,,,,,,,,,,,,,,,,,,,,,,,,,,,,,,,,,,,,,,,,,None,,502.82371323024853,None,502.82371323024853,None,2022-11-14-12:33:22.640788,502.82474589999765,503.1402074000798,502.82474589999765,None,None,502.82474589999765,None,503.6238530299626,None,,,,22017,0001,2022_Nov_14_1225,localizer,2021.1.3,59.93403666909781,
block,scrambled,scrambled034.bmp,,,,,0,239,239,239,,,,,,,,,,,,,,,,,,,,,,,,,,,,,,,,,,,,,,,,,,None,,503.6238530299626,None,503.6238530299626,None,2022-11-14-12:33:23.441923,503.63474150002,503.9402340003289,503.63474150002,503.63474150002,None,503.63474150002,503.63474150002,504.44046383006497,None,,,,22017,0001,2022_Nov_14_1225,localizer,2021.1.3,59.93403666909781,
block,scrambled,scrambled059.bmp,,,,,0,240,240,240,,,,,,,,,,,,,,,,,,,,,,,,,,,,,,,,,,,,,,,,,,None,,504.44046383006497,None,504.44046383006497,None,2022-11-14-12:33:24.257536,504.44993430003524,504.75866390019655,504.44993430003524,None,None,504.44993430003524,None,505.25761713022365,None,,,,22017,0001,2022_Nov_14_1225,localizer,2021.1.3,59.93403666909781,
block,scrambled,scrambled084.bmp,,,,,0,241,241,241,,,,,,,,,,,,,,,,,,,,,,,,,,,,,,,,,,,,,,,,,,None,,505.25761713022365,None,505.25761713022365,None,2022-11-14-12:33:25.074889,505.25813750037923,505.5643978002481,505.25813750037923,None,None,505.25813750037923,None,506.0573848302476,None,,,,22017,0001,2022_Nov_14_1225,localizer,2021.1.3,59.93403666909781,
block,scrambled,scrambled064.bmp,,,,,0,242,242,242,,,,,,,,,,,,,,,,,,,,,,,,,,,,,,,,,,,,,,,,,,None,,506.0573848302476,None,506.0573848302476,None,2022-11-14-12:33:25.876668,506.059460000135,506.37388289999217,506.059460000135,506.059460000135,None,506.059460000135,506.059460000135,506.8744142300449,None,,,,22017,0001,2022_Nov_14_1225,localizer,2021.1.3,59.93403666909781,
block_end,scrambled,scrambled045.bmp,,,,,0,243,243,243,,,,,,,,,,,,,,,,,,,,,,,,,,,,,,,,,,,,,,,,,,None,,506.8744142300449,None,506.8744142300449,None,2022-11-14-12:33:26.692566,506.87515019997954,507.19081290019676,506.87515019997954,None,None,506.87515019997954,None,507.6908159300685,None,,,,22017,0001,2022_Nov_14_1225,localizer,2021.1.3,59.93403666909781,
,,,,,,,,,,,,,,,,,,,,,,,,,,,,,,,,,,,,,,,,,,,,,,,,,,,,,,,,,,,,,,,,,,,,,507.6901327003725,None,,,,,,,
