block_type,condition,img_name,Button.thisRepN,Button.thisTrialN,Button.thisN,Button.thisIndex,trials.thisRepN,trials.thisTrialN,trials.thisN,trials.thisIndex,Ready_experimenter_text.started,Ready_experimenter_text.stopped,Ready_experimenter_resp.keys,Ready_experimenter_resp.rt,Ready_experimenter_resp.started,Ready_experimenter_resp.stopped,Alignment_background.started,Alignment_background.stopped,Alignment_image.started,Alignment_image.stopped,Alignment_resp.keys,Alignment_resp.rt,Alignment_resp.started,Alignment_resp.stopped,Button_text.started,Button_text.stopped,Index_text.started,Index_text.stopped,Index_resp.keys,Index_resp.rt,Index_resp.started,Index_resp.stopped,Middle_text.started,Middle_text.stopped,Middle_resp.keys,Middle_resp.rt,Middle_resp.started,Middle_resp.stopped,Repeat_text.started,Repeat_text.stopped,Repeat_resp.keys,Repeat_resp.corr,Repeat_resp.rt,Repeat_resp.started,Repeat_resp.stopped,instruction_text.started,instruction_text.stopped,key_resp.keys,key_resp.rt,key_resp.started,key_resp.stopped,scanner_t.keys,scanner_t.rt,scanner_t.started,scanner_t.stopped,fixation_wait_for_t.started,fixation_wait_for_t.stopped,real_timestamp_trial_start,image.started,image.stopped,fixation.started,fixation.stopped,repeat_response.keys,repeat_response.started,repeat_response.stopped,fixation_null.started,fixation_null.stopped,repeat_response.rt,end_text.started,end_text.stopped,participant,run,date,expName,psychopyVersion,frameRate,
,,,,,,,,,,,10.745418899925426,None,return,111.55290740006603,10.745418899925426,None,,,,,,,,,,,,,,,,,,,,,,,,,,,,,,,,,,,,,,,,,,,,,,,,,,,,,,,22016,0001,2022_Oct_18_1512,localizer,2021.1.3,59.72392017631347,
,,,,,,,,,,,,,,,,,122.3454704999458,None,122.3454704999458,None,return,4.769056900171563,122.3454704999458,None,,,,,,,,,,,,,,,,,,,,,,,,,,,,,,,,,,,,,,,,,,,,,,,22016,0001,2022_Oct_18_1512,localizer,2021.1.3,59.72392017631347,
,,,0,0,0,0,,,,,,,,,,,,,,,,,,,127.13673279993236,None,128.1542191999033,None,y,3.700082799885422,128.1542191999033,None,131.88153919996694,None,b,2.3389876999426633,131.88153919996694,None,134.24872300005518,None,n,0,1.3334073000587523,134.24872300005518,None,,,,,,,,,,,,,,,,,,,,,,,,,,22016,0001,2022_Oct_18_1512,localizer,2021.1.3,59.72392017631347,
,,,,,,,,,,,,,,,,,,,,,,,,,,,,,,,,,,,,,,,,,,,,,,135.59851659997366,None,y,34.80487130000256,135.59851659997366,None,,,,,,,,,,,,,,,,,,,,22016,0001,2022_Oct_18_1512,localizer,2021.1.3,59.72392017631347,
block_start,scenes,scenes069.bmp,,,,,0,0,0,0,,,,,,,,,,,,,,,,,,,,,,,,,,,,,,,,,,,,,,,,,,t,18.18865600018762,170.49873930006288,None,170.49873930006288,None,2022-10-18-15:15:25.718508,188.72544650011696,189.0317090000026,188.72544650011696,None,None,188.72544650011696,None,189.53152259003838,None,,,,22016,0001,2022_Oct_18_1512,localizer,2021.1.3,59.72392017631347,
block,scenes,scenes065.bmp,,,,,0,1,1,1,,,,,,,,,,,,,,,,,,,,,,,,,,,,,,,,,,,,,,,,,,None,,189.53152259003838,None,189.53152259003838,None,2022-10-18-15:15:26.538510,189.54429590003565,189.8487605000846,189.54429590003565,None,None,189.54429590003565,None,190.3487401901046,None,,,,22016,0001,2022_Oct_18_1512,localizer,2021.1.3,59.72392017631347,
block,scenes,scenes059.bmp,,,,,0,2,2,2,,,,,,,,,,,,,,,,,,,,,,,,,,,,,,,,,,,,,,,,,,None,,190.3487401901046,None,190.3487401901046,None,2022-10-18-15:15:27.354694,190.3599704001099,190.66507170000114,190.3599704001099,None,None,190.3599704001099,None,191.16501329008025,None,,,,22016,0001,2022_Oct_18_1512,localizer,2021.1.3,59.72392017631347,
block,scenes,scenes049.bmp,,,,,0,3,3,3,,,,,,,,,,,,,,,,,,,,,,,,,,,,,,,,,,,,,,,,,,None,,191.16501329008025,None,191.16501329008025,None,2022-10-18-15:15:28.169812,191.17611690005288,191.48166080005467,191.17611690005288,None,None,191.17611690005288,None,191.98145578994882,None,,,,22016,0001,2022_Oct_18_1512,localizer,2021.1.3,59.72392017631347,
block,scenes,scenes062.bmp,,,,,0,4,4,4,,,,,,,,,,,,,,,,,,,,,,,,,,,,,,,,,,,,,,,,,,None,,191.98145578994882,None,191.98145578994882,None,2022-10-18-15:15:28.986269,191.99298999994062,192.29835029994138,191.99298999994062,None,None,191.99298999994062,None,192.79843999010046,None,,,,22016,0001,2022_Oct_18_1512,localizer,2021.1.3,59.72392017631347,
block,scenes,scenes054.bmp,,,,,0,5,5,5,,,,,,,,,,,,,,,,,,,,,,,,,,,,,,,,,,,,,,,,,,None,,192.79843999010046,None,192.79843999010046,None,2022-10-18-15:15:29.803422,192.80951520008966,193.11502550006844,192.80951520008966,None,None,192.80951520008966,None,193.61593289005106,None,,,,22016,0001,2022_Oct_18_1512,localizer,2021.1.3,59.72392017631347,
block,scenes,scenes084.bmp,,,,,0,6,6,6,,,,,,,,,,,,,,,,,,,,,,,,,,,,,,,,,,,,,,,,,,None,,193.61593289005106,None,193.61593289005106,None,2022-10-18-15:15:30.622839,193.6288650999777,193.9316601001192,193.6288650999777,None,None,193.6288650999777,None,194.43128688989674,None,,,,22016,0001,2022_Oct_18_1512,localizer,2021.1.3,59.72392017631347,
block,scenes,scenes061.bmp,,,,,0,7,7,7,,,,,,,,,,,,,,,,,,,,,,,,,,,,,,,,,,,,,,,,,,None,,194.43128688989674,None,194.43128688989674,None,2022-10-18-15:15:31.436458,194.44165139994584,194.7487614999991,194.44165139994584,None,None,194.44165139994584,None,195.2483633899363,None,,,,22016,0001,2022_Oct_18_1512,localizer,2021.1.3,59.72392017631347,
block,scenes,scenes075.bmp,,,,,0,8,8,8,,,,,,,,,,,,,,,,,,,,,,,,,,,,,,,,,,,,,,,,,,None,,195.2483633899363,None,195.2483633899363,None,2022-10-18-15:15:32.253345,195.2596078000497,195.5653148998972,195.2596078000497,None,None,195.2596078000497,None,196.06526309002658,None,,,,22016,0001,2022_Oct_18_1512,localizer,2021.1.3,59.72392017631347,
block,scenes,scenes042.bmp,,,,,0,9,9,9,,,,,,,,,,,,,,,,,,,,,,,,,,,,,,,,,,,,,,,,,,None,,196.06526309002658,None,196.06526309002658,None,2022-10-18-15:15:33.070034,196.076379599981,196.38220219989307,196.076379599981,None,None,196.076379599981,None,196.88204079011922,None,,,,22016,0001,2022_Oct_18_1512,localizer,2021.1.3,59.72392017631347,
block,scenes,scenes020.bmp,,,,,0,10,10,10,,,,,,,,,,,,,,,,,,,,,,,,,,,,,,,,,,,,,,,,,,None,,196.88204079011922,None,196.88204079011922,None,2022-10-18-15:15:33.887995,196.89402280002832,197.1983405998908,196.89402280002832,None,None,196.89402280002832,None,197.6984969899757,None,,,,22016,0001,2022_Oct_18_1512,localizer,2021.1.3,59.72392017631347,
block,scenes,scenes079.bmp,,,,,0,11,11,11,,,,,,,,,,,,,,,,,,,,,,,,,,,,,,,,,,,,,,,,,,None,,197.6984969899757,None,197.6984969899757,None,2022-10-18-15:15:34.703269,197.7098858000245,198.0154579000082,197.7098858000245,None,None,197.7098858000245,None,198.51513099002187,None,,,,22016,0001,2022_Oct_18_1512,localizer,2021.1.3,59.72392017631347,
block,scenes,scenes066.bmp,,,,,0,12,12,12,,,,,,,,,,,,,,,,,,,,,,,,,,,,,,,,,,,,,,,,,,None,,198.51513099002187,None,198.51513099002187,None,2022-10-18-15:15:35.520101,198.5260544999037,198.83210260001943,198.5260544999037,None,None,198.5260544999037,None,199.33190269006883,None,,,,22016,0001,2022_Oct_18_1512,localizer,2021.1.3,59.72392017631347,
block,scenes,scenes044.bmp,,,,,0,13,13,13,,,,,,,,,,,,,,,,,,,,,,,,,,,,,,,,,,,,,,,,,,None,,199.33190269006883,None,199.33190269006883,None,2022-10-18-15:15:36.337776,199.34304849989712,199.64865259989165,199.34304849989712,None,None,199.34304849989712,None,200.148567189998,None,,,,22016,0001,2022_Oct_18_1512,localizer,2021.1.3,59.72392017631347,
block_end,scenes,scenes072.bmp,,,,,0,14,14,14,,,,,,,,,,,,,,,,,,,,,,,,,,,,,,,,,,,,,,,,,,None,,200.148567189998,None,200.148567189998,None,2022-10-18-15:15:37.153546,200.1597120000515,200.46485120011494,200.1597120000515,None,None,200.1597120000515,None,200.96487499012147,None,,,,22016,0001,2022_Oct_18_1512,localizer,2021.1.3,59.72392017631347,
block_start,faces,faces066.bmp,,,,,0,15,15,15,,,,,,,,,,,,,,,,,,,,,,,,,,,,,,,,,,,,,,,,,,t,1.7224706001579762,200.9650053998921,None,200.9650053998921,None,2022-10-18-15:15:39.718073,202.72420709999278,203.03176950011402,202.72420709999278,None,None,202.72420709999278,None,203.53154389008415,None,,,,22016,0001,2022_Oct_18_1512,localizer,2021.1.3,59.72392017631347,
block,faces,faces086.bmp,,,,,0,16,16,16,,,,,,,,,,,,,,,,,,,,,,,,,,,,,,,,,,,,,,,,,,None,,203.53154389008415,None,203.53154389008415,None,2022-10-18-15:15:40.536548,203.54084950010292,203.84911930002272,203.54084950010292,None,None,203.54084950010292,None,204.34877438989935,None,,,,22016,0001,2022_Oct_18_1512,localizer,2021.1.3,59.72392017631347,
block,faces,faces069.bmp,,,,,0,17,17,17,,,,,,,,,,,,,,,,,,,,,,,,,,,,,,,,,,,,,,,,,,None,,204.34877438989935,None,204.34877438989935,None,2022-10-18-15:15:41.354534,204.36058149999008,204.66502769989893,204.36058149999008,None,None,204.36058149999008,None,205.16532988992986,None,,,,22016,0001,2022_Oct_18_1512,localizer,2021.1.3,59.72392017631347,
block,faces,faces010.bmp,,,,,0,18,18,18,,,,,,,,,,,,,,,,,,,,,,,,,,,,,,,,,,,,,,,,,,None,,205.16532988992986,None,205.16532988992986,None,2022-10-18-15:15:42.170301,205.17654470005073,205.4817003000062,205.17654470005073,None,None,205.17654470005073,None,205.98396469007713,None,,,,22016,0001,2022_Oct_18_1512,localizer,2021.1.3,59.72392017631347,
block,faces,faces028.bmp,,,,,0,19,19,19,,,,,,,,,,,,,,,,,,,,,,,,,,,,,,,,,,,,,,,,,,None,,205.98396469007713,None,205.98396469007713,None,2022-10-18-15:15:42.992599,205.99748339992948,206.29853200004436,205.99748339992948,None,None,205.99748339992948,None,206.7982825900661,None,,,,22016,0001,2022_Oct_18_1512,localizer,2021.1.3,59.72392017631347,
block,faces,faces067.bmp,,,,,0,20,20,20,,,,,,,,,,,,,,,,,,,,,,,,,,,,,,,,,,,,,,,,,,None,,206.7982825900661,None,206.7982825900661,None,2022-10-18-15:15:43.804276,206.80495169991627,207.1149353000801,206.80495169991627,None,None,206.80495169991627,None,207.61496928993148,None,,,,22016,0001,2022_Oct_18_1512,localizer,2021.1.3,59.72392017631347,
block,faces,faces088.bmp,,,,,0,21,21,21,,,,,,,,,,,,,,,,,,,,,,,,,,,,,,,,,,,,,,,,,,None,,207.61496928993148,None,207.61496928993148,None,2022-10-18-15:15:44.619744,207.62646840000525,207.9317453999538,207.62646840000525,None,None,207.62646840000525,None,208.43368758989965,None,,,,22016,0001,2022_Oct_18_1512,localizer,2021.1.3,59.72392017631347,
block,faces,faces026.bmp,,,,,0,22,22,22,,,,,,,,,,,,,,,,,,,,,,,,,,,,,,,,,,,,,,,,,,None,,208.43368758989965,None,208.43368758989965,None,2022-10-18-15:15:45.441602,208.47564049996436,208.78172470000573,208.47564049996436,None,None,208.47564049996436,None,209.24816299004016,None,,,,22016,0001,2022_Oct_18_1512,localizer,2021.1.3,59.72392017631347,
block,faces,faces031.bmp,,,,,0,23,23,23,,,,,,,,,,,,,,,,,,,,,,,,,,,,,,,,,,,,,,,,,,None,,209.24816299004016,None,209.24816299004016,None,2022-10-18-15:15:46.252818,209.25742950011045,209.56586640002206,209.25742950011045,None,None,209.25742950011045,None,210.06564548991156,None,,,,22016,0001,2022_Oct_18_1512,localizer,2021.1.3,59.72392017631347,
block,faces,faces049.bmp,,,,,0,24,24,24,,,,,,,,,,,,,,,,,,,,,,,,,,,,,,,,,,,,,,,,,,None,,210.06564548991156,None,210.06564548991156,None,2022-10-18-15:15:47.071402,210.07659510010853,210.3823112999089,210.07659510010853,None,None,210.07659510010853,None,210.8822327899514,None,,,,22016,0001,2022_Oct_18_1512,localizer,2021.1.3,59.72392017631347,
block,faces,faces063.bmp,,,,,0,25,25,25,,,,,,,,,,,,,,,,,,,,,,,,,,,,,,,,,,,,,,,,,,None,,210.8822327899514,None,210.8822327899514,None,2022-10-18-15:15:47.888189,210.89488189993426,211.19846850004978,210.89488189993426,None,None,210.89488189993426,None,211.69813768991736,None,,,,22016,0001,2022_Oct_18_1512,localizer,2021.1.3,59.72392017631347,
block,faces,faces075.bmp,,,,,0,26,26,26,,,,,,,,,,,,,,,,,,,,,,,,,,,,,,,,,,,,,,,,,,None,,211.69813768991736,None,211.69813768991736,None,2022-10-18-15:15:48.702914,211.7076908000745,212.01500990008935,211.7076908000745,None,None,211.7076908000745,None,212.5150770899607,None,,,,22016,0001,2022_Oct_18_1512,localizer,2021.1.3,59.72392017631347,
block,faces,faces068.bmp,,,,,0,27,27,27,,,,,,,,,,,,,,,,,,,,,,,,,,,,,,,,,,,,,,,,,,None,,212.5150770899607,None,212.5150770899607,None,2022-10-18-15:15:49.520457,212.52696179994382,212.8319218000397,212.52696179994382,None,None,212.52696179994382,None,213.3319485900691,None,,,,22016,0001,2022_Oct_18_1512,localizer,2021.1.3,59.72392017631347,
block,faces,faces083.bmp,,,,,0,28,28,28,,,,,,,,,,,,,,,,,,,,,,,,,,,,,,,,,,,,,,,,,,None,,213.3319485900691,None,213.3319485900691,None,2022-10-18-15:15:50.336936,213.34303779993206,213.64850110001862,213.34303779993206,None,None,213.34303779993206,None,214.14960919001606,None,,,,22016,0001,2022_Oct_18_1512,localizer,2021.1.3,59.72392017631347,
block_end,faces,faces020.bmp,,,,,0,29,29,29,,,,,,,,,,,,,,,,,,,,,,,,,,,,,,,,,,,,,,,,,,None,,214.14960919001606,None,214.14960919001606,None,2022-10-18-15:15:51.155540,214.16299819992855,214.46514500002377,214.16299819992855,None,None,214.16299819992855,None,214.96509149002378,None,,,,22016,0001,2022_Oct_18_1512,localizer,2021.1.3,59.72392017631347,
block_start,scrambled,scrambled041.bmp,,,,,0,30,30,30,,,,,,,,,,,,,,,,,,,,,,,,,,,,,,,,,,,,,,,,,,t,1.7223974999506027,214.96538330009207,None,214.96538330009207,None,2022-10-18-15:15:53.721916,216.72782290005125,217.03209330001846,216.72782290005125,None,None,216.72782290005125,None,217.53195759009105,None,,,,22016,0001,2022_Oct_18_1512,localizer,2021.1.3,59.72392017631347,
block,scrambled,scrambled085.bmp,,,,,0,31,31,31,,,,,,,,,,,,,,,,,,,,,,,,,,,,,,,,,,,,,,,,,,None,,217.53195759009105,None,217.53195759009105,None,2022-10-18-15:15:54.537376,217.54339869995601,217.8486899000127,217.54339869995601,None,None,217.54339869995601,None,218.34859258991202,None,,,,22016,0001,2022_Oct_18_1512,localizer,2021.1.3,59.72392017631347,
block,scrambled,scrambled009.bmp,,,,,0,32,32,32,,,,,,,,,,,,,,,,,,,,,,,,,,,,,,,,,,,,,,,,,,None,,218.34859258991202,None,218.34859258991202,None,2022-10-18-15:15:55.353582,218.35873660002835,218.66532619995996,218.35873660002835,None,None,218.35873660002835,None,219.16516738997308,None,,,,22016,0001,2022_Oct_18_1512,localizer,2021.1.3,59.72392017631347,
block,scrambled,scrambled031.bmp,,,,,0,33,33,33,,,,,,,,,,,,,,,,,,,,,,,,,,,,,,,,,,,,,,,,,,None,,219.16516738997308,None,219.16516738997308,None,2022-10-18-15:15:56.169938,219.17145080002956,219.48177439998835,219.17145080002956,None,None,219.17145080002956,None,219.98175068998245,None,,,,22016,0001,2022_Oct_18_1512,localizer,2021.1.3,59.72392017631347,
block,scrambled,scrambled020.bmp,,,,,0,34,34,34,,,,,,,,,,,,,,,,,,,,,,,,,,,,,,,,,,,,,,,,,,None,,219.98175068998245,None,219.98175068998245,None,2022-10-18-15:15:56.986526,219.99089220003225,220.29908180003986,219.99089220003225,None,None,219.99089220003225,None,220.7985917900922,None,,,,22016,0001,2022_Oct_18_1512,localizer,2021.1.3,59.72392017631347,
block,scrambled,scrambled035.bmp,,,,,0,35,35,35,,,,,,,,,,,,,,,,,,,,,,,,,,,,,,,,,,,,,,,,,,None,,220.7985917900922,None,220.7985917900922,None,2022-10-18-15:15:57.803363,220.8089499999769,221.11539779999293,220.8089499999769,None,None,220.8089499999769,None,221.61532798998525,None,,,,22016,0001,2022_Oct_18_1512,localizer,2021.1.3,59.72392017631347,
block,scrambled,scrambled068.bmp,,,,,0,36,36,36,,,,,,,,,,,,,,,,,,,,,,,,,,,,,,,,,,,,,,,,,,None,,221.61532798998525,None,221.61532798998525,None,2022-10-18-15:15:58.620317,221.6309515000321,221.93207559990697,221.6309515000321,None,None,221.6309515000321,None,222.43203239010182,None,,,,22016,0001,2022_Oct_18_1512,localizer,2021.1.3,59.72392017631347,
block,scrambled,scrambled004.bmp,,,,,0,37,37,37,,,,,,,,,,,,,,,,,,,,,,,,,,,,,,,,,,,,,,,,,,None,,222.43203239010182,None,222.43203239010182,None,2022-10-18-15:15:59.436805,222.44194189994596,222.74874969990924,222.44194189994596,None,None,222.44194189994596,None,223.2484632901149,None,,,,22016,0001,2022_Oct_18_1512,localizer,2021.1.3,59.72392017631347,
block,scrambled,scrambled083.bmp,,,,,0,38,38,38,,,,,,,,,,,,,,,,,,,,,,,,,,,,,,,,,,,,,,,,,,None,,223.2484632901149,None,223.2484632901149,None,2022-10-18-15:16:00.253237,223.2548322000075,223.56541489996016,223.2548322000075,None,None,223.2548322000075,None,224.06476328994614,None,,,,22016,0001,2022_Oct_18_1512,localizer,2021.1.3,59.72392017631347,
block,scrambled,scrambled013.bmp,,,,,0,39,39,39,,,,,,,,,,,,,,,,,,,,,,,,,,,,,,,,,,,,,,,,,,None,,224.06476328994614,None,224.06476328994614,None,2022-10-18-15:16:01.069542,224.07256849994883,224.3821032999549,224.07256849994883,None,None,224.07256849994883,None,224.8820839899825,None,,,,22016,0001,2022_Oct_18_1512,localizer,2021.1.3,59.72392017631347,
block,scrambled,scrambled030.bmp,,,,,0,40,40,40,,,,,,,,,,,,,,,,,,,,,,,,,,,,,,,,,,,,,,,,,,None,,224.8820839899825,None,224.8820839899825,None,2022-10-18-15:16:01.887429,224.89308069995604,225.19884889991954,224.89308069995604,None,y,224.89308069995604,None,225.69898818999064,None,0.10915619996376336,,,22016,0001,2022_Oct_18_1512,localizer,2021.1.3,59.72392017631347,
block,scrambled,scrambled065.bmp,,,,,0,41,41,41,,,,,,,,,,,,,,,,,,,,,,,,,,,,,,,,,,,,,,,,,,None,,225.69898818999064,None,225.69898818999064,None,2022-10-18-15:16:02.704750,225.71070869988762,226.01633060001768,225.71070869988762,None,None,225.71070869988762,None,226.51601819002536,None,,,,22016,0001,2022_Oct_18_1512,localizer,2021.1.3,59.72392017631347,
block,scrambled,scrambled023.bmp,,,,,0,42,42,42,,,,,,,,,,,,,,,,,,,,,,,,,,,,,,,,,,,,,,,,,,None,,226.51601819002536,None,226.51601819002536,None,2022-10-18-15:16:03.521962,226.52925970009528,226.8319631998893,226.52925970009528,None,None,226.52925970009528,None,227.338043890032,None,,,,22016,0001,2022_Oct_18_1512,localizer,2021.1.3,59.72392017631347,
block,scrambled,scrambled052.bmp,,,,,0,43,43,43,,,,,,,,,,,,,,,,,,,,,,,,,,,,,,,,,,,,,,,,,,None,,227.338043890032,None,227.338043890032,None,2022-10-18-15:16:04.350788,227.35023689991795,227.66524189990014,227.35023689991795,None,None,227.35023689991795,None,228.14844238997904,None,,,,22016,0001,2022_Oct_18_1512,localizer,2021.1.3,59.72392017631347,
block_end,scrambled,scrambled039.bmp,,,,,0,44,44,44,,,,,,,,,,,,,,,,,,,,,,,,,,,,,,,,,,,,,,,,,,None,,228.14844238997904,None,228.14844238997904,None,2022-10-18-15:16:05.153423,228.15907129994594,228.46554060000926,228.15907129994594,None,None,228.15907129994594,None,228.9671728900401,None,,,,22016,0001,2022_Oct_18_1512,localizer,2021.1.3,59.72392017631347,
block_start,objects,objects086.bmp,,,,,0,45,45,45,,,,,,,,,,,,,,,,,,,,,,,,,,,,,,,,,,,,,,,,,,t,1.719460800057277,228.9680600001011,None,228.9680600001011,None,2022-10-18-15:16:07.719043,230.72464190004393,231.03221029997803,230.72464190004393,None,None,230.72464190004393,None,231.53202309000773,None,,,,22016,0001,2022_Oct_18_1512,localizer,2021.1.3,59.72392017631347,
block,objects,objects086.bmp,,,,,0,46,46,46,,,,,,,,,,,,,,,,,,,,,,,,,,,,,,,,,,,,,,,,,,None,,231.53202309000773,None,231.53202309000773,None,2022-10-18-15:16:08.537019,231.53298230003566,231.8486715001054,231.53298230003566,None,y,231.53298230003566,None,232.33199449006935,None,0.5143800999503583,,,22016,0001,2022_Oct_18_1512,localizer,2021.1.3,59.72392017631347,
block,objects,objects021.bmp,,,,,0,47,47,47,,,,,,,,,,,,,,,,,,,,,,,,,,,,,,,,,,,,,,,,,,None,,232.33199449006935,None,232.33199449006935,None,2022-10-18-15:16:09.338762,232.34416830004193,232.648421500111,232.34416830004193,232.34416830004193,None,232.34416830004193,232.34416830004193,233.1488455900224,None,,,,22016,0001,2022_Oct_18_1512,localizer,2021.1.3,59.72392017631347,
block,objects,objects024.bmp,,,,,0,48,48,48,,,,,,,,,,,,,,,,,,,,,,,,,,,,,,,,,,,,,,,,,,None,,233.1488455900224,None,233.1488455900224,None,2022-10-18-15:16:10.153644,233.15874399989843,233.46525690006092,233.15874399989843,None,None,233.15874399989843,None,233.96526908997913,None,,,,22016,0001,2022_Oct_18_1512,localizer,2021.1.3,59.72392017631347,
block,objects,objects075.bmp,,,,,0,49,49,49,,,,,,,,,,,,,,,,,,,,,,,,,,,,,,,,,,,,,,,,,,None,,233.96526908997913,None,233.96526908997913,None,2022-10-18-15:16:10.970036,233.97582309995778,234.2821227000095,233.97582309995778,None,None,233.97582309995778,None,234.78199538991322,None,,,,22016,0001,2022_Oct_18_1512,localizer,2021.1.3,59.72392017631347,
block,objects,objects045.bmp,,,,,0,50,50,50,,,,,,,,,,,,,,,,,,,,,,,,,,,,,,,,,,,,,,,,,,None,,234.78199538991322,None,234.78199538991322,None,2022-10-18-15:16:11.786766,234.79227189999074,235.09889440005645,234.79227189999074,None,None,234.79227189999074,None,235.59878329008353,None,,,,22016,0001,2022_Oct_18_1512,localizer,2021.1.3,59.72392017631347,
block,objects,objects019.bmp,,,,,0,51,51,51,,,,,,,,,,,,,,,,,,,,,,,,,,,,,,,,,,,,,,,,,,None,,235.59878329008353,None,235.59878329008353,None,2022-10-18-15:16:12.604548,235.6100159001071,235.91563869989477,235.6100159001071,None,None,235.6100159001071,None,236.41562618997415,None,,,,22016,0001,2022_Oct_18_1512,localizer,2021.1.3,59.72392017631347,
block,objects,objects062.bmp,,,,,0,52,52,52,,,,,,,,,,,,,,,,,,,,,,,,,,,,,,,,,,,,,,,,,,None,,236.41562618997415,None,236.41562618997415,None,2022-10-18-15:16:13.420595,236.4271748000756,236.73216759995557,236.4271748000756,None,None,236.4271748000756,None,237.2322612899123,None,,,,22016,0001,2022_Oct_18_1512,localizer,2021.1.3,59.72392017631347,
block,objects,objects037.bmp,,,,,0,53,53,53,,,,,,,,,,,,,,,,,,,,,,,,,,,,,,,,,,,,,,,,,,None,,237.2322612899123,None,237.2322612899123,None,2022-10-18-15:16:14.237165,237.2433474001009,237.54913800000213,237.2433474001009,None,None,237.2433474001009,None,238.048968389933,None,,,,22016,0001,2022_Oct_18_1512,localizer,2021.1.3,59.72392017631347,
block,objects,objects017.bmp,,,,,0,54,54,54,,,,,,,,,,,,,,,,,,,,,,,,,,,,,,,,,,,,,,,,,,None,,238.048968389933,None,238.048968389933,None,2022-10-18-15:16:15.053761,238.055574900005,238.36540649994276,238.055574900005,None,None,238.055574900005,None,238.86548499001657,None,,,,22016,0001,2022_Oct_18_1512,localizer,2021.1.3,59.72392017631347,
block,objects,objects088.bmp,,,,,0,55,55,55,,,,,,,,,,,,,,,,,,,,,,,,,,,,,,,,,,,,,,,,,,None,,238.86548499001657,None,238.86548499001657,None,2022-10-18-15:16:15.870444,238.87557739997283,239.1820827999618,238.87557739997283,None,None,238.87557739997283,None,239.68217959005852,None,,,,22016,0001,2022_Oct_18_1512,localizer,2021.1.3,59.72392017631347,
block,objects,objects028.bmp,,,,,0,56,56,56,,,,,,,,,,,,,,,,,,,,,,,,,,,,,,,,,,,,,,,,,,None,,239.68217959005852,None,239.68217959005852,None,2022-10-18-15:16:16.687162,239.69220639998093,239.9990232998971,239.69220639998093,None,None,239.69220639998093,None,240.498413289967,None,,,,22016,0001,2022_Oct_18_1512,localizer,2021.1.3,59.72392017631347,
block,objects,objects010.bmp,,,,,0,57,57,57,,,,,,,,,,,,,,,,,,,,,,,,,,,,,,,,,,,,,,,,,,None,,240.498413289967,None,240.498413289967,None,2022-10-18-15:16:17.503188,240.50714639993384,240.81531019997783,240.50714639993384,None,None,240.50714639993384,None,241.31631469011774,None,,,,22016,0001,2022_Oct_18_1512,localizer,2021.1.3,59.72392017631347,
block,objects,objects061.bmp,,,,,0,58,58,58,,,,,,,,,,,,,,,,,,,,,,,,,,,,,,,,,,,,,,,,,,None,,241.31631469011774,None,241.31631469011774,None,2022-10-18-15:16:18.322255,241.3278280000668,241.634214800084,241.3278280000668,None,None,241.3278280000668,None,242.13318999002223,None,,,,22016,0001,2022_Oct_18_1512,localizer,2021.1.3,59.72392017631347,
block_end,objects,objects071.bmp,,,,,0,59,59,59,,,,,,,,,,,,,,,,,,,,,,,,,,,,,,,,,,,,,,,,,,None,,242.13318999002223,None,242.13318999002223,None,2022-10-18-15:16:19.140127,242.1473083999008,242.44874639995396,242.1473083999008,None,None,242.1473083999008,None,242.94908368990292,None,,,,22016,0001,2022_Oct_18_1512,localizer,2021.1.3,59.72392017631347,
null_block,null_block,null_block.bmp,,,,,0,60,60,60,,,,,,,,,,,,,,,,,,,,,,,,,,,,,,,,,,,,,,,,,,t,1.7386551999952644,242.94891769997776,None,242.94891769997776,None,2022-10-18-15:16:21.721423,244.7320807801094,None,244.7320807801094,None,None,244.7320807801094,None,244.73235479998402,None,,,,22016,0001,2022_Oct_18_1512,localizer,2021.1.3,59.72392017631347,
block_start,scenes,scenes008.bmp,,,,,0,61,61,61,,,,,,,,,,,,,,,,,,,,,,,,,,,,,,,,,,,,,,,,,,t,1.95411689998582,256.7323998999782,None,256.7323998999782,None,2022-10-18-15:16:35.731760,258.73650290002115,259.04884169995785,258.73650290002115,None,None,258.73650290002115,None,259.5319517900469,None,,,,22016,0001,2022_Oct_18_1512,localizer,2021.1.3,59.72392017631347,
block,scenes,scenes054.bmp,,,,,0,62,62,62,,,,,,,,,,,,,,,,,,,,,,,,,,,,,,,,,,,,,,,,,,None,,259.5319517900469,None,259.5319517900469,None,2022-10-18-15:16:36.536726,259.53307810006663,259.84932649997063,259.53307810006663,None,None,259.53307810006663,None,260.33237088990865,None,,,,22016,0001,2022_Oct_18_1512,localizer,2021.1.3,59.72392017631347,
block,scenes,scenes035.bmp,,,,,0,63,63,63,,,,,,,,,,,,,,,,,,,,,,,,,,,,,,,,,,,,,,,,,,None,,260.33237088990865,None,260.33237088990865,None,2022-10-18-15:16:37.340315,260.3423425001092,260.6487567999866,260.3423425001092,260.3423425001092,None,260.3423425001092,260.3423425001092,261.14913139010315,None,,,,22016,0001,2022_Oct_18_1512,localizer,2021.1.3,59.72392017631347,
block,scenes,scenes022.bmp,,,,,0,64,64,64,,,,,,,,,,,,,,,,,,,,,,,,,,,,,,,,,,,,,,,,,,None,,261.14913139010315,None,261.14913139010315,None,2022-10-18-15:16:38.154897,261.16139800008386,261.46564999991097,261.16139800008386,None,None,261.16139800008386,None,261.9656825899845,None,,,,22016,0001,2022_Oct_18_1512,localizer,2021.1.3,59.72392017631347,
block,scenes,scenes055.bmp,,,,,0,65,65,65,,,,,,,,,,,,,,,,,,,,,,,,,,,,,,,,,,,,,,,,,,None,,261.9656825899845,None,261.9656825899845,None,2022-10-18-15:16:38.971643,261.97762549994513,262.2825337999966,261.97762549994513,None,None,261.97762549994513,None,262.7818495899672,None,,,,22016,0001,2022_Oct_18_1512,localizer,2021.1.3,59.72392017631347,
block,scenes,scenes085.bmp,,,,,0,66,66,66,,,,,,,,,,,,,,,,,,,,,,,,,,,,,,,,,,,,,,,,,,None,,262.7818495899672,None,262.7818495899672,None,2022-10-18-15:16:39.786861,262.78752269991674,263.09930370002985,262.78752269991674,None,None,262.78752269991674,None,263.5990324901184,None,,,,22016,0001,2022_Oct_18_1512,localizer,2021.1.3,59.72392017631347,
block,scenes,scenes045.bmp,,,,,0,67,67,67,,,,,,,,,,,,,,,,,,,,,,,,,,,,,,,,,,,,,,,,,,None,,263.5990324901184,None,263.5990324901184,None,2022-10-18-15:16:40.603783,263.6090112000238,263.9154487999622,263.6090112000238,None,None,263.6090112000238,None,264.4156317900168,None,,,,22016,0001,2022_Oct_18_1512,localizer,2021.1.3,59.72392017631347,
block,scenes,scenes007.bmp,,,,,0,68,68,68,,,,,,,,,,,,,,,,,,,,,,,,,,,,,,,,,,,,,,,,,,None,,264.4156317900168,None,264.4156317900168,None,2022-10-18-15:16:41.421397,264.4316885001026,264.7321490000468,264.4316885001026,None,None,264.4316885001026,None,265.23227769003717,None,,,,22016,0001,2022_Oct_18_1512,localizer,2021.1.3,59.72392017631347,
block,scenes,scenes007.bmp,,,,,0,69,69,69,,,,,,,,,,,,,,,,,,,,,,,,,,,,,,,,,,,,,,,,,,None,,265.23227769003717,None,265.23227769003717,None,2022-10-18-15:16:42.238243,265.23327580001205,265.5323950999882,265.23327580001205,None,None,265.23327580001205,None,266.03266108997633,None,,,,22016,0001,2022_Oct_18_1512,localizer,2021.1.3,59.72392017631347,
block,scenes,scenes004.bmp,,,,,0,70,70,70,,,,,,,,,,,,,,,,,,,,,,,,,,,,,,,,,,,,,,,,,,None,,266.03266108997633,None,266.03266108997633,None,2022-10-18-15:16:43.040418,266.05194150004536,266.36552740004845,266.05194150004536,266.05194150004536,None,266.05194150004536,266.05194150004536,266.84887069005055,None,,,,22016,0001,2022_Oct_18_1512,localizer,2021.1.3,59.72392017631347,
block,scenes,scenes046.bmp,,,,,0,71,71,71,,,,,,,,,,,,,,,,,,,,,,,,,,,,,,,,,,,,,,,,,,None,,266.84887069005055,None,266.84887069005055,None,2022-10-18-15:16:43.853646,266.8552880000789,267.1654288000427,266.8552880000789,None,None,266.8552880000789,None,267.6655970901018,None,,,,22016,0001,2022_Oct_18_1512,localizer,2021.1.3,59.72392017631347,
block,scenes,scenes079.bmp,,,,,0,72,72,72,,,,,,,,,,,,,,,,,,,,,,,,,,,,,,,,,,,,,,,,,,None,,267.6655970901018,None,267.6655970901018,None,2022-10-18-15:16:44.670501,267.66647709999233,267.9823819999583,267.66647709999233,None,None,267.66647709999233,None,268.46555709007663,None,,,,22016,0001,2022_Oct_18_1512,localizer,2021.1.3,59.72392017631347,
block,scenes,scenes033.bmp,,,,,0,73,73,73,,,,,,,,,,,,,,,,,,,,,,,,,,,,,,,,,,,,,,,,,,None,,268.46555709007663,None,268.46555709007663,None,2022-10-18-15:16:45.472437,268.47780289989896,268.7824683000799,268.47780289989896,268.47780289989896,None,268.47780289989896,268.47780289989896,269.28243438999635,None,,,,22016,0001,2022_Oct_18_1512,localizer,2021.1.3,59.72392017631347,
block,scenes,scenes061.bmp,,,,,0,74,74,74,,,,,,,,,,,,,,,,,,,,,,,,,,,,,,,,,,,,,,,,,,None,,269.28243438999635,None,269.28243438999635,None,2022-10-18-15:16:46.287365,269.283454899909,269.5825598000083,269.283454899909,None,None,269.283454899909,None,270.098955990118,None,,,,22016,0001,2022_Oct_18_1512,localizer,2021.1.3,59.72392017631347,
block_end,scenes,scenes014.bmp,,,,,0,75,75,75,,,,,,,,,,,,,,,,,,,,,,,,,,,,,,,,,,,,,,,,,,None,,270.098955990118,None,270.098955990118,None,2022-10-18-15:16:47.103920,270.11024129996076,270.4154095998965,270.11024129996076,None,None,270.11024129996076,None,270.91554928997067,None,,,,22016,0001,2022_Oct_18_1512,localizer,2021.1.3,59.72392017631347,
block_start,scrambled,scrambled023.bmp,,,,,0,76,76,76,,,,,,,,,,,,,,,,,,,,,,,,,,,,,,,,,,,,,,,,,,t,1.7707680000457913,270.9156722999178,None,270.9156722999178,None,2022-10-18-15:16:49.719617,272.7164694000967,273.0322167999111,272.7164694000967,None,None,272.7164694000967,None,273.5154703900451,None,,,,22016,0001,2022_Oct_18_1512,localizer,2021.1.3,59.72392017631347,
block,scrambled,scrambled063.bmp,,,,,0,77,77,77,,,,,,,,,,,,,,,,,,,,,,,,,,,,,,,,,,,,,,,,,,None,,273.5154703900451,None,273.5154703900451,None,2022-10-18-15:16:50.522239,273.5266855999362,273.83240110008046,273.5266855999362,273.5266855999362,None,273.5266855999362,273.5266855999362,274.3325296899537,None,,,,22016,0001,2022_Oct_18_1512,localizer,2021.1.3,59.72392017631347,
block,scrambled,scrambled049.bmp,,,,,0,78,78,78,,,,,,,,,,,,,,,,,,,,,,,,,,,,,,,,,,,,,,,,,,None,,274.3325296899537,None,274.3325296899537,None,2022-10-18-15:16:51.338497,274.3433300999459,274.6487360999454,274.3433300999459,None,None,274.3433300999459,None,275.14932278993075,None,,,,22016,0001,2022_Oct_18_1512,localizer,2021.1.3,59.72392017631347,
block,scrambled,scrambled065.bmp,,,,,0,79,79,79,,,,,,,,,,,,,,,,,,,,,,,,,,,,,,,,,,,,,,,,,,None,,275.14932278993075,None,275.14932278993075,None,2022-10-18-15:16:52.155284,275.150191700086,275.46612200001255,275.150191700086,None,y,275.150191700086,None,275.9658013899578,None,0.7050533001311123,,,22016,0001,2022_Oct_18_1512,localizer,2021.1.3,59.72392017631347,
block,scrambled,scrambled010.bmp,,,,,0,80,80,80,,,,,,,,,,,,,,,,,,,,,,,,,,,,,,,,,,,,,,,,,,None,,275.9658013899578,None,275.9658013899578,None,2022-10-18-15:16:52.970774,275.9767768001184,276.28216519998387,275.9767768001184,None,None,275.9767768001184,None,276.7823064900702,None,,,,22016,0001,2022_Oct_18_1512,localizer,2021.1.3,59.72392017631347,
block,scrambled,scrambled008.bmp,,,,,0,81,81,81,,,,,,,,,,,,,,,,,,,,,,,,,,,,,,,,,,,,,,,,,,None,,276.7823064900702,None,276.7823064900702,None,2022-10-18-15:16:53.787098,276.7924027000554,277.0990498000756,276.7924027000554,None,None,276.7924027000554,None,277.59927999002394,None,,,,22016,0001,2022_Oct_18_1512,localizer,2021.1.3,59.72392017631347,
block,scrambled,scrambled044.bmp,,,,,0,82,82,82,,,,,,,,,,,,,,,,,,,,,,,,,,,,,,,,,,,,,,,,,,None,,277.59927999002394,None,277.59927999002394,None,2022-10-18-15:16:54.605238,277.61087860004045,277.9155466000084,277.61087860004045,None,None,277.61087860004045,None,278.41545048991685,None,,,,22016,0001,2022_Oct_18_1512,localizer,2021.1.3,59.72392017631347,
block,scrambled,scrambled028.bmp,,,,,0,83,83,83,,,,,,,,,,,,,,,,,,,,,,,,,,,,,,,,,,,,,,,,,,None,,278.41545048991685,None,278.41545048991685,None,2022-10-18-15:16:55.420370,278.4257914999034,278.7320338001009,278.4257914999034,None,None,278.4257914999034,None,279.2322182900505,None,,,,22016,0001,2022_Oct_18_1512,localizer,2021.1.3,59.72392017631347,
block,scrambled,scrambled059.bmp,,,,,0,84,84,84,,,,,,,,,,,,,,,,,,,,,,,,,,,,,,,,,,,,,,,,,,None,,279.2322182900505,None,279.2322182900505,None,2022-10-18-15:16:56.237208,279.24251569993794,279.5492811999284,279.24251569993794,None,None,279.24251569993794,None,280.0490899899276,None,,,,22016,0001,2022_Oct_18_1512,localizer,2021.1.3,59.72392017631347,
block,scrambled,scrambled030.bmp,,,,,0,85,85,85,,,,,,,,,,,,,,,,,,,,,,,,,,,,,,,,,,,,,,,,,,None,,280.0490899899276,None,280.0490899899276,None,2022-10-18-15:16:57.054035,280.04975300002843,280.35544269997627,280.04975300002843,None,None,280.04975300002843,None,280.8489472899353,None,,,,22016,0001,2022_Oct_18_1512,localizer,2021.1.3,59.72392017631347,
block,scrambled,scrambled086.bmp,,,,,0,86,86,86,,,,,,,,,,,,,,,,,,,,,,,,,,,,,,,,,,,,,,,,,,None,,280.8489472899353,None,280.8489472899353,None,2022-10-18-15:16:57.855933,280.8614729999099,281.16582169989124,280.8614729999099,280.8614729999099,None,280.8614729999099,280.8614729999099,281.6656514900504,None,,,,22016,0001,2022_Oct_18_1512,localizer,2021.1.3,59.72392017631347,
block,scrambled,scrambled062.bmp,,,,,0,87,87,87,,,,,,,,,,,,,,,,,,,,,,,,,,,,,,,,,,,,,,,,,,None,,281.6656514900504,None,281.6656514900504,None,2022-10-18-15:16:58.670422,281.6757956999354,281.98240029998124,281.6757956999354,None,None,281.6757956999354,None,282.5067003900884,None,,,,22016,0001,2022_Oct_18_1512,localizer,2021.1.3,59.72392017631347,
block,scrambled,scrambled087.bmp,,,,,0,88,88,88,,,,,,,,,,,,,,,,,,,,,,,,,,,,,,,,,,,,,,,,,,None,,282.5067003900884,None,282.5067003900884,None,2022-10-18-15:16:59.511481,282.5143832999747,282.8158956998959,282.5143832999747,None,None,282.5143832999747,None,283.31651949004737,None,,,,22016,0001,2022_Oct_18_1512,localizer,2021.1.3,59.72392017631347,
block,scrambled,scrambled073.bmp,,,,,0,89,89,89,,,,,,,,,,,,,,,,,,,,,,,,,,,,,,,,,,,,,,,,,,None,,283.31651949004737,None,283.31651949004737,None,2022-10-18-15:17:00.323210,283.3300950000994,283.63237929996103,283.3300950000994,None,None,283.3300950000994,None,284.1323256900767,None,,,,22016,0001,2022_Oct_18_1512,localizer,2021.1.3,59.72392017631347,
block_end,scrambled,scrambled033.bmp,,,,,0,90,90,90,,,,,,,,,,,,,,,,,,,,,,,,,,,,,,,,,,,,,,,,,,None,,284.1323256900767,None,284.1323256900767,None,2022-10-18-15:17:01.137302,284.1434863000177,284.4491393000353,284.1434863000177,None,y,284.1434863000177,None,284.94907298993786,None,0.5658416000660509,,,22016,0001,2022_Oct_18_1512,localizer,2021.1.3,59.72392017631347,
block_start,objects,objects087.bmp,,,,,0,91,91,91,,,,,,,,,,,,,,,,,,,,,,,,,,,,,,,,,,,,,,,,,,t,1.7371455000247806,284.9493126999587,None,284.9493126999587,None,2022-10-18-15:17:03.721860,286.7238686000928,287.03286950010806,286.7238686000928,None,None,286.7238686000928,None,287.53257618991194,None,,,,22016,0001,2022_Oct_18_1512,localizer,2021.1.3,59.72392017631347,
block,objects,objects063.bmp,,,,,0,92,92,92,,,,,,,,,,,,,,,,,,,,,,,,,,,,,,,,,,,,,,,,,,None,,287.53257618991194,None,287.53257618991194,None,2022-10-18-15:17:04.538546,287.5440273999702,287.8492783000693,287.5440273999702,None,None,287.5440273999702,None,288.3491918899352,None,,,,22016,0001,2022_Oct_18_1512,localizer,2021.1.3,59.72392017631347,
block,objects,objects014.bmp,,,,,0,93,93,93,,,,,,,,,,,,,,,,,,,,,,,,,,,,,,,,,,,,,,,,,,None,,288.3491918899352,None,288.3491918899352,None,2022-10-18-15:17:05.353960,288.3601824999787,288.66594849992543,288.3601824999787,None,None,288.3601824999787,None,289.1654625901254,None,,,,22016,0001,2022_Oct_18_1512,localizer,2021.1.3,59.72392017631347,
block,objects,objects032.bmp,,,,,0,94,94,94,,,,,,,,,,,,,,,,,,,,,,,,,,,,,,,,,,,,,,,,,,None,,289.1654625901254,None,289.1654625901254,None,2022-10-18-15:17:06.170238,289.17522979993373,289.48198450007476,289.17522979993373,None,None,289.17522979993373,None,289.98164879002144,None,,,,22016,0001,2022_Oct_18_1512,localizer,2021.1.3,59.72392017631347,
block,objects,objects034.bmp,,,,,0,95,95,95,,,,,,,,,,,,,,,,,,,,,,,,,,,,,,,,,,,,,,,,,,None,,289.98164879002144,None,289.98164879002144,None,2022-10-18-15:17:06.986434,289.98481569997966,290.3051873999648,289.98481569997966,None,None,289.98481569997966,None,290.7985968900146,None,,,,22016,0001,2022_Oct_18_1512,localizer,2021.1.3,59.72392017631347,
block,objects,objects050.bmp,,,,,0,96,96,96,,,,,,,,,,,,,,,,,,,,,,,,,,,,,,,,,,,,,,,,,,None,,290.7985968900146,None,290.7985968900146,None,2022-10-18-15:17:07.802033,290.80904980003834,291.1154312000144,290.80904980003834,None,None,290.80904980003834,None,291.6155880899867,None,,,,22016,0001,2022_Oct_18_1512,localizer,2021.1.3,59.72392017631347,
block,objects,objects024.bmp,,,,,0,97,97,97,,,,,,,,,,,,,,,,,,,,,,,,,,,,,,,,,,,,,,,,,,None,,291.6155880899867,None,291.6155880899867,None,2022-10-18-15:17:08.620580,291.6164532999974,291.9322526000906,291.6164532999974,None,None,291.6164532999974,None,292.43157048996073,None,,,,22016,0001,2022_Oct_18_1512,localizer,2021.1.3,59.72392017631347,
block,objects,objects041.bmp,,,,,0,98,98,98,,,,,,,,,,,,,,,,,,,,,,,,,,,,,,,,,,,,,,,,,,None,,292.43157048996073,None,292.43157048996073,None,2022-10-18-15:17:09.436200,292.4350705000106,292.74895039992407,292.4350705000106,None,None,292.4350705000106,None,293.2487635899568,None,,,,22016,0001,2022_Oct_18_1512,localizer,2021.1.3,59.72392017631347,
block,objects,objects020.bmp,,,,,0,99,99,99,,,,,,,,,,,,,,,,,,,,,,,,,,,,,,,,,,,,,,,,,,None,,293.2487635899568,None,293.2487635899568,None,2022-10-18-15:17:10.253862,293.25184640008956,293.5656894000713,293.25184640008956,None,None,293.25184640008956,None,294.0654472900322,None,,,,22016,0001,2022_Oct_18_1512,localizer,2021.1.3,59.72392017631347,
block,objects,objects077.bmp,,,,,0,100,100,100,,,,,,,,,,,,,,,,,,,,,,,,,,,,,,,,,,,,,,,,,,None,,294.0654472900322,None,294.0654472900322,None,2022-10-18-15:17:11.070832,294.07112909993157,294.3827003999613,294.07112909993157,None,None,294.07112909993157,None,294.8815823901212,None,,,,22016,0001,2022_Oct_18_1512,localizer,2021.1.3,59.72392017631347,
block,objects,objects030.bmp,,,,,0,101,101,101,,,,,,,,,,,,,,,,,,,,,,,,,,,,,,,,,,,,,,,,,,None,,294.8815823901212,None,294.8815823901212,None,2022-10-18-15:17:11.885336,294.88488400005735,295.2054510000162,294.88488400005735,None,None,294.88488400005735,None,295.69876829006245,None,,,,22016,0001,2022_Oct_18_1512,localizer,2021.1.3,59.72392017631347,
block,objects,objects064.bmp,,,,,0,102,102,102,,,,,,,,,,,,,,,,,,,,,,,,,,,,,,,,,,,,,,,,,,None,,295.69876829006245,None,295.69876829006245,None,2022-10-18-15:17:12.703494,295.7084282001015,296.0159849000629,295.7084282001015,None,None,295.7084282001015,None,296.51752008993645,None,,,,22016,0001,2022_Oct_18_1512,localizer,2021.1.3,59.72392017631347,
block,objects,objects006.bmp,,,,,0,103,103,103,,,,,,,,,,,,,,,,,,,,,,,,,,,,,,,,,,,,,,,,,,None,,296.51752008993645,None,296.51752008993645,None,2022-10-18-15:17:13.526277,296.53282630001195,296.8323957999237,296.53282630001195,None,None,296.53282630001195,None,297.3323552900227,None,,,,22016,0001,2022_Oct_18_1512,localizer,2021.1.3,59.72392017631347,
block,objects,objects057.bmp,,,,,0,104,104,104,,,,,,,,,,,,,,,,,,,,,,,,,,,,,,,,,,,,,,,,,,None,,297.3323552900227,None,297.3323552900227,None,2022-10-18-15:17:14.337335,297.34366549993865,297.6490128999576,297.34366549993865,None,None,297.34366549993865,None,298.149500790122,None,,,,22016,0001,2022_Oct_18_1512,localizer,2021.1.3,59.72392017631347,
block_end,objects,objects073.bmp,,,,,0,105,105,105,,,,,,,,,,,,,,,,,,,,,,,,,,,,,,,,,,,,,,,,,,None,,298.149500790122,None,298.149500790122,None,2022-10-18-15:17:15.154272,298.1528229000978,298.46567440009676,298.1528229000978,None,None,298.1528229000978,None,298.9657718900824,None,,,,22016,0001,2022_Oct_18_1512,localizer,2021.1.3,59.72392017631347,
null_block,null_block,null_block.bmp,,,,,0,106,106,106,,,,,,,,,,,,,,,,,,,,,,,,,,,,,,,,,,,,,,,,,,t,1.720626600086689,298.96597269992344,None,298.96597269992344,None,2022-10-18-15:17:17.717936,300.7151496900013,None,300.7151496900013,None,None,300.7151496900013,None,300.71666170004755,None,,,,22016,0001,2022_Oct_18_1512,localizer,2021.1.3,59.72392017631347,
block_start,faces,faces048.bmp,,,,,0,107,107,107,,,,,,,,,,,,,,,,,,,,,,,,,,,,,,,,,,,,,,,,,,t,1.9701847999822348,312.7162411001045,None,312.7162411001045,None,2022-10-18-15:17:31.723852,314.72923989989795,315.0327789001167,314.72923989989795,None,None,314.72923989989795,None,315.53250119003934,None,,,,22016,0001,2022_Oct_18_1512,localizer,2021.1.3,59.72392017631347,
block,faces,faces001.bmp,,,,,0,108,108,108,,,,,,,,,,,,,,,,,,,,,,,,,,,,,,,,,,,,,,,,,,None,,315.53250119003934,None,315.53250119003934,None,2022-10-18-15:17:32.537271,315.5436269999482,315.8493238000665,315.5436269999482,None,None,315.5436269999482,None,316.3492118900875,None,,,,22016,0001,2022_Oct_18_1512,localizer,2021.1.3,59.72392017631347,
block,faces,faces049.bmp,,,,,0,109,109,109,,,,,,,,,,,,,,,,,,,,,,,,,,,,,,,,,,,,,,,,,,None,,316.3492118900875,None,316.3492118900875,None,2022-10-18-15:17:33.354048,316.3500546000432,316.6495632000733,316.3500546000432,None,None,316.3500546000432,None,317.1492814899655,None,,,,22016,0001,2022_Oct_18_1512,localizer,2021.1.3,59.72392017631347,
block,faces,faces088.bmp,,,,,0,110,110,110,,,,,,,,,,,,,,,,,,,,,,,,,,,,,,,,,,,,,,,,,,None,,317.1492814899655,None,317.1492814899655,None,2022-10-18-15:17:34.156027,317.1524382000789,317.4510695999488,317.1524382000789,317.1524382000789,None,317.1524382000789,317.1524382000789,317.9662988899043,None,,,,22016,0001,2022_Oct_18_1512,localizer,2021.1.3,59.72392017631347,
block,faces,faces007.bmp,,,,,0,111,111,111,,,,,,,,,,,,,,,,,,,,,,,,,,,,,,,,,,,,,,,,,,None,,317.9662988899043,None,317.9662988899043,None,2022-10-18-15:17:34.972132,317.9778320998885,318.28248870000243,317.9778320998885,None,None,317.9778320998885,None,318.78270349006635,None,,,,22016,0001,2022_Oct_18_1512,localizer,2021.1.3,59.72392017631347,
block,faces,faces033.bmp,,,,,0,112,112,112,,,,,,,,,,,,,,,,,,,,,,,,,,,,,,,,,,,,,,,,,,None,,318.78270349006635,None,318.78270349006635,None,2022-10-18-15:17:35.788469,318.7996771999169,319.09968320000917,318.7996771999169,None,None,318.7996771999169,None,319.5992436900968,None,,,,22016,0001,2022_Oct_18_1512,localizer,2021.1.3,59.72392017631347,
block,faces,faces028.bmp,,,,,0,113,113,113,,,,,,,,,,,,,,,,,,,,,,,,,,,,,,,,,,,,,,,,,,None,,319.5992436900968,None,319.5992436900968,None,2022-10-18-15:17:36.605036,319.60019679996185,319.8994442000985,319.60019679996185,None,None,319.60019679996185,None,320.39954249009025,None,,,,22016,0001,2022_Oct_18_1512,localizer,2021.1.3,59.72392017631347,
block,faces,faces053.bmp,,,,,0,114,114,114,,,,,,,,,,,,,,,,,,,,,,,,,,,,,,,,,,,,,,,,,,None,,320.39954249009025,None,320.39954249009025,None,2022-10-18-15:17:37.407491,320.41264709993266,320.7161880999338,320.41264709993266,320.41264709993266,None,320.41264709993266,320.41264709993266,321.2162336901063,None,,,,22016,0001,2022_Oct_18_1512,localizer,2021.1.3,59.72392017631347,
block,faces,faces046.bmp,,,,,0,115,115,115,,,,,,,,,,,,,,,,,,,,,,,,,,,,,,,,,,,,,,,,,,None,,321.2162336901063,None,321.2162336901063,None,2022-10-18-15:17:38.221201,321.2283892999403,321.5322288000025,321.2283892999403,None,None,321.2283892999403,None,322.03248478991446,None,,,,22016,0001,2022_Oct_18_1512,localizer,2021.1.3,59.72392017631347,
block,faces,faces058.bmp,,,,,0,116,116,116,,,,,,,,,,,,,,,,,,,,,,,,,,,,,,,,,,,,,,,,,,None,,322.03248478991446,None,322.03248478991446,None,2022-10-18-15:17:39.037252,322.0434125000611,322.3496513001155,322.0434125000611,None,None,322.0434125000611,None,322.8490865899483,None,,,,22016,0001,2022_Oct_18_1512,localizer,2021.1.3,59.72392017631347,
block,faces,faces052.bmp,,,,,0,117,117,117,,,,,,,,,,,,,,,,,,,,,,,,,,,,,,,,,,,,,,,,,,None,,322.8490865899483,None,322.8490865899483,None,2022-10-18-15:17:39.853862,322.85643470007926,323.16657919995487,322.85643470007926,None,None,322.85643470007926,None,323.6662674900843,None,,,,22016,0001,2022_Oct_18_1512,localizer,2021.1.3,59.72392017631347,
block,faces,faces020.bmp,,,,,0,118,118,118,,,,,,,,,,,,,,,,,,,,,,,,,,,,,,,,,,,,,,,,,,None,,323.6662674900843,None,323.6662674900843,None,2022-10-18-15:17:40.672029,323.6674297999125,323.9827866998967,323.6674297999125,None,None,323.6674297999125,None,324.48305568990764,None,,,,22016,0001,2022_Oct_18_1512,localizer,2021.1.3,59.72392017631347,
block,faces,faces025.bmp,,,,,0,119,119,119,,,,,,,,,,,,,,,,,,,,,,,,,,,,,,,,,,,,,,,,,,None,,324.48305568990764,None,324.48305568990764,None,2022-10-18-15:17:41.490019,324.49604370002635,324.7992442001123,324.49604370002635,None,None,324.49604370002635,None,325.2998066899134,None,,,,22016,0001,2022_Oct_18_1512,localizer,2021.1.3,59.72392017631347,
block,faces,faces011.bmp,,,,,0,120,120,120,,,,,,,,,,,,,,,,,,,,,,,,,,,,,,,,,,,,,,,,,,None,,325.2998066899134,None,325.2998066899134,None,2022-10-18-15:17:42.304553,325.3106800999958,325.61650200001895,325.3106800999958,None,None,325.3106800999958,None,326.11530139001553,None,,,,22016,0001,2022_Oct_18_1512,localizer,2021.1.3,59.72392017631347,
block_end,faces,faces042.bmp,,,,,0,121,121,121,,,,,,,,,,,,,,,,,,,,,,,,,,,,,,,,,,,,,,,,,,None,,326.11530139001553,None,326.11530139001553,None,2022-10-18-15:17:43.120084,326.1235042999033,326.4331133000087,326.1235042999033,None,None,326.1235042999033,None,326.93350338989404,None,,,,22016,0001,2022_Oct_18_1512,localizer,2021.1.3,59.72392017631347,
null_block,null_block,null_block.bmp,,,,,0,122,122,122,,,,,,,,,,,,,,,,,,,,,,,,,,,,,,,,,,,,,,,,,,t,1.7528576001059264,326.9337440999225,None,326.9337440999225,None,2022-10-18-15:17:45.722210,328.7164023901103,None,328.7164023901103,None,None,328.7164023901103,None,328.7212012000382,None,,,,22016,0001,2022_Oct_18_1512,localizer,2021.1.3,59.72392017631347,
block_start,scenes,scenes040.bmp,,,,,0,123,123,123,,,,,,,,,,,,,,,,,,,,,,,,,,,,,,,,,,,,,,,,,,t,1.9537858997937292,340.73255480010994,None,340.73255480010994,None,2022-10-18-15:17:59.722756,342.7269178999122,343.03261539991945,342.7269178999122,None,None,342.7269178999122,None,343.5328432899667,None,,,,22016,0001,2022_Oct_18_1512,localizer,2021.1.3,59.72392017631347,
block,scenes,scenes039.bmp,,,,,0,124,124,124,,,,,,,,,,,,,,,,,,,,,,,,,,,,,,,,,,,,,,,,,,None,,343.5328432899667,None,343.5328432899667,None,2022-10-18-15:18:00.537614,343.5426870000083,343.8493172999006,343.5426870000083,None,None,343.5426870000083,None,344.34941199009774,None,,,,22016,0001,2022_Oct_18_1512,localizer,2021.1.3,59.72392017631347,
block,scenes,scenes022.bmp,,,,,0,125,125,125,,,,,,,,,,,,,,,,,,,,,,,,,,,,,,,,,,,,,,,,,,None,,344.34941199009774,None,344.34941199009774,None,2022-10-18-15:18:01.354166,344.3505088998936,344.6663701001089,344.3505088998936,None,None,344.3505088998936,None,345.14998699009885,None,,,,22016,0001,2022_Oct_18_1512,localizer,2021.1.3,59.72392017631347,
block,scenes,scenes044.bmp,,,,,0,126,126,126,,,,,,,,,,,,,,,,,,,,,,,,,,,,,,,,,,,,,,,,,,None,,345.14998699009885,None,345.14998699009885,None,2022-10-18-15:18:02.157743,345.15329990000464,345.46669350005686,345.15329990000464,345.15329990000464,None,345.15329990000464,345.15329990000464,345.96644209006337,None,,,,22016,0001,2022_Oct_18_1512,localizer,2021.1.3,59.72392017631347,
block,scenes,scenes091.bmp,,,,,0,127,127,127,,,,,,,,,,,,,,,,,,,,,,,,,,,,,,,,,,,,,,,,,,None,,345.96644209006337,None,345.96644209006337,None,2022-10-18-15:18:02.972229,345.97850520000793,346.2830511999782,345.97850520000793,None,None,345.97850520000793,None,346.7829604899278,None,,,,22016,0001,2022_Oct_18_1512,localizer,2021.1.3,59.72392017631347,
block,scenes,scenes049.bmp,,,,,0,128,128,128,,,,,,,,,,,,,,,,,,,,,,,,,,,,,,,,,,,,,,,,,,None,,346.7829604899278,None,346.7829604899278,None,2022-10-18-15:18:03.787921,346.78387750010006,347.0830371999182,346.78387750010006,None,None,346.78387750010006,None,347.5996785900323,None,,,,22016,0001,2022_Oct_18_1512,localizer,2021.1.3,59.72392017631347,
block,scenes,scenes003.bmp,,,,,0,129,129,129,,,,,,,,,,,,,,,,,,,,,,,,,,,,,,,,,,,,,,,,,,None,,347.5996785900323,None,347.5996785900323,None,2022-10-18-15:18:04.604448,347.61170500004664,347.91623340011574,347.61170500004664,None,None,347.61170500004664,None,348.4160966899479,None,,,,22016,0001,2022_Oct_18_1512,localizer,2021.1.3,59.72392017631347,
block,scenes,scenes017.bmp,,,,,0,130,130,130,,,,,,,,,,,,,,,,,,,,,,,,,,,,,,,,,,,,,,,,,,None,,348.4160966899479,None,348.4160966899479,None,2022-10-18-15:18:05.420869,348.42578530008905,348.73282620008104,348.42578530008905,None,None,348.42578530008905,None,349.23282638990787,None,,,,22016,0001,2022_Oct_18_1512,localizer,2021.1.3,59.72392017631347,
block,scenes,scenes056.bmp,,,,,0,131,131,131,,,,,,,,,,,,,,,,,,,,,,,,,,,,,,,,,,,,,,,,,,None,,349.23282638990787,None,349.23282638990787,None,2022-10-18-15:18:06.237594,349.2431830998976,349.5494603998959,349.2431830998976,None,None,349.2431830998976,None,350.04938928999474,None,,,,22016,0001,2022_Oct_18_1512,localizer,2021.1.3,59.72392017631347,
block,scenes,scenes088.bmp,,,,,0,132,132,132,,,,,,,,,,,,,,,,,,,,,,,,,,,,,,,,,,,,,,,,,,None,,350.04938928999474,None,350.04938928999474,None,2022-10-18-15:18:07.054161,350.0594957000576,350.36622299999,350.0594957000576,None,None,350.0594957000576,None,350.8660528900335,None,,,,22016,0001,2022_Oct_18_1512,localizer,2021.1.3,59.72392017631347,
block,scenes,scenes067.bmp,,,,,0,133,133,133,,,,,,,,,,,,,,,,,,,,,,,,,,,,,,,,,,,,,,,,,,None,,350.8660528900335,None,350.8660528900335,None,2022-10-18-15:18:07.870829,350.87597219995223,351.1828203999903,350.87597219995223,None,None,350.87597219995223,None,351.68363569008653,None,,,,22016,0001,2022_Oct_18_1512,localizer,2021.1.3,59.72392017631347,
block,scenes,scenes004.bmp,,,,,0,134,134,134,,,,,,,,,,,,,,,,,,,,,,,,,,,,,,,,,,,,,,,,,,None,,351.68363569008653,None,351.68363569008653,None,2022-10-18-15:18:08.689573,351.6862472000066,351.9999573000241,351.6862472000066,None,None,351.6862472000066,None,352.49976709003096,None,,,,22016,0001,2022_Oct_18_1512,localizer,2021.1.3,59.72392017631347,
block,scenes,scenes002.bmp,,,,,0,135,135,135,,,,,,,,,,,,,,,,,,,,,,,,,,,,,,,,,,,,,,,,,,None,,352.49976709003096,None,352.49976709003096,None,2022-10-18-15:18:09.505527,352.510711699957,352.81590140005574,352.510711699957,None,None,352.510711699957,None,353.3161491899053,None,,,,22016,0001,2022_Oct_18_1512,localizer,2021.1.3,59.72392017631347,
block,scenes,scenes080.bmp,,,,,0,136,136,136,,,,,,,,,,,,,,,,,,,,,,,,,,,,,,,,,,,,,,,,,,None,,353.3161491899053,None,353.3161491899053,None,2022-10-18-15:18:10.320920,353.32630939991213,353.63310989993624,353.32630939991213,None,None,353.32630939991213,None,354.13302278991324,None,,,,22016,0001,2022_Oct_18_1512,localizer,2021.1.3,59.72392017631347,
block_end,scenes,scenes034.bmp,,,,,0,137,137,137,,,,,,,,,,,,,,,,,,,,,,,,,,,,,,,,,,,,,,,,,,None,,354.13302278991324,None,354.13302278991324,None,2022-10-18-15:18:11.137792,354.14397479989566,354.44913579989225,354.14397479989566,None,None,354.14397479989566,None,354.949555890006,None,,,,22016,0001,2022_Oct_18_1512,localizer,2021.1.3,59.72392017631347,
block_start,scrambled,scrambled038.bmp,,,,,0,138,138,138,,,,,,,,,,,,,,,,,,,,,,,,,,,,,,,,,,,,,,,,,,t,1.7367215999402106,354.9499572000932,None,354.9499572000932,None,2022-10-18-15:18:13.722172,356.7284478000365,357.03281160001643,356.7284478000365,None,None,356.7284478000365,None,357.53295679001604,None,,,,22016,0001,2022_Oct_18_1512,localizer,2021.1.3,59.72392017631347,
block,scrambled,scrambled024.bmp,,,,,0,139,139,139,,,,,,,,,,,,,,,,,,,,,,,,,,,,,,,,,,,,,,,,,,None,,357.53295679001604,None,357.53295679001604,None,2022-10-18-15:18:14.538905,357.54417070001364,357.8501613000408,357.54417070001364,None,None,357.54417070001364,None,358.34963958996815,None,,,,22016,0001,2022_Oct_18_1512,localizer,2021.1.3,59.72392017631347,
block,scrambled,scrambled021.bmp,,,,,0,140,140,140,,,,,,,,,,,,,,,,,,,,,,,,,,,,,,,,,,,,,,,,,,None,,358.34963958996815,None,358.34963958996815,None,2022-10-18-15:18:15.354410,358.3599737000186,358.6664835999254,358.3599737000186,None,None,358.3599737000186,None,359.16623158992735,None,,,,22016,0001,2022_Oct_18_1512,localizer,2021.1.3,59.72392017631347,
block,scrambled,scrambled014.bmp,,,,,0,141,141,141,,,,,,,,,,,,,,,,,,,,,,,,,,,,,,,,,,,,,,,,,,None,,359.16623158992735,None,359.16623158992735,None,2022-10-18-15:18:16.171004,359.17639639996924,359.48309409990907,359.17639639996924,None,None,359.17639639996924,None,359.9829954899149,None,,,,22016,0001,2022_Oct_18_1512,localizer,2021.1.3,59.72392017631347,
block,scrambled,scrambled066.bmp,,,,,0,142,142,142,,,,,,,,,,,,,,,,,,,,,,,,,,,,,,,,,,,,,,,,,,None,,359.9829954899149,None,359.9829954899149,None,2022-10-18-15:18:16.987767,359.9929204999935,360.2998506000731,359.9929204999935,None,None,359.9929204999935,None,360.79961329007057,None,,,,22016,0001,2022_Oct_18_1512,localizer,2021.1.3,59.72392017631347,
block,scrambled,scrambled011.bmp,,,,,0,143,143,143,,,,,,,,,,,,,,,,,,,,,,,,,,,,,,,,,,,,,,,,,,None,,360.79961329007057,None,360.79961329007057,None,2022-10-18-15:18:17.804583,360.8108608999755,361.1164379999973,360.8108608999755,None,None,360.8108608999755,None,361.6161981900921,None,,,,22016,0001,2022_Oct_18_1512,localizer,2021.1.3,59.72392017631347,
block,scrambled,scrambled070.bmp,,,,,0,144,144,144,,,,,,,,,,,,,,,,,,,,,,,,,,,,,,,,,,,,,,,,,,None,,361.6161981900921,None,361.6161981900921,None,2022-10-18-15:18:18.621125,361.62688979995437,361.9331181999296,361.62688979995437,None,None,361.62688979995437,None,362.4329858900281,None,,,,22016,0001,2022_Oct_18_1512,localizer,2021.1.3,59.72392017631347,
block,scrambled,scrambled013.bmp,,,,,0,145,145,145,,,,,,,,,,,,,,,,,,,,,,,,,,,,,,,,,,,,,,,,,,None,,362.4329858900281,None,362.4329858900281,None,2022-10-18-15:18:19.437881,362.43393000005744,362.7497708001174,362.43393000005744,None,None,362.43393000005744,None,363.23298249004876,None,,,,22016,0001,2022_Oct_18_1512,localizer,2021.1.3,59.72392017631347,
block,scrambled,scrambled086.bmp,,,,,0,146,146,146,,,,,,,,,,,,,,,,,,,,,,,,,,,,,,,,,,,,,,,,,,None,,363.23298249004876,None,363.23298249004876,None,2022-10-18-15:18:20.239943,363.23524449998513,363.5334218998905,363.23524449998513,363.23524449998513,None,363.23524449998513,363.23524449998513,364.0499331900617,None,,,,22016,0001,2022_Oct_18_1512,localizer,2021.1.3,59.72392017631347,
block,scrambled,scrambled048.bmp,,,,,0,147,147,147,,,,,,,,,,,,,,,,,,,,,,,,,,,,,,,,,,,,,,,,,,None,,364.0499331900617,None,364.0499331900617,None,2022-10-18-15:18:21.055517,364.0607646999415,364.36644769995473,364.0607646999415,None,None,364.0607646999415,None,364.86641048996245,None,,,,22016,0001,2022_Oct_18_1512,localizer,2021.1.3,59.72392017631347,
block,scrambled,scrambled006.bmp,,,,,0,148,148,148,,,,,,,,,,,,,,,,,,,,,,,,,,,,,,,,,,,,,,,,,,None,,364.86641048996245,None,364.86641048996245,None,2022-10-18-15:18:21.871178,364.87757289991714,365.18326810002327,364.87757289991714,None,None,364.87757289991714,None,365.68289278990125,None,,,,22016,0001,2022_Oct_18_1512,localizer,2021.1.3,59.72392017631347,
block,scrambled,scrambled088.bmp,,,,,0,149,149,149,,,,,,,,,,,,,,,,,,,,,,,,,,,,,,,,,,,,,,,,,,None,,365.68289278990125,None,365.68289278990125,None,2022-10-18-15:18:22.687820,365.6941986999009,365.99981279997155,365.6941986999009,None,None,365.6941986999009,None,366.499801090057,None,,,,22016,0001,2022_Oct_18_1512,localizer,2021.1.3,59.72392017631347,
block,scrambled,scrambled040.bmp,,,,,0,150,150,150,,,,,,,,,,,,,,,,,,,,,,,,,,,,,,,,,,,,,,,,,,None,,366.499801090057,None,366.499801090057,None,2022-10-18-15:18:23.504634,366.5096533000469,366.8167201001197,366.5096533000469,None,None,366.5096533000469,None,367.31614978990984,None,,,,22016,0001,2022_Oct_18_1512,localizer,2021.1.3,59.72392017631347,
block,scrambled,scrambled083.bmp,,,,,0,151,151,151,,,,,,,,,,,,,,,,,,,,,,,,,,,,,,,,,,,,,,,,,,None,,367.31614978990984,None,367.31614978990984,None,2022-10-18-15:18:24.321138,367.31715749995783,367.6327899999451,367.31715749995783,None,None,367.31715749995783,None,368.11647239008454,None,,,,22016,0001,2022_Oct_18_1512,localizer,2021.1.3,59.72392017631347,
block_end,scrambled,scrambled046.bmp,,,,,0,152,152,152,,,,,,,,,,,,,,,,,,,,,,,,,,,,,,,,,,,,,,,,,,None,,368.11647239008454,None,368.11647239008454,None,2022-10-18-15:18:25.122871,368.12961430009454,368.43318170006387,368.12961430009454,368.12961430009454,None,368.12961430009454,368.12961430009454,368.9328926900169,None,,,,22016,0001,2022_Oct_18_1512,localizer,2021.1.3,59.72392017631347,
block_start,objects,objects067.bmp,,,,,0,153,153,153,,,,,,,,,,,,,,,,,,,,,,,,,,,,,,,,,,,,,,,,,,t,1.7532091999892145,368.93324219994247,None,368.93324219994247,None,2022-10-18-15:18:27.721203,370.7274539999198,371.03330340003595,370.7274539999198,None,None,370.7274539999198,None,371.5329864901258,None,,,,22016,0001,2022_Oct_18_1512,localizer,2021.1.3,59.72392017631347,
block,objects,objects017.bmp,,,,,0,154,154,154,,,,,,,,,,,,,,,,,,,,,,,,,,,,,,,,,,,,,,,,,,None,,371.5329864901258,None,371.5329864901258,None,2022-10-18-15:18:28.537752,371.5338467999827,371.83272640011273,371.5338467999827,None,None,371.5338467999827,None,372.34956268996467,None,,,,22016,0001,2022_Oct_18_1512,localizer,2021.1.3,59.72392017631347,
block,objects,objects087.bmp,,,,,0,155,155,155,,,,,,,,,,,,,,,,,,,,,,,,,,,,,,,,,,,,,,,,,,None,,372.34956268996467,None,372.34956268996467,None,2022-10-18-15:18:29.354549,372.3505027999636,372.64989549992606,372.3505027999636,None,None,372.3505027999636,None,373.1502688900335,None,,,,22016,0001,2022_Oct_18_1512,localizer,2021.1.3,59.72392017631347,
block,objects,objects069.bmp,,,,,0,156,156,156,,,,,,,,,,,,,,,,,,,,,,,,,,,,,,,,,,,,,,,,,,None,,373.1502688900335,None,373.1502688900335,None,2022-10-18-15:18:30.158020,373.1647495001089,373.46607930003665,373.1647495001089,373.1647495001089,None,373.1647495001089,373.1647495001089,373.9662245899206,None,,,,22016,0001,2022_Oct_18_1512,localizer,2021.1.3,59.72392017631347,
block,objects,objects011.bmp,,,,,0,157,157,157,,,,,,,,,,,,,,,,,,,,,,,,,,,,,,,,,,,,,,,,,,None,,373.9662245899206,None,373.9662245899206,None,2022-10-18-15:18:30.971258,373.97751890006475,374.2832482000813,373.97751890006475,None,None,373.97751890006475,None,374.7830572899664,None,,,,22016,0001,2022_Oct_18_1512,localizer,2021.1.3,59.72392017631347,
block,objects,objects023.bmp,,,,,0,158,158,158,,,,,,,,,,,,,,,,,,,,,,,,,,,,,,,,,,,,,,,,,,None,,374.7830572899664,None,374.7830572899664,None,2022-10-18-15:18:31.787826,374.79307810007595,375.0998148000799,374.79307810007595,None,None,374.79307810007595,None,375.5996347899316,None,,,,22016,0001,2022_Oct_18_1512,localizer,2021.1.3,59.72392017631347,
block,objects,objects020.bmp,,,,,0,159,159,159,,,,,,,,,,,,,,,,,,,,,,,,,,,,,,,,,,,,,,,,,,None,,375.5996347899316,None,375.5996347899316,None,2022-10-18-15:18:32.604488,375.60057689994574,375.89979310007766,375.60057689994574,None,None,375.60057689994574,None,376.39976208989975,None,,,,22016,0001,2022_Oct_18_1512,localizer,2021.1.3,59.72392017631347,
block,objects,objects030.bmp,,,,,0,160,160,160,,,,,,,,,,,,,,,,,,,,,,,,,,,,,,,,,,,,,,,,,,None,,376.39976208989975,None,376.39976208989975,None,2022-10-18-15:18:33.405827,376.4005140000954,376.7161721000448,376.4005140000954,376.4005140000954,None,376.4005140000954,376.4005140000954,377.19963249012363,None,,,,22016,0001,2022_Oct_18_1512,localizer,2021.1.3,59.72392017631347,
block,objects,objects034.bmp,,,,,0,161,161,161,,,,,,,,,,,,,,,,,,,,,,,,,,,,,,,,,,,,,,,,,,None,,377.19963249012363,None,377.19963249012363,None,2022-10-18-15:18:34.205929,377.2005702999886,377.51587169989944,377.2005702999886,377.2005702999886,None,377.2005702999886,377.2005702999886,378.0161041899817,None,,,,22016,0001,2022_Oct_18_1512,localizer,2021.1.3,59.72392017631347,
block,objects,objects047.bmp,,,,,0,162,162,162,,,,,,,,,,,,,,,,,,,,,,,,,,,,,,,,,,,,,,,,,,None,,378.0161041899817,None,378.0161041899817,None,2022-10-18-15:18:35.020880,378.02556540002115,378.3329785000533,378.02556540002115,None,None,378.02556540002115,None,378.8328967900714,None,,,,22016,0001,2022_Oct_18_1512,localizer,2021.1.3,59.72392017631347,
block,objects,objects046.bmp,,,,,0,163,163,163,,,,,,,,,,,,,,,,,,,,,,,,,,,,,,,,,,,,,,,,,,None,,378.8328967900714,None,378.8328967900714,None,2022-10-18-15:18:35.837667,378.842019099975,379.149618400028,378.842019099975,None,None,378.842019099975,None,379.64979739005213,None,,,,22016,0001,2022_Oct_18_1512,localizer,2021.1.3,59.72392017631347,
block,objects,objects041.bmp,,,,,0,164,164,164,,,,,,,,,,,,,,,,,,,,,,,,,,,,,,,,,,,,,,,,,,None,,379.64979739005213,None,379.64979739005213,None,2022-10-18-15:18:36.654772,379.65047019999474,379.9500873000361,379.65047019999474,None,None,379.65047019999474,None,380.44976308995393,None,,,,22016,0001,2022_Oct_18_1512,localizer,2021.1.3,59.72392017631347,
block,objects,objects060.bmp,,,,,0,165,165,165,,,,,,,,,,,,,,,,,,,,,,,,,,,,,,,,,,,,,,,,,,None,,380.44976308995393,None,380.44976308995393,None,2022-10-18-15:18:37.456578,380.4630360000301,380.76661240006797,380.4630360000301,380.4630360000301,None,380.4630360000301,380.4630360000301,381.2668614900438,None,,,,22016,0001,2022_Oct_18_1512,localizer,2021.1.3,59.72392017631347,
block,objects,objects059.bmp,,,,,0,166,166,166,,,,,,,,,,,,,,,,,,,,,,,,,,,,,,,,,,,,,,,,,,None,,381.2668614900438,None,381.2668614900438,None,2022-10-18-15:18:38.272816,381.27756200009026,381.58266309998,381.27756200009026,None,None,381.27756200009026,None,382.08289119002876,None,,,,22016,0001,2022_Oct_18_1512,localizer,2021.1.3,59.72392017631347,
block_end,objects,objects013.bmp,,,,,0,167,167,167,,,,,,,,,,,,,,,,,,,,,,,,,,,,,,,,,,,,,,,,,,None,,382.08289119002876,None,382.08289119002876,None,2022-10-18-15:18:39.087796,382.0890254001133,382.39992109988816,382.0890254001133,None,None,382.0890254001133,None,382.89922399010976,None,,,,22016,0001,2022_Oct_18_1512,localizer,2021.1.3,59.72392017631347,
block_start,faces,faces073.bmp,,,,,0,168,168,168,,,,,,,,,,,,,,,,,,,,,,,,,,,,,,,,,,,,,,,,,,t,1.7862643001135439,382.8993446000386,None,382.8993446000386,None,2022-10-18-15:18:41.706049,384.7112912000157,385.0163970000576,384.7112912000157,None,None,384.7112912000157,None,385.51738918998745,None,,,,22016,0001,2022_Oct_18_1512,localizer,2021.1.3,59.72392017631347,
block,faces,faces009.bmp,,,,,0,169,169,169,,,,,,,,,,,,,,,,,,,,,,,,,,,,,,,,,,,,,,,,,,None,,385.51738918998745,None,385.51738918998745,None,2022-10-18-15:18:42.525141,385.5318426999729,385.8330403000582,385.5318426999729,None,None,385.5318426999729,None,386.3332294899272,None,,,,22016,0001,2022_Oct_18_1512,localizer,2021.1.3,59.72392017631347,
block,faces,faces009.bmp,,,,,0,170,170,170,,,,,,,,,,,,,,,,,,,,,,,,,,,,,,,,,,,,,,,,,,None,,386.3332294899272,None,386.3332294899272,None,2022-10-18-15:18:43.337985,386.33435810008086,386.6500895000063,386.33435810008086,None,y,386.33435810008086,None,387.13373849012424,None,0.7229090000037104,,,22016,0001,2022_Oct_18_1512,localizer,2021.1.3,59.72392017631347,
block,faces,faces054.bmp,,,,,0,171,171,171,,,,,,,,,,,,,,,,,,,,,,,,,,,,,,,,,,,,,,,,,,None,,387.13373849012424,None,387.13373849012424,None,2022-10-18-15:18:44.141496,387.1412788000889,387.44968169997446,387.1412788000889,387.1412788000889,None,387.1412788000889,387.1412788000889,387.95017729008106,None,,,,22016,0001,2022_Oct_18_1512,localizer,2021.1.3,59.72392017631347,
block,faces,faces010.bmp,,,,,0,172,172,172,,,,,,,,,,,,,,,,,,,,,,,,,,,,,,,,,,,,,,,,,,None,,387.95017729008106,None,387.95017729008106,None,2022-10-18-15:18:44.956123,387.95118229999207,388.25034809997305,387.95118229999207,None,None,387.95118229999207,None,388.76597089001444,None,,,,22016,0001,2022_Oct_18_1512,localizer,2021.1.3,59.72392017631347,
block,faces,faces016.bmp,,,,,0,173,173,173,,,,,,,,,,,,,,,,,,,,,,,,,,,,,,,,,,,,,,,,,,None,,388.76597089001444,None,388.76597089001444,None,2022-10-18-15:18:45.771194,388.7758261000272,389.08308129990473,388.7758261000272,None,None,388.7758261000272,None,389.5832004899392,None,,,,22016,0001,2022_Oct_18_1512,localizer,2021.1.3,59.72392017631347,
block,faces,faces058.bmp,,,,,0,174,174,174,,,,,,,,,,,,,,,,,,,,,,,,,,,,,,,,,,,,,,,,,,None,,389.5832004899392,None,389.5832004899392,None,2022-10-18-15:18:46.587938,389.5838029999286,389.88319350010715,389.5838029999286,None,None,389.5838029999286,None,390.38312689012383,None,,,,22016,0001,2022_Oct_18_1512,localizer,2021.1.3,59.72392017631347,
block,faces,faces051.bmp,,,,,0,175,175,175,,,,,,,,,,,,,,,,,,,,,,,,,,,,,,,,,,,,,,,,,,None,,390.38312689012383,None,390.38312689012383,None,2022-10-18-15:18:47.390936,390.39696369995363,390.69962100009434,390.39696369995363,390.39696369995363,None,390.39696369995363,390.39696369995363,391.20011309005787,None,,,,22016,0001,2022_Oct_18_1512,localizer,2021.1.3,59.72392017631347,
block,faces,faces084.bmp,,,,,0,176,176,176,,,,,,,,,,,,,,,,,,,,,,,,,,,,,,,,,,,,,,,,,,None,,391.20011309005787,None,391.20011309005787,None,2022-10-18-15:18:48.205948,391.2083682999946,391.51643209997565,391.2083682999946,None,None,391.2083682999946,None,392.01660528995563,None,,,,22016,0001,2022_Oct_18_1512,localizer,2021.1.3,59.72392017631347,
block,faces,faces075.bmp,,,,,0,177,177,177,,,,,,,,,,,,,,,,,,,,,,,,,,,,,,,,,,,,,,,,,,None,,392.01660528995563,None,392.01660528995563,None,2022-10-18-15:18:49.021566,392.0177406000439,392.333671099972,392.0177406000439,None,None,392.0177406000439,None,392.8334695900092,None,,,,22016,0001,2022_Oct_18_1512,localizer,2021.1.3,59.72392017631347,
block,faces,faces036.bmp,,,,,0,178,178,178,,,,,,,,,,,,,,,,,,,,,,,,,,,,,,,,,,,,,,,,,,None,,392.8334695900092,None,392.8334695900092,None,2022-10-18-15:18:49.839348,392.8443881999701,393.14956129994243,392.8443881999701,None,None,392.8443881999701,None,393.64976988995915,None,,,,22016,0001,2022_Oct_18_1512,localizer,2021.1.3,59.72392017631347,
block,faces,faces012.bmp,,,,,0,179,179,179,,,,,,,,,,,,,,,,,,,,,,,,,,,,,,,,,,,,,,,,,,None,,393.64976988995915,None,393.64976988995915,None,2022-10-18-15:18:50.654541,393.65587210003287,393.9668743000366,393.65587210003287,None,None,393.65587210003287,None,394.46661989002024,None,,,,22016,0001,2022_Oct_18_1512,localizer,2021.1.3,59.72392017631347,
block,faces,faces022.bmp,,,,,0,180,180,180,,,,,,,,,,,,,,,,,,,,,,,,,,,,,,,,,,,,,,,,,,None,,394.46661989002024,None,394.46661989002024,None,2022-10-18-15:18:51.471596,394.4785603999626,394.7836392999161,394.4785603999626,None,None,394.4785603999626,None,395.2835591899464,None,,,,22016,0001,2022_Oct_18_1512,localizer,2021.1.3,59.72392017631347,
block,faces,faces047.bmp,,,,,0,181,181,181,,,,,,,,,,,,,,,,,,,,,,,,,,,,,,,,,,,,,,,,,,None,,395.2835591899464,None,395.2835591899464,None,2022-10-18-15:18:52.289321,395.2993942000903,395.599917500047,395.2993942000903,None,None,395.2993942000903,None,396.09998759005686,None,,,,22016,0001,2022_Oct_18_1512,localizer,2021.1.3,59.72392017631347,
block_end,faces,faces005.bmp,,,,,0,182,182,182,,,,,,,,,,,,,,,,,,,,,,,,,,,,,,,,,,,,,,,,,,None,,396.09998759005686,None,396.09998759005686,None,2022-10-18-15:18:53.104755,396.11109200003557,396.41682399995625,396.11109200003557,None,None,396.11109200003557,None,396.9160746900132,None,,,,22016,0001,2022_Oct_18_1512,localizer,2021.1.3,59.72392017631347,
block_start,faces,faces003.bmp,,,,,0,183,183,183,,,,,,,,,,,,,,,,,,,,,,,,,,,,,,,,,,,,,,,,,,t,1.7692838001530617,396.9161946999375,None,396.9161946999375,None,2022-10-18-15:18:55.706455,398.71256950008683,399.01652890001424,398.71256950008683,None,None,398.71256950008683,None,399.5167339901207,None,,,,22016,0001,2022_Oct_18_1512,localizer,2021.1.3,59.72392017631347,
block,faces,faces055.bmp,,,,,0,184,184,184,,,,,,,,,,,,,,,,,,,,,,,,,,,,,,,,,,,,,,,,,,None,,399.5167339901207,None,399.5167339901207,None,2022-10-18-15:18:56.521709,399.52768749999814,399.8329477000516,399.52768749999814,None,None,399.52768749999814,None,400.3333828899311,None,,,,22016,0001,2022_Oct_18_1512,localizer,2021.1.3,59.72392017631347,
block,faces,faces011.bmp,,,,,0,185,185,185,,,,,,,,,,,,,,,,,,,,,,,,,,,,,,,,,,,,,,,,,,None,,400.3333828899311,None,400.3333828899311,None,2022-10-18-15:18:57.339340,400.33427169988863,400.6500915000215,400.33427169988863,None,None,400.33427169988863,None,401.1333597899182,None,,,,22016,0001,2022_Oct_18_1512,localizer,2021.1.3,59.72392017631347,
block,faces,faces043.bmp,,,,,0,186,186,186,,,,,,,,,,,,,,,,,,,,,,,,,,,,,,,,,,,,,,,,,,None,,401.1333597899182,None,401.1333597899182,None,2022-10-18-15:18:58.141118,401.1471768999472,401.45038729999214,401.1471768999472,401.1471768999472,None,401.1471768999472,401.1471768999472,401.9501238899073,None,,,,22016,0001,2022_Oct_18_1512,localizer,2021.1.3,59.72392017631347,
block,faces,faces024.bmp,,,,,0,187,187,187,,,,,,,,,,,,,,,,,,,,,,,,,,,,,,,,,,,,,,,,,,None,,401.9501238899073,None,401.9501238899073,None,2022-10-18-15:18:58.955845,401.96188249997795,402.2665965000633,401.96188249997795,None,None,401.96188249997795,None,402.766458890005,None,,,,22016,0001,2022_Oct_18_1512,localizer,2021.1.3,59.72392017631347,
block,faces,faces082.bmp,,,,,0,188,188,188,,,,,,,,,,,,,,,,,,,,,,,,,,,,,,,,,,,,,,,,,,None,,402.766458890005,None,402.766458890005,None,2022-10-18-15:18:59.771444,402.77767809992656,403.082845200086,402.77767809992656,None,None,402.77767809992656,None,403.58406869003085,None,,,,22016,0001,2022_Oct_18_1512,localizer,2021.1.3,59.72392017631347,
block,faces,faces077.bmp,,,,,0,189,189,189,,,,,,,,,,,,,,,,,,,,,,,,,,,,,,,,,,,,,,,,,,None,,403.58406869003085,None,403.58406869003085,None,2022-10-18-15:19:00.590451,403.59858700004406,403.90005959989503,403.59858700004406,None,None,403.59858700004406,None,404.4006158901146,None,,,,22016,0001,2022_Oct_18_1512,localizer,2021.1.3,59.72392017631347,
block,faces,faces080.bmp,,,,,0,190,190,190,,,,,,,,,,,,,,,,,,,,,,,,,,,,,,,,,,,,,,,,,,None,,404.4006158901146,None,404.4006158901146,None,2022-10-18-15:19:01.407385,404.417613199912,404.73314410005696,404.417613199912,None,None,404.417613199912,None,405.2168496899074,None,,,,22016,0001,2022_Oct_18_1512,localizer,2021.1.3,59.72392017631347,
block,faces,faces037.bmp,,,,,0,191,191,191,,,,,,,,,,,,,,,,,,,,,,,,,,,,,,,,,,,,,,,,,,None,,405.2168496899074,None,405.2168496899074,None,2022-10-18-15:19:02.222614,405.22824020008557,405.5334292999469,405.22824020008557,None,None,405.22824020008557,None,406.0332407900831,None,,,,22016,0001,2022_Oct_18_1512,localizer,2021.1.3,59.72392017631347,
block,faces,faces066.bmp,,,,,0,192,192,192,,,,,,,,,,,,,,,,,,,,,,,,,,,,,,,,,,,,,,,,,,None,,406.0332407900831,None,406.0332407900831,None,2022-10-18-15:19:03.038149,406.0342085000593,406.33343619992957,406.0342085000593,None,None,406.0342085000593,None,406.8335895899916,None,,,,22016,0001,2022_Oct_18_1512,localizer,2021.1.3,59.72392017631347,
block,faces,faces009.bmp,,,,,0,193,193,193,,,,,,,,,,,,,,,,,,,,,,,,,,,,,,,,,,,,,,,,,,None,,406.8335895899916,None,406.8335895899916,None,2022-10-18-15:19:03.841279,406.8367985000368,407.15051990002394,406.8367985000368,406.8367985000368,None,406.8367985000368,406.8367985000368,407.6491249900544,None,,,,22016,0001,2022_Oct_18_1512,localizer,2021.1.3,59.72392017631347,
block,faces,faces070.bmp,,,,,0,194,194,194,,,,,,,,,,,,,,,,,,,,,,,,,,,,,,,,,,,,,,,,,,None,,407.6491249900544,None,407.6491249900544,None,2022-10-18-15:19:04.653906,407.65895850001834,407.9667046999093,407.65895850001834,None,None,407.65895850001834,None,408.4667811899679,None,,,,22016,0001,2022_Oct_18_1512,localizer,2021.1.3,59.72392017631347,
block,faces,faces074.bmp,,,,,0,195,195,195,,,,,,,,,,,,,,,,,,,,,,,,,,,,,,,,,,,,,,,,,,None,,408.4667811899679,None,408.4667811899679,None,2022-10-18-15:19:05.471553,408.47760839993134,408.7832512999885,408.47760839993134,None,None,408.47760839993134,None,409.2836243899772,None,,,,22016,0001,2022_Oct_18_1512,localizer,2021.1.3,59.72392017631347,
block,faces,faces083.bmp,,,,,0,196,196,196,,,,,,,,,,,,,,,,,,,,,,,,,,,,,,,,,,,,,,,,,,None,,409.2836243899772,None,409.2836243899772,None,2022-10-18-15:19:06.289553,409.2846242999658,409.6005953999702,409.2846242999658,None,None,409.2846242999658,None,410.0837521900656,None,,,,22016,0001,2022_Oct_18_1512,localizer,2021.1.3,59.72392017631347,
block_end,faces,faces027.bmp,,,,,0,197,197,197,,,,,,,,,,,,,,,,,,,,,,,,,,,,,,,,,,,,,,,,,,None,,410.0837521900656,None,410.0837521900656,None,2022-10-18-15:19:07.091508,410.09805559995584,410.4007425000891,410.09805559995584,410.09805559995584,None,410.09805559995584,410.09805559995584,410.90054529004266,None,,,,22016,0001,2022_Oct_18_1512,localizer,2021.1.3,59.72392017631347,
block_start,scrambled,scrambled009.bmp,,,,,0,198,198,198,,,,,,,,,,,,,,,,,,,,,,,,,,,,,,,,,,,,,,,,,,t,1.785334900021553,410.9006437000353,None,410.9006437000353,None,2022-10-18-15:19:09.708562,412.70549169997685,413.0165498999413,412.70549169997685,None,None,412.70549169997685,None,413.51703208994587,None,,,,22016,0001,2022_Oct_18_1512,localizer,2021.1.3,59.72392017631347,
block,scrambled,scrambled011.bmp,,,,,0,199,199,199,,,,,,,,,,,,,,,,,,,,,,,,,,,,,,,,,,,,,,,,,,None,,413.51703208994587,None,413.51703208994587,None,2022-10-18-15:19:10.522792,413.5177396000363,413.8170151000377,413.5177396000363,None,None,413.5177396000363,None,414.33309998998885,None,,,,22016,0001,2022_Oct_18_1512,localizer,2021.1.3,59.72392017631347,
block,scrambled,scrambled019.bmp,,,,,0,200,200,200,,,,,,,,,,,,,,,,,,,,,,,,,,,,,,,,,,,,,,,,,,None,,414.33309998998885,None,414.33309998998885,None,2022-10-18-15:19:11.337872,414.34329969994724,414.6501949999947,414.34329969994724,None,None,414.34329969994724,None,415.15055639001076,None,,,,22016,0001,2022_Oct_18_1512,localizer,2021.1.3,59.72392017631347,
block,scrambled,scrambled079.bmp,,,,,0,201,201,201,,,,,,,,,,,,,,,,,,,,,,,,,,,,,,,,,,,,,,,,,,None,,415.15055639001076,None,415.15055639001076,None,2022-10-18-15:19:12.157280,415.1639862000011,415.46724510006607,415.1639862000011,None,None,415.1639862000011,None,415.96709439002444,None,,,,22016,0001,2022_Oct_18_1512,localizer,2021.1.3,59.72392017631347,
block,scrambled,scrambled046.bmp,,,,,0,202,202,202,,,,,,,,,,,,,,,,,,,,,,,,,,,,,,,,,,,,,,,,,,None,,415.96709439002444,None,415.96709439002444,None,2022-10-18-15:19:12.973852,415.96758250007406,416.2672009000089,415.96758250007406,None,None,415.96758250007406,None,416.78281819012483,None,,,,22016,0001,2022_Oct_18_1512,localizer,2021.1.3,59.72392017631347,
block,scrambled,scrambled069.bmp,,,,,0,203,203,203,,,,,,,,,,,,,,,,,,,,,,,,,,,,,,,,,,,,,,,,,,None,,416.78281819012483,None,416.78281819012483,None,2022-10-18-15:19:13.787597,416.7868206000421,417.0999628000427,416.7868206000421,None,None,416.7868206000421,None,417.5997553899186,None,,,,22016,0001,2022_Oct_18_1512,localizer,2021.1.3,59.72392017631347,
block,scrambled,scrambled006.bmp,,,,,0,204,204,204,,,,,,,,,,,,,,,,,,,,,,,,,,,,,,,,,,,,,,,,,,None,,417.5997553899186,None,417.5997553899186,None,2022-10-18-15:19:14.604529,417.600681199925,417.89992740005255,417.600681199925,None,None,417.600681199925,None,418.4004672899144,None,,,,22016,0001,2022_Oct_18_1512,localizer,2021.1.3,59.72392017631347,
block,scrambled,scrambled025.bmp,,,,,0,205,205,205,,,,,,,,,,,,,,,,,,,,,,,,,,,,,,,,,,,,,,,,,,None,,418.4004672899144,None,418.4004672899144,None,2022-10-18-15:19:15.408205,418.41445960011333,418.71733439993113,418.41445960011333,418.41445960011333,None,418.41445960011333,418.41445960011333,419.21693289007527,None,,,,22016,0001,2022_Oct_18_1512,localizer,2021.1.3,59.72392017631347,
block,scrambled,scrambled057.bmp,,,,,0,206,206,206,,,,,,,,,,,,,,,,,,,,,,,,,,,,,,,,,,,,,,,,,,None,,419.21693289007527,None,419.21693289007527,None,2022-10-18-15:19:16.222846,419.22798709990457,419.53320900001563,419.22798709990457,None,None,419.22798709990457,None,420.03332828993445,None,,,,22016,0001,2022_Oct_18_1512,localizer,2021.1.3,59.72392017631347,
block,scrambled,scrambled068.bmp,,,,,0,207,207,207,,,,,,,,,,,,,,,,,,,,,,,,,,,,,,,,,,,,,,,,,,None,,420.03332828993445,None,420.03332828993445,None,2022-10-18-15:19:17.039464,420.0342794000171,420.33359510009177,420.0342794000171,None,None,420.0342794000171,None,420.83368548990694,None,,,,22016,0001,2022_Oct_18_1512,localizer,2021.1.3,59.72392017631347,
block,scrambled,scrambled068.bmp,,,,,0,208,208,208,,,,,,,,,,,,,,,,,,,,,,,,,,,,,,,,,,,,,,,,,,None,,420.83368548990694,None,420.83368548990694,None,2022-10-18-15:19:17.841623,420.83635489991866,421.1506453000475,420.83635489991866,420.83635489991866,y,420.83635489991866,420.83635489991866,421.6497749901144,None,0.7349918000400066,,,22016,0001,2022_Oct_18_1512,localizer,2021.1.3,59.72392017631347,
block,scrambled,scrambled023.bmp,,,,,0,209,209,209,,,,,,,,,,,,,,,,,,,,,,,,,,,,,,,,,,,,,,,,,,None,,421.6497749901144,None,421.6497749901144,None,2022-10-18-15:19:18.654676,421.65090280002914,421.96644459990785,421.65090280002914,None,None,421.65090280002914,None,422.466449190001,None,,,,22016,0001,2022_Oct_18_1512,localizer,2021.1.3,59.72392017631347,
block,scrambled,scrambled022.bmp,,,,,0,210,210,210,,,,,,,,,,,,,,,,,,,,,,,,,,,,,,,,,,,,,,,,,,None,,422.466449190001,None,422.466449190001,None,2022-10-18-15:19:19.471559,422.4771589001175,422.7843486000784,422.4771589001175,None,None,422.4771589001175,None,423.2834662900539,None,,,,22016,0001,2022_Oct_18_1512,localizer,2021.1.3,59.72392017631347,
block,scrambled,scrambled030.bmp,,,,,0,211,211,211,,,,,,,,,,,,,,,,,,,,,,,,,,,,,,,,,,,,,,,,,,None,,423.2834662900539,None,423.2834662900539,None,2022-10-18-15:19:20.288255,423.28424490010366,423.5996916999575,423.28424490010366,None,None,423.28424490010366,None,424.0833766901167,None,,,,22016,0001,2022_Oct_18_1512,localizer,2021.1.3,59.72392017631347,
block_end,scrambled,scrambled040.bmp,,,,,0,212,212,212,,,,,,,,,,,,,,,,,,,,,,,,,,,,,,,,,,,,,,,,,,None,,424.0833766901167,None,424.0833766901167,None,2022-10-18-15:19:21.090341,424.0856681999285,424.4001919000875,424.0856681999285,424.0856681999285,None,424.0856681999285,424.0856681999285,424.89998148994056,None,,,,22016,0001,2022_Oct_18_1512,localizer,2021.1.3,59.72392017631347,
null_block,null_block,null_block.bmp,,,,,0,213,213,213,,,,,,,,,,,,,,,,,,,,,,,,,,,,,,,,,,,,,,,,,,t,1.7854658998548985,424.90012530004606,None,424.90012530004606,None,2022-10-18-15:19:23.720602,426.7166297899792,None,426.7166297899792,None,None,426.7166297899792,None,426.7197092999704,None,,,,22016,0001,2022_Oct_18_1512,localizer,2021.1.3,59.72392017631347,
block_start,scenes,scenes078.bmp,,,,,0,214,214,214,,,,,,,,,,,,,,,,,,,,,,,,,,,,,,,,,,,,,,,,,,t,1.9517819001339376,438.73392340005375,None,438.73392340005375,None,2022-10-18-15:19:37.709969,440.7160593001172,441.0168359999079,440.7160593001172,None,None,440.7160593001172,None,441.5168182899477,None,,,,22016,0001,2022_Oct_18_1512,localizer,2021.1.3,59.72392017631347,
block,scenes,scenes029.bmp,,,,,0,215,215,215,,,,,,,,,,,,,,,,,,,,,,,,,,,,,,,,,,,,,,,,,,None,,441.5168182899477,None,441.5168182899477,None,2022-10-18-15:19:38.521615,441.5270559999626,441.8332553000655,441.5270559999626,None,None,441.5270559999626,None,442.3335686899489,None,,,,22016,0001,2022_Oct_18_1512,localizer,2021.1.3,59.72392017631347,
block,scenes,scenes034.bmp,,,,,0,216,216,216,,,,,,,,,,,,,,,,,,,,,,,,,,,,,,,,,,,,,,,,,,None,,442.3335686899489,None,442.3335686899489,None,2022-10-18-15:19:39.338340,442.33426630008034,442.63378669996746,442.33426630008034,None,None,442.33426630008034,None,443.1335366899846,None,,,,22016,0001,2022_Oct_18_1512,localizer,2021.1.3,59.72392017631347,
block,scenes,scenes063.bmp,,,,,0,217,217,217,,,,,,,,,,,,,,,,,,,,,,,,,,,,,,,,,,,,,,,,,,None,,443.1335366899846,None,443.1335366899846,None,2022-10-18-15:19:40.140492,443.14733799989335,443.450395999942,443.14733799989335,443.14733799989335,None,443.14733799989335,443.14733799989335,443.95021299000365,None,,,,22016,0001,2022_Oct_18_1512,localizer,2021.1.3,59.72392017631347,
block,scenes,scenes038.bmp,,,,,0,218,218,218,,,,,,,,,,,,,,,,,,,,,,,,,,,,,,,,,,,,,,,,,,None,,443.95021299000365,None,443.95021299000365,None,2022-10-18-15:19:40.954982,443.956925699953,444.26678010006435,443.956925699953,None,None,443.956925699953,None,444.7668791900622,None,,,,22016,0001,2022_Oct_18_1512,localizer,2021.1.3,59.72392017631347,
block,scenes,scenes066.bmp,,,,,0,219,219,219,,,,,,,,,,,,,,,,,,,,,,,,,,,,,,,,,,,,,,,,,,None,,444.7668791900622,None,444.7668791900622,None,2022-10-18-15:19:41.771874,444.7676665999461,445.0668995999731,444.7676665999461,None,None,444.7676665999461,None,445.56706048997586,None,,,,22016,0001,2022_Oct_18_1512,localizer,2021.1.3,59.72392017631347,
block,scenes,scenes077.bmp,,,,,0,220,220,220,,,,,,,,,,,,,,,,,,,,,,,,,,,,,,,,,,,,,,,,,,None,,445.56706048997586,None,445.56706048997586,None,2022-10-18-15:19:42.574816,445.5809973999858,445.88345249998383,445.5809973999858,445.5809973999858,None,445.5809973999858,445.5809973999858,446.38465229009745,None,,,,22016,0001,2022_Oct_18_1512,localizer,2021.1.3,59.72392017631347,
block,scenes,scenes015.bmp,,,,,0,221,221,221,,,,,,,,,,,,,,,,,,,,,,,,,,,,,,,,,,,,,,,,,,None,,446.38465229009745,None,446.38465229009745,None,2022-10-18-15:19:43.391593,446.3996242999565,446.7001143998932,446.3996242999565,None,None,446.3996242999565,None,447.20112009004225,None,,,,22016,0001,2022_Oct_18_1512,localizer,2021.1.3,59.72392017631347,
block,scenes,scenes030.bmp,,,,,0,222,222,222,,,,,,,,,,,,,,,,,,,,,,,,,,,,,,,,,,,,,,,,,,None,,447.20112009004225,None,447.20112009004225,None,2022-10-18-15:19:44.207057,447.21378699992783,447.5166615000926,447.21378699992783,None,None,447.21378699992783,None,448.01758799010423,None,,,,22016,0001,2022_Oct_18_1512,localizer,2021.1.3,59.72392017631347,
block,scenes,scenes014.bmp,,,,,0,223,223,223,,,,,,,,,,,,,,,,,,,,,,,,,,,,,,,,,,,,,,,,,,None,,448.01758799010423,None,448.01758799010423,None,2022-10-18-15:19:45.023536,448.0199818999972,448.33404630003497,448.0199818999972,None,None,448.0199818999972,None,448.8338249899214,None,,,,22016,0001,2022_Oct_18_1512,localizer,2021.1.3,59.72392017631347,
block,scenes,scenes028.bmp,,,,,0,224,224,224,,,,,,,,,,,,,,,,,,,,,,,,,,,,,,,,,,,,,,,,,,None,,448.8338249899214,None,448.8338249899214,None,2022-10-18-15:19:45.839764,448.84476149990223,449.150510400068,448.84476149990223,None,None,448.84476149990223,None,449.6510907901218,None,,,,22016,0001,2022_Oct_18_1512,localizer,2021.1.3,59.72392017631347,
block,scenes,scenes011.bmp,,,,,0,225,225,225,,,,,,,,,,,,,,,,,,,,,,,,,,,,,,,,,,,,,,,,,,None,,449.6510907901218,None,449.6510907901218,None,2022-10-18-15:19:46.657025,449.66366500011645,449.9672306999564,449.66366500011645,None,None,449.66366500011645,None,450.4667299900437,None,,,,22016,0001,2022_Oct_18_1512,localizer,2021.1.3,59.72392017631347,
block,scenes,scenes092.bmp,,,,,0,226,226,226,,,,,,,,,,,,,,,,,,,,,,,,,,,,,,,,,,,,,,,,,,None,,450.4667299900437,None,450.4667299900437,None,2022-10-18-15:19:47.471704,450.4768546000123,450.7836382999085,450.4768546000123,None,None,450.4768546000123,None,451.283314389945,None,,,,22016,0001,2022_Oct_18_1512,localizer,2021.1.3,59.72392017631347,
block,scenes,scenes009.bmp,,,,,0,227,227,227,,,,,,,,,,,,,,,,,,,,,,,,,,,,,,,,,,,,,,,,,,None,,451.283314389945,None,451.283314389945,None,2022-10-18-15:19:48.288086,451.2924961000681,451.6008868000936,451.2924961000681,None,None,451.2924961000681,None,452.1005803899141,None,,,,22016,0001,2022_Oct_18_1512,localizer,2021.1.3,59.72392017631347,
block_end,scenes,scenes003.bmp,,,,,0,228,228,228,,,,,,,,,,,,,,,,,,,,,,,,,,,,,,,,,,,,,,,,,,None,,452.1005803899141,None,452.1005803899141,None,2022-10-18-15:19:49.106423,452.10154760000296,452.4171808999963,452.10154760000296,None,None,452.10154760000296,None,452.91700879002457,None,,,,22016,0001,2022_Oct_18_1512,localizer,2021.1.3,59.72392017631347,
block_start,objects,objects059.bmp,,,,,0,229,229,229,,,,,,,,,,,,,,,,,,,,,,,,,,,,,,,,,,,,,,,,,,t,1.7682939998339862,452.9171764999628,None,452.9171764999628,None,2022-10-18-15:19:51.706291,454.7030207000207,455.0167765999213,454.7030207000207,None,None,454.7030207000207,None,455.51694039006253,None,,,,22016,0001,2022_Oct_18_1512,localizer,2021.1.3,59.72392017631347,
block,objects,objects025.bmp,,,,,0,230,230,230,,,,,,,,,,,,,,,,,,,,,,,,,,,,,,,,,,,,,,,,,,None,,455.51694039006253,None,455.51694039006253,None,2022-10-18-15:19:52.521915,455.5281541000586,455.8339356998913,455.5281541000586,None,None,455.5281541000586,None,456.33406328998973,None,,,,22016,0001,2022_Oct_18_1512,localizer,2021.1.3,59.72392017631347,
block,objects,objects037.bmp,,,,,0,231,231,231,,,,,,,,,,,,,,,,,,,,,,,,,,,,,,,,,,,,,,,,,,None,,456.33406328998973,None,456.33406328998973,None,2022-10-18-15:19:53.339824,456.3346231000032,456.6504750000313,456.3346231000032,None,None,456.3346231000032,None,457.13463499008213,None,,,,22016,0001,2022_Oct_18_1512,localizer,2021.1.3,59.72392017631347,
block,objects,objects013.bmp,,,,,0,232,232,232,,,,,,,,,,,,,,,,,,,,,,,,,,,,,,,,,,,,,,,,,,None,,457.13463499008213,None,457.13463499008213,None,2022-10-18-15:19:54.143455,457.1389130000025,457.45091330003925,457.1389130000025,457.1389130000025,None,457.1389130000025,457.1389130000025,457.9507250900613,None,,,,22016,0001,2022_Oct_18_1512,localizer,2021.1.3,59.72392017631347,
block,objects,objects052.bmp,,,,,0,233,233,233,,,,,,,,,,,,,,,,,,,,,,,,,,,,,,,,,,,,,,,,,,None,,457.9507250900613,None,457.9507250900613,None,2022-10-18-15:19:54.956465,457.9626301000826,458.2672019000165,457.9626301000826,None,None,457.9626301000826,None,458.76771958994215,None,,,,22016,0001,2022_Oct_18_1512,localizer,2021.1.3,59.72392017631347,
block,objects,objects028.bmp,,,,,0,234,234,234,,,,,,,,,,,,,,,,,,,,,,,,,,,,,,,,,,,,,,,,,,None,,458.76771958994215,None,458.76771958994215,None,2022-10-18-15:19:55.773457,458.7700418001041,459.0678095999174,458.7700418001041,None,None,458.7700418001041,None,459.5844332900131,None,,,,22016,0001,2022_Oct_18_1512,localizer,2021.1.3,59.72392017631347,
block,objects,objects058.bmp,,,,,0,235,235,235,,,,,,,,,,,,,,,,,,,,,,,,,,,,,,,,,,,,,,,,,,None,,459.5844332900131,None,459.5844332900131,None,2022-10-18-15:19:56.591184,459.598253400065,459.9002193999477,459.598253400065,None,None,459.598253400065,None,460.4044146899367,None,,,,22016,0001,2022_Oct_18_1512,localizer,2021.1.3,59.72392017631347,
block,objects,objects005.bmp,,,,,0,236,236,236,,,,,,,,,,,,,,,,,,,,,,,,,,,,,,,,,,,,,,,,,,None,,460.4044146899367,None,460.4044146899367,None,2022-10-18-15:19:57.411180,460.41385739995167,460.7168066999875,460.41385739995167,None,None,460.41385739995167,None,461.21661809000653,None,,,,22016,0001,2022_Oct_18_1512,localizer,2021.1.3,59.72392017631347,
block,objects,objects082.bmp,,,,,0,237,237,237,,,,,,,,,,,,,,,,,,,,,,,,,,,,,,,,,,,,,,,,,,None,,461.21661809000653,None,461.21661809000653,None,2022-10-18-15:19:58.221590,461.226152200019,461.53418609988876,461.226152200019,None,None,461.226152200019,None,462.03402058996727,None,,,,22016,0001,2022_Oct_18_1512,localizer,2021.1.3,59.72392017631347,
block,objects,objects055.bmp,,,,,0,238,238,238,,,,,,,,,,,,,,,,,,,,,,,,,,,,,,,,,,,,,,,,,,None,,462.03402058996727,None,462.03402058996727,None,2022-10-18-15:19:59.040448,462.045818899991,462.3505086998921,462.045818899991,None,None,462.045818899991,None,462.8504340900807,None,,,,22016,0001,2022_Oct_18_1512,localizer,2021.1.3,59.72392017631347,
block,objects,objects077.bmp,,,,,0,239,239,239,,,,,,,,,,,,,,,,,,,,,,,,,,,,,,,,,,,,,,,,,,None,,462.8504340900807,None,462.8504340900807,None,2022-10-18-15:19:59.855184,462.85141330002807,463.1672253999859,462.85141330002807,None,None,462.85141330002807,None,463.66676899006126,None,,,,22016,0001,2022_Oct_18_1512,localizer,2021.1.3,59.72392017631347,
block,objects,objects085.bmp,,,,,0,240,240,240,,,,,,,,,,,,,,,,,,,,,,,,,,,,,,,,,,,,,,,,,,None,,463.66676899006126,None,463.66676899006126,None,2022-10-18-15:20:00.671715,463.67767519992776,463.98394590010867,463.67767519992776,None,None,463.67767519992776,None,464.48372069008184,None,,,,22016,0001,2022_Oct_18_1512,localizer,2021.1.3,59.72392017631347,
block,objects,objects043.bmp,,,,,0,241,241,241,,,,,,,,,,,,,,,,,,,,,,,,,,,,,,,,,,,,,,,,,,None,,464.48372069008184,None,464.48372069008184,None,2022-10-18-15:20:01.488679,464.49002830008976,464.80029710009694,464.49002830008976,None,None,464.49002830008976,None,465.3008881901158,None,,,,22016,0001,2022_Oct_18_1512,localizer,2021.1.3,59.72392017631347,
block,objects,objects063.bmp,,,,,0,242,242,242,,,,,,,,,,,,,,,,,,,,,,,,,,,,,,,,,,,,,,,,,,None,,465.3008881901158,None,465.3008881901158,None,2022-10-18-15:20:02.306627,465.3031232000794,465.6177322999574,465.3031232000794,None,None,465.3031232000794,None,466.11740969012027,None,,,,22016,0001,2022_Oct_18_1512,localizer,2021.1.3,59.72392017631347,
block_end,objects,objects039.bmp,,,,,0,243,243,243,,,,,,,,,,,,,,,,,,,,,,,,,,,,,,,,,,,,,,,,,,None,,466.11740969012027,None,466.11740969012027,None,2022-10-18-15:20:03.123150,466.12461249995977,466.4336914999876,466.12461249995977,None,None,466.12461249995977,None,466.9329221901251,None,,,,22016,0001,2022_Oct_18_1512,localizer,2021.1.3,59.72392017631347,
,,,,,,,,,,,,,,,,,,,,,,,,,,,,,,,,,,,,,,,,,,,,,,,,,,,,,,,,,,,,,,,,,,,,,466.9333073000889,None,,,,,,,
