block_type,condition,img_name,Button.thisRepN,Button.thisTrialN,Button.thisN,Button.thisIndex,trials.thisRepN,trials.thisTrialN,trials.thisN,trials.thisIndex,Ready_experimenter_text.started,Ready_experimenter_text.stopped,Ready_experimenter_resp.keys,Ready_experimenter_resp.rt,Ready_experimenter_resp.started,Ready_experimenter_resp.stopped,Alignment_background.started,Alignment_background.stopped,Alignment_image.started,Alignment_image.stopped,Alignment_resp.keys,Alignment_resp.rt,Alignment_resp.started,Alignment_resp.stopped,Button_text.started,Button_text.stopped,Index_text.started,Index_text.stopped,Index_resp.keys,Index_resp.rt,Index_resp.started,Index_resp.stopped,Middle_text.started,Middle_text.stopped,Middle_resp.keys,Middle_resp.rt,Middle_resp.started,Middle_resp.stopped,Repeat_text.started,Repeat_text.stopped,Repeat_resp.keys,Repeat_resp.corr,Repeat_resp.rt,Repeat_resp.started,Repeat_resp.stopped,instruction_text.started,instruction_text.stopped,key_resp.keys,key_resp.rt,key_resp.started,key_resp.stopped,scanner_t.keys,scanner_t.rt,scanner_t.started,scanner_t.stopped,fixation_wait_for_t.started,fixation_wait_for_t.stopped,real_timestamp_trial_start,image.started,image.stopped,fixation.started,fixation.stopped,repeat_response.keys,repeat_response.started,repeat_response.stopped,fixation_null.started,fixation_null.stopped,repeat_response.rt,end_text.started,end_text.stopped,participant,run,date,expName,psychopyVersion,frameRate,
,,,,,,,,,,,11.630758399958722,None,return,441.22534839995205,11.630758399958722,None,,,,,,,,,,,,,,,,,,,,,,,,,,,,,,,,,,,,,,,,,,,,,,,,,,,,,,,21003,0002,2022_Mar_01_1533,localizer,2021.1.3,59.61408228093505,
,,,,,,,,,,,,,,,,,452.9070348000387,None,452.9070348000387,None,return,1.3235096000134945,452.9070348000387,None,,,,,,,,,,,,,,,,,,,,,,,,,,,,,,,,,,,,,,,,,,,,,,,21003,0002,2022_Mar_01_1533,localizer,2021.1.3,59.61408228093505,
,,,0,0,0,0,,,,,,,,,,,,,,,,,,,454.25193979998585,None,455.252076499979,None,y,1.1362598999403417,455.252076499979,None,456.42336180002894,None,b,1.4348639000672847,456.42336180002894,None,457.88624719996005,None,n,0,21.73380690009799,457.88624719996005,None,,,,,,,,,,,,,,,,,,,,,,,,,,21003,0002,2022_Mar_01_1533,localizer,2021.1.3,59.61408228093505,
,,,,,,,,,,,,,,,,,,,,,,,,,,,,,,,,,,,,,,,,,,,,,,479.6349485999672,None,y,49.57320660003461,479.6349485999672,None,,,,,,,,,,,,,,,,,,,,21003,0002,2022_Mar_01_1533,localizer,2021.1.3,59.61408228093505,
null_block,null_block,null_block.bmp,,,,,0,0,0,0,,,,,,,,,,,,,,,,,,,,,,,,,,,,,,,,,,,,,,,,,,t,16.235201000003144,529.2608175999485,None,529.2608175999485,None,2022-03-01-15:42:46.686338,545.5190076199826,None,545.5190076199826,None,None,545.5190076199826,None,545.5225658999989,None,,,,21003,0002,2022_Mar_01_1533,localizer,2021.1.3,59.61408228093505,
block_start,scenes,scenes022.bmp,,,,,0,1,1,1,,,,,,,,,,,,,,,,,,,,,,,,,,,,,,,,,,,,,,,,,,t,1.960704099969007,557.5354980999837,None,557.5354980999837,None,2022-03-01-15:43:00.692522,559.5315749000292,559.835804100032,559.5315749000292,None,None,559.5315749000292,None,560.3360065200134,None,,,,21003,0002,2022_Mar_01_1533,localizer,2021.1.3,59.61408228093505,
block,scenes,scenes007.bmp,,,,,0,2,2,2,,,,,,,,,,,,,,,,,,,,,,,,,,,,,,,,,,,,,,,,,,None,,560.3360065200134,None,560.3360065200134,None,2022-03-01-15:43:01.506324,560.351828899933,560.6525821000105,560.351828899933,None,None,560.351828899933,None,561.153034020029,None,,,,21003,0002,2022_Mar_01_1533,localizer,2021.1.3,59.61408228093505,
block,scenes,scenes008.bmp,,,,,0,3,3,3,,,,,,,,,,,,,,,,,,,,,,,,,,,,,,,,,,,,,,,,,,None,,561.153034020029,None,561.153034020029,None,2022-03-01-15:43:02.322560,561.1539187999442,561.4529800999444,561.1539187999442,None,None,561.1539187999442,None,561.9695388200228,None,,,,21003,0002,2022_Mar_01_1533,localizer,2021.1.3,59.61408228093505,
block,scenes,scenes038.bmp,,,,,0,4,4,4,,,,,,,,,,,,,,,,,,,,,,,,,,,,,,,,,,,,,,,,,,None,,561.9695388200228,None,561.9695388200228,None,2022-03-01-15:43:03.138862,561.9701818999602,562.2694021000061,561.9701818999602,None,None,561.9701818999602,None,562.7707498199773,None,,,,21003,0002,2022_Mar_01_1533,localizer,2021.1.3,59.61408228093505,
block,scenes,scenes041.bmp,,,,,0,5,5,5,,,,,,,,,,,,,,,,,,,,,,,,,,,,,,,,,,,,,,,,,,None,,562.7707498199773,None,562.7707498199773,None,2022-03-01-15:43:03.944084,562.7862364000175,563.0860918000108,562.7862364000175,562.7862364000175,None,562.7862364000175,562.7862364000175,563.5864626199939,None,,,,21003,0002,2022_Mar_01_1533,localizer,2021.1.3,59.61408228093505,
block,scenes,scenes089.bmp,,,,,0,6,6,6,,,,,,,,,,,,,,,,,,,,,,,,,,,,,,,,,,,,,,,,,,None,,563.5864626199939,None,563.5864626199939,None,2022-03-01-15:43:04.755782,563.5870323999552,563.8863859999692,563.5870323999552,None,None,563.5870323999552,None,564.3870446200483,None,,,,21003,0002,2022_Mar_01_1533,localizer,2021.1.3,59.61408228093505,
block,scenes,scenes020.bmp,,,,,0,7,7,7,,,,,,,,,,,,,,,,,,,,,,,,,,,,,,,,,,,,,,,,,,None,,564.3870446200483,None,564.3870446200483,None,2022-03-01-15:43:05.559541,564.3903111999389,564.7035238000099,564.3903111999389,564.3903111999389,None,564.3903111999389,564.3903111999389,565.2036341199885,None,,,,21003,0002,2022_Mar_01_1533,localizer,2021.1.3,59.61408228093505,
block,scenes,scenes091.bmp,,,,,0,8,8,8,,,,,,,,,,,,,,,,,,,,,,,,,,,,,,,,,,,,,,,,,,None,,565.2036341199885,None,565.2036341199885,None,2022-03-01-15:43:06.373944,565.2057119000237,565.5201390000293,565.2057119000237,None,None,565.2057119000237,None,566.0190372199752,None,,,,21003,0002,2022_Mar_01_1533,localizer,2021.1.3,59.61408228093505,
block,scenes,scenes058.bmp,,,,,0,9,9,9,,,,,,,,,,,,,,,,,,,,,,,,,,,,,,,,,,,,,,,,,,None,,566.0190372199752,None,566.0190372199752,None,2022-03-01-15:43:07.187370,566.0268351000268,566.3363295999588,566.0268351000268,None,None,566.0268351000268,None,566.8372807199369,None,,,,21003,0002,2022_Mar_01_1533,localizer,2021.1.3,59.61408228093505,
block,scenes,scenes045.bmp,,,,,0,10,10,10,,,,,,,,,,,,,,,,,,,,,,,,,,,,,,,,,,,,,,,,,,None,,566.8372807199369,None,566.8372807199369,None,2022-03-01-15:43:08.008182,566.8506159000099,567.1528834999772,566.8506159000099,None,None,566.8506159000099,None,567.65265062002,None,,,,21003,0002,2022_Mar_01_1533,localizer,2021.1.3,59.61408228093505,
block,scenes,scenes019.bmp,,,,,0,11,11,11,,,,,,,,,,,,,,,,,,,,,,,,,,,,,,,,,,,,,,,,,,None,,567.65265062002,None,567.65265062002,None,2022-03-01-15:43:08.821981,567.6615125000244,567.969197700033,567.6615125000244,None,None,567.6615125000244,None,568.4697259200505,None,,,,21003,0002,2022_Mar_01_1533,localizer,2021.1.3,59.61408228093505,
block,scenes,scenes025.bmp,,,,,0,12,12,12,,,,,,,,,,,,,,,,,,,,,,,,,,,,,,,,,,,,,,,,,,None,,568.4697259200505,None,568.4697259200505,None,2022-03-01-15:43:09.639261,568.4855498999823,568.7871975000016,568.4855498999823,None,None,568.4855498999823,None,569.2872896199581,None,,,,21003,0002,2022_Mar_01_1533,localizer,2021.1.3,59.61408228093505,
block,scenes,scenes014.bmp,,,,,0,13,13,13,,,,,,,,,,,,,,,,,,,,,,,,,,,,,,,,,,,,,,,,,,None,,569.2872896199581,None,569.2872896199581,None,2022-03-01-15:43:10.457778,569.3025825000368,569.602633500006,569.3025825000368,None,None,569.3025825000368,None,570.1029780200217,None,,,,21003,0002,2022_Mar_01_1533,localizer,2021.1.3,59.61408228093505,
block,scenes,scenes084.bmp,,,,,0,14,14,14,,,,,,,,,,,,,,,,,,,,,,,,,,,,,,,,,,,,,,,,,,None,,570.1029780200217,None,570.1029780200217,None,2022-03-01-15:43:11.272304,570.1127316999482,570.4193383000093,570.1127316999482,None,None,570.1127316999482,None,570.9214143199381,None,,,,21003,0002,2022_Mar_01_1533,localizer,2021.1.3,59.61408228093505,
block_end,scenes,scenes053.bmp,,,,,0,15,15,15,,,,,,,,,,,,,,,,,,,,,,,,,,,,,,,,,,,,,,,,,,None,,570.9214143199381,None,570.9214143199381,None,2022-03-01-15:43:12.093732,570.9371515000239,571.2524649000261,570.9371515000239,None,None,570.9371515000239,None,571.736282420042,None,,,,21003,0002,2022_Mar_01_1533,localizer,2021.1.3,59.61408228093505,
block_start,objects,objects042.bmp,,,,,0,16,16,16,,,,,,,,,,,,,,,,,,,,,,,,,,,,,,,,,,,,,,,,,,t,1.7598910999950022,571.7361403999384,None,571.7361403999384,None,2022-03-01-15:43:14.691090,573.5232012999477,573.8373420999851,573.5232012999477,None,None,573.5232012999477,None,574.337307320023,None,,,,21003,0002,2022_Mar_01_1533,localizer,2021.1.3,59.61408228093505,
block,objects,objects078.bmp,,,,,0,17,17,17,,,,,,,,,,,,,,,,,,,,,,,,,,,,,,,,,,,,,,,,,,None,,574.337307320023,None,574.337307320023,None,2022-03-01-15:43:15.507789,574.3497387999669,574.6525774999755,574.3497387999669,None,None,574.3497387999669,None,575.1528049200308,None,,,,21003,0002,2022_Mar_01_1533,localizer,2021.1.3,59.61408228093505,
block,objects,objects029.bmp,,,,,0,18,18,18,,,,,,,,,,,,,,,,,,,,,,,,,,,,,,,,,,,,,,,,,,None,,575.1528049200308,None,575.1528049200308,None,2022-03-01-15:43:16.322560,575.1534877000377,575.4528626999818,575.1534877000377,None,None,575.1534877000377,None,575.9534658199875,None,,,,21003,0002,2022_Mar_01_1533,localizer,2021.1.3,59.61408228093505,
block,objects,objects039.bmp,,,,,0,19,19,19,,,,,,,,,,,,,,,,,,,,,,,,,,,,,,,,,,,,,,,,,,None,,575.9534658199875,None,575.9534658199875,None,2022-03-01-15:43:17.125973,575.9562157000182,576.269422500045,575.9562157000182,575.9562157000182,None,575.9562157000182,575.9562157000182,576.7696954199812,None,,,,21003,0002,2022_Mar_01_1533,localizer,2021.1.3,59.61408228093505,
block,objects,objects072.bmp,,,,,0,20,20,20,,,,,,,,,,,,,,,,,,,,,,,,,,,,,,,,,,,,,,,,,,None,,576.7696954199812,None,576.7696954199812,None,2022-03-01-15:43:17.939233,576.7796996999532,577.0866967999609,576.7796996999532,None,None,576.7796996999532,None,577.5857906199992,None,,,,21003,0002,2022_Mar_01_1533,localizer,2021.1.3,59.61408228093505,
block,objects,objects082.bmp,,,,,0,21,21,21,,,,,,,,,,,,,,,,,,,,,,,,,,,,,,,,,,,,,,,,,,None,,577.5857906199992,None,577.5857906199992,None,2022-03-01-15:43:18.755122,577.586991499993,577.8863773000194,577.586991499993,None,None,577.586991499993,None,578.386437819968,None,,,,21003,0002,2022_Mar_01_1533,localizer,2021.1.3,59.61408228093505,
block,objects,objects077.bmp,,,,,0,22,22,22,,,,,,,,,,,,,,,,,,,,,,,,,,,,,,,,,,,,,,,,,,None,,578.386437819968,None,578.386437819968,None,2022-03-01-15:43:19.557758,578.3993605000433,578.7029624000425,578.3993605000433,578.3993605000433,None,578.3993605000433,578.3993605000433,579.2031789200148,None,,,,21003,0002,2022_Mar_01_1533,localizer,2021.1.3,59.61408228093505,
block,objects,objects088.bmp,,,,,0,23,23,23,,,,,,,,,,,,,,,,,,,,,,,,,,,,,,,,,,,,,,,,,,None,,579.2031789200148,None,579.2031789200148,None,2022-03-01-15:43:20.372608,579.2037419000408,579.502652999945,579.2037419000408,None,None,579.2037419000408,None,580.0030603199732,None,,,,21003,0002,2022_Mar_01_1533,localizer,2021.1.3,59.61408228093505,
block,objects,objects016.bmp,,,,,0,24,24,24,,,,,,,,,,,,,,,,,,,,,,,,,,,,,,,,,,,,,,,,,,None,,580.0030603199732,None,580.0030603199732,None,2022-03-01-15:43:21.174585,580.0160997000057,580.3194146000315,580.0160997000057,580.0160997000057,None,580.0160997000057,580.0160997000057,580.8197063199943,None,,,,21003,0002,2022_Mar_01_1533,localizer,2021.1.3,59.61408228093505,
block,objects,objects016.bmp,,,,,0,25,25,25,,,,,,,,,,,,,,,,,,,,,,,,,,,,,,,,,,,,,,,,,,None,,580.8197063199943,None,580.8197063199943,None,2022-03-01-15:43:21.989208,580.8203077999642,581.1208450000267,580.8203077999642,None,y,580.8203077999642,None,581.6196840199875,None,0.4786685999715701,,,21003,0002,2022_Mar_01_1533,localizer,2021.1.3,59.61408228093505,
block,objects,objects044.bmp,,,,,0,26,26,26,,,,,,,,,,,,,,,,,,,,,,,,,,,,,,,,,,,,,,,,,,None,,581.6196840199875,None,581.6196840199875,None,2022-03-01-15:43:22.791006,581.6316008999711,581.9362002999987,581.6316008999711,581.6316008999711,None,581.6316008999711,581.6316008999711,582.4382919200464,None,,,,21003,0002,2022_Mar_01_1533,localizer,2021.1.3,59.61408228093505,
block,objects,objects030.bmp,,,,,0,27,27,27,,,,,,,,,,,,,,,,,,,,,,,,,,,,,,,,,,,,,,,,,,None,,582.4382919200464,None,582.4382919200464,None,2022-03-01-15:43:23.610642,582.4424464999465,582.7533175999997,582.4424464999465,None,None,582.4424464999465,None,583.2534419199685,None,,,,21003,0002,2022_Mar_01_1533,localizer,2021.1.3,59.61408228093505,
block,objects,objects024.bmp,,,,,0,28,28,28,,,,,,,,,,,,,,,,,,,,,,,,,,,,,,,,,,,,,,,,,,None,,583.2534419199685,None,583.2534419199685,None,2022-03-01-15:43:24.423758,583.2540942999767,583.5534190000035,583.2540942999767,None,None,583.2540942999767,None,584.05359151999,None,,,,21003,0002,2022_Mar_01_1533,localizer,2021.1.3,59.61408228093505,
block,objects,objects031.bmp,,,,,0,29,29,29,,,,,,,,,,,,,,,,,,,,,,,,,,,,,,,,,,,,,,,,,,None,,584.05359151999,None,584.05359151999,None,2022-03-01-15:43:25.225825,584.0660852999426,584.3690904999385,584.0660852999426,584.0660852999426,None,584.0660852999426,584.0660852999426,584.8698993199971,None,,,,21003,0002,2022_Mar_01_1533,localizer,2021.1.3,59.61408228093505,
block_end,objects,objects046.bmp,,,,,0,30,30,30,,,,,,,,,,,,,,,,,,,,,,,,,,,,,,,,,,,,,,,,,,None,,584.8698993199971,None,584.8698993199971,None,2022-03-01-15:43:26.040223,584.8807397999335,585.186589299934,584.8807397999335,None,None,584.8807397999335,None,585.6861857199576,None,,,,21003,0002,2022_Mar_01_1533,localizer,2021.1.3,59.61408228093505,
block_start,faces,faces053.bmp,,,,,0,31,31,31,,,,,,,,,,,,,,,,,,,,,,,,,,,,,,,,,,,,,,,,,,t,1.80983629997354,585.686233800021,None,585.686233800021,None,2022-03-01-15:43:28.688820,587.5206041999627,587.8355613000458,587.5206041999627,None,None,587.5206041999627,None,588.3196913199965,None,,,,21003,0002,2022_Mar_01_1533,localizer,2021.1.3,59.61408228093505,
block,faces,faces040.bmp,,,,,0,32,32,32,,,,,,,,,,,,,,,,,,,,,,,,,,,,,,,,,,,,,,,,,,None,,588.3196913199965,None,588.3196913199965,None,2022-03-01-15:43:29.491112,588.3225458000088,588.6366625999799,588.3225458000088,588.3225458000088,None,588.3225458000088,588.3225458000088,589.1367942200043,None,,,,21003,0002,2022_Mar_01_1533,localizer,2021.1.3,59.61408228093505,
block,faces,faces089.bmp,,,,,0,33,33,33,,,,,,,,,,,,,,,,,,,,,,,,,,,,,,,,,,,,,,,,,,None,,589.1367942200043,None,589.1367942200043,None,2022-03-01-15:43:30.307287,589.1477706000442,589.4528582999483,589.1477706000442,None,None,589.1477706000442,None,589.9530558200088,None,,,,21003,0002,2022_Mar_01_1533,localizer,2021.1.3,59.61408228093505,
block,faces,faces072.bmp,,,,,0,34,34,34,,,,,,,,,,,,,,,,,,,,,,,,,,,,,,,,,,,,,,,,,,None,,589.9530558200088,None,589.9530558200088,None,2022-03-01-15:43:31.122545,589.9540160000324,590.2531587999547,589.9540160000324,None,None,589.9540160000324,None,590.7540557199857,None,,,,21003,0002,2022_Mar_01_1533,localizer,2021.1.3,59.61408228093505,
block,faces,faces013.bmp,,,,,0,35,35,35,,,,,,,,,,,,,,,,,,,,,,,,,,,,,,,,,,,,,,,,,,None,,590.7540557199857,None,590.7540557199857,None,2022-03-01-15:43:31.926389,590.758299499983,591.069527399959,590.758299499983,590.758299499983,None,590.758299499983,590.758299499983,591.5760469199624,None,,,,21003,0002,2022_Mar_01_1533,localizer,2021.1.3,59.61408228093505,
block,faces,faces052.bmp,,,,,0,36,36,36,,,,,,,,,,,,,,,,,,,,,,,,,,,,,,,,,,,,,,,,,,None,,591.5760469199624,None,591.5760469199624,None,2022-03-01-15:43:32.753170,591.5989218000323,591.9039646999445,591.5989218000323,None,None,591.5989218000323,None,592.3864005200332,None,,,,21003,0002,2022_Mar_01_1533,localizer,2021.1.3,59.61408228093505,
block,faces,faces085.bmp,,,,,0,37,37,37,,,,,,,,,,,,,,,,,,,,,,,,,,,,,,,,,,,,,,,,,,None,,592.3864005200332,None,592.3864005200332,None,2022-03-01-15:43:33.555732,592.387161099934,592.6862837999361,592.387161099934,None,None,592.387161099934,None,593.1864364200039,None,,,,21003,0002,2022_Mar_01_1533,localizer,2021.1.3,59.61408228093505,
block,faces,faces003.bmp,,,,,0,38,38,38,,,,,,,,,,,,,,,,,,,,,,,,,,,,,,,,,,,,,,,,,,None,,593.1864364200039,None,593.1864364200039,None,2022-03-01-15:43:34.357762,593.1983455000445,593.5028878999874,593.1983455000445,593.1983455000445,None,593.1983455000445,593.1983455000445,594.0031729200157,None,,,,21003,0002,2022_Mar_01_1533,localizer,2021.1.3,59.61408228093505,
block,faces,faces034.bmp,,,,,0,39,39,39,,,,,,,,,,,,,,,,,,,,,,,,,,,,,,,,,,,,,,,,,,None,,594.0031729200157,None,594.0031729200157,None,2022-03-01-15:43:35.172501,594.0039218999445,594.3032331999857,594.0039218999445,None,None,594.0039218999445,None,594.8039905200014,None,,,,21003,0002,2022_Mar_01_1533,localizer,2021.1.3,59.61408228093505,
block,faces,faces058.bmp,,,,,0,40,40,40,,,,,,,,,,,,,,,,,,,,,,,,,,,,,,,,,,,,,,,,,,None,,594.8039905200014,None,594.8039905200014,None,2022-03-01-15:43:35.977092,594.8245785000036,595.1358833999839,594.8245785000036,594.8245785000036,None,594.8245785000036,594.8245785000036,595.619458820019,None,,,,21003,0002,2022_Mar_01_1533,localizer,2021.1.3,59.61408228093505,
block,faces,faces081.bmp,,,,,0,41,41,41,,,,,,,,,,,,,,,,,,,,,,,,,,,,,,,,,,,,,,,,,,None,,595.619458820019,None,595.619458820019,None,2022-03-01-15:43:36.788794,595.6300443999935,595.936200600001,595.6300443999935,None,None,595.6300443999935,None,596.4367380199722,None,,,,21003,0002,2022_Mar_01_1533,localizer,2021.1.3,59.61408228093505,
block,faces,faces001.bmp,,,,,0,42,42,42,,,,,,,,,,,,,,,,,,,,,,,,,,,,,,,,,,,,,,,,,,None,,596.4367380199722,None,596.4367380199722,None,2022-03-01-15:43:37.606270,596.4497055000393,596.7529398000333,596.4497055000393,None,None,596.4497055000393,None,597.2539405200398,None,,,,21003,0002,2022_Mar_01_1533,localizer,2021.1.3,59.61408228093505,
block,faces,faces031.bmp,,,,,0,43,43,43,,,,,,,,,,,,,,,,,,,,,,,,,,,,,,,,,,,,,,,,,,None,,597.2539405200398,None,597.2539405200398,None,2022-03-01-15:43:38.429711,597.271163300029,597.5859923999524,597.271163300029,None,None,597.271163300029,None,598.0758268200327,None,,,,21003,0002,2022_Mar_01_1533,localizer,2021.1.3,59.61408228093505,
block,faces,faces080.bmp,,,,,0,44,44,44,,,,,,,,,,,,,,,,,,,,,,,,,,,,,,,,,,,,,,,,,,None,,598.0758268200327,None,598.0758268200327,None,2022-03-01-15:43:39.253039,598.0847465000115,598.3863970999373,598.0847465000115,None,None,598.0847465000115,None,598.8866429200164,None,,,,21003,0002,2022_Mar_01_1533,localizer,2021.1.3,59.61408228093505,
block_end,faces,faces038.bmp,,,,,0,45,45,45,,,,,,,,,,,,,,,,,,,,,,,,,,,,,,,,,,,,,,,,,,None,,598.8866429200164,None,598.8866429200164,None,2022-03-01-15:43:40.056972,598.9012098000385,599.2029882000061,598.9012098000385,None,None,598.9012098000385,None,599.7030836199876,None,,,,21003,0002,2022_Mar_01_1533,localizer,2021.1.3,59.61408228093505,
block_start,scrambled,scrambled038.bmp,,,,,0,46,46,46,,,,,,,,,,,,,,,,,,,,,,,,,,,,,,,,,,,,,,,,,,t,1.7934096999233589,599.7029743000166,None,599.7029743000166,None,2022-03-01-15:43:42.701276,601.5384766999632,601.8530061999336,601.5384766999632,None,None,601.5384766999632,None,602.3365428200225,None,,,,21003,0002,2022_Mar_01_1533,localizer,2021.1.3,59.61408228093505,
block,scrambled,scrambled076.bmp,,,,,0,47,47,47,,,,,,,,,,,,,,,,,,,,,,,,,,,,,,,,,,,,,,,,,,None,,602.3365428200225,None,602.3365428200225,None,2022-03-01-15:43:43.506039,602.3371510000434,602.6364370000083,602.3371510000434,None,None,602.3371510000434,None,603.1383638199652,None,,,,21003,0002,2022_Mar_01_1533,localizer,2021.1.3,59.61408228093505,
block,scrambled,scrambled017.bmp,,,,,0,48,48,48,,,,,,,,,,,,,,,,,,,,,,,,,,,,,,,,,,,,,,,,,,None,,603.1383638199652,None,603.1383638199652,None,2022-03-01-15:43:44.311870,603.1528356999625,603.4527947000461,603.1528356999625,603.1528356999625,None,603.1528356999625,603.1528356999625,603.9532695200062,None,,,,21003,0002,2022_Mar_01_1533,localizer,2021.1.3,59.61408228093505,
block,scrambled,scrambled040.bmp,,,,,0,49,49,49,,,,,,,,,,,,,,,,,,,,,,,,,,,,,,,,,,,,,,,,,,None,,603.9532695200062,None,603.9532695200062,None,2022-03-01-15:43:45.122884,603.9638590000104,604.2700165000279,603.9638590000104,None,None,603.9638590000104,None,604.7700430199504,None,,,,21003,0002,2022_Mar_01_1533,localizer,2021.1.3,59.61408228093505,
block,scrambled,scrambled079.bmp,,,,,0,50,50,50,,,,,,,,,,,,,,,,,,,,,,,,,,,,,,,,,,,,,,,,,,None,,604.7700430199504,None,604.7700430199504,None,2022-03-01-15:43:45.939588,604.7772249999689,605.0859725000337,604.7772249999689,None,None,604.7772249999689,None,605.5858825200005,None,,,,21003,0002,2022_Mar_01_1533,localizer,2021.1.3,59.61408228093505,
block,scrambled,scrambled072.bmp,,,,,0,51,51,51,,,,,,,,,,,,,,,,,,,,,,,,,,,,,,,,,,,,,,,,,,None,,605.5858825200005,None,605.5858825200005,None,2022-03-01-15:43:46.755517,605.5945311000105,605.9039551999886,605.5945311000105,None,None,605.5945311000105,None,606.4031754199416,None,,,,21003,0002,2022_Mar_01_1533,localizer,2021.1.3,59.61408228093505,
block,scrambled,scrambled070.bmp,,,,,0,52,52,52,,,,,,,,,,,,,,,,,,,,,,,,,,,,,,,,,,,,,,,,,,None,,606.4031754199416,None,606.4031754199416,None,2022-03-01-15:43:47.572511,606.4133511999389,606.7201644999441,606.4133511999389,None,None,606.4133511999389,None,607.2207903200062,None,,,,21003,0002,2022_Mar_01_1533,localizer,2021.1.3,59.61408228093505,
block,scrambled,scrambled032.bmp,,,,,0,53,53,53,,,,,,,,,,,,,,,,,,,,,,,,,,,,,,,,,,,,,,,,,,None,,607.2207903200062,None,607.2207903200062,None,2022-03-01-15:43:48.391107,607.2228133999743,607.537570699933,607.2228133999743,None,None,607.2228133999743,None,608.0362450200366,None,,,,21003,0002,2022_Mar_01_1533,localizer,2021.1.3,59.61408228093505,
block,scrambled,scrambled035.bmp,,,,,0,54,54,54,,,,,,,,,,,,,,,,,,,,,,,,,,,,,,,,,,,,,,,,,,None,,608.0362450200366,None,608.0362450200366,None,2022-03-01-15:43:49.205583,608.0370394999627,608.3363605999621,608.0370394999627,None,None,608.0370394999627,None,608.8527952200268,None,,,,21003,0002,2022_Mar_01_1533,localizer,2021.1.3,59.61408228093505,
block,scrambled,scrambled081.bmp,,,,,0,55,55,55,,,,,,,,,,,,,,,,,,,,,,,,,,,,,,,,,,,,,,,,,,None,,608.8527952200268,None,608.8527952200268,None,2022-03-01-15:43:50.022136,608.8637619999936,609.1694949000375,608.8637619999936,None,None,608.8637619999936,None,609.6697741200217,None,,,,21003,0002,2022_Mar_01_1533,localizer,2021.1.3,59.61408228093505,
block,scrambled,scrambled073.bmp,,,,,0,56,56,56,,,,,,,,,,,,,,,,,,,,,,,,,,,,,,,,,,,,,,,,,,None,,609.6697741200217,None,609.6697741200217,None,2022-03-01-15:43:50.839117,609.6703515000409,609.9692854000023,609.6703515000409,None,None,609.6703515000409,None,610.4699414199451,None,,,,21003,0002,2022_Mar_01_1533,localizer,2021.1.3,59.61408228093505,
block,scrambled,scrambled080.bmp,,,,,0,57,57,57,,,,,,,,,,,,,,,,,,,,,,,,,,,,,,,,,,,,,,,,,,None,,610.4699414199451,None,610.4699414199451,None,2022-03-01-15:43:51.640577,610.4806183000328,610.7869207999902,610.4806183000328,610.4806183000328,None,610.4806183000328,610.4806183000328,611.2869542199653,None,,,,21003,0002,2022_Mar_01_1533,localizer,2021.1.3,59.61408228093505,
block,scrambled,scrambled029.bmp,,,,,0,58,58,58,,,,,,,,,,,,,,,,,,,,,,,,,,,,,,,,,,,,,,,,,,None,,611.2869542199653,None,611.2869542199653,None,2022-03-01-15:43:52.457379,611.2985393999843,611.6026154999854,611.2985393999843,None,None,611.2985393999843,None,612.1033612200292,None,,,,21003,0002,2022_Mar_01_1533,localizer,2021.1.3,59.61408228093505,
block,scrambled,scrambled042.bmp,,,,,0,59,59,59,,,,,,,,,,,,,,,,,,,,,,,,,,,,,,,,,,,,,,,,,,None,,612.1033612200292,None,612.1033612200292,None,2022-03-01-15:43:53.272947,612.1039221000392,612.4031810000306,612.1039221000392,None,None,612.1039221000392,None,612.9035200200044,None,,,,21003,0002,2022_Mar_01_1533,localizer,2021.1.3,59.61408228093505,
block_end,scrambled,scrambled018.bmp,,,,,0,60,60,60,,,,,,,,,,,,,,,,,,,,,,,,,,,,,,,,,,,,,,,,,,None,,612.9035200200044,None,612.9035200200044,None,2022-03-01-15:43:54.076091,612.9160349000013,613.2197385999607,612.9160349000013,612.9160349000013,None,612.9160349000013,612.9160349000013,613.719566019997,None,,,,21003,0002,2022_Mar_01_1533,localizer,2021.1.3,59.61408228093505,
block_start,scrambled,scrambled012.bmp,,,,,0,61,61,61,,,,,,,,,,,,,,,,,,,,,,,,,,,,,,,,,,,,,,,,,,t,1.7763666999526322,613.7192155999364,None,613.7192155999364,None,2022-03-01-15:43:56.688801,615.5278301000362,615.8365841000341,615.5278301000362,None,None,615.5278301000362,None,616.3366679200437,None,,,,21003,0002,2022_Mar_01_1533,localizer,2021.1.3,59.61408228093505,
block,scrambled,scrambled016.bmp,,,,,0,62,62,62,,,,,,,,,,,,,,,,,,,,,,,,,,,,,,,,,,,,,,,,,,None,,616.3366679200437,None,616.3366679200437,None,2022-03-01-15:43:57.506910,616.3372626999626,616.636349700042,616.3372626999626,None,None,616.3372626999626,None,617.1529677199899,None,,,,21003,0002,2022_Mar_01_1533,localizer,2021.1.3,59.61408228093505,
block,scrambled,scrambled055.bmp,,,,,0,63,63,63,,,,,,,,,,,,,,,,,,,,,,,,,,,,,,,,,,,,,,,,,,None,,617.1529677199899,None,617.1529677199899,None,2022-03-01-15:43:58.322438,617.1537992999656,617.4529700999847,617.1537992999656,None,None,617.1537992999656,None,617.9567797199591,None,,,,21003,0002,2022_Mar_01_1533,localizer,2021.1.3,59.61408228093505,
block,scrambled,scrambled055.bmp,,,,,0,64,64,64,,,,,,,,,,,,,,,,,,,,,,,,,,,,,,,,,,,,,,,,,,None,,617.9567797199591,None,617.9567797199591,None,2022-03-01-15:43:59.136241,617.9684738999931,618.2702369999606,617.9684738999931,617.9684738999931,None,617.9684738999931,617.9684738999931,618.7702071200358,None,,,,21003,0002,2022_Mar_01_1533,localizer,2021.1.3,59.61408228093505,
block,scrambled,scrambled029.bmp,,,,,0,65,65,65,,,,,,,,,,,,,,,,,,,,,,,,,,,,,,,,,,,,,,,,,,None,,618.7702071200358,None,618.7702071200358,None,2022-03-01-15:43:59.940878,618.7708991999971,619.0862580999965,618.7708991999971,None,y,618.7708991999971,None,619.5860884199385,None,0.10904630005825311,,,21003,0002,2022_Mar_01_1533,localizer,2021.1.3,59.61408228093505,
block,scrambled,scrambled081.bmp,,,,,0,66,66,66,,,,,,,,,,,,,,,,,,,,,,,,,,,,,,,,,,,,,,,,,,None,,619.5860884199385,None,619.5860884199385,None,2022-03-01-15:44:00.755604,619.5873036000412,619.9031202000333,619.5873036000412,None,None,619.5873036000412,None,620.3872429200449,None,,,,21003,0002,2022_Mar_01_1533,localizer,2021.1.3,59.61408228093505,
block,scrambled,scrambled086.bmp,,,,,0,67,67,67,,,,,,,,,,,,,,,,,,,,,,,,,,,,,,,,,,,,,,,,,,None,,620.3872429200449,None,620.3872429200449,None,2022-03-01-15:44:01.559746,620.4014396000421,620.7029948999407,620.4014396000421,620.4014396000421,None,620.4014396000421,620.4014396000421,621.2033145199996,None,,,,21003,0002,2022_Mar_01_1533,localizer,2021.1.3,59.61408228093505,
block,scrambled,scrambled032.bmp,,,,,0,68,68,68,,,,,,,,,,,,,,,,,,,,,,,,,,,,,,,,,,,,,,,,,,None,,621.2033145199996,None,621.2033145199996,None,2022-03-01-15:44:02.372848,621.2039818000048,621.5034621999366,621.2039818000048,None,None,621.2039818000048,None,622.0035705200164,None,,,,21003,0002,2022_Mar_01_1533,localizer,2021.1.3,59.61408228093505,
block,scrambled,scrambled020.bmp,,,,,0,69,69,69,,,,,,,,,,,,,,,,,,,,,,,,,,,,,,,,,,,,,,,,,,None,,622.0035705200164,None,622.0035705200164,None,2022-03-01-15:44:03.176227,622.0159893999808,622.3197132999776,622.0159893999808,622.0159893999808,None,622.0159893999808,622.0159893999808,622.8201200200012,None,,,,21003,0002,2022_Mar_01_1533,localizer,2021.1.3,59.61408228093505,
block,scrambled,scrambled088.bmp,,,,,0,70,70,70,,,,,,,,,,,,,,,,,,,,,,,,,,,,,,,,,,,,,,,,,,None,,622.8201200200012,None,622.8201200200012,None,2022-03-01-15:44:03.990769,622.831467699958,623.1363525999477,622.831467699958,None,None,622.831467699958,None,623.6375891200034,None,,,,21003,0002,2022_Mar_01_1533,localizer,2021.1.3,59.61408228093505,
block,scrambled,scrambled007.bmp,,,,,0,71,71,71,,,,,,,,,,,,,,,,,,,,,,,,,,,,,,,,,,,,,,,,,,None,,623.6375891200034,None,623.6375891200034,None,2022-03-01-15:44:04.809146,623.6500992999645,623.9532312999945,623.6500992999645,None,None,623.6500992999645,None,624.4533119199798,None,,,,21003,0002,2022_Mar_01_1533,localizer,2021.1.3,59.61408228093505,
block,scrambled,scrambled024.bmp,,,,,0,72,72,72,,,,,,,,,,,,,,,,,,,,,,,,,,,,,,,,,,,,,,,,,,None,,624.4533119199798,None,624.4533119199798,None,2022-03-01-15:44:05.623108,624.4642998999916,624.7700105999829,624.4642998999916,None,None,624.4642998999916,None,625.2703448200366,None,,,,21003,0002,2022_Mar_01_1533,localizer,2021.1.3,59.61408228093505,
block,scrambled,scrambled068.bmp,,,,,0,73,73,73,,,,,,,,,,,,,,,,,,,,,,,,,,,,,,,,,,,,,,,,,,None,,625.2703448200366,None,625.2703448200366,None,2022-03-01-15:44:06.440850,625.2715110999998,625.5864696999779,625.2715110999998,None,None,625.2715110999998,None,626.0865668199724,None,,,,21003,0002,2022_Mar_01_1533,localizer,2021.1.3,59.61408228093505,
block,scrambled,scrambled031.bmp,,,,,0,74,74,74,,,,,,,,,,,,,,,,,,,,,,,,,,,,,,,,,,,,,,,,,,None,,626.0865668199724,None,626.0865668199724,None,2022-03-01-15:44:07.256186,626.087182499934,626.386817999999,626.087182499934,None,None,626.087182499934,None,626.8868319199421,None,,,,21003,0002,2022_Mar_01_1533,localizer,2021.1.3,59.61408228093505,
block_end,scrambled,scrambled033.bmp,,,,,0,75,75,75,,,,,,,,,,,,,,,,,,,,,,,,,,,,,,,,,,,,,,,,,,None,,626.8868319199421,None,626.8868319199421,None,2022-03-01-15:44:08.058514,626.8895727000199,627.2028068000218,626.8895727000199,626.8895727000199,None,626.8895727000199,626.8895727000199,627.7027085200418,None,,,,21003,0002,2022_Mar_01_1533,localizer,2021.1.3,59.61408228093505,
block_start,faces,faces044.bmp,,,,,0,76,76,76,,,,,,,,,,,,,,,,,,,,,,,,,,,,,,,,,,,,,,,,,,t,1.7921178999822587,627.7028000999708,None,627.7028000999708,None,2022-03-01-15:44:10.688112,629.5210183999734,629.8202049999963,629.5210183999734,None,None,629.5210183999734,None,630.3203209200176,None,,,,21003,0002,2022_Mar_01_1533,localizer,2021.1.3,59.61408228093505,
block,faces,faces045.bmp,,,,,0,77,77,77,,,,,,,,,,,,,,,,,,,,,,,,,,,,,,,,,,,,,,,,,,None,,630.3203209200176,None,630.3203209200176,None,2022-03-01-15:44:11.493172,630.334619399975,630.6363734999904,630.334619399975,630.334619399975,None,630.334619399975,630.334619399975,631.1366196199554,None,,,,21003,0002,2022_Mar_01_1533,localizer,2021.1.3,59.61408228093505,
block,faces,faces084.bmp,,,,,0,78,78,78,,,,,,,,,,,,,,,,,,,,,,,,,,,,,,,,,,,,,,,,,,None,,631.1366196199554,None,631.1366196199554,None,2022-03-01-15:44:12.306509,631.1466453999747,631.4532629000023,631.1466453999747,None,None,631.1466453999747,None,631.9534662199906,None,,,,21003,0002,2022_Mar_01_1533,localizer,2021.1.3,59.61408228093505,
block,faces,faces004.bmp,,,,,0,79,79,79,,,,,,,,,,,,,,,,,,,,,,,,,,,,,,,,,,,,,,,,,,None,,631.9534662199906,None,631.9534662199906,None,2022-03-01-15:44:13.123407,631.9695593999932,632.2686168999644,631.9695593999932,None,None,631.9695593999932,None,632.769952419959,None,,,,21003,0002,2022_Mar_01_1533,localizer,2021.1.3,59.61408228093505,
block,faces,faces027.bmp,,,,,0,80,80,80,,,,,,,,,,,,,,,,,,,,,,,,,,,,,,,,,,,,,,,,,,None,,632.769952419959,None,632.769952419959,None,2022-03-01-15:44:13.939682,632.7706571000163,633.070131400018,632.7706571000163,None,None,632.7706571000163,None,633.5700863199775,None,,,,21003,0002,2022_Mar_01_1533,localizer,2021.1.3,59.61408228093505,
block,faces,faces024.bmp,,,,,0,81,81,81,,,,,,,,,,,,,,,,,,,,,,,,,,,,,,,,,,,,,,,,,,None,,633.5700863199775,None,633.5700863199775,None,2022-03-01-15:44:14.742030,633.5728971000062,633.8866853000363,633.5728971000062,633.5728971000062,None,633.5728971000062,633.5728971000062,634.3865602199687,None,,,,21003,0002,2022_Mar_01_1533,localizer,2021.1.3,59.61408228093505,
block,faces,faces050.bmp,,,,,0,82,82,82,,,,,,,,,,,,,,,,,,,,,,,,,,,,,,,,,,,,,,,,,,None,,634.3865602199687,None,634.3865602199687,None,2022-03-01-15:44:15.556316,634.3873648999725,634.7028182999929,634.3873648999725,None,None,634.3873648999725,None,635.1867301200284,None,,,,21003,0002,2022_Mar_01_1533,localizer,2021.1.3,59.61408228093505,
block,faces,faces082.bmp,,,,,0,83,83,83,,,,,,,,,,,,,,,,,,,,,,,,,,,,,,,,,,,,,,,,,,None,,635.1867301200284,None,635.1867301200284,None,2022-03-01-15:44:16.357755,635.1887884000316,635.5034220999805,635.1887884000316,635.1887884000316,None,635.1887884000316,635.1887884000316,636.0035053199856,None,,,,21003,0002,2022_Mar_01_1533,localizer,2021.1.3,59.61408228093505,
block,faces,faces006.bmp,,,,,0,84,84,84,,,,,,,,,,,,,,,,,,,,,,,,,,,,,,,,,,,,,,,,,,None,,636.0035053199856,None,636.0035053199856,None,2022-03-01-15:44:17.173456,636.0044870999409,636.319999899948,636.0044870999409,None,None,636.0044870999409,None,636.820156220044,None,,,,21003,0002,2022_Mar_01_1533,localizer,2021.1.3,59.61408228093505,
block,faces,faces060.bmp,,,,,0,85,85,85,,,,,,,,,,,,,,,,,,,,,,,,,,,,,,,,,,,,,,,,,,None,,636.820156220044,None,636.820156220044,None,2022-03-01-15:44:17.990155,636.8313152999617,637.1365899000084,636.8313152999617,None,None,636.8313152999617,None,637.6425891200081,None,,,,21003,0002,2022_Mar_01_1533,localizer,2021.1.3,59.61408228093505,
block,faces,faces081.bmp,,,,,0,86,86,86,,,,,,,,,,,,,,,,,,,,,,,,,,,,,,,,,,,,,,,,,,None,,637.6425891200081,None,637.6425891200081,None,2022-03-01-15:44:18.820315,637.648462299956,637.9529862999916,637.648462299956,None,None,637.648462299956,None,638.4533732199809,None,,,,21003,0002,2022_Mar_01_1533,localizer,2021.1.3,59.61408228093505,
block,faces,faces047.bmp,,,,,0,87,87,87,,,,,,,,,,,,,,,,,,,,,,,,,,,,,,,,,,,,,,,,,,None,,638.4533732199809,None,638.4533732199809,None,2022-03-01-15:44:19.623811,638.4546289000427,638.7537177000195,638.4546289000427,None,None,638.4546289000427,None,639.2702767199837,None,,,,21003,0002,2022_Mar_01_1533,localizer,2021.1.3,59.61408228093505,
block,faces,faces003.bmp,,,,,0,88,88,88,,,,,,,,,,,,,,,,,,,,,,,,,,,,,,,,,,,,,,,,,,None,,639.2702767199837,None,639.2702767199837,None,2022-03-01-15:44:20.441246,639.2710315999575,639.5862633000361,639.2710315999575,None,None,639.2710315999575,None,640.0709747199901,None,,,,21003,0002,2022_Mar_01_1533,localizer,2021.1.3,59.61408228093505,
block,faces,faces070.bmp,,,,,0,89,89,89,,,,,,,,,,,,,,,,,,,,,,,,,,,,,,,,,,,,,,,,,,None,,640.0709747199901,None,640.0709747199901,None,2022-03-01-15:44:21.244986,640.0752737999428,640.3863724999828,640.0752737999428,640.0752737999428,None,640.0752737999428,640.0752737999428,640.8885633199709,None,,,,21003,0002,2022_Mar_01_1533,localizer,2021.1.3,59.61408228093505,
block_end,faces,faces068.bmp,,,,,0,90,90,90,,,,,,,,,,,,,,,,,,,,,,,,,,,,,,,,,,,,,,,,,,None,,640.8885633199709,None,640.8885633199709,None,2022-03-01-15:44:22.063572,640.9057690999471,641.2200655000051,640.9057690999471,None,None,640.9057690999471,None,641.7034292199417,None,,,,21003,0002,2022_Mar_01_1533,localizer,2021.1.3,59.61408228093505,
null_block,null_block,null_block.bmp,,,,,0,91,91,91,,,,,,,,,,,,,,,,,,,,,,,,,,,,,,,,,,,,,,,,,,t,1.7916708999546245,641.7033374999883,None,641.7033374999883,None,2022-03-01-15:44:24.688585,643.5199228199665,None,643.5199228199665,None,None,643.5199228199665,None,643.5220415999647,None,,,,21003,0002,2022_Mar_01_1533,localizer,2021.1.3,59.61408228093505,
block_start,objects,objects002.bmp,,,,,0,92,92,92,,,,,,,,,,,,,,,,,,,,,,,,,,,,,,,,,,,,,,,,,,t,1.9580983000341803,655.5371342999861,None,655.5371342999861,None,2022-03-01-15:44:38.690320,657.5206812999677,657.8364703999832,657.5206812999677,None,None,657.5206812999677,None,658.3211092199665,None,,,,21003,0002,2022_Mar_01_1533,localizer,2021.1.3,59.61408228093505,
block,objects,objects057.bmp,,,,,0,93,93,93,,,,,,,,,,,,,,,,,,,,,,,,,,,,,,,,,,,,,,,,,,None,,658.3211092199665,None,658.3211092199665,None,2022-03-01-15:44:39.496047,658.3366541999858,658.6365718999878,658.3366541999858,658.3366541999858,None,658.3366541999858,658.3366541999858,659.1367744199699,None,,,,21003,0002,2022_Mar_01_1533,localizer,2021.1.3,59.61408228093505,
block,objects,objects078.bmp,,,,,0,94,94,94,,,,,,,,,,,,,,,,,,,,,,,,,,,,,,,,,,,,,,,,,,None,,659.1367744199699,None,659.1367744199699,None,2022-03-01-15:44:40.306957,659.1375117000425,659.4361259000143,659.1375117000425,None,None,659.1375117000425,None,659.9368724199478,None,,,,21003,0002,2022_Mar_01_1533,localizer,2021.1.3,59.61408228093505,
block,objects,objects007.bmp,,,,,0,95,95,95,,,,,,,,,,,,,,,,,,,,,,,,,,,,,,,,,,,,,,,,,,None,,659.9368724199478,None,659.9368724199478,None,2022-03-01-15:44:41.109261,659.9500317999627,660.2531508000102,659.9500317999627,659.9500317999627,None,659.9500317999627,659.9500317999627,660.7536371199415,None,,,,21003,0002,2022_Mar_01_1533,localizer,2021.1.3,59.61408228093505,
block,objects,objects049.bmp,,,,,0,96,96,96,,,,,,,,,,,,,,,,,,,,,,,,,,,,,,,,,,,,,,,,,,None,,660.7536371199415,None,660.7536371199415,None,2022-03-01-15:44:41.923737,660.7540841000155,661.0533801999409,660.7540841000155,None,None,660.7540841000155,None,661.5544719199418,None,,,,21003,0002,2022_Mar_01_1533,localizer,2021.1.3,59.61408228093505,
block,objects,objects015.bmp,,,,,0,97,97,97,,,,,,,,,,,,,,,,,,,,,,,,,,,,,,,,,,,,,,,,,,None,,661.5544719199418,None,661.5544719199418,None,2022-03-01-15:44:42.727844,661.5693096000468,661.8698384000454,661.5693096000468,661.5693096000468,None,661.5693096000468,661.5693096000468,662.3704707200407,None,,,,21003,0002,2022_Mar_01_1533,localizer,2021.1.3,59.61408228093505,
block,objects,objects077.bmp,,,,,0,98,98,98,,,,,,,,,,,,,,,,,,,,,,,,,,,,,,,,,,,,,,,,,,None,,662.3704707200407,None,662.3704707200407,None,2022-03-01-15:44:43.541697,662.3710311000468,662.670208800002,662.3710311000468,None,None,662.3710311000468,None,663.1712000199361,None,,,,21003,0002,2022_Mar_01_1533,localizer,2021.1.3,59.61408228093505,
block,objects,objects047.bmp,,,,,0,99,99,99,,,,,,,,,,,,,,,,,,,,,,,,,,,,,,,,,,,,,,,,,,None,,663.1712000199361,None,663.1712000199361,None,2022-03-01-15:44:44.343444,663.180436900002,663.4865336000221,663.180436900002,663.180436900002,None,663.180436900002,663.180436900002,663.9861536199926,None,,,,21003,0002,2022_Mar_01_1533,localizer,2021.1.3,59.61408228093505,
block,objects,objects062.bmp,,,,,0,100,100,100,,,,,,,,,,,,,,,,,,,,,,,,,,,,,,,,,,,,,,,,,,None,,663.9861536199926,None,663.9861536199926,None,2022-03-01-15:44:45.156397,663.9895213999553,664.3033791000489,663.9895213999553,None,None,663.9895213999553,None,664.8029574199347,None,,,,21003,0002,2022_Mar_01_1533,localizer,2021.1.3,59.61408228093505,
block,objects,objects048.bmp,,,,,0,101,101,101,,,,,,,,,,,,,,,,,,,,,,,,,,,,,,,,,,,,,,,,,,None,,664.8029574199347,None,664.8029574199347,None,2022-03-01-15:44:45.972726,664.8064307000022,665.119989400031,664.8064307000022,None,None,664.8064307000022,None,665.6203426199966,None,,,,21003,0002,2022_Mar_01_1533,localizer,2021.1.3,59.61408228093505,
block,objects,objects019.bmp,,,,,0,102,102,102,,,,,,,,,,,,,,,,,,,,,,,,,,,,,,,,,,,,,,,,,,None,,665.6203426199966,None,665.6203426199966,None,2022-03-01-15:44:46.791606,665.6208902000217,665.9364722999744,665.6208902000217,None,None,665.6208902000217,None,666.4204078199575,None,,,,21003,0002,2022_Mar_01_1533,localizer,2021.1.3,59.61408228093505,
block,objects,objects036.bmp,,,,,0,103,103,103,,,,,,,,,,,,,,,,,,,,,,,,,,,,,,,,,,,,,,,,,,None,,666.4204078199575,None,666.4204078199575,None,2022-03-01-15:44:47.592685,666.4232286999468,666.7370232000249,666.4232286999468,666.4232286999468,None,666.4232286999468,666.4232286999468,667.2370058199624,None,,,,21003,0002,2022_Mar_01_1533,localizer,2021.1.3,59.61408228093505,
block,objects,objects020.bmp,,,,,0,104,104,104,,,,,,,,,,,,,,,,,,,,,,,,,,,,,,,,,,,,,,,,,,None,,667.2370058199624,None,667.2370058199624,None,2022-03-01-15:44:48.407382,667.237540400005,667.5370012000203,667.237540400005,None,None,667.237540400005,None,668.0367836199468,None,,,,21003,0002,2022_Mar_01_1533,localizer,2021.1.3,59.61408228093505,
block,objects,objects038.bmp,,,,,0,105,105,105,,,,,,,,,,,,,,,,,,,,,,,,,,,,,,,,,,,,,,,,,,None,,668.0367836199468,None,668.0367836199468,None,2022-03-01-15:44:49.209110,668.0488030000124,668.3533728000475,668.0488030000124,668.0488030000124,None,668.0488030000124,668.0488030000124,668.8529066199437,None,,,,21003,0002,2022_Mar_01_1533,localizer,2021.1.3,59.61408228093505,
block_end,objects,objects068.bmp,,,,,0,106,106,106,,,,,,,,,,,,,,,,,,,,,,,,,,,,,,,,,,,,,,,,,,None,,668.8529066199437,None,668.8529066199437,None,2022-03-01-15:44:50.021967,668.8546476999763,669.1692885999801,668.8546476999763,None,None,668.8546476999763,None,669.6706220199587,None,,,,21003,0002,2022_Mar_01_1533,localizer,2021.1.3,59.61408228093505,
block_start,scenes,scenes010.bmp,,,,,0,107,107,107,,,,,,,,,,,,,,,,,,,,,,,,,,,,,,,,,,,,,,,,,,t,1.8247647000243887,669.670413200045,None,669.670413200045,None,2022-03-01-15:44:52.692940,671.5212492999854,671.820266900002,671.5212492999854,None,None,671.5212492999854,None,672.3363488199423,None,,,,21003,0002,2022_Mar_01_1533,localizer,2021.1.3,59.61408228093505,
block,scenes,scenes012.bmp,,,,,0,108,108,108,,,,,,,,,,,,,,,,,,,,,,,,,,,,,,,,,,,,,,,,,,None,,672.3363488199423,None,672.3363488199423,None,2022-03-01-15:44:53.506977,672.3458568999777,672.6538796999957,672.3458568999777,None,None,672.3458568999777,None,673.1538468200481,None,,,,21003,0002,2022_Mar_01_1533,localizer,2021.1.3,59.61408228093505,
block,scenes,scenes033.bmp,,,,,0,109,109,109,,,,,,,,,,,,,,,,,,,,,,,,,,,,,,,,,,,,,,,,,,None,,673.1538468200481,None,673.1538468200481,None,2022-03-01-15:44:54.325458,673.1546100999694,673.4697966999374,673.1546100999694,None,None,673.1546100999694,None,673.9695916199591,None,,,,21003,0002,2022_Mar_01_1533,localizer,2021.1.3,59.61408228093505,
block,scenes,scenes080.bmp,,,,,0,110,110,110,,,,,,,,,,,,,,,,,,,,,,,,,,,,,,,,,,,,,,,,,,None,,673.9695916199591,None,673.9695916199591,None,2022-03-01-15:44:55.139981,673.9708748999983,674.2700787000358,673.9708748999983,None,None,673.9708748999983,None,674.7702364200261,None,,,,21003,0002,2022_Mar_01_1533,localizer,2021.1.3,59.61408228093505,
block,scenes,scenes014.bmp,,,,,0,111,111,111,,,,,,,,,,,,,,,,,,,,,,,,,,,,,,,,,,,,,,,,,,None,,674.7702364200261,None,674.7702364200261,None,2022-03-01-15:44:55.942677,674.7714273999445,675.0861142999493,674.7714273999445,674.7714273999445,None,674.7714273999445,674.7714273999445,675.5863862199942,None,,,,21003,0002,2022_Mar_01_1533,localizer,2021.1.3,59.61408228093505,
block,scenes,scenes052.bmp,,,,,0,112,112,112,,,,,,,,,,,,,,,,,,,,,,,,,,,,,,,,,,,,,,,,,,None,,675.5863862199942,None,675.5863862199942,None,2022-03-01-15:44:56.756852,675.5876255000476,675.8876683999551,675.5876255000476,None,None,675.5876255000476,None,676.4032360199374,None,,,,21003,0002,2022_Mar_01_1533,localizer,2021.1.3,59.61408228093505,
block,scenes,scenes059.bmp,,,,,0,113,113,113,,,,,,,,,,,,,,,,,,,,,,,,,,,,,,,,,,,,,,,,,,None,,676.4032360199374,None,676.4032360199374,None,2022-03-01-15:44:57.574309,676.4041702999966,676.7034293999895,676.4041702999966,None,None,676.4041702999966,None,677.2046505200444,None,,,,21003,0002,2022_Mar_01_1533,localizer,2021.1.3,59.61408228093505,
block,scenes,scenes039.bmp,,,,,0,114,114,114,,,,,,,,,,,,,,,,,,,,,,,,,,,,,,,,,,,,,,,,,,None,,677.2046505200444,None,677.2046505200444,None,2022-03-01-15:44:58.379300,677.2089386000298,677.5195553000085,677.2089386000298,677.2089386000298,None,677.2089386000298,677.2089386000298,678.0198811199982,None,,,,21003,0002,2022_Mar_01_1533,localizer,2021.1.3,59.61408228093505,
block,scenes,scenes056.bmp,,,,,0,115,115,115,,,,,,,,,,,,,,,,,,,,,,,,,,,,,,,,,,,,,,,,,,None,,678.0198811199982,None,678.0198811199982,None,2022-03-01-15:44:59.190387,678.021067499998,678.3367436999688,678.021067499998,None,None,678.021067499998,None,678.822163019958,None,,,,21003,0002,2022_Mar_01_1533,localizer,2021.1.3,59.61408228093505,
block,scenes,scenes021.bmp,,,,,0,116,116,116,,,,,,,,,,,,,,,,,,,,,,,,,,,,,,,,,,,,,,,,,,None,,678.822163019958,None,678.822163019958,None,2022-03-01-15:44:59.998315,678.8398239000235,679.1536326999776,678.8398239000235,678.8398239000235,None,678.8398239000235,678.8398239000235,679.6364396199817,None,,,,21003,0002,2022_Mar_01_1533,localizer,2021.1.3,59.61408228093505,
block,scenes,scenes062.bmp,,,,,0,117,117,117,,,,,,,,,,,,,,,,,,,,,,,,,,,,,,,,,,,,,,,,,,None,,679.6364396199817,None,679.6364396199817,None,2022-03-01-15:45:00.807077,679.6471118000336,679.9531831999775,679.6471118000336,None,None,679.6471118000336,None,680.4536916199606,None,,,,21003,0002,2022_Mar_01_1533,localizer,2021.1.3,59.61408228093505,
block,scenes,scenes041.bmp,,,,,0,118,118,118,,,,,,,,,,,,,,,,,,,,,,,,,,,,,,,,,,,,,,,,,,None,,680.4536916199606,None,680.4536916199606,None,2022-03-01-15:45:01.623357,680.4542336999439,680.7534724000143,680.4542336999439,None,None,680.4542336999439,None,681.2545294199838,None,,,,21003,0002,2022_Mar_01_1533,localizer,2021.1.3,59.61408228093505,
block,scenes,scenes083.bmp,,,,,0,119,119,119,,,,,,,,,,,,,,,,,,,,,,,,,,,,,,,,,,,,,,,,,,None,,681.2545294199838,None,681.2545294199838,None,2022-03-01-15:45:02.429090,681.2701039999956,681.5706160999835,681.2701039999956,681.2701039999956,None,681.2701039999956,681.2701039999956,682.0706969199703,None,,,,21003,0002,2022_Mar_01_1533,localizer,2021.1.3,59.61408228093505,
block,scenes,scenes055.bmp,,,,,0,120,120,120,,,,,,,,,,,,,,,,,,,,,,,,,,,,,,,,,,,,,,,,,,None,,682.0706969199703,None,682.0706969199703,None,2022-03-01-15:45:03.242450,682.0714424999896,682.3863883999875,682.0714424999896,None,None,682.0714424999896,None,682.8708351200214,None,,,,21003,0002,2022_Mar_01_1533,localizer,2021.1.3,59.61408228093505,
block_end,scenes,scenes089.bmp,,,,,0,121,121,121,,,,,,,,,,,,,,,,,,,,,,,,,,,,,,,,,,,,,,,,,,None,,682.8708351200214,None,682.8708351200214,None,2022-03-01-15:45:04.044403,682.8735996000469,683.1873326000059,682.8735996000469,682.8735996000469,None,682.8735996000469,682.8735996000469,683.6863667199389,None,,,,21003,0002,2022_Mar_01_1533,localizer,2021.1.3,59.61408228093505,
block_start,scrambled,scrambled031.bmp,,,,,0,122,122,122,,,,,,,,,,,,,,,,,,,,,,,,,,,,,,,,,,,,,,,,,,t,1.809044499997981,683.6861331999535,None,683.6861331999535,None,2022-03-01-15:45:06.690844,685.5209500000346,685.8201665999368,685.5209500000346,None,None,685.5209500000346,None,686.3206132200314,None,,,,21003,0002,2022_Mar_01_1533,localizer,2021.1.3,59.61408228093505,
block,scrambled,scrambled069.bmp,,,,,0,123,123,123,,,,,,,,,,,,,,,,,,,,,,,,,,,,,,,,,,,,,,,,,,None,,686.3206132200314,None,686.3206132200314,None,2022-03-01-15:45:07.493372,686.3334792000242,686.6363692999585,686.3334792000242,686.3334792000242,None,686.3334792000242,686.3334792000242,687.1368602200412,None,,,,21003,0002,2022_Mar_01_1533,localizer,2021.1.3,59.61408228093505,
block,scrambled,scrambled011.bmp,,,,,0,124,124,124,,,,,,,,,,,,,,,,,,,,,,,,,,,,,,,,,,,,,,,,,,None,,687.1368602200412,None,687.1368602200412,None,2022-03-01-15:45:08.307525,687.1374773000134,687.4367761999601,687.1374773000134,None,None,687.1374773000134,None,687.9369566200069,None,,,,21003,0002,2022_Mar_01_1533,localizer,2021.1.3,59.61408228093505,
block,scrambled,scrambled080.bmp,,,,,0,125,125,125,,,,,,,,,,,,,,,,,,,,,,,,,,,,,,,,,,,,,,,,,,None,,687.9369566200069,None,687.9369566200069,None,2022-03-01-15:45:09.108520,687.937511999975,688.2368842000142,687.937511999975,687.937511999975,None,687.937511999975,687.937511999975,688.7533662199742,None,,,,21003,0002,2022_Mar_01_1533,localizer,2021.1.3,59.61408228093505,
block,scrambled,scrambled083.bmp,,,,,0,126,126,126,,,,,,,,,,,,,,,,,,,,,,,,,,,,,,,,,,,,,,,,,,None,,688.7533662199742,None,688.7533662199742,None,2022-03-01-15:45:09.924057,688.7620759999845,689.0702146999538,688.7620759999845,None,None,688.7620759999845,None,689.5717431200203,None,,,,21003,0002,2022_Mar_01_1533,localizer,2021.1.3,59.61408228093505,
block,scrambled,scrambled004.bmp,,,,,0,127,127,127,,,,,,,,,,,,,,,,,,,,,,,,,,,,,,,,,,,,,,,,,,None,,689.5717431200203,None,689.5717431200203,None,2022-03-01-15:45:10.741275,689.5784748999868,689.8866465999745,689.5784748999868,None,None,689.5784748999868,None,690.3869599199854,None,,,,21003,0002,2022_Mar_01_1533,localizer,2021.1.3,59.61408228093505,
block,scrambled,scrambled029.bmp,,,,,0,128,128,128,,,,,,,,,,,,,,,,,,,,,,,,,,,,,,,,,,,,,,,,,,None,,690.3869599199854,None,690.3869599199854,None,2022-03-01-15:45:11.557673,690.387575199944,690.6861647999613,690.387575199944,None,None,690.387575199944,None,691.1888955199859,None,,,,21003,0002,2022_Mar_01_1533,localizer,2021.1.3,59.61408228093505,
block,scrambled,scrambled052.bmp,,,,,0,129,129,129,,,,,,,,,,,,,,,,,,,,,,,,,,,,,,,,,,,,,,,,,,None,,691.1888955199859,None,691.1888955199859,None,2022-03-01-15:45:12.365688,691.1964428999927,691.5032668999629,691.1964428999927,691.1964428999927,None,691.1964428999927,691.1964428999927,692.0040345199407,None,,,,21003,0002,2022_Mar_01_1533,localizer,2021.1.3,59.61408228093505,
block,scrambled,scrambled032.bmp,,,,,0,130,130,130,,,,,,,,,,,,,,,,,,,,,,,,,,,,,,,,,,,,,,,,,,None,,692.0040345199407,None,692.0040345199407,None,2022-03-01-15:45:13.175763,692.0048540999414,692.3039901000448,692.0048540999414,None,None,692.0048540999414,None,692.8205272199586,None,,,,21003,0002,2022_Mar_01_1533,localizer,2021.1.3,59.61408228093505,
block,scrambled,scrambled061.bmp,,,,,0,131,131,131,,,,,,,,,,,,,,,,,,,,,,,,,,,,,,,,,,,,,,,,,,None,,692.8205272199586,None,692.8205272199586,None,2022-03-01-15:45:13.991277,692.821072599967,693.1216421000427,692.821072599967,None,None,692.821072599967,None,693.6267804200063,None,,,,21003,0002,2022_Mar_01_1533,localizer,2021.1.3,59.61408228093505,
block,scrambled,scrambled075.bmp,,,,,0,132,132,132,,,,,,,,,,,,,,,,,,,,,,,,,,,,,,,,,,,,,,,,,,None,,693.6267804200063,None,693.6267804200063,None,2022-03-01-15:45:14.801598,693.640943299979,693.9534042000305,693.640943299979,None,None,693.640943299979,None,694.4368544200436,None,,,,21003,0002,2022_Mar_01_1533,localizer,2021.1.3,59.61408228093505,
block,scrambled,scrambled040.bmp,,,,,0,133,133,133,,,,,,,,,,,,,,,,,,,,,,,,,,,,,,,,,,,,,,,,,,None,,694.4368544200436,None,694.4368544200436,None,2022-03-01-15:45:15.607768,694.4376553000184,694.7370272999397,694.4376553000184,None,None,694.4376553000184,None,695.2370300200303,None,,,,21003,0002,2022_Mar_01_1533,localizer,2021.1.3,59.61408228093505,
block,scrambled,scrambled077.bmp,,,,,0,134,134,134,,,,,,,,,,,,,,,,,,,,,,,,,,,,,,,,,,,,,,,,,,None,,695.2370300200303,None,695.2370300200303,None,2022-03-01-15:45:16.410030,695.2388076999923,695.553385599982,695.2388076999923,695.2388076999923,None,695.2388076999923,695.2388076999923,696.0536336199614,None,,,,21003,0002,2022_Mar_01_1533,localizer,2021.1.3,59.61408228093505,
block,scrambled,scrambled060.bmp,,,,,0,135,135,135,,,,,,,,,,,,,,,,,,,,,,,,,,,,,,,,,,,,,,,,,,None,,696.0536336199614,None,696.0536336199614,None,2022-03-01-15:45:17.224443,696.0544503999408,696.3541254999582,696.0544503999408,None,None,696.0544503999408,None,696.8699277199805,None,,,,21003,0002,2022_Mar_01_1533,localizer,2021.1.3,59.61408228093505,
block_end,scrambled,scrambled072.bmp,,,,,0,136,136,136,,,,,,,,,,,,,,,,,,,,,,,,,,,,,,,,,,,,,,,,,,None,,696.8699277199805,None,696.8699277199805,None,2022-03-01-15:45:18.040411,696.8718088000314,697.1707809999352,696.8718088000314,None,None,696.8718088000314,None,697.687388920039,None,,,,21003,0002,2022_Mar_01_1533,localizer,2021.1.3,59.61408228093505,
block_start,faces,faces031.bmp,,,,,0,137,137,137,,,,,,,,,,,,,,,,,,,,,,,,,,,,,,,,,,,,,,,,,,t,1.8077538000652567,697.6873205000302,None,697.6873205000302,None,2022-03-01-15:45:20.688508,699.5215120000066,699.8368594000349,699.5215120000066,None,None,699.5215120000066,None,700.3210183199728,None,,,,21003,0002,2022_Mar_01_1533,localizer,2021.1.3,59.61408228093505,
block,faces,faces059.bmp,,,,,0,138,138,138,,,,,,,,,,,,,,,,,,,,,,,,,,,,,,,,,,,,,,,,,,None,,700.3210183199728,None,700.3210183199728,None,2022-03-01-15:45:21.494879,700.3240729999961,700.6371568000177,700.3240729999961,700.3240729999961,None,700.3240729999961,700.3240729999961,701.136798520037,None,,,,21003,0002,2022_Mar_01_1533,localizer,2021.1.3,59.61408228093505,
block,faces,faces005.bmp,,,,,0,139,139,139,,,,,,,,,,,,,,,,,,,,,,,,,,,,,,,,,,,,,,,,,,None,,701.136798520037,None,701.136798520037,None,2022-03-01-15:45:22.307910,701.1462685000151,701.453528999933,701.1462685000151,None,None,701.1462685000151,None,701.9528007200454,None,,,,21003,0002,2022_Mar_01_1533,localizer,2021.1.3,59.61408228093505,
block,faces,faces005.bmp,,,,,0,140,140,140,,,,,,,,,,,,,,,,,,,,,,,,,,,,,,,,,,,,,,,,,,None,,701.9528007200454,None,701.9528007200454,None,2022-03-01-15:45:23.123718,701.9552135999547,702.2703856000444,701.9552135999547,None,y,701.9552135999547,None,702.7700973200147,None,0.7734245000174269,,,21003,0002,2022_Mar_01_1533,localizer,2021.1.3,59.61408228093505,
block,faces,faces048.bmp,,,,,0,141,141,141,,,,,,,,,,,,,,,,,,,,,,,,,,,,,,,,,,,,,,,,,,None,,702.7700973200147,None,702.7700973200147,None,2022-03-01-15:45:23.941022,702.7815745000262,703.0867824000306,702.7815745000262,None,None,702.7815745000262,None,703.5880424200325,None,,,,21003,0002,2022_Mar_01_1533,localizer,2021.1.3,59.61408228093505,
block,faces,faces071.bmp,,,,,0,142,142,142,,,,,,,,,,,,,,,,,,,,,,,,,,,,,,,,,,,,,,,,,,None,,703.5880424200325,None,703.5880424200325,None,2022-03-01-15:45:24.760911,703.601122800028,703.9035933000268,703.601122800028,None,None,703.601122800028,None,704.4038158200449,None,,,,21003,0002,2022_Mar_01_1533,localizer,2021.1.3,59.61408228093505,
block,faces,faces053.bmp,,,,,0,143,143,143,,,,,,,,,,,,,,,,,,,,,,,,,,,,,,,,,,,,,,,,,,None,,704.4038158200449,None,704.4038158200449,None,2022-03-01-15:45:25.574994,704.404470999958,704.7203162999358,704.404470999958,None,None,704.404470999958,None,705.2037480200408,None,,,,21003,0002,2022_Mar_01_1533,localizer,2021.1.3,59.61408228093505,
block,faces,faces037.bmp,,,,,0,144,144,144,,,,,,,,,,,,,,,,,,,,,,,,,,,,,,,,,,,,,,,,,,None,,705.2037480200408,None,705.2037480200408,None,2022-03-01-15:45:26.376704,705.2158137999941,705.5202375999652,705.2158137999941,705.2158137999941,None,705.2158137999941,705.2158137999941,706.0204771199963,None,,,,21003,0002,2022_Mar_01_1533,localizer,2021.1.3,59.61408228093505,
block,faces,faces056.bmp,,,,,0,145,145,145,,,,,,,,,,,,,,,,,,,,,,,,,,,,,,,,,,,,,,,,,,None,,706.0204771199963,None,706.0204771199963,None,2022-03-01-15:45:27.191437,706.0211227999534,706.3367937000003,706.0211227999534,None,None,706.0211227999534,None,706.8203498200048,None,,,,21003,0002,2022_Mar_01_1533,localizer,2021.1.3,59.61408228093505,
block,faces,faces002.bmp,,,,,0,146,146,146,,,,,,,,,,,,,,,,,,,,,,,,,,,,,,,,,,,,,,,,,,None,,706.8203498200048,None,706.8203498200048,None,2022-03-01-15:45:27.993231,706.8214821999427,707.1366227000253,706.8214821999427,706.8214821999427,None,706.8214821999427,706.8214821999427,707.624130319967,None,,,,21003,0002,2022_Mar_01_1533,localizer,2021.1.3,59.61408228093505,
block,faces,faces016.bmp,,,,,0,147,147,147,,,,,,,,,,,,,,,,,,,,,,,,,,,,,,,,,,,,,,,,,,None,,707.624130319967,None,707.624130319967,None,2022-03-01-15:45:28.801094,707.6303891999414,707.9370929000434,707.6303891999414,707.6303891999414,None,707.6303891999414,707.6303891999414,708.4371893200325,None,,,,21003,0002,2022_Mar_01_1533,localizer,2021.1.3,59.61408228093505,
block,faces,faces003.bmp,,,,,0,148,148,148,,,,,,,,,,,,,,,,,,,,,,,,,,,,,,,,,,,,,,,,,,None,,708.4371893200325,None,708.4371893200325,None,2022-03-01-15:45:29.608412,708.437718500034,708.7535061000381,708.437718500034,None,None,708.437718500034,None,709.2367224200163,None,,,,21003,0002,2022_Mar_01_1533,localizer,2021.1.3,59.61408228093505,
block,faces,faces050.bmp,,,,,0,149,149,149,,,,,,,,,,,,,,,,,,,,,,,,,,,,,,,,,,,,,,,,,,None,,709.2367224200163,None,709.2367224200163,None,2022-03-01-15:45:30.409683,709.2377041999716,709.5370054999366,709.2377041999716,709.2377041999716,None,709.2377041999716,709.2377041999716,710.0429795199773,None,,,,21003,0002,2022_Mar_01_1533,localizer,2021.1.3,59.61408228093505,
block,faces,faces047.bmp,,,,,0,150,150,150,,,,,,,,,,,,,,,,,,,,,,,,,,,,,,,,,,,,,,,,,,None,,710.0429795199773,None,710.0429795199773,None,2022-03-01-15:45:31.219998,710.0492862999672,710.3536391999805,710.0492862999672,None,None,710.0492862999672,None,710.8545948199928,None,,,,21003,0002,2022_Mar_01_1533,localizer,2021.1.3,59.61408228093505,
block_end,faces,faces075.bmp,,,,,0,151,151,151,,,,,,,,,,,,,,,,,,,,,,,,,,,,,,,,,,,,,,,,,,None,,710.8545948199928,None,710.8545948199928,None,2022-03-01-15:45:32.026658,710.8565986000467,711.1705076999497,710.8565986000467,None,None,710.8565986000467,None,711.6710451200372,None,,,,21003,0002,2022_Mar_01_1533,localizer,2021.1.3,59.61408228093505,
block_start,scenes,scenes027.bmp,,,,,0,152,152,152,,,,,,,,,,,,,,,,,,,,,,,,,,,,,,,,,,,,,,,,,,t,1.8245860999450088,711.6707585999975,None,711.6707585999975,None,2022-03-01-15:45:34.702048,713.5702445999486,713.8701900000451,713.5702445999486,None,None,713.5702445999486,None,714.3369283200475,None,,,,21003,0002,2022_Mar_01_1533,localizer,2021.1.3,59.61408228093505,
block,scenes,scenes088.bmp,,,,,0,153,153,153,,,,,,,,,,,,,,,,,,,,,,,,,,,,,,,,,,,,,,,,,,None,,714.3369283200475,None,714.3369283200475,None,2022-03-01-15:45:35.508079,714.3377325000474,714.6372015000088,714.3377325000474,None,None,714.3377325000474,None,715.1376409200486,None,,,,21003,0002,2022_Mar_01_1533,localizer,2021.1.3,59.61408228093505,
block,scenes,scenes056.bmp,,,,,0,154,154,154,,,,,,,,,,,,,,,,,,,,,,,,,,,,,,,,,,,,,,,,,,None,,715.1376409200486,None,715.1376409200486,None,2022-03-01-15:45:36.311740,715.1402906000149,715.4536586999893,715.1402906000149,715.1402906000149,None,715.1402906000149,715.1402906000149,715.954022320034,None,,,,21003,0002,2022_Mar_01_1533,localizer,2021.1.3,59.61408228093505,
block,scenes,scenes064.bmp,,,,,0,155,155,155,,,,,,,,,,,,,,,,,,,,,,,,,,,,,,,,,,,,,,,,,,None,,715.954022320034,None,715.954022320034,None,2022-03-01-15:45:37.125149,715.9647467000177,716.270124200033,715.9647467000177,None,None,715.9647467000177,None,716.7707025199663,None,,,,21003,0002,2022_Mar_01_1533,localizer,2021.1.3,59.61408228093505,
block,scenes,scenes014.bmp,,,,,0,156,156,156,,,,,,,,,,,,,,,,,,,,,,,,,,,,,,,,,,,,,,,,,,None,,716.7707025199663,None,716.7707025199663,None,2022-03-01-15:45:37.943065,716.7717389999889,717.0740868999856,716.7717389999889,None,None,716.7717389999889,None,717.5865100200056,None,,,,21003,0002,2022_Mar_01_1533,localizer,2021.1.3,59.61408228093505,
block,scenes,scenes063.bmp,,,,,0,157,157,157,,,,,,,,,,,,,,,,,,,,,,,,,,,,,,,,,,,,,,,,,,None,,717.5865100200056,None,717.5865100200056,None,2022-03-01-15:45:38.757692,717.5882888999768,717.903357299976,717.5882888999768,None,None,717.5882888999768,None,718.4035916199675,None,,,,21003,0002,2022_Mar_01_1533,localizer,2021.1.3,59.61408228093505,
block,scenes,scenes017.bmp,,,,,0,158,158,158,,,,,,,,,,,,,,,,,,,,,,,,,,,,,,,,,,,,,,,,,,None,,718.4035916199675,None,718.4035916199675,None,2022-03-01-15:45:39.574782,718.4133069999516,718.7205134000396,718.4133069999516,None,None,718.4133069999516,None,719.2220249199775,None,,,,21003,0002,2022_Mar_01_1533,localizer,2021.1.3,59.61408228093505,
block,scenes,scenes058.bmp,,,,,0,159,159,159,,,,,,,,,,,,,,,,,,,,,,,,,,,,,,,,,,,,,,,,,,None,,719.2220249199775,None,719.2220249199775,None,2022-03-01-15:45:40.396229,719.2251537999837,719.5368557999609,719.2251537999837,None,None,719.2251537999837,None,720.0375132200309,None,,,,21003,0002,2022_Mar_01_1533,localizer,2021.1.3,59.61408228093505,
block,scenes,scenes077.bmp,,,,,0,160,160,160,,,,,,,,,,,,,,,,,,,,,,,,,,,,,,,,,,,,,,,,,,None,,720.0375132200309,None,720.0375132200309,None,2022-03-01-15:45:41.210017,720.0492699999595,720.3533281999407,720.0492699999595,None,None,720.0492699999595,None,720.8534041200066,None,,,,21003,0002,2022_Mar_01_1533,localizer,2021.1.3,59.61408228093505,
block,scenes,scenes074.bmp,,,,,0,161,161,161,,,,,,,,,,,,,,,,,,,,,,,,,,,,,,,,,,,,,,,,,,None,,720.8534041200066,None,720.8534041200066,None,2022-03-01-15:45:42.024642,720.85459490004,721.1702595000388,720.85459490004,None,None,720.85459490004,None,721.6538608200383,None,,,,21003,0002,2022_Mar_01_1533,localizer,2021.1.3,59.61408228093505,
block,scenes,scenes020.bmp,,,,,0,162,162,162,,,,,,,,,,,,,,,,,,,,,,,,,,,,,,,,,,,,,,,,,,None,,721.6538608200383,None,721.6538608200383,None,2022-03-01-15:45:42.827100,721.6551675000228,721.970222300035,721.6551675000228,721.6551675000228,None,721.6551675000228,721.6551675000228,722.4701344200178,None,,,,21003,0002,2022_Mar_01_1533,localizer,2021.1.3,59.61408228093505,
block,scenes,scenes078.bmp,,,,,0,163,163,163,,,,,,,,,,,,,,,,,,,,,,,,,,,,,,,,,,,,,,,,,,None,,722.4701344200178,None,722.4701344200178,None,2022-03-01-15:45:43.641395,722.4772235000273,722.7871827000054,722.4772235000273,None,None,722.4772235000273,None,723.2890950199683,None,,,,21003,0002,2022_Mar_01_1533,localizer,2021.1.3,59.61408228093505,
block,scenes,scenes019.bmp,,,,,0,164,164,164,,,,,,,,,,,,,,,,,,,,,,,,,,,,,,,,,,,,,,,,,,None,,723.2890950199683,None,723.2890950199683,None,2022-03-01-15:45:44.464355,723.2944070999511,723.6047225999646,723.2944070999511,None,None,723.2944070999511,None,724.1034320199863,None,,,,21003,0002,2022_Mar_01_1533,localizer,2021.1.3,59.61408228093505,
block,scenes,scenes008.bmp,,,,,0,165,165,165,,,,,,,,,,,,,,,,,,,,,,,,,,,,,,,,,,,,,,,,,,None,,724.1034320199863,None,724.1034320199863,None,2022-03-01-15:45:45.274943,724.1048496000003,724.4101031000027,724.1048496000003,None,None,724.1048496000003,None,724.9202703199583,None,,,,21003,0002,2022_Mar_01_1533,localizer,2021.1.3,59.61408228093505,
block_end,scenes,scenes051.bmp,,,,,0,166,166,166,,,,,,,,,,,,,,,,,,,,,,,,,,,,,,,,,,,,,,,,,,None,,724.9202703199583,None,724.9202703199583,None,2022-03-01-15:45:46.091809,724.932524099946,725.2370671000099,724.932524099946,None,None,724.932524099946,None,725.7383608200355,None,,,,21003,0002,2022_Mar_01_1533,localizer,2021.1.3,59.61408228093505,
null_block,null_block,null_block.bmp,,,,,0,167,167,167,,,,,,,,,,,,,,,,,,,,,,,,,,,,,,,,,,,,,,,,,,t,1.7569200999569148,725.7381058000028,None,725.7381058000028,None,2022-03-01-15:45:48.690538,727.5201828199672,None,727.5201828199672,None,None,727.5201828199672,None,727.5227574999444,None,,,,21003,0002,2022_Mar_01_1533,localizer,2021.1.3,59.61408228093505,
block_start,objects,objects060.bmp,,,,,0,168,168,168,,,,,,,,,,,,,,,,,,,,,,,,,,,,,,,,,,,,,,,,,,t,1.9579057999653742,739.5363025999395,None,739.5363025999395,None,2022-03-01-15:46:02.692325,741.5296985999448,741.8366794999456,741.5296985999448,None,None,741.5296985999448,None,742.3374047199497,None,,,,21003,0002,2022_Mar_01_1533,localizer,2021.1.3,59.61408228093505,
block,objects,objects012.bmp,,,,,0,169,169,169,,,,,,,,,,,,,,,,,,,,,,,,,,,,,,,,,,,,,,,,,,None,,742.3374047199497,None,742.3374047199497,None,2022-03-01-15:46:03.509038,742.3484683999559,742.6548506999388,742.3484683999559,None,None,742.3484683999559,None,743.1538299200358,None,,,,21003,0002,2022_Mar_01_1533,localizer,2021.1.3,59.61408228093505,
block,objects,objects018.bmp,,,,,0,170,170,170,,,,,,,,,,,,,,,,,,,,,,,,,,,,,,,,,,,,,,,,,,None,,743.1538299200358,None,743.1538299200358,None,2022-03-01-15:46:04.325513,743.1649615999777,743.4705612999387,743.1649615999777,None,None,743.1649615999777,None,743.9705066199415,None,,,,21003,0002,2022_Mar_01_1533,localizer,2021.1.3,59.61408228093505,
block,objects,objects006.bmp,,,,,0,171,171,171,,,,,,,,,,,,,,,,,,,,,,,,,,,,,,,,,,,,,,,,,,None,,743.9705066199415,None,743.9705066199415,None,2022-03-01-15:46:05.142359,743.9806754000019,744.2875346000073,743.9806754000019,None,None,743.9806754000019,None,744.7874827200314,None,,,,21003,0002,2022_Mar_01_1533,localizer,2021.1.3,59.61408228093505,
block,objects,objects074.bmp,,,,,0,172,172,172,,,,,,,,,,,,,,,,,,,,,,,,,,,,,,,,,,,,,,,,,,None,,744.7874827200314,None,744.7874827200314,None,2022-03-01-15:46:05.959324,744.7878445000388,745.1034632000374,744.7878445000388,None,None,744.7878445000388,None,745.6036827200326,None,,,,21003,0002,2022_Mar_01_1533,localizer,2021.1.3,59.61408228093505,
block,objects,objects056.bmp,,,,,0,173,173,173,,,,,,,,,,,,,,,,,,,,,,,,,,,,,,,,,,,,,,,,,,None,,745.6036827200326,None,745.6036827200326,None,2022-03-01-15:46:06.775384,745.6122867999366,745.9201480000047,745.6122867999366,None,None,745.6122867999366,None,746.422588720033,None,,,,21003,0002,2022_Mar_01_1533,localizer,2021.1.3,59.61408228093505,
block,objects,objects035.bmp,,,,,0,174,174,174,,,,,,,,,,,,,,,,,,,,,,,,,,,,,,,,,,,,,,,,,,None,,746.422588720033,None,746.422588720033,None,2022-03-01-15:46:07.598218,746.4381710999878,746.7376855999464,746.4381710999878,None,None,746.4381710999878,None,747.2437114200322,None,,,,21003,0002,2022_Mar_01_1533,localizer,2021.1.3,59.61408228093505,
block,objects,objects064.bmp,,,,,0,175,175,175,,,,,,,,,,,,,,,,,,,,,,,,,,,,,,,,,,,,,,,,,,None,,747.2437114200322,None,747.2437114200322,None,2022-03-01-15:46:08.421983,747.2494106999366,747.5537521999795,747.2494106999366,None,None,747.2494106999366,None,748.0540017199703,None,,,,21003,0002,2022_Mar_01_1533,localizer,2021.1.3,59.61408228093505,
block,objects,objects066.bmp,,,,,0,176,176,176,,,,,,,,,,,,,,,,,,,,,,,,,,,,,,,,,,,,,,,,,,None,,748.0540017199703,None,748.0540017199703,None,2022-03-01-15:46:09.225694,748.0632411999395,748.3704920000164,748.0632411999395,None,None,748.0632411999395,None,748.8716948200483,None,,,,21003,0002,2022_Mar_01_1533,localizer,2021.1.3,59.61408228093505,
block,objects,objects019.bmp,,,,,0,177,177,177,,,,,,,,,,,,,,,,,,,,,,,,,,,,,,,,,,,,,,,,,,None,,748.8716948200483,None,748.8716948200483,None,2022-03-01-15:46:10.044384,748.8736683999887,749.1870848999824,748.8736683999887,None,None,748.8736683999887,None,749.6870405199472,None,,,,21003,0002,2022_Mar_01_1533,localizer,2021.1.3,59.61408228093505,
block,objects,objects063.bmp,,,,,0,178,178,178,,,,,,,,,,,,,,,,,,,,,,,,,,,,,,,,,,,,,,,,,,None,,749.6870405199472,None,749.6870405199472,None,2022-03-01-15:46:10.857774,749.6880750999553,750.0037849999499,749.6880750999553,None,None,749.6880750999553,None,750.4872901200317,None,,,,21003,0002,2022_Mar_01_1533,localizer,2021.1.3,59.61408228093505,
block,objects,objects005.bmp,,,,,0,179,179,179,,,,,,,,,,,,,,,,,,,,,,,,,,,,,,,,,,,,,,,,,,None,,750.4872901200317,None,750.4872901200317,None,2022-03-01-15:46:11.661307,750.5003047999926,750.8040659000399,750.5003047999926,750.5003047999926,None,750.5003047999926,750.5003047999926,751.3040480199736,None,,,,21003,0002,2022_Mar_01_1533,localizer,2021.1.3,59.61408228093505,
block,objects,objects059.bmp,,,,,0,180,180,180,,,,,,,,,,,,,,,,,,,,,,,,,,,,,,,,,,,,,,,,,,None,,751.3040480199736,None,751.3040480199736,None,2022-03-01-15:46:12.475793,751.3048618000466,751.6201240000082,751.3048618000466,None,None,751.3048618000466,None,752.1038765199949,None,,,,21003,0002,2022_Mar_01_1533,localizer,2021.1.3,59.61408228093505,
block,objects,objects051.bmp,,,,,0,181,181,181,,,,,,,,,,,,,,,,,,,,,,,,,,,,,,,,,,,,,,,,,,None,,752.1038765199949,None,752.1038765199949,None,2022-03-01-15:46:13.277634,752.116577800014,752.4206271000439,752.116577800014,752.116577800014,None,752.116577800014,752.116577800014,752.9204141200055,None,,,,21003,0002,2022_Mar_01_1533,localizer,2021.1.3,59.61408228093505,
block_end,objects,objects058.bmp,,,,,0,182,182,182,,,,,,,,,,,,,,,,,,,,,,,,,,,,,,,,,,,,,,,,,,None,,752.9204141200055,None,752.9204141200055,None,2022-03-01-15:46:14.092190,752.9301074999385,753.2371505999472,752.9301074999385,None,None,752.9301074999385,None,753.7369960200042,None,,,,21003,0002,2022_Mar_01_1533,localizer,2021.1.3,59.61408228093505,
block_start,faces,faces005.bmp,,,,,0,183,183,183,,,,,,,,,,,,,,,,,,,,,,,,,,,,,,,,,,,,,,,,,,t,1.7571478999452665,753.7368295999477,None,753.7368295999477,None,2022-03-01-15:46:16.692416,755.5213012000313,755.8367252999451,755.5213012000313,None,None,755.5213012000313,None,756.3212991200155,None,,,,21003,0002,2022_Mar_01_1533,localizer,2021.1.3,59.61408228093505,
block,faces,faces055.bmp,,,,,0,184,184,184,,,,,,,,,,,,,,,,,,,,,,,,,,,,,,,,,,,,,,,,,,None,,756.3212991200155,None,756.3212991200155,None,2022-03-01-15:46:17.496116,756.3243443999672,756.6371819999767,756.3243443999672,756.3243443999672,None,756.3243443999672,756.3243443999672,757.1368061199785,None,,,,21003,0002,2022_Mar_01_1533,localizer,2021.1.3,59.61408228093505,
block,faces,faces042.bmp,,,,,0,185,185,185,,,,,,,,,,,,,,,,,,,,,,,,,,,,,,,,,,,,,,,,,,None,,757.1368061199785,None,757.1368061199785,None,2022-03-01-15:46:18.307931,757.1387937000254,757.4542597000254,757.1387937000254,None,None,757.1387937000254,None,757.9378423199989,None,,,,21003,0002,2022_Mar_01_1533,localizer,2021.1.3,59.61408228093505,
block,faces,faces077.bmp,,,,,0,186,186,186,,,,,,,,,,,,,,,,,,,,,,,,,,,,,,,,,,,,,,,,,,None,,757.9378423199989,None,757.9378423199989,None,2022-03-01-15:46:19.112863,757.9536428999854,758.2540183999809,757.9536428999854,757.9536428999854,None,757.9536428999854,757.9536428999854,758.7540059199557,None,,,,21003,0002,2022_Mar_01_1533,localizer,2021.1.3,59.61408228093505,
block,faces,faces012.bmp,,,,,0,187,187,187,,,,,,,,,,,,,,,,,,,,,,,,,,,,,,,,,,,,,,,,,,None,,758.7540059199557,None,758.7540059199557,None,2022-03-01-15:46:19.926270,758.7650631000288,759.0706100999378,758.7650631000288,None,None,758.7650631000288,None,759.5701315199724,None,,,,21003,0002,2022_Mar_01_1533,localizer,2021.1.3,59.61408228093505,
block,faces,faces064.bmp,,,,,0,188,188,188,,,,,,,,,,,,,,,,,,,,,,,,,,,,,,,,,,,,,,,,,,None,,759.5701315199724,None,759.5701315199724,None,2022-03-01-15:46:20.741964,759.5715132999467,759.8709440999664,759.5715132999467,None,None,759.5715132999467,None,760.3708961200202,None,,,,21003,0002,2022_Mar_01_1533,localizer,2021.1.3,59.61408228093505,
block,faces,faces050.bmp,,,,,0,189,189,189,,,,,,,,,,,,,,,,,,,,,,,,,,,,,,,,,,,,,,,,,,None,,760.3708961200202,None,760.3708961200202,None,2022-03-01-15:46:21.544835,760.3724616999971,760.6878072000109,760.3724616999971,760.3724616999971,None,760.3724616999971,760.3724616999971,761.1730368199526,None,,,,21003,0002,2022_Mar_01_1533,localizer,2021.1.3,59.61408228093505,
block,faces,faces047.bmp,,,,,0,190,190,190,,,,,,,,,,,,,,,,,,,,,,,,,,,,,,,,,,,,,,,,,,None,,761.1730368199526,None,761.1730368199526,None,2022-03-01-15:46:22.351078,761.1791977999965,761.4872396000428,761.1791977999965,761.1791977999965,None,761.1791977999965,761.1791977999965,761.9891777199693,None,,,,21003,0002,2022_Mar_01_1533,localizer,2021.1.3,59.61408228093505,
block,faces,faces035.bmp,,,,,0,191,191,191,,,,,,,,,,,,,,,,,,,,,,,,,,,,,,,,,,,,,,,,,,None,,761.9891777199693,None,761.9891777199693,None,2022-03-01-15:46:23.165082,762.0058867000043,762.3208640000084,762.0058867000043,None,None,762.0058867000043,None,762.8040401200299,None,,,,21003,0002,2022_Mar_01_1533,localizer,2021.1.3,59.61408228093505,
block,faces,faces051.bmp,,,,,0,192,192,192,,,,,,,,,,,,,,,,,,,,,,,,,,,,,,,,,,,,,,,,,,None,,762.8040401200299,None,762.8040401200299,None,2022-03-01-15:46:23.975957,762.8160342000192,763.1205484999809,762.8160342000192,None,None,762.8160342000192,None,763.6207479199395,None,,,,21003,0002,2022_Mar_01_1533,localizer,2021.1.3,59.61408228093505,
block,faces,faces086.bmp,,,,,0,193,193,193,,,,,,,,,,,,,,,,,,,,,,,,,,,,,,,,,,,,,,,,,,None,,763.6207479199395,None,763.6207479199395,None,2022-03-01-15:46:24.792705,763.6213978000451,763.9368162000319,763.6213978000451,None,None,763.6213978000451,None,764.4204523199471,None,,,,21003,0002,2022_Mar_01_1533,localizer,2021.1.3,59.61408228093505,
block,faces,faces078.bmp,,,,,0,194,194,194,,,,,,,,,,,,,,,,,,,,,,,,,,,,,,,,,,,,,,,,,,None,,764.4204523199471,None,764.4204523199471,None,2022-03-01-15:46:25.593425,764.4213176999474,764.7207211999921,764.4213176999474,764.4213176999474,None,764.4213176999474,764.4213176999474,765.2208546200302,None,,,,21003,0002,2022_Mar_01_1533,localizer,2021.1.3,59.61408228093505,
block,faces,faces007.bmp,,,,,0,195,195,195,,,,,,,,,,,,,,,,,,,,,,,,,,,,,,,,,,,,,,,,,,None,,765.2208546200302,None,765.2208546200302,None,2022-03-01-15:46:26.394833,765.2332284000004,765.5367642999627,765.2332284000004,765.2332284000004,None,765.2332284000004,765.2332284000004,766.0374418199528,None,,,,21003,0002,2022_Mar_01_1533,localizer,2021.1.3,59.61408228093505,
block,faces,faces014.bmp,,,,,0,196,196,196,,,,,,,,,,,,,,,,,,,,,,,,,,,,,,,,,,,,,,,,,,None,,766.0374418199528,None,766.0374418199528,None,2022-03-01-15:46:27.209491,766.0473709999351,766.3541794000193,766.0473709999351,None,None,766.0473709999351,None,766.8540835199412,None,,,,21003,0002,2022_Mar_01_1533,localizer,2021.1.3,59.61408228093505,
block_end,faces,faces018.bmp,,,,,0,197,197,197,,,,,,,,,,,,,,,,,,,,,,,,,,,,,,,,,,,,,,,,,,None,,766.8540835199412,None,766.8540835199412,None,2022-03-01-15:46:28.026175,766.8546868000412,767.154056099942,766.8546868000412,None,None,766.8546868000412,None,767.6540580200265,None,,,,21003,0002,2022_Mar_01_1533,localizer,2021.1.3,59.61408228093505,
block_start,scrambled,scrambled033.bmp,,,,,0,198,198,198,,,,,,,,,,,,,,,,,,,,,,,,,,,,,,,,,,,,,,,,,,t,1.8403462999267504,767.6538513000123,None,767.6538513000123,None,2022-03-01-15:46:30.685271,769.5149443999398,769.8205739000114,769.5149443999398,None,None,769.5149443999398,None,770.3226635200438,None,,,,21003,0002,2022_Mar_01_1533,localizer,2021.1.3,59.61408228093505,
block,scrambled,scrambled061.bmp,,,,,0,199,199,199,,,,,,,,,,,,,,,,,,,,,,,,,,,,,,,,,,,,,,,,,,None,,770.3226635200438,None,770.3226635200438,None,2022-03-01-15:46:31.498722,770.3279542999808,770.636810899945,770.3279542999808,None,None,770.3279542999808,None,771.1370272200322,None,,,,21003,0002,2022_Mar_01_1533,localizer,2021.1.3,59.61408228093505,
block,scrambled,scrambled057.bmp,,,,,0,200,200,200,,,,,,,,,,,,,,,,,,,,,,,,,,,,,,,,,,,,,,,,,,None,,771.1370272200322,None,771.1370272200322,None,2022-03-01-15:46:32.308123,771.141289299936,771.4538866999792,771.141289299936,None,None,771.141289299936,None,771.9542493200163,None,,,,21003,0002,2022_Mar_01_1533,localizer,2021.1.3,59.61408228093505,
block,scrambled,scrambled012.bmp,,,,,0,201,201,201,,,,,,,,,,,,,,,,,,,,,,,,,,,,,,,,,,,,,,,,,,None,,771.9542493200163,None,771.9542493200163,None,2022-03-01-15:46:33.126533,771.9546010999475,772.2538356999867,771.9546010999475,None,None,771.9546010999475,None,772.7541415199405,None,,,,21003,0002,2022_Mar_01_1533,localizer,2021.1.3,59.61408228093505,
block,scrambled,scrambled013.bmp,,,,,0,202,202,202,,,,,,,,,,,,,,,,,,,,,,,,,,,,,,,,,,,,,,,,,,None,,772.7541415199405,None,772.7541415199405,None,2022-03-01-15:46:33.928279,772.7553985000122,773.0549967000261,772.7553985000122,772.7553985000122,None,772.7553985000122,772.7553985000122,773.5604373199633,None,,,,21003,0002,2022_Mar_01_1533,localizer,2021.1.3,59.61408228093505,
block,scrambled,scrambled062.bmp,,,,,0,203,203,203,,,,,,,,,,,,,,,,,,,,,,,,,,,,,,,,,,,,,,,,,,None,,773.5604373199633,None,773.5604373199633,None,2022-03-01-15:46:34.741558,773.5765219000168,773.8872749999864,773.5765219000168,773.5765219000168,None,773.5765219000168,773.5765219000168,774.3874211200048,None,,,,21003,0002,2022_Mar_01_1533,localizer,2021.1.3,59.61408228093505,
block,scrambled,scrambled068.bmp,,,,,0,204,204,204,,,,,,,,,,,,,,,,,,,,,,,,,,,,,,,,,,,,,,,,,,None,,774.3874211200048,None,774.3874211200048,None,2022-03-01-15:46:35.559561,774.3880320000462,774.6870281000156,774.3880320000462,None,None,774.3880320000462,None,775.1885187200271,None,,,,21003,0002,2022_Mar_01_1533,localizer,2021.1.3,59.61408228093505,
block,scrambled,scrambled050.bmp,,,,,0,205,205,205,,,,,,,,,,,,,,,,,,,,,,,,,,,,,,,,,,,,,,,,,,None,,775.1885187200271,None,775.1885187200271,None,2022-03-01-15:46:36.364846,775.2027016000357,775.5036443000427,775.2027016000357,775.2027016000357,None,775.2027016000357,775.2027016000357,776.005078519974,None,,,,21003,0002,2022_Mar_01_1533,localizer,2021.1.3,59.61408228093505,
block,scrambled,scrambled085.bmp,,,,,0,206,206,206,,,,,,,,,,,,,,,,,,,,,,,,,,,,,,,,,,,,,,,,,,None,,776.005078519974,None,776.005078519974,None,2022-03-01-15:46:37.178213,776.0068926999811,776.3206413999433,776.0068926999811,None,None,776.0068926999811,None,776.8210002199514,None,,,,21003,0002,2022_Mar_01_1533,localizer,2021.1.3,59.61408228093505,
block,scrambled,scrambled048.bmp,,,,,0,207,207,207,,,,,,,,,,,,,,,,,,,,,,,,,,,,,,,,,,,,,,,,,,None,,776.8210002199514,None,776.8210002199514,None,2022-03-01-15:46:37.993180,776.831934900023,777.1373135000467,776.831934900023,None,None,776.831934900023,None,777.6374533200171,None,,,,21003,0002,2022_Mar_01_1533,localizer,2021.1.3,59.61408228093505,
block,scrambled,scrambled064.bmp,,,,,0,208,208,208,,,,,,,,,,,,,,,,,,,,,,,,,,,,,,,,,,,,,,,,,,None,,777.6374533200171,None,777.6374533200171,None,2022-03-01-15:46:38.809694,777.6379582999507,777.9383471000474,777.6379582999507,None,None,777.6379582999507,None,778.4377351199976,None,,,,21003,0002,2022_Mar_01_1533,localizer,2021.1.3,59.61408228093505,
block,scrambled,scrambled027.bmp,,,,,0,209,209,209,,,,,,,,,,,,,,,,,,,,,,,,,,,,,,,,,,,,,,,,,,None,,778.4377351199976,None,778.4377351199976,None,2022-03-01-15:46:39.612129,778.4394257999957,778.738382200012,778.4394257999957,778.4394257999957,None,778.4394257999957,778.4394257999957,779.2384878199548,None,,,,21003,0002,2022_Mar_01_1533,localizer,2021.1.3,59.61408228093505,
block,scrambled,scrambled036.bmp,,,,,0,210,210,210,,,,,,,,,,,,,,,,,,,,,,,,,,,,,,,,,,,,,,,,,,None,,779.2384878199548,None,779.2384878199548,None,2022-03-01-15:46:40.412581,779.2439641000237,779.5532822000096,779.2439641000237,779.2439641000237,None,779.2439641000237,779.2439641000237,780.0542909199605,None,,,,21003,0002,2022_Mar_01_1533,localizer,2021.1.3,59.61408228093505,
block,scrambled,scrambled088.bmp,,,,,0,211,211,211,,,,,,,,,,,,,,,,,,,,,,,,,,,,,,,,,,,,,,,,,,None,,780.0542909199605,None,780.0542909199605,None,2022-03-01-15:46:41.226529,780.0547853000462,780.3537788999965,780.0547853000462,None,None,780.0547853000462,None,780.8702998200199,None,,,,21003,0002,2022_Mar_01_1533,localizer,2021.1.3,59.61408228093505,
block_end,scrambled,scrambled053.bmp,,,,,0,212,212,212,,,,,,,,,,,,,,,,,,,,,,,,,,,,,,,,,,,,,,,,,,None,,780.8702998200199,None,780.8702998200199,None,2022-03-01-15:46:42.041560,780.8713858999545,781.1707698999671,780.8713858999545,None,None,780.8713858999545,None,781.6707161199768,None,,,,21003,0002,2022_Mar_01_1533,localizer,2021.1.3,59.61408228093505,
null_block,null_block,null_block.bmp,,,,,0,213,213,213,,,,,,,,,,,,,,,,,,,,,,,,,,,,,,,,,,,,,,,,,,t,1.8235310000600293,781.6704491999699,None,781.6704491999699,None,2022-03-01-15:46:44.692591,783.5210967199412,None,783.5210967199412,None,None,783.5210967199412,None,783.5238361000083,None,,,,21003,0002,2022_Mar_01_1533,localizer,2021.1.3,59.61408228093505,
block_start,scenes,scenes081.bmp,,,,,0,214,214,214,,,,,,,,,,,,,,,,,,,,,,,,,,,,,,,,,,,,,,,,,,t,1.9560833999421448,795.5378109000158,None,795.5378109000158,None,2022-03-01-15:46:58.695566,797.5318028000183,797.837406000006,797.5318028000183,None,None,797.5318028000183,None,798.3268629200059,None,,,,21003,0002,2022_Mar_01_1533,localizer,2021.1.3,59.61408228093505,
block,scenes,scenes081.bmp,,,,,0,215,215,215,,,,,,,,,,,,,,,,,,,,,,,,,,,,,,,,,,,,,,,,,,None,,798.3268629200059,None,798.3268629200059,None,2022-03-01-15:46:59.506287,798.3352828000207,798.6368833000306,798.3352828000207,None,y,798.3352828000207,None,799.1376445199596,None,0.5182385999942198,,,21003,0002,2022_Mar_01_1533,localizer,2021.1.3,59.61408228093505,
block,scenes,scenes054.bmp,,,,,0,216,216,216,,,,,,,,,,,,,,,,,,,,,,,,,,,,,,,,,,,,,,,,,,None,,799.1376445199596,None,799.1376445199596,None,2022-03-01-15:47:00.310398,799.1383385999361,799.4377105999738,799.1383385999361,None,None,799.1383385999361,None,799.9405699200463,None,,,,21003,0002,2022_Mar_01_1533,localizer,2021.1.3,59.61408228093505,
block,scenes,scenes065.bmp,,,,,0,217,217,217,,,,,,,,,,,,,,,,,,,,,,,,,,,,,,,,,,,,,,,,,,None,,799.9405699200463,None,799.9405699200463,None,2022-03-01-15:47:01.119238,799.9582757999888,800.270834099967,799.9582757999888,799.9582757999888,None,799.9582757999888,799.9582757999888,800.7562047199347,None,,,,21003,0002,2022_Mar_01_1533,localizer,2021.1.3,59.61408228093505,
block,scenes,scenes008.bmp,,,,,0,218,218,218,,,,,,,,,,,,,,,,,,,,,,,,,,,,,,,,,,,,,,,,,,None,,800.7562047199347,None,800.7562047199347,None,2022-03-01-15:47:01.930491,800.7646440999815,801.0710285999812,800.7646440999815,None,None,800.7646440999815,None,801.5772235199577,None,,,,21003,0002,2022_Mar_01_1533,localizer,2021.1.3,59.61408228093505,
block,scenes,scenes058.bmp,,,,,0,219,219,219,,,,,,,,,,,,,,,,,,,,,,,,,,,,,,,,,,,,,,,,,,None,,801.5772235199577,None,801.5772235199577,None,2022-03-01-15:47:02.757797,801.5830690000439,801.8873864000197,801.5830690000439,None,None,801.5830690000439,None,802.3875484200428,None,,,,21003,0002,2022_Mar_01_1533,localizer,2021.1.3,59.61408228093505,
block,scenes,scenes031.bmp,,,,,0,220,220,220,,,,,,,,,,,,,,,,,,,,,,,,,,,,,,,,,,,,,,,,,,None,,802.3875484200428,None,802.3875484200428,None,2022-03-01-15:47:03.560165,802.3977088000393,802.7042005000403,802.3977088000393,None,None,802.3977088000393,None,803.2037214199547,None,,,,21003,0002,2022_Mar_01_1533,localizer,2021.1.3,59.61408228093505,
block,scenes,scenes060.bmp,,,,,0,221,221,221,,,,,,,,,,,,,,,,,,,,,,,,,,,,,,,,,,,,,,,,,,None,,803.2037214199547,None,803.2037214199547,None,2022-03-01-15:47:04.375363,803.2053131000139,803.5207699999446,803.2053131000139,None,None,803.2053131000139,None,804.0045446199831,None,,,,21003,0002,2022_Mar_01_1533,localizer,2021.1.3,59.61408228093505,
block,scenes,scenes013.bmp,,,,,0,222,222,222,,,,,,,,,,,,,,,,,,,,,,,,,,,,,,,,,,,,,,,,,,None,,804.0045446199831,None,804.0045446199831,None,2022-03-01-15:47:05.179180,804.0072098999517,804.3270933999447,804.0072098999517,804.0072098999517,None,804.0072098999517,804.0072098999517,804.8213889200008,None,,,,21003,0002,2022_Mar_01_1533,localizer,2021.1.3,59.61408228093505,
block,scenes,scenes043.bmp,,,,,0,223,223,223,,,,,,,,,,,,,,,,,,,,,,,,,,,,,,,,,,,,,,,,,,None,,804.8213889200008,None,804.8213889200008,None,2022-03-01-15:47:05.995236,804.8330654000165,805.1436765999533,804.8330654000165,None,None,804.8330654000165,None,805.6385889200494,None,,,,21003,0002,2022_Mar_01_1533,localizer,2021.1.3,59.61408228093505,
block,scenes,scenes078.bmp,,,,,0,224,224,224,,,,,,,,,,,,,,,,,,,,,,,,,,,,,,,,,,,,,,,,,,None,,805.6385889200494,None,805.6385889200494,None,2022-03-01-15:47:06.812896,805.6413934000302,805.9552713000448,805.6413934000302,None,None,805.6413934000302,None,806.4543039199664,None,,,,21003,0002,2022_Mar_01_1533,localizer,2021.1.3,59.61408228093505,
block,scenes,scenes009.bmp,,,,,0,225,225,225,,,,,,,,,,,,,,,,,,,,,,,,,,,,,,,,,,,,,,,,,,None,,806.4543039199664,None,806.4543039199664,None,2022-03-01-15:47:07.627201,806.454945000005,806.7546867999481,806.454945000005,None,None,806.454945000005,None,807.2548216199968,None,,,,21003,0002,2022_Mar_01_1533,localizer,2021.1.3,59.61408228093505,
block,scenes,scenes077.bmp,,,,,0,226,226,226,,,,,,,,,,,,,,,,,,,,,,,,,,,,,,,,,,,,,,,,,,None,,807.2548216199968,None,807.2548216199968,None,2022-03-01-15:47:08.430668,807.2577248000307,807.5703857999761,807.2577248000307,807.2577248000307,None,807.2577248000307,807.2577248000307,808.0711878199829,None,,,,21003,0002,2022_Mar_01_1533,localizer,2021.1.3,59.61408228093505,
block,scenes,scenes086.bmp,,,,,0,227,227,227,,,,,,,,,,,,,,,,,,,,,,,,,,,,,,,,,,,,,,,,,,None,,808.0711878199829,None,808.0711878199829,None,2022-03-01-15:47:09.243948,808.0832336000167,808.3877424999373,808.0832336000167,None,None,808.0832336000167,None,808.8876514200122,None,,,,21003,0002,2022_Mar_01_1533,localizer,2021.1.3,59.61408228093505,
block_end,scenes,scenes027.bmp,,,,,0,228,228,228,,,,,,,,,,,,,,,,,,,,,,,,,,,,,,,,,,,,,,,,,,None,,808.8876514200122,None,808.8876514200122,None,2022-03-01-15:47:10.060580,808.8883053000318,809.1875975000439,808.8883053000318,None,None,808.8883053000318,None,809.7038463199744,None,,,,21003,0002,2022_Mar_01_1533,localizer,2021.1.3,59.61408228093505,
block_start,objects,objects065.bmp,,,,,0,229,229,229,,,,,,,,,,,,,,,,,,,,,,,,,,,,,,,,,,,,,,,,,,t,1.7900245999917388,809.7038863999769,None,809.7038863999769,None,2022-03-01-15:47:12.694431,811.5321761999512,811.8376964000054,811.5321761999512,None,None,811.5321761999512,None,812.3376602200326,None,,,,21003,0002,2022_Mar_01_1533,localizer,2021.1.3,59.61408228093505,
block,objects,objects023.bmp,,,,,0,230,230,230,,,,,,,,,,,,,,,,,,,,,,,,,,,,,,,,,,,,,,,,,,None,,812.3376602200326,None,812.3376602200326,None,2022-03-01-15:47:13.510643,812.3383657999802,812.6543662999757,812.3383657999802,None,None,812.3383657999802,None,813.1386385199614,None,,,,21003,0002,2022_Mar_01_1533,localizer,2021.1.3,59.61408228093505,
block,objects,objects025.bmp,,,,,0,231,231,231,,,,,,,,,,,,,,,,,,,,,,,,,,,,,,,,,,,,,,,,,,None,,813.1386385199614,None,813.1386385199614,None,2022-03-01-15:47:14.314470,813.1551452999702,813.4552427999442,813.1551452999702,813.1551452999702,None,813.1551452999702,813.1551452999702,813.9552979199682,None,,,,21003,0002,2022_Mar_01_1533,localizer,2021.1.3,59.61408228093505,
block,objects,objects087.bmp,,,,,0,232,232,232,,,,,,,,,,,,,,,,,,,,,,,,,,,,,,,,,,,,,,,,,,None,,813.9552979199682,None,813.9552979199682,None,2022-03-01-15:47:15.129904,813.9579644999467,814.2713887999998,813.9579644999467,None,None,813.9579644999467,None,814.7708235199564,None,,,,21003,0002,2022_Mar_01_1533,localizer,2021.1.3,59.61408228093505,
block,objects,objects078.bmp,,,,,0,233,233,233,,,,,,,,,,,,,,,,,,,,,,,,,,,,,,,,,,,,,,,,,,None,,814.7708235199564,None,814.7708235199564,None,2022-03-01-15:47:15.943670,814.7717965999618,815.0874523000093,814.7717965999618,None,None,814.7717965999618,None,815.5709799200297,None,,,,21003,0002,2022_Mar_01_1533,localizer,2021.1.3,59.61408228093505,
block,objects,objects041.bmp,,,,,0,234,234,234,,,,,,,,,,,,,,,,,,,,,,,,,,,,,,,,,,,,,,,,,,None,,815.5709799200297,None,815.5709799200297,None,2022-03-01-15:47:16.746029,815.5829165000468,815.8939582000021,815.5829165000468,815.5829165000468,None,815.5829165000468,815.5829165000468,816.3883324199589,None,,,,21003,0002,2022_Mar_01_1533,localizer,2021.1.3,59.61408228093505,
block,objects,objects024.bmp,,,,,0,235,235,235,,,,,,,,,,,,,,,,,,,,,,,,,,,,,,,,,,,,,,,,,,None,,816.3883324199589,None,816.3883324199589,None,2022-03-01-15:47:17.562178,816.3888406000333,816.7038041000487,816.3888406000333,None,None,816.3888406000333,None,817.1884911200498,None,,,,21003,0002,2022_Mar_01_1533,localizer,2021.1.3,59.61408228093505,
block,objects,objects016.bmp,,,,,0,236,236,236,,,,,,,,,,,,,,,,,,,,,,,,,,,,,,,,,,,,,,,,,,None,,817.1884911200498,None,817.1884911200498,None,2022-03-01-15:47:18.372103,817.2007704999996,817.5052620000206,817.2007704999996,817.2007704999996,None,817.2007704999996,817.2007704999996,818.0056556199445,None,,,,21003,0002,2022_Mar_01_1533,localizer,2021.1.3,59.61408228093505,
block,objects,objects035.bmp,,,,,0,237,237,237,,,,,,,,,,,,,,,,,,,,,,,,,,,,,,,,,,,,,,,,,,None,,818.0056556199445,None,818.0056556199445,None,2022-03-01-15:47:19.180518,818.0075867000269,818.3208166999975,818.0075867000269,None,None,818.0075867000269,None,818.821530620032,None,,,,21003,0002,2022_Mar_01_1533,localizer,2021.1.3,59.61408228093505,
block,objects,objects059.bmp,,,,,0,238,238,238,,,,,,,,,,,,,,,,,,,,,,,,,,,,,,,,,,,,,,,,,,None,,818.821530620032,None,818.821530620032,None,2022-03-01-15:47:19.995417,818.8221852999413,819.121492199949,818.8221852999413,None,None,818.8221852999413,None,819.6214236199623,None,,,,21003,0002,2022_Mar_01_1533,localizer,2021.1.3,59.61408228093505,
block,objects,objects011.bmp,,,,,0,239,239,239,,,,,,,,,,,,,,,,,,,,,,,,,,,,,,,,,,,,,,,,,,None,,819.6214236199623,None,819.6214236199623,None,2022-03-01-15:47:20.796320,819.6217822999461,819.9369119999465,819.6217822999461,819.6217822999461,None,819.6217822999461,819.6217822999461,820.4214587200433,None,,,,21003,0002,2022_Mar_01_1533,localizer,2021.1.3,59.61408228093505,
block,objects,objects052.bmp,,,,,0,240,240,240,,,,,,,,,,,,,,,,,,,,,,,,,,,,,,,,,,,,,,,,,,None,,820.4214587200433,None,820.4214587200433,None,2022-03-01-15:47:21.597462,820.4242405999685,820.7371126000071,820.4242405999685,820.4242405999685,None,820.4242405999685,820.4242405999685,821.2373761199881,None,,,,21003,0002,2022_Mar_01_1533,localizer,2021.1.3,59.61408228093505,
block,objects,objects079.bmp,,,,,0,241,241,241,,,,,,,,,,,,,,,,,,,,,,,,,,,,,,,,,,,,,,,,,,None,,821.2373761199881,None,821.2373761199881,None,2022-03-01-15:47:22.410316,821.2382558999816,821.537611000007,821.2382558999816,None,None,821.2382558999816,None,822.0540442199447,None,,,,21003,0002,2022_Mar_01_1533,localizer,2021.1.3,59.61408228093505,
block,objects,objects068.bmp,,,,,0,242,242,242,,,,,,,,,,,,,,,,,,,,,,,,,,,,,,,,,,,,,,,,,,None,,822.0540442199447,None,822.0540442199447,None,2022-03-01-15:47:23.225999,822.0549167999998,822.3707794999937,822.0549167999998,None,None,822.0549167999998,None,822.8542166200234,None,,,,21003,0002,2022_Mar_01_1533,localizer,2021.1.3,59.61408228093505,
block_end,objects,objects051.bmp,,,,,0,243,243,243,,,,,,,,,,,,,,,,,,,,,,,,,,,,,,,,,,,,,,,,,,None,,822.8542166200234,None,822.8542166200234,None,2022-03-01-15:47:24.029418,822.8551833999809,823.1707446000073,822.8551833999809,822.8551833999809,None,822.8551833999809,822.8551833999809,823.6707846200327,None,,,,21003,0002,2022_Mar_01_1533,localizer,2021.1.3,59.61408228093505,
,,,,,,,,,,,,,,,,,,,,,,,,,,,,,,,,,,,,,,,,,,,,,,,,,,,,,,,,,,,,,,,,,,,,,823.6705200000433,None,,,,,,,
