block_type,condition,img_name,Button.thisRepN,Button.thisTrialN,Button.thisN,Button.thisIndex,trials.thisRepN,trials.thisTrialN,trials.thisN,trials.thisIndex,Ready_experimenter_text.started,Ready_experimenter_text.stopped,Ready_experimenter_resp.keys,Ready_experimenter_resp.rt,Ready_experimenter_resp.started,Ready_experimenter_resp.stopped,Alignment_background.started,Alignment_background.stopped,Alignment_image.started,Alignment_image.stopped,Alignment_resp.keys,Alignment_resp.rt,Alignment_resp.started,Alignment_resp.stopped,Button_text.started,Button_text.stopped,Index_text.started,Index_text.stopped,Index_resp.keys,Index_resp.rt,Index_resp.started,Index_resp.stopped,Middle_text.started,Middle_text.stopped,Middle_resp.keys,Middle_resp.rt,Middle_resp.started,Middle_resp.stopped,Repeat_text.started,Repeat_text.stopped,Repeat_resp.keys,Repeat_resp.corr,Repeat_resp.rt,Repeat_resp.started,Repeat_resp.stopped,instruction_text.started,instruction_text.stopped,key_resp.keys,key_resp.rt,key_resp.started,key_resp.stopped,scanner_t.keys,scanner_t.rt,scanner_t.started,scanner_t.stopped,fixation_wait_for_t.started,fixation_wait_for_t.stopped,real_timestamp_trial_start,image.started,image.stopped,fixation.started,fixation.stopped,repeat_response.keys,repeat_response.started,repeat_response.stopped,fixation_null.started,fixation_null.stopped,repeat_response.rt,end_text.started,end_text.stopped,participant,run,date,expName,psychopyVersion,frameRate,
,,,,,,,,,,,12.756625399924815,None,return,339.3498575000558,12.756625399924815,None,,,,,,,,,,,,,,,,,,,,,,,,,,,,,,,,,,,,,,,,,,,,,,,,,,,,,,,11009,0002,2022_Feb_21_1449,localizer,2021.1.3,60.737031687669905,
,,,,,,,,,,,,,,,,,352.15813779993914,None,352.15813779993914,None,return,1.4522051000967622,352.15813779993914,None,,,,,,,,,,,,,,,,,,,,,,,,,,,,,,,,,,,,,,,,,,,,,,,11009,0002,2022_Feb_21_1449,localizer,2021.1.3,60.737031687669905,
,,,0,0,0,0,,,,,,,,,,,,,,,,,,,353.634416700108,None,354.63975599990226,None,y,2.0807348000817,354.63975599990226,None,356.75121770007536,None,b,0.7471931001637131,356.75121770007536,None,357.5184776999522,None,n,0,20.984353199834004,357.5184776999522,None,,,,,,,,,,,,,,,,,,,,,,,,,,11009,0002,2022_Feb_21_1449,localizer,2021.1.3,60.737031687669905,
,,,,,,,,,,,,,,,,,,,,,,,,,,,,,,,,,,,,,,,,,,,,,,378.51916270004585,None,y,4.885329300072044,378.51916270004585,None,,,,,,,,,,,,,,,,,,,,11009,0002,2022_Feb_21_1449,localizer,2021.1.3,60.737031687669905,
block_start,objects,objects001.bmp,,,,,0,0,0,0,,,,,,,,,,,,,,,,,,,,,,,,,,,,,,,,,,,,,,,,,,t,15.964427799917758,383.47034700005315,None,383.47034700005315,None,2022-02-21-14:55:46.195869,399.4570899999235,399.76926429988816,399.4570899999235,None,None,399.4570899999235,None,400.2694430098869,None,,,,11009,0002,2022_Feb_21_1449,localizer,2021.1.3,60.737031687669905,
block,objects,objects066.bmp,,,,,0,1,1,1,,,,,,,,,,,,,,,,,,,,,,,,,,,,,,,,,,,,,,,,,,None,,400.2694430098869,None,400.2694430098869,None,2022-02-21-14:55:47.015684,400.27602489991114,400.5858783000149,400.27602489991114,None,None,400.27602489991114,None,401.08520601005296,None,,,,11009,0002,2022_Feb_21_1449,localizer,2021.1.3,60.737031687669905,
block,objects,objects064.bmp,,,,,0,2,2,2,,,,,,,,,,,,,,,,,,,,,,,,,,,,,,,,,,,,,,,,,,None,,401.08520601005296,None,401.08520601005296,None,2022-02-21-14:55:47.826608,401.09588470007293,401.40141530008987,401.09588470007293,None,None,401.09588470007293,None,401.90170930991883,None,,,,11009,0002,2022_Feb_21_1449,localizer,2021.1.3,60.737031687669905,
block,objects,objects081.bmp,,,,,0,3,3,3,,,,,,,,,,,,,,,,,,,,,,,,,,,,,,,,,,,,,,,,,,None,,401.90170930991883,None,401.90170930991883,None,2022-02-21-14:55:48.642907,401.91139129991643,402.21806970005855,401.91139129991643,None,None,401.91139129991643,None,402.71836180998946,None,,,,11009,0002,2022_Feb_21_1449,localizer,2021.1.3,60.737031687669905,
block,objects,objects028.bmp,,,,,0,4,4,4,,,,,,,,,,,,,,,,,,,,,,,,,,,,,,,,,,,,,,,,,,None,,402.71836180998946,None,402.71836180998946,None,2022-02-21-14:55:49.460014,402.7294723999221,403.0351863000542,402.7294723999221,None,None,402.7294723999221,None,403.5355896099005,None,,,,11009,0002,2022_Feb_21_1449,localizer,2021.1.3,60.737031687669905,
block,objects,objects034.bmp,,,,,0,5,5,5,,,,,,,,,,,,,,,,,,,,,,,,,,,,,,,,,,,,,,,,,,None,,403.5355896099005,None,403.5355896099005,None,2022-02-21-14:55:50.277775,403.54569009994157,403.8511510998942,403.54569009994157,None,None,403.54569009994157,None,404.3517116100062,None,,,,11009,0002,2022_Feb_21_1449,localizer,2021.1.3,60.737031687669905,
block,objects,objects034.bmp,,,,,0,6,6,6,,,,,,,,,,,,,,,,,,,,,,,,,,,,,,,,,,,,,,,,,,None,,404.3517116100062,None,404.3517116100062,None,2022-02-21-14:55:51.093115,404.3524625999853,404.66802139999345,404.3524625999853,None,y,404.3524625999853,None,405.152756709978,None,0.5068081999197602,,,11009,0002,2022_Feb_21_1449,localizer,2021.1.3,60.737031687669905,
block,objects,objects002.bmp,,,,,0,7,7,7,,,,,,,,,,,,,,,,,,,,,,,,,,,,,,,,,,,,,,,,,,None,,405.152756709978,None,405.152756709978,None,2022-02-21-14:55:51.899062,405.1696071999613,405.49193169991486,405.1696071999613,405.1696071999613,None,405.1696071999613,405.1696071999613,405.9687133099884,None,,,,11009,0002,2022_Feb_21_1449,localizer,2021.1.3,60.737031687669905,
block,objects,objects073.bmp,,,,,0,8,8,8,,,,,,,,,,,,,,,,,,,,,,,,,,,,,,,,,,,,,,,,,,None,,405.9687133099884,None,405.9687133099884,None,2022-02-21-14:55:52.709922,405.96931149996817,406.26845169998705,405.96931149996817,None,None,405.96931149996817,None,406.76868831007744,None,,,,11009,0002,2022_Feb_21_1449,localizer,2021.1.3,60.737031687669905,
block,objects,objects015.bmp,,,,,0,9,9,9,,,,,,,,,,,,,,,,,,,,,,,,,,,,,,,,,,,,,,,,,,None,,406.76868831007744,None,406.76868831007744,None,2022-02-21-14:55:53.512753,406.7713289000094,407.0844707998913,406.7713289000094,406.7713289000094,None,406.7713289000094,406.7713289000094,407.57036990989,None,,,,11009,0002,2022_Feb_21_1449,localizer,2021.1.3,60.737031687669905,
block,objects,objects033.bmp,,,,,0,10,10,10,,,,,,,,,,,,,,,,,,,,,,,,,,,,,,,,,,,,,,,,,,None,,407.57036990989,None,407.57036990989,None,2022-02-21-14:55:54.317590,407.5884189000353,407.90087269991636,407.5884189000353,407.5884189000353,None,407.5884189000353,407.5884189000353,408.385447410075,None,,,,11009,0002,2022_Feb_21_1449,localizer,2021.1.3,60.737031687669905,
block,objects,objects055.bmp,,,,,0,11,11,11,,,,,,,,,,,,,,,,,,,,,,,,,,,,,,,,,,,,,,,,,,None,,408.385447410075,None,408.385447410075,None,2022-02-21-14:55:55.128621,408.3973240000196,408.7019537000451,408.3973240000196,None,None,408.3973240000196,None,409.20177571000534,None,,,,11009,0002,2022_Feb_21_1449,localizer,2021.1.3,60.737031687669905,
block,objects,objects026.bmp,,,,,0,12,12,12,,,,,,,,,,,,,,,,,,,,,,,,,,,,,,,,,,,,,,,,,,None,,409.20177571000534,None,409.20177571000534,None,2022-02-21-14:55:55.943090,409.2074561000336,409.5182854998857,409.2074561000336,None,None,409.2074561000336,None,410.01825771005826,None,,,,11009,0002,2022_Feb_21_1449,localizer,2021.1.3,60.737031687669905,
block,objects,objects032.bmp,,,,,0,13,13,13,,,,,,,,,,,,,,,,,,,,,,,,,,,,,,,,,,,,,,,,,,None,,410.01825771005826,None,410.01825771005826,None,2022-02-21-14:55:56.759699,410.01901599997655,410.3346818999853,410.01901599997655,None,None,410.01901599997655,None,410.8182450098917,None,,,,11009,0002,2022_Feb_21_1449,localizer,2021.1.3,60.737031687669905,
block_end,objects,objects059.bmp,,,,,0,14,14,14,,,,,,,,,,,,,,,,,,,,,,,,,,,,,,,,,,,,,,,,,,None,,410.8182450098917,None,410.8182450098917,None,2022-02-21-14:55:57.560448,410.81903070001863,411.1182603999041,410.81903070001863,410.81903070001863,None,410.81903070001863,410.81903070001863,411.61859590993265,None,,,,11009,0002,2022_Feb_21_1449,localizer,2021.1.3,60.737031687669905,
null_block,null_block,null_block.bmp,,,,,0,15,15,15,,,,,,,,,,,,,,,,,,,,,,,,,,,,,,,,,,,,,,,,,,t,1.8159413000103086,411.61856000008993,None,411.61856000008993,None,2022-02-21-14:56:00.192221,413.45190651007,None,413.45190651007,None,None,413.45190651007,None,413.4544249998871,None,,,,11009,0002,2022_Feb_21_1449,localizer,2021.1.3,60.737031687669905,
block_start,scrambled,scrambled019.bmp,,,,,0,16,16,16,,,,,,,,,,,,,,,,,,,,,,,,,,,,,,,,,,,,,,,,,,t,1.9658961000386626,425.4686141000129,None,425.4686141000129,None,2022-02-21-14:56:14.194101,427.46235890011303,427.7684895999264,427.46235890011303,None,None,427.46235890011303,None,428.26845961008223,None,,,,11009,0002,2022_Feb_21_1449,localizer,2021.1.3,60.737031687669905,
block,scrambled,scrambled018.bmp,,,,,0,17,17,17,,,,,,,,,,,,,,,,,,,,,,,,,,,,,,,,,,,,,,,,,,None,,428.26845961008223,None,428.26845961008223,None,2022-02-21-14:56:15.009723,428.26919630006887,428.5684972999152,428.26919630006887,None,None,428.26919630006887,None,429.06882141008975,None,,,,11009,0002,2022_Feb_21_1449,localizer,2021.1.3,60.737031687669905,
block,scrambled,scrambled071.bmp,,,,,0,18,18,18,,,,,,,,,,,,,,,,,,,,,,,,,,,,,,,,,,,,,,,,,,None,,429.06882141008975,None,429.06882141008975,None,2022-02-21-14:56:15.811996,429.07154830009677,429.38538310001604,429.07154830009677,429.07154830009677,None,429.07154830009677,429.07154830009677,429.88544470993804,None,,,,11009,0002,2022_Feb_21_1449,localizer,2021.1.3,60.737031687669905,
block,scrambled,scrambled051.bmp,,,,,0,19,19,19,,,,,,,,,,,,,,,,,,,,,,,,,,,,,,,,,,,,,,,,,,None,,429.88544470993804,None,429.88544470993804,None,2022-02-21-14:56:16.626643,429.88593370001763,430.18505849991925,429.88593370001763,None,None,429.88593370001763,None,430.6857821099926,None,,,,11009,0002,2022_Feb_21_1449,localizer,2021.1.3,60.737031687669905,
block,scrambled,scrambled012.bmp,,,,,0,20,20,20,,,,,,,,,,,,,,,,,,,,,,,,,,,,,,,,,,,,,,,,,,None,,430.6857821099926,None,430.6857821099926,None,2022-02-21-14:56:17.429968,430.6954338999931,431.0022795998957,430.6954338999931,430.6954338999931,None,430.6954338999931,430.6954338999931,431.5023365098983,None,,,,11009,0002,2022_Feb_21_1449,localizer,2021.1.3,60.737031687669905,
block,scrambled,scrambled053.bmp,,,,,0,21,21,21,,,,,,,,,,,,,,,,,,,,,,,,,,,,,,,,,,,,,,,,,,None,,431.5023365098983,None,431.5023365098983,None,2022-02-21-14:56:18.244523,431.5031584999524,431.8185910999309,431.5031584999524,None,None,431.5031584999524,None,432.31863750997,None,,,,11009,0002,2022_Feb_21_1449,localizer,2021.1.3,60.737031687669905,
block,scrambled,scrambled067.bmp,,,,,0,22,22,22,,,,,,,,,,,,,,,,,,,,,,,,,,,,,,,,,,,,,,,,,,None,,432.31863750997,None,432.31863750997,None,2022-02-21-14:56:19.060055,432.3286017999053,432.6359347999096,432.3286017999053,None,None,432.3286017999053,None,433.13468481008897,None,,,,11009,0002,2022_Feb_21_1449,localizer,2021.1.3,60.737031687669905,
block,scrambled,scrambled043.bmp,,,,,0,23,23,23,,,,,,,,,,,,,,,,,,,,,,,,,,,,,,,,,,,,,,,,,,None,,433.13468481008897,None,433.13468481008897,None,2022-02-21-14:56:19.874905,433.13587799994275,433.43524789996445,433.13587799994275,None,None,433.13587799994275,None,433.93568110992203,None,,,,11009,0002,2022_Feb_21_1449,localizer,2021.1.3,60.737031687669905,
block,scrambled,scrambled058.bmp,,,,,0,24,24,24,,,,,,,,,,,,,,,,,,,,,,,,,,,,,,,,,,,,,,,,,,None,,433.93568110992203,None,433.93568110992203,None,2022-02-21-14:56:20.680054,433.93881840002723,434.25169140007347,433.93881840002723,433.93881840002723,None,433.93881840002723,433.93881840002723,434.7524642100558,None,,,,11009,0002,2022_Feb_21_1449,localizer,2021.1.3,60.737031687669905,
block,scrambled,scrambled046.bmp,,,,,0,25,25,25,,,,,,,,,,,,,,,,,,,,,,,,,,,,,,,,,,,,,,,,,,None,,434.7524642100558,None,434.7524642100558,None,2022-02-21-14:56:21.494635,434.75308650010265,435.0680865000468,434.75308650010265,None,None,434.75308650010265,None,435.568496310059,None,,,,11009,0002,2022_Feb_21_1449,localizer,2021.1.3,60.737031687669905,
block,scrambled,scrambled007.bmp,,,,,0,26,26,26,,,,,,,,,,,,,,,,,,,,,,,,,,,,,,,,,,,,,,,,,,None,,435.568496310059,None,435.568496310059,None,2022-02-21-14:56:22.309690,435.569240400102,435.8685373000335,435.569240400102,None,None,435.569240400102,None,436.3693585099187,None,,,,11009,0002,2022_Feb_21_1449,localizer,2021.1.3,60.737031687669905,
block,scrambled,scrambled010.bmp,,,,,0,27,27,27,,,,,,,,,,,,,,,,,,,,,,,,,,,,,,,,,,,,,,,,,,None,,436.3693585099187,None,436.3693585099187,None,2022-02-21-14:56:23.113533,436.38060829997994,436.68510459992103,436.38060829997994,436.38060829997994,None,436.38060829997994,436.38060829997994,437.18577890996823,None,,,,11009,0002,2022_Feb_21_1449,localizer,2021.1.3,60.737031687669905,
block,scrambled,scrambled020.bmp,,,,,0,28,28,28,,,,,,,,,,,,,,,,,,,,,,,,,,,,,,,,,,,,,,,,,,None,,437.18577890996823,None,437.18577890996823,None,2022-02-21-14:56:23.927117,437.1861578000244,437.5016634000931,437.1861578000244,None,None,437.1861578000244,None,437.98520471006634,None,,,,11009,0002,2022_Feb_21_1449,localizer,2021.1.3,60.737031687669905,
block,scrambled,scrambled041.bmp,,,,,0,29,29,29,,,,,,,,,,,,,,,,,,,,,,,,,,,,,,,,,,,,,,,,,,None,,437.98520471006634,None,437.98520471006634,None,2022-02-21-14:56:24.728575,437.9868360001128,438.3018006000202,437.9868360001128,437.9868360001128,None,437.9868360001128,437.9868360001128,438.8019500099123,None,,,,11009,0002,2022_Feb_21_1449,localizer,2021.1.3,60.737031687669905,
block_end,scrambled,scrambled021.bmp,,,,,0,30,30,30,,,,,,,,,,,,,,,,,,,,,,,,,,,,,,,,,,,,,,,,,,None,,438.8019500099123,None,438.8019500099123,None,2022-02-21-14:56:25.543148,438.80264790006913,439.1016613000538,438.80264790006913,None,None,438.80264790006913,None,439.60177790992896,None,,,,11009,0002,2022_Feb_21_1449,localizer,2021.1.3,60.737031687669905,
block_start,faces,faces006.bmp,,,,,0,31,31,31,,,,,,,,,,,,,,,,,,,,,,,,,,,,,,,,,,,,,,,,,,t,1.8319685000460595,439.60241919988766,None,439.60241919988766,None,2022-02-21-14:56:28.192515,441.46215000003576,441.7677044000011,441.46215000003576,None,None,441.46215000003576,None,442.2703975100536,None,,,,11009,0002,2022_Feb_21_1449,localizer,2021.1.3,60.737031687669905,
block,faces,faces085.bmp,,,,,0,32,32,32,,,,,,,,,,,,,,,,,,,,,,,,,,,,,,,,,,,,,,,,,,None,,442.2703975100536,None,442.2703975100536,None,2022-02-21-14:56:29.011140,442.27032819995657,442.5843225000426,442.27032819995657,None,None,442.27032819995657,None,443.0743054099381,None,,,,11009,0002,2022_Feb_21_1449,localizer,2021.1.3,60.737031687669905,
block,faces,faces009.bmp,,,,,0,33,33,33,,,,,,,,,,,,,,,,,,,,,,,,,,,,,,,,,,,,,,,,,,None,,443.0743054099381,None,443.0743054099381,None,2022-02-21-14:56:29.825388,443.08603899995796,443.38570099999197,443.08603899995796,443.08603899995796,None,443.08603899995796,443.08603899995796,443.88512720996516,None,,,,11009,0002,2022_Feb_21_1449,localizer,2021.1.3,60.737031687669905,
block,faces,faces047.bmp,,,,,0,34,34,34,,,,,,,,,,,,,,,,,,,,,,,,,,,,,,,,,,,,,,,,,,None,,443.88512720996516,None,443.88512720996516,None,2022-02-21-14:56:30.626684,443.8861336999107,444.2012775000185,443.8861336999107,None,None,443.8861336999107,None,444.702072509937,None,,,,11009,0002,2022_Feb_21_1449,localizer,2021.1.3,60.737031687669905,
block,faces,faces030.bmp,,,,,0,35,35,35,,,,,,,,,,,,,,,,,,,,,,,,,,,,,,,,,,,,,,,,,,None,,444.702072509937,None,444.702072509937,None,2022-02-21-14:56:31.443463,444.70308270002715,445.0023451000452,444.70308270002715,None,None,444.70308270002715,None,445.50240430994893,None,,,,11009,0002,2022_Feb_21_1449,localizer,2021.1.3,60.737031687669905,
block,faces,faces036.bmp,,,,,0,36,36,36,,,,,,,,,,,,,,,,,,,,,,,,,,,,,,,,,,,,,,,,,,None,,445.50240430994893,None,445.50240430994893,None,2022-02-21-14:56:32.247583,445.5127510998864,445.8183635000605,445.5127510998864,445.5127510998864,None,445.5127510998864,445.5127510998864,446.3187648098916,None,,,,11009,0002,2022_Feb_21_1449,localizer,2021.1.3,60.737031687669905,
block,faces,faces081.bmp,,,,,0,37,37,37,,,,,,,,,,,,,,,,,,,,,,,,,,,,,,,,,,,,,,,,,,None,,446.3187648098916,None,446.3187648098916,None,2022-02-21-14:56:33.059960,446.3196197000798,446.61892129993066,446.3196197000798,None,None,446.3196197000798,None,447.11924740988763,None,,,,11009,0002,2022_Feb_21_1449,localizer,2021.1.3,60.737031687669905,
block,faces,faces044.bmp,,,,,0,38,38,38,,,,,,,,,,,,,,,,,,,,,,,,,,,,,,,,,,,,,,,,,,None,,447.11924740988763,None,447.11924740988763,None,2022-02-21-14:56:33.862079,447.13251590006985,447.4354073998984,447.13251590006985,447.13251590006985,None,447.13251590006985,447.13251590006985,447.9354264099617,None,,,,11009,0002,2022_Feb_21_1449,localizer,2021.1.3,60.737031687669905,
block,faces,faces050.bmp,,,,,0,39,39,39,,,,,,,,,,,,,,,,,,,,,,,,,,,,,,,,,,,,,,,,,,None,,447.9354264099617,None,447.9354264099617,None,2022-02-21-14:56:34.676790,447.94640600006096,448.25154470000416,447.94640600006096,None,None,447.94640600006096,None,448.75179781010377,None,,,,11009,0002,2022_Feb_21_1449,localizer,2021.1.3,60.737031687669905,
block,faces,faces002.bmp,,,,,0,40,40,40,,,,,,,,,,,,,,,,,,,,,,,,,,,,,,,,,,,,,,,,,,None,,448.75179781010377,None,448.75179781010377,None,2022-02-21-14:56:35.493326,448.7526493000332,449.0578757999465,448.7526493000332,None,None,448.7526493000332,None,449.5521256100852,None,,,,11009,0002,2022_Feb_21_1449,localizer,2021.1.3,60.737031687669905,
block,faces,faces005.bmp,,,,,0,41,41,41,,,,,,,,,,,,,,,,,,,,,,,,,,,,,,,,,,,,,,,,,,None,,449.5521256100852,None,449.5521256100852,None,2022-02-21-14:56:36.295337,449.5637521999888,449.86807859991677,449.5637521999888,449.5637521999888,None,449.5637521999888,449.5637521999888,450.36854290999474,None,,,,11009,0002,2022_Feb_21_1449,localizer,2021.1.3,60.737031687669905,
block,faces,faces072.bmp,,,,,0,42,42,42,,,,,,,,,,,,,,,,,,,,,,,,,,,,,,,,,,,,,,,,,,None,,450.36854290999474,None,450.36854290999474,None,2022-02-21-14:56:37.109742,450.3788226998877,450.6852243000176,450.3788226998877,None,None,450.3788226998877,None,451.1864194100723,None,,,,11009,0002,2022_Feb_21_1449,localizer,2021.1.3,60.737031687669905,
block,faces,faces033.bmp,,,,,0,43,43,43,,,,,,,,,,,,,,,,,,,,,,,,,,,,,,,,,,,,,,,,,,None,,451.1864194100723,None,451.1864194100723,None,2022-02-21-14:56:37.929693,451.20697339996696,451.51898860000074,451.20697339996696,None,None,451.20697339996696,None,452.0022570101079,None,,,,11009,0002,2022_Feb_21_1449,localizer,2021.1.3,60.737031687669905,
block,faces,faces054.bmp,,,,,0,44,44,44,,,,,,,,,,,,,,,,,,,,,,,,,,,,,,,,,,,,,,,,,,None,,452.0022570101079,None,452.0022570101079,None,2022-02-21-14:56:38.743448,452.0130676999688,452.3185566999018,452.0130676999688,None,None,452.0130676999688,None,452.81879680990244,None,,,,11009,0002,2022_Feb_21_1449,localizer,2021.1.3,60.737031687669905,
block_end,faces,faces088.bmp,,,,,0,45,45,45,,,,,,,,,,,,,,,,,,,,,,,,,,,,,,,,,,,,,,,,,,None,,452.81879680990244,None,452.81879680990244,None,2022-02-21-14:56:39.559992,452.83071550005116,453.13498650002293,452.83071550005116,None,None,452.83071550005116,None,453.63509311005475,None,,,,11009,0002,2022_Feb_21_1449,localizer,2021.1.3,60.737031687669905,
block_start,scenes,scenes050.bmp,,,,,0,46,46,46,,,,,,,,,,,,,,,,,,,,,,,,,,,,,,,,,,,,,,,,,,t,1.7994936001487076,453.63503980007954,None,453.63503980007954,None,2022-02-21-14:56:42.192395,455.4611778999679,455.76839219988324,455.4611778999679,None,None,455.4611778999679,None,456.2688364099246,None,,,,11009,0002,2022_Feb_21_1449,localizer,2021.1.3,60.737031687669905,
block,scenes,scenes029.bmp,,,,,0,47,47,47,,,,,,,,,,,,,,,,,,,,,,,,,,,,,,,,,,,,,,,,,,None,,456.2688364099246,None,456.2688364099246,None,2022-02-21-14:56:43.010031,456.2694792000111,456.56881850003265,456.2694792000111,None,None,456.2694792000111,None,457.06883851010355,None,,,,11009,0002,2022_Feb_21_1449,localizer,2021.1.3,60.737031687669905,
block,scenes,scenes031.bmp,,,,,0,48,48,48,,,,,,,,,,,,,,,,,,,,,,,,,,,,,,,,,,,,,,,,,,None,,457.06883851010355,None,457.06883851010355,None,2022-02-21-14:56:43.812028,457.0823236000724,457.3858282000292,457.0823236000724,457.0823236000724,None,457.0823236000724,457.0823236000724,457.8847615100909,None,,,,11009,0002,2022_Feb_21_1449,localizer,2021.1.3,60.737031687669905,
block,scenes,scenes047.bmp,,,,,0,49,49,49,,,,,,,,,,,,,,,,,,,,,,,,,,,,,,,,,,,,,,,,,,None,,457.8847615100909,None,457.8847615100909,None,2022-02-21-14:56:44.624626,457.88731630006805,458.20189410005696,457.88731630006805,None,None,457.88731630006805,None,458.70211980994793,None,,,,11009,0002,2022_Feb_21_1449,localizer,2021.1.3,60.737031687669905,
block,scenes,scenes081.bmp,,,,,0,50,50,50,,,,,,,,,,,,,,,,,,,,,,,,,,,,,,,,,,,,,,,,,,None,,458.70211980994793,None,458.70211980994793,None,2022-02-21-14:56:45.443316,458.7028636999894,459.00203029997647,458.7028636999894,None,None,458.7028636999894,None,459.5022603100166,None,,,,11009,0002,2022_Feb_21_1449,localizer,2021.1.3,60.737031687669905,
block,scenes,scenes092.bmp,,,,,0,51,51,51,,,,,,,,,,,,,,,,,,,,,,,,,,,,,,,,,,,,,,,,,,None,,459.5022603100166,None,459.5022603100166,None,2022-02-21-14:56:46.245431,459.5153101000469,459.81888439995237,459.5153101000469,459.5153101000469,None,459.5153101000469,459.5153101000469,460.320745109953,None,,,,11009,0002,2022_Feb_21_1449,localizer,2021.1.3,60.737031687669905,
block,scenes,scenes062.bmp,,,,,0,52,52,52,,,,,,,,,,,,,,,,,,,,,,,,,,,,,,,,,,,,,,,,,,None,,460.320745109953,None,460.320745109953,None,2022-02-21-14:56:47.064830,460.33552030008286,460.6356011000462,460.33552030008286,None,None,460.33552030008286,None,461.13521631006154,None,,,,11009,0002,2022_Feb_21_1449,localizer,2021.1.3,60.737031687669905,
block,scenes,scenes006.bmp,,,,,0,53,53,53,,,,,,,,,,,,,,,,,,,,,,,,,,,,,,,,,,,,,,,,,,None,,461.13521631006154,None,461.13521631006154,None,2022-02-21-14:56:47.876415,461.1361312000081,461.4514061999507,461.1361312000081,None,None,461.1361312000081,None,461.9352939100005,None,,,,11009,0002,2022_Feb_21_1449,localizer,2021.1.3,60.737031687669905,
block,scenes,scenes028.bmp,,,,,0,54,54,54,,,,,,,,,,,,,,,,,,,,,,,,,,,,,,,,,,,,,,,,,,None,,461.9352939100005,None,461.9352939100005,None,2022-02-21-14:56:48.678472,461.9366075999569,462.2519090999849,461.9366075999569,461.9366075999569,None,461.9366075999569,461.9366075999569,462.7363920099102,None,,,,11009,0002,2022_Feb_21_1449,localizer,2021.1.3,60.737031687669905,
block,scenes,scenes010.bmp,,,,,0,55,55,55,,,,,,,,,,,,,,,,,,,,,,,,,,,,,,,,,,,,,,,,,,None,,462.7363920099102,None,462.7363920099102,None,2022-02-21-14:56:49.480714,462.751307599945,463.051481399918,462.751307599945,462.751307599945,None,462.751307599945,462.751307599945,463.5519855100662,None,,,,11009,0002,2022_Feb_21_1449,localizer,2021.1.3,60.737031687669905,
block,scenes,scenes056.bmp,,,,,0,56,56,56,,,,,,,,,,,,,,,,,,,,,,,,,,,,,,,,,,,,,,,,,,None,,463.5519855100662,None,463.5519855100662,None,2022-02-21-14:56:50.293386,463.56199810002,463.8686198000796,463.56199810002,None,None,463.56199810002,None,464.36889260998,None,,,,11009,0002,2022_Feb_21_1449,localizer,2021.1.3,60.737031687669905,
block,scenes,scenes080.bmp,,,,,0,57,57,57,,,,,,,,,,,,,,,,,,,,,,,,,,,,,,,,,,,,,,,,,,None,,464.36889260998,None,464.36889260998,None,2022-02-21-14:56:51.110070,464.36949700000696,464.68510019988753,464.36949700000696,None,None,464.36949700000696,None,465.1685815101024,None,,,,11009,0002,2022_Feb_21_1449,localizer,2021.1.3,60.737031687669905,
block,scenes,scenes013.bmp,,,,,0,58,58,58,,,,,,,,,,,,,,,,,,,,,,,,,,,,,,,,,,,,,,,,,,None,,465.1685815101024,None,465.1685815101024,None,2022-02-21-14:56:51.910779,465.1695556000341,465.4852821000386,465.1695556000341,465.1695556000341,None,465.1695556000341,465.1695556000341,465.9685806100257,None,,,,11009,0002,2022_Feb_21_1449,localizer,2021.1.3,60.737031687669905,
block,scenes,scenes064.bmp,,,,,0,59,59,59,,,,,,,,,,,,,,,,,,,,,,,,,,,,,,,,,,,,,,,,,,None,,465.9685806100257,None,465.9685806100257,None,2022-02-21-14:56:52.711773,465.97571319993585,466.2863431000151,465.97571319993585,465.97571319993585,None,465.97571319993585,465.97571319993585,466.7854593099561,None,,,,11009,0002,2022_Feb_21_1449,localizer,2021.1.3,60.737031687669905,
block_end,scenes,scenes035.bmp,,,,,0,60,60,60,,,,,,,,,,,,,,,,,,,,,,,,,,,,,,,,,,,,,,,,,,None,,466.7854593099561,None,466.7854593099561,None,2022-02-21-14:56:53.526679,466.7862299999688,467.0864240000956,466.7862299999688,None,None,466.7862299999688,None,467.60187030993404,None,,,,11009,0002,2022_Feb_21_1449,localizer,2021.1.3,60.737031687669905,
block_start,scenes,scenes063.bmp,,,,,0,61,61,61,,,,,,,,,,,,,,,,,,,,,,,,,,,,,,,,,,,,,,,,,,t,1.8327041000593454,467.60179729992524,None,467.60179729992524,None,2022-02-21-14:56:56.195223,469.45558460010216,469.7686300999485,469.45558460010216,None,None,469.45558460010216,None,470.26885090991857,None,,,,11009,0002,2022_Feb_21_1449,localizer,2021.1.3,60.737031687669905,
block,scenes,scenes006.bmp,,,,,0,62,62,62,,,,,,,,,,,,,,,,,,,,,,,,,,,,,,,,,,,,,,,,,,None,,470.26885090991857,None,470.26885090991857,None,2022-02-21-14:56:57.010262,470.26956110005267,470.58516429993324,470.26956110005267,None,None,470.26956110005267,None,471.0689266099595,None,,,,11009,0002,2022_Feb_21_1449,localizer,2021.1.3,60.737031687669905,
block,scenes,scenes044.bmp,,,,,0,63,63,63,,,,,,,,,,,,,,,,,,,,,,,,,,,,,,,,,,,,,,,,,,None,,471.0689266099595,None,471.0689266099595,None,2022-02-21-14:56:57.812116,471.0808188999072,471.3852635000367,471.0808188999072,471.0808188999072,None,471.0808188999072,471.0808188999072,471.88546200995336,None,,,,11009,0002,2022_Feb_21_1449,localizer,2021.1.3,60.737031687669905,
block,scenes,scenes034.bmp,,,,,0,64,64,64,,,,,,,,,,,,,,,,,,,,,,,,,,,,,,,,,,,,,,,,,,None,,471.88546200995336,None,471.88546200995336,None,2022-02-21-14:56:58.626660,471.88617790001445,472.1852249999065,471.88617790001445,None,None,471.88617790001445,None,472.68547590998935,None,,,,11009,0002,2022_Feb_21_1449,localizer,2021.1.3,60.737031687669905,
block,scenes,scenes087.bmp,,,,,0,65,65,65,,,,,,,,,,,,,,,,,,,,,,,,,,,,,,,,,,,,,,,,,,None,,472.68547590998935,None,472.68547590998935,None,2022-02-21-14:56:59.428670,472.6867587999441,473.00214520003647,472.6867587999441,472.6867587999441,None,472.6867587999441,472.6867587999441,473.50201671002435,None,,,,11009,0002,2022_Feb_21_1449,localizer,2021.1.3,60.737031687669905,
block,scenes,scenes057.bmp,,,,,0,66,66,66,,,,,,,,,,,,,,,,,,,,,,,,,,,,,,,,,,,,,,,,,,None,,473.50201671002435,None,473.50201671002435,None,2022-02-21-14:57:00.243216,473.50278920005076,473.80825340002775,473.50278920005076,None,None,473.50278920005076,None,474.30328121003697,None,,,,11009,0002,2022_Feb_21_1449,localizer,2021.1.3,60.737031687669905,
block,scenes,scenes072.bmp,,,,,0,67,67,67,,,,,,,,,,,,,,,,,,,,,,,,,,,,,,,,,,,,,,,,,,None,,474.30328121003697,None,474.30328121003697,None,2022-02-21-14:57:01.048048,474.30834569991566,474.61921079992317,474.30834569991566,474.30834569991566,None,474.30834569991566,474.30834569991566,475.119380009966,None,,,,11009,0002,2022_Feb_21_1449,localizer,2021.1.3,60.737031687669905,
block,scenes,scenes045.bmp,,,,,0,68,68,68,,,,,,,,,,,,,,,,,,,,,,,,,,,,,,,,,,,,,,,,,,None,,475.119380009966,None,475.119380009966,None,2022-02-21-14:57:01.861776,475.13094160007313,475.4354514000006,475.13094160007313,None,None,475.13094160007313,None,475.93530700998383,None,,,,11009,0002,2022_Feb_21_1449,localizer,2021.1.3,60.737031687669905,
block,scenes,scenes047.bmp,,,,,0,69,69,69,,,,,,,,,,,,,,,,,,,,,,,,,,,,,,,,,,,,,,,,,,None,,475.93530700998383,None,475.93530700998383,None,2022-02-21-14:57:02.676486,475.9362371999305,476.2354723000899,475.9362371999305,None,None,475.9362371999305,None,476.7354940100573,None,,,,11009,0002,2022_Feb_21_1449,localizer,2021.1.3,60.737031687669905,
block,scenes,scenes002.bmp,,,,,0,70,70,70,,,,,,,,,,,,,,,,,,,,,,,,,,,,,,,,,,,,,,,,,,None,,476.7354940100573,None,476.7354940100573,None,2022-02-21-14:57:03.478908,476.7474521000404,477.0520132998936,476.7474521000404,476.7474521000404,None,476.7474521000404,476.7474521000404,477.55222980994733,None,,,,11009,0002,2022_Feb_21_1449,localizer,2021.1.3,60.737031687669905,
block,scenes,scenes010.bmp,,,,,0,71,71,71,,,,,,,,,,,,,,,,,,,,,,,,,,,,,,,,,,,,,,,,,,None,,477.55222980994733,None,477.55222980994733,None,2022-02-21-14:57:04.293429,477.5529279001057,477.86875630007125,477.5529279001057,None,None,477.5529279001057,None,478.35224061007614,None,,,,11009,0002,2022_Feb_21_1449,localizer,2021.1.3,60.737031687669905,
block,scenes,scenes075.bmp,,,,,0,72,72,72,,,,,,,,,,,,,,,,,,,,,,,,,,,,,,,,,,,,,,,,,,None,,478.35224061007614,None,478.35224061007614,None,2022-02-21-14:57:05.095631,478.36477990006097,478.66893159993924,478.36477990006097,478.36477990006097,None,478.36477990006097,478.36477990006097,479.1698681098875,None,,,,11009,0002,2022_Feb_21_1449,localizer,2021.1.3,60.737031687669905,
block,scenes,scenes086.bmp,,,,,0,73,73,73,,,,,,,,,,,,,,,,,,,,,,,,,,,,,,,,,,,,,,,,,,None,,479.1698681098875,None,479.1698681098875,None,2022-02-21-14:57:05.912183,479.17223779996857,479.4851281000301,479.17223779996857,None,None,479.17223779996857,None,479.98573121000084,None,,,,11009,0002,2022_Feb_21_1449,localizer,2021.1.3,60.737031687669905,
block,scenes,scenes083.bmp,,,,,0,74,74,74,,,,,,,,,,,,,,,,,,,,,,,,,,,,,,,,,,,,,,,,,,None,,479.98573121000084,None,479.98573121000084,None,2022-02-21-14:57:06.726847,479.99660949991085,480.3026535999961,479.99660949991085,None,None,479.99660949991085,None,480.802480110107,None,,,,11009,0002,2022_Feb_21_1449,localizer,2021.1.3,60.737031687669905,
block_end,scenes,scenes076.bmp,,,,,0,75,75,75,,,,,,,,,,,,,,,,,,,,,,,,,,,,,,,,,,,,,,,,,,None,,480.802480110107,None,480.802480110107,None,2022-02-21-14:57:07.543674,480.8031468000263,481.1186832000967,480.8031468000263,None,None,480.8031468000263,None,481.60790660991336,None,,,,11009,0002,2022_Feb_21_1449,localizer,2021.1.3,60.737031687669905,
null_block,null_block,null_block.bmp,,,,,0,76,76,76,,,,,,,,,,,,,,,,,,,,,,,,,,,,,,,,,,,,,,,,,,t,1.8287806999869645,481.60453299991786,None,481.60453299991786,None,2022-02-21-14:57:10.191458,483.4520583100617,None,483.4520583100617,None,None,483.4520583100617,None,483.45361949992366,None,,,,11009,0002,2022_Feb_21_1449,localizer,2021.1.3,60.737031687669905,
block_start,faces,faces037.bmp,,,,,0,77,77,77,,,,,,,,,,,,,,,,,,,,,,,,,,,,,,,,,,,,,,,,,,t,1.964497199980542,495.46895239991136,None,495.46895239991136,None,2022-02-21-14:57:24.194524,497.45420020003803,497.7695923000574,497.45420020003803,None,None,497.45420020003803,None,498.25490950993265,None,,,,11009,0002,2022_Feb_21_1449,localizer,2021.1.3,60.737031687669905,
block,faces,faces010.bmp,,,,,0,78,78,78,,,,,,,,,,,,,,,,,,,,,,,,,,,,,,,,,,,,,,,,,,None,,498.25490950993265,None,498.25490950993265,None,2022-02-21-14:57:24.997474,498.26263760006987,498.5685978999827,498.26263760006987,498.26263760006987,None,498.26263760006987,498.26263760006987,499.0691198100336,None,,,,11009,0002,2022_Feb_21_1449,localizer,2021.1.3,60.737031687669905,
block,faces,faces075.bmp,,,,,0,79,79,79,,,,,,,,,,,,,,,,,,,,,,,,,,,,,,,,,,,,,,,,,,None,,499.0691198100336,None,499.0691198100336,None,2022-02-21-14:57:25.810355,499.06974829989485,499.3693456999026,499.06974829989485,None,None,499.06974829989485,None,499.86932401000524,None,,,,11009,0002,2022_Feb_21_1449,localizer,2021.1.3,60.737031687669905,
block,faces,faces016.bmp,,,,,0,80,80,80,,,,,,,,,,,,,,,,,,,,,,,,,,,,,,,,,,,,,,,,,,None,,499.86932401000524,None,499.86932401000524,None,2022-02-21-14:57:26.613723,499.8723706000019,500.1853922000155,499.8723706000019,499.8723706000019,None,499.8723706000019,499.8723706000019,500.6855337099638,None,,,,11009,0002,2022_Feb_21_1449,localizer,2021.1.3,60.737031687669905,
block,faces,faces002.bmp,,,,,0,81,81,81,,,,,,,,,,,,,,,,,,,,,,,,,,,,,,,,,,,,,,,,,,None,,500.6855337099638,None,500.6855337099638,None,2022-02-21-14:57:27.426732,500.6863005999476,500.9856070999522,500.6863005999476,None,None,500.6863005999476,None,501.48564830995167,None,,,,11009,0002,2022_Feb_21_1449,localizer,2021.1.3,60.737031687669905,
block,faces,faces041.bmp,,,,,0,82,82,82,,,,,,,,,,,,,,,,,,,,,,,,,,,,,,,,,,,,,,,,,,None,,501.48564830995167,None,501.48564830995167,None,2022-02-21-14:57:28.227845,501.5259604000021,501.83780330000445,501.5259604000021,501.5259604000021,None,501.5259604000021,501.5259604000021,502.3025117101148,None,,,,11009,0002,2022_Feb_21_1449,localizer,2021.1.3,60.737031687669905,
block,faces,faces072.bmp,,,,,0,83,83,83,,,,,,,,,,,,,,,,,,,,,,,,,,,,,,,,,,,,,,,,,,None,,502.3025117101148,None,502.3025117101148,None,2022-02-21-14:57:29.044293,502.3030884000473,502.61860470008105,502.3030884000473,None,None,502.3030884000473,None,503.1181938100141,None,,,,11009,0002,2022_Feb_21_1449,localizer,2021.1.3,60.737031687669905,
block,faces,faces089.bmp,,,,,0,84,84,84,,,,,,,,,,,,,,,,,,,,,,,,,,,,,,,,,,,,,,,,,,None,,503.1181938100141,None,503.1181938100141,None,2022-02-21-14:57:29.858401,503.1260681001004,503.4362304999959,503.1260681001004,None,None,503.1260681001004,None,503.9351648100652,None,,,,11009,0002,2022_Feb_21_1449,localizer,2021.1.3,60.737031687669905,
block,faces,faces080.bmp,,,,,0,85,85,85,,,,,,,,,,,,,,,,,,,,,,,,,,,,,,,,,,,,,,,,,,None,,503.9351648100652,None,503.9351648100652,None,2022-02-21-14:57:30.676368,503.9370748999063,504.23601719993167,503.9370748999063,None,None,503.9370748999063,None,504.7520647099242,None,,,,11009,0002,2022_Feb_21_1449,localizer,2021.1.3,60.737031687669905,
block,faces,faces021.bmp,,,,,0,86,86,86,,,,,,,,,,,,,,,,,,,,,,,,,,,,,,,,,,,,,,,,,,None,,504.7520647099242,None,504.7520647099242,None,2022-02-21-14:57:31.493176,504.7630157000385,505.06844160007313,504.7630157000385,None,None,504.7630157000385,None,505.56903721010315,None,,,,11009,0002,2022_Feb_21_1449,localizer,2021.1.3,60.737031687669905,
block,faces,faces058.bmp,,,,,0,87,87,87,,,,,,,,,,,,,,,,,,,,,,,,,,,,,,,,,,,,,,,,,,None,,505.56903721010315,None,505.56903721010315,None,2022-02-21-14:57:32.310427,505.5698094998952,505.8690394998994,505.5698094998952,None,None,505.5698094998952,None,506.3691603100393,None,,,,11009,0002,2022_Feb_21_1449,localizer,2021.1.3,60.737031687669905,
block,faces,faces067.bmp,,,,,0,88,88,88,,,,,,,,,,,,,,,,,,,,,,,,,,,,,,,,,,,,,,,,,,None,,506.3691603100393,None,506.3691603100393,None,2022-02-21-14:57:33.112353,506.37050350010395,506.685671400046,506.37050350010395,506.37050350010395,None,506.37050350010395,506.37050350010395,507.18623401005755,None,,,,11009,0002,2022_Feb_21_1449,localizer,2021.1.3,60.737031687669905,
block,faces,faces012.bmp,,,,,0,89,89,89,,,,,,,,,,,,,,,,,,,,,,,,,,,,,,,,,,,,,,,,,,None,,507.18623401005755,None,507.18623401005755,None,2022-02-21-14:57:33.928403,507.18708999990486,507.50216130004264,507.18708999990486,None,None,507.18708999990486,None,507.987363309972,None,,,,11009,0002,2022_Feb_21_1449,localizer,2021.1.3,60.737031687669905,
block,faces,faces027.bmp,,,,,0,90,90,90,,,,,,,,,,,,,,,,,,,,,,,,,,,,,,,,,,,,,,,,,,None,,507.987363309972,None,507.987363309972,None,2022-02-21-14:57:34.731672,508.002020200016,508.3020403000992,508.002020200016,508.002020200016,None,508.002020200016,508.002020200016,508.8031823100988,None,,,,11009,0002,2022_Feb_21_1449,localizer,2021.1.3,60.737031687669905,
block_end,faces,faces044.bmp,,,,,0,91,91,91,,,,,,,,,,,,,,,,,,,,,,,,,,,,,,,,,,,,,,,,,,None,,508.8031823100988,None,508.8031823100988,None,2022-02-21-14:57:35.546266,508.8062332000118,509.11855009989813,508.8062332000118,None,None,508.8062332000118,None,509.6189854099881,None,,,,11009,0002,2022_Feb_21_1449,localizer,2021.1.3,60.737031687669905,
block_start,objects,objects080.bmp,,,,,0,92,92,92,,,,,,,,,,,,,,,,,,,,,,,,,,,,,,,,,,,,,,,,,,t,1.8145387000404298,509.6188999998849,None,509.6188999998849,None,2022-02-21-14:57:38.195773,511.4560310000088,511.76985480007716,511.4560310000088,None,None,511.4560310000088,None,512.2689993098844,None,,,,11009,0002,2022_Feb_21_1449,localizer,2021.1.3,60.737031687669905,
block,objects,objects072.bmp,,,,,0,93,93,93,,,,,,,,,,,,,,,,,,,,,,,,,,,,,,,,,,,,,,,,,,None,,512.2689993098844,None,512.2689993098844,None,2022-02-21-14:57:39.010196,512.2792104999535,512.5919329999015,512.2792104999535,None,None,512.2792104999535,None,513.0855076100212,None,,,,11009,0002,2022_Feb_21_1449,localizer,2021.1.3,60.737031687669905,
block,objects,objects073.bmp,,,,,0,94,94,94,,,,,,,,,,,,,,,,,,,,,,,,,,,,,,,,,,,,,,,,,,None,,513.0855076100212,None,513.0855076100212,None,2022-02-21-14:57:39.826709,513.0864621000364,513.4021878000349,513.0864621000364,None,None,513.0864621000364,None,513.886677910015,None,,,,11009,0002,2022_Feb_21_1449,localizer,2021.1.3,60.737031687669905,
block,objects,objects051.bmp,,,,,0,95,95,95,,,,,,,,,,,,,,,,,,,,,,,,,,,,,,,,,,,,,,,,,,None,,513.886677910015,None,513.886677910015,None,2022-02-21-14:57:40.629747,513.8870979999192,514.202411300037,513.8870979999192,513.8870979999192,None,513.8870979999192,513.8870979999192,514.702350010071,None,,,,11009,0002,2022_Feb_21_1449,localizer,2021.1.3,60.737031687669905,
block,objects,objects030.bmp,,,,,0,96,96,96,,,,,,,,,,,,,,,,,,,,,,,,,,,,,,,,,,,,,,,,,,None,,514.702350010071,None,514.702350010071,None,2022-02-21-14:57:41.443546,514.7031388001051,515.0024840999395,514.7031388001051,None,None,514.7031388001051,None,515.5022849099711,None,,,,11009,0002,2022_Feb_21_1449,localizer,2021.1.3,60.737031687669905,
block,objects,objects018.bmp,,,,,0,97,97,97,,,,,,,,,,,,,,,,,,,,,,,,,,,,,,,,,,,,,,,,,,None,,515.5022849099711,None,515.5022849099711,None,2022-02-21-14:57:42.245682,515.5038950999733,515.8191072999034,515.5038950999733,515.5038950999733,None,515.5038950999733,515.5038950999733,516.3029399101157,None,,,,11009,0002,2022_Feb_21_1449,localizer,2021.1.3,60.737031687669905,
block,objects,objects025.bmp,,,,,0,98,98,98,,,,,,,,,,,,,,,,,,,,,,,,,,,,,,,,,,,,,,,,,,None,,516.3029399101157,None,516.3029399101157,None,2022-02-21-14:57:43.047338,516.3058513000142,516.6194547999185,516.3058513000142,516.3058513000142,None,516.3058513000142,516.3058513000142,517.1195168100763,None,,,,11009,0002,2022_Feb_21_1449,localizer,2021.1.3,60.737031687669905,
block,objects,objects006.bmp,,,,,0,99,99,99,,,,,,,,,,,,,,,,,,,,,,,,,,,,,,,,,,,,,,,,,,None,,517.1195168100763,None,517.1195168100763,None,2022-02-21-14:57:43.861702,517.1199378999881,517.419200199889,517.1199378999881,None,None,517.1199378999881,None,517.9201427101158,None,,,,11009,0002,2022_Feb_21_1449,localizer,2021.1.3,60.737031687669905,
block,objects,objects026.bmp,,,,,0,100,100,100,,,,,,,,,,,,,,,,,,,,,,,,,,,,,,,,,,,,,,,,,,None,,517.9201427101158,None,517.9201427101158,None,2022-02-21-14:57:44.665492,517.9243534998968,518.2354892999865,517.9243534998968,517.9243534998968,None,517.9243534998968,517.9243534998968,518.7357699099463,None,,,,11009,0002,2022_Feb_21_1449,localizer,2021.1.3,60.737031687669905,
block,objects,objects064.bmp,,,,,0,101,101,101,,,,,,,,,,,,,,,,,,,,,,,,,,,,,,,,,,,,,,,,,,None,,518.7357699099463,None,518.7357699099463,None,2022-02-21-14:57:45.476990,518.7366504000966,519.0358706000261,518.7366504000966,None,None,518.7366504000966,None,519.5358287099749,None,,,,11009,0002,2022_Feb_21_1449,localizer,2021.1.3,60.737031687669905,
block,objects,objects071.bmp,,,,,0,102,102,102,,,,,,,,,,,,,,,,,,,,,,,,,,,,,,,,,,,,,,,,,,None,,519.5358287099749,None,519.5358287099749,None,2022-02-21-14:57:46.279228,519.5386902000755,519.8526155001018,519.5386902000755,519.5386902000755,None,519.5386902000755,519.5386902000755,520.35361530995,None,,,,11009,0002,2022_Feb_21_1449,localizer,2021.1.3,60.737031687669905,
block,objects,objects076.bmp,,,,,0,103,103,103,,,,,,,,,,,,,,,,,,,,,,,,,,,,,,,,,,,,,,,,,,None,,520.35361530995,None,520.35361530995,None,2022-02-21-14:57:47.096772,520.3664422999136,520.669995999895,520.3664422999136,None,None,520.3664422999136,None,521.170114109898,None,,,,11009,0002,2022_Feb_21_1449,localizer,2021.1.3,60.737031687669905,
block,objects,objects028.bmp,,,,,0,104,104,104,,,,,,,,,,,,,,,,,,,,,,,,,,,,,,,,,,,,,,,,,,None,,521.170114109898,None,521.170114109898,None,2022-02-21-14:57:47.912436,521.1724672999699,521.4919012000319,521.1724672999699,None,None,521.1724672999699,None,521.985334309889,None,,,,11009,0002,2022_Feb_21_1449,localizer,2021.1.3,60.737031687669905,
block,objects,objects001.bmp,,,,,0,105,105,105,,,,,,,,,,,,,,,,,,,,,,,,,,,,,,,,,,,,,,,,,,None,,521.985334309889,None,521.985334309889,None,2022-02-21-14:57:48.726820,521.9863686000463,522.2857651000377,521.9863686000463,None,None,521.9863686000463,None,522.7877235099673,None,,,,11009,0002,2022_Feb_21_1449,localizer,2021.1.3,60.737031687669905,
block_end,objects,objects017.bmp,,,,,0,106,106,106,,,,,,,,,,,,,,,,,,,,,,,,,,,,,,,,,,,,,,,,,,None,,522.7877235099673,None,522.7877235099673,None,2022-02-21-14:57:49.533799,522.8041620000731,523.1192715000361,522.8041620000731,522.8041620000731,None,522.8041620000731,522.8041620000731,523.6026301098988,None,,,,11009,0002,2022_Feb_21_1449,localizer,2021.1.3,60.737031687669905,
block_start,scrambled,scrambled060.bmp,,,,,0,107,107,107,,,,,,,,,,,,,,,,,,,,,,,,,,,,,,,,,,,,,,,,,,t,1.830765699967742,523.6027198999655,None,523.6027198999655,None,2022-02-21-14:57:52.193816,525.4532262000721,525.768836400006,525.4532262000721,None,None,525.4532262000721,None,526.2526619100478,None,,,,11009,0002,2022_Feb_21_1449,localizer,2021.1.3,60.737031687669905,
block,scrambled,scrambled030.bmp,,,,,0,108,108,108,,,,,,,,,,,,,,,,,,,,,,,,,,,,,,,,,,,,,,,,,,None,,526.2526619100478,None,526.2526619100478,None,2022-02-21-14:57:52.996088,526.2649614999536,526.5754382999148,526.2649614999536,526.2649614999536,None,526.2649614999536,526.2649614999536,527.0707107099239,None,,,,11009,0002,2022_Feb_21_1449,localizer,2021.1.3,60.737031687669905,
block,scrambled,scrambled049.bmp,,,,,0,109,109,109,,,,,,,,,,,,,,,,,,,,,,,,,,,,,,,,,,,,,,,,,,None,,527.0707107099239,None,527.0707107099239,None,2022-02-21-14:57:53.810821,527.0775653000455,527.3854600999039,527.0775653000455,None,None,527.0775653000455,None,527.8859303099103,None,,,,11009,0002,2022_Feb_21_1449,localizer,2021.1.3,60.737031687669905,
block,scrambled,scrambled080.bmp,,,,,0,110,110,110,,,,,,,,,,,,,,,,,,,,,,,,,,,,,,,,,,,,,,,,,,None,,527.8859303099103,None,527.8859303099103,None,2022-02-21-14:57:54.627400,527.8968046999071,528.2024413000327,527.8968046999071,None,None,527.8968046999071,None,528.702900010068,None,,,,11009,0002,2022_Feb_21_1449,localizer,2021.1.3,60.737031687669905,
block,scrambled,scrambled062.bmp,,,,,0,111,111,111,,,,,,,,,,,,,,,,,,,,,,,,,,,,,,,,,,,,,,,,,,None,,528.702900010068,None,528.702900010068,None,2022-02-21-14:57:55.443095,528.7032582999673,529.0190691000316,528.7032582999673,None,None,528.7032582999673,None,529.5190995099489,None,,,,11009,0002,2022_Feb_21_1449,localizer,2021.1.3,60.737031687669905,
block,scrambled,scrambled021.bmp,,,,,0,112,112,112,,,,,,,,,,,,,,,,,,,,,,,,,,,,,,,,,,,,,,,,,,None,,529.5190995099489,None,529.5190995099489,None,2022-02-21-14:57:56.260280,529.5199142000638,529.819819000084,529.5199142000638,None,None,529.5199142000638,None,530.335645710025,None,,,,11009,0002,2022_Feb_21_1449,localizer,2021.1.3,60.737031687669905,
block,scrambled,scrambled088.bmp,,,,,0,113,113,113,,,,,,,,,,,,,,,,,,,,,,,,,,,,,,,,,,,,,,,,,,None,,530.335645710025,None,530.335645710025,None,2022-02-21-14:57:57.076818,530.3366090001073,530.6357241999358,530.3366090001073,None,None,530.3366090001073,None,531.13578130994,None,,,,11009,0002,2022_Feb_21_1449,localizer,2021.1.3,60.737031687669905,
block,scrambled,scrambled004.bmp,,,,,0,114,114,114,,,,,,,,,,,,,,,,,,,,,,,,,,,,,,,,,,,,,,,,,,None,,531.13578130994,None,531.13578130994,None,2022-02-21-14:57:57.878062,531.1452023000456,531.452315799892,531.1452023000456,531.1452023000456,None,531.1452023000456,531.1452023000456,531.9534756100271,None,,,,11009,0002,2022_Feb_21_1449,localizer,2021.1.3,60.737031687669905,
block,scrambled,scrambled008.bmp,,,,,0,115,115,115,,,,,,,,,,,,,,,,,,,,,,,,,,,,,,,,,,,,,,,,,,None,,531.9534756100271,None,531.9534756100271,None,2022-02-21-14:57:58.695711,531.9650123999454,532.2692770001013,531.9650123999454,None,None,531.9650123999454,None,532.769367109891,None,,,,11009,0002,2022_Feb_21_1449,localizer,2021.1.3,60.737031687669905,
block,scrambled,scrambled008.bmp,,,,,0,116,116,116,,,,,,,,,,,,,,,,,,,,,,,,,,,,,,,,,,,,,,,,,,None,,532.769367109891,None,532.769367109891,None,2022-02-21-14:57:59.510563,532.7699382000137,533.0690228999592,532.7699382000137,None,y,532.7699382000137,None,533.569191709999,None,0.5112592000514269,,,11009,0002,2022_Feb_21_1449,localizer,2021.1.3,60.737031687669905,
block,scrambled,scrambled061.bmp,,,,,0,117,117,117,,,,,,,,,,,,,,,,,,,,,,,,,,,,,,,,,,,,,,,,,,None,,533.569191709999,None,533.569191709999,None,2022-02-21-14:58:00.312536,533.5810742001049,533.8862497000955,533.5810742001049,533.5810742001049,None,533.5810742001049,533.5810742001049,534.3865091098938,None,,,,11009,0002,2022_Feb_21_1449,localizer,2021.1.3,60.737031687669905,
block,scrambled,scrambled025.bmp,,,,,0,118,118,118,,,,,,,,,,,,,,,,,,,,,,,,,,,,,,,,,,,,,,,,,,None,,534.3865091098938,None,534.3865091098938,None,2022-02-21-14:58:01.128881,534.3978619000409,534.7024238000158,534.3978619000409,None,None,534.3978619000409,None,535.2029308100697,None,,,,11009,0002,2022_Feb_21_1449,localizer,2021.1.3,60.737031687669905,
block,scrambled,scrambled046.bmp,,,,,0,119,119,119,,,,,,,,,,,,,,,,,,,,,,,,,,,,,,,,,,,,,,,,,,None,,535.2029308100697,None,535.2029308100697,None,2022-02-21-14:58:01.944126,535.2034293999895,535.503000299912,535.2034293999895,None,None,535.2034293999895,None,536.005571910087,None,,,,11009,0002,2022_Feb_21_1449,localizer,2021.1.3,60.737031687669905,
block,scrambled,scrambled076.bmp,,,,,0,120,120,120,,,,,,,,,,,,,,,,,,,,,,,,,,,,,,,,,,,,,,,,,,None,,536.005571910087,None,536.005571910087,None,2022-02-21-14:58:02.750887,536.0097942999564,536.3193016001023,536.0097942999564,536.0097942999564,None,536.0097942999564,536.0097942999564,536.8195435101167,None,,,,11009,0002,2022_Feb_21_1449,localizer,2021.1.3,60.737031687669905,
block_end,scrambled,scrambled006.bmp,,,,,0,121,121,121,,,,,,,,,,,,,,,,,,,,,,,,,,,,,,,,,,,,,,,,,,None,,536.8195435101167,None,536.8195435101167,None,2022-02-21-14:58:03.560736,536.8200399000198,537.1195336999372,536.8200399000198,None,None,536.8200399000198,None,537.6194195099175,None,,,,11009,0002,2022_Feb_21_1449,localizer,2021.1.3,60.737031687669905,
block_start,objects,objects009.bmp,,,,,0,122,122,122,,,,,,,,,,,,,,,,,,,,,,,,,,,,,,,,,,,,,,,,,,t,1.814764300128445,537.6187265000772,None,537.6187265000772,None,2022-02-21-14:58:06.195101,539.4633122000378,539.7692666000221,539.4633122000378,None,None,539.4633122000378,None,540.2700870099012,None,,,,11009,0002,2022_Feb_21_1449,localizer,2021.1.3,60.737031687669905,
block,objects,objects065.bmp,,,,,0,123,123,123,,,,,,,,,,,,,,,,,,,,,,,,,,,,,,,,,,,,,,,,,,None,,540.2700870099012,None,540.2700870099012,None,2022-02-21-14:58:07.018258,540.2864653998986,540.5927204000764,540.2864653998986,None,None,540.2864653998986,None,541.0859961098992,None,,,,11009,0002,2022_Feb_21_1449,localizer,2021.1.3,60.737031687669905,
block,objects,objects026.bmp,,,,,0,124,124,124,,,,,,,,,,,,,,,,,,,,,,,,,,,,,,,,,,,,,,,,,,None,,541.0859961098992,None,541.0859961098992,None,2022-02-21-14:58:07.827194,541.0866799000651,541.4021719999146,541.0866799000651,None,None,541.0866799000651,None,541.8864404099528,None,,,,11009,0002,2022_Feb_21_1449,localizer,2021.1.3,60.737031687669905,
block,objects,objects072.bmp,,,,,0,125,125,125,,,,,,,,,,,,,,,,,,,,,,,,,,,,,,,,,,,,,,,,,,None,,541.8864404099528,None,541.8864404099528,None,2022-02-21-14:58:08.630623,541.8891634999309,542.2029840999749,541.8891634999309,541.8891634999309,None,541.8891634999309,541.8891634999309,542.7024613101036,None,,,,11009,0002,2022_Feb_21_1449,localizer,2021.1.3,60.737031687669905,
block,objects,objects086.bmp,,,,,0,126,126,126,,,,,,,,,,,,,,,,,,,,,,,,,,,,,,,,,,,,,,,,,,None,,542.7024613101036,None,542.7024613101036,None,2022-02-21-14:58:09.443661,542.7032256999519,543.0023572000209,542.7032256999519,None,None,542.7032256999519,None,543.502480710065,None,,,,11009,0002,2022_Feb_21_1449,localizer,2021.1.3,60.737031687669905,
block,objects,objects069.bmp,,,,,0,127,127,127,,,,,,,,,,,,,,,,,,,,,,,,,,,,,,,,,,,,,,,,,,None,,543.502480710065,None,543.502480710065,None,2022-02-21-14:58:10.244678,543.5032871998847,543.8190673000645,543.5032871998847,543.5032871998847,None,543.5032871998847,543.5032871998847,544.3028338098899,None,,,,11009,0002,2022_Feb_21_1449,localizer,2021.1.3,60.737031687669905,
block,objects,objects079.bmp,,,,,0,128,128,128,,,,,,,,,,,,,,,,,,,,,,,,,,,,,,,,,,,,,,,,,,None,,544.3028338098899,None,544.3028338098899,None,2022-02-21-14:58:11.046029,544.3152511999942,544.6190865000244,544.3152511999942,544.3152511999942,None,544.3152511999942,544.3152511999942,545.1203613101039,None,,,,11009,0002,2022_Feb_21_1449,localizer,2021.1.3,60.737031687669905,
block,objects,objects025.bmp,,,,,0,129,129,129,,,,,,,,,,,,,,,,,,,,,,,,,,,,,,,,,,,,,,,,,,None,,545.1203613101039,None,545.1203613101039,None,2022-02-21-14:58:11.862713,545.1225306999404,545.4364364999346,545.1225306999404,None,None,545.1225306999404,None,545.923624009965,None,,,,11009,0002,2022_Feb_21_1449,localizer,2021.1.3,60.737031687669905,
block,objects,objects013.bmp,,,,,0,130,130,130,,,,,,,,,,,,,,,,,,,,,,,,,,,,,,,,,,,,,,,,,,None,,545.923624009965,None,545.923624009965,None,2022-02-21-14:58:12.668903,545.9325081999414,546.2355738999322,545.9325081999414,545.9325081999414,None,545.9325081999414,545.9325081999414,546.7360711099114,None,,,,11009,0002,2022_Feb_21_1449,localizer,2021.1.3,60.737031687669905,
block,objects,objects039.bmp,,,,,0,131,131,131,,,,,,,,,,,,,,,,,,,,,,,,,,,,,,,,,,,,,,,,,,None,,546.7360711099114,None,546.7360711099114,None,2022-02-21-14:58:13.477267,546.7459756000899,547.0520122000016,546.7459756000899,None,None,546.7459756000899,None,547.5527033099439,None,,,,11009,0002,2022_Feb_21_1449,localizer,2021.1.3,60.737031687669905,
block,objects,objects074.bmp,,,,,0,132,132,132,,,,,,,,,,,,,,,,,,,,,,,,,,,,,,,,,,,,,,,,,,None,,547.5527033099439,None,547.5527033099439,None,2022-02-21-14:58:14.294104,547.5533676999621,547.8524299999699,547.5533676999621,None,None,547.5533676999621,None,548.353576410003,None,,,,11009,0002,2022_Feb_21_1449,localizer,2021.1.3,60.737031687669905,
block,objects,objects053.bmp,,,,,0,133,133,133,,,,,,,,,,,,,,,,,,,,,,,,,,,,,,,,,,,,,,,,,,None,,548.353576410003,None,548.353576410003,None,2022-02-21-14:58:15.097752,548.3565517999232,548.6692834000569,548.3565517999232,548.3565517999232,None,548.3565517999232,548.3565517999232,549.1692711099982,None,,,,11009,0002,2022_Feb_21_1449,localizer,2021.1.3,60.737031687669905,
block,objects,objects021.bmp,,,,,0,134,134,134,,,,,,,,,,,,,,,,,,,,,,,,,,,,,,,,,,,,,,,,,,None,,549.1692711099982,None,549.1692711099982,None,2022-02-21-14:58:15.910679,549.1755419999827,549.4857864999212,549.1755419999827,None,None,549.1755419999827,None,549.9860585100483,None,,,,11009,0002,2022_Feb_21_1449,localizer,2021.1.3,60.737031687669905,
block,objects,objects040.bmp,,,,,0,135,135,135,,,,,,,,,,,,,,,,,,,,,,,,,,,,,,,,,,,,,,,,,,None,,549.9860585100483,None,549.9860585100483,None,2022-02-21-14:58:16.727456,549.9867553999647,550.2862034998834,549.9867553999647,None,None,549.9867553999647,None,550.7862407100853,None,,,,11009,0002,2022_Feb_21_1449,localizer,2021.1.3,60.737031687669905,
block_end,objects,objects005.bmp,,,,,0,136,136,136,,,,,,,,,,,,,,,,,,,,,,,,,,,,,,,,,,,,,,,,,,None,,550.7862407100853,None,550.7862407100853,None,2022-02-21-14:58:17.530618,550.788999499986,551.1018546000123,550.788999499986,550.788999499986,None,550.788999499986,550.788999499986,551.6027480099816,None,,,,11009,0002,2022_Feb_21_1449,localizer,2021.1.3,60.737031687669905,
null_block,null_block,null_block.bmp,,,,,0,137,137,137,,,,,,,,,,,,,,,,,,,,,,,,,,,,,,,,,,,,,,,,,,t,1.830900900065899,551.6024867999367,None,551.6024867999367,None,2022-02-21-14:58:20.193790,553.45245380993,None,553.45245380993,None,None,553.45245380993,None,553.4551216000691,None,,,,11009,0002,2022_Feb_21_1449,localizer,2021.1.3,60.737031687669905,
block_start,scrambled,scrambled008.bmp,,,,,0,138,138,138,,,,,,,,,,,,,,,,,,,,,,,,,,,,,,,,,,,,,,,,,,t,1.9640575000084937,565.4693805000279,None,565.4693805000279,None,2022-02-21-14:58:34.194570,567.4537786000874,567.7532333999407,567.4537786000874,None,None,567.4537786000874,None,568.2530932099559,None,,,,11009,0002,2022_Feb_21_1449,localizer,2021.1.3,60.737031687669905,
block,scrambled,scrambled054.bmp,,,,,0,139,139,139,,,,,,,,,,,,,,,,,,,,,,,,,,,,,,,,,,,,,,,,,,None,,568.2530932099559,None,568.2530932099559,None,2022-02-21-14:58:34.995386,568.2549592000432,568.5691943001002,568.2549592000432,568.2549592000432,None,568.2549592000432,568.2549592000432,569.0700245100539,None,,,,11009,0002,2022_Feb_21_1449,localizer,2021.1.3,60.737031687669905,
block,scrambled,scrambled037.bmp,,,,,0,140,140,140,,,,,,,,,,,,,,,,,,,,,,,,,,,,,,,,,,,,,,,,,,None,,569.0700245100539,None,569.0700245100539,None,2022-02-21-14:58:35.812209,569.0833664000966,569.3858705998864,569.0833664000966,None,None,569.0833664000966,None,569.8864746099804,None,,,,11009,0002,2022_Feb_21_1449,localizer,2021.1.3,60.737031687669905,
block,scrambled,scrambled040.bmp,,,,,0,141,141,141,,,,,,,,,,,,,,,,,,,,,,,,,,,,,,,,,,,,,,,,,,None,,569.8864746099804,None,569.8864746099804,None,2022-02-21-14:58:36.627668,569.8972088000737,570.2031763999257,569.8972088000737,None,None,569.8972088000737,None,570.7023021100555,None,,,,11009,0002,2022_Feb_21_1449,localizer,2021.1.3,60.737031687669905,
block,scrambled,scrambled014.bmp,,,,,0,142,142,142,,,,,,,,,,,,,,,,,,,,,,,,,,,,,,,,,,,,,,,,,,None,,570.7023021100555,None,570.7023021100555,None,2022-02-21-14:58:37.443280,570.7036276999861,571.0027602000628,570.7036276999861,None,None,570.7036276999861,None,571.5075700100512,None,,,,11009,0002,2022_Feb_21_1449,localizer,2021.1.3,60.737031687669905,
block,scrambled,scrambled058.bmp,,,,,0,143,143,143,,,,,,,,,,,,,,,,,,,,,,,,,,,,,,,,,,,,,,,,,,None,,571.5075700100512,None,571.5075700100512,None,2022-02-21-14:58:38.252707,571.51178229996,571.8199130001012,571.51178229996,None,None,571.51178229996,None,572.3191878100857,None,,,,11009,0002,2022_Feb_21_1449,localizer,2021.1.3,60.737031687669905,
block,scrambled,scrambled059.bmp,,,,,0,144,144,144,,,,,,,,,,,,,,,,,,,,,,,,,,,,,,,,,,,,,,,,,,None,,572.3191878100857,None,572.3191878100857,None,2022-02-21-14:58:39.060623,572.322799900081,572.6361457000021,572.322799900081,None,None,572.322799900081,None,573.1363597099204,None,,,,11009,0002,2022_Feb_21_1449,localizer,2021.1.3,60.737031687669905,
block,scrambled,scrambled005.bmp,,,,,0,145,145,145,,,,,,,,,,,,,,,,,,,,,,,,,,,,,,,,,,,,,,,,,,None,,573.1363597099204,None,573.1363597099204,None,2022-02-21-14:58:39.877725,573.1372571000829,573.4526041001081,573.1372571000829,None,None,573.1372571000829,None,573.9366832099855,None,,,,11009,0002,2022_Feb_21_1449,localizer,2021.1.3,60.737031687669905,
block,scrambled,scrambled063.bmp,,,,,0,146,146,146,,,,,,,,,,,,,,,,,,,,,,,,,,,,,,,,,,,,,,,,,,None,,573.9366832099855,None,573.9366832099855,None,2022-02-21-14:58:40.679934,573.9456905000843,574.2526064000558,573.9456905000843,573.9456905000843,None,573.9456905000843,573.9456905000843,574.7525582100731,None,,,,11009,0002,2022_Feb_21_1449,localizer,2021.1.3,60.737031687669905,
block,scrambled,scrambled057.bmp,,,,,0,147,147,147,,,,,,,,,,,,,,,,,,,,,,,,,,,,,,,,,,,,,,,,,,None,,574.7525582100731,None,574.7525582100731,None,2022-02-21-14:58:41.493755,574.7536752999295,575.0530312999617,574.7536752999295,None,None,574.7536752999295,None,575.5532005100046,None,,,,11009,0002,2022_Feb_21_1449,localizer,2021.1.3,60.737031687669905,
block,scrambled,scrambled042.bmp,,,,,0,148,148,148,,,,,,,,,,,,,,,,,,,,,,,,,,,,,,,,,,,,,,,,,,None,,575.5532005100046,None,575.5532005100046,None,2022-02-21-14:58:42.296554,575.5559179000556,575.8694490001071,575.5559179000556,575.5559179000556,None,575.5559179000556,575.5559179000556,576.3696165100206,None,,,,11009,0002,2022_Feb_21_1449,localizer,2021.1.3,60.737031687669905,
block,scrambled,scrambled051.bmp,,,,,0,149,149,149,,,,,,,,,,,,,,,,,,,,,,,,,,,,,,,,,,,,,,,,,,None,,576.3696165100206,None,576.3696165100206,None,2022-02-21-14:58:43.111039,576.3703014999628,576.6854562000372,576.3703014999628,None,None,576.3703014999628,None,577.1695868099574,None,,,,11009,0002,2022_Feb_21_1449,localizer,2021.1.3,60.737031687669905,
block,scrambled,scrambled020.bmp,,,,,0,150,150,150,,,,,,,,,,,,,,,,,,,,,,,,,,,,,,,,,,,,,,,,,,None,,577.1695868099574,None,577.1695868099574,None,2022-02-21-14:58:43.912979,577.172358199954,577.4863064000383,577.172358199954,577.172358199954,None,577.172358199954,577.172358199954,577.9861030100379,None,,,,11009,0002,2022_Feb_21_1449,localizer,2021.1.3,60.737031687669905,
block,scrambled,scrambled001.bmp,,,,,0,151,151,151,,,,,,,,,,,,,,,,,,,,,,,,,,,,,,,,,,,,,,,,,,None,,577.9861030100379,None,577.9861030100379,None,2022-02-21-14:58:44.727592,577.9942612000741,578.3028804000933,577.9942612000741,None,None,577.9942612000741,None,578.8027534099762,None,,,,11009,0002,2022_Feb_21_1449,localizer,2021.1.3,60.737031687669905,
block_end,scrambled,scrambled064.bmp,,,,,0,152,152,152,,,,,,,,,,,,,,,,,,,,,,,,,,,,,,,,,,,,,,,,,,None,,578.8027534099762,None,578.8027534099762,None,2022-02-21-14:58:45.543952,578.8036718999501,579.1192977998871,578.8036718999501,None,None,578.8036718999501,None,579.6090245099273,None,,,,11009,0002,2022_Feb_21_1449,localizer,2021.1.3,60.737031687669905,
block_start,faces,faces039.bmp,,,,,0,153,153,153,,,,,,,,,,,,,,,,,,,,,,,,,,,,,,,,,,,,,,,,,,t,1.8261887000408024,579.6072750999592,None,579.6072750999592,None,2022-02-21-14:58:48.193382,581.4638167000376,581.7690324001014,581.4638167000376,None,None,581.4638167000376,None,582.2697138100863,None,,,,11009,0002,2022_Feb_21_1449,localizer,2021.1.3,60.737031687669905,
block,faces,faces028.bmp,,,,,0,154,154,154,,,,,,,,,,,,,,,,,,,,,,,,,,,,,,,,,,,,,,,,,,None,,582.2697138100863,None,582.2697138100863,None,2022-02-21-14:58:49.010907,582.2705914999824,582.5729600999039,582.2705914999824,None,None,582.2705914999824,None,583.0697405099869,None,,,,11009,0002,2022_Feb_21_1449,localizer,2021.1.3,60.737031687669905,
block,faces,faces073.bmp,,,,,0,155,155,155,,,,,,,,,,,,,,,,,,,,,,,,,,,,,,,,,,,,,,,,,,None,,583.0697405099869,None,583.0697405099869,None,2022-02-21-14:58:49.813059,583.0722382001113,583.3861177999061,583.0722382001113,583.0722382001113,None,583.0722382001113,583.0722382001113,583.8861385100987,None,,,,11009,0002,2022_Feb_21_1449,localizer,2021.1.3,60.737031687669905,
block,faces,faces088.bmp,,,,,0,156,156,156,,,,,,,,,,,,,,,,,,,,,,,,,,,,,,,,,,,,,,,,,,None,,583.8861385100987,None,583.8861385100987,None,2022-02-21-14:58:50.627334,583.8870502999052,584.1860321999993,583.8870502999052,None,None,583.8870502999052,None,584.6873365099542,None,,,,11009,0002,2022_Feb_21_1449,localizer,2021.1.3,60.737031687669905,
block,faces,faces078.bmp,,,,,0,157,157,157,,,,,,,,,,,,,,,,,,,,,,,,,,,,,,,,,,,,,,,,,,None,,584.6873365099542,None,584.6873365099542,None,2022-02-21-14:58:51.433689,584.6927279999945,585.0027324999683,584.6927279999945,584.6927279999945,None,584.6927279999945,584.6927279999945,585.5034512098879,None,,,,11009,0002,2022_Feb_21_1449,localizer,2021.1.3,60.737031687669905,
block,faces,faces025.bmp,,,,,0,158,158,158,,,,,,,,,,,,,,,,,,,,,,,,,,,,,,,,,,,,,,,,,,None,,585.5034512098879,None,585.5034512098879,None,2022-02-21-14:58:52.244648,585.503804899985,585.80356270005,585.503804899985,None,None,585.503804899985,None,586.3032857099548,None,,,,11009,0002,2022_Feb_21_1449,localizer,2021.1.3,60.737031687669905,
block,faces,faces017.bmp,,,,,0,159,159,159,,,,,,,,,,,,,,,,,,,,,,,,,,,,,,,,,,,,,,,,,,None,,586.3032857099548,None,586.3032857099548,None,2022-02-21-14:58:53.047470,586.3061081999913,586.6199117000215,586.3061081999913,586.3061081999913,None,586.3061081999913,586.3061081999913,587.1193412099034,None,,,,11009,0002,2022_Feb_21_1449,localizer,2021.1.3,60.737031687669905,
block,faces,faces067.bmp,,,,,0,160,160,160,,,,,,,,,,,,,,,,,,,,,,,,,,,,,,,,,,,,,,,,,,None,,587.1193412099034,None,587.1193412099034,None,2022-02-21-14:58:53.860809,587.1204351999331,587.4359893000219,587.1204351999331,None,None,587.1204351999331,None,587.9359599099495,None,,,,11009,0002,2022_Feb_21_1449,localizer,2021.1.3,60.737031687669905,
block,faces,faces005.bmp,,,,,0,161,161,161,,,,,,,,,,,,,,,,,,,,,,,,,,,,,,,,,,,,,,,,,,None,,587.9359599099495,None,587.9359599099495,None,2022-02-21-14:58:54.677391,587.9369135999586,588.2360453999136,587.9369135999586,None,None,587.9369135999586,None,588.736566410074,None,,,,11009,0002,2022_Feb_21_1449,localizer,2021.1.3,60.737031687669905,
block,faces,faces063.bmp,,,,,0,162,162,162,,,,,,,,,,,,,,,,,,,,,,,,,,,,,,,,,,,,,,,,,,None,,588.736566410074,None,588.736566410074,None,2022-02-21-14:58:55.479751,588.7393163000233,589.0527687000576,588.7393163000233,588.7393163000233,None,588.7393163000233,588.7393163000233,589.5529274099041,None,,,,11009,0002,2022_Feb_21_1449,localizer,2021.1.3,60.737031687669905,
block,faces,faces059.bmp,,,,,0,163,163,163,,,,,,,,,,,,,,,,,,,,,,,,,,,,,,,,,,,,,,,,,,None,,589.5529274099041,None,589.5529274099041,None,2022-02-21-14:58:56.294316,589.5537237999961,589.8527734000236,589.5537237999961,None,None,589.5537237999961,None,590.3690593099687,None,,,,11009,0002,2022_Feb_21_1449,localizer,2021.1.3,60.737031687669905,
block,faces,faces048.bmp,,,,,0,164,164,164,,,,,,,,,,,,,,,,,,,,,,,,,,,,,,,,,,,,,,,,,,None,,590.3690593099687,None,590.3690593099687,None,2022-02-21-14:58:57.109266,590.3779343001079,590.6870583000127,590.3779343001079,None,None,590.3779343001079,None,591.1863910100889,None,,,,11009,0002,2022_Feb_21_1449,localizer,2021.1.3,60.737031687669905,
block,faces,faces054.bmp,,,,,0,165,165,165,,,,,,,,,,,,,,,,,,,,,,,,,,,,,,,,,,,,,,,,,,None,,591.1863910100889,None,591.1863910100889,None,2022-02-21-14:58:57.927705,591.18723400007,591.4863098000642,591.18723400007,None,None,591.18723400007,None,592.0024126098957,None,,,,11009,0002,2022_Feb_21_1449,localizer,2021.1.3,60.737031687669905,
block,faces,faces018.bmp,,,,,0,166,166,166,,,,,,,,,,,,,,,,,,,,,,,,,,,,,,,,,,,,,,,,,,None,,592.0024126098957,None,592.0024126098957,None,2022-02-21-14:58:58.743617,592.0106977000833,592.3198536999989,592.0106977000833,None,None,592.0106977000833,None,592.8197742098943,None,,,,11009,0002,2022_Feb_21_1449,localizer,2021.1.3,60.737031687669905,
block_end,faces,faces002.bmp,,,,,0,167,167,167,,,,,,,,,,,,,,,,,,,,,,,,,,,,,,,,,,,,,,,,,,None,,592.8197742098943,None,592.8197742098943,None,2022-02-21-14:58:59.560970,592.8203922999091,593.1359317000024,592.8203922999091,None,None,592.8203922999091,None,593.6196786099114,None,,,,11009,0002,2022_Feb_21_1449,localizer,2021.1.3,60.737031687669905,
block_start,scenes,scenes085.bmp,,,,,0,168,168,168,,,,,,,,,,,,,,,,,,,,,,,,,,,,,,,,,,,,,,,,,,t,1.8139662998728454,593.6196369000245,None,593.6196369000245,None,2022-02-21-14:59:02.195580,595.4657542000059,595.7697453999426,595.4657542000059,None,None,595.4657542000059,None,596.2700470100623,None,,,,11009,0002,2022_Feb_21_1449,localizer,2021.1.3,60.737031687669905,
block,scenes,scenes065.bmp,,,,,0,169,169,169,,,,,,,,,,,,,,,,,,,,,,,,,,,,,,,,,,,,,,,,,,None,,596.2700470100623,None,596.2700470100623,None,2022-02-21-14:59:03.012331,596.280698500108,596.5896761999466,596.280698500108,None,None,596.280698500108,None,597.0859889100772,None,,,,11009,0002,2022_Feb_21_1449,localizer,2021.1.3,60.737031687669905,
block,scenes,scenes014.bmp,,,,,0,170,170,170,,,,,,,,,,,,,,,,,,,,,,,,,,,,,,,,,,,,,,,,,,None,,597.0859889100772,None,597.0859889100772,None,2022-02-21-14:59:03.832285,597.1198692000471,597.422844799934,597.1198692000471,None,None,597.1198692000471,None,597.9040663099382,None,,,,11009,0002,2022_Feb_21_1449,localizer,2021.1.3,60.737031687669905,
block,scenes,scenes014.bmp,,,,,0,171,171,171,,,,,,,,,,,,,,,,,,,,,,,,,,,,,,,,,,,,,,,,,,None,,597.9040663099382,None,597.9040663099382,None,2022-02-21-14:59:04.647307,597.9064426000696,598.2195798000321,597.9064426000696,None,None,597.9064426000696,None,598.7187467100099,None,,,,11009,0002,2022_Feb_21_1449,localizer,2021.1.3,60.737031687669905,
block,scenes,scenes080.bmp,,,,,0,172,172,172,,,,,,,,,,,,,,,,,,,,,,,,,,,,,,,,,,,,,,,,,,None,,598.7187467100099,None,598.7187467100099,None,2022-02-21-14:59:05.459141,598.7210937000345,599.0362883999478,598.7210937000345,None,None,598.7210937000345,None,599.522418209957,None,,,,11009,0002,2022_Feb_21_1449,localizer,2021.1.3,60.737031687669905,
block,scenes,scenes006.bmp,,,,,0,173,173,173,,,,,,,,,,,,,,,,,,,,,,,,,,,,,,,,,,,,,,,,,,None,,599.522418209957,None,599.522418209957,None,2022-02-21-14:59:06.265618,599.5300302000251,599.8367496000137,599.5300302000251,599.5300302000251,None,599.5300302000251,599.5300302000251,600.3366239100229,None,,,,11009,0002,2022_Feb_21_1449,localizer,2021.1.3,60.737031687669905,
block,scenes,scenes038.bmp,,,,,0,174,174,174,,,,,,,,,,,,,,,,,,,,,,,,,,,,,,,,,,,,,,,,,,None,,600.3366239100229,None,600.3366239100229,None,2022-02-21-14:59:07.078679,600.3374332999811,600.6364547000267,600.3374332999811,None,None,600.3374332999811,None,601.1382811101154,None,,,,11009,0002,2022_Feb_21_1449,localizer,2021.1.3,60.737031687669905,
block,scenes,scenes024.bmp,,,,,0,175,175,175,,,,,,,,,,,,,,,,,,,,,,,,,,,,,,,,,,,,,,,,,,None,,601.1382811101154,None,601.1382811101154,None,2022-02-21-14:59:07.883284,601.1496669999324,601.4530408000574,601.1496669999324,601.1496669999324,None,601.1496669999324,601.1496669999324,601.9534264098853,None,,,,11009,0002,2022_Feb_21_1449,localizer,2021.1.3,60.737031687669905,
block,scenes,scenes078.bmp,,,,,0,176,176,176,,,,,,,,,,,,,,,,,,,,,,,,,,,,,,,,,,,,,,,,,,None,,601.9534264098853,None,601.9534264098853,None,2022-02-21-14:59:08.694596,601.9544325000606,602.2696350999177,601.9544325000606,None,None,601.9544325000606,None,602.7698472099379,None,,,,11009,0002,2022_Feb_21_1449,localizer,2021.1.3,60.737031687669905,
block,scenes,scenes072.bmp,,,,,0,177,177,177,,,,,,,,,,,,,,,,,,,,,,,,,,,,,,,,,,,,,,,,,,None,,602.7698472099379,None,602.7698472099379,None,2022-02-21-14:59:09.511039,602.7705878000706,603.0699746001046,602.7705878000706,None,None,602.7705878000706,None,603.5700410100632,None,,,,11009,0002,2022_Feb_21_1449,localizer,2021.1.3,60.737031687669905,
block,scenes,scenes029.bmp,,,,,0,178,178,178,,,,,,,,,,,,,,,,,,,,,,,,,,,,,,,,,,,,,,,,,,None,,603.5700410100632,None,603.5700410100632,None,2022-02-21-14:59:10.314116,603.5728043001145,603.8863599000033,603.5728043001145,603.5728043001145,None,603.5728043001145,603.5728043001145,604.3864193099085,None,,,,11009,0002,2022_Feb_21_1449,localizer,2021.1.3,60.737031687669905,
block,scenes,scenes066.bmp,,,,,0,179,179,179,,,,,,,,,,,,,,,,,,,,,,,,,,,,,,,,,,,,,,,,,,None,,604.3864193099085,None,604.3864193099085,None,2022-02-21-14:59:11.127616,604.3871696998831,604.7026905999519,604.3871696998831,None,None,604.3871696998831,None,605.1865615101066,None,,,,11009,0002,2022_Feb_21_1449,localizer,2021.1.3,60.737031687669905,
block,scenes,scenes082.bmp,,,,,0,180,180,180,,,,,,,,,,,,,,,,,,,,,,,,,,,,,,,,,,,,,,,,,,None,,605.1865615101066,None,605.1865615101066,None,2022-02-21-14:59:11.929772,605.1895578999538,605.5029617000837,605.1895578999538,605.1895578999538,None,605.1895578999538,605.1895578999538,606.0025350098964,None,,,,11009,0002,2022_Feb_21_1449,localizer,2021.1.3,60.737031687669905,
block,scenes,scenes074.bmp,,,,,0,181,181,181,,,,,,,,,,,,,,,,,,,,,,,,,,,,,,,,,,,,,,,,,,None,,606.0025350098964,None,606.0025350098964,None,2022-02-21-14:59:12.744009,606.0115646999329,606.3195557999425,606.0115646999329,None,None,606.0115646999329,None,606.8206145098899,None,,,,11009,0002,2022_Feb_21_1449,localizer,2021.1.3,60.737031687669905,
block_end,scenes,scenes040.bmp,,,,,0,182,182,182,,,,,,,,,,,,,,,,,,,,,,,,,,,,,,,,,,,,,,,,,,None,,606.8206145098899,None,606.8206145098899,None,2022-02-21-14:59:13.562982,606.8227250000928,607.1356055000797,606.8227250000928,None,None,606.8227250000928,None,607.6368486100342,None,,,,11009,0002,2022_Feb_21_1449,localizer,2021.1.3,60.737031687669905,
block_start,faces,faces019.bmp,,,,,0,183,183,183,,,,,,,,,,,,,,,,,,,,,,,,,,,,,,,,,,,,,,,,,,t,1.7966683998238295,607.6368553999346,None,607.6368553999346,None,2022-02-21-14:59:16.193145,609.4538010000251,609.7696791999042,609.4538010000251,None,None,609.4538010000251,None,610.2531381099485,None,,,,11009,0002,2022_Feb_21_1449,localizer,2021.1.3,60.737031687669905,
block,faces,faces078.bmp,,,,,0,184,184,184,,,,,,,,,,,,,,,,,,,,,,,,,,,,,,,,,,,,,,,,,,None,,610.2531381099485,None,610.2531381099485,None,2022-02-21-14:59:16.996332,610.2544607999735,610.5694454999175,610.2544607999735,610.2544607999735,None,610.2544607999735,610.2544607999735,611.0697613099125,None,,,,11009,0002,2022_Feb_21_1449,localizer,2021.1.3,60.737031687669905,
block,faces,faces069.bmp,,,,,0,185,185,185,,,,,,,,,,,,,,,,,,,,,,,,,,,,,,,,,,,,,,,,,,None,,611.0697613099125,None,611.0697613099125,None,2022-02-21-14:59:17.811158,611.0705516000744,611.3696538999211,611.0705516000744,None,None,611.0705516000744,None,611.869674309995,None,,,,11009,0002,2022_Feb_21_1449,localizer,2021.1.3,60.737031687669905,
block,faces,faces068.bmp,,,,,0,186,186,186,,,,,,,,,,,,,,,,,,,,,,,,,,,,,,,,,,,,,,,,,,None,,611.869674309995,None,611.869674309995,None,2022-02-21-14:59:18.613064,611.8712458000518,612.1863118000329,611.8712458000518,611.8712458000518,None,611.8712458000518,611.8712458000518,612.6866991099902,None,,,,11009,0002,2022_Feb_21_1449,localizer,2021.1.3,60.737031687669905,
block,faces,faces087.bmp,,,,,0,187,187,187,,,,,,,,,,,,,,,,,,,,,,,,,,,,,,,,,,,,,,,,,,None,,612.6866991099902,None,612.6866991099902,None,2022-02-21-14:59:19.427893,612.687505699927,612.9867074000649,612.687505699927,None,None,612.687505699927,None,613.5025298100896,None,,,,11009,0002,2022_Feb_21_1449,localizer,2021.1.3,60.737031687669905,
block,faces,faces079.bmp,,,,,0,188,188,188,,,,,,,,,,,,,,,,,,,,,,,,,,,,,,,,,,,,,,,,,,None,,613.5025298100896,None,613.5025298100896,None,2022-02-21-14:59:20.243721,613.511539200088,613.8195136999711,613.511539200088,None,None,613.511539200088,None,614.31998290997,None,,,,11009,0002,2022_Feb_21_1449,localizer,2021.1.3,60.737031687669905,
block,faces,faces029.bmp,,,,,0,189,189,189,,,,,,,,,,,,,,,,,,,,,,,,,,,,,,,,,,,,,,,,,,None,,614.31998290997,None,614.31998290997,None,2022-02-21-14:59:21.061380,614.3316792999394,614.6373165000696,614.3316792999394,None,None,614.3316792999394,None,615.1369162100833,None,,,,11009,0002,2022_Feb_21_1449,localizer,2021.1.3,60.737031687669905,
block,faces,faces073.bmp,,,,,0,190,190,190,,,,,,,,,,,,,,,,,,,,,,,,,,,,,,,,,,,,,,,,,,None,,615.1369162100833,None,615.1369162100833,None,2022-02-21-14:59:21.879103,615.1378434998915,615.4526694999076,615.1378434998915,None,None,615.1378434998915,None,615.9531481099781,None,,,,11009,0002,2022_Feb_21_1449,localizer,2021.1.3,60.737031687669905,
block,faces,faces008.bmp,,,,,0,191,191,191,,,,,,,,,,,,,,,,,,,,,,,,,,,,,,,,,,,,,,,,,,None,,615.9531481099781,None,615.9531481099781,None,2022-02-21-14:59:22.693245,615.9538014000282,616.2531312999781,615.9538014000282,None,None,615.9538014000282,None,616.7533867099788,None,,,,11009,0002,2022_Feb_21_1449,localizer,2021.1.3,60.737031687669905,
block,faces,faces080.bmp,,,,,0,192,192,192,,,,,,,,,,,,,,,,,,,,,,,,,,,,,,,,,,,,,,,,,,None,,616.7533867099788,None,616.7533867099788,None,2022-02-21-14:59:23.496553,616.7584015000612,617.0698174000718,616.7584015000612,616.7584015000612,None,616.7584015000612,616.7584015000612,617.5697590100114,None,,,,11009,0002,2022_Feb_21_1449,localizer,2021.1.3,60.737031687669905,
block,faces,faces080.bmp,,,,,0,193,193,193,,,,,,,,,,,,,,,,,,,,,,,,,,,,,,,,,,,,,,,,,,None,,617.5697590100114,None,617.5697590100114,None,2022-02-21-14:59:24.312169,617.5721875999589,617.8865803000517,617.5721875999589,None,y,617.5721875999589,None,618.3864836100489,None,0.4152722000144422,,,11009,0002,2022_Feb_21_1449,localizer,2021.1.3,60.737031687669905,
block,faces,faces033.bmp,,,,,0,194,194,194,,,,,,,,,,,,,,,,,,,,,,,,,,,,,,,,,,,,,,,,,,None,,618.3864836100489,None,618.3864836100489,None,2022-02-21-14:59:25.127722,618.3878216999583,618.7027733998839,618.3878216999583,None,None,618.3878216999583,None,619.2031980100088,None,,,,11009,0002,2022_Feb_21_1449,localizer,2021.1.3,60.737031687669905,
block,faces,faces021.bmp,,,,,0,195,195,195,,,,,,,,,,,,,,,,,,,,,,,,,,,,,,,,,,,,,,,,,,None,,619.2031980100088,None,619.2031980100088,None,2022-02-21-14:59:25.944512,619.2039342999924,619.5192454000935,619.2039342999924,None,None,619.2039342999924,None,620.0033862100914,None,,,,11009,0002,2022_Feb_21_1449,localizer,2021.1.3,60.737031687669905,
block,faces,faces028.bmp,,,,,0,196,196,196,,,,,,,,,,,,,,,,,,,,,,,,,,,,,,,,,,,,,,,,,,None,,620.0033862100914,None,620.0033862100914,None,2022-02-21-14:59:26.746780,620.0062406999059,620.3199364999309,620.0062406999059,620.0062406999059,None,620.0062406999059,620.0062406999059,620.8204705099575,None,,,,11009,0002,2022_Feb_21_1449,localizer,2021.1.3,60.737031687669905,
block_end,faces,faces015.bmp,,,,,0,197,197,197,,,,,,,,,,,,,,,,,,,,,,,,,,,,,,,,,,,,,,,,,,None,,620.8204705099575,None,620.8204705099575,None,2022-02-21-14:59:27.561582,620.8334697999526,621.1362928000744,620.8334697999526,None,None,620.8334697999526,None,621.6358612099663,None,,,,11009,0002,2022_Feb_21_1449,localizer,2021.1.3,60.737031687669905,
null_block,null_block,null_block.bmp,,,,,0,198,198,198,,,,,,,,,,,,,,,,,,,,,,,,,,,,,,,,,,,,,,,,,,t,1.7969132999423891,621.6358060999773,None,621.6358060999773,None,2022-02-21-14:59:30.196560,623.4542276099324,None,623.4542276099324,None,None,623.4542276099324,None,623.4595455001108,None,,,,11009,0002,2022_Feb_21_1449,localizer,2021.1.3,60.737031687669905,
block_start,objects,objects072.bmp,,,,,0,199,199,199,,,,,,,,,,,,,,,,,,,,,,,,,,,,,,,,,,,,,,,,,,t,1.9623809999320656,635.4701090999879,None,635.4701090999879,None,2022-02-21-14:59:44.196548,637.4552213000134,637.7696181999054,637.4552213000134,None,None,637.4552213000134,None,638.2702107100282,None,,,,11009,0002,2022_Feb_21_1449,localizer,2021.1.3,60.737031687669905,
block,objects,objects047.bmp,,,,,0,200,200,200,,,,,,,,,,,,,,,,,,,,,,,,,,,,,,,,,,,,,,,,,,None,,638.2702107100282,None,638.2702107100282,None,2022-02-21-14:59:45.011384,638.281196600059,638.5928458000999,638.281196600059,None,None,638.281196600059,None,639.0860493100714,None,,,,11009,0002,2022_Feb_21_1449,localizer,2021.1.3,60.737031687669905,
block,objects,objects084.bmp,,,,,0,201,201,201,,,,,,,,,,,,,,,,,,,,,,,,,,,,,,,,,,,,,,,,,,None,,639.0860493100714,None,639.0860493100714,None,2022-02-21-14:59:45.827253,639.0944757000543,639.4035020999145,639.0944757000543,None,None,639.0944757000543,None,639.9053261099849,None,,,,11009,0002,2022_Feb_21_1449,localizer,2021.1.3,60.737031687669905,
block,objects,objects002.bmp,,,,,0,202,202,202,,,,,,,,,,,,,,,,,,,,,,,,,,,,,,,,,,,,,,,,,,None,,639.9053261099849,None,639.9053261099849,None,2022-02-21-14:59:46.649462,639.9093373999931,640.2198067998979,639.9093373999931,None,None,639.9093373999931,None,640.7197773099412,None,,,,11009,0002,2022_Feb_21_1449,localizer,2021.1.3,60.737031687669905,
block,objects,objects060.bmp,,,,,0,203,203,203,,,,,,,,,,,,,,,,,,,,,,,,,,,,,,,,,,,,,,,,,,None,,640.7197773099412,None,640.7197773099412,None,2022-02-21-14:59:47.460982,640.7207233998924,641.0358631999698,640.7207233998924,None,None,640.7207233998924,None,641.5362191099208,None,,,,11009,0002,2022_Feb_21_1449,localizer,2021.1.3,60.737031687669905,
block,objects,objects017.bmp,,,,,0,204,204,204,,,,,,,,,,,,,,,,,,,,,,,,,,,,,,,,,,,,,,,,,,None,,641.5362191099208,None,641.5362191099208,None,2022-02-21-14:59:48.277424,641.5372921999078,641.8367935998831,641.5372921999078,None,None,641.5372921999078,None,642.3375794099644,None,,,,11009,0002,2022_Feb_21_1449,localizer,2021.1.3,60.737031687669905,
block,objects,objects053.bmp,,,,,0,205,205,205,,,,,,,,,,,,,,,,,,,,,,,,,,,,,,,,,,,,,,,,,,None,,642.3375794099644,None,642.3375794099644,None,2022-02-21-14:59:49.080895,642.3384861999657,642.653308399953,642.3384861999657,642.3384861999657,None,642.3384861999657,642.3384861999657,643.1532079099212,None,,,,11009,0002,2022_Feb_21_1449,localizer,2021.1.3,60.737031687669905,
block,objects,objects015.bmp,,,,,0,206,206,206,,,,,,,,,,,,,,,,,,,,,,,,,,,,,,,,,,,,,,,,,,None,,643.1532079099212,None,643.1532079099212,None,2022-02-21-14:59:49.894408,643.1547703999095,643.4698350001127,643.1547703999095,None,None,643.1547703999095,None,643.9547579098959,None,,,,11009,0002,2022_Feb_21_1449,localizer,2021.1.3,60.737031687669905,
block,objects,objects064.bmp,,,,,0,207,207,207,,,,,,,,,,,,,,,,,,,,,,,,,,,,,,,,,,,,,,,,,,None,,643.9547579098959,None,643.9547579098959,None,2022-02-21-14:59:50.699902,643.9586350000463,644.2700706999749,643.9586350000463,643.9586350000463,None,643.9586350000463,643.9586350000463,644.7710536100436,None,,,,11009,0002,2022_Feb_21_1449,localizer,2021.1.3,60.737031687669905,
block,objects,objects058.bmp,,,,,0,208,208,208,,,,,,,,,,,,,,,,,,,,,,,,,,,,,,,,,,,,,,,,,,None,,644.7710536100436,None,644.7710536100436,None,2022-02-21-14:59:51.513361,644.7733533999417,645.0863526999019,644.7733533999417,None,None,644.7733533999417,None,645.5870130100753,None,,,,11009,0002,2022_Feb_21_1449,localizer,2021.1.3,60.737031687669905,
block,objects,objects085.bmp,,,,,0,209,209,209,,,,,,,,,,,,,,,,,,,,,,,,,,,,,,,,,,,,,,,,,,None,,645.5870130100753,None,645.5870130100753,None,2022-02-21-14:59:52.327935,645.5875524999574,645.8870347999036,645.5875524999574,None,None,645.5875524999574,None,646.3866769100074,None,,,,11009,0002,2022_Feb_21_1449,localizer,2021.1.3,60.737031687669905,
block,objects,objects032.bmp,,,,,0,210,210,210,,,,,,,,,,,,,,,,,,,,,,,,,,,,,,,,,,,,,,,,,,None,,646.3866769100074,None,646.3866769100074,None,2022-02-21-14:59:53.130089,646.3878736998886,646.7035278999247,646.3878736998886,646.3878736998886,None,646.3878736998886,646.3878736998886,647.2033658098895,None,,,,11009,0002,2022_Feb_21_1449,localizer,2021.1.3,60.737031687669905,
block,objects,objects040.bmp,,,,,0,211,211,211,,,,,,,,,,,,,,,,,,,,,,,,,,,,,,,,,,,,,,,,,,None,,647.2033658098895,None,647.2033658098895,None,2022-02-21-14:59:53.943573,647.205334899947,647.5044644000009,647.205334899947,None,None,647.205334899947,None,648.0202272100374,None,,,,11009,0002,2022_Feb_21_1449,localizer,2021.1.3,60.737031687669905,
block,objects,objects038.bmp,,,,,0,212,212,212,,,,,,,,,,,,,,,,,,,,,,,,,,,,,,,,,,,,,,,,,,None,,648.0202272100374,None,648.0202272100374,None,2022-02-21-14:59:54.761604,648.0209778000135,648.3200598999392,648.0209778000135,None,None,648.0209778000135,None,648.8210608099122,None,,,,11009,0002,2022_Feb_21_1449,localizer,2021.1.3,60.737031687669905,
block_end,objects,objects073.bmp,,,,,0,213,213,213,,,,,,,,,,,,,,,,,,,,,,,,,,,,,,,,,,,,,,,,,,None,,648.8210608099122,None,648.8210608099122,None,2022-02-21-14:59:55.565422,648.8253216999583,649.1364207000006,648.8253216999583,648.8253216999583,None,648.8253216999583,648.8253216999583,649.6370329099242,None,,,,11009,0002,2022_Feb_21_1449,localizer,2021.1.3,60.737031687669905,
block_start,scenes,scenes048.bmp,,,,,0,214,214,214,,,,,,,,,,,,,,,,,,,,,,,,,,,,,,,,,,,,,,,,,,t,1.7957015000283718,649.6368038000073,None,649.6368038000073,None,2022-02-21-14:59:58.192792,651.4628194000106,651.7700354999397,651.4628194000106,None,None,651.4628194000106,None,652.2702661099844,None,,,,11009,0002,2022_Feb_21_1449,localizer,2021.1.3,60.737031687669905,
block,scenes,scenes035.bmp,,,,,0,215,215,215,,,,,,,,,,,,,,,,,,,,,,,,,,,,,,,,,,,,,,,,,,None,,652.2702661099844,None,652.2702661099844,None,2022-02-21-14:59:59.011461,652.2709309000056,652.5864325999282,652.2709309000056,None,None,652.2709309000056,None,653.0701355099678,None,,,,11009,0002,2022_Feb_21_1449,localizer,2021.1.3,60.737031687669905,
block,scenes,scenes030.bmp,,,,,0,216,216,216,,,,,,,,,,,,,,,,,,,,,,,,,,,,,,,,,,,,,,,,,,None,,653.0701355099678,None,653.0701355099678,None,2022-02-21-14:59:59.813510,653.0821666000411,653.3864974000026,653.0821666000411,653.0821666000411,None,653.0821666000411,653.0821666000411,653.8868267099839,None,,,,11009,0002,2022_Feb_21_1449,localizer,2021.1.3,60.737031687669905,
block,scenes,scenes057.bmp,,,,,0,217,217,217,,,,,,,,,,,,,,,,,,,,,,,,,,,,,,,,,,,,,,,,,,None,,653.8868267099839,None,653.8868267099839,None,2022-02-21-15:00:00.628223,653.8875043001026,654.203452100046,653.8875043001026,None,None,653.8875043001026,None,654.6872483099811,None,,,,11009,0002,2022_Feb_21_1449,localizer,2021.1.3,60.737031687669905,
block,scenes,scenes076.bmp,,,,,0,218,218,218,,,,,,,,,,,,,,,,,,,,,,,,,,,,,,,,,,,,,,,,,,None,,654.6872483099811,None,654.6872483099811,None,2022-02-21-15:00:01.431508,654.6901569999754,655.0028182000387,654.6901569999754,654.6901569999754,None,654.6901569999754,654.6901569999754,655.5096075100824,None,,,,11009,0002,2022_Feb_21_1449,localizer,2021.1.3,60.737031687669905,
block,scenes,scenes028.bmp,,,,,0,219,219,219,,,,,,,,,,,,,,,,,,,,,,,,,,,,,,,,,,,,,,,,,,None,,655.5096075100824,None,655.5096075100824,None,2022-02-21-15:00:02.258661,655.5153892999515,655.819222799968,655.5153892999515,None,None,655.5153892999515,None,656.3205638100859,None,,,,11009,0002,2022_Feb_21_1449,localizer,2021.1.3,60.737031687669905,
block,scenes,scenes063.bmp,,,,,0,220,220,220,,,,,,,,,,,,,,,,,,,,,,,,,,,,,,,,,,,,,,,,,,None,,656.3205638100859,None,656.3205638100859,None,2022-02-21-15:00:03.062905,656.3212516000494,656.6214286999311,656.3212516000494,None,None,656.3212516000494,None,657.1264891099651,None,,,,11009,0002,2022_Feb_21_1449,localizer,2021.1.3,60.737031687669905,
block,scenes,scenes055.bmp,,,,,0,221,221,221,,,,,,,,,,,,,,,,,,,,,,,,,,,,,,,,,,,,,,,,,,None,,657.1264891099651,None,657.1264891099651,None,2022-02-21-15:00:03.871677,657.1308617000468,657.4361819000915,657.1308617000468,None,None,657.1308617000468,None,657.936885310011,None,,,,11009,0002,2022_Feb_21_1449,localizer,2021.1.3,60.737031687669905,
block,scenes,scenes081.bmp,,,,,0,222,222,222,,,,,,,,,,,,,,,,,,,,,,,,,,,,,,,,,,,,,,,,,,None,,657.936885310011,None,657.936885310011,None,2022-02-21-15:00:04.678294,657.9374963999726,658.2369270999916,657.9374963999726,None,None,657.9374963999726,None,658.7432832099963,None,,,,11009,0002,2022_Feb_21_1449,localizer,2021.1.3,60.737031687669905,
block,scenes,scenes089.bmp,,,,,0,223,223,223,,,,,,,,,,,,,,,,,,,,,,,,,,,,,,,,,,,,,,,,,,None,,658.7432832099963,None,658.7432832099963,None,2022-02-21-15:00:05.490492,658.7606124000158,659.0699692000635,658.7606124000158,None,None,658.7606124000158,None,659.5533786100801,None,,,,11009,0002,2022_Feb_21_1449,localizer,2021.1.3,60.737031687669905,
block,scenes,scenes073.bmp,,,,,0,224,224,224,,,,,,,,,,,,,,,,,,,,,,,,,,,,,,,,,,,,,,,,,,None,,659.5533786100801,None,659.5533786100801,None,2022-02-21-15:00:06.294791,659.5554931000806,659.8698899000883,659.5554931000806,None,None,659.5554931000806,None,660.3702451099176,None,,,,11009,0002,2022_Feb_21_1449,localizer,2021.1.3,60.737031687669905,
block,scenes,scenes043.bmp,,,,,0,225,225,225,,,,,,,,,,,,,,,,,,,,,,,,,,,,,,,,,,,,,,,,,,None,,660.3702451099176,None,660.3702451099176,None,2022-02-21-15:00:07.111441,660.3712869998999,660.686733199982,660.3712869998999,None,None,660.3712869998999,None,661.1867947100196,None,,,,11009,0002,2022_Feb_21_1449,localizer,2021.1.3,60.737031687669905,
block,scenes,scenes050.bmp,,,,,0,226,226,226,,,,,,,,,,,,,,,,,,,,,,,,,,,,,,,,,,,,,,,,,,None,,661.1867947100196,None,661.1867947100196,None,2022-02-21-15:00:07.928194,661.187785099959,661.5027890999336,661.187785099959,None,None,661.187785099959,None,662.0034717099276,None,,,,11009,0002,2022_Feb_21_1449,localizer,2021.1.3,60.737031687669905,
block,scenes,scenes027.bmp,,,,,0,227,227,227,,,,,,,,,,,,,,,,,,,,,,,,,,,,,,,,,,,,,,,,,,None,,662.0034717099276,None,662.0034717099276,None,2022-02-21-15:00:08.744879,662.0042864000425,662.3197556000669,662.0042864000425,None,None,662.0042864000425,None,662.8034582099878,None,,,,11009,0002,2022_Feb_21_1449,localizer,2021.1.3,60.737031687669905,
block_end,scenes,scenes010.bmp,,,,,0,228,228,228,,,,,,,,,,,,,,,,,,,,,,,,,,,,,,,,,,,,,,,,,,None,,662.8034582099878,None,662.8034582099878,None,2022-02-21-15:00:09.545959,662.8040736999828,663.1037367000245,662.8040736999828,662.8040736999828,None,662.8040736999828,662.8040736999828,663.6033711099532,None,,,,11009,0002,2022_Feb_21_1449,localizer,2021.1.3,60.737031687669905,
block_start,scrambled,scrambled069.bmp,,,,,0,229,229,229,,,,,,,,,,,,,,,,,,,,,,,,,,,,,,,,,,,,,,,,,,t,1.8294697999954224,663.6030991000589,None,663.6030991000589,None,2022-02-21-15:00:12.196342,665.4658502000384,665.7699265999254,665.4658502000384,None,None,665.4658502000384,None,666.2712412100751,None,,,,11009,0002,2022_Feb_21_1449,localizer,2021.1.3,60.737031687669905,
block,scrambled,scrambled058.bmp,,,,,0,230,230,230,,,,,,,,,,,,,,,,,,,,,,,,,,,,,,,,,,,,,,,,,,None,,666.2712412100751,None,666.2712412100751,None,2022-02-21-15:00:13.014307,666.2738886999432,666.5930347000249,666.2738886999432,None,None,666.2738886999432,None,667.0879532100167,None,,,,11009,0002,2022_Feb_21_1449,localizer,2021.1.3,60.737031687669905,
block,scrambled,scrambled087.bmp,,,,,0,231,231,231,,,,,,,,,,,,,,,,,,,,,,,,,,,,,,,,,,,,,,,,,,None,,667.0879532100167,None,667.0879532100167,None,2022-02-21-15:00:13.830270,667.0990573000163,667.4034975001123,667.0990573000163,None,None,667.0990573000163,None,667.9049237099476,None,,,,11009,0002,2022_Feb_21_1449,localizer,2021.1.3,60.737031687669905,
block,scrambled,scrambled044.bmp,,,,,0,232,232,232,,,,,,,,,,,,,,,,,,,,,,,,,,,,,,,,,,,,,,,,,,None,,667.9049237099476,None,667.9049237099476,None,2022-02-21-15:00:14.648661,667.9139483000617,668.2201924999245,667.9139483000617,None,None,667.9139483000617,None,668.7202686100733,None,,,,11009,0002,2022_Feb_21_1449,localizer,2021.1.3,60.737031687669905,
block,scrambled,scrambled077.bmp,,,,,0,233,233,233,,,,,,,,,,,,,,,,,,,,,,,,,,,,,,,,,,,,,,,,,,None,,668.7202686100733,None,668.7202686100733,None,2022-02-21-15:00:15.461664,668.7312713998836,669.0372731001116,668.7312713998836,None,None,668.7312713998836,None,669.5367628099863,None,,,,11009,0002,2022_Feb_21_1449,localizer,2021.1.3,60.737031687669905,
block,scrambled,scrambled074.bmp,,,,,0,234,234,234,,,,,,,,,,,,,,,,,,,,,,,,,,,,,,,,,,,,,,,,,,None,,669.5367628099863,None,669.5367628099863,None,2022-02-21-15:00:16.277906,669.5375359999016,669.836637099972,669.5375359999016,None,None,669.5375359999016,None,670.3368767100852,None,,,,11009,0002,2022_Feb_21_1449,localizer,2021.1.3,60.737031687669905,
block,scrambled,scrambled021.bmp,,,,,0,235,235,235,,,,,,,,,,,,,,,,,,,,,,,,,,,,,,,,,,,,,,,,,,None,,670.3368767100852,None,670.3368767100852,None,2022-02-21-15:00:17.080070,670.3381574999075,670.653356899973,670.3381574999075,670.3381574999075,None,670.3381574999075,670.3381574999075,671.1534595099744,None,,,,11009,0002,2022_Feb_21_1449,localizer,2021.1.3,60.737031687669905,
block,scrambled,scrambled045.bmp,,,,,0,236,236,236,,,,,,,,,,,,,,,,,,,,,,,,,,,,,,,,,,,,,,,,,,None,,671.1534595099744,None,671.1534595099744,None,2022-02-21-15:00:17.895020,671.1640176000074,671.4699504999444,671.1640176000074,None,None,671.1640176000074,None,671.971029909933,None,,,,11009,0002,2022_Feb_21_1449,localizer,2021.1.3,60.737031687669905,
block,scrambled,scrambled086.bmp,,,,,0,237,237,237,,,,,,,,,,,,,,,,,,,,,,,,,,,,,,,,,,,,,,,,,,None,,671.971029909933,None,671.971029909933,None,2022-02-21-15:00:18.715212,671.985218900023,672.2872186000459,671.985218900023,None,None,671.985218900023,None,672.7867739099544,None,,,,11009,0002,2022_Feb_21_1449,localizer,2021.1.3,60.737031687669905,
block,scrambled,scrambled054.bmp,,,,,0,238,238,238,,,,,,,,,,,,,,,,,,,,,,,,,,,,,,,,,,,,,,,,,,None,,672.7867739099544,None,672.7867739099544,None,2022-02-21-15:00:19.528178,672.7875508998986,673.0867216999177,672.7875508998986,None,None,672.7875508998986,None,673.5887470100075,None,,,,11009,0002,2022_Feb_21_1449,localizer,2021.1.3,60.737031687669905,
block,scrambled,scrambled072.bmp,,,,,0,239,239,239,,,,,,,,,,,,,,,,,,,,,,,,,,,,,,,,,,,,,,,,,,None,,673.5887470100075,None,673.5887470100075,None,2022-02-21-15:00:20.332242,673.5992286999244,673.9034265000373,673.5992286999244,673.5992286999244,None,673.5992286999244,673.5992286999244,674.4045776099898,None,,,,11009,0002,2022_Feb_21_1449,localizer,2021.1.3,60.737031687669905,
block,scrambled,scrambled009.bmp,,,,,0,240,240,240,,,,,,,,,,,,,,,,,,,,,,,,,,,,,,,,,,,,,,,,,,None,,674.4045776099898,None,674.4045776099898,None,2022-02-21-15:00:21.146757,674.4066427999642,674.7200237999205,674.4066427999642,None,None,674.4066427999642,None,675.2202140098904,None,,,,11009,0002,2022_Feb_21_1449,localizer,2021.1.3,60.737031687669905,
block,scrambled,scrambled003.bmp,,,,,0,241,241,241,,,,,,,,,,,,,,,,,,,,,,,,,,,,,,,,,,,,,,,,,,None,,675.2202140098904,None,675.2202140098904,None,2022-02-21-15:00:21.961414,675.2300545999315,675.5366954999045,675.2300545999315,None,None,675.2300545999315,None,676.0364423099905,None,,,,11009,0002,2022_Feb_21_1449,localizer,2021.1.3,60.737031687669905,
block,scrambled,scrambled018.bmp,,,,,0,242,242,242,,,,,,,,,,,,,,,,,,,,,,,,,,,,,,,,,,,,,,,,,,None,,676.0364423099905,None,676.0364423099905,None,2022-02-21-15:00:22.777644,676.0376073000953,676.3534478000365,676.0376073000953,None,None,676.0376073000953,None,676.8378725099843,None,,,,11009,0002,2022_Feb_21_1449,localizer,2021.1.3,60.737031687669905,
block_end,scrambled,scrambled061.bmp,,,,,0,243,243,243,,,,,,,,,,,,,,,,,,,,,,,,,,,,,,,,,,,,,,,,,,None,,676.8378725099843,None,676.8378725099843,None,2022-02-21-15:00:23.580946,676.8394436999224,677.1537057000678,676.8394436999224,676.8394436999224,None,676.8394436999224,676.8394436999224,677.6545607099775,None,,,,11009,0002,2022_Feb_21_1449,localizer,2021.1.3,60.737031687669905,
,,,,,,,,,,,,,,,,,,,,,,,,,,,,,,,,,,,,,,,,,,,,,,,,,,,,,,,,,,,,,,,,,,,,,677.6580763999373,None,,,,,,,
