block_type,condition,img_name,Button.thisRepN,Button.thisTrialN,Button.thisN,Button.thisIndex,trials.thisRepN,trials.thisTrialN,trials.thisN,trials.thisIndex,Ready_experimenter_text.started,Ready_experimenter_text.stopped,Ready_experimenter_resp.keys,Ready_experimenter_resp.rt,Ready_experimenter_resp.started,Ready_experimenter_resp.stopped,Alignment_background.started,Alignment_background.stopped,Alignment_image.started,Alignment_image.stopped,Alignment_resp.keys,Alignment_resp.rt,Alignment_resp.started,Alignment_resp.stopped,Button_text.started,Button_text.stopped,Index_text.started,Index_text.stopped,Index_resp.keys,Index_resp.rt,Index_resp.started,Index_resp.stopped,Middle_text.started,Middle_text.stopped,Middle_resp.keys,Middle_resp.rt,Middle_resp.started,Middle_resp.stopped,Repeat_text.started,Repeat_text.stopped,Repeat_resp.keys,Repeat_resp.corr,Repeat_resp.rt,Repeat_resp.started,Repeat_resp.stopped,instruction_text.started,instruction_text.stopped,key_resp.keys,key_resp.rt,key_resp.started,key_resp.stopped,scanner_t.keys,scanner_t.rt,scanner_t.started,scanner_t.stopped,fixation_wait_for_t.started,fixation_wait_for_t.stopped,real_timestamp_trial_start,image.started,image.stopped,fixation.started,fixation.stopped,repeat_response.keys,repeat_response.started,repeat_response.stopped,fixation_null.started,fixation_null.stopped,repeat_response.rt,end_text.started,end_text.stopped,participant,run,date,expName,psychopyVersion,frameRate,
,,,,,,,,,,,8.4804465000052,None,return,55.83983970002737,8.4804465000052,None,,,,,,,,,,,,,,,,,,,,,,,,,,,,,,,,,,,,,,,,,,,,,,,,,,,,,,,22005,0001,2022_Mar_04_1150,localizer,2021.1.3,61.04909201683444,
,,,,,,,,,,,,,,,,,64.37614599999506,None,64.37614599999506,None,return,9.595550400088541,64.37614599999506,None,,,,,,,,,,,,,,,,,,,,,,,,,,,,,,,,,,,,,,,,,,,,,,,22005,0001,2022_Mar_04_1150,localizer,2021.1.3,61.04909201683444,
,,,0,0,0,0,,,,,,,,,,,,,,,,,,,74.00123590009753,None,75.01505190005992,None,y,3.2305032999720424,75.01505190005992,None,78.26441579998937,None,b,1.2162808999419212,78.26441579998937,None,79.49823250004556,None,n,0,39.392336899996735,79.49823250004556,None,,,,,,,,,,,,,,,,,,,,,,,,,,22005,0001,2022_Mar_04_1150,localizer,2021.1.3,61.04909201683444,
,,,,,,,,,,,,,,,,,,,,,,,,,,,,,,,,,,,,,,,,,,,,,,118.91449990007095,None,y,7.920876299962401,118.91449990007095,None,,,,,,,,,,,,,,,,,,,,22005,0001,2022_Mar_04_1150,localizer,2021.1.3,61.04909201683444,
null_block,null_block,null_block.bmp,,,,,0,0,0,0,,,,,,,,,,,,,,,,,,,,,,,,,,,,,,,,,,,,,,,,,,t,16.512687299982645,126.92966590006836,None,126.92966590006836,None,2022-03-04-11:52:25.014528,143.480305780028,None,143.480305780028,None,None,143.480305780028,None,143.48205610003788,None,,,,22005,0001,2022_Mar_04_1150,localizer,2021.1.3,61.04909201683444,
block_start,objects,objects001.bmp,,,,,0,1,1,1,,,,,,,,,,,,,,,,,,,,,,,,,,,,,,,,,,,,,,,,,,t,1.9443897000746801,155.49801079998724,None,155.49801079998724,None,2022-03-04-11:52:39.019884,157.47912850009743,157.78109450009651,157.47912850009743,None,None,157.47912850009743,None,158.28135914009763,None,,,,22005,0001,2022_Mar_04_1150,localizer,2021.1.3,61.04909201683444,
block,objects,objects077.bmp,,,,,0,2,2,2,,,,,,,,,,,,,,,,,,,,,,,,,,,,,,,,,,,,,,,,,,None,,158.28135914009763,None,158.28135914009763,None,2022-03-04-11:52:39.833864,158.29505010007415,158.59764870000072,158.29505010007415,None,None,158.29505010007415,None,159.10352144009667,None,,,,22005,0001,2022_Mar_04_1150,localizer,2021.1.3,61.04909201683444,
block,objects,objects046.bmp,,,,,0,3,3,3,,,,,,,,,,,,,,,,,,,,,,,,,,,,,,,,,,,,,,,,,,None,,159.10352144009667,None,159.10352144009667,None,2022-03-04-11:52:40.662012,159.1186806000769,159.43118070007768,159.1186806000769,None,None,159.1186806000769,None,159.9145885400125,None,,,,22005,0001,2022_Mar_04_1150,localizer,2021.1.3,61.04909201683444,
block,objects,objects032.bmp,,,,,0,4,4,4,,,,,,,,,,,,,,,,,,,,,,,,,,,,,,,,,,,,,,,,,,None,,159.9145885400125,None,159.9145885400125,None,2022-03-04-11:52:41.466099,159.9223242000444,160.23111150006298,159.9223242000444,None,None,159.9223242000444,None,160.73307344006608,None,,,,22005,0001,2022_Mar_04_1150,localizer,2021.1.3,61.04909201683444,
block,objects,objects026.bmp,,,,,0,5,5,5,,,,,,,,,,,,,,,,,,,,,,,,,,,,,,,,,,,,,,,,,,None,,160.73307344006608,None,160.73307344006608,None,2022-03-04-11:52:42.286597,160.74779610009864,161.0475174000021,160.74779610009864,None,None,160.74779610009864,None,161.54765454008012,None,,,,22005,0001,2022_Mar_04_1150,localizer,2021.1.3,61.04909201683444,
block,objects,objects009.bmp,,,,,0,6,6,6,,,,,,,,,,,,,,,,,,,,,,,,,,,,,,,,,,,,,,,,,,None,,161.54765454008012,None,161.54765454008012,None,2022-03-04-11:52:43.099355,161.55883770005312,161.8643454000121,161.55883770005312,None,None,161.55883770005312,None,162.36459114010214,None,,,,22005,0001,2022_Mar_04_1150,localizer,2021.1.3,61.04909201683444,
block,objects,objects035.bmp,,,,,0,7,7,7,,,,,,,,,,,,,,,,,,,,,,,,,,,,,,,,,,,,,,,,,,None,,162.36459114010214,None,162.36459114010214,None,2022-03-04-11:52:43.916099,162.37668860005215,162.68141650001053,162.37668860005215,None,None,162.37668860005215,None,163.18056554001524,None,,,,22005,0001,2022_Mar_04_1150,localizer,2021.1.3,61.04909201683444,
block,objects,objects008.bmp,,,,,0,8,8,8,,,,,,,,,,,,,,,,,,,,,,,,,,,,,,,,,,,,,,,,,,None,,163.18056554001524,None,163.18056554001524,None,2022-03-04-11:52:44.731087,163.1910526000429,163.49749880004674,163.1910526000429,None,None,163.1910526000429,None,163.99852974006208,None,,,,22005,0001,2022_Mar_04_1150,localizer,2021.1.3,61.04909201683444,
block,objects,objects039.bmp,,,,,0,9,9,9,,,,,,,,,,,,,,,,,,,,,,,,,,,,,,,,,,,,,,,,,,None,,163.99852974006208,None,163.99852974006208,None,2022-03-04-11:52:45.550206,164.01131370000076,164.31439950002823,164.01131370000076,None,None,164.01131370000076,None,164.8144195400295,None,,,,22005,0001,2022_Mar_04_1150,localizer,2021.1.3,61.04909201683444,
block,objects,objects014.bmp,,,,,0,10,10,10,,,,,,,,,,,,,,,,,,,,,,,,,,,,,,,,,,,,,,,,,,None,,164.8144195400295,None,164.8144195400295,None,2022-03-04-11:52:46.366125,164.822464600089,165.13126230007038,164.822464600089,None,None,164.822464600089,None,165.6317755401018,None,,,,22005,0001,2022_Mar_04_1150,localizer,2021.1.3,61.04909201683444,
block,objects,objects079.bmp,,,,,0,11,11,11,,,,,,,,,,,,,,,,,,,,,,,,,,,,,,,,,,,,,,,,,,None,,165.6317755401018,None,165.6317755401018,None,2022-03-04-11:52:47.184654,165.64640010008588,165.94756980007514,165.64640010008588,None,None,165.64640010008588,None,166.4480586400372,None,,,,22005,0001,2022_Mar_04_1150,localizer,2021.1.3,61.04909201683444,
block,objects,objects025.bmp,,,,,0,12,12,12,,,,,,,,,,,,,,,,,,,,,,,,,,,,,,,,,,,,,,,,,,None,,166.4480586400372,None,166.4480586400372,None,2022-03-04-11:52:47.999764,166.46021500008646,166.76445850008167,166.46021500008646,None,None,166.46021500008646,None,167.26394703999395,None,,,,22005,0001,2022_Mar_04_1150,localizer,2021.1.3,61.04909201683444,
block,objects,objects022.bmp,,,,,0,13,13,13,,,,,,,,,,,,,,,,,,,,,,,,,,,,,,,,,,,,,,,,,,None,,167.26394703999395,None,167.26394703999395,None,2022-03-04-11:52:48.814471,167.27317820000462,167.58125520008616,167.27317820000462,None,None,167.27317820000462,None,168.08082814005903,None,,,,22005,0001,2022_Mar_04_1150,localizer,2021.1.3,61.04909201683444,
block,objects,objects085.bmp,,,,,0,14,14,14,,,,,,,,,,,,,,,,,,,,,,,,,,,,,,,,,,,,,,,,,,None,,168.08082814005903,None,168.08082814005903,None,2022-03-04-11:52:49.631783,168.09222140000202,168.40375270007644,168.09222140000202,None,None,168.09222140000202,None,168.89828813999193,None,,,,22005,0001,2022_Mar_04_1150,localizer,2021.1.3,61.04909201683444,
block_end,objects,objects053.bmp,,,,,0,15,15,15,,,,,,,,,,,,,,,,,,,,,,,,,,,,,,,,,,,,,,,,,,None,,168.89828813999193,None,168.89828813999193,None,2022-03-04-11:52:50.447932,168.90315090003423,169.21447550004814,168.90315090003423,None,None,168.90315090003423,None,169.71409254000756,None,,,,22005,0001,2022_Mar_04_1150,localizer,2021.1.3,61.04909201683444,
block_start,faces,faces002.bmp,,,,,0,16,16,16,,,,,,,,,,,,,,,,,,,,,,,,,,,,,,,,,,,,,,,,,,t,1.727889999980107,169.71452170005068,None,169.71452170005068,None,2022-03-04-11:52:53.015933,171.47782390005887,171.78099600004498,171.47782390005887,None,None,171.47782390005887,None,172.2806580399978,None,,,,22005,0001,2022_Mar_04_1150,localizer,2021.1.3,61.04909201683444,
block,faces,faces061.bmp,,,,,0,17,17,17,,,,,,,,,,,,,,,,,,,,,,,,,,,,,,,,,,,,,,,,,,None,,172.2806580399978,None,172.2806580399978,None,2022-03-04-11:52:53.831435,172.2923579000635,172.59765670006163,172.2923579000635,None,None,172.2923579000635,None,173.09748764001998,None,,,,22005,0001,2022_Mar_04_1150,localizer,2021.1.3,61.04909201683444,
block,faces,faces011.bmp,,,,,0,18,18,18,,,,,,,,,,,,,,,,,,,,,,,,,,,,,,,,,,,,,,,,,,None,,173.09748764001998,None,173.09748764001998,None,2022-03-04-11:52:54.648010,173.10729990003165,173.41467870003544,173.10729990003165,None,None,173.10729990003165,None,173.9139567400911,None,,,,22005,0001,2022_Mar_04_1150,localizer,2021.1.3,61.04909201683444,
block,faces,faces084.bmp,,,,,0,19,19,19,,,,,,,,,,,,,,,,,,,,,,,,,,,,,,,,,,,,,,,,,,None,,173.9139567400911,None,173.9139567400911,None,2022-03-04-11:52:55.465089,173.92602540005464,174.23116200009827,173.92602540005464,None,None,173.92602540005464,None,174.7307903400273,None,,,,22005,0001,2022_Mar_04_1150,localizer,2021.1.3,61.04909201683444,
block,faces,faces088.bmp,,,,,0,20,20,20,,,,,,,,,,,,,,,,,,,,,,,,,,,,,,,,,,,,,,,,,,None,,174.7307903400273,None,174.7307903400273,None,2022-03-04-11:52:56.281311,174.74327630002517,175.04768489999697,174.74327630002517,None,None,174.74327630002517,None,175.54757274003933,None,,,,22005,0001,2022_Mar_04_1150,localizer,2021.1.3,61.04909201683444,
block,faces,faces086.bmp,,,,,0,21,21,21,,,,,,,,,,,,,,,,,,,,,,,,,,,,,,,,,,,,,,,,,,None,,175.54757274003933,None,175.54757274003933,None,2022-03-04-11:52:57.098089,175.5578706000233,175.86437399999704,175.5578706000233,None,None,175.5578706000233,None,176.36421454002848,None,,,,22005,0001,2022_Mar_04_1150,localizer,2021.1.3,61.04909201683444,
block,faces,faces059.bmp,,,,,0,22,22,22,,,,,,,,,,,,,,,,,,,,,,,,,,,,,,,,,,,,,,,,,,None,,176.36421454002848,None,176.36421454002848,None,2022-03-04-11:52:57.916064,176.3761573000811,176.68098900001496,176.3761573000811,None,None,176.3761573000811,None,177.1810983399977,None,,,,22005,0001,2022_Mar_04_1150,localizer,2021.1.3,61.04909201683444,
block,faces,faces031.bmp,,,,,0,23,23,23,,,,,,,,,,,,,,,,,,,,,,,,,,,,,,,,,,,,,,,,,,None,,177.1810983399977,None,177.1810983399977,None,2022-03-04-11:52:58.732710,177.19211820000783,177.49831330007873,177.19211820000783,None,None,177.19211820000783,None,177.9971651400323,None,,,,22005,0001,2022_Mar_04_1150,localizer,2021.1.3,61.04909201683444,
block,faces,faces062.bmp,,,,,0,24,24,24,,,,,,,,,,,,,,,,,,,,,,,,,,,,,,,,,,,,,,,,,,None,,177.9971651400323,None,177.9971651400323,None,2022-03-04-11:52:59.547692,178.00654460000806,178.3144288000185,178.00654460000806,None,None,178.00654460000806,None,178.81402724006912,None,,,,22005,0001,2022_Mar_04_1150,localizer,2021.1.3,61.04909201683444,
block,faces,faces010.bmp,,,,,0,25,25,25,,,,,,,,,,,,,,,,,,,,,,,,,,,,,,,,,,,,,,,,,,None,,178.81402724006912,None,178.81402724006912,None,2022-03-04-11:53:00.364549,178.8248247000156,179.13109180005267,178.8248247000156,None,None,178.8248247000156,None,179.63070294008358,None,,,,22005,0001,2022_Mar_04_1150,localizer,2021.1.3,61.04909201683444,
block,faces,faces042.bmp,,,,,0,26,26,26,,,,,,,,,,,,,,,,,,,,,,,,,,,,,,,,,,,,,,,,,,None,,179.63070294008358,None,179.63070294008358,None,2022-03-04-11:53:01.181223,179.6404144000262,179.94762310001533,179.6404144000262,None,None,179.6404144000262,None,180.44805924004177,None,,,,22005,0001,2022_Mar_04_1150,localizer,2021.1.3,61.04909201683444,
block,faces,faces089.bmp,,,,,0,27,27,27,,,,,,,,,,,,,,,,,,,,,,,,,,,,,,,,,,,,,,,,,,None,,180.44805924004177,None,180.44805924004177,None,2022-03-04-11:53:01.999761,180.46039090002887,180.76476340007503,180.46039090002887,None,None,180.46039090002887,None,181.264410040027,None,,,,22005,0001,2022_Mar_04_1150,localizer,2021.1.3,61.04909201683444,
block,faces,faces008.bmp,,,,,0,28,28,28,,,,,,,,,,,,,,,,,,,,,,,,,,,,,,,,,,,,,,,,,,None,,181.264410040027,None,181.264410040027,None,2022-03-04-11:53:02.815924,181.27739820000716,181.5813112000469,181.27739820000716,None,None,181.27739820000716,None,182.0814093400608,None,,,,22005,0001,2022_Mar_04_1150,localizer,2021.1.3,61.04909201683444,
block,faces,faces055.bmp,,,,,0,29,29,29,,,,,,,,,,,,,,,,,,,,,,,,,,,,,,,,,,,,,,,,,,None,,182.0814093400608,None,182.0814093400608,None,2022-03-04-11:53:03.633595,182.09516590007115,182.39779090008233,182.09516590007115,None,None,182.09516590007115,None,182.897922139999,None,,,,22005,0001,2022_Mar_04_1150,localizer,2021.1.3,61.04909201683444,
block_end,faces,faces058.bmp,,,,,0,30,30,30,,,,,,,,,,,,,,,,,,,,,,,,,,,,,,,,,,,,,,,,,,None,,182.897922139999,None,182.897922139999,None,2022-03-04-11:53:04.449430,182.90743140003178,183.22057140001561,182.90743140003178,None,None,182.90743140003178,None,183.7139850400039,None,,,,22005,0001,2022_Mar_04_1150,localizer,2021.1.3,61.04909201683444,
block_start,scenes,scenes042.bmp,,,,,0,31,31,31,,,,,,,,,,,,,,,,,,,,,,,,,,,,,,,,,,,,,,,,,,t,1.728116700076498,183.71433450002223,None,183.71433450002223,None,2022-03-04-11:53:07.017507,185.47897030005697,185.78120440000203,185.47897030005697,None,None,185.47897030005697,None,186.28067283999408,None,,,,22005,0001,2022_Mar_04_1150,localizer,2021.1.3,61.04909201683444,
block,scenes,scenes011.bmp,,,,,0,32,32,32,,,,,,,,,,,,,,,,,,,,,,,,,,,,,,,,,,,,,,,,,,None,,186.28067283999408,None,186.28067283999408,None,2022-03-04-11:53:07.831223,186.29054600000381,186.59799939999357,186.29054600000381,None,None,186.29054600000381,None,187.09875243998832,None,,,,22005,0001,2022_Mar_04_1150,localizer,2021.1.3,61.04909201683444,
block,scenes,scenes015.bmp,,,,,0,33,33,33,,,,,,,,,,,,,,,,,,,,,,,,,,,,,,,,,,,,,,,,,,None,,187.09875243998832,None,187.09875243998832,None,2022-03-04-11:53:08.650255,187.11416990007274,187.4143163000699,187.11416990007274,None,None,187.11416990007274,None,187.91419234002242,None,,,,22005,0001,2022_Mar_04_1150,localizer,2021.1.3,61.04909201683444,
block,scenes,scenes027.bmp,,,,,0,34,34,34,,,,,,,,,,,,,,,,,,,,,,,,,,,,,,,,,,,,,,,,,,None,,187.91419234002242,None,187.91419234002242,None,2022-03-04-11:53:09.464714,187.92471210006624,188.2314512000885,187.92471210006624,None,None,187.92471210006624,None,188.73736504003173,None,,,,22005,0001,2022_Mar_04_1150,localizer,2021.1.3,61.04909201683444,
block,scenes,scenes017.bmp,,,,,0,35,35,35,,,,,,,,,,,,,,,,,,,,,,,,,,,,,,,,,,,,,,,,,,None,,188.73736504003173,None,188.73736504003173,None,2022-03-04-11:53:10.293705,188.75535370002035,189.0646117000142,188.75535370002035,None,None,188.75535370002035,None,189.54751214004355,None,,,,22005,0001,2022_Mar_04_1150,localizer,2021.1.3,61.04909201683444,
block,scenes,scenes050.bmp,,,,,0,36,36,36,,,,,,,,,,,,,,,,,,,,,,,,,,,,,,,,,,,,,,,,,,None,,189.54751214004355,None,189.54751214004355,None,2022-03-04-11:53:11.098034,189.557510200073,189.86497500003316,189.557510200073,None,None,189.557510200073,None,190.3654755400843,None,,,,22005,0001,2022_Mar_04_1150,localizer,2021.1.3,61.04909201683444,
block,scenes,scenes080.bmp,,,,,0,37,37,37,,,,,,,,,,,,,,,,,,,,,,,,,,,,,,,,,,,,,,,,,,None,,190.3654755400843,None,190.3654755400843,None,2022-03-04-11:53:11.918158,190.38008290005382,190.681160200038,190.38008290005382,None,None,190.38008290005382,None,191.18148814005545,None,,,,22005,0001,2022_Mar_04_1150,localizer,2021.1.3,61.04909201683444,
block,scenes,scenes078.bmp,,,,,0,38,38,38,,,,,,,,,,,,,,,,,,,,,,,,,,,,,,,,,,,,,,,,,,None,,191.18148814005545,None,191.18148814005545,None,2022-03-04-11:53:12.733177,191.19153630000073,191.49847720004618,191.19153630000073,None,None,191.19153630000073,None,191.99773534006673,None,,,,22005,0001,2022_Mar_04_1150,localizer,2021.1.3,61.04909201683444,
block,scenes,scenes037.bmp,,,,,0,39,39,39,,,,,,,,,,,,,,,,,,,,,,,,,,,,,,,,,,,,,,,,,,None,,191.99773534006673,None,191.99773534006673,None,2022-03-04-11:53:13.549595,192.0090570000466,192.31438390002586,192.0090570000466,None,None,192.0090570000466,None,192.81373374004616,None,,,,22005,0001,2022_Mar_04_1150,localizer,2021.1.3,61.04909201683444,
block,scenes,scenes010.bmp,,,,,0,40,40,40,,,,,,,,,,,,,,,,,,,,,,,,,,,,,,,,,,,,,,,,,,None,,192.81373374004616,None,192.81373374004616,None,2022-03-04-11:53:14.364192,192.8227121999953,193.13127430004533,192.8227121999953,None,None,192.8227121999953,None,193.63102184006712,None,,,,22005,0001,2022_Mar_04_1150,localizer,2021.1.3,61.04909201683444,
block,scenes,scenes058.bmp,,,,,0,41,41,41,,,,,,,,,,,,,,,,,,,,,,,,,,,,,,,,,,,,,,,,,,None,,193.63102184006712,None,193.63102184006712,None,2022-03-04-11:53:15.181523,193.6429375000298,193.94789380009752,193.6429375000298,None,None,193.6429375000298,None,194.4477057400276,None,,,,22005,0001,2022_Mar_04_1150,localizer,2021.1.3,61.04909201683444,
block,scenes,scenes014.bmp,,,,,0,42,42,42,,,,,,,,,,,,,,,,,,,,,,,,,,,,,,,,,,,,,,,,,,None,,194.4477057400276,None,194.4477057400276,None,2022-03-04-11:53:15.998226,194.46009750000667,194.76444940001238,194.46009750000667,None,None,194.46009750000667,None,195.2650809400133,None,,,,22005,0001,2022_Mar_04_1150,localizer,2021.1.3,61.04909201683444,
block,scenes,scenes030.bmp,,,,,0,43,43,43,,,,,,,,,,,,,,,,,,,,,,,,,,,,,,,,,,,,,,,,,,None,,195.2650809400133,None,195.2650809400133,None,2022-03-04-11:53:16.816659,195.2780097000068,195.58076110004913,195.2780097000068,None,None,195.2780097000068,None,196.08155474000378,None,,,,22005,0001,2022_Mar_04_1150,localizer,2021.1.3,61.04909201683444,
block,scenes,scenes065.bmp,,,,,0,44,44,44,,,,,,,,,,,,,,,,,,,,,,,,,,,,,,,,,,,,,,,,,,None,,196.08155474000378,None,196.08155474000378,None,2022-03-04-11:53:17.633054,196.09364020009525,196.39780360006262,196.09364020009525,None,None,196.09364020009525,None,196.89736754008337,None,,,,22005,0001,2022_Mar_04_1150,localizer,2021.1.3,61.04909201683444,
block_end,scenes,scenes064.bmp,,,,,0,45,45,45,,,,,,,,,,,,,,,,,,,,,,,,,,,,,,,,,,,,,,,,,,None,,196.89736754008337,None,196.89736754008337,None,2022-03-04-11:53:18.446898,196.90942340006586,197.21500230010133,196.90942340006586,None,None,196.90942340006586,None,197.72058424007847,None,,,,22005,0001,2022_Mar_04_1150,localizer,2021.1.3,61.04909201683444,
block_start,scrambled,scrambled023.bmp,,,,,0,46,46,46,,,,,,,,,,,,,,,,,,,,,,,,,,,,,,,,,,,,,,,,,,t,1.7266361000947654,197.7147465000162,None,197.7147465000162,None,2022-03-04-11:53:21.014712,199.47494169999845,199.78132460010238,199.47494169999845,None,None,199.47494169999845,None,200.2816836400074,None,,,,22005,0001,2022_Mar_04_1150,localizer,2021.1.3,61.04909201683444,
block,scrambled,scrambled012.bmp,,,,,0,47,47,47,,,,,,,,,,,,,,,,,,,,,,,,,,,,,,,,,,,,,,,,,,None,,200.2816836400074,None,200.2816836400074,None,2022-03-04-11:53:21.835158,200.29591290000826,200.5977955000708,200.29591290000826,None,None,200.29591290000826,None,201.09773394003278,None,,,,22005,0001,2022_Mar_04_1150,localizer,2021.1.3,61.04909201683444,
block,scrambled,scrambled034.bmp,,,,,0,48,48,48,,,,,,,,,,,,,,,,,,,,,,,,,,,,,,,,,,,,,,,,,,None,,201.09773394003278,None,201.09773394003278,None,2022-03-04-11:53:22.648654,201.10903620009776,201.41541220003273,201.10903620009776,None,None,201.10903620009776,None,201.91505484007067,None,,,,22005,0001,2022_Mar_04_1150,localizer,2021.1.3,61.04909201683444,
block,scrambled,scrambled014.bmp,,,,,0,49,49,49,,,,,,,,,,,,,,,,,,,,,,,,,,,,,,,,,,,,,,,,,,None,,201.91505484007067,None,201.91505484007067,None,2022-03-04-11:53:23.466582,201.92694380006287,202.23135850008111,201.92694380006287,None,None,201.92694380006287,None,202.73051254000748,None,,,,22005,0001,2022_Mar_04_1150,localizer,2021.1.3,61.04909201683444,
block,scrambled,scrambled065.bmp,,,,,0,50,50,50,,,,,,,,,,,,,,,,,,,,,,,,,,,,,,,,,,,,,,,,,,None,,202.73051254000748,None,202.73051254000748,None,2022-03-04-11:53:24.281038,202.73905660002492,203.04811410000548,202.73905660002492,None,None,202.73905660002492,None,203.54819084008923,None,,,,22005,0001,2022_Mar_04_1150,localizer,2021.1.3,61.04909201683444,
block,scrambled,scrambled039.bmp,,,,,0,51,51,51,,,,,,,,,,,,,,,,,,,,,,,,,,,,,,,,,,,,,,,,,,None,,203.54819084008923,None,203.54819084008923,None,2022-03-04-11:53:25.099794,203.56075530010276,203.86457910004538,203.56075530010276,None,None,203.56075530010276,None,204.3663808399928,None,,,,22005,0001,2022_Mar_04_1150,localizer,2021.1.3,61.04909201683444,
block,scrambled,scrambled058.bmp,,,,,0,52,52,52,,,,,,,,,,,,,,,,,,,,,,,,,,,,,,,,,,,,,,,,,,None,,204.3663808399928,None,204.3663808399928,None,2022-03-04-11:53:25.921885,204.38320410007145,204.69777650001924,204.38320410007145,None,None,204.38320410007145,None,205.18090784006054,None,,,,22005,0001,2022_Mar_04_1150,localizer,2021.1.3,61.04909201683444,
block,scrambled,scrambled048.bmp,,,,,0,53,53,53,,,,,,,,,,,,,,,,,,,,,,,,,,,,,,,,,,,,,,,,,,None,,205.18090784006054,None,205.18090784006054,None,2022-03-04-11:53:26.731568,205.19125340005849,205.49831230007112,205.19125340005849,None,None,205.19125340005849,None,205.9973980400595,None,,,,22005,0001,2022_Mar_04_1150,localizer,2021.1.3,61.04909201683444,
block,scrambled,scrambled079.bmp,,,,,0,54,54,54,,,,,,,,,,,,,,,,,,,,,,,,,,,,,,,,,,,,,,,,,,None,,205.9973980400595,None,205.9973980400595,None,2022-03-04-11:53:27.547520,206.00526420003735,206.31433990004007,206.00526420003735,None,None,206.00526420003735,None,206.81551643999993,None,,,,22005,0001,2022_Mar_04_1150,localizer,2021.1.3,61.04909201683444,
block,scrambled,scrambled085.bmp,,,,,0,55,55,55,,,,,,,,,,,,,,,,,,,,,,,,,,,,,,,,,,,,,,,,,,None,,206.81551643999993,None,206.81551643999993,None,2022-03-04-11:53:28.367202,206.8281949000666,207.13099580002017,206.8281949000666,None,None,206.8281949000666,None,207.630962640082,None,,,,22005,0001,2022_Mar_04_1150,localizer,2021.1.3,61.04909201683444,
block,scrambled,scrambled049.bmp,,,,,0,56,56,56,,,,,,,,,,,,,,,,,,,,,,,,,,,,,,,,,,,,,,,,,,None,,207.630962640082,None,207.630962640082,None,2022-03-04-11:53:29.181498,207.64010070008226,207.94759960006922,207.64010070008226,None,y,207.64010070008226,None,208.44826763999882,None,0.6609072999563068,,,22005,0001,2022_Mar_04_1150,localizer,2021.1.3,61.04909201683444,
block,scrambled,scrambled064.bmp,,,,,0,57,57,57,,,,,,,,,,,,,,,,,,,,,,,,,,,,,,,,,,,,,,,,,,None,,208.44826763999882,None,208.44826763999882,None,2022-03-04-11:53:30.000805,208.46130870003253,208.76505600009114,208.46130870003253,None,None,208.46130870003253,None,209.264680639992,None,,,,22005,0001,2022_Mar_04_1150,localizer,2021.1.3,61.04909201683444,
block,scrambled,scrambled076.bmp,,,,,0,58,58,58,,,,,,,,,,,,,,,,,,,,,,,,,,,,,,,,,,,,,,,,,,None,,209.264680639992,None,209.264680639992,None,2022-03-04-11:53:30.816204,209.2720792000182,209.58152540004812,209.2720792000182,None,None,209.2720792000182,None,210.08116084003123,None,,,,22005,0001,2022_Mar_04_1150,localizer,2021.1.3,61.04909201683444,
block,scrambled,scrambled076.bmp,,,,,0,59,59,59,,,,,,,,,,,,,,,,,,,,,,,,,,,,,,,,,,,,,,,,,,None,,210.08116084003123,None,210.08116084003123,None,2022-03-04-11:53:31.631677,210.08226950000972,210.39783890009858,210.08226950000972,None,y,210.08226950000972,None,210.88231414001203,None,0.5389155999291688,,,22005,0001,2022_Mar_04_1150,localizer,2021.1.3,61.04909201683444,
block_end,scrambled,scrambled053.bmp,,,,,0,60,60,60,,,,,,,,,,,,,,,,,,,,,,,,,,,,,,,,,,,,,,,,,,None,,210.88231414001203,None,210.88231414001203,None,2022-03-04-11:53:32.436990,210.89775220002048,211.1984308999963,210.89775220002048,210.89775220002048,None,210.89775220002048,210.89775220002048,211.69800394008635,None,,,,22005,0001,2022_Mar_04_1150,localizer,2021.1.3,61.04909201683444,
block_start,scrambled,scrambled053.bmp,,,,,0,61,61,61,,,,,,,,,,,,,,,,,,,,,,,,,,,,,,,,,,,,,,,,,,t,1.73719830007758,211.7043400000548,None,211.7043400000548,None,2022-03-04-11:53:35.013208,213.4655209000921,213.7811320000328,213.4655209000921,None,None,213.4655209000921,None,214.28129104004475,None,,,,22005,0001,2022_Mar_04_1150,localizer,2021.1.3,61.04909201683444,
block,scrambled,scrambled048.bmp,,,,,0,62,62,62,,,,,,,,,,,,,,,,,,,,,,,,,,,,,,,,,,,,,,,,,,None,,214.28129104004475,None,214.28129104004475,None,2022-03-04-11:53:35.831855,214.28228660009336,214.59829680004623,214.28228660009336,None,None,214.28228660009336,None,215.0976185400854,None,,,,22005,0001,2022_Mar_04_1150,localizer,2021.1.3,61.04909201683444,
block,scrambled,scrambled073.bmp,,,,,0,63,63,63,,,,,,,,,,,,,,,,,,,,,,,,,,,,,,,,,,,,,,,,,,None,,215.0976185400854,None,215.0976185400854,None,2022-03-04-11:53:36.648140,215.1076806000201,215.41460460005328,215.1076806000201,None,None,215.1076806000201,None,215.91452174008592,None,,,,22005,0001,2022_Mar_04_1150,localizer,2021.1.3,61.04909201683444,
block,scrambled,scrambled036.bmp,,,,,0,64,64,64,,,,,,,,,,,,,,,,,,,,,,,,,,,,,,,,,,,,,,,,,,None,,215.91452174008592,None,215.91452174008592,None,2022-03-04-11:53:37.465256,215.92460550006945,216.2321771000279,215.92460550006945,None,None,215.92460550006945,None,216.7299712400767,None,,,,22005,0001,2022_Mar_04_1150,localizer,2021.1.3,61.04909201683444,
block,scrambled,scrambled066.bmp,,,,,0,65,65,65,,,,,,,,,,,,,,,,,,,,,,,,,,,,,,,,,,,,,,,,,,None,,216.7299712400767,None,216.7299712400767,None,2022-03-04-11:53:38.280117,216.738376500085,217.04794000007678,216.738376500085,None,None,216.738376500085,None,217.54774134004256,None,,,,22005,0001,2022_Mar_04_1150,localizer,2021.1.3,61.04909201683444,
block,scrambled,scrambled010.bmp,,,,,0,66,66,66,,,,,,,,,,,,,,,,,,,,,,,,,,,,,,,,,,,,,,,,,,None,,217.54774134004256,None,217.54774134004256,None,2022-03-04-11:53:39.098260,217.55829429998994,217.86456210003234,217.55829429998994,None,None,217.55829429998994,None,218.3642597400234,None,,,,22005,0001,2022_Mar_04_1150,localizer,2021.1.3,61.04909201683444,
block,scrambled,scrambled041.bmp,,,,,0,67,67,67,,,,,,,,,,,,,,,,,,,,,,,,,,,,,,,,,,,,,,,,,,None,,218.3642597400234,None,218.3642597400234,None,2022-03-04-11:53:39.914784,218.37382630002685,218.68114870006684,218.37382630002685,None,None,218.37382630002685,None,219.1809100400773,None,,,,22005,0001,2022_Mar_04_1150,localizer,2021.1.3,61.04909201683444,
block,scrambled,scrambled019.bmp,,,,,0,68,68,68,,,,,,,,,,,,,,,,,,,,,,,,,,,,,,,,,,,,,,,,,,None,,219.1809100400773,None,219.1809100400773,None,2022-03-04-11:53:40.731468,219.19080930005293,219.49854280008003,219.19080930005293,None,None,219.19080930005293,None,219.9988409401034,None,,,,22005,0001,2022_Mar_04_1150,localizer,2021.1.3,61.04909201683444,
block,scrambled,scrambled051.bmp,,,,,0,69,69,69,,,,,,,,,,,,,,,,,,,,,,,,,,,,,,,,,,,,,,,,,,None,,219.9988409401034,None,219.9988409401034,None,2022-03-04-11:53:41.551538,220.0122380000539,220.31491760001518,220.0122380000539,None,None,220.0122380000539,None,220.81520364006283,None,,,,22005,0001,2022_Mar_04_1150,localizer,2021.1.3,61.04909201683444,
block,scrambled,scrambled014.bmp,,,,,0,70,70,70,,,,,,,,,,,,,,,,,,,,,,,,,,,,,,,,,,,,,,,,,,None,,220.81520364006283,None,220.81520364006283,None,2022-03-04-11:53:42.366713,220.81721380003728,221.13148820004426,220.81721380003728,None,None,220.81721380003728,None,221.63121314001037,None,,,,22005,0001,2022_Mar_04_1150,localizer,2021.1.3,61.04909201683444,
block,scrambled,scrambled034.bmp,,,,,0,71,71,71,,,,,,,,,,,,,,,,,,,,,,,,,,,,,,,,,,,,,,,,,,None,,221.63121314001037,None,221.63121314001037,None,2022-03-04-11:53:43.181742,221.63222120003775,221.9317128000548,221.63222120003775,None,None,221.63222120003775,None,222.43160464001122,None,,,,22005,0001,2022_Mar_04_1150,localizer,2021.1.3,61.04909201683444,
block,scrambled,scrambled083.bmp,,,,,0,72,72,72,,,,,,,,,,,,,,,,,,,,,,,,,,,,,,,,,,,,,,,,,,None,,222.43160464001122,None,222.43160464001122,None,2022-03-04-11:53:43.985096,222.4461658000946,222.7487351000309,222.4461658000946,222.4461658000946,None,222.4461658000946,222.4461658000946,223.247697840014,None,,,,22005,0001,2022_Mar_04_1150,localizer,2021.1.3,61.04909201683444,
block,scrambled,scrambled037.bmp,,,,,0,73,73,73,,,,,,,,,,,,,,,,,,,,,,,,,,,,,,,,,,,,,,,,,,None,,223.247697840014,None,223.247697840014,None,2022-03-04-11:53:44.798169,223.25807350000832,223.56482580001466,223.25807350000832,None,None,223.25807350000832,None,224.06501364001306,None,,,,22005,0001,2022_Mar_04_1150,localizer,2021.1.3,61.04909201683444,
block,scrambled,scrambled044.bmp,,,,,0,74,74,74,,,,,,,,,,,,,,,,,,,,,,,,,,,,,,,,,,,,,,,,,,None,,224.06501364001306,None,224.06501364001306,None,2022-03-04-11:53:45.616710,224.07745420001447,224.38149520009756,224.07745420001447,None,None,224.07745420001447,None,224.88105104005663,None,,,,22005,0001,2022_Mar_04_1150,localizer,2021.1.3,61.04909201683444,
block_end,scrambled,scrambled022.bmp,,,,,0,75,75,75,,,,,,,,,,,,,,,,,,,,,,,,,,,,,,,,,,,,,,,,,,None,,224.88105104005663,None,224.88105104005663,None,2022-03-04-11:53:46.432010,224.88770750002004,225.1985093000112,224.88770750002004,None,None,224.88770750002004,None,225.69806414007908,None,,,,22005,0001,2022_Mar_04_1150,localizer,2021.1.3,61.04909201683444,
null_block,null_block,null_block.bmp,,,,,0,76,76,76,,,,,,,,,,,,,,,,,,,,,,,,,,,,,,,,,,,,,,,,,,t,1.742732899961993,225.69845120003447,None,225.69845120003447,None,2022-03-04-11:53:49.014202,227.46459834001726,None,227.46459834001726,None,None,227.46459834001726,None,227.46757390000857,None,,,,22005,0001,2022_Mar_04_1150,localizer,2021.1.3,61.04909201683444,
block_start,faces,faces026.bmp,,,,,0,77,77,77,,,,,,,,,,,,,,,,,,,,,,,,,,,,,,,,,,,,,,,,,,t,1.9597004000097513,239.48150019999593,None,239.48150019999593,None,2022-03-04-11:54:03.016140,241.50511750008445,241.81480769999325,241.50511750008445,None,None,241.50511750008445,None,242.28087784004165,None,,,,22005,0001,2022_Mar_04_1150,localizer,2021.1.3,61.04909201683444,
block,faces,faces042.bmp,,,,,0,78,78,78,,,,,,,,,,,,,,,,,,,,,,,,,,,,,,,,,,,,,,,,,,None,,242.28087784004165,None,242.28087784004165,None,2022-03-04-11:54:03.831400,242.28236270009074,242.5981269000331,242.28236270009074,None,None,242.28236270009074,None,243.08208464008058,None,,,,22005,0001,2022_Mar_04_1150,localizer,2021.1.3,61.04909201683444,
block,faces,faces040.bmp,,,,,0,79,79,79,,,,,,,,,,,,,,,,,,,,,,,,,,,,,,,,,,,,,,,,,,None,,243.08208464008058,None,243.08208464008058,None,2022-03-04-11:54:04.635420,243.09702089999337,243.39811010006815,243.09702089999337,243.09702089999337,None,243.09702089999337,243.09702089999337,243.89777424003697,None,,,,22005,0001,2022_Mar_04_1150,localizer,2021.1.3,61.04909201683444,
block,faces,faces024.bmp,,,,,0,80,80,80,,,,,,,,,,,,,,,,,,,,,,,,,,,,,,,,,,,,,,,,,,None,,243.89777424003697,None,243.89777424003697,None,2022-03-04-11:54:05.448299,243.90882960008457,244.2147788000293,243.90882960008457,None,None,243.90882960008457,None,244.71594714004314,None,,,,22005,0001,2022_Mar_04_1150,localizer,2021.1.3,61.04909201683444,
block,faces,faces063.bmp,,,,,0,81,81,81,,,,,,,,,,,,,,,,,,,,,,,,,,,,,,,,,,,,,,,,,,None,,244.71594714004314,None,244.71594714004314,None,2022-03-04-11:54:06.265681,244.726277400041,245.03141080006026,244.726277400041,None,None,244.726277400041,None,245.53112384005217,None,,,,22005,0001,2022_Mar_04_1150,localizer,2021.1.3,61.04909201683444,
block,faces,faces070.bmp,,,,,0,82,82,82,,,,,,,,,,,,,,,,,,,,,,,,,,,,,,,,,,,,,,,,,,None,,245.53112384005217,None,245.53112384005217,None,2022-03-04-11:54:07.081645,245.54356010002084,245.84820390003733,245.54356010002084,None,None,245.54356010002084,None,246.34769574009115,None,,,,22005,0001,2022_Mar_04_1150,localizer,2021.1.3,61.04909201683444,
block,faces,faces012.bmp,,,,,0,83,83,83,,,,,,,,,,,,,,,,,,,,,,,,,,,,,,,,,,,,,,,,,,None,,246.34769574009115,None,246.34769574009115,None,2022-03-04-11:54:07.898327,246.35842210007831,246.67162570008077,246.35842210007831,None,None,246.35842210007831,None,247.16567484001862,None,,,,22005,0001,2022_Mar_04_1150,localizer,2021.1.3,61.04909201683444,
block,faces,faces049.bmp,,,,,0,84,84,84,,,,,,,,,,,,,,,,,,,,,,,,,,,,,,,,,,,,,,,,,,None,,247.16567484001862,None,247.16567484001862,None,2022-03-04-11:54:08.718340,247.1795056000119,247.48147430003155,247.1795056000119,None,None,247.1795056000119,None,247.98188214007533,None,,,,22005,0001,2022_Mar_04_1150,localizer,2021.1.3,61.04909201683444,
block,faces,faces055.bmp,,,,,0,85,85,85,,,,,,,,,,,,,,,,,,,,,,,,,,,,,,,,,,,,,,,,,,None,,247.98188214007533,None,247.98188214007533,None,2022-03-04-11:54:09.533480,247.98402130010072,248.29823600000236,247.98402130010072,None,None,247.98402130010072,None,248.79756703999593,None,,,,22005,0001,2022_Mar_04_1150,localizer,2021.1.3,61.04909201683444,
block,faces,faces086.bmp,,,,,0,86,86,86,,,,,,,,,,,,,,,,,,,,,,,,,,,,,,,,,,,,,,,,,,None,,248.79756703999593,None,248.79756703999593,None,2022-03-04-11:54:10.348219,248.7989901000401,249.11474059999455,248.7989901000401,None,None,248.7989901000401,None,249.6143878400675,None,,,,22005,0001,2022_Mar_04_1150,localizer,2021.1.3,61.04909201683444,
block,faces,faces013.bmp,,,,,0,87,87,87,,,,,,,,,,,,,,,,,,,,,,,,,,,,,,,,,,,,,,,,,,None,,249.6143878400675,None,249.6143878400675,None,2022-03-04-11:54:11.164981,249.6247770000482,249.9315470000729,249.6247770000482,None,None,249.6247770000482,None,250.43181124007097,None,,,,22005,0001,2022_Mar_04_1150,localizer,2021.1.3,61.04909201683444,
block,faces,faces079.bmp,,,,,0,88,88,88,,,,,,,,,,,,,,,,,,,,,,,,,,,,,,,,,,,,,,,,,,None,,250.43181124007097,None,250.43181124007097,None,2022-03-04-11:54:11.983509,250.44388010003604,250.74810760002583,250.44388010003604,None,None,250.44388010003604,None,251.24914304007544,None,,,,22005,0001,2022_Mar_04_1150,localizer,2021.1.3,61.04909201683444,
block,faces,faces041.bmp,,,,,0,89,89,89,,,,,,,,,,,,,,,,,,,,,,,,,,,,,,,,,,,,,,,,,,None,,251.24914304007544,None,251.24914304007544,None,2022-03-04-11:54:12.801816,251.262822000077,251.56455320003442,251.262822000077,None,None,251.262822000077,None,252.0658011400723,None,,,,22005,0001,2022_Mar_04_1150,localizer,2021.1.3,61.04909201683444,
block,faces,faces045.bmp,,,,,0,90,90,90,,,,,,,,,,,,,,,,,,,,,,,,,,,,,,,,,,,,,,,,,,None,,252.0658011400723,None,252.0658011400723,None,2022-03-04-11:54:13.618298,252.07974730001297,252.3812780000735,252.07974730001297,None,None,252.07974730001297,None,252.88226864001481,None,,,,22005,0001,2022_Mar_04_1150,localizer,2021.1.3,61.04909201683444,
block_end,faces,faces022.bmp,,,,,0,91,91,91,,,,,,,,,,,,,,,,,,,,,,,,,,,,,,,,,,,,,,,,,,None,,252.88226864001481,None,252.88226864001481,None,2022-03-04-11:54:14.434438,252.89774889999535,253.19764230004512,252.89774889999535,None,None,252.89774889999535,None,253.69795604007086,None,,,,22005,0001,2022_Mar_04_1150,localizer,2021.1.3,61.04909201683444,
block_start,objects,objects013.bmp,,,,,0,92,92,92,,,,,,,,,,,,,,,,,,,,,,,,,,,,,,,,,,,,,,,,,,t,1.7432752000167966,253.69804100005422,None,253.69804100005422,None,2022-03-04-11:54:17.016737,255.47758100007195,255.78135820000898,255.47758100007195,None,None,255.47758100007195,None,256.2810794400633,None,,,,22005,0001,2022_Mar_04_1150,localizer,2021.1.3,61.04909201683444,
block,objects,objects086.bmp,,,,,0,93,93,93,,,,,,,,,,,,,,,,,,,,,,,,,,,,,,,,,,,,,,,,,,None,,256.2810794400633,None,256.2810794400633,None,2022-03-04-11:54:17.831601,256.29139720008243,256.59821520000696,256.29139720008243,None,None,256.29139720008243,None,257.0977217400563,None,,,,22005,0001,2022_Mar_04_1150,localizer,2021.1.3,61.04909201683444,
block,objects,objects008.bmp,,,,,0,94,94,94,,,,,,,,,,,,,,,,,,,,,,,,,,,,,,,,,,,,,,,,,,None,,257.0977217400563,None,257.0977217400563,None,2022-03-04-11:54:18.648244,257.09915880009066,257.415264600073,257.09915880009066,None,None,257.09915880009066,None,257.91416034001156,None,,,,22005,0001,2022_Mar_04_1150,localizer,2021.1.3,61.04909201683444,
block,objects,objects073.bmp,,,,,0,95,95,95,,,,,,,,,,,,,,,,,,,,,,,,,,,,,,,,,,,,,,,,,,None,,257.91416034001156,None,257.91416034001156,None,2022-03-04-11:54:19.464951,257.9231387000764,258.2314486000687,257.9231387000764,None,None,257.9231387000764,None,258.7318179400521,None,,,,22005,0001,2022_Mar_04_1150,localizer,2021.1.3,61.04909201683444,
block,objects,objects042.bmp,,,,,0,96,96,96,,,,,,,,,,,,,,,,,,,,,,,,,,,,,,,,,,,,,,,,,,None,,258.7318179400521,None,258.7318179400521,None,2022-03-04-11:54:20.284442,258.744953299989,259.0480929000769,258.744953299989,None,None,258.744953299989,None,259.5492997400346,None,,,,22005,0001,2022_Mar_04_1150,localizer,2021.1.3,61.04909201683444,
block,objects,objects047.bmp,,,,,0,97,97,97,,,,,,,,,,,,,,,,,,,,,,,,,,,,,,,,,,,,,,,,,,None,,259.5492997400346,None,259.5492997400346,None,2022-03-04-11:54:21.101974,259.5625926000066,259.86466500000097,259.5625926000066,None,None,259.5625926000066,None,260.36446194004964,None,,,,22005,0001,2022_Mar_04_1150,localizer,2021.1.3,61.04909201683444,
block,objects,objects052.bmp,,,,,0,98,98,98,,,,,,,,,,,,,,,,,,,,,,,,,,,,,,,,,,,,,,,,,,None,,260.36446194004964,None,260.36446194004964,None,2022-03-04-11:54:21.914985,260.3742934000911,260.68193260009866,260.3742934000911,None,None,260.3742934000911,None,261.18150934010043,None,,,,22005,0001,2022_Mar_04_1150,localizer,2021.1.3,61.04909201683444,
block,objects,objects026.bmp,,,,,0,99,99,99,,,,,,,,,,,,,,,,,,,,,,,,,,,,,,,,,,,,,,,,,,None,,261.18150934010043,None,261.18150934010043,None,2022-03-04-11:54:22.732941,261.18273990007583,261.49866849998944,261.18273990007583,None,None,261.18273990007583,None,261.99753904008537,None,,,,22005,0001,2022_Mar_04_1150,localizer,2021.1.3,61.04909201683444,
block,objects,objects044.bmp,,,,,0,100,100,100,,,,,,,,,,,,,,,,,,,,,,,,,,,,,,,,,,,,,,,,,,None,,261.99753904008537,None,261.99753904008537,None,2022-03-04-11:54:23.548162,262.00697770004626,262.31525740004145,262.00697770004626,None,None,262.00697770004626,None,262.8159498400404,None,,,,22005,0001,2022_Mar_04_1150,localizer,2021.1.3,61.04909201683444,
block,objects,objects044.bmp,,,,,0,101,101,101,,,,,,,,,,,,,,,,,,,,,,,,,,,,,,,,,,,,,,,,,,None,,262.8159498400404,None,262.8159498400404,None,2022-03-04-11:54:24.368632,262.81856210005935,263.1317080000881,262.81856210005935,None,y,262.81856210005935,None,263.6317969400319,None,0.4495145999826491,,,22005,0001,2022_Mar_04_1150,localizer,2021.1.3,61.04909201683444,
block,objects,objects070.bmp,,,,,0,102,102,102,,,,,,,,,,,,,,,,,,,,,,,,,,,,,,,,,,,,,,,,,,None,,263.6317969400319,None,263.6317969400319,None,2022-03-04-11:54:25.183304,263.6429497000063,263.9482561000623,263.6429497000063,None,None,263.6429497000063,None,264.4474906400195,None,,,,22005,0001,2022_Mar_04_1150,localizer,2021.1.3,61.04909201683444,
block,objects,objects019.bmp,,,,,0,103,103,103,,,,,,,,,,,,,,,,,,,,,,,,,,,,,,,,,,,,,,,,,,None,,264.4474906400195,None,264.4474906400195,None,2022-03-04-11:54:25.997970,264.4566440000199,264.7649860000238,264.4566440000199,None,None,264.4566440000199,None,265.25263914003733,None,,,,22005,0001,2022_Mar_04_1150,localizer,2021.1.3,61.04909201683444,
block,objects,objects032.bmp,,,,,0,104,104,104,,,,,,,,,,,,,,,,,,,,,,,,,,,,,,,,,,,,,,,,,,None,,265.25263914003733,None,265.25263914003733,None,2022-03-04-11:54:26.807106,265.25837230007164,265.5654008000856,265.25837230007164,None,None,265.25837230007164,None,266.0649550400325,None,,,,22005,0001,2022_Mar_04_1150,localizer,2021.1.3,61.04909201683444,
block,objects,objects053.bmp,,,,,0,105,105,105,,,,,,,,,,,,,,,,,,,,,,,,,,,,,,,,,,,,,,,,,,None,,266.0649550400325,None,266.0649550400325,None,2022-03-04-11:54:27.616360,266.0660901000956,266.3816426000558,266.0660901000956,None,None,266.0660901000956,None,266.8817332400125,None,,,,22005,0001,2022_Mar_04_1150,localizer,2021.1.3,61.04909201683444,
block_end,objects,objects057.bmp,,,,,0,106,106,106,,,,,,,,,,,,,,,,,,,,,,,,,,,,,,,,,,,,,,,,,,None,,266.8817332400125,None,266.8817332400125,None,2022-03-04-11:54:28.433245,266.89272290002555,267.19804330007173,266.89272290002555,None,None,266.89272290002555,None,267.69796063998945,None,,,,22005,0001,2022_Mar_04_1150,localizer,2021.1.3,61.04909201683444,
block_start,scenes,scenes030.bmp,,,,,0,107,107,107,,,,,,,,,,,,,,,,,,,,,,,,,,,,,,,,,,,,,,,,,,t,1.7389561000745744,267.7022743000416,None,267.7022743000416,None,2022-03-04-11:54:31.014055,269.46593370009214,269.78182630008087,269.46593370009214,None,None,269.46593370009214,None,270.28149144005727,None,,,,22005,0001,2022_Mar_04_1150,localizer,2021.1.3,61.04909201683444,
block,scenes,scenes092.bmp,,,,,0,108,108,108,,,,,,,,,,,,,,,,,,,,,,,,,,,,,,,,,,,,,,,,,,None,,270.28149144005727,None,270.28149144005727,None,2022-03-04-11:54:31.832011,270.29246070003137,270.59828230005223,270.29246070003137,None,None,270.29246070003137,None,271.0979764400166,None,,,,22005,0001,2022_Mar_04_1150,localizer,2021.1.3,61.04909201683444,
block,scenes,scenes005.bmp,,,,,0,109,109,109,,,,,,,,,,,,,,,,,,,,,,,,,,,,,,,,,,,,,,,,,,None,,271.0979764400166,None,271.0979764400166,None,2022-03-04-11:54:32.648898,271.1045167000266,271.4149046000093,271.1045167000266,None,None,271.1045167000266,None,271.9149830399896,None,,,,22005,0001,2022_Mar_04_1150,localizer,2021.1.3,61.04909201683444,
block,scenes,scenes046.bmp,,,,,0,110,110,110,,,,,,,,,,,,,,,,,,,,,,,,,,,,,,,,,,,,,,,,,,None,,271.9149830399896,None,271.9149830399896,None,2022-03-04-11:54:33.466496,271.926474600099,272.2318287000526,271.926474600099,None,None,271.926474600099,None,272.73164884004507,None,,,,22005,0001,2022_Mar_04_1150,localizer,2021.1.3,61.04909201683444,
block,scenes,scenes060.bmp,,,,,0,111,111,111,,,,,,,,,,,,,,,,,,,,,,,,,,,,,,,,,,,,,,,,,,None,,272.73164884004507,None,272.73164884004507,None,2022-03-04-11:54:34.282425,272.7449665000895,273.048245800077,272.7449665000895,None,None,272.7449665000895,None,273.5477456400753,None,,,,22005,0001,2022_Mar_04_1150,localizer,2021.1.3,61.04909201683444,
block,scenes,scenes043.bmp,,,,,0,112,112,112,,,,,,,,,,,,,,,,,,,,,,,,,,,,,,,,,,,,,,,,,,None,,273.5477456400753,None,273.5477456400753,None,2022-03-04-11:54:35.098418,273.558178300038,273.86515820003115,273.558178300038,None,None,273.558178300038,None,274.36445824002146,None,,,,22005,0001,2022_Mar_04_1150,localizer,2021.1.3,61.04909201683444,
block,scenes,scenes068.bmp,,,,,0,113,113,113,,,,,,,,,,,,,,,,,,,,,,,,,,,,,,,,,,,,,,,,,,None,,274.36445824002146,None,274.36445824002146,None,2022-03-04-11:54:35.914980,274.37509510002565,274.6815865000244,274.37509510002565,None,None,274.37509510002565,None,275.1812869400368,None,,,,22005,0001,2022_Mar_04_1150,localizer,2021.1.3,61.04909201683444,
block,scenes,scenes028.bmp,,,,,0,114,114,114,,,,,,,,,,,,,,,,,,,,,,,,,,,,,,,,,,,,,,,,,,None,,275.1812869400368,None,275.1812869400368,None,2022-03-04-11:54:36.731808,275.19195880007464,275.49872390006203,275.19195880007464,None,None,275.19195880007464,None,275.9983203400974,None,,,,22005,0001,2022_Mar_04_1150,localizer,2021.1.3,61.04909201683444,
block,scenes,scenes044.bmp,,,,,0,115,115,115,,,,,,,,,,,,,,,,,,,,,,,,,,,,,,,,,,,,,,,,,,None,,275.9983203400974,None,275.9983203400974,None,2022-03-04-11:54:37.549816,276.0095615000464,276.3148863000097,276.0095615000464,None,None,276.0095615000464,None,276.81473623999625,None,,,,22005,0001,2022_Mar_04_1150,localizer,2021.1.3,61.04909201683444,
block,scenes,scenes023.bmp,,,,,0,116,116,116,,,,,,,,,,,,,,,,,,,,,,,,,,,,,,,,,,,,,,,,,,None,,276.81473623999625,None,276.81473623999625,None,2022-03-04-11:54:38.365257,276.82576560007874,277.13144240004476,276.82576560007874,None,None,276.82576560007874,None,277.6318192400853,None,,,,22005,0001,2022_Mar_04_1150,localizer,2021.1.3,61.04909201683444,
block,scenes,scenes083.bmp,,,,,0,117,117,117,,,,,,,,,,,,,,,,,,,,,,,,,,,,,,,,,,,,,,,,,,None,,277.6318192400853,None,277.6318192400853,None,2022-03-04-11:54:39.183527,277.6437870000955,277.94901480001863,277.6437870000955,None,None,277.6437870000955,None,278.4480479400721,None,,,,22005,0001,2022_Mar_04_1150,localizer,2021.1.3,61.04909201683444,
block,scenes,scenes039.bmp,,,,,0,118,118,118,,,,,,,,,,,,,,,,,,,,,,,,,,,,,,,,,,,,,,,,,,None,,278.4480479400721,None,278.4480479400721,None,2022-03-04-11:54:39.998569,278.4586459000129,278.76499100006185,278.4586459000129,None,None,278.4586459000129,None,279.2646404400351,None,,,,22005,0001,2022_Mar_04_1150,localizer,2021.1.3,61.04909201683444,
block,scenes,scenes051.bmp,,,,,0,119,119,119,,,,,,,,,,,,,,,,,,,,,,,,,,,,,,,,,,,,,,,,,,None,,279.2646404400351,None,279.2646404400351,None,2022-03-04-11:54:40.815162,279.2782702000113,279.581411399995,279.2782702000113,None,None,279.2782702000113,None,280.0811657400685,None,,,,22005,0001,2022_Mar_04_1150,localizer,2021.1.3,61.04909201683444,
block,scenes,scenes054.bmp,,,,,0,120,120,120,,,,,,,,,,,,,,,,,,,,,,,,,,,,,,,,,,,,,,,,,,None,,280.0811657400685,None,280.0811657400685,None,2022-03-04-11:54:41.631705,280.08872900006827,280.39828650001436,280.08872900006827,None,None,280.08872900006827,None,280.897997539991,None,,,,22005,0001,2022_Mar_04_1150,localizer,2021.1.3,61.04909201683444,
block_end,scenes,scenes084.bmp,,,,,0,121,121,121,,,,,,,,,,,,,,,,,,,,,,,,,,,,,,,,,,,,,,,,,,None,,280.897997539991,None,280.897997539991,None,2022-03-04-11:54:42.448520,280.9091694999952,281.21567000006326,280.9091694999952,None,None,280.9091694999952,None,281.7148357400787,None,,,,22005,0001,2022_Mar_04_1150,localizer,2021.1.3,61.04909201683444,
block_start,faces,faces085.bmp,,,,,0,122,122,122,,,,,,,,,,,,,,,,,,,,,,,,,,,,,,,,,,,,,,,,,,t,1.725873100105673,281.7152613000944,None,281.7152613000944,None,2022-03-04-11:54:45.014244,283.47438030003104,283.78151150001213,283.47438030003104,None,None,283.47438030003104,None,284.28210983999304,None,,,,22005,0001,2022_Mar_04_1150,localizer,2021.1.3,61.04909201683444,
block,faces,faces002.bmp,,,,,0,123,123,123,,,,,,,,,,,,,,,,,,,,,,,,,,,,,,,,,,,,,,,,,,None,,284.28210983999304,None,284.28210983999304,None,2022-03-04-11:54:45.833822,284.28464180009905,284.5989087000489,284.28464180009905,None,None,284.28464180009905,None,285.09787884008836,None,,,,22005,0001,2022_Mar_04_1150,localizer,2021.1.3,61.04909201683444,
block,faces,faces004.bmp,,,,,0,124,124,124,,,,,,,,,,,,,,,,,,,,,,,,,,,,,,,,,,,,,,,,,,None,,285.09787884008836,None,285.09787884008836,None,2022-03-04-11:54:46.648560,285.1096744000679,285.4150394999888,285.1096744000679,None,None,285.1096744000679,None,285.9148828400415,None,,,,22005,0001,2022_Mar_04_1150,localizer,2021.1.3,61.04909201683444,
block,faces,faces007.bmp,,,,,0,125,125,125,,,,,,,,,,,,,,,,,,,,,,,,,,,,,,,,,,,,,,,,,,None,,285.9148828400415,None,285.9148828400415,None,2022-03-04-11:54:47.465622,285.92635720002,286.23187820008025,285.92635720002,None,None,285.92635720002,None,286.7315540400217,None,,,,22005,0001,2022_Mar_04_1150,localizer,2021.1.3,61.04909201683444,
block,faces,faces005.bmp,,,,,0,126,126,126,,,,,,,,,,,,,,,,,,,,,,,,,,,,,,,,,,,,,,,,,,None,,286.7315540400217,None,286.7315540400217,None,2022-03-04-11:54:48.282262,286.74296950001735,287.04824330005795,286.74296950001735,None,None,286.74296950001735,None,287.5482029400649,None,,,,22005,0001,2022_Mar_04_1150,localizer,2021.1.3,61.04909201683444,
block,faces,faces024.bmp,,,,,0,127,127,127,,,,,,,,,,,,,,,,,,,,,,,,,,,,,,,,,,,,,,,,,,None,,287.5482029400649,None,287.5482029400649,None,2022-03-04-11:54:49.098575,287.5494499000488,287.849129899987,287.5494499000488,None,None,287.5494499000488,None,288.3647727400879,None,,,,22005,0001,2022_Mar_04_1150,localizer,2021.1.3,61.04909201683444,
block,faces,faces023.bmp,,,,,0,128,128,128,,,,,,,,,,,,,,,,,,,,,,,,,,,,,,,,,,,,,,,,,,None,,288.3647727400879,None,288.3647727400879,None,2022-03-04-11:54:49.915271,288.3759966000216,288.68648620008025,288.3759966000216,None,None,288.3759966000216,None,289.18263834008246,None,,,,22005,0001,2022_Mar_04_1150,localizer,2021.1.3,61.04909201683444,
block,faces,faces042.bmp,,,,,0,129,129,129,,,,,,,,,,,,,,,,,,,,,,,,,,,,,,,,,,,,,,,,,,None,,289.18263834008246,None,289.18263834008246,None,2022-03-04-11:54:50.734736,289.1923419000814,289.4988549000118,289.1923419000814,None,None,289.1923419000814,None,289.998121140094,None,,,,22005,0001,2022_Mar_04_1150,localizer,2021.1.3,61.04909201683444,
block,faces,faces055.bmp,,,,,0,130,130,130,,,,,,,,,,,,,,,,,,,,,,,,,,,,,,,,,,,,,,,,,,None,,289.998121140094,None,289.998121140094,None,2022-03-04-11:54:51.548644,289.99926609999966,290.31482430000324,289.99926609999966,None,None,289.99926609999966,None,290.81460944007847,None,,,,22005,0001,2022_Mar_04_1150,localizer,2021.1.3,61.04909201683444,
block,faces,faces035.bmp,,,,,0,131,131,131,,,,,,,,,,,,,,,,,,,,,,,,,,,,,,,,,,,,,,,,,,None,,290.81460944007847,None,290.81460944007847,None,2022-03-04-11:54:52.365688,290.8271031000186,291.13150220003445,290.8271031000186,None,None,290.8271031000186,None,291.63153394000835,None,,,,22005,0001,2022_Mar_04_1150,localizer,2021.1.3,61.04909201683444,
block,faces,faces088.bmp,,,,,0,132,132,132,,,,,,,,,,,,,,,,,,,,,,,,,,,,,,,,,,,,,,,,,,None,,291.63153394000835,None,291.63153394000835,None,2022-03-04-11:54:53.182266,291.63274570007343,291.9486586001003,291.63274570007343,None,None,291.63274570007343,None,292.4481840400607,None,,,,22005,0001,2022_Mar_04_1150,localizer,2021.1.3,61.04909201683444,
block,faces,faces089.bmp,,,,,0,133,133,133,,,,,,,,,,,,,,,,,,,,,,,,,,,,,,,,,,,,,,,,,,None,,292.4481840400607,None,292.4481840400607,None,2022-03-04-11:54:53.998704,292.44939690001775,292.7652310000267,292.44939690001775,None,None,292.44939690001775,None,293.26485024000283,None,,,,22005,0001,2022_Mar_04_1150,localizer,2021.1.3,61.04909201683444,
block,faces,faces077.bmp,,,,,0,134,134,134,,,,,,,,,,,,,,,,,,,,,,,,,,,,,,,,,,,,,,,,,,None,,293.26485024000283,None,293.26485024000283,None,2022-03-04-11:54:54.815372,293.2734893000452,293.5816569000017,293.2734893000452,None,None,293.2734893000452,None,294.0813706399989,None,,,,22005,0001,2022_Mar_04_1150,localizer,2021.1.3,61.04909201683444,
block,faces,faces043.bmp,,,,,0,135,135,135,,,,,,,,,,,,,,,,,,,,,,,,,,,,,,,,,,,,,,,,,,None,,294.0813706399989,None,294.0813706399989,None,2022-03-04-11:54:55.631912,294.0940763000399,294.3984248000197,294.0940763000399,None,None,294.0940763000399,None,294.89936434003755,None,,,,22005,0001,2022_Mar_04_1150,localizer,2021.1.3,61.04909201683444,
block_end,faces,faces033.bmp,,,,,0,136,136,136,,,,,,,,,,,,,,,,,,,,,,,,,,,,,,,,,,,,,,,,,,None,,294.89936434003755,None,294.89936434003755,None,2022-03-04-11:54:56.452051,294.9208375000162,295.23838720005006,294.9208375000162,None,None,294.9208375000162,None,295.71560754001837,None,,,,22005,0001,2022_Mar_04_1150,localizer,2021.1.3,61.04909201683444,
block_start,scrambled,scrambled025.bmp,,,,,0,137,137,137,,,,,,,,,,,,,,,,,,,,,,,,,,,,,,,,,,,,,,,,,,t,1.7252377999247983,295.71594270004425,None,295.71594270004425,None,2022-03-04-11:54:59.013816,297.4758811000502,297.78159560007043,297.4758811000502,None,None,297.4758811000502,None,298.2813330400153,None,,,,22005,0001,2022_Mar_04_1150,localizer,2021.1.3,61.04909201683444,
block,scrambled,scrambled005.bmp,,,,,0,138,138,138,,,,,,,,,,,,,,,,,,,,,,,,,,,,,,,,,,,,,,,,,,None,,298.2813330400153,None,298.2813330400153,None,2022-03-04-11:54:59.831858,298.2925393000478,298.5984184000408,298.2925393000478,None,None,298.2925393000478,None,299.0986440400942,None,,,,22005,0001,2022_Mar_04_1150,localizer,2021.1.3,61.04909201683444,
block,scrambled,scrambled032.bmp,,,,,0,139,139,139,,,,,,,,,,,,,,,,,,,,,,,,,,,,,,,,,,,,,,,,,,None,,299.0986440400942,None,299.0986440400942,None,2022-03-04-11:55:00.650351,299.11085250007454,299.41501790005714,299.11085250007454,None,None,299.11085250007454,None,299.91473324006654,None,,,,22005,0001,2022_Mar_04_1150,localizer,2021.1.3,61.04909201683444,
block,scrambled,scrambled060.bmp,,,,,0,140,140,140,,,,,,,,,,,,,,,,,,,,,,,,,,,,,,,,,,,,,,,,,,None,,299.91473324006654,None,299.91473324006654,None,2022-03-04-11:55:01.465256,299.9246509000659,300.2317397000734,299.9246509000659,None,None,299.9246509000659,None,300.731404740049,None,,,,22005,0001,2022_Mar_04_1150,localizer,2021.1.3,61.04909201683444,
block,scrambled,scrambled044.bmp,,,,,0,141,141,141,,,,,,,,,,,,,,,,,,,,,,,,,,,,,,,,,,,,,,,,,,None,,300.731404740049,None,300.731404740049,None,2022-03-04-11:55:02.281930,300.7327845999971,301.0484008000931,300.7327845999971,None,None,300.7327845999971,None,301.53180124008793,None,,,,22005,0001,2022_Mar_04_1150,localizer,2021.1.3,61.04909201683444,
block,scrambled,scrambled034.bmp,,,,,0,142,142,142,,,,,,,,,,,,,,,,,,,,,,,,,,,,,,,,,,,,,,,,,,None,,301.53180124008793,None,301.53180124008793,None,2022-03-04-11:55:03.084541,301.53518740006257,301.84891850000713,301.53518740006257,301.53518740006257,None,301.53518740006257,301.53518740006257,302.34777584000256,None,,,,22005,0001,2022_Mar_04_1150,localizer,2021.1.3,61.04909201683444,
block,scrambled,scrambled024.bmp,,,,,0,143,143,143,,,,,,,,,,,,,,,,,,,,,,,,,,,,,,,,,,,,,,,,,,None,,302.34777584000256,None,302.34777584000256,None,2022-03-04-11:55:03.897393,302.3565365000395,302.66522920003626,302.3565365000395,None,None,302.3565365000395,None,303.1661250400706,None,,,,22005,0001,2022_Mar_04_1150,localizer,2021.1.3,61.04909201683444,
block,scrambled,scrambled042.bmp,,,,,0,144,144,144,,,,,,,,,,,,,,,,,,,,,,,,,,,,,,,,,,,,,,,,,,None,,303.1661250400706,None,303.1661250400706,None,2022-03-04-11:55:04.717625,303.1793856000295,303.48216640006285,303.1793856000295,None,None,303.1793856000295,None,303.98182684000346,None,,,,22005,0001,2022_Mar_04_1150,localizer,2021.1.3,61.04909201683444,
block,scrambled,scrambled069.bmp,,,,,0,145,145,145,,,,,,,,,,,,,,,,,,,,,,,,,,,,,,,,,,,,,,,,,,None,,303.98182684000346,None,303.98182684000346,None,2022-03-04-11:55:05.533341,303.99416900007054,304.2989515000954,303.99416900007054,None,None,303.99416900007054,None,304.79930354006353,None,,,,22005,0001,2022_Mar_04_1150,localizer,2021.1.3,61.04909201683444,
block,scrambled,scrambled036.bmp,,,,,0,146,146,146,,,,,,,,,,,,,,,,,,,,,,,,,,,,,,,,,,,,,,,,,,None,,304.79930354006353,None,304.79930354006353,None,2022-03-04-11:55:06.351803,304.80157440004405,305.1150403000647,304.80157440004405,None,None,304.80157440004405,None,305.61476744004756,None,,,,22005,0001,2022_Mar_04_1150,localizer,2021.1.3,61.04909201683444,
block,scrambled,scrambled007.bmp,,,,,0,147,147,147,,,,,,,,,,,,,,,,,,,,,,,,,,,,,,,,,,,,,,,,,,None,,305.61476744004756,None,305.61476744004756,None,2022-03-04-11:55:07.165310,305.6250476000132,305.93264230003115,305.6250476000132,None,None,305.6250476000132,None,306.4313772400259,None,,,,22005,0001,2022_Mar_04_1150,localizer,2021.1.3,61.04909201683444,
block,scrambled,scrambled061.bmp,,,,,0,148,148,148,,,,,,,,,,,,,,,,,,,,,,,,,,,,,,,,,,,,,,,,,,None,,306.4313772400259,None,306.4313772400259,None,2022-03-04-11:55:07.981899,306.4410813000286,306.7485255000647,306.4410813000286,None,None,306.4410813000286,None,307.2548930400866,None,,,,22005,0001,2022_Mar_04_1150,localizer,2021.1.3,61.04909201683444,
block,scrambled,scrambled088.bmp,,,,,0,149,149,149,,,,,,,,,,,,,,,,,,,,,,,,,,,,,,,,,,,,,,,,,,None,,307.2548930400866,None,307.2548930400866,None,2022-03-04-11:55:08.811290,307.27312950009946,307.58188750001136,307.27312950009946,None,None,307.27312950009946,None,308.0654051400837,None,,,,22005,0001,2022_Mar_04_1150,localizer,2021.1.3,61.04909201683444,
block,scrambled,scrambled056.bmp,,,,,0,150,150,150,,,,,,,,,,,,,,,,,,,,,,,,,,,,,,,,,,,,,,,,,,None,,308.0654051400837,None,308.0654051400837,None,2022-03-04-11:55:09.616912,308.0776363000041,308.3816718000453,308.0776363000041,None,None,308.0776363000041,None,308.882193540025,None,,,,22005,0001,2022_Mar_04_1150,localizer,2021.1.3,61.04909201683444,
block_end,scrambled,scrambled076.bmp,,,,,0,151,151,151,,,,,,,,,,,,,,,,,,,,,,,,,,,,,,,,,,,,,,,,,,None,,308.882193540025,None,308.882193540025,None,2022-03-04-11:55:10.433882,308.88318130001426,309.1992208000738,308.88318130001426,None,None,308.88318130001426,None,309.69874584003117,None,,,,22005,0001,2022_Mar_04_1150,localizer,2021.1.3,61.04909201683444,
block_start,scenes,scenes015.bmp,,,,,0,152,152,152,,,,,,,,,,,,,,,,,,,,,,,,,,,,,,,,,,,,,,,,,,t,1.7420227000257,309.69918080000207,None,309.69918080000207,None,2022-03-04-11:55:13.018797,311.47586120001506,311.781687800074,311.47586120001506,None,None,311.47586120001506,None,312.2814717400237,None,,,,22005,0001,2022_Mar_04_1150,localizer,2021.1.3,61.04909201683444,
block,scenes,scenes040.bmp,,,,,0,153,153,153,,,,,,,,,,,,,,,,,,,,,,,,,,,,,,,,,,,,,,,,,,None,,312.2814717400237,None,312.2814717400237,None,2022-03-04-11:55:13.831532,312.2908970999997,312.59889020002447,312.2908970999997,None,None,312.2908970999997,None,313.0984161399887,None,,,,22005,0001,2022_Mar_04_1150,localizer,2021.1.3,61.04909201683444,
block,scenes,scenes065.bmp,,,,,0,154,154,154,,,,,,,,,,,,,,,,,,,,,,,,,,,,,,,,,,,,,,,,,,None,,313.0984161399887,None,313.0984161399887,None,2022-03-04-11:55:14.650226,313.0994964001002,313.4153301999904,313.0994964001002,None,None,313.0994964001002,None,313.914916240063,None,,,,22005,0001,2022_Mar_04_1150,localizer,2021.1.3,61.04909201683444,
block,scenes,scenes051.bmp,,,,,0,155,155,155,,,,,,,,,,,,,,,,,,,,,,,,,,,,,,,,,,,,,,,,,,None,,313.914916240063,None,313.914916240063,None,2022-03-04-11:55:15.465688,313.9161285000155,314.22227580007166,313.9161285000155,None,None,313.9161285000155,None,314.731400140014,None,,,,22005,0001,2022_Mar_04_1150,localizer,2021.1.3,61.04909201683444,
block,scenes,scenes044.bmp,,,,,0,156,156,156,,,,,,,,,,,,,,,,,,,,,,,,,,,,,,,,,,,,,,,,,,None,,314.731400140014,None,314.731400140014,None,2022-03-04-11:55:16.282476,314.73277910007164,315.0487614000449,314.73277910007164,None,None,314.73277910007164,None,315.5483078400488,None,,,,22005,0001,2022_Mar_04_1150,localizer,2021.1.3,61.04909201683444,
block,scenes,scenes013.bmp,,,,,0,157,157,157,,,,,,,,,,,,,,,,,,,,,,,,,,,,,,,,,,,,,,,,,,None,,315.5483078400488,None,315.5483078400488,None,2022-03-04-11:55:17.098826,315.55986610008404,315.86506350000855,315.55986610008404,None,None,315.55986610008404,None,316.36625384007345,None,,,,22005,0001,2022_Mar_04_1150,localizer,2021.1.3,61.04909201683444,
block,scenes,scenes064.bmp,,,,,0,158,158,158,,,,,,,,,,,,,,,,,,,,,,,,,,,,,,,,,,,,,,,,,,None,,316.36625384007345,None,316.36625384007345,None,2022-03-04-11:55:17.918932,316.36901660007425,316.6823218000354,316.36901660007425,None,None,316.36901660007425,None,317.18197624004677,None,,,,22005,0001,2022_Mar_04_1150,localizer,2021.1.3,61.04909201683444,
block,scenes,scenes072.bmp,,,,,0,159,159,159,,,,,,,,,,,,,,,,,,,,,,,,,,,,,,,,,,,,,,,,,,None,,317.18197624004677,None,317.18197624004677,None,2022-03-04-11:55:18.733704,317.1941237000283,317.49856860004365,317.1941237000283,None,None,317.1941237000283,None,317.99949434007283,None,,,,22005,0001,2022_Mar_04_1150,localizer,2021.1.3,61.04909201683444,
block,scenes,scenes010.bmp,,,,,0,160,160,160,,,,,,,,,,,,,,,,,,,,,,,,,,,,,,,,,,,,,,,,,,None,,317.99949434007283,None,317.99949434007283,None,2022-03-04-11:55:19.551994,318.0020551000489,318.31646720005665,318.0020551000489,None,None,318.0020551000489,None,318.8163169400417,None,,,,22005,0001,2022_Mar_04_1150,localizer,2021.1.3,61.04909201683444,
block,scenes,scenes061.bmp,,,,,0,161,161,161,,,,,,,,,,,,,,,,,,,,,,,,,,,,,,,,,,,,,,,,,,None,,318.8163169400417,None,318.8163169400417,None,2022-03-04-11:55:20.368815,318.83186120004393,319.13189320010133,318.83186120004393,None,None,318.83186120004393,None,319.6315545400488,None,,,,22005,0001,2022_Mar_04_1150,localizer,2021.1.3,61.04909201683444,
block,scenes,scenes061.bmp,,,,,0,162,162,162,,,,,,,,,,,,,,,,,,,,,,,,,,,,,,,,,,,,,,,,,,None,,319.6315545400488,None,319.6315545400488,None,2022-03-04-11:55:21.182527,319.63275880005676,319.9487980999984,319.63275880005676,None,y,319.63275880005676,None,320.4482697400148,None,0.4933730000630021,,,22005,0001,2022_Mar_04_1150,localizer,2021.1.3,61.04909201683444,
block,scenes,scenes091.bmp,,,,,0,163,163,163,,,,,,,,,,,,,,,,,,,,,,,,,,,,,,,,,,,,,,,,,,None,,320.4482697400148,None,320.4482697400148,None,2022-03-04-11:55:21.999303,320.45965880004223,320.765183600015,320.45965880004223,None,None,320.45965880004223,None,321.264891740086,None,,,,22005,0001,2022_Mar_04_1150,localizer,2021.1.3,61.04909201683444,
block,scenes,scenes004.bmp,,,,,0,164,164,164,,,,,,,,,,,,,,,,,,,,,,,,,,,,,,,,,,,,,,,,,,None,,321.264891740086,None,321.264891740086,None,2022-03-04-11:55:22.815414,321.2816991000436,321.5817733000731,321.2816991000436,None,None,321.2816991000436,None,322.081557140022,None,,,,22005,0001,2022_Mar_04_1150,localizer,2021.1.3,61.04909201683444,
block,scenes,scenes041.bmp,,,,,0,165,165,165,,,,,,,,,,,,,,,,,,,,,,,,,,,,,,,,,,,,,,,,,,None,,322.081557140022,None,322.081557140022,None,2022-03-04-11:55:23.632292,322.0915270000696,322.3982608000515,322.0915270000696,None,None,322.0915270000696,None,322.89845284008186,None,,,,22005,0001,2022_Mar_04_1150,localizer,2021.1.3,61.04909201683444,
block_end,scenes,scenes075.bmp,,,,,0,166,166,166,,,,,,,,,,,,,,,,,,,,,,,,,,,,,,,,,,,,,,,,,,None,,322.89845284008186,None,322.89845284008186,None,2022-03-04-11:55:24.449189,322.90988160006236,323.2153770000441,322.90988160006236,None,None,322.90988160006236,None,323.7150147400447,None,,,,22005,0001,2022_Mar_04_1150,localizer,2021.1.3,61.04909201683444,
block_start,objects,objects020.bmp,,,,,0,167,167,167,,,,,,,,,,,,,,,,,,,,,,,,,,,,,,,,,,,,,,,,,,t,1.7258938000304624,323.71527849999256,None,323.71527849999256,None,2022-03-04-11:55:27.015517,325.4760421999963,325.7818619000027,325.4760421999963,None,None,325.4760421999963,None,326.2815746399923,None,,,,22005,0001,2022_Mar_04_1150,localizer,2021.1.3,61.04909201683444,
block,objects,objects082.bmp,,,,,0,168,168,168,,,,,,,,,,,,,,,,,,,,,,,,,,,,,,,,,,,,,,,,,,None,,326.2815746399923,None,326.2815746399923,None,2022-03-04-11:55:27.832097,326.2918439999921,326.5986909000203,326.2918439999921,None,None,326.2918439999921,None,327.09864904001586,None,,,,22005,0001,2022_Mar_04_1150,localizer,2021.1.3,61.04909201683444,
block,objects,objects065.bmp,,,,,0,169,169,169,,,,,,,,,,,,,,,,,,,,,,,,,,,,,,,,,,,,,,,,,,None,,327.09864904001586,None,327.09864904001586,None,2022-03-04-11:55:28.650163,327.1109238000354,327.4155075000599,327.1109238000354,None,None,327.1109238000354,None,327.9152109400951,None,,,,22005,0001,2022_Mar_04_1150,localizer,2021.1.3,61.04909201683444,
block,objects,objects087.bmp,,,,,0,170,170,170,,,,,,,,,,,,,,,,,,,,,,,,,,,,,,,,,,,,,,,,,,None,,327.9152109400951,None,327.9152109400951,None,2022-03-04-11:55:29.465713,327.92541530006565,328.23862940003164,327.92541530006565,None,None,327.92541530006565,None,328.73779264002803,None,,,,22005,0001,2022_Mar_04_1150,localizer,2021.1.3,61.04909201683444,
block,objects,objects068.bmp,,,,,0,171,171,171,,,,,,,,,,,,,,,,,,,,,,,,,,,,,,,,,,,,,,,,,,None,,328.73779264002803,None,328.73779264002803,None,2022-03-04-11:55:30.294188,328.7510540999938,329.0654066000134,328.7510540999938,None,None,328.7510540999938,None,329.5485127400956,None,,,,22005,0001,2022_Mar_04_1150,localizer,2021.1.3,61.04909201683444,
block,objects,objects049.bmp,,,,,0,172,172,172,,,,,,,,,,,,,,,,,,,,,,,,,,,,,,,,,,,,,,,,,,None,,329.5485127400956,None,329.5485127400956,None,2022-03-04-11:55:31.099265,329.55969890009146,329.8653293000534,329.55969890009146,None,None,329.55969890009146,None,330.36489214006576,None,,,,22005,0001,2022_Mar_04_1150,localizer,2021.1.3,61.04909201683444,
block,objects,objects027.bmp,,,,,0,173,173,173,,,,,,,,,,,,,,,,,,,,,,,,,,,,,,,,,,,,,,,,,,None,,330.36489214006576,None,330.36489214006576,None,2022-03-04-11:55:31.915614,330.3756300000241,330.6823244000552,330.3756300000241,None,None,330.3756300000241,None,331.1817487400607,None,,,,22005,0001,2022_Mar_04_1150,localizer,2021.1.3,61.04909201683444,
block,objects,objects050.bmp,,,,,0,174,174,174,,,,,,,,,,,,,,,,,,,,,,,,,,,,,,,,,,,,,,,,,,None,,331.1817487400607,None,331.1817487400607,None,2022-03-04-11:55:32.732270,331.19199190009385,331.4987362000393,331.19199190009385,None,None,331.19199190009385,None,331.99895874006904,None,,,,22005,0001,2022_Mar_04_1150,localizer,2021.1.3,61.04909201683444,
block,objects,objects030.bmp,,,,,0,175,175,175,,,,,,,,,,,,,,,,,,,,,,,,,,,,,,,,,,,,,,,,,,None,,331.99895874006904,None,331.99895874006904,None,2022-03-04-11:55:33.550415,332.0108068000991,332.3152533000102,332.0108068000991,None,None,332.0108068000991,None,332.8149268400506,None,,,,22005,0001,2022_Mar_04_1150,localizer,2021.1.3,61.04909201683444,
block,objects,objects056.bmp,,,,,0,176,176,176,,,,,,,,,,,,,,,,,,,,,,,,,,,,,,,,,,,,,,,,,,None,,332.8149268400506,None,332.8149268400506,None,2022-03-04-11:55:34.365451,332.82498190004844,333.13199020002503,332.82498190004844,None,None,332.82498190004844,None,333.63140444007,None,,,,22005,0001,2022_Mar_04_1150,localizer,2021.1.3,61.04909201683444,
block,objects,objects035.bmp,,,,,0,177,177,177,,,,,,,,,,,,,,,,,,,,,,,,,,,,,,,,,,,,,,,,,,None,,333.63140444007,None,333.63140444007,None,2022-03-04-11:55:35.181969,333.63287390000187,333.9487686000066,333.63287390000187,None,None,333.63287390000187,None,334.4337926400243,None,,,,22005,0001,2022_Mar_04_1150,localizer,2021.1.3,61.04909201683444,
block,objects,objects003.bmp,,,,,0,178,178,178,,,,,,,,,,,,,,,,,,,,,,,,,,,,,,,,,,,,,,,,,,None,,334.4337926400243,None,334.4337926400243,None,2022-03-04-11:55:35.990463,334.45322940009646,334.7659854000667,334.45322940009646,334.45322940009646,None,334.45322940009646,334.45322940009646,335.2490778400446,None,,,,22005,0001,2022_Mar_04_1150,localizer,2021.1.3,61.04909201683444,
block,objects,objects070.bmp,,,,,0,179,179,179,,,,,,,,,,,,,,,,,,,,,,,,,,,,,,,,,,,,,,,,,,None,,335.2490778400446,None,335.2490778400446,None,2022-03-04-11:55:36.800805,335.2517503000563,335.5661007000599,335.2517503000563,None,None,335.2517503000563,None,336.06470774001207,None,,,,22005,0001,2022_Mar_04_1150,localizer,2021.1.3,61.04909201683444,
block,objects,objects018.bmp,,,,,0,180,180,180,,,,,,,,,,,,,,,,,,,,,,,,,,,,,,,,,,,,,,,,,,None,,336.06470774001207,None,336.06470774001207,None,2022-03-04-11:55:37.615235,336.0703958000522,336.3718875000486,336.0703958000522,None,None,336.0703958000522,None,336.8828722400707,None,,,,22005,0001,2022_Mar_04_1150,localizer,2021.1.3,61.04909201683444,
block_end,objects,objects075.bmp,,,,,0,181,181,181,,,,,,,,,,,,,,,,,,,,,,,,,,,,,,,,,,,,,,,,,,None,,336.8828722400707,None,336.8828722400707,None,2022-03-04-11:55:38.434870,336.8978706999915,337.19898190000094,336.8978706999915,None,None,336.8978706999915,None,337.69887933999996,None,,,,22005,0001,2022_Mar_04_1150,localizer,2021.1.3,61.04909201683444,
null_block,null_block,null_block.bmp,,,,,0,182,182,182,,,,,,,,,,,,,,,,,,,,,,,,,,,,,,,,,,,,,,,,,,t,1.7414486999623477,337.6988299000077,None,337.6988299000077,None,2022-03-04-11:55:41.020582,339.46704404001355,None,339.46704404001355,None,None,339.46704404001355,None,339.4759866000386,None,,,,22005,0001,2022_Mar_04_1150,localizer,2021.1.3,61.04909201683444,
block_start,scenes,scenes009.bmp,,,,,0,183,183,183,,,,,,,,,,,,,,,,,,,,,,,,,,,,,,,,,,,,,,,,,,t,1.9577593000140041,351.48281350010075,None,351.48281350010075,None,2022-03-04-11:55:55.016330,353.4762419000035,353.7817745000357,353.4762419000035,None,None,353.4762419000035,None,354.2817239400814,None,,,,22005,0001,2022_Mar_04_1150,localizer,2021.1.3,61.04909201683444,
block,scenes,scenes081.bmp,,,,,0,184,184,184,,,,,,,,,,,,,,,,,,,,,,,,,,,,,,,,,,,,,,,,,,None,,354.2817239400814,None,354.2817239400814,None,2022-03-04-11:55:55.832247,354.2923048000084,354.59852080000564,354.2923048000084,None,None,354.2923048000084,None,355.09861444010164,None,,,,22005,0001,2022_Mar_04_1150,localizer,2021.1.3,61.04909201683444,
block,scenes,scenes057.bmp,,,,,0,185,185,185,,,,,,,,,,,,,,,,,,,,,,,,,,,,,,,,,,,,,,,,,,None,,355.09861444010164,None,355.09861444010164,None,2022-03-04-11:55:56.649145,355.10492330009583,355.41946040000767,355.10492330009583,None,None,355.10492330009583,None,355.9164029400912,None,,,,22005,0001,2022_Mar_04_1150,localizer,2021.1.3,61.04909201683444,
block,scenes,scenes003.bmp,,,,,0,186,186,186,,,,,,,,,,,,,,,,,,,,,,,,,,,,,,,,,,,,,,,,,,None,,355.9164029400912,None,355.9164029400912,None,2022-03-04-11:55:57.467884,355.9310383000411,356.2383902000729,355.9310383000411,None,None,355.9310383000411,None,356.7319706400507,None,,,,22005,0001,2022_Mar_04_1150,localizer,2021.1.3,61.04909201683444,
block,scenes,scenes088.bmp,,,,,0,187,187,187,,,,,,,,,,,,,,,,,,,,,,,,,,,,,,,,,,,,,,,,,,None,,356.7319706400507,None,356.7319706400507,None,2022-03-04-11:55:58.282457,356.74237960006576,357.048964500078,356.74237960006576,None,None,356.74237960006576,None,357.5485435400973,None,,,,22005,0001,2022_Mar_04_1150,localizer,2021.1.3,61.04909201683444,
block,scenes,scenes025.bmp,,,,,0,188,188,188,,,,,,,,,,,,,,,,,,,,,,,,,,,,,,,,,,,,,,,,,,None,,357.5485435400973,None,357.5485435400973,None,2022-03-04-11:55:59.099537,357.56606119999196,357.86608080007136,357.56606119999196,None,None,357.56606119999196,None,358.36574254002187,None,,,,22005,0001,2022_Mar_04_1150,localizer,2021.1.3,61.04909201683444,
block,scenes,scenes075.bmp,,,,,0,189,189,189,,,,,,,,,,,,,,,,,,,,,,,,,,,,,,,,,,,,,,,,,,None,,358.36574254002187,None,358.36574254002187,None,2022-03-04-11:55:59.917217,358.3675787000684,358.68212350003887,358.3675787000684,None,None,358.3675787000684,None,359.1819091400015,None,,,,22005,0001,2022_Mar_04_1150,localizer,2021.1.3,61.04909201683444,
block,scenes,scenes078.bmp,,,,,0,190,190,190,,,,,,,,,,,,,,,,,,,,,,,,,,,,,,,,,,,,,,,,,,None,,359.1819091400015,None,359.1819091400015,None,2022-03-04-11:56:00.732432,359.1831532000797,359.498988400097,359.1831532000797,None,None,359.1831532000797,None,359.9984541400685,None,,,,22005,0001,2022_Mar_04_1150,localizer,2021.1.3,61.04909201683444,
block,scenes,scenes005.bmp,,,,,0,191,191,191,,,,,,,,,,,,,,,,,,,,,,,,,,,,,,,,,,,,,,,,,,None,,359.9984541400685,None,359.9984541400685,None,2022-03-04-11:56:01.548978,359.99965730006807,360.3153923000209,359.99965730006807,None,None,359.99965730006807,None,360.79887584006644,None,,,,22005,0001,2022_Mar_04_1150,localizer,2021.1.3,61.04909201683444,
block,scenes,scenes020.bmp,,,,,0,192,192,192,,,,,,,,,,,,,,,,,,,,,,,,,,,,,,,,,,,,,,,,,,None,,360.79887584006644,None,360.79887584006644,None,2022-03-04-11:56:02.352625,360.8127409000881,361.11558430001605,360.8127409000881,360.8127409000881,None,360.8127409000881,360.8127409000881,361.6150976400007,None,,,,22005,0001,2022_Mar_04_1150,localizer,2021.1.3,61.04909201683444,
block,scenes,scenes006.bmp,,,,,0,193,193,193,,,,,,,,,,,,,,,,,,,,,,,,,,,,,,,,,,,,,,,,,,None,,361.6150976400007,None,361.6150976400007,None,2022-03-04-11:56:03.165618,361.62574530008715,361.9319315000903,361.62574530008715,None,None,361.62574530008715,None,362.4318434400833,None,,,,22005,0001,2022_Mar_04_1150,localizer,2021.1.3,61.04909201683444,
block,scenes,scenes047.bmp,,,,,0,194,194,194,,,,,,,,,,,,,,,,,,,,,,,,,,,,,,,,,,,,,,,,,,None,,362.4318434400833,None,362.4318434400833,None,2022-03-04-11:56:03.982578,362.4423892000923,362.75179310003296,362.4423892000923,None,None,362.4423892000923,None,363.24814914007436,None,,,,22005,0001,2022_Mar_04_1150,localizer,2021.1.3,61.04909201683444,
block,scenes,scenes028.bmp,,,,,0,195,195,195,,,,,,,,,,,,,,,,,,,,,,,,,,,,,,,,,,,,,,,,,,None,,363.24814914007436,None,363.24814914007436,None,2022-03-04-11:56:04.798390,363.2510450000409,363.56566800002474,363.2510450000409,None,None,363.2510450000409,None,364.0654644400696,None,,,,22005,0001,2022_Mar_04_1150,localizer,2021.1.3,61.04909201683444,
block,scenes,scenes022.bmp,,,,,0,196,196,196,,,,,,,,,,,,,,,,,,,,,,,,,,,,,,,,,,,,,,,,,,None,,364.0654644400696,None,364.0654644400696,None,2022-03-04-11:56:05.616190,364.07877040002495,364.3823628000682,364.07877040002495,None,None,364.07877040002495,None,364.8826743400772,None,,,,22005,0001,2022_Mar_04_1150,localizer,2021.1.3,61.04909201683444,
block_end,scenes,scenes015.bmp,,,,,0,197,197,197,,,,,,,,,,,,,,,,,,,,,,,,,,,,,,,,,,,,,,,,,,None,,364.8826743400772,None,364.8826743400772,None,2022-03-04-11:56:06.435048,364.886024300009,365.1997714000754,364.886024300009,None,None,364.886024300009,None,365.6995201399899,None,,,,22005,0001,2022_Mar_04_1150,localizer,2021.1.3,61.04909201683444,
null_block,null_block,null_block.bmp,,,,,0,198,198,198,,,,,,,,,,,,,,,,,,,,,,,,,,,,,,,,,,,,,,,,,,t,1.7403625999577343,365.69993040000554,None,365.69993040000554,None,2022-03-04-11:56:09.018721,367.4671887400676,None,367.4671887400676,None,None,367.4671887400676,None,367.4729452000465,None,,,,22005,0001,2022_Mar_04_1150,localizer,2021.1.3,61.04909201683444,
block_start,objects,objects060.bmp,,,,,0,199,199,199,,,,,,,,,,,,,,,,,,,,,,,,,,,,,,,,,,,,,,,,,,t,1.9579620999284089,379.4821684000781,None,379.4821684000781,None,2022-03-04-11:56:23.016877,381.47748920007143,381.7823240000289,381.47748920007143,None,None,381.47748920007143,None,382.2819979400723,None,,,,22005,0001,2022_Mar_04_1150,localizer,2021.1.3,61.04909201683444,
block,objects,objects084.bmp,,,,,0,200,200,200,,,,,,,,,,,,,,,,,,,,,,,,,,,,,,,,,,,,,,,,,,None,,382.2819979400723,None,382.2819979400723,None,2022-03-04-11:56:23.832519,382.2923753000796,382.5989913000958,382.2923753000796,None,None,382.2923753000796,None,383.09876134005606,None,,,,22005,0001,2022_Mar_04_1150,localizer,2021.1.3,61.04909201683444,
block,objects,objects041.bmp,,,,,0,201,201,201,,,,,,,,,,,,,,,,,,,,,,,,,,,,,,,,,,,,,,,,,,None,,383.09876134005606,None,383.09876134005606,None,2022-03-04-11:56:24.649282,383.1089867000701,383.41576740005985,383.1089867000701,None,None,383.1089867000701,None,383.9156852400978,None,,,,22005,0001,2022_Mar_04_1150,localizer,2021.1.3,61.04909201683444,
block,objects,objects051.bmp,,,,,0,202,202,202,,,,,,,,,,,,,,,,,,,,,,,,,,,,,,,,,,,,,,,,,,None,,383.9156852400978,None,383.9156852400978,None,2022-03-04-11:56:25.467199,383.9279365000548,384.23233090003487,383.9279365000548,None,None,383.9279365000548,None,384.7321194400196,None,,,,22005,0001,2022_Mar_04_1150,localizer,2021.1.3,61.04909201683444,
block,objects,objects009.bmp,,,,,0,203,203,203,,,,,,,,,,,,,,,,,,,,,,,,,,,,,,,,,,,,,,,,,,None,,384.7321194400196,None,384.7321194400196,None,2022-03-04-11:56:26.282638,384.7332214000635,385.0491836000001,384.7332214000635,None,None,384.7332214000635,None,385.5487706400803,None,,,,22005,0001,2022_Mar_04_1150,localizer,2021.1.3,61.04909201683444,
block,objects,objects044.bmp,,,,,0,204,204,204,,,,,,,,,,,,,,,,,,,,,,,,,,,,,,,,,,,,,,,,,,None,,385.5487706400803,None,385.5487706400803,None,2022-03-04-11:56:27.099293,385.54998790007085,385.86563350004144,385.54998790007085,None,None,385.54998790007085,None,386.3491777400835,None,,,,22005,0001,2022_Mar_04_1150,localizer,2021.1.3,61.04909201683444,
block,objects,objects067.bmp,,,,,0,205,205,205,,,,,,,,,,,,,,,,,,,,,,,,,,,,,,,,,,,,,,,,,,None,,386.3491777400835,None,386.3491777400835,None,2022-03-04-11:56:27.902683,386.3585148000857,386.6655212000478,386.3585148000857,386.3585148000857,None,386.3585148000857,386.3585148000857,387.165528440068,None,,,,22005,0001,2022_Mar_04_1150,localizer,2021.1.3,61.04909201683444,
block,objects,objects070.bmp,,,,,0,206,206,206,,,,,,,,,,,,,,,,,,,,,,,,,,,,,,,,,,,,,,,,,,None,,387.165528440068,None,387.165528440068,None,2022-03-04-11:56:28.716047,387.16698370000813,387.4664225000888,387.16698370000813,None,None,387.16698370000813,None,387.9822927400586,None,,,,22005,0001,2022_Mar_04_1150,localizer,2021.1.3,61.04909201683444,
block,objects,objects049.bmp,,,,,0,207,207,207,,,,,,,,,,,,,,,,,,,,,,,,,,,,,,,,,,,,,,,,,,None,,387.9822927400586,None,387.9822927400586,None,2022-03-04-11:56:29.532997,387.98326650005765,388.2992251000833,387.98326650005765,None,None,387.98326650005765,None,388.788428640028,None,,,,22005,0001,2022_Mar_04_1150,localizer,2021.1.3,61.04909201683444,
block,objects,objects077.bmp,,,,,0,208,208,208,,,,,,,,,,,,,,,,,,,,,,,,,,,,,,,,,,,,,,,,,,None,,388.788428640028,None,388.788428640028,None,2022-03-04-11:56:30.345696,388.7961068000877,389.09938500006683,388.7961068000877,None,None,388.7961068000877,None,389.59876624009337,None,,,,22005,0001,2022_Mar_04_1150,localizer,2021.1.3,61.04909201683444,
block,objects,objects079.bmp,,,,,0,209,209,209,,,,,,,,,,,,,,,,,,,,,,,,,,,,,,,,,,,,,,,,,,None,,389.59876624009337,None,389.59876624009337,None,2022-03-04-11:56:31.149288,389.5998479000991,389.91553630004637,389.5998479000991,None,None,389.5998479000991,None,390.3989885400864,None,,,,22005,0001,2022_Mar_04_1150,localizer,2021.1.3,61.04909201683444,
block,objects,objects015.bmp,,,,,0,210,210,210,,,,,,,,,,,,,,,,,,,,,,,,,,,,,,,,,,,,,,,,,,None,,390.3989885400864,None,390.3989885400864,None,2022-03-04-11:56:31.951606,390.41225230006967,390.71562320005614,390.41225230006967,390.41225230006967,None,390.41225230006967,390.41225230006967,391.21552944000575,None,,,,22005,0001,2022_Mar_04_1150,localizer,2021.1.3,61.04909201683444,
block,objects,objects055.bmp,,,,,0,211,211,211,,,,,,,,,,,,,,,,,,,,,,,,,,,,,,,,,,,,,,,,,,None,,391.21552944000575,None,391.21552944000575,None,2022-03-04-11:56:32.766258,391.22796060005203,391.5325827000197,391.22796060005203,None,None,391.22796060005203,None,392.0323669400881,None,,,,22005,0001,2022_Mar_04_1150,localizer,2021.1.3,61.04909201683444,
block,objects,objects048.bmp,,,,,0,212,212,212,,,,,,,,,,,,,,,,,,,,,,,,,,,,,,,,,,,,,,,,,,None,,392.0323669400881,None,392.0323669400881,None,2022-03-04-11:56:33.582785,392.0433659000555,392.3494420000352,392.0433659000555,None,None,392.0433659000555,None,392.8490818400518,None,,,,22005,0001,2022_Mar_04_1150,localizer,2021.1.3,61.04909201683444,
block_end,objects,objects047.bmp,,,,,0,213,213,213,,,,,,,,,,,,,,,,,,,,,,,,,,,,,,,,,,,,,,,,,,None,,392.8490818400518,None,392.8490818400518,None,2022-03-04-11:56:34.400574,392.8500073000323,393.1494767999975,392.8500073000323,None,None,392.8500073000323,None,393.65520694005534,None,,,,22005,0001,2022_Mar_04_1150,localizer,2021.1.3,61.04909201683444,
block_start,scrambled,scrambled051.bmp,,,,,0,214,214,214,,,,,,,,,,,,,,,,,,,,,,,,,,,,,,,,,,,,,,,,,,t,1.7882111000362784,393.6521174000809,None,393.6521174000809,None,2022-03-04-11:56:37.019162,395.4694039000897,395.7830857000081,395.4694039000897,None,None,395.4694039000897,None,396.27186554010257,None,,,,22005,0001,2022_Mar_04_1150,localizer,2021.1.3,61.04909201683444,
block,scrambled,scrambled025.bmp,,,,,0,215,215,215,,,,,,,,,,,,,,,,,,,,,,,,,,,,,,,,,,,,,,,,,,None,,396.27186554010257,None,396.27186554010257,None,2022-03-04-11:56:37.826432,396.27642150002066,396.5825599000091,396.27642150002066,None,None,396.27642150002066,None,397.08213124008614,None,,,,22005,0001,2022_Mar_04_1150,localizer,2021.1.3,61.04909201683444,
block,scrambled,scrambled042.bmp,,,,,0,216,216,216,,,,,,,,,,,,,,,,,,,,,,,,,,,,,,,,,,,,,,,,,,None,,397.08213124008614,None,397.08213124008614,None,2022-03-04-11:56:38.632873,397.0833419000264,397.3988582000602,397.0833419000264,None,None,397.0833419000264,None,397.8986837400938,None,,,,22005,0001,2022_Mar_04_1150,localizer,2021.1.3,61.04909201683444,
block,scrambled,scrambled088.bmp,,,,,0,217,217,217,,,,,,,,,,,,,,,,,,,,,,,,,,,,,,,,,,,,,,,,,,None,,397.8986837400938,None,397.8986837400938,None,2022-03-04-11:56:39.449634,397.89991160004865,398.2156760999933,397.89991160004865,None,None,397.89991160004865,None,398.6995565400342,None,,,,22005,0001,2022_Mar_04_1150,localizer,2021.1.3,61.04909201683444,
block,scrambled,scrambled033.bmp,,,,,0,218,218,218,,,,,,,,,,,,,,,,,,,,,,,,,,,,,,,,,,,,,,,,,,None,,398.6995565400342,None,398.6995565400342,None,2022-03-04-11:56:40.251082,398.70948459999636,399.0157081000507,398.70948459999636,398.70948459999636,None,398.70948459999636,398.70948459999636,399.5167692400631,None,,,,22005,0001,2022_Mar_04_1150,localizer,2021.1.3,61.04909201683444,
block,scrambled,scrambled047.bmp,,,,,0,219,219,219,,,,,,,,,,,,,,,,,,,,,,,,,,,,,,,,,,,,,,,,,,None,,399.5167692400631,None,399.5167692400631,None,2022-03-04-11:56:41.069447,399.53040739998687,399.83213930006605,399.53040739998687,None,y,399.53040739998687,None,400.33197914009213,None,0.38465450005605817,,,22005,0001,2022_Mar_04_1150,localizer,2021.1.3,61.04909201683444,
block,scrambled,scrambled013.bmp,,,,,0,220,220,220,,,,,,,,,,,,,,,,,,,,,,,,,,,,,,,,,,,,,,,,,,None,,400.33197914009213,None,400.33197914009213,None,2022-03-04-11:56:41.882733,400.3417933000019,400.64905190002173,400.3417933000019,None,None,400.3417933000019,None,401.14922614003297,None,,,,22005,0001,2022_Mar_04_1150,localizer,2021.1.3,61.04909201683444,
block,scrambled,scrambled028.bmp,,,,,0,221,221,221,,,,,,,,,,,,,,,,,,,,,,,,,,,,,,,,,,,,,,,,,,None,,401.14922614003297,None,401.14922614003297,None,2022-03-04-11:56:42.700736,401.1610527000157,401.4663808000041,401.1610527000157,None,None,401.1610527000157,None,401.9667688400135,None,,,,22005,0001,2022_Mar_04_1150,localizer,2021.1.3,61.04909201683444,
block,scrambled,scrambled030.bmp,,,,,0,222,222,222,,,,,,,,,,,,,,,,,,,,,,,,,,,,,,,,,,,,,,,,,,None,,401.9667688400135,None,401.9667688400135,None,2022-03-04-11:56:43.519809,401.980057900073,402.28268629999366,401.980057900073,None,None,401.980057900073,None,402.78328314007956,None,,,,22005,0001,2022_Mar_04_1150,localizer,2021.1.3,61.04909201683444,
block,scrambled,scrambled010.bmp,,,,,0,223,223,223,,,,,,,,,,,,,,,,,,,,,,,,,,,,,,,,,,,,,,,,,,None,,402.78328314007956,None,402.78328314007956,None,2022-03-04-11:56:44.336755,402.78660500003025,403.09961050003767,402.78660500003025,None,None,402.78660500003025,None,403.5995715400553,None,,,,22005,0001,2022_Mar_04_1150,localizer,2021.1.3,61.04909201683444,
block,scrambled,scrambled011.bmp,,,,,0,224,224,224,,,,,,,,,,,,,,,,,,,,,,,,,,,,,,,,,,,,,,,,,,None,,403.5995715400553,None,403.5995715400553,None,2022-03-04-11:56:45.151275,403.6119387000799,403.91643670003396,403.6119387000799,None,None,403.6119387000799,None,404.41556014007654,None,,,,22005,0001,2022_Mar_04_1150,localizer,2021.1.3,61.04909201683444,
block,scrambled,scrambled029.bmp,,,,,0,225,225,225,,,,,,,,,,,,,,,,,,,,,,,,,,,,,,,,,,,,,,,,,,None,,404.41556014007654,None,404.41556014007654,None,2022-03-04-11:56:45.966559,404.42677980009466,404.73252339998726,404.42677980009466,None,None,404.42677980009466,None,405.2323631400126,None,,,,22005,0001,2022_Mar_04_1150,localizer,2021.1.3,61.04909201683444,
block,scrambled,scrambled075.bmp,,,,,0,226,226,226,,,,,,,,,,,,,,,,,,,,,,,,,,,,,,,,,,,,,,,,,,None,,405.2323631400126,None,405.2323631400126,None,2022-03-04-11:56:46.783114,405.2435800000094,405.549803800066,405.2435800000094,None,None,405.2435800000094,None,406.0488607400679,None,,,,22005,0001,2022_Mar_04_1150,localizer,2021.1.3,61.04909201683444,
block,scrambled,scrambled037.bmp,,,,,0,227,227,227,,,,,,,,,,,,,,,,,,,,,,,,,,,,,,,,,,,,,,,,,,None,,406.0488607400679,None,406.0488607400679,None,2022-03-04-11:56:47.599608,406.04991310008336,406.34941630007233,406.04991310008336,None,None,406.04991310008336,None,406.8653716399916,None,,,,22005,0001,2022_Mar_04_1150,localizer,2021.1.3,61.04909201683444,
block_end,scrambled,scrambled004.bmp,,,,,0,228,228,228,,,,,,,,,,,,,,,,,,,,,,,,,,,,,,,,,,,,,,,,,,None,,406.8653716399916,None,406.8653716399916,None,2022-03-04-11:56:48.416586,406.8755384000251,407.1824342000764,406.8755384000251,None,None,406.8755384000251,None,407.681890840095,None,,,,22005,0001,2022_Mar_04_1150,localizer,2021.1.3,61.04909201683444,
block_start,faces,faces056.bmp,,,,,0,229,229,229,,,,,,,,,,,,,,,,,,,,,,,,,,,,,,,,,,,,,,,,,,t,1.757801799918525,407.68249480007216,None,407.68249480007216,None,2022-03-04-11:56:51.014300,409.4750272000674,409.7825366000179,409.4750272000674,None,None,409.4750272000674,None,410.282047840103,None,,,,22005,0001,2022_Mar_04_1150,localizer,2021.1.3,61.04909201683444,
block,faces,faces059.bmp,,,,,0,230,230,230,,,,,,,,,,,,,,,,,,,,,,,,,,,,,,,,,,,,,,,,,,None,,410.282047840103,None,410.282047840103,None,2022-03-04-11:56:51.832575,410.283720800071,410.59943950001616,410.283720800071,None,None,410.283720800071,None,411.0983979400829,None,,,,22005,0001,2022_Mar_04_1150,localizer,2021.1.3,61.04909201683444,
block,faces,faces006.bmp,,,,,0,231,231,231,,,,,,,,,,,,,,,,,,,,,,,,,,,,,,,,,,,,,,,,,,None,,411.0983979400829,None,411.0983979400829,None,2022-03-04-11:56:52.649207,411.1094612000743,411.41572580009233,411.1094612000743,None,None,411.1094612000743,None,411.9151022400823,None,,,,22005,0001,2022_Mar_04_1150,localizer,2021.1.3,61.04909201683444,
block,faces,faces079.bmp,,,,,0,232,232,232,,,,,,,,,,,,,,,,,,,,,,,,,,,,,,,,,,,,,,,,,,None,,411.9151022400823,None,411.9151022400823,None,2022-03-04-11:56:53.464450,411.91654250002466,412.2357885000529,411.91654250002466,None,None,411.91654250002466,None,412.73215134002965,None,,,,22005,0001,2022_Mar_04_1150,localizer,2021.1.3,61.04909201683444,
block,faces,faces082.bmp,,,,,0,233,233,233,,,,,,,,,,,,,,,,,,,,,,,,,,,,,,,,,,,,,,,,,,None,,412.73215134002965,None,412.73215134002965,None,2022-03-04-11:56:54.282672,412.7410727000097,413.04937780008186,412.7410727000097,None,None,412.7410727000097,None,413.54874124008927,None,,,,22005,0001,2022_Mar_04_1150,localizer,2021.1.3,61.04909201683444,
block,faces,faces063.bmp,,,,,0,234,234,234,,,,,,,,,,,,,,,,,,,,,,,,,,,,,,,,,,,,,,,,,,None,,413.54874124008927,None,413.54874124008927,None,2022-03-04-11:56:55.099423,413.5500978000928,413.8658465000335,413.5500978000928,None,None,413.5500978000928,None,414.3655825400841,None,,,,22005,0001,2022_Mar_04_1150,localizer,2021.1.3,61.04909201683444,
block,faces,faces076.bmp,,,,,0,235,235,235,,,,,,,,,,,,,,,,,,,,,,,,,,,,,,,,,,,,,,,,,,None,,414.3655825400841,None,414.3655825400841,None,2022-03-04-11:56:55.916231,414.37754290003795,414.6823022000026,414.37754290003795,None,None,414.37754290003795,None,415.1819019400631,None,,,,22005,0001,2022_Mar_04_1150,localizer,2021.1.3,61.04909201683444,
block,faces,faces051.bmp,,,,,0,236,236,236,,,,,,,,,,,,,,,,,,,,,,,,,,,,,,,,,,,,,,,,,,None,,415.1819019400631,None,415.1819019400631,None,2022-03-04-11:56:56.732419,415.19434660009574,415.4991375000682,415.19434660009574,None,None,415.19434660009574,None,415.9984367400524,None,,,,22005,0001,2022_Mar_04_1150,localizer,2021.1.3,61.04909201683444,
block,faces,faces023.bmp,,,,,0,237,237,237,,,,,,,,,,,,,,,,,,,,,,,,,,,,,,,,,,,,,,,,,,None,,415.9984367400524,None,415.9984367400524,None,2022-03-04-11:56:57.549250,416.0000556000741,416.3157737000147,416.0000556000741,None,None,416.0000556000741,None,416.80192954003576,None,,,,22005,0001,2022_Mar_04_1150,localizer,2021.1.3,61.04909201683444,
block,faces,faces020.bmp,,,,,0,238,238,238,,,,,,,,,,,,,,,,,,,,,,,,,,,,,,,,,,,,,,,,,,None,,416.80192954003576,None,416.80192954003576,None,2022-03-04-11:56:58.354366,416.81323780003004,417.1157138000708,416.81323780003004,416.81323780003004,None,416.81323780003004,416.81323780003004,417.6154534400324,None,,,,22005,0001,2022_Mar_04_1150,localizer,2021.1.3,61.04909201683444,
block,faces,faces020.bmp,,,,,0,239,239,239,,,,,,,,,,,,,,,,,,,,,,,,,,,,,,,,,,,,,,,,,,None,,417.6154534400324,None,417.6154534400324,None,2022-03-04-11:56:59.166005,417.6166403000243,417.93281950009987,417.6166403000243,None,y,417.6166403000243,None,418.41838174002476,None,0.4933756999671459,,,22005,0001,2022_Mar_04_1150,localizer,2021.1.3,61.04909201683444,
block,faces,faces052.bmp,,,,,0,240,240,240,,,,,,,,,,,,,,,,,,,,,,,,,,,,,,,,,,,,,,,,,,None,,418.41838174002476,None,418.41838174002476,None,2022-03-04-11:56:59.972877,418.434594499995,418.7490934000816,418.434594499995,418.434594499995,None,418.434594499995,418.434594499995,419.2319652400096,None,,,,22005,0001,2022_Mar_04_1150,localizer,2021.1.3,61.04909201683444,
block,faces,faces087.bmp,,,,,0,241,241,241,,,,,,,,,,,,,,,,,,,,,,,,,,,,,,,,,,,,,,,,,,None,,419.2319652400096,None,419.2319652400096,None,2022-03-04-11:57:00.781495,419.24720510002226,419.54911700007506,419.24720510002226,None,None,419.24720510002226,None,420.0487515400513,None,,,,22005,0001,2022_Mar_04_1150,localizer,2021.1.3,61.04909201683444,
block,faces,faces060.bmp,,,,,0,242,242,242,,,,,,,,,,,,,,,,,,,,,,,,,,,,,,,,,,,,,,,,,,None,,420.0487515400513,None,420.0487515400513,None,2022-03-04-11:57:01.599552,420.0586722000735,420.3653340000892,420.0586722000735,None,None,420.0586722000735,None,420.865600440104,None,,,,22005,0001,2022_Mar_04_1150,localizer,2021.1.3,61.04909201683444,
block_end,faces,faces068.bmp,,,,,0,243,243,243,,,,,,,,,,,,,,,,,,,,,,,,,,,,,,,,,,,,,,,,,,None,,420.865600440104,None,420.865600440104,None,2022-03-04-11:57:02.416119,420.87822960002813,421.18283790000714,420.87822960002813,None,None,420.87822960002813,None,421.6824108400964,None,,,,22005,0001,2022_Mar_04_1150,localizer,2021.1.3,61.04909201683444,
,,,,,,,,,,,,,,,,,,,,,,,,,,,,,,,,,,,,,,,,,,,,,,,,,,,,,,,,,,,,,,,,,,,,,421.68243590008933,None,,,,,,,
