block_type,condition,img_name,Button.thisRepN,Button.thisTrialN,Button.thisN,Button.thisIndex,trials.thisRepN,trials.thisTrialN,trials.thisN,trials.thisIndex,Ready_experimenter_text.started,Ready_experimenter_text.stopped,Ready_experimenter_resp.keys,Ready_experimenter_resp.rt,Ready_experimenter_resp.started,Ready_experimenter_resp.stopped,Alignment_background.started,Alignment_background.stopped,Alignment_image.started,Alignment_image.stopped,Alignment_resp.keys,Alignment_resp.rt,Alignment_resp.started,Alignment_resp.stopped,Button_text.started,Button_text.stopped,Index_text.started,Index_text.stopped,Index_resp.keys,Index_resp.rt,Index_resp.started,Index_resp.stopped,Middle_text.started,Middle_text.stopped,Middle_resp.keys,Middle_resp.rt,Middle_resp.started,Middle_resp.stopped,Repeat_text.started,Repeat_text.stopped,Repeat_resp.keys,Repeat_resp.corr,Repeat_resp.rt,Repeat_resp.started,Repeat_resp.stopped,instruction_text.started,instruction_text.stopped,key_resp.keys,key_resp.rt,key_resp.started,key_resp.stopped,scanner_t.keys,scanner_t.rt,scanner_t.started,scanner_t.stopped,fixation_wait_for_t.started,fixation_wait_for_t.stopped,real_timestamp_trial_start,image.started,image.stopped,fixation.started,fixation.stopped,repeat_response.keys,repeat_response.started,repeat_response.stopped,fixation_null.started,fixation_null.stopped,repeat_response.rt,end_text.started,end_text.stopped,participant,run,date,expName,psychopyVersion,frameRate,
,,,,,,,,,,,9.66838249983266,None,return,106.48097780020908,9.66838249983266,None,,,,,,,,,,,,,,,,,,,,,,,,,,,,,,,,,,,,,,,,,,,,,,,,,,,,,,,21005,0001,2022_Jul_08_1308,localizer,2021.1.3,59.60871646786396,
,,,,,,,,,,,,,,,,,116.1980198000092,None,116.1980198000092,None,return,4.971420099958777,116.1980198000092,None,,,,,,,,,,,,,,,,,,,,,,,,,,,,,,,,,,,,,,,,,,,,,,,21005,0001,2022_Jul_08_1308,localizer,2021.1.3,59.60871646786396,
,,,0,0,0,0,,,,,,,,,,,,,,,,,,,121.19200489996001,None,122.20662289997563,None,y,2.838567500002682,122.20662289997563,None,125.07500009983778,None,b,1.6251316000707448,125.07500009983778,None,126.72070219996385,None,n,0,1.3740196998696774,126.72070219996385,None,,,,,,,,,,,,,,,,,,,,,,,,,,21005,0001,2022_Jul_08_1308,localizer,2021.1.3,59.60871646786396,
,,,,,,,,,,,,,,,,,,,,,,,,,,,,,,,,,,,,,,,,,,,,,,128.11972449999303,None,y,37.052441500127316,128.11972449999303,None,,,,,,,,,,,,,,,,,,,,21005,0001,2022_Jul_08_1308,localizer,2021.1.3,59.60871646786396,
null_block,null_block,null_block.bmp,,,,,0,0,0,0,,,,,,,,,,,,,,,,,,,,,,,,,,,,,,,,,,,,,,,,,,t,16.293256900040433,165.27481149998493,None,165.27481149998493,None,2022-07-08-13:11:30.392267,181.6034819598775,None,181.6034819598775,None,None,181.6034819598775,None,181.60263219987974,None,,,,21005,0001,2022_Jul_08_1308,localizer,2021.1.3,59.60871646786396,
block_start,objects,objects001.bmp,,,,,0,1,1,1,,,,,,,,,,,,,,,,,,,,,,,,,,,,,,,,,,,,,,,,,,t,1.9588900001253933,193.60951719991863,None,193.60951719991863,None,2022-07-08-13:11:44.395035,195.59830179996789,195.90317279985175,195.59830179996789,None,None,195.59830179996789,None,196.40327763003296,None,,,,21005,0001,2022_Jul_08_1308,localizer,2021.1.3,59.60871646786396,
block,objects,objects077.bmp,,,,,0,2,2,2,,,,,,,,,,,,,,,,,,,,,,,,,,,,,,,,,,,,,,,,,,None,,196.40327763003296,None,196.40327763003296,None,2022-07-08-13:11:45.209686,196.41445159981959,196.71979169989936,196.41445159981959,None,None,196.41445159981959,None,197.2233589299023,None,,,,21005,0001,2022_Jul_08_1308,localizer,2021.1.3,59.60871646786396,
block,objects,objects046.bmp,,,,,0,3,3,3,,,,,,,,,,,,,,,,,,,,,,,,,,,,,,,,,,,,,,,,,,None,,197.2233589299023,None,197.2233589299023,None,2022-07-08-13:11:46.033855,197.2398456998635,197.5533231999725,197.2398456998635,None,None,197.2398456998635,None,198.03639313001185,None,,,,21005,0001,2022_Jul_08_1308,localizer,2021.1.3,59.60871646786396,
block,objects,objects032.bmp,,,,,0,4,4,4,,,,,,,,,,,,,,,,,,,,,,,,,,,,,,,,,,,,,,,,,,None,,198.03639313001185,None,198.03639313001185,None,2022-07-08-13:11:46.843092,198.04504200001247,198.3531911999453,198.04504200001247,None,None,198.04504200001247,None,198.85361672989092,None,,,,21005,0001,2022_Jul_08_1308,localizer,2021.1.3,59.60871646786396,
block,objects,objects026.bmp,,,,,0,5,5,5,,,,,,,,,,,,,,,,,,,,,,,,,,,,,,,,,,,,,,,,,,None,,198.85361672989092,None,198.85361672989092,None,2022-07-08-13:11:47.661111,198.86668849992566,199.16980029991828,198.86668849992566,None,None,198.86668849992566,None,199.66949332999064,None,,,,21005,0001,2022_Jul_08_1308,localizer,2021.1.3,59.60871646786396,
block,objects,objects009.bmp,,,,,0,6,6,6,,,,,,,,,,,,,,,,,,,,,,,,,,,,,,,,,,,,,,,,,,None,,199.66949332999064,None,199.66949332999064,None,2022-07-08-13:11:48.475909,199.67834610003047,199.98740819981322,199.67834610003047,None,None,199.67834610003047,None,200.4865509300027,None,,,,21005,0001,2022_Jul_08_1308,localizer,2021.1.3,59.60871646786396,
block,objects,objects035.bmp,,,,,0,7,7,7,,,,,,,,,,,,,,,,,,,,,,,,,,,,,,,,,,,,,,,,,,None,,200.4865509300027,None,200.4865509300027,None,2022-07-08-13:11:49.293155,200.49610749981366,200.80323489988223,200.49610749981366,None,None,200.49610749981366,None,201.30294732986948,None,,,,21005,0001,2022_Jul_08_1308,localizer,2021.1.3,59.60871646786396,
block,objects,objects008.bmp,,,,,0,8,8,8,,,,,,,,,,,,,,,,,,,,,,,,,,,,,,,,,,,,,,,,,,None,,201.30294732986948,None,201.30294732986948,None,2022-07-08-13:11:50.109360,201.31273279991,201.62616069987416,201.31273279991,None,None,201.31273279991,None,202.12031223000957,None,,,,21005,0001,2022_Jul_08_1308,localizer,2021.1.3,59.60871646786396,
block,objects,objects039.bmp,,,,,0,9,9,9,,,,,,,,,,,,,,,,,,,,,,,,,,,,,,,,,,,,,,,,,,None,,202.12031223000957,None,202.12031223000957,None,2022-07-08-13:11:50.926716,202.13111299998127,202.43655709992163,202.13111299998127,None,None,202.13111299998127,None,202.93716322984545,None,,,,21005,0001,2022_Jul_08_1308,localizer,2021.1.3,59.60871646786396,
block,objects,objects014.bmp,,,,,0,10,10,10,,,,,,,,,,,,,,,,,,,,,,,,,,,,,,,,,,,,,,,,,,None,,202.93716322984545,None,202.93716322984545,None,2022-07-08-13:11:51.744751,202.94913349999115,203.25326109980233,202.94913349999115,None,None,202.94913349999115,None,203.75309473001397,None,,,,21005,0001,2022_Jul_08_1308,localizer,2021.1.3,59.60871646786396,
block,objects,objects079.bmp,,,,,0,11,11,11,,,,,,,,,,,,,,,,,,,,,,,,,,,,,,,,,,,,,,,,,,None,,203.75309473001397,None,203.75309473001397,None,2022-07-08-13:11:52.567488,203.77639279980212,204.08658259990625,203.77639279980212,None,None,203.77639279980212,None,204.56987132998182,None,,,,21005,0001,2022_Jul_08_1308,localizer,2021.1.3,59.60871646786396,
block,objects,objects025.bmp,,,,,0,12,12,12,,,,,,,,,,,,,,,,,,,,,,,,,,,,,,,,,,,,,,,,,,None,,204.56987132998182,None,204.56987132998182,None,2022-07-08-13:11:53.376279,204.5801776999142,204.88669710000977,204.5801776999142,None,None,204.5801776999142,None,205.3868590300437,None,,,,21005,0001,2022_Jul_08_1308,localizer,2021.1.3,59.60871646786396,
block,objects,objects022.bmp,,,,,0,13,13,13,,,,,,,,,,,,,,,,,,,,,,,,,,,,,,,,,,,,,,,,,,None,,205.3868590300437,None,205.3868590300437,None,2022-07-08-13:11:54.193450,205.39798429980874,205.70358440000564,205.39798429980874,None,None,205.39798429980874,None,206.20357112986966,None,,,,21005,0001,2022_Jul_08_1308,localizer,2021.1.3,59.60871646786396,
block,objects,objects085.bmp,,,,,0,14,14,14,,,,,,,,,,,,,,,,,,,,,,,,,,,,,,,,,,,,,,,,,,None,,206.20357112986966,None,206.20357112986966,None,2022-07-08-13:11:55.010099,206.21437299996614,206.51988759986125,206.21437299996614,None,None,206.21437299996614,None,207.019966629846,None,,,,21005,0001,2022_Jul_08_1308,localizer,2021.1.3,59.60871646786396,
block_end,objects,objects053.bmp,,,,,0,15,15,15,,,,,,,,,,,,,,,,,,,,,,,,,,,,,,,,,,,,,,,,,,None,,207.019966629846,None,207.019966629846,None,2022-07-08-13:11:55.826594,207.03016810002737,207.33660129993223,207.03016810002737,None,None,207.03016810002737,None,207.83723103003575,None,,,,21005,0001,2022_Jul_08_1308,localizer,2021.1.3,59.60871646786396,
block_start,faces,faces002.bmp,,,,,0,16,16,16,,,,,,,,,,,,,,,,,,,,,,,,,,,,,,,,,,,,,,,,,,t,1.7307917000725865,207.83717889990658,None,207.83717889990658,None,2022-07-08-13:11:58.393598,209.60325569985434,209.9032842000015,209.60325569985434,None,None,209.60325569985434,None,210.4095818298403,None,,,,21005,0001,2022_Jul_08_1308,localizer,2021.1.3,59.60871646786396,
block,faces,faces061.bmp,,,,,0,17,17,17,,,,,,,,,,,,,,,,,,,,,,,,,,,,,,,,,,,,,,,,,,None,,210.4095818298403,None,210.4095818298403,None,2022-07-08-13:11:59.223871,210.4277904999908,210.7370686000213,210.4277904999908,None,None,210.4277904999908,None,211.21974442997015,None,,,,21005,0001,2022_Jul_08_1308,localizer,2021.1.3,59.60871646786396,
block,faces,faces011.bmp,,,,,0,18,18,18,,,,,,,,,,,,,,,,,,,,,,,,,,,,,,,,,,,,,,,,,,None,,211.21974442997015,None,211.21974442997015,None,2022-07-08-13:12:00.025401,211.22407109988853,211.53672199998982,211.22407109988853,None,None,211.22407109988853,None,212.03687402983195,None,,,,21005,0001,2022_Jul_08_1308,localizer,2021.1.3,59.60871646786396,
block,faces,faces084.bmp,,,,,0,19,19,19,,,,,,,,,,,,,,,,,,,,,,,,,,,,,,,,,,,,,,,,,,None,,212.03687402983195,None,212.03687402983195,None,2022-07-08-13:12:00.843278,212.0479341999162,212.35354709997773,212.0479341999162,None,None,212.0479341999162,None,212.85957192983477,None,,,,21005,0001,2022_Jul_08_1308,localizer,2021.1.3,59.60871646786396,
block,faces,faces088.bmp,,,,,0,20,20,20,,,,,,,,,,,,,,,,,,,,,,,,,,,,,,,,,,,,,,,,,,None,,212.85957192983477,None,212.85957192983477,None,2022-07-08-13:12:01.673862,212.8777952999808,213.18647219985723,212.8777952999808,None,None,212.8777952999808,None,213.6700142298825,None,,,,21005,0001,2022_Jul_08_1308,localizer,2021.1.3,59.60871646786396,
block,faces,faces086.bmp,,,,,0,21,21,21,,,,,,,,,,,,,,,,,,,,,,,,,,,,,,,,,,,,,,,,,,None,,213.6700142298825,None,213.6700142298825,None,2022-07-08-13:12:02.476669,213.67977709998377,213.986546699889,213.67977709998377,None,None,213.67977709998377,None,214.48776552993803,None,,,,21005,0001,2022_Jul_08_1308,localizer,2021.1.3,59.60871646786396,
block,faces,faces059.bmp,,,,,0,22,22,22,,,,,,,,,,,,,,,,,,,,,,,,,,,,,,,,,,,,,,,,,,None,,214.48776552993803,None,214.48776552993803,None,2022-07-08-13:12:03.295331,214.49796459986828,214.80377319990657,214.49796459986828,None,None,214.49796459986828,None,215.3039954300504,None,,,,21005,0001,2022_Jul_08_1308,localizer,2021.1.3,59.60871646786396,
block,faces,faces031.bmp,,,,,0,23,23,23,,,,,,,,,,,,,,,,,,,,,,,,,,,,,,,,,,,,,,,,,,None,,215.3039954300504,None,215.3039954300504,None,2022-07-08-13:12:04.110590,215.31646090000868,215.6198336998932,215.31646090000868,None,None,215.31646090000868,None,216.11997302998788,None,,,,21005,0001,2022_Jul_08_1308,localizer,2021.1.3,59.60871646786396,
block,faces,faces062.bmp,,,,,0,24,24,24,,,,,,,,,,,,,,,,,,,,,,,,,,,,,,,,,,,,,,,,,,None,,216.11997302998788,None,216.11997302998788,None,2022-07-08-13:12:04.926380,216.13080099993385,216.4366336998064,216.13080099993385,None,None,216.13080099993385,None,216.93687943001277,None,,,,21005,0001,2022_Jul_08_1308,localizer,2021.1.3,59.60871646786396,
block,faces,faces010.bmp,,,,,0,25,25,25,,,,,,,,,,,,,,,,,,,,,,,,,,,,,,,,,,,,,,,,,,None,,216.93687943001277,None,216.93687943001277,None,2022-07-08-13:12:05.743285,216.94775859988295,217.25308499997482,216.94775859988295,None,None,216.94775859988295,None,217.753540129913,None,,,,21005,0001,2022_Jul_08_1308,localizer,2021.1.3,59.60871646786396,
block,faces,faces042.bmp,,,,,0,26,26,26,,,,,,,,,,,,,,,,,,,,,,,,,,,,,,,,,,,,,,,,,,None,,217.753540129913,None,217.753540129913,None,2022-07-08-13:12:06.560941,217.76447859988548,218.07013959996402,217.76447859988548,None,None,217.76447859988548,None,218.5715259300079,None,,,,21005,0001,2022_Jul_08_1308,localizer,2021.1.3,59.60871646786396,
block,faces,faces089.bmp,,,,,0,27,27,27,,,,,,,,,,,,,,,,,,,,,,,,,,,,,,,,,,,,,,,,,,None,,218.5715259300079,None,218.5715259300079,None,2022-07-08-13:12:07.379820,218.58152469992638,218.88682199991308,218.58152469992638,None,None,218.58152469992638,None,219.3878393299412,None,,,,21005,0001,2022_Jul_08_1308,localizer,2021.1.3,59.60871646786396,
block,faces,faces008.bmp,,,,,0,28,28,28,,,,,,,,,,,,,,,,,,,,,,,,,,,,,,,,,,,,,,,,,,None,,219.3878393299412,None,219.3878393299412,None,2022-07-08-13:12:08.195407,219.40133739984594,219.7031884000171,219.40133739984594,None,None,219.40133739984594,None,220.20334593001752,None,,,,21005,0001,2022_Jul_08_1308,localizer,2021.1.3,59.60871646786396,
block,faces,faces055.bmp,,,,,0,29,29,29,,,,,,,,,,,,,,,,,,,,,,,,,,,,,,,,,,,,,,,,,,None,,220.20334593001752,None,220.20334593001752,None,2022-07-08-13:12:09.010011,220.21416580001824,220.51996700000018,220.21416580001824,None,None,220.21416580001824,None,221.0211532300338,None,,,,21005,0001,2022_Jul_08_1308,localizer,2021.1.3,59.60871646786396,
block_end,faces,faces058.bmp,,,,,0,30,30,30,,,,,,,,,,,,,,,,,,,,,,,,,,,,,,,,,,,,,,,,,,None,,221.0211532300338,None,221.0211532300338,None,2022-07-08-13:12:09.829578,221.0387959999498,221.3538132000249,221.0387959999498,None,None,221.0387959999498,None,221.83714072993024,None,,,,21005,0001,2022_Jul_08_1308,localizer,2021.1.3,59.60871646786396,
block_start,scenes,scenes042.bmp,,,,,0,31,31,31,,,,,,,,,,,,,,,,,,,,,,,,,,,,,,,,,,,,,,,,,,t,1.7311760000884533,221.8372667999938,None,221.8372667999938,None,2022-07-08-13:12:12.401229,223.60725350002758,223.91972719994374,223.60725350002758,None,None,223.60725350002758,None,224.40352403004653,None,,,,21005,0001,2022_Jul_08_1308,localizer,2021.1.3,59.60871646786396,
block,scenes,scenes011.bmp,,,,,0,32,32,32,,,,,,,,,,,,,,,,,,,,,,,,,,,,,,,,,,,,,,,,,,None,,224.40352403004653,None,224.40352403004653,None,2022-07-08-13:12:13.209931,224.41459729988128,224.72018709988333,224.41459729988128,None,None,224.41459729988128,None,225.22009322983212,None,,,,21005,0001,2022_Jul_08_1308,localizer,2021.1.3,59.60871646786396,
block,scenes,scenes015.bmp,,,,,0,33,33,33,,,,,,,,,,,,,,,,,,,,,,,,,,,,,,,,,,,,,,,,,,None,,225.22009322983212,None,225.22009322983212,None,2022-07-08-13:12:14.026515,225.2321540999692,225.53642919985577,225.2321540999692,None,None,225.2321540999692,None,226.04380142996087,None,,,,21005,0001,2022_Jul_08_1308,localizer,2021.1.3,59.60871646786396,
block,scenes,scenes027.bmp,,,,,0,34,34,34,,,,,,,,,,,,,,,,,,,,,,,,,,,,,,,,,,,,,,,,,,None,,226.04380142996087,None,226.04380142996087,None,2022-07-08-13:12:14.857187,226.06446829997003,226.37003559991717,226.06446829997003,None,None,226.06446829997003,None,226.8537244298961,None,,,,21005,0001,2022_Jul_08_1308,localizer,2021.1.3,59.60871646786396,
block,scenes,scenes017.bmp,,,,,0,35,35,35,,,,,,,,,,,,,,,,,,,,,,,,,,,,,,,,,,,,,,,,,,None,,226.8537244298961,None,226.8537244298961,None,2022-07-08-13:12:15.661290,226.86547879991122,227.16985289985314,226.86547879991122,None,None,226.86547879991122,None,227.67031992999836,None,,,,21005,0001,2022_Jul_08_1308,localizer,2021.1.3,59.60871646786396,
block,scenes,scenes050.bmp,,,,,0,36,36,36,,,,,,,,,,,,,,,,,,,,,,,,,,,,,,,,,,,,,,,,,,None,,227.67031992999836,None,227.67031992999836,None,2022-07-08-13:12:16.476725,227.68092929990962,227.98700039996766,227.68092929990962,None,None,227.68092929990962,None,228.4864104299806,None,,,,21005,0001,2022_Jul_08_1308,localizer,2021.1.3,59.60871646786396,
block,scenes,scenes080.bmp,,,,,0,37,37,37,,,,,,,,,,,,,,,,,,,,,,,,,,,,,,,,,,,,,,,,,,None,,228.4864104299806,None,228.4864104299806,None,2022-07-08-13:12:17.292826,228.4917790000327,228.8039100000169,228.4917790000327,None,None,228.4917790000327,None,229.30407173004932,None,,,,21005,0001,2022_Jul_08_1308,localizer,2021.1.3,59.60871646786396,
block,scenes,scenes078.bmp,,,,,0,38,38,38,,,,,,,,,,,,,,,,,,,,,,,,,,,,,,,,,,,,,,,,,,None,,229.30407173004932,None,229.30407173004932,None,2022-07-08-13:12:18.110080,229.31383110000752,229.61975549999624,229.31383110000752,None,None,229.31383110000752,None,230.12073062993585,None,,,,21005,0001,2022_Jul_08_1308,localizer,2021.1.3,59.60871646786396,
block,scenes,scenes037.bmp,,,,,0,39,39,39,,,,,,,,,,,,,,,,,,,,,,,,,,,,,,,,,,,,,,,,,,None,,230.12073062993585,None,230.12073062993585,None,2022-07-08-13:12:18.928322,230.13230829988606,230.4369128998369,230.13230829988606,None,None,230.13230829988606,None,230.93657432990148,None,,,,21005,0001,2022_Jul_08_1308,localizer,2021.1.3,59.60871646786396,
block,scenes,scenes010.bmp,,,,,0,40,40,40,,,,,,,,,,,,,,,,,,,,,,,,,,,,,,,,,,,,,,,,,,None,,230.93657432990148,None,230.93657432990148,None,2022-07-08-13:12:19.743281,230.94537239987403,231.2535211998038,230.94537239987403,None,None,230.94537239987403,None,231.7539238299243,None,,,,21005,0001,2022_Jul_08_1308,localizer,2021.1.3,59.60871646786396,
block,scenes,scenes058.bmp,,,,,0,41,41,41,,,,,,,,,,,,,,,,,,,,,,,,,,,,,,,,,,,,,,,,,,None,,231.7539238299243,None,231.7539238299243,None,2022-07-08-13:12:20.561187,231.76558399992064,232.07002839981578,231.76558399992064,None,None,231.76558399992064,None,232.57031032983213,None,,,,21005,0001,2022_Jul_08_1308,localizer,2021.1.3,59.60871646786396,
block,scenes,scenes014.bmp,,,,,0,42,42,42,,,,,,,,,,,,,,,,,,,,,,,,,,,,,,,,,,,,,,,,,,None,,232.57031032983213,None,232.57031032983213,None,2022-07-08-13:12:21.376714,232.58159019984305,232.88672859990038,232.58159019984305,None,None,232.58159019984305,None,233.3876160299871,None,,,,21005,0001,2022_Jul_08_1308,localizer,2021.1.3,59.60871646786396,
block,scenes,scenes030.bmp,,,,,0,43,43,43,,,,,,,,,,,,,,,,,,,,,,,,,,,,,,,,,,,,,,,,,,None,,233.3876160299871,None,233.3876160299871,None,2022-07-08-13:12:22.195194,233.39865599991754,233.70363949984312,233.39865599991754,None,None,233.39865599991754,None,234.20315043004229,None,,,,21005,0001,2022_Jul_08_1308,localizer,2021.1.3,59.60871646786396,
block,scenes,scenes065.bmp,,,,,0,44,44,44,,,,,,,,,,,,,,,,,,,,,,,,,,,,,,,,,,,,,,,,,,None,,234.20315043004229,None,234.20315043004229,None,2022-07-08-13:12:23.009616,234.21243950002827,234.5202909000218,234.21243950002827,None,None,234.21243950002827,None,235.02062132982536,None,,,,21005,0001,2022_Jul_08_1308,localizer,2021.1.3,59.60871646786396,
block_end,scenes,scenes064.bmp,,,,,0,45,45,45,,,,,,,,,,,,,,,,,,,,,,,,,,,,,,,,,,,,,,,,,,None,,235.02062132982536,None,235.02062132982536,None,2022-07-08-13:12:23.828217,235.03309689997695,235.33679730002768,235.03309689997695,None,None,235.03309689997695,None,235.83702432997524,None,,,,21005,0001,2022_Jul_08_1308,localizer,2021.1.3,59.60871646786396,
block_start,scrambled,scrambled023.bmp,,,,,0,46,46,46,,,,,,,,,,,,,,,,,,,,,,,,,,,,,,,,,,,,,,,,,,t,1.731530699878931,235.836878699949,None,235.836878699949,None,2022-07-08-13:12:26.401398,237.60757879982702,237.9078312998172,237.60757879982702,None,None,237.60757879982702,None,238.4038591299206,None,,,,21005,0001,2022_Jul_08_1308,localizer,2021.1.3,59.60871646786396,
block,scrambled,scrambled012.bmp,,,,,0,47,47,47,,,,,,,,,,,,,,,,,,,,,,,,,,,,,,,,,,,,,,,,,,None,,238.4038591299206,None,238.4038591299206,None,2022-07-08-13:12:27.211214,238.41564140003175,238.72006989992224,238.41564140003175,None,None,238.41564140003175,None,239.2195194298867,None,,,,21005,0001,2022_Jul_08_1308,localizer,2021.1.3,59.60871646786396,
block,scrambled,scrambled034.bmp,,,,,0,48,48,48,,,,,,,,,,,,,,,,,,,,,,,,,,,,,,,,,,,,,,,,,,None,,239.2195194298867,None,239.2195194298867,None,2022-07-08-13:12:28.025934,239.22852190001868,239.5366717998404,239.22852190001868,None,None,239.22852190001868,None,240.03751642983406,None,,,,21005,0001,2022_Jul_08_1308,localizer,2021.1.3,59.60871646786396,
block,scrambled,scrambled014.bmp,,,,,0,49,49,49,,,,,,,,,,,,,,,,,,,,,,,,,,,,,,,,,,,,,,,,,,None,,240.03751642983406,None,240.03751642983406,None,2022-07-08-13:12:28.845124,240.05005099996924,240.35338169988245,240.05005099996924,None,None,240.05005099996924,None,240.8541086300276,None,,,,21005,0001,2022_Jul_08_1308,localizer,2021.1.3,59.60871646786396,
block,scrambled,scrambled065.bmp,,,,,0,50,50,50,,,,,,,,,,,,,,,,,,,,,,,,,,,,,,,,,,,,,,,,,,None,,240.8541086300276,None,240.8541086300276,None,2022-07-08-13:12:29.662396,240.86487409984693,241.1728355998639,240.86487409984693,None,None,240.86487409984693,None,241.67024772991425,None,,,,21005,0001,2022_Jul_08_1308,localizer,2021.1.3,59.60871646786396,
block,scrambled,scrambled039.bmp,,,,,0,51,51,51,,,,,,,,,,,,,,,,,,,,,,,,,,,,,,,,,,,,,,,,,,None,,241.67024772991425,None,241.67024772991425,None,2022-07-08-13:12:30.476863,241.68091729981825,241.98652749997564,241.68091729981825,None,None,241.68091729981825,None,242.48684623003936,None,,,,21005,0001,2022_Jul_08_1308,localizer,2021.1.3,59.60871646786396,
block,scrambled,scrambled058.bmp,,,,,0,52,52,52,,,,,,,,,,,,,,,,,,,,,,,,,,,,,,,,,,,,,,,,,,None,,242.48684623003936,None,242.48684623003936,None,2022-07-08-13:12:31.293392,242.49675079993904,242.80349830002524,242.49675079993904,None,None,242.49675079993904,None,243.30368743003345,None,,,,21005,0001,2022_Jul_08_1308,localizer,2021.1.3,59.60871646786396,
block,scrambled,scrambled048.bmp,,,,,0,53,53,53,,,,,,,,,,,,,,,,,,,,,,,,,,,,,,,,,,,,,,,,,,None,,243.30368743003345,None,243.30368743003345,None,2022-07-08-13:12:32.110076,243.31382449995726,243.61997199989855,243.31382449995726,None,None,243.31382449995726,None,244.12010522983036,None,,,,21005,0001,2022_Jul_08_1308,localizer,2021.1.3,59.60871646786396,
block,scrambled,scrambled079.bmp,,,,,0,54,54,54,,,,,,,,,,,,,,,,,,,,,,,,,,,,,,,,,,,,,,,,,,None,,244.12010522983036,None,244.12010522983036,None,2022-07-08-13:12:32.926507,244.1313348999247,244.43682509986684,244.1313348999247,None,None,244.1313348999247,None,244.93734762985258,None,,,,21005,0001,2022_Jul_08_1308,localizer,2021.1.3,59.60871646786396,
block,scrambled,scrambled085.bmp,,,,,0,55,55,55,,,,,,,,,,,,,,,,,,,,,,,,,,,,,,,,,,,,,,,,,,None,,244.93734762985258,None,244.93734762985258,None,2022-07-08-13:12:33.744762,244.949982999824,245.25403189985082,244.949982999824,None,None,244.949982999824,None,245.75329062999225,None,,,,21005,0001,2022_Jul_08_1308,localizer,2021.1.3,59.60871646786396,
block,scrambled,scrambled049.bmp,,,,,0,56,56,56,,,,,,,,,,,,,,,,,,,,,,,,,,,,,,,,,,,,,,,,,,None,,245.75329062999225,None,245.75329062999225,None,2022-07-08-13:12:34.559934,245.76307069999166,246.07066500000656,245.76307069999166,None,None,245.76307069999166,None,246.56975613003596,None,,,,21005,0001,2022_Jul_08_1308,localizer,2021.1.3,59.60871646786396,
block,scrambled,scrambled064.bmp,,,,,0,57,57,57,,,,,,,,,,,,,,,,,,,,,,,,,,,,,,,,,,,,,,,,,,None,,246.56975613003596,None,246.56975613003596,None,2022-07-08-13:12:35.376629,246.5786051999312,246.887100599939,246.5786051999312,None,None,246.5786051999312,None,247.3870489299763,None,,,,21005,0001,2022_Jul_08_1308,localizer,2021.1.3,59.60871646786396,
block,scrambled,scrambled076.bmp,,,,,0,58,58,58,,,,,,,,,,,,,,,,,,,,,,,,,,,,,,,,,,,,,,,,,,None,,247.3870489299763,None,247.3870489299763,None,2022-07-08-13:12:36.193450,247.3979577999562,247.7036974998191,247.3979577999562,None,None,247.3979577999562,None,248.20374972983262,None,,,,21005,0001,2022_Jul_08_1308,localizer,2021.1.3,59.60871646786396,
block,scrambled,scrambled076.bmp,,,,,0,59,59,59,,,,,,,,,,,,,,,,,,,,,,,,,,,,,,,,,,,,,,,,,,None,,248.20374972983262,None,248.20374972983262,None,2022-07-08-13:12:37.010156,248.20430669980124,248.50460149999708,248.20430669980124,None,y,248.20430669980124,None,249.00455052992328,None,0.5006144000217319,,,21005,0001,2022_Jul_08_1308,localizer,2021.1.3,59.60871646786396,
block_end,scrambled,scrambled053.bmp,,,,,0,60,60,60,,,,,,,,,,,,,,,,,,,,,,,,,,,,,,,,,,,,,,,,,,None,,249.00455052992328,None,249.00455052992328,None,2022-07-08-13:12:37.814692,249.02317929989658,249.33683929988183,249.02317929989658,249.02317929989658,None,249.02317929989658,249.02317929989658,249.82023262982256,None,,,,21005,0001,2022_Jul_08_1308,localizer,2021.1.3,59.60871646786396,
block_start,scrambled,scrambled053.bmp,,,,,0,61,61,61,,,,,,,,,,,,,,,,,,,,,,,,,,,,,,,,,,,,,,,,,,t,1.748072799993679,249.81985859991983,None,249.81985859991983,None,2022-07-08-13:12:40.393086,251.58754629991017,251.8869683998637,251.58754629991017,None,None,251.58754629991017,None,252.3870585300494,None,,,,21005,0001,2022_Jul_08_1308,localizer,2021.1.3,59.60871646786396,
block,scrambled,scrambled048.bmp,,,,,0,62,62,62,,,,,,,,,,,,,,,,,,,,,,,,,,,,,,,,,,,,,,,,,,None,,252.3870585300494,None,252.3870585300494,None,2022-07-08-13:12:41.195635,252.38993419986218,252.70326019986533,252.38993419986218,252.38993419986218,None,252.38993419986218,252.38993419986218,253.20372803001663,None,,,,21005,0001,2022_Jul_08_1308,localizer,2021.1.3,59.60871646786396,
block,scrambled,scrambled073.bmp,,,,,0,63,63,63,,,,,,,,,,,,,,,,,,,,,,,,,,,,,,,,,,,,,,,,,,None,,253.20372803001663,None,253.20372803001663,None,2022-07-08-13:12:42.010134,253.21453189989552,253.52024849993177,253.21453189989552,None,None,253.21453189989552,None,254.02134082983247,None,,,,21005,0001,2022_Jul_08_1308,localizer,2021.1.3,59.60871646786396,
block,scrambled,scrambled036.bmp,,,,,0,64,64,64,,,,,,,,,,,,,,,,,,,,,,,,,,,,,,,,,,,,,,,,,,None,,254.02134082983247,None,254.02134082983247,None,2022-07-08-13:12:42.828865,254.03153109992854,254.34330509998836,254.03153109992854,None,None,254.03153109992854,None,254.83649832992813,None,,,,21005,0001,2022_Jul_08_1308,localizer,2021.1.3,59.60871646786396,
block,scrambled,scrambled066.bmp,,,,,0,65,65,65,,,,,,,,,,,,,,,,,,,,,,,,,,,,,,,,,,,,,,,,,,None,,254.83649832992813,None,254.83649832992813,None,2022-07-08-13:12:43.642915,254.84481419995427,255.1534859999083,254.84481419995427,None,None,254.84481419995427,None,255.660556529928,None,,,,21005,0001,2022_Jul_08_1308,localizer,2021.1.3,59.60871646786396,
block,scrambled,scrambled010.bmp,,,,,0,66,66,66,,,,,,,,,,,,,,,,,,,,,,,,,,,,,,,,,,,,,,,,,,None,,255.660556529928,None,255.660556529928,None,2022-07-08-13:12:44.472797,255.67893909988925,255.98626219993457,255.67893909988925,None,None,255.67893909988925,None,256.47009112993254,None,,,,21005,0001,2022_Jul_08_1308,localizer,2021.1.3,59.60871646786396,
block,scrambled,scrambled041.bmp,,,,,0,67,67,67,,,,,,,,,,,,,,,,,,,,,,,,,,,,,,,,,,,,,,,,,,None,,256.47009112993254,None,256.47009112993254,None,2022-07-08-13:12:45.276501,256.4796140999533,256.78665849985555,256.4796140999533,None,None,256.4796140999533,None,257.28703162986784,None,,,,21005,0001,2022_Jul_08_1308,localizer,2021.1.3,59.60871646786396,
block,scrambled,scrambled019.bmp,,,,,0,68,68,68,,,,,,,,,,,,,,,,,,,,,,,,,,,,,,,,,,,,,,,,,,None,,257.28703162986784,None,257.28703162986784,None,2022-07-08-13:12:46.093418,257.29783269995824,257.603536499897,257.29783269995824,None,None,257.29783269995824,None,258.1035480299499,None,,,,21005,0001,2022_Jul_08_1308,localizer,2021.1.3,59.60871646786396,
block,scrambled,scrambled051.bmp,,,,,0,69,69,69,,,,,,,,,,,,,,,,,,,,,,,,,,,,,,,,,,,,,,,,,,None,,258.1035480299499,None,258.1035480299499,None,2022-07-08-13:12:46.908808,258.1073566998821,258.42052789987065,258.1073566998821,None,None,258.1073566998821,None,258.9203390300274,None,,,,21005,0001,2022_Jul_08_1308,localizer,2021.1.3,59.60871646786396,
block,scrambled,scrambled014.bmp,,,,,0,70,70,70,,,,,,,,,,,,,,,,,,,,,,,,,,,,,,,,,,,,,,,,,,None,,258.9203390300274,None,258.9203390300274,None,2022-07-08-13:12:47.726943,258.9209331998136,259.2201425000094,258.9209331998136,None,None,258.9209331998136,None,259.73660422982647,None,,,,21005,0001,2022_Jul_08_1308,localizer,2021.1.3,59.60871646786396,
block,scrambled,scrambled034.bmp,,,,,0,71,71,71,,,,,,,,,,,,,,,,,,,,,,,,,,,,,,,,,,,,,,,,,,None,,259.73660422982647,None,259.73660422982647,None,2022-07-08-13:12:48.543015,259.73769659991376,260.03676749998704,259.73769659991376,None,None,259.73769659991376,None,260.5368842299096,None,,,,21005,0001,2022_Jul_08_1308,localizer,2021.1.3,59.60871646786396,
block,scrambled,scrambled083.bmp,,,,,0,72,72,72,,,,,,,,,,,,,,,,,,,,,,,,,,,,,,,,,,,,,,,,,,None,,260.5368842299096,None,260.5368842299096,None,2022-07-08-13:12:49.345282,260.5492049998138,260.85351189994253,260.5492049998138,260.5492049998138,None,260.5492049998138,260.5492049998138,261.3438327298965,None,,,,21005,0001,2022_Jul_08_1308,localizer,2021.1.3,59.60871646786396,
block,scrambled,scrambled037.bmp,,,,,0,73,73,73,,,,,,,,,,,,,,,,,,,,,,,,,,,,,,,,,,,,,,,,,,None,,261.3438327298965,None,261.3438327298965,None,2022-07-08-13:12:50.156073,261.3613648999017,261.6700923999306,261.3613648999017,None,None,261.3613648999017,None,262.15362762990407,None,,,,21005,0001,2022_Jul_08_1308,localizer,2021.1.3,59.60871646786396,
block,scrambled,scrambled044.bmp,,,,,0,74,74,74,,,,,,,,,,,,,,,,,,,,,,,,,,,,,,,,,,,,,,,,,,None,,262.15362762990407,None,262.15362762990407,None,2022-07-08-13:12:50.960036,262.15968449995853,262.4701498998329,262.15968449995853,None,None,262.15968449995853,None,262.9713189299684,None,,,,21005,0001,2022_Jul_08_1308,localizer,2021.1.3,59.60871646786396,
block_end,scrambled,scrambled022.bmp,,,,,0,75,75,75,,,,,,,,,,,,,,,,,,,,,,,,,,,,,,,,,,,,,,,,,,None,,262.9713189299684,None,262.9713189299684,None,2022-07-08-13:12:51.778892,262.9838784998283,263.28671099990606,262.9838784998283,None,None,262.9838784998283,None,263.78691952982916,None,,,,21005,0001,2022_Jul_08_1308,localizer,2021.1.3,59.60871646786396,
null_block,null_block,null_block.bmp,,,,,0,76,76,76,,,,,,,,,,,,,,,,,,,,,,,,,,,,,,,,,,,,,,,,,,t,1.7813762000296265,263.78699869988486,None,263.78699869988486,None,2022-07-08-13:12:54.402606,265.5934736298397,None,265.5934736298397,None,None,265.5934736298397,None,265.59991809981875,None,,,,21005,0001,2022_Jul_08_1308,localizer,2021.1.3,59.60871646786396,
block_start,faces,faces026.bmp,,,,,0,77,77,77,,,,,,,,,,,,,,,,,,,,,,,,,,,,,,,,,,,,,,,,,,t,1.9642555001191795,277.60373049997725,None,277.60373049997725,None,2022-07-08-13:13:08.393760,279.6277705000248,279.9365087999031,279.6277705000248,None,None,279.6277705000248,None,280.4037240299396,None,,,,21005,0001,2022_Jul_08_1308,localizer,2021.1.3,59.60871646786396,
block,faces,faces042.bmp,,,,,0,78,78,78,,,,,,,,,,,,,,,,,,,,,,,,,,,,,,,,,,,,,,,,,,None,,280.4037240299396,None,280.4037240299396,None,2022-07-08-13:13:09.210135,280.4045716000255,280.70369609980844,280.4045716000255,None,None,280.4045716000255,None,281.22046893001533,None,,,,21005,0001,2022_Jul_08_1308,localizer,2021.1.3,59.60871646786396,
block,faces,faces040.bmp,,,,,0,79,79,79,,,,,,,,,,,,,,,,,,,,,,,,,,,,,,,,,,,,,,,,,,None,,281.22046893001533,None,281.22046893001533,None,2022-07-08-13:13:10.026876,281.2301862000022,281.5368784000166,281.2301862000022,None,None,281.2301862000022,None,282.03716313005424,None,,,,21005,0001,2022_Jul_08_1308,localizer,2021.1.3,59.60871646786396,
block,faces,faces024.bmp,,,,,0,80,80,80,,,,,,,,,,,,,,,,,,,,,,,,,,,,,,,,,,,,,,,,,,None,,282.03716313005424,None,282.03716313005424,None,2022-07-08-13:13:10.843568,282.0489949998446,282.3537653000094,282.0489949998446,None,None,282.0489949998446,None,282.843389029894,None,,,,21005,0001,2022_Jul_08_1308,localizer,2021.1.3,59.60871646786396,
block,faces,faces063.bmp,,,,,0,81,81,81,,,,,,,,,,,,,,,,,,,,,,,,,,,,,,,,,,,,,,,,,,None,,282.843389029894,None,282.843389029894,None,2022-07-08-13:13:11.653764,282.8594237999059,283.1700720998924,282.8594237999059,None,None,282.8594237999059,None,283.6532457299065,None,,,,21005,0001,2022_Jul_08_1308,localizer,2021.1.3,59.60871646786396,
block,faces,faces070.bmp,,,,,0,82,82,82,,,,,,,,,,,,,,,,,,,,,,,,,,,,,,,,,,,,,,,,,,None,,283.6532457299065,None,283.6532457299065,None,2022-07-08-13:13:12.459662,283.6621216000058,283.9702724998351,283.6621216000058,None,None,283.6621216000058,None,284.4705438300036,None,,,,21005,0001,2022_Jul_08_1308,localizer,2021.1.3,59.60871646786396,
block,faces,faces012.bmp,,,,,0,83,83,83,,,,,,,,,,,,,,,,,,,,,,,,,,,,,,,,,,,,,,,,,,None,,284.4705438300036,None,284.4705438300036,None,2022-07-08-13:13:13.276946,284.48142559989356,284.7875494000036,284.48142559989356,None,None,284.48142559989356,None,285.28731233002617,None,,,,21005,0001,2022_Jul_08_1308,localizer,2021.1.3,59.60871646786396,
block,faces,faces049.bmp,,,,,0,84,84,84,,,,,,,,,,,,,,,,,,,,,,,,,,,,,,,,,,,,,,,,,,None,,285.28731233002617,None,285.28731233002617,None,2022-07-08-13:13:14.093919,285.29906290001236,285.6034702998586,285.29906290001236,None,None,285.29906290001236,None,286.103434329899,None,,,,21005,0001,2022_Jul_08_1308,localizer,2021.1.3,59.60871646786396,
block,faces,faces055.bmp,,,,,0,85,85,85,,,,,,,,,,,,,,,,,,,,,,,,,,,,,,,,,,,,,,,,,,None,,286.103434329899,None,286.103434329899,None,2022-07-08-13:13:14.916962,286.1135318998713,286.4208394000307,286.1135318998713,None,None,286.1135318998713,None,286.92011093003674,None,,,,21005,0001,2022_Jul_08_1308,localizer,2021.1.3,59.60871646786396,
block,faces,faces086.bmp,,,,,0,86,86,86,,,,,,,,,,,,,,,,,,,,,,,,,,,,,,,,,,,,,,,,,,None,,286.92011093003674,None,286.92011093003674,None,2022-07-08-13:13:15.726526,286.9212938998826,287.2371552998666,286.9212938998826,None,None,286.9212938998826,None,287.72677013003266,None,,,,21005,0001,2022_Jul_08_1308,localizer,2021.1.3,59.60871646786396,
block,faces,faces013.bmp,,,,,0,87,87,87,,,,,,,,,,,,,,,,,,,,,,,,,,,,,,,,,,,,,,,,,,None,,287.72677013003266,None,287.72677013003266,None,2022-07-08-13:13:16.537156,287.7424922999926,288.053458499955,287.7424922999926,None,None,287.7424922999926,None,288.53713202993384,None,,,,21005,0001,2022_Jul_08_1308,localizer,2021.1.3,59.60871646786396,
block,faces,faces079.bmp,,,,,0,88,88,88,,,,,,,,,,,,,,,,,,,,,,,,,,,,,,,,,,,,,,,,,,None,,288.53713202993384,None,288.53713202993384,None,2022-07-08-13:13:17.343540,288.54763319995254,288.85395039990544,288.54763319995254,None,None,288.54763319995254,None,289.35365472994744,None,,,,21005,0001,2022_Jul_08_1308,localizer,2021.1.3,59.60871646786396,
block,faces,faces041.bmp,,,,,0,89,89,89,,,,,,,,,,,,,,,,,,,,,,,,,,,,,,,,,,,,,,,,,,None,,289.35365472994744,None,289.35365472994744,None,2022-07-08-13:13:18.160376,289.364381399937,289.6698009998072,289.364381399937,None,None,289.364381399937,None,290.1701624298468,None,,,,21005,0001,2022_Jul_08_1308,localizer,2021.1.3,59.60871646786396,
block,faces,faces045.bmp,,,,,0,90,90,90,,,,,,,,,,,,,,,,,,,,,,,,,,,,,,,,,,,,,,,,,,None,,290.1701624298468,None,290.1701624298468,None,2022-07-08-13:13:18.977106,290.18032929999754,290.48704819986597,290.18032929999754,None,None,290.18032929999754,None,290.98718562982975,None,,,,21005,0001,2022_Jul_08_1308,localizer,2021.1.3,59.60871646786396,
block_end,faces,faces022.bmp,,,,,0,91,91,91,,,,,,,,,,,,,,,,,,,,,,,,,,,,,,,,,,,,,,,,,,None,,290.98718562982975,None,290.98718562982975,None,2022-07-08-13:13:19.793574,290.99816749989986,291.303289799951,290.99816749989986,None,None,290.99816749989986,None,291.803543729987,None,,,,21005,0001,2022_Jul_08_1308,localizer,2021.1.3,59.60871646786396,
block_start,objects,objects013.bmp,,,,,0,92,92,92,,,,,,,,,,,,,,,,,,,,,,,,,,,,,,,,,,,,,,,,,,t,1.7636295999400318,291.8034232999198,None,291.8034232999198,None,2022-07-08-13:13:22.393614,293.59752539987676,293.9037599998992,293.59752539987676,None,None,293.59752539987676,None,294.4037843300495,None,,,,21005,0001,2022_Jul_08_1308,localizer,2021.1.3,59.60871646786396,
block,objects,objects086.bmp,,,,,0,93,93,93,,,,,,,,,,,,,,,,,,,,,,,,,,,,,,,,,,,,,,,,,,None,,294.4037843300495,None,294.4037843300495,None,2022-07-08-13:13:23.210192,294.4132332999725,294.72725420002826,294.4132332999725,None,None,294.4132332999725,None,295.22005592989734,None,,,,21005,0001,2022_Jul_08_1308,localizer,2021.1.3,59.60871646786396,
block,objects,objects008.bmp,,,,,0,94,94,94,,,,,,,,,,,,,,,,,,,,,,,,,,,,,,,,,,,,,,,,,,None,,295.22005592989734,None,295.22005592989734,None,2022-07-08-13:13:24.026487,295.2215099998284,295.5369714999106,295.2215099998284,None,None,295.2215099998284,None,296.0372322299983,None,,,,21005,0001,2022_Jul_08_1308,localizer,2021.1.3,59.60871646786396,
block,objects,objects073.bmp,,,,,0,95,95,95,,,,,,,,,,,,,,,,,,,,,,,,,,,,,,,,,,,,,,,,,,None,,296.0372322299983,None,296.0372322299983,None,2022-07-08-13:13:24.843638,296.0470246998593,296.3536671998445,296.0470246998593,None,None,296.0470246998593,None,296.8537546298932,None,,,,21005,0001,2022_Jul_08_1308,localizer,2021.1.3,59.60871646786396,
block,objects,objects042.bmp,,,,,0,96,96,96,,,,,,,,,,,,,,,,,,,,,,,,,,,,,,,,,,,,,,,,,,None,,296.8537546298932,None,296.8537546298932,None,2022-07-08-13:13:25.660403,296.8644568999298,297.17055629985407,296.8644568999298,None,None,296.8644568999298,None,297.67054992988704,None,,,,21005,0001,2022_Jul_08_1308,localizer,2021.1.3,59.60871646786396,
block,objects,objects047.bmp,,,,,0,97,97,97,,,,,,,,,,,,,,,,,,,,,,,,,,,,,,,,,,,,,,,,,,None,,297.67054992988704,None,297.67054992988704,None,2022-07-08-13:13:26.476956,297.6765848000068,297.9766377999913,297.6765848000068,None,None,297.6765848000068,None,298.48718443005345,None,,,,21005,0001,2022_Jul_08_1308,localizer,2021.1.3,59.60871646786396,
block,objects,objects052.bmp,,,,,0,98,98,98,,,,,,,,,,,,,,,,,,,,,,,,,,,,,,,,,,,,,,,,,,None,,298.48718443005345,None,298.48718443005345,None,2022-07-08-13:13:27.293796,298.4978483999148,298.80380999995396,298.4978483999148,None,None,298.4978483999148,None,299.3038313298486,None,,,,21005,0001,2022_Jul_08_1308,localizer,2021.1.3,59.60871646786396,
block,objects,objects026.bmp,,,,,0,99,99,99,,,,,,,,,,,,,,,,,,,,,,,,,,,,,,,,,,,,,,,,,,None,,299.3038313298486,None,299.3038313298486,None,2022-07-08-13:13:28.110239,299.3045461999718,299.603574299952,299.3045461999718,None,None,299.3045461999718,None,300.10439802990294,None,,,,21005,0001,2022_Jul_08_1308,localizer,2021.1.3,59.60871646786396,
block,objects,objects044.bmp,,,,,0,100,100,100,,,,,,,,,,,,,,,,,,,,,,,,,,,,,,,,,,,,,,,,,,None,,300.10439802990294,None,300.10439802990294,None,2022-07-08-13:13:28.913799,300.1181648999918,300.4203148998786,300.1181648999918,300.1181648999918,None,300.1181648999918,300.1181648999918,300.92015102999284,None,,,,21005,0001,2022_Jul_08_1308,localizer,2021.1.3,59.60871646786396,
block,objects,objects044.bmp,,,,,0,101,101,101,,,,,,,,,,,,,,,,,,,,,,,,,,,,,,,,,,,,,,,,,,None,,300.92015102999284,None,300.92015102999284,None,2022-07-08-13:13:29.725571,300.92236800002865,301.22187859984115,300.92236800002865,None,y,300.92236800002865,None,301.72164292987435,None,0.6163023998960853,,,21005,0001,2022_Jul_08_1308,localizer,2021.1.3,59.60871646786396,
block,objects,objects070.bmp,,,,,0,102,102,102,,,,,,,,,,,,,,,,,,,,,,,,,,,,,,,,,,,,,,,,,,None,,301.72164292987435,None,301.72164292987435,None,2022-07-08-13:13:30.532084,301.73185869981535,302.03696880000643,301.73185869981535,301.73185869981535,None,301.73185869981535,301.73185869981535,302.5364877300337,None,,,,21005,0001,2022_Jul_08_1308,localizer,2021.1.3,59.60871646786396,
block,objects,objects019.bmp,,,,,0,103,103,103,,,,,,,,,,,,,,,,,,,,,,,,,,,,,,,,,,,,,,,,,,None,,302.5364877300337,None,302.5364877300337,None,2022-07-08-13:13:31.342903,302.5457512999419,302.85700750001706,302.5457512999419,None,None,302.5457512999419,None,303.3530815300066,None,,,,21005,0001,2022_Jul_08_1308,localizer,2021.1.3,59.60871646786396,
block,objects,objects032.bmp,,,,,0,104,104,104,,,,,,,,,,,,,,,,,,,,,,,,,,,,,,,,,,,,,,,,,,None,,303.3530815300066,None,303.3530815300066,None,2022-07-08-13:13:32.158132,303.3544314999599,303.66951009980403,303.3544314999599,None,None,303.3544314999599,None,304.1602207299322,None,,,,21005,0001,2022_Jul_08_1308,localizer,2021.1.3,59.60871646786396,
block,objects,objects053.bmp,,,,,0,105,105,105,,,,,,,,,,,,,,,,,,,,,,,,,,,,,,,,,,,,,,,,,,None,,304.1602207299322,None,304.1602207299322,None,2022-07-08-13:13:32.972625,304.1666587998625,304.47047189995646,304.1666587998625,None,None,304.1666587998625,None,304.9707825298421,None,,,,21005,0001,2022_Jul_08_1308,localizer,2021.1.3,59.60871646786396,
block_end,objects,objects057.bmp,,,,,0,106,106,106,,,,,,,,,,,,,,,,,,,,,,,,,,,,,,,,,,,,,,,,,,None,,304.9707825298421,None,304.9707825298421,None,2022-07-08-13:13:33.777398,304.9816205999814,305.28736969991587,304.9816205999814,None,None,304.9816205999814,None,305.7869970298372,None,,,,21005,0001,2022_Jul_08_1308,localizer,2021.1.3,59.60871646786396,
block_start,scenes,scenes030.bmp,,,,,0,107,107,107,,,,,,,,,,,,,,,,,,,,,,,,,,,,,,,,,,,,,,,,,,t,1.780508799944073,305.7867900999263,None,305.7867900999263,None,2022-07-08-13:13:36.398577,307.59758569998667,307.90627849986777,307.59758569998667,None,None,307.59758569998667,None,308.4038293299265,None,,,,21005,0001,2022_Jul_08_1308,localizer,2021.1.3,59.60871646786396,
block,scenes,scenes092.bmp,,,,,0,108,108,108,,,,,,,,,,,,,,,,,,,,,,,,,,,,,,,,,,,,,,,,,,None,,308.4038293299265,None,308.4038293299265,None,2022-07-08-13:13:37.210221,308.41465119994245,308.7201351998374,308.41465119994245,None,None,308.41465119994245,None,309.22025662991217,None,,,,21005,0001,2022_Jul_08_1308,localizer,2021.1.3,59.60871646786396,
block,scenes,scenes005.bmp,,,,,0,109,109,109,,,,,,,,,,,,,,,,,,,,,,,,,,,,,,,,,,,,,,,,,,None,,309.22025662991217,None,309.22025662991217,None,2022-07-08-13:13:38.026855,309.2249537999742,309.53715889994055,309.2249537999742,None,None,309.2249537999742,None,310.0390356299933,None,,,,21005,0001,2022_Jul_08_1308,localizer,2021.1.3,59.60871646786396,
block,scenes,scenes046.bmp,,,,,0,110,110,110,,,,,,,,,,,,,,,,,,,,,,,,,,,,,,,,,,,,,,,,,,None,,310.0390356299933,None,310.0390356299933,None,2022-07-08-13:13:38.849458,310.0560027998872,310.37061519990675,310.0560027998872,None,None,310.0560027998872,None,310.85411572996526,None,,,,21005,0001,2022_Jul_08_1308,localizer,2021.1.3,59.60871646786396,
block,scenes,scenes060.bmp,,,,,0,111,111,111,,,,,,,,,,,,,,,,,,,,,,,,,,,,,,,,,,,,,,,,,,None,,310.85411572996526,None,310.85411572996526,None,2022-07-08-13:13:39.660705,310.86694290000014,311.170670399908,310.86694290000014,None,None,310.86694290000014,None,311.6706235299818,None,,,,21005,0001,2022_Jul_08_1308,localizer,2021.1.3,59.60871646786396,
block,scenes,scenes043.bmp,,,,,0,112,112,112,,,,,,,,,,,,,,,,,,,,,,,,,,,,,,,,,,,,,,,,,,None,,311.6706235299818,None,311.6706235299818,None,2022-07-08-13:13:40.477028,311.6815849998966,311.9872989000287,311.6815849998966,None,None,311.6815849998966,None,312.48704642993397,None,,,,21005,0001,2022_Jul_08_1308,localizer,2021.1.3,59.60871646786396,
block,scenes,scenes068.bmp,,,,,0,113,113,113,,,,,,,,,,,,,,,,,,,,,,,,,,,,,,,,,,,,,,,,,,None,,312.48704642993397,None,312.48704642993397,None,2022-07-08-13:13:41.293456,312.49631039984524,312.8038255998399,312.49631039984524,None,None,312.49631039984524,None,313.3043317299336,None,,,,21005,0001,2022_Jul_08_1308,localizer,2021.1.3,59.60871646786396,
block,scenes,scenes028.bmp,,,,,0,114,114,114,,,,,,,,,,,,,,,,,,,,,,,,,,,,,,,,,,,,,,,,,,None,,313.3043317299336,None,313.3043317299336,None,2022-07-08-13:13:42.111605,313.31592019996606,313.6203902999405,313.31592019996606,None,None,313.31592019996606,None,314.12147503001614,None,,,,21005,0001,2022_Jul_08_1308,localizer,2021.1.3,59.60871646786396,
block,scenes,scenes044.bmp,,,,,0,115,115,115,,,,,,,,,,,,,,,,,,,,,,,,,,,,,,,,,,,,,,,,,,None,,314.12147503001614,None,314.12147503001614,None,2022-07-08-13:13:42.928044,314.130338500021,314.4374756999314,314.130338500021,None,None,314.130338500021,None,314.93824572982265,None,,,,21005,0001,2022_Jul_08_1308,localizer,2021.1.3,59.60871646786396,
block,scenes,scenes023.bmp,,,,,0,116,116,116,,,,,,,,,,,,,,,,,,,,,,,,,,,,,,,,,,,,,,,,,,None,,314.93824572982265,None,314.93824572982265,None,2022-07-08-13:13:43.745812,314.95177709986456,315.2539374998305,314.95177709986456,None,None,314.95177709986456,None,315.7538302299101,None,,,,21005,0001,2022_Jul_08_1308,localizer,2021.1.3,59.60871646786396,
block,scenes,scenes083.bmp,,,,,0,117,117,117,,,,,,,,,,,,,,,,,,,,,,,,,,,,,,,,,,,,,,,,,,None,,315.7538302299101,None,315.7538302299101,None,2022-07-08-13:13:44.560237,315.7634379998781,316.0705690998584,315.7634379998781,None,None,315.7634379998781,None,316.5705655299127,None,,,,21005,0001,2022_Jul_08_1308,localizer,2021.1.3,59.60871646786396,
block,scenes,scenes039.bmp,,,,,0,118,118,118,,,,,,,,,,,,,,,,,,,,,,,,,,,,,,,,,,,,,,,,,,None,,316.5705655299127,None,316.5705655299127,None,2022-07-08-13:13:45.376974,316.5817005999852,316.8871702000033,316.5817005999852,None,None,316.5817005999852,None,317.3875586300157,None,,,,21005,0001,2022_Jul_08_1308,localizer,2021.1.3,59.60871646786396,
block,scenes,scenes051.bmp,,,,,0,119,119,119,,,,,,,,,,,,,,,,,,,,,,,,,,,,,,,,,,,,,,,,,,None,,317.3875586300157,None,317.3875586300157,None,2022-07-08-13:13:46.194144,317.4007848999463,317.7040462999139,317.4007848999463,None,None,317.4007848999463,None,318.2063528299797,None,,,,21005,0001,2022_Jul_08_1308,localizer,2021.1.3,59.60871646786396,
block,scenes,scenes054.bmp,,,,,0,120,120,120,,,,,,,,,,,,,,,,,,,,,,,,,,,,,,,,,,,,,,,,,,None,,318.2063528299797,None,318.2063528299797,None,2022-07-08-13:13:47.016708,318.2205780998338,318.5211422999855,318.2205780998338,None,None,318.2205780998338,None,319.02053412985987,None,,,,21005,0001,2022_Jul_08_1308,localizer,2021.1.3,59.60871646786396,
block_end,scenes,scenes084.bmp,,,,,0,121,121,121,,,,,,,,,,,,,,,,,,,,,,,,,,,,,,,,,,,,,,,,,,None,,319.02053412985987,None,319.02053412985987,None,2022-07-08-13:13:47.826943,319.03010499989614,319.3371547998395,319.03010499989614,None,None,319.03010499989614,None,319.8376264300197,None,,,,21005,0001,2022_Jul_08_1308,localizer,2021.1.3,59.60871646786396,
block_start,faces,faces085.bmp,,,,,0,122,122,122,,,,,,,,,,,,,,,,,,,,,,,,,,,,,,,,,,,,,,,,,,t,1.7292609000578523,319.83764209994115,None,319.83764209994115,None,2022-07-08-13:13:50.393660,321.59746570000425,321.9036689000204,321.59746570000425,None,None,321.59746570000425,None,322.4043312299065,None,,,,21005,0001,2022_Jul_08_1308,localizer,2021.1.3,59.60871646786396,
block,faces,faces002.bmp,,,,,0,123,123,123,,,,,,,,,,,,,,,,,,,,,,,,,,,,,,,,,,,,,,,,,,None,,322.4043312299065,None,322.4043312299065,None,2022-07-08-13:13:51.211770,322.4064338998869,322.7210063999519,322.4064338998869,None,None,322.4064338998869,None,323.22077833004295,None,,,,21005,0001,2022_Jul_08_1308,localizer,2021.1.3,59.60871646786396,
block,faces,faces004.bmp,,,,,0,124,124,124,,,,,,,,,,,,,,,,,,,,,,,,,,,,,,,,,,,,,,,,,,None,,323.22077833004295,None,323.22077833004295,None,2022-07-08-13:13:52.027234,323.2367978999391,323.537356399931,323.2367978999391,None,None,323.2367978999391,None,324.0370133298449,None,,,,21005,0001,2022_Jul_08_1308,localizer,2021.1.3,59.60871646786396,
block,faces,faces007.bmp,,,,,0,125,125,125,,,,,,,,,,,,,,,,,,,,,,,,,,,,,,,,,,,,,,,,,,None,,324.0370133298449,None,324.0370133298449,None,2022-07-08-13:13:52.843427,324.0468203998171,324.3527370998636,324.0468203998171,None,None,324.0468203998171,None,324.85434932988136,None,,,,21005,0001,2022_Jul_08_1308,localizer,2021.1.3,59.60871646786396,
block,faces,faces005.bmp,,,,,0,126,126,126,,,,,,,,,,,,,,,,,,,,,,,,,,,,,,,,,,,,,,,,,,None,,324.85434932988136,None,324.85434932988136,None,2022-07-08-13:13:53.661747,324.8682621999178,325.17049189982936,324.8682621999178,None,None,324.8682621999178,None,325.67043323004617,None,,,,21005,0001,2022_Jul_08_1308,localizer,2021.1.3,59.60871646786396,
block,faces,faces024.bmp,,,,,0,127,127,127,,,,,,,,,,,,,,,,,,,,,,,,,,,,,,,,,,,,,,,,,,None,,325.67043323004617,None,325.67043323004617,None,2022-07-08-13:13:54.476847,325.6713676999789,325.9871621998027,325.6713676999789,None,None,325.6713676999789,None,326.47060082997194,None,,,,21005,0001,2022_Jul_08_1308,localizer,2021.1.3,59.60871646786396,
block,faces,faces023.bmp,,,,,0,128,128,128,,,,,,,,,,,,,,,,,,,,,,,,,,,,,,,,,,,,,,,,,,None,,326.47060082997194,None,326.47060082997194,None,2022-07-08-13:13:55.279003,326.48340329993516,326.7872828999534,326.48340329993516,326.48340329993516,None,326.48340329993516,326.48340329993516,327.2880223298445,None,,,,21005,0001,2022_Jul_08_1308,localizer,2021.1.3,59.60871646786396,
block,faces,faces042.bmp,,,,,0,129,129,129,,,,,,,,,,,,,,,,,,,,,,,,,,,,,,,,,,,,,,,,,,None,,327.2880223298445,None,327.2880223298445,None,2022-07-08-13:13:56.095592,327.2903415998444,327.60343599994667,327.2903415998444,None,None,327.2903415998444,None,328.10447792992926,None,,,,21005,0001,2022_Jul_08_1308,localizer,2021.1.3,59.60871646786396,
block,faces,faces055.bmp,,,,,0,130,130,130,,,,,,,,,,,,,,,,,,,,,,,,,,,,,,,,,,,,,,,,,,None,,328.10447792992926,None,328.10447792992926,None,2022-07-08-13:13:56.912096,328.1067853998393,328.42055099993013,328.1067853998393,None,None,328.1067853998393,None,328.9211513300426,None,,,,21005,0001,2022_Jul_08_1308,localizer,2021.1.3,59.60871646786396,
block,faces,faces035.bmp,,,,,0,131,131,131,,,,,,,,,,,,,,,,,,,,,,,,,,,,,,,,,,,,,,,,,,None,,328.9211513300426,None,328.9211513300426,None,2022-07-08-13:13:57.728746,328.9338922998868,329.23720410000533,328.9338922998868,None,None,328.9338922998868,None,329.737065529963,None,,,,21005,0001,2022_Jul_08_1308,localizer,2021.1.3,59.60871646786396,
block,faces,faces088.bmp,,,,,0,132,132,132,,,,,,,,,,,,,,,,,,,,,,,,,,,,,,,,,,,,,,,,,,None,,329.737065529963,None,329.737065529963,None,2022-07-08-13:13:58.543639,329.7380482999142,330.0372397999745,329.7380482999142,None,None,329.7380482999142,None,330.53828042983076,None,,,,21005,0001,2022_Jul_08_1308,localizer,2021.1.3,59.60871646786396,
block,faces,faces089.bmp,,,,,0,133,133,133,,,,,,,,,,,,,,,,,,,,,,,,,,,,,,,,,,,,,,,,,,None,,330.53828042983076,None,330.53828042983076,None,2022-07-08-13:13:59.348868,330.5427153999917,330.85389010002837,330.5427153999917,330.5427153999917,None,330.5427153999917,330.5427153999917,331.35434522996655,None,,,,21005,0001,2022_Jul_08_1308,localizer,2021.1.3,59.60871646786396,
block,faces,faces077.bmp,,,,,0,134,134,134,,,,,,,,,,,,,,,,,,,,,,,,,,,,,,,,,,,,,,,,,,None,,331.35434522996655,None,331.35434522996655,None,2022-07-08-13:14:00.161743,331.3671980998479,331.6707448998932,331.3671980998479,None,None,331.3671980998479,None,332.16992132999,None,,,,21005,0001,2022_Jul_08_1308,localizer,2021.1.3,59.60871646786396,
block,faces,faces043.bmp,,,,,0,135,135,135,,,,,,,,,,,,,,,,,,,,,,,,,,,,,,,,,,,,,,,,,,None,,332.16992132999,None,332.16992132999,None,2022-07-08-13:14:00.976394,332.1753006000072,332.48727929987945,332.1753006000072,None,None,332.1753006000072,None,332.9874619299546,None,,,,21005,0001,2022_Jul_08_1308,localizer,2021.1.3,59.60871646786396,
block_end,faces,faces033.bmp,,,,,0,136,136,136,,,,,,,,,,,,,,,,,,,,,,,,,,,,,,,,,,,,,,,,,,None,,332.9874619299546,None,332.9874619299546,None,2022-07-08-13:14:01.795074,333.00524079985917,333.32069709990174,333.00524079985917,None,None,333.00524079985917,None,333.8036062298808,None,,,,21005,0001,2022_Jul_08_1308,localizer,2021.1.3,59.60871646786396,
block_start,scrambled,scrambled025.bmp,,,,,0,137,137,137,,,,,,,,,,,,,,,,,,,,,,,,,,,,,,,,,,,,,,,,,,t,1.7632157001644373,333.80373779986985,None,333.80373779986985,None,2022-07-08-13:14:04.391816,335.5950609999709,335.9038181998767,335.5950609999709,None,None,335.5950609999709,None,336.4042677300051,None,,,,21005,0001,2022_Jul_08_1308,localizer,2021.1.3,59.60871646786396,
block,scrambled,scrambled005.bmp,,,,,0,138,138,138,,,,,,,,,,,,,,,,,,,,,,,,,,,,,,,,,,,,,,,,,,None,,336.4042677300051,None,336.4042677300051,None,2022-07-08-13:14:05.211666,336.4161598999053,336.72108749998733,336.4161598999053,None,None,336.4161598999053,None,337.2216855299659,None,,,,21005,0001,2022_Jul_08_1308,localizer,2021.1.3,59.60871646786396,
block,scrambled,scrambled032.bmp,,,,,0,139,139,139,,,,,,,,,,,,,,,,,,,,,,,,,,,,,,,,,,,,,,,,,,None,,337.2216855299659,None,337.2216855299659,None,2022-07-08-13:14:06.030451,337.2316326999571,337.53722299984656,337.2316326999571,None,None,337.2316326999571,None,338.037766029872,None,,,,21005,0001,2022_Jul_08_1308,localizer,2021.1.3,59.60871646786396,
block,scrambled,scrambled060.bmp,,,,,0,140,140,140,,,,,,,,,,,,,,,,,,,,,,,,,,,,,,,,,,,,,,,,,,None,,338.037766029872,None,338.037766029872,None,2022-07-08-13:14:06.845348,338.04946589982137,338.3543835999444,338.04946589982137,None,None,338.04946589982137,None,338.8540835299529,None,,,,21005,0001,2022_Jul_08_1308,localizer,2021.1.3,59.60871646786396,
block,scrambled,scrambled044.bmp,,,,,0,141,141,141,,,,,,,,,,,,,,,,,,,,,,,,,,,,,,,,,,,,,,,,,,None,,338.8540835299529,None,338.8540835299529,None,2022-07-08-13:14:07.661485,338.85484119993635,339.1702592999209,338.85484119993635,None,None,338.85484119993635,None,339.65403002994134,None,,,,21005,0001,2022_Jul_08_1308,localizer,2021.1.3,59.60871646786396,
block,scrambled,scrambled034.bmp,,,,,0,142,142,142,,,,,,,,,,,,,,,,,,,,,,,,,,,,,,,,,,,,,,,,,,None,,339.65403002994134,None,339.65403002994134,None,2022-07-08-13:14:08.462432,339.6567797998432,339.97073629987426,339.6567797998432,339.6567797998432,None,339.6567797998432,339.6567797998432,340.4706922299694,None,,,,21005,0001,2022_Jul_08_1308,localizer,2021.1.3,59.60871646786396,
block,scrambled,scrambled024.bmp,,,,,0,143,143,143,,,,,,,,,,,,,,,,,,,,,,,,,,,,,,,,,,,,,,,,,,None,,340.4706922299694,None,340.4706922299694,None,2022-07-08-13:14:09.277396,340.481780000031,340.7872615000233,340.481780000031,None,None,340.481780000031,None,341.2874759298749,None,,,,21005,0001,2022_Jul_08_1308,localizer,2021.1.3,59.60871646786396,
block,scrambled,scrambled042.bmp,,,,,0,144,144,144,,,,,,,,,,,,,,,,,,,,,,,,,,,,,,,,,,,,,,,,,,None,,341.2874759298749,None,341.2874759298749,None,2022-07-08-13:14:10.095076,341.2957114998717,341.6037256999407,341.2957114998717,None,None,341.2957114998717,None,342.1041976300068,None,,,,21005,0001,2022_Jul_08_1308,localizer,2021.1.3,59.60871646786396,
block,scrambled,scrambled069.bmp,,,,,0,145,145,145,,,,,,,,,,,,,,,,,,,,,,,,,,,,,,,,,,,,,,,,,,None,,342.1041976300068,None,342.1041976300068,None,2022-07-08-13:14:10.910737,342.1148943998851,342.42082079988904,342.1148943998851,None,None,342.1148943998851,None,342.9204819298349,None,,,,21005,0001,2022_Jul_08_1308,localizer,2021.1.3,59.60871646786396,
block,scrambled,scrambled036.bmp,,,,,0,146,146,146,,,,,,,,,,,,,,,,,,,,,,,,,,,,,,,,,,,,,,,,,,None,,342.9204819298349,None,342.9204819298349,None,2022-07-08-13:14:11.726911,342.9217548999004,343.2377842999995,342.9217548999004,None,None,342.9217548999004,None,343.7231051298324,None,,,,21005,0001,2022_Jul_08_1308,localizer,2021.1.3,59.60871646786396,
block,scrambled,scrambled007.bmp,,,,,0,147,147,147,,,,,,,,,,,,,,,,,,,,,,,,,,,,,,,,,,,,,,,,,,None,,343.7231051298324,None,343.7231051298324,None,2022-07-08-13:14:12.536651,343.7368951998651,344.0369257000275,343.7368951998651,343.7368951998651,y,343.7368951998651,343.7368951998651,344.53736432995646,None,0.7126704999245703,,,21005,0001,2022_Jul_08_1308,localizer,2021.1.3,59.60871646786396,
block,scrambled,scrambled061.bmp,,,,,0,148,148,148,,,,,,,,,,,,,,,,,,,,,,,,,,,,,,,,,,,,,,,,,,None,,344.53736432995646,None,344.53736432995646,None,2022-07-08-13:14:13.343771,344.5484855999239,344.85541219986044,344.5484855999239,None,None,344.5484855999239,None,345.354030530015,None,,,,21005,0001,2022_Jul_08_1308,localizer,2021.1.3,59.60871646786396,
block,scrambled,scrambled088.bmp,,,,,0,149,149,149,,,,,,,,,,,,,,,,,,,,,,,,,,,,,,,,,,,,,,,,,,None,,345.354030530015,None,345.354030530015,None,2022-07-08-13:14:14.160653,345.36059829988517,345.6704185998533,345.36059829988517,None,None,345.36059829988517,None,346.1603110300377,None,,,,21005,0001,2022_Jul_08_1308,localizer,2021.1.3,59.60871646786396,
block,scrambled,scrambled056.bmp,,,,,0,150,150,150,,,,,,,,,,,,,,,,,,,,,,,,,,,,,,,,,,,,,,,,,,None,,346.1603110300377,None,346.1603110300377,None,2022-07-08-13:14:14.970708,346.1753924000077,346.487342099892,346.1753924000077,None,None,346.1753924000077,None,346.97124652988276,None,,,,21005,0001,2022_Jul_08_1308,localizer,2021.1.3,59.60871646786396,
block_end,scrambled,scrambled076.bmp,,,,,0,151,151,151,,,,,,,,,,,,,,,,,,,,,,,,,,,,,,,,,,,,,,,,,,None,,346.97124652988276,None,346.97124652988276,None,2022-07-08-13:14:15.778644,346.9733686998952,347.2877344000153,346.9733686998952,None,None,346.9733686998952,None,347.7775223299861,None,,,,21005,0001,2022_Jul_08_1308,localizer,2021.1.3,59.60871646786396,
block_start,scenes,scenes015.bmp,,,,,0,152,152,152,,,,,,,,,,,,,,,,,,,,,,,,,,,,,,,,,,,,,,,,,,t,1.7902124000247568,347.77660309989005,None,347.77660309989005,None,2022-07-08-13:14:18.394910,349.5894431998022,349.89373779995367,349.5894431998022,None,None,349.5894431998022,None,350.40488922996445,None,,,,21005,0001,2022_Jul_08_1308,localizer,2021.1.3,59.60871646786396,
block,scenes,scenes040.bmp,,,,,0,153,153,153,,,,,,,,,,,,,,,,,,,,,,,,,,,,,,,,,,,,,,,,,,None,,350.40488922996445,None,350.40488922996445,None,2022-07-08-13:14:19.212279,350.41749559994787,350.7212612000294,350.41749559994787,None,None,350.41749559994787,None,351.2212296298705,None,,,,21005,0001,2022_Jul_08_1308,localizer,2021.1.3,59.60871646786396,
block,scenes,scenes065.bmp,,,,,0,154,154,154,,,,,,,,,,,,,,,,,,,,,,,,,,,,,,,,,,,,,,,,,,None,,351.2212296298705,None,351.2212296298705,None,2022-07-08-13:14:20.028625,351.2218911999371,351.53750199987553,351.2218911999371,None,None,351.2218911999371,None,352.02145112985744,None,,,,21005,0001,2022_Jul_08_1308,localizer,2021.1.3,59.60871646786396,
block,scenes,scenes051.bmp,,,,,0,155,155,155,,,,,,,,,,,,,,,,,,,,,,,,,,,,,,,,,,,,,,,,,,None,,352.02145112985744,None,352.02145112985744,None,2022-07-08-13:14:20.830863,352.02569889998995,352.33734610001557,352.02569889998995,352.02569889998995,None,352.02569889998995,352.02569889998995,352.8374207299668,None,,,,21005,0001,2022_Jul_08_1308,localizer,2021.1.3,59.60871646786396,
block,scenes,scenes044.bmp,,,,,0,156,156,156,,,,,,,,,,,,,,,,,,,,,,,,,,,,,,,,,,,,,,,,,,None,,352.8374207299668,None,352.8374207299668,None,2022-07-08-13:14:21.643825,352.8380140999798,353.1373129999265,352.8380140999798,None,None,352.8380140999798,None,353.64329653005115,None,,,,21005,0001,2022_Jul_08_1308,localizer,2021.1.3,59.60871646786396,
block,scenes,scenes013.bmp,,,,,0,157,157,157,,,,,,,,,,,,,,,,,,,,,,,,,,,,,,,,,,,,,,,,,,None,,353.64329653005115,None,353.64329653005115,None,2022-07-08-13:14:22.452557,353.6555231998209,353.97052859980613,353.6555231998209,None,None,353.6555231998209,None,354.45436312984674,None,,,,21005,0001,2022_Jul_08_1308,localizer,2021.1.3,59.60871646786396,
block,scenes,scenes064.bmp,,,,,0,158,158,158,,,,,,,,,,,,,,,,,,,,,,,,,,,,,,,,,,,,,,,,,,None,,354.45436312984674,None,354.45436312984674,None,2022-07-08-13:14:23.261762,354.45501969987527,354.77061559981667,354.45501969987527,None,None,354.45501969987527,None,355.270625429973,None,,,,21005,0001,2022_Jul_08_1308,localizer,2021.1.3,59.60871646786396,
block,scenes,scenes072.bmp,,,,,0,159,159,159,,,,,,,,,,,,,,,,,,,,,,,,,,,,,,,,,,,,,,,,,,None,,355.270625429973,None,355.270625429973,None,2022-07-08-13:14:24.077037,355.2768114998471,355.58914339984767,355.2768114998471,None,None,355.2768114998471,None,356.08974292995407,None,,,,21005,0001,2022_Jul_08_1308,localizer,2021.1.3,59.60871646786396,
block,scenes,scenes010.bmp,,,,,0,160,160,160,,,,,,,,,,,,,,,,,,,,,,,,,,,,,,,,,,,,,,,,,,None,,356.08974292995407,None,356.08974292995407,None,2022-07-08-13:14:24.901074,356.09381709992886,356.4039135999046,356.09381709992886,None,None,356.09381709992886,None,356.90465692994184,None,,,,21005,0001,2022_Jul_08_1308,localizer,2021.1.3,59.60871646786396,
block,scenes,scenes061.bmp,,,,,0,161,161,161,,,,,,,,,,,,,,,,,,,,,,,,,,,,,,,,,,,,,,,,,,None,,356.90465692994184,None,356.90465692994184,None,2022-07-08-13:14:25.712118,356.917896799976,357.2204489998985,356.917896799976,None,None,356.917896799976,None,357.72048483002,None,,,,21005,0001,2022_Jul_08_1308,localizer,2021.1.3,59.60871646786396,
block,scenes,scenes061.bmp,,,,,0,162,162,162,,,,,,,,,,,,,,,,,,,,,,,,,,,,,,,,,,,,,,,,,,None,,357.72048483002,None,357.72048483002,None,2022-07-08-13:14:26.526899,357.7212578000035,358.02057119994424,357.7212578000035,None,y,357.7212578000035,None,358.52157612987793,None,0.5058148000389338,,,21005,0001,2022_Jul_08_1308,localizer,2021.1.3,59.60871646786396,
block,scenes,scenes091.bmp,,,,,0,163,163,163,,,,,,,,,,,,,,,,,,,,,,,,,,,,,,,,,,,,,,,,,,None,,358.52157612987793,None,358.52157612987793,None,2022-07-08-13:14:27.329568,358.5319492998533,358.8370870000217,358.5319492998533,358.5319492998533,None,358.5319492998533,358.5319492998533,359.3393943298608,None,,,,21005,0001,2022_Jul_08_1308,localizer,2021.1.3,59.60871646786396,
block,scenes,scenes004.bmp,,,,,0,164,164,164,,,,,,,,,,,,,,,,,,,,,,,,,,,,,,,,,,,,,,,,,,None,,359.3393943298608,None,359.3393943298608,None,2022-07-08-13:14:28.149765,359.3601815998554,359.6711460999213,359.3601815998554,None,None,359.3601815998554,None,360.15386982988565,None,,,,21005,0001,2022_Jul_08_1308,localizer,2021.1.3,59.60871646786396,
block,scenes,scenes041.bmp,,,,,0,165,165,165,,,,,,,,,,,,,,,,,,,,,,,,,,,,,,,,,,,,,,,,,,None,,360.15386982988565,None,360.15386982988565,None,2022-07-08-13:14:28.960535,360.1623519998975,360.4711262998171,360.1623519998975,None,None,360.1623519998975,None,360.9704744299408,None,,,,21005,0001,2022_Jul_08_1308,localizer,2021.1.3,59.60871646786396,
block_end,scenes,scenes075.bmp,,,,,0,166,166,166,,,,,,,,,,,,,,,,,,,,,,,,,,,,,,,,,,,,,,,,,,None,,360.9704744299408,None,360.9704744299408,None,2022-07-08-13:14:29.776889,360.97866109991446,361.28729519993067,360.97866109991446,None,None,360.97866109991446,None,361.78713642996735,None,,,,21005,0001,2022_Jul_08_1308,localizer,2021.1.3,59.60871646786396,
block_start,objects,objects020.bmp,,,,,0,167,167,167,,,,,,,,,,,,,,,,,,,,,,,,,,,,,,,,,,,,,,,,,,t,1.7799080999102443,361.7869830999989,None,361.7869830999989,None,2022-07-08-13:14:32.392814,363.5966510998551,363.9039164998103,363.5966510998551,None,None,363.5966510998551,None,364.4046521299053,None,,,,21005,0001,2022_Jul_08_1308,localizer,2021.1.3,59.60871646786396,
block,objects,objects082.bmp,,,,,0,168,168,168,,,,,,,,,,,,,,,,,,,,,,,,,,,,,,,,,,,,,,,,,,None,,364.4046521299053,None,364.4046521299053,None,2022-07-08-13:14:33.212087,364.4159814999439,364.7208791000303,364.4159814999439,None,None,364.4159814999439,None,365.2212827299256,None,,,,21005,0001,2022_Jul_08_1308,localizer,2021.1.3,59.60871646786396,
block,objects,objects065.bmp,,,,,0,169,169,169,,,,,,,,,,,,,,,,,,,,,,,,,,,,,,,,,,,,,,,,,,None,,365.2212827299256,None,365.2212827299256,None,2022-07-08-13:14:34.029761,365.2356488998048,365.5373621999752,365.2356488998048,None,None,365.2356488998048,None,366.037667230051,None,,,,21005,0001,2022_Jul_08_1308,localizer,2021.1.3,59.60871646786396,
block,objects,objects087.bmp,,,,,0,170,170,170,,,,,,,,,,,,,,,,,,,,,,,,,,,,,,,,,,,,,,,,,,None,,366.037667230051,None,366.037667230051,None,2022-07-08-13:14:34.844356,366.04834749992006,366.35381120000966,366.04834749992006,None,None,366.04834749992006,None,366.8542556299828,None,,,,21005,0001,2022_Jul_08_1308,localizer,2021.1.3,59.60871646786396,
block,objects,objects068.bmp,,,,,0,171,171,171,,,,,,,,,,,,,,,,,,,,,,,,,,,,,,,,,,,,,,,,,,None,,366.8542556299828,None,366.8542556299828,None,2022-07-08-13:14:35.660569,366.8649730999023,367.17172689992003,366.8649730999023,None,None,366.8649730999023,None,367.67032922995276,None,,,,21005,0001,2022_Jul_08_1308,localizer,2021.1.3,59.60871646786396,
block,objects,objects049.bmp,,,,,0,172,172,172,,,,,,,,,,,,,,,,,,,,,,,,,,,,,,,,,,,,,,,,,,None,,367.67032922995276,None,367.67032922995276,None,2022-07-08-13:14:36.477743,367.6789098000154,367.9876629000064,367.6789098000154,None,None,367.6789098000154,None,368.48765482991,None,,,,21005,0001,2022_Jul_08_1308,localizer,2021.1.3,59.60871646786396,
block,objects,objects027.bmp,,,,,0,173,173,173,,,,,,,,,,,,,,,,,,,,,,,,,,,,,,,,,,,,,,,,,,None,,368.48765482991,None,368.48765482991,None,2022-07-08-13:14:37.295113,368.4994901998434,368.80413419986144,368.4994901998434,None,None,368.4994901998434,None,369.30408323002047,None,,,,21005,0001,2022_Jul_08_1308,localizer,2021.1.3,59.60871646786396,
block,objects,objects050.bmp,,,,,0,174,174,174,,,,,,,,,,,,,,,,,,,,,,,,,,,,,,,,,,,,,,,,,,None,,369.30408323002047,None,369.30408323002047,None,2022-07-08-13:14:38.110491,369.3153736998793,369.62059109983966,369.3153736998793,None,None,369.3153736998793,None,370.1207198298536,None,,,,21005,0001,2022_Jul_08_1308,localizer,2021.1.3,59.60871646786396,
block,objects,objects030.bmp,,,,,0,175,175,175,,,,,,,,,,,,,,,,,,,,,,,,,,,,,,,,,,,,,,,,,,None,,370.1207198298536,None,370.1207198298536,None,2022-07-08-13:14:38.927316,370.1314952999819,370.4385585000273,370.1314952999819,None,None,370.1314952999819,None,370.9375975300092,None,,,,21005,0001,2022_Jul_08_1308,localizer,2021.1.3,59.60871646786396,
block,objects,objects056.bmp,,,,,0,176,176,176,,,,,,,,,,,,,,,,,,,,,,,,,,,,,,,,,,,,,,,,,,None,,370.9375975300092,None,370.9375975300092,None,2022-07-08-13:14:39.744252,370.94833269994706,371.25418549985625,370.94833269994706,None,None,370.94833269994706,None,371.7552203299012,None,,,,21005,0001,2022_Jul_08_1308,localizer,2021.1.3,59.60871646786396,
block,objects,objects035.bmp,,,,,0,177,177,177,,,,,,,,,,,,,,,,,,,,,,,,,,,,,,,,,,,,,,,,,,None,,371.7552203299012,None,371.7552203299012,None,2022-07-08-13:14:40.563607,371.7581327999942,372.0705414998811,371.7581327999942,None,None,371.7581327999942,None,372.5708711299114,None,,,,21005,0001,2022_Jul_08_1308,localizer,2021.1.3,59.60871646786396,
block,objects,objects003.bmp,,,,,0,178,178,178,,,,,,,,,,,,,,,,,,,,,,,,,,,,,,,,,,,,,,,,,,None,,372.5708711299114,None,372.5708711299114,None,2022-07-08-13:14:41.377280,372.58191469986923,372.8949192999862,372.58191469986923,None,None,372.58191469986923,None,373.38756283004767,None,,,,21005,0001,2022_Jul_08_1308,localizer,2021.1.3,59.60871646786396,
block,objects,objects070.bmp,,,,,0,179,179,179,,,,,,,,,,,,,,,,,,,,,,,,,,,,,,,,,,,,,,,,,,None,,373.38756283004767,None,373.38756283004767,None,2022-07-08-13:14:42.193972,373.38838119991124,373.68729179981165,373.38838119991124,None,None,373.38838119991124,None,374.1882798299659,None,,,,21005,0001,2022_Jul_08_1308,localizer,2021.1.3,59.60871646786396,
block,objects,objects018.bmp,,,,,0,180,180,180,,,,,,,,,,,,,,,,,,,,,,,,,,,,,,,,,,,,,,,,,,None,,374.1882798299659,None,374.1882798299659,None,2022-07-08-13:14:42.998852,374.2036214999389,374.50454310001805,374.2036214999389,374.2036214999389,None,374.2036214999389,374.2036214999389,375.0044118299149,None,,,,21005,0001,2022_Jul_08_1308,localizer,2021.1.3,59.60871646786396,
block_end,objects,objects075.bmp,,,,,0,181,181,181,,,,,,,,,,,,,,,,,,,,,,,,,,,,,,,,,,,,,,,,,,None,,375.0044118299149,None,375.0044118299149,None,2022-07-08-13:14:43.810845,375.01601339993067,375.3204774998594,375.01601339993067,None,None,375.01601339993067,None,375.8204951298423,None,,,,21005,0001,2022_Jul_08_1308,localizer,2021.1.3,59.60871646786396,
null_block,null_block,null_block.bmp,,,,,0,182,182,182,,,,,,,,,,,,,,,,,,,,,,,,,,,,,,,,,,,,,,,,,,t,1.7463017001282424,375.8205478999298,None,375.8205478999298,None,2022-07-08-13:14:46.392974,377.58756472989916,None,377.58756472989916,None,None,377.58756472989916,None,377.59041019994766,None,,,,21005,0001,2022_Jul_08_1308,localizer,2021.1.3,59.60871646786396,
block_start,scenes,scenes009.bmp,,,,,0,183,183,183,,,,,,,,,,,,,,,,,,,,,,,,,,,,,,,,,,,,,,,,,,t,1.9621067000553012,389.60475739999674,None,389.60475739999674,None,2022-07-08-13:15:00.394641,391.59837999986485,391.90403979993425,391.59837999986485,None,None,391.59837999986485,None,392.4053755298257,None,,,,21005,0001,2022_Jul_08_1308,localizer,2021.1.3,59.60871646786396,
block,scenes,scenes081.bmp,,,,,0,184,184,184,,,,,,,,,,,,,,,,,,,,,,,,,,,,,,,,,,,,,,,,,,None,,392.4053755298257,None,392.4053755298257,None,2022-07-08-13:15:01.214258,392.42112529999577,392.7211855999194,392.42112529999577,None,None,392.42112529999577,None,393.2204964298755,None,,,,21005,0001,2022_Jul_08_1308,localizer,2021.1.3,59.60871646786396,
block,scenes,scenes057.bmp,,,,,0,185,185,185,,,,,,,,,,,,,,,,,,,,,,,,,,,,,,,,,,,,,,,,,,None,,393.2204964298755,None,393.2204964298755,None,2022-07-08-13:15:02.026912,393.2297451000195,393.5375590999611,393.2297451000195,None,None,393.2297451000195,None,394.03814362995325,None,,,,21005,0001,2022_Jul_08_1308,localizer,2021.1.3,59.60871646786396,
block,scenes,scenes003.bmp,,,,,0,186,186,186,,,,,,,,,,,,,,,,,,,,,,,,,,,,,,,,,,,,,,,,,,None,,394.03814362995325,None,394.03814362995325,None,2022-07-08-13:15:02.845600,394.0528494999744,394.359974199906,394.0528494999744,None,None,394.0528494999744,None,394.8544380299747,None,,,,21005,0001,2022_Jul_08_1308,localizer,2021.1.3,59.60871646786396,
block,scenes,scenes088.bmp,,,,,0,187,187,187,,,,,,,,,,,,,,,,,,,,,,,,,,,,,,,,,,,,,,,,,,None,,394.8544380299747,None,394.8544380299747,None,2022-07-08-13:15:03.662030,394.86650609993376,395.1725854999386,394.86650609993376,None,None,394.86650609993376,None,395.65934192999265,None,,,,21005,0001,2022_Jul_08_1308,localizer,2021.1.3,59.60871646786396,
block,scenes,scenes025.bmp,,,,,0,188,188,188,,,,,,,,,,,,,,,,,,,,,,,,,,,,,,,,,,,,,,,,,,None,,395.65934192999265,None,395.65934192999265,None,2022-07-08-13:15:04.469744,395.68106610001996,395.98735119984485,395.68106610001996,None,None,395.68106610001996,None,396.4708420299459,None,,,,21005,0001,2022_Jul_08_1308,localizer,2021.1.3,59.60871646786396,
block,scenes,scenes075.bmp,,,,,0,189,189,189,,,,,,,,,,,,,,,,,,,,,,,,,,,,,,,,,,,,,,,,,,None,,396.4708420299459,None,396.4708420299459,None,2022-07-08-13:15:05.277252,396.47171559999697,396.78740719985217,396.47171559999697,None,None,396.47171559999697,None,397.2719847299624,None,,,,21005,0001,2022_Jul_08_1308,localizer,2021.1.3,59.60871646786396,
block,scenes,scenes078.bmp,,,,,0,190,190,190,,,,,,,,,,,,,,,,,,,,,,,,,,,,,,,,,,,,,,,,,,None,,397.2719847299624,None,397.2719847299624,None,2022-07-08-13:15:06.082556,397.2761321000289,397.5888380999677,397.2761321000289,397.2761321000289,None,397.2761321000289,397.2761321000289,398.0875542299356,None,,,,21005,0001,2022_Jul_08_1308,localizer,2021.1.3,59.60871646786396,
block,scenes,scenes005.bmp,,,,,0,191,191,191,,,,,,,,,,,,,,,,,,,,,,,,,,,,,,,,,,,,,,,,,,None,,398.0875542299356,None,398.0875542299356,None,2022-07-08-13:15:06.893964,398.08832410001196,398.3877633998636,398.08832410001196,None,None,398.08832410001196,None,398.8874789299909,None,,,,21005,0001,2022_Jul_08_1308,localizer,2021.1.3,59.60871646786396,
block,scenes,scenes020.bmp,,,,,0,192,192,192,,,,,,,,,,,,,,,,,,,,,,,,,,,,,,,,,,,,,,,,,,None,,398.8874789299909,None,398.8874789299909,None,2022-07-08-13:15:07.694887,398.8950380999595,399.2041209000163,398.8950380999595,398.8950380999595,None,398.8950380999595,398.8950380999595,399.7045917299576,None,,,,21005,0001,2022_Jul_08_1308,localizer,2021.1.3,59.60871646786396,
block,scenes,scenes006.bmp,,,,,0,193,193,193,,,,,,,,,,,,,,,,,,,,,,,,,,,,,,,,,,,,,,,,,,None,,399.7045917299576,None,399.7045917299576,None,2022-07-08-13:15:08.512187,399.7164210998453,400.02119369991124,399.7164210998453,None,None,399.7164210998453,None,400.5218114299234,None,,,,21005,0001,2022_Jul_08_1308,localizer,2021.1.3,59.60871646786396,
block,scenes,scenes047.bmp,,,,,0,194,194,194,,,,,,,,,,,,,,,,,,,,,,,,,,,,,,,,,,,,,,,,,,None,,400.5218114299234,None,400.5218114299234,None,2022-07-08-13:15:09.329202,400.5342873998452,400.8405156999361,400.5342873998452,None,None,400.5342873998452,None,401.33752802996895,None,,,,21005,0001,2022_Jul_08_1308,localizer,2021.1.3,59.60871646786396,
block,scenes,scenes028.bmp,,,,,0,195,195,195,,,,,,,,,,,,,,,,,,,,,,,,,,,,,,,,,,,,,,,,,,None,,401.33752802996895,None,401.33752802996895,None,2022-07-08-13:15:10.144099,401.33842239994556,401.6541459998116,401.33842239994556,None,None,401.33842239994556,None,402.14383852998725,None,,,,21005,0001,2022_Jul_08_1308,localizer,2021.1.3,59.60871646786396,
block,scenes,scenes022.bmp,,,,,0,196,196,196,,,,,,,,,,,,,,,,,,,,,,,,,,,,,,,,,,,,,,,,,,None,,402.14383852998725,None,402.14383852998725,None,2022-07-08-13:15:10.959212,402.1684649998788,402.471563299885,402.1684649998788,None,None,402.1684649998788,None,402.95491062994114,None,,,,21005,0001,2022_Jul_08_1308,localizer,2021.1.3,59.60871646786396,
block_end,scenes,scenes015.bmp,,,,,0,197,197,197,,,,,,,,,,,,,,,,,,,,,,,,,,,,,,,,,,,,,,,,,,None,,402.95491062994114,None,402.95491062994114,None,2022-07-08-13:15:11.762335,402.9570342998486,403.27091469988227,402.9570342998486,None,None,402.9570342998486,None,403.7562505298294,None,,,,21005,0001,2022_Jul_08_1308,localizer,2021.1.3,59.60871646786396,
null_block,null_block,null_block.bmp,,,,,0,198,198,198,,,,,,,,,,,,,,,,,,,,,,,,,,,,,,,,,,,,,,,,,,t,1.809925600187853,403.7568892999552,None,403.7568892999552,None,2022-07-08-13:15:14.394694,405.58809512997976,None,405.58809512997976,None,None,405.58809512997976,None,405.5940937998239,None,,,,21005,0001,2022_Jul_08_1308,localizer,2021.1.3,59.60871646786396,
block_start,objects,objects060.bmp,,,,,0,199,199,199,,,,,,,,,,,,,,,,,,,,,,,,,,,,,,,,,,,,,,,,,,t,1.9614555998705328,417.60427069989964,None,417.60427069989964,None,2022-07-08-13:15:28.394962,419.5985071999021,419.90502840001136,419.5985071999021,None,None,419.5985071999021,None,420.4049186299555,None,,,,21005,0001,2022_Jul_08_1308,localizer,2021.1.3,59.60871646786396,
block,objects,objects084.bmp,,,,,0,200,200,200,,,,,,,,,,,,,,,,,,,,,,,,,,,,,,,,,,,,,,,,,,None,,420.4049186299555,None,420.4049186299555,None,2022-07-08-13:15:29.212323,420.417781899916,420.72095600003377,420.417781899916,None,None,420.417781899916,None,421.2221543300431,None,,,,21005,0001,2022_Jul_08_1308,localizer,2021.1.3,59.60871646786396,
block,objects,objects041.bmp,,,,,0,201,201,201,,,,,,,,,,,,,,,,,,,,,,,,,,,,,,,,,,,,,,,,,,None,,421.2221543300431,None,421.2221543300431,None,2022-07-08-13:15:30.032485,421.23689049994573,421.53720229980536,421.23689049994573,None,None,421.23689049994573,None,422.03748152991756,None,,,,21005,0001,2022_Jul_08_1308,localizer,2021.1.3,59.60871646786396,
block,objects,objects051.bmp,,,,,0,202,202,202,,,,,,,,,,,,,,,,,,,,,,,,,,,,,,,,,,,,,,,,,,None,,422.03748152991756,None,422.03748152991756,None,2022-07-08-13:15:30.844042,422.04695530002937,422.35500809992664,422.04695530002937,None,None,422.04695530002937,None,422.8548478298355,None,,,,21005,0001,2022_Jul_08_1308,localizer,2021.1.3,59.60871646786396,
block,objects,objects009.bmp,,,,,0,203,203,203,,,,,,,,,,,,,,,,,,,,,,,,,,,,,,,,,,,,,,,,,,None,,422.8548478298355,None,422.8548478298355,None,2022-07-08-13:15:31.662245,422.85650839982554,423.1715865000151,422.85650839982554,None,None,422.85650839982554,None,423.67080192994325,None,,,,21005,0001,2022_Jul_08_1308,localizer,2021.1.3,59.60871646786396,
block,objects,objects044.bmp,,,,,0,204,204,204,,,,,,,,,,,,,,,,,,,,,,,,,,,,,,,,,,,,,,,,,,None,,423.67080192994325,None,423.67080192994325,None,2022-07-08-13:15:32.477213,423.6717496998608,423.9876353999134,423.6717496998608,None,None,423.6717496998608,None,424.4711417300161,None,,,,21005,0001,2022_Jul_08_1308,localizer,2021.1.3,59.60871646786396,
block,objects,objects067.bmp,,,,,0,205,205,205,,,,,,,,,,,,,,,,,,,,,,,,,,,,,,,,,,,,,,,,,,None,,424.4711417300161,None,424.4711417300161,None,2022-07-08-13:15:33.279545,424.48372439993545,424.7877044000197,424.48372439993545,424.48372439993545,None,424.48372439993545,424.48372439993545,425.2876746298745,None,,,,21005,0001,2022_Jul_08_1308,localizer,2021.1.3,59.60871646786396,
block,objects,objects070.bmp,,,,,0,206,206,206,,,,,,,,,,,,,,,,,,,,,,,,,,,,,,,,,,,,,,,,,,None,,425.2876746298745,None,425.2876746298745,None,2022-07-08-13:15:34.094326,425.28839709982276,425.58757460000925,425.28839709982276,None,None,425.28839709982276,None,426.0875496299006,None,,,,21005,0001,2022_Jul_08_1308,localizer,2021.1.3,59.60871646786396,
block,objects,objects049.bmp,,,,,0,207,207,207,,,,,,,,,,,,,,,,,,,,,,,,,,,,,,,,,,,,,,,,,,None,,426.0875496299006,None,426.0875496299006,None,2022-07-08-13:15:34.895954,426.08892769995145,426.4044311000034,426.08892769995145,426.08892769995145,None,426.08892769995145,426.08892769995145,426.88886422994545,None,,,,21005,0001,2022_Jul_08_1308,localizer,2021.1.3,59.60871646786396,
block,objects,objects077.bmp,,,,,0,208,208,208,,,,,,,,,,,,,,,,,,,,,,,,,,,,,,,,,,,,,,,,,,None,,426.88886422994545,None,426.88886422994545,None,2022-07-08-13:15:35.699414,426.8929555998184,427.2046262000222,426.8929555998184,426.8929555998184,None,426.8929555998184,426.8929555998184,427.70464352988637,None,,,,21005,0001,2022_Jul_08_1308,localizer,2021.1.3,59.60871646786396,
block,objects,objects079.bmp,,,,,0,209,209,209,,,,,,,,,,,,,,,,,,,,,,,,,,,,,,,,,,,,,,,,,,None,,427.70464352988637,None,427.70464352988637,None,2022-07-08-13:15:36.512253,427.705421899911,428.0048856998328,427.705421899911,None,None,427.705421899911,None,428.5049515299499,None,,,,21005,0001,2022_Jul_08_1308,localizer,2021.1.3,59.60871646786396,
block,objects,objects015.bmp,,,,,0,210,210,210,,,,,,,,,,,,,,,,,,,,,,,,,,,,,,,,,,,,,,,,,,None,,428.5049515299499,None,428.5049515299499,None,2022-07-08-13:15:37.314348,428.5158826999832,428.8211454998236,428.5158826999832,428.5158826999832,None,428.5158826999832,428.5158826999832,429.3207976299338,None,,,,21005,0001,2022_Jul_08_1308,localizer,2021.1.3,59.60871646786396,
block,objects,objects055.bmp,,,,,0,211,211,211,,,,,,,,,,,,,,,,,,,,,,,,,,,,,,,,,,,,,,,,,,None,,429.3207976299338,None,429.3207976299338,None,2022-07-08-13:15:38.127210,429.3299951998051,429.63816470000893,429.3299951998051,None,None,429.3299951998051,None,430.1431639299728,None,,,,21005,0001,2022_Jul_08_1308,localizer,2021.1.3,59.60871646786396,
block,objects,objects048.bmp,,,,,0,212,212,212,,,,,,,,,,,,,,,,,,,,,,,,,,,,,,,,,,,,,,,,,,None,,430.1431639299728,None,430.1431639299728,None,2022-07-08-13:15:38.949582,430.1515017999336,430.4542544998694,430.1515017999336,None,None,430.1515017999336,None,430.95403383001684,None,,,,21005,0001,2022_Jul_08_1308,localizer,2021.1.3,59.60871646786396,
block_end,objects,objects047.bmp,,,,,0,213,213,213,,,,,,,,,,,,,,,,,,,,,,,,,,,,,,,,,,,,,,,,,,None,,430.95403383001684,None,430.95403383001684,None,2022-07-08-13:15:39.760076,430.95583190000616,431.2709062998183,430.95583190000616,None,None,430.95583190000616,None,431.7711933299899,None,,,,21005,0001,2022_Jul_08_1308,localizer,2021.1.3,59.60871646786396,
block_start,scrambled,scrambled051.bmp,,,,,0,214,214,214,,,,,,,,,,,,,,,,,,,,,,,,,,,,,,,,,,,,,,,,,,t,1.794622499961406,431.7711157000158,None,431.7711157000158,None,2022-07-08-13:15:42.394430,433.5887678998988,433.9039466998074,433.5887678998988,None,None,433.5887678998988,None,434.38973742984234,None,,,,21005,0001,2022_Jul_08_1308,localizer,2021.1.3,59.60871646786396,
block,scrambled,scrambled025.bmp,,,,,0,215,215,215,,,,,,,,,,,,,,,,,,,,,,,,,,,,,,,,,,,,,,,,,,None,,434.38973742984234,None,434.38973742984234,None,2022-07-08-13:15:43.202257,434.39732349989936,434.70452719996683,434.39732349989936,434.39732349989936,None,434.39732349989936,434.39732349989936,435.2046988299582,None,,,,21005,0001,2022_Jul_08_1308,localizer,2021.1.3,59.60871646786396,
block,scrambled,scrambled042.bmp,,,,,0,216,216,216,,,,,,,,,,,,,,,,,,,,,,,,,,,,,,,,,,,,,,,,,,None,,435.2046988299582,None,435.2046988299582,None,2022-07-08-13:15:44.012286,435.20545699982904,435.50473549985327,435.20545699982904,None,None,435.20545699982904,None,436.0045232298318,None,,,,21005,0001,2022_Jul_08_1308,localizer,2021.1.3,59.60871646786396,
block,scrambled,scrambled088.bmp,,,,,0,217,217,217,,,,,,,,,,,,,,,,,,,,,,,,,,,,,,,,,,,,,,,,,,None,,436.0045232298318,None,436.0045232298318,None,2022-07-08-13:15:44.813920,436.0074232998304,436.3215607998427,436.0074232998304,436.0074232998304,None,436.0074232998304,436.0074232998304,436.82161612999624,None,,,,21005,0001,2022_Jul_08_1308,localizer,2021.1.3,59.60871646786396,
block,scrambled,scrambled033.bmp,,,,,0,218,218,218,,,,,,,,,,,,,,,,,,,,,,,,,,,,,,,,,,,,,,,,,,None,,436.82161612999624,None,436.82161612999624,None,2022-07-08-13:15:45.629218,436.83330119983293,437.1412895999383,436.83330119983293,None,None,436.83330119983293,None,437.63785282992757,None,,,,21005,0001,2022_Jul_08_1308,localizer,2021.1.3,59.60871646786396,
block,scrambled,scrambled047.bmp,,,,,0,219,219,219,,,,,,,,,,,,,,,,,,,,,,,,,,,,,,,,,,,,,,,,,,None,,437.63785282992757,None,437.63785282992757,None,2022-07-08-13:15:46.445014,437.6482148999348,437.9544291999191,437.6482148999348,None,None,437.6482148999348,None,438.4544595298823,None,,,,21005,0001,2022_Jul_08_1308,localizer,2021.1.3,59.60871646786396,
block,scrambled,scrambled013.bmp,,,,,0,220,220,220,,,,,,,,,,,,,,,,,,,,,,,,,,,,,,,,,,,,,,,,,,None,,438.4544595298823,None,438.4544595298823,None,2022-07-08-13:15:47.260866,438.46551759983413,438.771240899805,438.46551759983413,None,None,438.46551759983413,None,439.271253629867,None,,,,21005,0001,2022_Jul_08_1308,localizer,2021.1.3,59.60871646786396,
block,scrambled,scrambled028.bmp,,,,,0,221,221,221,,,,,,,,,,,,,,,,,,,,,,,,,,,,,,,,,,,,,,,,,,None,,439.271253629867,None,439.271253629867,None,2022-07-08-13:15:48.077886,439.2791732000187,439.5877319998108,439.2791732000187,None,None,439.2791732000187,None,440.08735412992536,None,,,,21005,0001,2022_Jul_08_1308,localizer,2021.1.3,59.60871646786396,
block,scrambled,scrambled030.bmp,,,,,0,222,222,222,,,,,,,,,,,,,,,,,,,,,,,,,,,,,,,,,,,,,,,,,,None,,440.08735412992536,None,440.08735412992536,None,2022-07-08-13:15:48.894767,440.09901729994453,440.40418539987877,440.09901729994453,None,None,440.09901729994453,None,440.9048536299262,None,,,,21005,0001,2022_Jul_08_1308,localizer,2021.1.3,59.60871646786396,
block,scrambled,scrambled010.bmp,,,,,0,223,223,223,,,,,,,,,,,,,,,,,,,,,,,,,,,,,,,,,,,,,,,,,,None,,440.9048536299262,None,440.9048536299262,None,2022-07-08-13:15:49.713320,440.90630389982834,441.22126029990613,440.90630389982834,None,None,440.90630389982834,None,441.7209227299783,None,,,,21005,0001,2022_Jul_08_1308,localizer,2021.1.3,59.60871646786396,
block,scrambled,scrambled011.bmp,,,,,0,224,224,224,,,,,,,,,,,,,,,,,,,,,,,,,,,,,,,,,,,,,,,,,,None,,441.7209227299783,None,441.7209227299783,None,2022-07-08-13:15:50.527346,441.73017649981193,442.0377521000337,441.73017649981193,None,None,441.73017649981193,None,442.537893930031,None,,,,21005,0001,2022_Jul_08_1308,localizer,2021.1.3,59.60871646786396,
block,scrambled,scrambled029.bmp,,,,,0,225,225,225,,,,,,,,,,,,,,,,,,,,,,,,,,,,,,,,,,,,,,,,,,None,,442.537893930031,None,442.537893930031,None,2022-07-08-13:15:51.344521,442.5497394998092,442.8556878999807,442.5497394998092,None,None,442.5497394998092,None,443.35476482990197,None,,,,21005,0001,2022_Jul_08_1308,localizer,2021.1.3,59.60871646786396,
block,scrambled,scrambled075.bmp,,,,,0,226,226,226,,,,,,,,,,,,,,,,,,,,,,,,,,,,,,,,,,,,,,,,,,None,,443.35476482990197,None,443.35476482990197,None,2022-07-08-13:15:52.161193,443.3654365998227,443.67093049990945,443.3654365998227,None,None,443.3654365998227,None,444.17219492984003,None,,,,21005,0001,2022_Jul_08_1308,localizer,2021.1.3,59.60871646786396,
block,scrambled,scrambled037.bmp,,,,,0,227,227,227,,,,,,,,,,,,,,,,,,,,,,,,,,,,,,,,,,,,,,,,,,None,,444.17219492984003,None,444.17219492984003,None,2022-07-08-13:15:52.980768,444.1747402998153,444.4875914999284,444.1747402998153,None,None,444.1747402998153,None,444.9888980298303,None,,,,21005,0001,2022_Jul_08_1308,localizer,2021.1.3,59.60871646786396,
block_end,scrambled,scrambled004.bmp,,,,,0,228,228,228,,,,,,,,,,,,,,,,,,,,,,,,,,,,,,,,,,,,,,,,,,None,,444.9888980298303,None,444.9888980298303,None,2022-07-08-13:15:53.798315,445.0038500998635,445.304438999854,445.0038500998635,None,None,445.0038500998635,None,445.80454183002,None,,,,21005,0001,2022_Jul_08_1308,localizer,2021.1.3,59.60871646786396,
block_start,faces,faces056.bmp,,,,,0,229,229,229,,,,,,,,,,,,,,,,,,,,,,,,,,,,,,,,,,,,,,,,,,t,1.761291400063783,445.8044191999361,None,445.8044191999361,None,2022-07-08-13:15:56.394267,447.5948681998998,447.90894009987824,447.5948681998998,None,None,447.5948681998998,None,448.40471452991477,None,,,,21005,0001,2022_Jul_08_1308,localizer,2021.1.3,59.60871646786396,
block,faces,faces059.bmp,,,,,0,230,230,230,,,,,,,,,,,,,,,,,,,,,,,,,,,,,,,,,,,,,,,,,,None,,448.40471452991477,None,448.40471452991477,None,2022-07-08-13:15:57.211126,448.405369799817,448.70460679987445,448.405369799817,None,None,448.405369799817,None,449.2055246299598,None,,,,21005,0001,2022_Jul_08_1308,localizer,2021.1.3,59.60871646786396,
block,faces,faces006.bmp,,,,,0,231,231,231,,,,,,,,,,,,,,,,,,,,,,,,,,,,,,,,,,,,,,,,,,None,,449.2055246299598,None,449.2055246299598,None,2022-07-08-13:15:58.017929,449.22529429988936,449.5375308999792,449.22529429988936,449.22529429988936,None,449.22529429988936,449.22529429988936,450.02127363001927,None,,,,21005,0001,2022_Jul_08_1308,localizer,2021.1.3,59.60871646786396,
block,faces,faces079.bmp,,,,,0,232,232,232,,,,,,,,,,,,,,,,,,,,,,,,,,,,,,,,,,,,,,,,,,None,,450.02127363001927,None,450.02127363001927,None,2022-07-08-13:15:58.827905,450.02205709996633,450.3212060998194,450.02205709996633,None,None,450.02205709996633,None,450.8376019299496,None,,,,21005,0001,2022_Jul_08_1308,localizer,2021.1.3,59.60871646786396,
block,faces,faces082.bmp,,,,,0,233,233,233,,,,,,,,,,,,,,,,,,,,,,,,,,,,,,,,,,,,,,,,,,None,,450.8376019299496,None,450.8376019299496,None,2022-07-08-13:15:59.643022,450.8480129998643,451.15398059994914,450.8480129998643,None,None,450.8480129998643,None,451.65395982987246,None,,,,21005,0001,2022_Jul_08_1308,localizer,2021.1.3,59.60871646786396,
block,faces,faces063.bmp,,,,,0,234,234,234,,,,,,,,,,,,,,,,,,,,,,,,,,,,,,,,,,,,,,,,,,None,,451.65395982987246,None,451.65395982987246,None,2022-07-08-13:16:00.461386,451.65570879983716,451.9710494999308,451.65570879983716,None,None,451.65570879983716,None,452.47112603001295,None,,,,21005,0001,2022_Jul_08_1308,localizer,2021.1.3,59.60871646786396,
block,faces,faces076.bmp,,,,,0,235,235,235,,,,,,,,,,,,,,,,,,,,,,,,,,,,,,,,,,,,,,,,,,None,,452.47112603001295,None,452.47112603001295,None,2022-07-08-13:16:01.277537,452.482215099968,452.78793330001645,452.482215099968,None,None,452.482215099968,None,453.28889162982813,None,,,,21005,0001,2022_Jul_08_1308,localizer,2021.1.3,59.60871646786396,
block,faces,faces051.bmp,,,,,0,236,236,236,,,,,,,,,,,,,,,,,,,,,,,,,,,,,,,,,,,,,,,,,,None,,453.28889162982813,None,453.28889162982813,None,2022-07-08-13:16:02.097260,453.30321369995363,453.6042301999405,453.30321369995363,None,None,453.30321369995363,None,454.10441972995176,None,,,,21005,0001,2022_Jul_08_1308,localizer,2021.1.3,59.60871646786396,
block,faces,faces023.bmp,,,,,0,237,237,237,,,,,,,,,,,,,,,,,,,,,,,,,,,,,,,,,,,,,,,,,,None,,454.10441972995176,None,454.10441972995176,None,2022-07-08-13:16:02.910824,454.1054513999261,454.421148999827,454.1054513999261,None,None,454.1054513999261,None,454.9210706300102,None,,,,21005,0001,2022_Jul_08_1308,localizer,2021.1.3,59.60871646786396,
block,faces,faces020.bmp,,,,,0,238,238,238,,,,,,,,,,,,,,,,,,,,,,,,,,,,,,,,,,,,,,,,,,None,,454.9210706300102,None,454.9210706300102,None,2022-07-08-13:16:03.727487,454.9305689998437,455.23762859986164,454.9305689998437,None,None,454.9305689998437,None,455.7379324299283,None,,,,21005,0001,2022_Jul_08_1308,localizer,2021.1.3,59.60871646786396,
block,faces,faces020.bmp,,,,,0,239,239,239,,,,,,,,,,,,,,,,,,,,,,,,,,,,,,,,,,,,,,,,,,None,,455.7379324299283,None,455.7379324299283,None,2022-07-08-13:16:04.544514,455.73869299981743,456.05439679999836,455.73869299981743,None,y,455.73869299981743,None,456.53774033002554,None,0.5481348999310285,,,21005,0001,2022_Jul_08_1308,localizer,2021.1.3,59.60871646786396,
block,faces,faces052.bmp,,,,,0,240,240,240,,,,,,,,,,,,,,,,,,,,,,,,,,,,,,,,,,,,,,,,,,None,,456.53774033002554,None,456.53774033002554,None,2022-07-08-13:16:05.346145,456.55056789983064,456.8544114998076,456.55056789983064,456.55056789983064,None,456.55056789983064,456.55056789983064,457.354528229963,None,,,,21005,0001,2022_Jul_08_1308,localizer,2021.1.3,59.60871646786396,
block,faces,faces087.bmp,,,,,0,241,241,241,,,,,,,,,,,,,,,,,,,,,,,,,,,,,,,,,,,,,,,,,,None,,457.354528229963,None,457.354528229963,None,2022-07-08-13:16:06.161094,457.366045499919,457.6710045998916,457.366045499919,None,None,457.366045499919,None,458.1710654299706,None,,,,21005,0001,2022_Jul_08_1308,localizer,2021.1.3,59.60871646786396,
block,faces,faces060.bmp,,,,,0,242,242,242,,,,,,,,,,,,,,,,,,,,,,,,,,,,,,,,,,,,,,,,,,None,,458.1710654299706,None,458.1710654299706,None,2022-07-08-13:16:06.977476,458.1822089999914,458.4879003998358,458.1822089999914,None,None,458.1822089999914,None,458.98786222985945,None,,,,21005,0001,2022_Jul_08_1308,localizer,2021.1.3,59.60871646786396,
block_end,faces,faces068.bmp,,,,,0,243,243,243,,,,,,,,,,,,,,,,,,,,,,,,,,,,,,,,,,,,,,,,,,None,,458.98786222985945,None,458.98786222985945,None,2022-07-08-13:16:07.794269,458.9955112999305,459.3041485999711,458.9955112999305,None,None,458.9955112999305,None,459.8055330298841,None,,,,21005,0001,2022_Jul_08_1308,localizer,2021.1.3,59.60871646786396,
,,,,,,,,,,,,,,,,,,,,,,,,,,,,,,,,,,,,,,,,,,,,,,,,,,,,,,,,,,,,,,,,,,,,,459.8069463998545,None,,,,,,,
