block_type,condition,img_name,Button.thisRepN,Button.thisTrialN,Button.thisN,Button.thisIndex,trials.thisRepN,trials.thisTrialN,trials.thisN,trials.thisIndex,Ready_experimenter_text.started,Ready_experimenter_text.stopped,Ready_experimenter_resp.keys,Ready_experimenter_resp.rt,Ready_experimenter_resp.started,Ready_experimenter_resp.stopped,Alignment_background.started,Alignment_background.stopped,Alignment_image.started,Alignment_image.stopped,Alignment_resp.keys,Alignment_resp.rt,Alignment_resp.started,Alignment_resp.stopped,Button_text.started,Button_text.stopped,Index_text.started,Index_text.stopped,Index_resp.keys,Index_resp.rt,Index_resp.started,Index_resp.stopped,Middle_text.started,Middle_text.stopped,Middle_resp.keys,Middle_resp.rt,Middle_resp.started,Middle_resp.stopped,Repeat_text.started,Repeat_text.stopped,Repeat_resp.keys,Repeat_resp.corr,Repeat_resp.rt,Repeat_resp.started,Repeat_resp.stopped,instruction_text.started,instruction_text.stopped,key_resp.keys,key_resp.rt,key_resp.started,key_resp.stopped,scanner_t.keys,scanner_t.rt,scanner_t.started,scanner_t.stopped,fixation_wait_for_t.started,fixation_wait_for_t.stopped,real_timestamp_trial_start,image.started,image.stopped,fixation.started,fixation.stopped,repeat_response.keys,repeat_response.started,repeat_response.stopped,fixation_null.started,fixation_null.stopped,repeat_response.rt,end_text.started,end_text.stopped,participant,run,date,expName,psychopyVersion,frameRate,
,,,,,,,,,,,9.985581200104207,None,return,57.02926089987159,9.985581200104207,None,,,,,,,,,,,,,,,,,,,,,,,,,,,,,,,,,,,,,,,,,,,,,,,,,,,,,,,21007,0001,2022_Jul_25_1358,localizer,2021.1.3,60.617375922040004,
,,,,,,,,,,,,,,,,,67.07204389991239,None,67.07204389991239,None,return,1.9514250000938773,67.07204389991239,None,,,,,,,,,,,,,,,,,,,,,,,,,,,,,,,,,,,,,,,,,,,,,,,21007,0001,2022_Jul_25_1358,localizer,2021.1.3,60.617375922040004,
,,,0,0,0,0,,,,,,,,,,,,,,,,,,,69.04964940017089,None,70.06042800005525,None,y,15.789364899974316,70.06042800005525,None,85.87796759977937,None,b,2.561635300051421,85.87796759977937,None,88.46073060017079,None,n,0,2.683118599932641,88.46073060017079,None,,,,,,,,,,,,,,,,,,,,,,,,,,21007,0001,2022_Jul_25_1358,localizer,2021.1.3,60.617375922040004,
,,,,,,,,,,,,,,,,,,,,,,,,,,,,,,,,,,,,,,,,,,,,,,91.16175699979067,None,y,87.1097352001816,91.16175699979067,None,,,,,,,,,,,,,,,,,,,,21007,0001,2022_Jul_25_1358,localizer,2021.1.3,60.617375922040004,
block_start,scenes,scenes084.bmp,,,,,0,0,0,0,,,,,,,,,,,,,,,,,,,,,,,,,,,,,,,,,,,,,,,,,,t,21.55894579971209,178.35956940008327,None,178.35956940008327,None,2022-07-25-14:01:45.064533,199.95841629989445,200.26122559979558,199.95841629989445,None,None,199.95841629989445,None,200.76184389013798,None,,,,21007,0001,2022_Jul_25_1358,localizer,2021.1.3,60.617375922040004,
block,scenes,scenes092.bmp,,,,,0,1,1,1,,,,,,,,,,,,,,,,,,,,,,,,,,,,,,,,,,,,,,,,,,None,,200.76184389013798,None,200.76184389013798,None,2022-07-25-14:01:45.883592,200.77597730001435,201.07786219986156,200.77597730001435,None,None,200.77597730001435,None,201.57823089016603,None,,,,21007,0001,2022_Jul_25_1358,localizer,2021.1.3,60.617375922040004,
block,scenes,scenes034.bmp,,,,,0,2,2,2,,,,,,,,,,,,,,,,,,,,,,,,,,,,,,,,,,,,,,,,,,None,,201.57823089016603,None,201.57823089016603,None,2022-07-25-14:01:46.697654,201.58902540011331,201.8945205998607,201.58902540011331,None,None,201.58902540011331,None,202.3950544900261,None,,,,21007,0001,2022_Jul_25_1358,localizer,2021.1.3,60.617375922040004,
block,scenes,scenes076.bmp,,,,,0,3,3,3,,,,,,,,,,,,,,,,,,,,,,,,,,,,,,,,,,,,,,,,,,None,,202.3950544900261,None,202.3950544900261,None,2022-07-25-14:01:47.514536,202.4056969997473,202.711273400113,202.4056969997473,None,None,202.4056969997473,None,203.21214438993485,None,,,,21007,0001,2022_Jul_25_1358,localizer,2021.1.3,60.617375922040004,
block,scenes,scenes015.bmp,,,,,0,4,4,4,,,,,,,,,,,,,,,,,,,,,,,,,,,,,,,,,,,,,,,,,,None,,203.21214438993485,None,203.21214438993485,None,2022-07-25-14:01:48.332755,203.22525449981913,203.5276963999495,203.22525449981913,None,None,203.22525449981913,None,204.02810198972003,None,,,,21007,0001,2022_Jul_25_1358,localizer,2021.1.3,60.617375922040004,
block,scenes,scenes027.bmp,,,,,0,5,5,5,,,,,,,,,,,,,,,,,,,,,,,,,,,,,,,,,,,,,,,,,,None,,204.02810198972003,None,204.02810198972003,None,2022-07-25-14:01:49.147533,204.0388156999834,204.34435749985278,204.0388156999834,None,None,204.0388156999834,None,204.84483368992807,None,,,,21007,0001,2022_Jul_25_1358,localizer,2021.1.3,60.617375922040004,
block,scenes,scenes081.bmp,,,,,0,6,6,6,,,,,,,,,,,,,,,,,,,,,,,,,,,,,,,,,,,,,,,,,,None,,204.84483368992807,None,204.84483368992807,None,2022-07-25-14:01:49.964497,204.85472000017762,205.16109529975802,204.85472000017762,None,None,204.85472000017762,None,205.66124229012058,None,,,,21007,0001,2022_Jul_25_1358,localizer,2021.1.3,60.617375922040004,
block,scenes,scenes038.bmp,,,,,0,7,7,7,,,,,,,,,,,,,,,,,,,,,,,,,,,,,,,,,,,,,,,,,,None,,205.66124229012058,None,205.66124229012058,None,2022-07-25-14:01:50.780706,205.67001819983125,205.97827509976923,205.67001819983125,None,None,205.67001819983125,None,206.47856098990889,None,,,,21007,0001,2022_Jul_25_1358,localizer,2021.1.3,60.617375922040004,
block,scenes,scenes080.bmp,,,,,0,8,8,8,,,,,,,,,,,,,,,,,,,,,,,,,,,,,,,,,,,,,,,,,,None,,206.47856098990889,None,206.47856098990889,None,2022-07-25-14:01:51.598987,206.49006350012496,206.7948969998397,206.49006350012496,None,None,206.49006350012496,None,207.29530088994653,None,,,,21007,0001,2022_Jul_25_1358,localizer,2021.1.3,60.617375922040004,
block,scenes,scenes053.bmp,,,,,0,9,9,9,,,,,,,,,,,,,,,,,,,,,,,,,,,,,,,,,,,,,,,,,,None,,207.29530088994653,None,207.29530088994653,None,2022-07-25-14:01:52.415730,207.3056876999326,207.61124360002577,207.3056876999326,None,None,207.3056876999326,None,208.11144008971752,None,,,,21007,0001,2022_Jul_25_1358,localizer,2021.1.3,60.617375922040004,
block,scenes,scenes045.bmp,,,,,0,10,10,10,,,,,,,,,,,,,,,,,,,,,,,,,,,,,,,,,,,,,,,,,,None,,208.11144008971752,None,208.11144008971752,None,2022-07-25-14:01:53.230878,208.12183659989387,208.4277248000726,208.12183659989387,None,None,208.12183659989387,None,208.92840879010038,None,,,,21007,0001,2022_Jul_25_1358,localizer,2021.1.3,60.617375922040004,
block,scenes,scenes052.bmp,,,,,0,11,11,11,,,,,,,,,,,,,,,,,,,,,,,,,,,,,,,,,,,,,,,,,,None,,208.92840879010038,None,208.92840879010038,None,2022-07-25-14:01:54.048025,208.9389784997329,209.24474880006164,208.9389784997329,None,None,208.9389784997329,None,209.74491528999062,None,,,,21007,0001,2022_Jul_25_1358,localizer,2021.1.3,60.617375922040004,
block,scenes,scenes035.bmp,,,,,0,12,12,12,,,,,,,,,,,,,,,,,,,,,,,,,,,,,,,,,,,,,,,,,,None,,209.74491528999062,None,209.74491528999062,None,2022-07-25-14:01:54.864443,209.75503990007564,210.06197670008987,209.75503990007564,None,None,209.75503990007564,None,210.5613174901344,None,,,,21007,0001,2022_Jul_25_1358,localizer,2021.1.3,60.617375922040004,
block,scenes,scenes018.bmp,,,,,0,13,13,13,,,,,,,,,,,,,,,,,,,,,,,,,,,,,,,,,,,,,,,,,,None,,210.5613174901344,None,210.5613174901344,None,2022-07-25-14:01:55.680761,210.57077809982002,210.8780991998501,210.57077809982002,None,None,210.57077809982002,None,211.37810508972035,None,,,,21007,0001,2022_Jul_25_1358,localizer,2021.1.3,60.617375922040004,
block_end,scenes,scenes059.bmp,,,,,0,14,14,14,,,,,,,,,,,,,,,,,,,,,,,,,,,,,,,,,,,,,,,,,,None,,211.37810508972035,None,211.37810508972035,None,2022-07-25-14:01:56.497546,211.3881366001442,211.69461169978604,211.3881366001442,None,None,211.3881366001442,None,212.19502609008924,None,,,,21007,0001,2022_Jul_25_1358,localizer,2021.1.3,60.617375922040004,
block_start,scrambled,scrambled053.bmp,,,,,0,15,15,15,,,,,,,,,,,,,,,,,,,,,,,,,,,,,,,,,,,,,,,,,,t,1.7236974998377264,212.1947674001567,None,212.1947674001567,None,2022-07-25-14:01:59.063074,213.95317649981007,214.2610875000246,213.95317649981007,None,None,213.95317649981007,None,214.76165669010953,None,,,,21007,0001,2022_Jul_25_1358,localizer,2021.1.3,60.617375922040004,
block,scrambled,scrambled004.bmp,,,,,0,16,16,16,,,,,,,,,,,,,,,,,,,,,,,,,,,,,,,,,,,,,,,,,,None,,214.76165669010953,None,214.76165669010953,None,2022-07-25-14:01:59.881168,214.77177400002256,215.07772599998862,214.77177400002256,None,None,214.77177400002256,None,215.57818488981576,None,,,,21007,0001,2022_Jul_25_1358,localizer,2021.1.3,60.617375922040004,
block,scrambled,scrambled041.bmp,,,,,0,17,17,17,,,,,,,,,,,,,,,,,,,,,,,,,,,,,,,,,,,,,,,,,,None,,215.57818488981576,None,215.57818488981576,None,2022-07-25-14:02:00.696571,215.5863771000877,215.89478049986064,215.5863771000877,None,None,215.5863771000877,None,216.3844016899355,None,,,,21007,0001,2022_Jul_25_1358,localizer,2021.1.3,60.617375922040004,
block,scrambled,scrambled019.bmp,,,,,0,18,18,18,,,,,,,,,,,,,,,,,,,,,,,,,,,,,,,,,,,,,,,,,,None,,216.3844016899355,None,216.3844016899355,None,2022-07-25-14:02:01.506645,216.39819480013102,216.71763970004395,216.39819480013102,None,None,216.39819480013102,None,217.19430778985844,None,,,,21007,0001,2022_Jul_25_1358,localizer,2021.1.3,60.617375922040004,
block,scrambled,scrambled017.bmp,,,,,0,19,19,19,,,,,,,,,,,,,,,,,,,,,,,,,,,,,,,,,,,,,,,,,,None,,217.19430778985844,None,217.19430778985844,None,2022-07-25-14:02:02.313765,217.19726060004905,217.511458999943,217.19726060004905,None,None,217.19726060004905,None,218.01183098992334,None,,,,21007,0001,2022_Jul_25_1358,localizer,2021.1.3,60.617375922040004,
block,scrambled,scrambled049.bmp,,,,,0,20,20,20,,,,,,,,,,,,,,,,,,,,,,,,,,,,,,,,,,,,,,,,,,None,,218.01183098992334,None,218.01183098992334,None,2022-07-25-14:02:03.131120,218.02236519986764,218.32794900005683,218.02236519986764,None,None,218.02236519986764,None,218.82829879010097,None,,,,21007,0001,2022_Jul_25_1358,localizer,2021.1.3,60.617375922040004,
block,scrambled,scrambled052.bmp,,,,,0,21,21,21,,,,,,,,,,,,,,,,,,,,,,,,,,,,,,,,,,,,,,,,,,None,,218.82829879010097,None,218.82829879010097,None,2022-07-25-14:02:03.947608,218.83785500004888,219.1448282999918,218.83785500004888,None,None,218.83785500004888,None,219.64535059006886,None,,,,21007,0001,2022_Jul_25_1358,localizer,2021.1.3,60.617375922040004,
block,scrambled,scrambled079.bmp,,,,,0,22,22,22,,,,,,,,,,,,,,,,,,,,,,,,,,,,,,,,,,,,,,,,,,None,,219.64535059006886,None,219.64535059006886,None,2022-07-25-14:02:04.765780,219.6561292000115,219.96196549991146,219.6561292000115,None,None,219.6561292000115,None,220.46151389013977,None,,,,21007,0001,2022_Jul_25_1358,localizer,2021.1.3,60.617375922040004,
block,scrambled,scrambled027.bmp,,,,,0,23,23,23,,,,,,,,,,,,,,,,,,,,,,,,,,,,,,,,,,,,,,,,,,None,,220.46151389013977,None,220.46151389013977,None,2022-07-25-14:02:05.581088,220.4698502998799,220.7775131999515,220.4698502998799,None,None,220.4698502998799,None,221.27789329010994,None,,,,21007,0001,2022_Jul_25_1358,localizer,2021.1.3,60.617375922040004,
block,scrambled,scrambled071.bmp,,,,,0,24,24,24,,,,,,,,,,,,,,,,,,,,,,,,,,,,,,,,,,,,,,,,,,None,,221.27789329010994,None,221.27789329010994,None,2022-07-25-14:02:06.397356,221.2825134000741,221.60087569989264,221.2825134000741,None,None,221.2825134000741,None,222.0950845900923,None,,,,21007,0001,2022_Jul_25_1358,localizer,2021.1.3,60.617375922040004,
block,scrambled,scrambled042.bmp,,,,,0,25,25,25,,,,,,,,,,,,,,,,,,,,,,,,,,,,,,,,,,,,,,,,,,None,,222.0950845900923,None,222.0950845900923,None,2022-07-25-14:02:07.213826,222.1044616997242,222.4114163001068,222.1044616997242,None,None,222.1044616997242,None,222.91184128979222,None,,,,21007,0001,2022_Jul_25_1358,localizer,2021.1.3,60.617375922040004,
block,scrambled,scrambled043.bmp,,,,,0,26,26,26,,,,,,,,,,,,,,,,,,,,,,,,,,,,,,,,,,,,,,,,,,None,,222.91184128979222,None,222.91184128979222,None,2022-07-25-14:02:08.031303,222.92158719990402,223.22878560004756,222.92158719990402,None,None,222.92158719990402,None,223.71815788997338,None,,,,21007,0001,2022_Jul_25_1358,localizer,2021.1.3,60.617375922040004,
block,scrambled,scrambled076.bmp,,,,,0,27,27,27,,,,,,,,,,,,,,,,,,,,,,,,,,,,,,,,,,,,,,,,,,None,,223.71815788997338,None,223.71815788997338,None,2022-07-25-14:02:08.838230,223.72268000012264,224.02828319976106,223.72268000012264,None,None,223.72268000012264,None,224.5284981897101,None,,,,21007,0001,2022_Jul_25_1358,localizer,2021.1.3,60.617375922040004,
block,scrambled,scrambled064.bmp,,,,,0,28,28,28,,,,,,,,,,,,,,,,,,,,,,,,,,,,,,,,,,,,,,,,,,None,,224.5284981897101,None,224.5284981897101,None,2022-07-25-14:02:09.647959,224.53918229974806,224.8444572999142,224.53918229974806,None,None,224.53918229974806,None,225.34516358999537,None,,,,21007,0001,2022_Jul_25_1358,localizer,2021.1.3,60.617375922040004,
block_end,scrambled,scrambled050.bmp,,,,,0,29,29,29,,,,,,,,,,,,,,,,,,,,,,,,,,,,,,,,,,,,,,,,,,None,,225.34516358999537,None,225.34516358999537,None,2022-07-25-14:02:10.464841,225.35580819984898,225.66197119979188,225.35580819984898,None,None,225.35580819984898,None,226.1617538898252,None,,,,21007,0001,2022_Jul_25_1358,localizer,2021.1.3,60.617375922040004,
block_start,faces,faces024.bmp,,,,,0,30,30,30,,,,,,,,,,,,,,,,,,,,,,,,,,,,,,,,,,,,,,,,,,t,1.7571788998320699,226.1613273997791,None,226.1613273997791,None,2022-07-25-14:02:13.066161,227.9583899998106,228.26182339992374,227.9583899998106,None,None,227.9583899998106,None,228.7617630899884,None,,,,21007,0001,2022_Jul_25_1358,localizer,2021.1.3,60.617375922040004,
block,faces,faces068.bmp,,,,,0,31,31,31,,,,,,,,,,,,,,,,,,,,,,,,,,,,,,,,,,,,,,,,,,None,,228.7617630899884,None,228.7617630899884,None,2022-07-25-14:02:13.881235,228.7721866001375,229.07792179984972,228.7721866001375,None,None,228.7721866001375,None,229.5783231898211,None,,,,21007,0001,2022_Jul_25_1358,localizer,2021.1.3,60.617375922040004,
block,faces,faces031.bmp,,,,,0,32,32,32,,,,,,,,,,,,,,,,,,,,,,,,,,,,,,,,,,,,,,,,,,None,,229.5783231898211,None,229.5783231898211,None,2022-07-25-14:02:14.698793,229.58784990012646,229.89460030011833,229.58784990012646,None,None,229.58784990012646,None,230.39506738977508,None,,,,21007,0001,2022_Jul_25_1358,localizer,2021.1.3,60.617375922040004,
block,faces,faces071.bmp,,,,,0,33,33,33,,,,,,,,,,,,,,,,,,,,,,,,,,,,,,,,,,,,,,,,,,None,,230.39506738977508,None,230.39506738977508,None,2022-07-25-14:02:15.514674,230.4058852000162,230.71164279989898,230.4058852000162,None,None,230.4058852000162,None,231.2127883897163,None,,,,21007,0001,2022_Jul_25_1358,localizer,2021.1.3,60.617375922040004,
block,faces,faces071.bmp,,,,,0,34,34,34,,,,,,,,,,,,,,,,,,,,,,,,,,,,,,,,,,,,,,,,,,None,,231.2127883897163,None,231.2127883897163,None,2022-07-25-14:02:16.335250,231.2156234998256,231.52916930010542,231.2156234998256,None,None,231.2156234998256,None,232.0286135898903,None,,,,21007,0001,2022_Jul_25_1358,localizer,2021.1.3,60.617375922040004,
block,faces,faces011.bmp,,,,,0,35,35,35,,,,,,,,,,,,,,,,,,,,,,,,,,,,,,,,,,,,,,,,,,None,,232.0286135898903,None,232.0286135898903,None,2022-07-25-14:02:17.148296,232.03926210012287,232.34435679996386,232.03926210012287,None,None,232.03926210012287,None,232.84679499007763,None,,,,21007,0001,2022_Jul_25_1358,localizer,2021.1.3,60.617375922040004,
block,faces,faces027.bmp,,,,,0,36,36,36,,,,,,,,,,,,,,,,,,,,,,,,,,,,,,,,,,,,,,,,,,None,,232.84679499007763,None,232.84679499007763,None,2022-07-25-14:02:17.968651,232.86016799975187,233.1613465999253,232.86016799975187,None,None,232.86016799975187,None,233.6620490897447,None,,,,21007,0001,2022_Jul_25_1358,localizer,2021.1.3,60.617375922040004,
block,faces,faces087.bmp,,,,,0,37,37,37,,,,,,,,,,,,,,,,,,,,,,,,,,,,,,,,,,,,,,,,,,None,,233.6620490897447,None,233.6620490897447,None,2022-07-25-14:02:18.782722,233.67464229976758,233.9847013000399,233.67464229976758,None,None,233.67464229976758,None,234.47835798999296,None,,,,21007,0001,2022_Jul_25_1358,localizer,2021.1.3,60.617375922040004,
block,faces,faces086.bmp,,,,,0,38,38,38,,,,,,,,,,,,,,,,,,,,,,,,,,,,,,,,,,,,,,,,,,None,,234.47835798999296,None,234.47835798999296,None,2022-07-25-14:02:19.598835,234.48920529987663,234.79469479992986,234.48920529987663,None,None,234.48920529987663,None,235.29471199000255,None,,,,21007,0001,2022_Jul_25_1358,localizer,2021.1.3,60.617375922040004,
block,faces,faces025.bmp,,,,,0,39,39,39,,,,,,,,,,,,,,,,,,,,,,,,,,,,,,,,,,,,,,,,,,None,,235.29471199000255,None,235.29471199000255,None,2022-07-25-14:02:20.414348,235.2991585000418,235.6112901000306,235.2991585000418,None,None,235.2991585000418,None,236.11164709012957,None,,,,21007,0001,2022_Jul_25_1358,localizer,2021.1.3,60.617375922040004,
block,faces,faces076.bmp,,,,,0,40,40,40,,,,,,,,,,,,,,,,,,,,,,,,,,,,,,,,,,,,,,,,,,None,,236.11164709012957,None,236.11164709012957,None,2022-07-25-14:02:21.231352,236.1215019999072,236.42832239996642,236.1215019999072,None,None,236.1215019999072,None,236.9282055899501,None,,,,21007,0001,2022_Jul_25_1358,localizer,2021.1.3,60.617375922040004,
block,faces,faces049.bmp,,,,,0,41,41,41,,,,,,,,,,,,,,,,,,,,,,,,,,,,,,,,,,,,,,,,,,None,,236.9282055899501,None,236.9282055899501,None,2022-07-25-14:02:22.047690,236.93812910001725,237.24477940006182,236.93812910001725,None,None,236.93812910001725,None,237.74526218995453,None,,,,21007,0001,2022_Jul_25_1358,localizer,2021.1.3,60.617375922040004,
block,faces,faces039.bmp,,,,,0,42,42,42,,,,,,,,,,,,,,,,,,,,,,,,,,,,,,,,,,,,,,,,,,None,,237.74526218995453,None,237.74526218995453,None,2022-07-25-14:02:22.864947,237.75681489985436,238.06190880015492,237.75681489985436,None,None,237.75681489985436,None,238.56162109011785,None,,,,21007,0001,2022_Jul_25_1358,localizer,2021.1.3,60.617375922040004,
block,faces,faces089.bmp,,,,,0,43,43,43,,,,,,,,,,,,,,,,,,,,,,,,,,,,,,,,,,,,,,,,,,None,,238.56162109011785,None,238.56162109011785,None,2022-07-25-14:02:23.687402,238.57775049982592,238.8786900001578,238.57775049982592,None,None,238.57775049982592,None,239.37900888985024,None,,,,21007,0001,2022_Jul_25_1358,localizer,2021.1.3,60.617375922040004,
block_end,faces,faces019.bmp,,,,,0,44,44,44,,,,,,,,,,,,,,,,,,,,,,,,,,,,,,,,,,,,,,,,,,None,,239.37900888985024,None,239.37900888985024,None,2022-07-25-14:02:24.499656,239.39644729997963,239.71179219987243,239.39644729997963,None,None,239.39644729997963,None,240.19501268975438,None,,,,21007,0001,2022_Jul_25_1358,localizer,2021.1.3,60.617375922040004,
block_start,objects,objects029.bmp,,,,,0,45,45,45,,,,,,,,,,,,,,,,,,,,,,,,,,,,,,,,,,,,,,,,,,t,1.7237390000373125,240.19477290008217,None,240.19477290008217,None,2022-07-25-14:02:27.064264,241.95515850000083,242.26131680002436,241.95515850000083,None,None,241.95515850000083,None,242.76287909010426,None,,,,21007,0001,2022_Jul_25_1358,localizer,2021.1.3,60.617375922040004,
block,objects,objects028.bmp,,,,,0,46,46,46,,,,,,,,,,,,,,,,,,,,,,,,,,,,,,,,,,,,,,,,,,None,,242.76287909010426,None,242.76287909010426,None,2022-07-25-14:02:27.884412,242.7769347000867,243.0778314000927,242.7769347000867,None,None,242.7769347000867,None,243.58043728973718,None,,,,21007,0001,2022_Jul_25_1358,localizer,2021.1.3,60.617375922040004,
block,objects,objects018.bmp,,,,,0,47,47,47,,,,,,,,,,,,,,,,,,,,,,,,,,,,,,,,,,,,,,,,,,None,,243.58043728973718,None,243.58043728973718,None,2022-07-25-14:02:28.703943,243.5960506000556,243.91107100015506,243.5960506000556,None,None,243.5960506000556,None,244.3956114898436,None,,,,21007,0001,2022_Jul_25_1358,localizer,2021.1.3,60.617375922040004,
block,objects,objects069.bmp,,,,,0,48,48,48,,,,,,,,,,,,,,,,,,,,,,,,,,,,,,,,,,,,,,,,,,None,,244.3956114898436,None,244.3956114898436,None,2022-07-25-14:02:29.516116,244.40702529996634,244.71130040008575,244.40702529996634,None,None,244.40702529996634,None,245.2010231900029,None,,,,21007,0001,2022_Jul_25_1358,localizer,2021.1.3,60.617375922040004,
block,objects,objects007.bmp,,,,,0,49,49,49,,,,,,,,,,,,,,,,,,,,,,,,,,,,,,,,,,,,,,,,,,None,,245.2010231900029,None,245.2010231900029,None,2022-07-25-14:02:30.323509,245.21496309991926,245.5277889999561,245.21496309991926,None,None,245.21496309991926,None,246.01199268987403,None,,,,21007,0001,2022_Jul_25_1358,localizer,2021.1.3,60.617375922040004,
block,objects,objects052.bmp,,,,,0,50,50,50,,,,,,,,,,,,,,,,,,,,,,,,,,,,,,,,,,,,,,,,,,None,,246.01199268987403,None,246.01199268987403,None,2022-07-25-14:02:31.132550,246.02266300003976,246.32801269972697,246.02266300003976,None,None,246.02266300003976,None,246.8284549901262,None,,,,21007,0001,2022_Jul_25_1358,localizer,2021.1.3,60.617375922040004,
block,objects,objects023.bmp,,,,,0,51,51,51,,,,,,,,,,,,,,,,,,,,,,,,,,,,,,,,,,,,,,,,,,None,,246.8284549901262,None,246.8284549901262,None,2022-07-25-14:02:31.948166,246.8383618001826,247.14476870000362,246.8383618001826,None,None,246.8383618001826,None,247.64505868982525,None,,,,21007,0001,2022_Jul_25_1358,localizer,2021.1.3,60.617375922040004,
block,objects,objects048.bmp,,,,,0,52,52,52,,,,,,,,,,,,,,,,,,,,,,,,,,,,,,,,,,,,,,,,,,None,,247.64505868982525,None,247.64505868982525,None,2022-07-25-14:02:32.764767,247.65590489981696,247.96118640014902,247.65590489981696,None,None,247.65590489981696,None,248.46171889007093,None,,,,21007,0001,2022_Jul_25_1358,localizer,2021.1.3,60.617375922040004,
block,objects,objects043.bmp,,,,,0,53,53,53,,,,,,,,,,,,,,,,,,,,,,,,,,,,,,,,,,,,,,,,,,None,,248.46171889007093,None,248.46171889007093,None,2022-07-25-14:02:33.581444,248.47149509983137,248.77826090017334,248.47149509983137,None,None,248.47149509983137,None,249.27852498991416,None,,,,21007,0001,2022_Jul_25_1358,localizer,2021.1.3,60.617375922040004,
block,objects,objects050.bmp,,,,,0,54,54,54,,,,,,,,,,,,,,,,,,,,,,,,,,,,,,,,,,,,,,,,,,None,,249.27852498991416,None,249.27852498991416,None,2022-07-25-14:02:34.398008,249.28924460010603,249.59468049975112,249.28924460010603,None,None,249.28924460010603,None,250.09477398982273,None,,,,21007,0001,2022_Jul_25_1358,localizer,2021.1.3,60.617375922040004,
block,objects,objects075.bmp,,,,,0,55,55,55,,,,,,,,,,,,,,,,,,,,,,,,,,,,,,,,,,,,,,,,,,None,,250.09477398982273,None,250.09477398982273,None,2022-07-25-14:02:35.214282,250.1033344999887,250.4109367998317,250.1033344999887,None,None,250.1033344999887,None,250.91193988984452,None,,,,21007,0001,2022_Jul_25_1358,localizer,2021.1.3,60.617375922040004,
block,objects,objects066.bmp,,,,,0,56,56,56,,,,,,,,,,,,,,,,,,,,,,,,,,,,,,,,,,,,,,,,,,None,,250.91193988984452,None,250.91193988984452,None,2022-07-25-14:02:36.031654,250.922538400162,251.227993699722,250.922538400162,None,None,250.922538400162,None,251.72837439011784,None,,,,21007,0001,2022_Jul_25_1358,localizer,2021.1.3,60.617375922040004,
block,objects,objects074.bmp,,,,,0,57,57,57,,,,,,,,,,,,,,,,,,,,,,,,,,,,,,,,,,,,,,,,,,None,,251.72837439011784,None,251.72837439011784,None,2022-07-25-14:02:36.847883,251.73832960007712,252.0444705998525,251.73832960007712,None,None,251.73832960007712,None,252.54569178977982,None,,,,21007,0001,2022_Jul_25_1358,localizer,2021.1.3,60.617375922040004,
block,objects,objects026.bmp,,,,,0,58,58,58,,,,,,,,,,,,,,,,,,,,,,,,,,,,,,,,,,,,,,,,,,None,,252.54569178977982,None,252.54569178977982,None,2022-07-25-14:02:37.666392,252.55694840010256,252.8628575000912,252.55694840010256,None,None,252.55694840010256,None,253.36788048986347,None,,,,21007,0001,2022_Jul_25_1358,localizer,2021.1.3,60.617375922040004,
block_end,objects,objects010.bmp,,,,,0,59,59,59,,,,,,,,,,,,,,,,,,,,,,,,,,,,,,,,,,,,,,,,,,None,,253.36788048986347,None,253.36788048986347,None,2022-07-25-14:02:38.494185,253.3900036998093,253.69965159986168,253.3900036998093,None,None,253.3900036998093,None,254.17813908979298,None,,,,21007,0001,2022_Jul_25_1358,localizer,2021.1.3,60.617375922040004,
null_block,null_block,null_block.bmp,,,,,0,60,60,60,,,,,,,,,,,,,,,,,,,,,,,,,,,,,,,,,,,,,,,,,,t,1.7406302001327276,254.17777079995722,None,254.17777079995722,None,2022-07-25-14:02:41.063353,255.96170188011604,None,255.96170188011604,None,None,255.96170188011604,None,255.95829770015553,None,,,,21007,0001,2022_Jul_25_1358,localizer,2021.1.3,60.617375922040004,
null_block,null_block,null_block.bmp,,,,,0,61,61,61,,,,,,,,,,,,,,,,,,,,,,,,,,,,,,,,,,,,,,,,,,t,1.9569489997811615,267.9614030001685,None,267.9614030001685,None,2022-07-25-14:02:55.065140,269.9446685898118,None,269.9446685898118,None,None,269.9446685898118,None,269.9481453001499,None,,,,21007,0001,2022_Jul_25_1358,localizer,2021.1.3,60.617375922040004,
block_start,scenes,scenes025.bmp,,,,,0,62,62,62,,,,,,,,,,,,,,,,,,,,,,,,,,,,,,,,,,,,,,,,,,t,1.956484000198543,281.9618242997676,None,281.9618242997676,None,2022-07-25-14:03:09.066427,283.96104079997167,284.26160679990426,283.96104079997167,None,None,283.96104079997167,None,284.76244778996335,None,,,,21007,0001,2022_Jul_25_1358,localizer,2021.1.3,60.617375922040004,
block,scenes,scenes050.bmp,,,,,0,63,63,63,,,,,,,,,,,,,,,,,,,,,,,,,,,,,,,,,,,,,,,,,,None,,284.76244778996335,None,284.76244778996335,None,2022-07-25-14:03:09.883157,284.7744955001399,285.0780982999131,284.7744955001399,None,None,284.7744955001399,None,285.57850748971106,None,,,,21007,0001,2022_Jul_25_1358,localizer,2021.1.3,60.617375922040004,
block,scenes,scenes006.bmp,,,,,0,64,64,64,,,,,,,,,,,,,,,,,,,,,,,,,,,,,,,,,,,,,,,,,,None,,285.57850748971106,None,285.57850748971106,None,2022-07-25-14:03:10.698064,285.58885029982775,285.89478940004483,285.58885029982775,None,None,285.58885029982775,None,286.3950804897584,None,,,,21007,0001,2022_Jul_25_1358,localizer,2021.1.3,60.617375922040004,
block,scenes,scenes035.bmp,,,,,0,65,65,65,,,,,,,,,,,,,,,,,,,,,,,,,,,,,,,,,,,,,,,,,,None,,286.3950804897584,None,286.3950804897584,None,2022-07-25-14:03:11.514641,286.39593489980325,286.6951989000663,286.39593489980325,None,None,286.39593489980325,None,287.1957242900506,None,,,,21007,0001,2022_Jul_25_1358,localizer,2021.1.3,60.617375922040004,
block,scenes,scenes026.bmp,,,,,0,66,66,66,,,,,,,,,,,,,,,,,,,,,,,,,,,,,,,,,,,,,,,,,,None,,287.1957242900506,None,287.1957242900506,None,2022-07-25-14:03:12.318431,287.21102070016786,287.5113753997721,287.21102070016786,287.21102070016786,None,287.21102070016786,287.21102070016786,288.01154788974674,None,,,,21007,0001,2022_Jul_25_1358,localizer,2021.1.3,60.617375922040004,
block,scenes,scenes065.bmp,,,,,0,67,67,67,,,,,,,,,,,,,,,,,,,,,,,,,,,,,,,,,,,,,,,,,,None,,288.01154788974674,None,288.01154788974674,None,2022-07-25-14:03:13.131113,288.02006880007684,288.32897499995306,288.02006880007684,None,None,288.02006880007684,None,288.8288548897952,None,,,,21007,0001,2022_Jul_25_1358,localizer,2021.1.3,60.617375922040004,
block,scenes,scenes090.bmp,,,,,0,68,68,68,,,,,,,,,,,,,,,,,,,,,,,,,,,,,,,,,,,,,,,,,,None,,288.8288548897952,None,288.8288548897952,None,2022-07-25-14:03:13.948752,288.8405062998645,289.14481130009517,288.8405062998645,None,None,288.8405062998645,None,289.64546198975296,None,,,,21007,0001,2022_Jul_25_1358,localizer,2021.1.3,60.617375922040004,
block,scenes,scenes047.bmp,,,,,0,69,69,69,,,,,,,,,,,,,,,,,,,,,,,,,,,,,,,,,,,,,,,,,,None,,289.64546198975296,None,289.64546198975296,None,2022-07-25-14:03:14.765003,289.6555013000034,289.9612059998326,289.6555013000034,None,None,289.6555013000034,None,290.46188428970055,None,,,,21007,0001,2022_Jul_25_1358,localizer,2021.1.3,60.617375922040004,
block,scenes,scenes005.bmp,,,,,0,70,70,70,,,,,,,,,,,,,,,,,,,,,,,,,,,,,,,,,,,,,,,,,,None,,290.46188428970055,None,290.46188428970055,None,2022-07-25-14:03:15.581454,290.4679108001292,290.7784925997257,290.4679108001292,None,None,290.4679108001292,None,291.2787671901286,None,,,,21007,0001,2022_Jul_25_1358,localizer,2021.1.3,60.617375922040004,
block,scenes,scenes027.bmp,,,,,0,71,71,71,,,,,,,,,,,,,,,,,,,,,,,,,,,,,,,,,,,,,,,,,,None,,291.2787671901286,None,291.2787671901286,None,2022-07-25-14:03:16.398572,291.2795039997436,291.57851839996874,291.2795039997436,None,None,291.2795039997436,None,292.07876678993927,None,,,,21007,0001,2022_Jul_25_1358,localizer,2021.1.3,60.617375922040004,
block,scenes,scenes015.bmp,,,,,0,72,72,72,,,,,,,,,,,,,,,,,,,,,,,,,,,,,,,,,,,,,,,,,,None,,292.07876678993927,None,292.07876678993927,None,2022-07-25-14:03:17.200551,292.08069660002366,292.3952367999591,292.08069660002366,292.08069660002366,None,292.08069660002366,292.08069660002366,292.9014216900803,None,,,,21007,0001,2022_Jul_25_1358,localizer,2021.1.3,60.617375922040004,
block,scenes,scenes078.bmp,,,,,0,73,73,73,,,,,,,,,,,,,,,,,,,,,,,,,,,,,,,,,,,,,,,,,,None,,292.9014216900803,None,292.9014216900803,None,2022-07-25-14:03:18.027747,292.91655489988625,293.2283191997558,292.91655489988625,None,None,292.91655489988625,None,293.712057090085,None,,,,21007,0001,2022_Jul_25_1358,localizer,2021.1.3,60.617375922040004,
block,scenes,scenes067.bmp,,,,,0,74,74,74,,,,,,,,,,,,,,,,,,,,,,,,,,,,,,,,,,,,,,,,,,None,,293.712057090085,None,293.712057090085,None,2022-07-25-14:03:18.832569,293.72290109982714,294.02793119987473,293.72290109982714,None,None,293.72290109982714,None,294.528732990101,None,,,,21007,0001,2022_Jul_25_1358,localizer,2021.1.3,60.617375922040004,
block,scenes,scenes071.bmp,,,,,0,75,75,75,,,,,,,,,,,,,,,,,,,,,,,,,,,,,,,,,,,,,,,,,,None,,294.528732990101,None,294.528732990101,None,2022-07-25-14:03:19.648384,294.5385465999134,294.8449474000372,294.5385465999134,None,None,294.5385465999134,None,295.3453842901625,None,,,,21007,0001,2022_Jul_25_1358,localizer,2021.1.3,60.617375922040004,
block_end,scenes,scenes056.bmp,,,,,0,76,76,76,,,,,,,,,,,,,,,,,,,,,,,,,,,,,,,,,,,,,,,,,,None,,295.3453842901625,None,295.3453842901625,None,2022-07-25-14:03:20.465070,295.3557568001561,295.66152419988066,295.3557568001561,None,None,295.3557568001561,None,296.1620562897995,None,,,,21007,0001,2022_Jul_25_1358,localizer,2021.1.3,60.617375922040004,
block_start,faces,faces082.bmp,,,,,0,77,77,77,,,,,,,,,,,,,,,,,,,,,,,,,,,,,,,,,,,,,,,,,,t,1.7564930999651551,296.1617827001028,None,296.1617827001028,None,2022-07-25-14:03:23.065260,297.95655009988695,298.2614151998423,297.95655009988695,None,None,297.95655009988695,None,298.7621797897853,None,,,,21007,0001,2022_Jul_25_1358,localizer,2021.1.3,60.617375922040004,
block,faces,faces060.bmp,,,,,0,78,78,78,,,,,,,,,,,,,,,,,,,,,,,,,,,,,,,,,,,,,,,,,,None,,298.7621797897853,None,298.7621797897853,None,2022-07-25-14:03:23.881832,298.77292109979317,299.07847760012373,298.77292109979317,None,None,298.77292109979317,None,299.5789338901639,None,,,,21007,0001,2022_Jul_25_1358,localizer,2021.1.3,60.617375922040004,
block,faces,faces026.bmp,,,,,0,79,79,79,,,,,,,,,,,,,,,,,,,,,,,,,,,,,,,,,,,,,,,,,,None,,299.5789338901639,None,299.5789338901639,None,2022-07-25-14:03:24.699662,299.6175915999338,299.9284856999293,299.6175915999338,None,None,299.6175915999338,None,300.39556648973377,None,,,,21007,0001,2022_Jul_25_1358,localizer,2021.1.3,60.617375922040004,
block,faces,faces027.bmp,,,,,0,80,80,80,,,,,,,,,,,,,,,,,,,,,,,,,,,,,,,,,,,,,,,,,,None,,300.39556648973377,None,300.39556648973377,None,2022-07-25-14:03:25.515451,300.3960143998265,300.6952014998533,300.3960143998265,None,None,300.3960143998265,None,301.1951378897764,None,,,,21007,0001,2022_Jul_25_1358,localizer,2021.1.3,60.617375922040004,
block,faces,faces073.bmp,,,,,0,81,81,81,,,,,,,,,,,,,,,,,,,,,,,,,,,,,,,,,,,,,,,,,,None,,301.1951378897764,None,301.1951378897764,None,2022-07-25-14:03:26.316927,301.20504850009456,301.51155219972134,301.20504850009456,301.20504850009456,None,301.20504850009456,301.20504850009456,302.01193828992547,None,,,,21007,0001,2022_Jul_25_1358,localizer,2021.1.3,60.617375922040004,
block,faces,faces031.bmp,,,,,0,82,82,82,,,,,,,,,,,,,,,,,,,,,,,,,,,,,,,,,,,,,,,,,,None,,302.01193828992547,None,302.01193828992547,None,2022-07-25-14:03:27.131746,302.0125843998976,302.3116723001003,302.0125843998976,None,None,302.0125843998976,None,302.8120293898508,None,,,,21007,0001,2022_Jul_25_1358,localizer,2021.1.3,60.617375922040004,
block,faces,faces034.bmp,,,,,0,83,83,83,,,,,,,,,,,,,,,,,,,,,,,,,,,,,,,,,,,,,,,,,,None,,302.8120293898508,None,302.8120293898508,None,2022-07-25-14:03:27.933120,302.8239246997982,303.1284884000197,302.8239246997982,302.8239246997982,None,302.8239246997982,302.8239246997982,303.62887079007925,None,,,,21007,0001,2022_Jul_25_1358,localizer,2021.1.3,60.617375922040004,
block,faces,faces066.bmp,,,,,0,84,84,84,,,,,,,,,,,,,,,,,,,,,,,,,,,,,,,,,,,,,,,,,,None,,303.62887079007925,None,303.62887079007925,None,2022-07-25-14:03:28.748648,303.6405917000957,303.94570280006155,303.6405917000957,None,None,303.6405917000957,None,304.4475401897915,None,,,,21007,0001,2022_Jul_25_1358,localizer,2021.1.3,60.617375922040004,
block,faces,faces032.bmp,,,,,0,85,85,85,,,,,,,,,,,,,,,,,,,,,,,,,,,,,,,,,,,,,,,,,,None,,304.4475401897915,None,304.4475401897915,None,2022-07-25-14:03:29.572393,304.45641000010073,304.7623180998489,304.45641000010073,None,None,304.45641000010073,None,305.2625281901099,None,,,,21007,0001,2022_Jul_25_1358,localizer,2021.1.3,60.617375922040004,
block,faces,faces039.bmp,,,,,0,86,86,86,,,,,,,,,,,,,,,,,,,,,,,,,,,,,,,,,,,,,,,,,,None,,305.2625281901099,None,305.2625281901099,None,2022-07-25-14:03:30.383410,305.26316089974716,305.5784195000306,305.26316089974716,None,None,305.26316089974716,None,306.0786382897757,None,,,,21007,0001,2022_Jul_25_1358,localizer,2021.1.3,60.617375922040004,
block,faces,faces011.bmp,,,,,0,87,87,87,,,,,,,,,,,,,,,,,,,,,,,,,,,,,,,,,,,,,,,,,,None,,306.0786382897757,None,306.0786382897757,None,2022-07-25-14:03:31.198531,306.0793503001332,306.3783550001681,306.0793503001332,None,None,306.0793503001332,None,306.87999038975687,None,,,,21007,0001,2022_Jul_25_1358,localizer,2021.1.3,60.617375922040004,
block,faces,faces020.bmp,,,,,0,88,88,88,,,,,,,,,,,,,,,,,,,,,,,,,,,,,,,,,,,,,,,,,,None,,306.87999038975687,None,306.87999038975687,None,2022-07-25-14:03:32.011902,306.901343899779,307.212435899768,306.901343899779,306.901343899779,None,306.901343899779,306.901343899779,307.69593388978393,None,,,,21007,0001,2022_Jul_25_1358,localizer,2021.1.3,60.617375922040004,
block,faces,faces006.bmp,,,,,0,89,89,89,,,,,,,,,,,,,,,,,,,,,,,,,,,,,,,,,,,,,,,,,,None,,307.69593388978393,None,307.69593388978393,None,2022-07-25-14:03:32.816989,307.7072824998759,308.01181000005454,307.7072824998759,None,None,307.7072824998759,None,308.5122472897172,None,,,,21007,0001,2022_Jul_25_1358,localizer,2021.1.3,60.617375922040004,
block,faces,faces017.bmp,,,,,0,90,90,90,,,,,,,,,,,,,,,,,,,,,,,,,,,,,,,,,,,,,,,,,,None,,308.5122472897172,None,308.5122472897172,None,2022-07-25-14:03:33.633389,308.5194776998833,308.82850589975715,308.5194776998833,None,None,308.5194776998833,None,309.3283651901409,None,,,,21007,0001,2022_Jul_25_1358,localizer,2021.1.3,60.617375922040004,
block_end,faces,faces087.bmp,,,,,0,91,91,91,,,,,,,,,,,,,,,,,,,,,,,,,,,,,,,,,,,,,,,,,,None,,309.3283651901409,None,309.3283651901409,None,2022-07-25-14:03:34.448957,309.32939019985497,309.6449388000183,309.32939019985497,None,None,309.32939019985497,None,310.128454290051,None,,,,21007,0001,2022_Jul_25_1358,localizer,2021.1.3,60.617375922040004,
block_start,objects,objects041.bmp,,,,,0,92,92,92,,,,,,,,,,,,,,,,,,,,,,,,,,,,,,,,,,,,,,,,,,t,1.7903688000515103,310.1279494999908,None,310.1279494999908,None,2022-07-25-14:03:37.064180,311.95295719988644,312.2620617998764,311.95295719988644,None,None,311.95295719988644,None,312.76214979002253,None,,,,21007,0001,2022_Jul_25_1358,localizer,2021.1.3,60.617375922040004,
block,objects,objects059.bmp,,,,,0,93,93,93,,,,,,,,,,,,,,,,,,,,,,,,,,,,,,,,,,,,,,,,,,None,,312.76214979002253,None,312.76214979002253,None,2022-07-25-14:03:37.882277,312.7730327998288,313.07827379973605,312.7730327998288,None,None,312.7730327998288,None,313.57878089016305,None,,,,21007,0001,2022_Jul_25_1358,localizer,2021.1.3,60.617375922040004,
block,objects,objects069.bmp,,,,,0,94,94,94,,,,,,,,,,,,,,,,,,,,,,,,,,,,,,,,,,,,,,,,,,None,,313.57878089016305,None,313.57878089016305,None,2022-07-25-14:03:38.698967,313.57949850009754,313.8946318998933,313.57949850009754,None,None,313.57949850009754,None,314.38255418995396,None,,,,21007,0001,2022_Jul_25_1358,localizer,2021.1.3,60.617375922040004,
block,objects,objects008.bmp,,,,,0,95,95,95,,,,,,,,,,,,,,,,,,,,,,,,,,,,,,,,,,,,,,,,,,None,,314.38255418995396,None,314.38255418995396,None,2022-07-25-14:03:39.511920,314.40191299980506,314.71183060016483,314.40191299980506,314.40191299980506,None,314.40191299980506,314.40191299980506,315.1954230900854,None,,,,21007,0001,2022_Jul_25_1358,localizer,2021.1.3,60.617375922040004,
block,objects,objects045.bmp,,,,,0,96,96,96,,,,,,,,,,,,,,,,,,,,,,,,,,,,,,,,,,,,,,,,,,None,,315.1954230900854,None,315.1954230900854,None,2022-07-25-14:03:40.316699,315.20723300008103,315.51247589988634,315.20723300008103,None,None,315.20723300008103,None,316.01182428998874,None,,,,21007,0001,2022_Jul_25_1358,localizer,2021.1.3,60.617375922040004,
block,objects,objects052.bmp,,,,,0,97,97,97,,,,,,,,,,,,,,,,,,,,,,,,,,,,,,,,,,,,,,,,,,None,,316.01182428998874,None,316.01182428998874,None,2022-07-25-14:03:41.131919,316.0128415999934,316.3117734999396,316.0128415999934,None,None,316.0128415999934,None,316.81264288974927,None,,,,21007,0001,2022_Jul_25_1358,localizer,2021.1.3,60.617375922040004,
block,objects,objects020.bmp,,,,,0,98,98,98,,,,,,,,,,,,,,,,,,,,,,,,,,,,,,,,,,,,,,,,,,None,,316.81264288974927,None,316.81264288974927,None,2022-07-25-14:03:41.935763,316.8256612997502,317.1284289001487,316.8256612997502,316.8256612997502,None,316.8256612997502,316.8256612997502,317.6290092898533,None,,,,21007,0001,2022_Jul_25_1358,localizer,2021.1.3,60.617375922040004,
block,objects,objects026.bmp,,,,,0,99,99,99,,,,,,,,,,,,,,,,,,,,,,,,,,,,,,,,,,,,,,,,,,None,,317.6290092898533,None,317.6290092898533,None,2022-07-25-14:03:42.749131,317.6295107998885,317.9318415001035,317.6295107998885,None,None,317.6295107998885,None,318.445153389778,None,,,,21007,0001,2022_Jul_25_1358,localizer,2021.1.3,60.617375922040004,
block,objects,objects064.bmp,,,,,0,100,100,100,,,,,,,,,,,,,,,,,,,,,,,,,,,,,,,,,,,,,,,,,,None,,318.445153389778,None,318.445153389778,None,2022-07-25-14:03:43.565753,318.4542847997509,318.7620215998031,318.4542847997509,None,None,318.4542847997509,None,319.26220168983565,None,,,,21007,0001,2022_Jul_25_1358,localizer,2021.1.3,60.617375922040004,
block,objects,objects028.bmp,,,,,0,101,101,101,,,,,,,,,,,,,,,,,,,,,,,,,,,,,,,,,,,,,,,,,,None,,319.26220168983565,None,319.26220168983565,None,2022-07-25-14:03:44.382368,319.2628091997467,319.578398199752,319.2628091997467,None,None,319.2628091997467,None,320.06269639004023,None,,,,21007,0001,2022_Jul_25_1358,localizer,2021.1.3,60.617375922040004,
block,objects,objects024.bmp,,,,,0,102,102,102,,,,,,,,,,,,,,,,,,,,,,,,,,,,,,,,,,,,,,,,,,None,,320.06269639004023,None,320.06269639004023,None,2022-07-25-14:03:45.186046,320.075164699927,320.38236449984834,320.075164699927,320.075164699927,None,320.075164699927,320.075164699927,320.8789970899932,None,,,,21007,0001,2022_Jul_25_1358,localizer,2021.1.3,60.617375922040004,
block,objects,objects043.bmp,,,,,0,103,103,103,,,,,,,,,,,,,,,,,,,,,,,,,,,,,,,,,,,,,,,,,,None,,320.8789970899932,None,320.8789970899932,None,2022-07-25-14:03:46.000180,320.87960049975663,321.1787860998884,320.87960049975663,None,None,320.87960049975663,None,321.6950799899176,None,,,,21007,0001,2022_Jul_25_1358,localizer,2021.1.3,60.617375922040004,
block,objects,objects065.bmp,,,,,0,104,104,104,,,,,,,,,,,,,,,,,,,,,,,,,,,,,,,,,,,,,,,,,,None,,321.6950799899176,None,321.6950799899176,None,2022-07-25-14:03:46.815521,321.70423740008846,322.01181819988415,321.70423740008846,None,None,321.70423740008846,None,322.51205839002506,None,,,,21007,0001,2022_Jul_25_1358,localizer,2021.1.3,60.617375922040004,
block,objects,objects085.bmp,,,,,0,105,105,105,,,,,,,,,,,,,,,,,,,,,,,,,,,,,,,,,,,,,,,,,,None,,322.51205839002506,None,322.51205839002506,None,2022-07-25-14:03:47.632287,322.5220733000897,322.82844429975376,322.5220733000897,None,None,322.5220733000897,None,323.3289503899403,None,,,,21007,0001,2022_Jul_25_1358,localizer,2021.1.3,60.617375922040004,
block_end,objects,objects074.bmp,,,,,0,106,106,106,,,,,,,,,,,,,,,,,,,,,,,,,,,,,,,,,,,,,,,,,,None,,323.3289503899403,None,323.3289503899403,None,2022-07-25-14:03:48.450186,323.32946120016277,323.62841859972104,323.32946120016277,None,None,323.32946120016277,None,324.1290016897954,None,,,,21007,0001,2022_Jul_25_1358,localizer,2021.1.3,60.617375922040004,
block_start,scrambled,scrambled036.bmp,,,,,0,107,107,107,,,,,,,,,,,,,,,,,,,,,,,,,,,,,,,,,,,,,,,,,,t,1.789582199882716,324.12871930003166,None,324.12871930003166,None,2022-07-25-14:03:51.064712,325.94894899986684,326.26170000014827,325.94894899986684,None,None,325.94894899986684,None,326.7622671897523,None,,,,21007,0001,2022_Jul_25_1358,localizer,2021.1.3,60.617375922040004,
block,scrambled,scrambled049.bmp,,,,,0,108,108,108,,,,,,,,,,,,,,,,,,,,,,,,,,,,,,,,,,,,,,,,,,None,,326.7622671897523,None,326.7622671897523,None,2022-07-25-14:03:51.882581,326.76278269989416,327.06516959983855,326.76278269989416,None,None,326.76278269989416,None,327.56247118972243,None,,,,21007,0001,2022_Jul_25_1358,localizer,2021.1.3,60.617375922040004,
block,scrambled,scrambled043.bmp,,,,,0,109,109,109,,,,,,,,,,,,,,,,,,,,,,,,,,,,,,,,,,,,,,,,,,None,,327.56247118972243,None,327.56247118972243,None,2022-07-25-14:03:52.685991,327.56511530000716,327.8784639001824,327.56511530000716,327.56511530000716,None,327.56511530000716,327.56511530000716,328.37854108978064,None,,,,21007,0001,2022_Jul_25_1358,localizer,2021.1.3,60.617375922040004,
block,scrambled,scrambled043.bmp,,,,,0,110,110,110,,,,,,,,,,,,,,,,,,,,,,,,,,,,,,,,,,,,,,,,,,None,,328.37854108978064,None,328.37854108978064,None,2022-07-25-14:03:53.498895,328.3791764001362,328.67833029991016,328.3791764001362,None,None,328.3791764001362,None,329.1789781900123,None,,,,21007,0001,2022_Jul_25_1358,localizer,2021.1.3,60.617375922040004,
block,scrambled,scrambled020.bmp,,,,,0,111,111,111,,,,,,,,,,,,,,,,,,,,,,,,,,,,,,,,,,,,,,,,,,None,,329.1789781900123,None,329.1789781900123,None,2022-07-25-14:03:54.301214,329.19056469993666,329.4951029000804,329.19056469993666,329.19056469993666,None,329.19056469993666,329.19056469993666,329.9953126899898,None,,,,21007,0001,2022_Jul_25_1358,localizer,2021.1.3,60.617375922040004,
block,scrambled,scrambled013.bmp,,,,,0,112,112,112,,,,,,,,,,,,,,,,,,,,,,,,,,,,,,,,,,,,,,,,,,None,,329.9953126899898,None,329.9953126899898,None,2022-07-25-14:03:55.115700,330.0045480998233,330.3118191999383,330.0045480998233,None,None,330.0045480998233,None,330.81200978970156,None,,,,21007,0001,2022_Jul_25_1358,localizer,2021.1.3,60.617375922040004,
block,scrambled,scrambled007.bmp,,,,,0,113,113,113,,,,,,,,,,,,,,,,,,,,,,,,,,,,,,,,,,,,,,,,,,None,,330.81200978970156,None,330.81200978970156,None,2022-07-25-14:03:55.933008,330.82041459996253,331.12846359983087,330.82041459996253,None,None,330.82041459996253,None,331.62909398991616,None,,,,21007,0001,2022_Jul_25_1358,localizer,2021.1.3,60.617375922040004,
block,scrambled,scrambled047.bmp,,,,,0,114,114,114,,,,,,,,,,,,,,,,,,,,,,,,,,,,,,,,,,,,,,,,,,None,,331.62909398991616,None,331.62909398991616,None,2022-07-25-14:03:56.749710,331.63966970006004,331.94480779999867,331.63966970006004,None,None,331.63966970006004,None,332.4451637898572,None,,,,21007,0001,2022_Jul_25_1358,localizer,2021.1.3,60.617375922040004,
block,scrambled,scrambled072.bmp,,,,,0,115,115,115,,,,,,,,,,,,,,,,,,,,,,,,,,,,,,,,,,,,,,,,,,None,,332.4451637898572,None,332.4451637898572,None,2022-07-25-14:03:57.565602,332.45363460015506,332.7619328000583,332.45363460015506,None,None,332.45363460015506,None,333.26328698983417,None,,,,21007,0001,2022_Jul_25_1358,localizer,2021.1.3,60.617375922040004,
block,scrambled,scrambled071.bmp,,,,,0,116,116,116,,,,,,,,,,,,,,,,,,,,,,,,,,,,,,,,,,,,,,,,,,None,,333.26328698983417,None,333.26328698983417,None,2022-07-25-14:03:58.384866,333.2652698000893,333.5784876998514,333.2652698000893,None,None,333.2652698000893,None,334.0787064900622,None,,,,21007,0001,2022_Jul_25_1358,localizer,2021.1.3,60.617375922040004,
block,scrambled,scrambled069.bmp,,,,,0,117,117,117,,,,,,,,,,,,,,,,,,,,,,,,,,,,,,,,,,,,,,,,,,None,,334.0787064900622,None,334.0787064900622,None,2022-07-25-14:03:59.199174,334.08867619978264,334.3989645000547,334.08867619978264,None,None,334.08867619978264,None,334.8968747898005,None,,,,21007,0001,2022_Jul_25_1358,localizer,2021.1.3,60.617375922040004,
block,scrambled,scrambled039.bmp,,,,,0,118,118,118,,,,,,,,,,,,,,,,,,,,,,,,,,,,,,,,,,,,,,,,,,None,,334.8968747898005,None,334.8968747898005,None,2022-07-25-14:04:00.016511,334.9025738998316,335.2114299000241,334.9025738998316,None,None,334.9025738998316,None,335.71139168990777,None,,,,21007,0001,2022_Jul_25_1358,localizer,2021.1.3,60.617375922040004,
block,scrambled,scrambled001.bmp,,,,,0,119,119,119,,,,,,,,,,,,,,,,,,,,,,,,,,,,,,,,,,,,,,,,,,None,,335.71139168990777,None,335.71139168990777,None,2022-07-25-14:04:00.830747,335.71587949991226,336.02806739974767,335.71587949991226,None,None,335.71587949991226,None,336.52882768977435,None,,,,21007,0001,2022_Jul_25_1358,localizer,2021.1.3,60.617375922040004,
block,scrambled,scrambled068.bmp,,,,,0,120,120,120,,,,,,,,,,,,,,,,,,,,,,,,,,,,,,,,,,,,,,,,,,None,,336.52882768977435,None,336.52882768977435,None,2022-07-25-14:04:01.649514,336.5396941998042,336.8453409001231,336.5396941998042,None,None,336.5396941998042,None,337.3457883900963,None,,,,21007,0001,2022_Jul_25_1358,localizer,2021.1.3,60.617375922040004,
block_end,scrambled,scrambled078.bmp,,,,,0,121,121,121,,,,,,,,,,,,,,,,,,,,,,,,,,,,,,,,,,,,,,,,,,None,,337.3457883900963,None,337.3457883900963,None,2022-07-25-14:04:02.467315,337.35644239978865,337.6682829000056,337.35644239978865,None,None,337.35644239978865,None,338.16258528986947,None,,,,21007,0001,2022_Jul_25_1358,localizer,2021.1.3,60.617375922040004,
null_block,null_block,null_block.bmp,,,,,0,122,122,122,,,,,,,,,,,,,,,,,,,,,,,,,,,,,,,,,,,,,,,,,,t,1.755044899880886,338.16210540011525,None,338.16210540011525,None,2022-07-25-14:04:05.065147,339.94548269007356,None,339.94548269007356,None,None,339.94548269007356,None,339.9479514998384,None,,,,21007,0001,2022_Jul_25_1358,localizer,2021.1.3,60.617375922040004,
block_start,scrambled,scrambled020.bmp,,,,,0,123,123,123,,,,,,,,,,,,,,,,,,,,,,,,,,,,,,,,,,,,,,,,,,t,1.9697706000879407,351.9473580997437,None,351.9473580997437,None,2022-07-25-14:04:19.066709,353.9462852999568,354.2454254999757,353.9462852999568,None,None,353.9462852999568,None,354.7457674897276,None,,,,21007,0001,2022_Jul_25_1358,localizer,2021.1.3,60.617375922040004,
block,scrambled,scrambled076.bmp,,,,,0,124,124,124,,,,,,,,,,,,,,,,,,,,,,,,,,,,,,,,,,,,,,,,,,None,,354.7457674897276,None,354.7457674897276,None,2022-07-25-14:04:19.868004,354.7462216997519,355.0456770998426,354.7462216997519,354.7462216997519,None,354.7462216997519,354.7462216997519,355.5459984901361,None,,,,21007,0001,2022_Jul_25_1358,localizer,2021.1.3,60.617375922040004,
block,scrambled,scrambled013.bmp,,,,,0,125,125,125,,,,,,,,,,,,,,,,,,,,,,,,,,,,,,,,,,,,,,,,,,None,,355.5459984901361,None,355.5459984901361,None,2022-07-25-14:04:20.669894,355.5486337998882,355.8626048997976,355.5486337998882,355.5486337998882,None,355.5486337998882,355.5486337998882,356.3492707900703,None,,,,21007,0001,2022_Jul_25_1358,localizer,2021.1.3,60.617375922040004,
block,scrambled,scrambled058.bmp,,,,,0,126,126,126,,,,,,,,,,,,,,,,,,,,,,,,,,,,,,,,,,,,,,,,,,None,,356.3492707900703,None,356.3492707900703,None,2022-07-25-14:04:21.476161,356.367513500154,356.6789958998561,356.367513500154,356.367513500154,None,356.367513500154,356.367513500154,357.1623455897905,None,,,,21007,0001,2022_Jul_25_1358,localizer,2021.1.3,60.617375922040004,
block,scrambled,scrambled044.bmp,,,,,0,127,127,127,,,,,,,,,,,,,,,,,,,,,,,,,,,,,,,,,,,,,,,,,,None,,357.1623455897905,None,357.1623455897905,None,2022-07-25-14:04:22.283534,357.1720328000374,357.47827260009944,357.1720328000374,None,None,357.1720328000374,None,357.978767089732,None,,,,21007,0001,2022_Jul_25_1358,localizer,2021.1.3,60.617375922040004,
block,scrambled,scrambled014.bmp,,,,,0,128,128,128,,,,,,,,,,,,,,,,,,,,,,,,,,,,,,,,,,,,,,,,,,None,,357.978767089732,None,357.978767089732,None,2022-07-25-14:04:23.099726,357.98862829990685,358.29555419972166,357.98862829990685,None,None,357.98862829990685,None,358.7957205899991,None,,,,21007,0001,2022_Jul_25_1358,localizer,2021.1.3,60.617375922040004,
block,scrambled,scrambled029.bmp,,,,,0,129,129,129,,,,,,,,,,,,,,,,,,,,,,,,,,,,,,,,,,,,,,,,,,None,,358.7957205899991,None,358.7957205899991,None,2022-07-25-14:04:23.916692,358.8056826000102,359.1122242999263,358.8056826000102,None,None,358.8056826000102,None,359.6124328898266,None,,,,21007,0001,2022_Jul_25_1358,localizer,2021.1.3,60.617375922040004,
block,scrambled,scrambled069.bmp,,,,,0,130,130,130,,,,,,,,,,,,,,,,,,,,,,,,,,,,,,,,,,,,,,,,,,None,,359.6124328898266,None,359.6124328898266,None,2022-07-25-14:04:24.733424,359.61294610006735,359.9121264000423,359.61294610006735,None,None,359.61294610006735,None,360.4120235901326,None,,,,21007,0001,2022_Jul_25_1358,localizer,2021.1.3,60.617375922040004,
block,scrambled,scrambled070.bmp,,,,,0,131,131,131,,,,,,,,,,,,,,,,,,,,,,,,,,,,,,,,,,,,,,,,,,None,,360.4120235901326,None,360.4120235901326,None,2022-07-25-14:04:25.534036,360.4218497998081,360.7285890998319,360.4218497998081,360.4218497998081,None,360.4218497998081,360.4218497998081,361.2302348899655,None,,,,21007,0001,2022_Jul_25_1358,localizer,2021.1.3,60.617375922040004,
block,scrambled,scrambled031.bmp,,,,,0,132,132,132,,,,,,,,,,,,,,,,,,,,,,,,,,,,,,,,,,,,,,,,,,None,,361.2302348899655,None,361.2302348899655,None,2022-07-25-14:04:26.354207,361.2409692001529,361.5455915001221,361.2409692001529,None,None,361.2409692001529,None,362.0453796900809,None,,,,21007,0001,2022_Jul_25_1358,localizer,2021.1.3,60.617375922040004,
block,scrambled,scrambled019.bmp,,,,,0,133,133,133,,,,,,,,,,,,,,,,,,,,,,,,,,,,,,,,,,,,,,,,,,None,,362.0453796900809,None,362.0453796900809,None,2022-07-25-14:04:27.166429,362.0462813000195,362.34542379993945,362.0462813000195,None,None,362.0462813000195,None,362.8458156899549,None,,,,21007,0001,2022_Jul_25_1358,localizer,2021.1.3,60.617375922040004,
block,scrambled,scrambled080.bmp,,,,,0,134,134,134,,,,,,,,,,,,,,,,,,,,,,,,,,,,,,,,,,,,,,,,,,None,,362.8458156899549,None,362.8458156899549,None,2022-07-25-14:04:27.968867,362.85786500014365,363.1624163999222,362.85786500014365,362.85786500014365,None,362.85786500014365,362.85786500014365,363.6624046901241,None,,,,21007,0001,2022_Jul_25_1358,localizer,2021.1.3,60.617375922040004,
block,scrambled,scrambled026.bmp,,,,,0,135,135,135,,,,,,,,,,,,,,,,,,,,,,,,,,,,,,,,,,,,,,,,,,None,,363.6624046901241,None,363.6624046901241,None,2022-07-25-14:04:28.783479,363.6719387001358,363.97842549998313,363.6719387001358,None,None,363.6719387001358,None,364.4814072900452,None,,,,21007,0001,2022_Jul_25_1358,localizer,2021.1.3,60.617375922040004,
block,scrambled,scrambled085.bmp,,,,,0,136,136,136,,,,,,,,,,,,,,,,,,,,,,,,,,,,,,,,,,,,,,,,,,None,,364.4814072900452,None,364.4814072900452,None,2022-07-25-14:04:29.604478,364.4898140998557,364.79521249979734,364.4898140998557,None,None,364.4898140998557,None,365.29577008979396,None,,,,21007,0001,2022_Jul_25_1358,localizer,2021.1.3,60.617375922040004,
block_end,scrambled,scrambled033.bmp,,,,,0,137,137,137,,,,,,,,,,,,,,,,,,,,,,,,,,,,,,,,,,,,,,,,,,None,,365.29577008979396,None,365.29577008979396,None,2022-07-25-14:04:30.416880,365.3053231998347,365.6184322000481,365.3053231998347,None,None,365.3053231998347,None,366.112590689864,None,,,,21007,0001,2022_Jul_25_1358,localizer,2021.1.3,60.617375922040004,
block_start,faces,faces081.bmp,,,,,0,138,138,138,,,,,,,,,,,,,,,,,,,,,,,,,,,,,,,,,,,,,,,,,,t,1.804746299982071,366.1125062997453,None,366.1125062997453,None,2022-07-25-14:04:33.057043,367.947501800023,368.26217109989375,367.947501800023,None,None,367.947501800023,None,368.74589729001747,None,,,,21007,0001,2022_Jul_25_1358,localizer,2021.1.3,60.617375922040004,
block,faces,faces006.bmp,,,,,0,139,139,139,,,,,,,,,,,,,,,,,,,,,,,,,,,,,,,,,,,,,,,,,,None,,368.74589729001747,None,368.74589729001747,None,2022-07-25-14:04:33.867289,368.74624809995294,369.0619024001062,368.74624809995294,None,None,368.74624809995294,None,369.54558178987355,None,,,,21007,0001,2022_Jul_25_1358,localizer,2021.1.3,60.617375922040004,
block,faces,faces018.bmp,,,,,0,140,140,140,,,,,,,,,,,,,,,,,,,,,,,,,,,,,,,,,,,,,,,,,,None,,369.54558178987355,None,369.54558178987355,None,2022-07-25-14:04:34.668997,369.55754760000855,369.86591040017083,369.55754760000855,369.55754760000855,None,369.55754760000855,369.55754760000855,370.3623863898218,None,,,,21007,0001,2022_Jul_25_1358,localizer,2021.1.3,60.617375922040004,
block,faces,faces069.bmp,,,,,0,141,141,141,,,,,,,,,,,,,,,,,,,,,,,,,,,,,,,,,,,,,,,,,,None,,370.3623863898218,None,370.3623863898218,None,2022-07-25-14:04:35.483799,370.3729885998182,370.6786956000142,370.3729885998182,None,None,370.3729885998182,None,371.1790248897858,None,,,,21007,0001,2022_Jul_25_1358,localizer,2021.1.3,60.617375922040004,
block,faces,faces056.bmp,,,,,0,142,142,142,,,,,,,,,,,,,,,,,,,,,,,,,,,,,,,,,,,,,,,,,,None,,371.1790248897858,None,371.1790248897858,None,2022-07-25-14:04:36.300252,371.189515999984,371.4983777999878,371.189515999984,None,None,371.189515999984,None,371.99687769003214,None,,,,21007,0001,2022_Jul_25_1358,localizer,2021.1.3,60.617375922040004,
block,faces,faces021.bmp,,,,,0,143,143,143,,,,,,,,,,,,,,,,,,,,,,,,,,,,,,,,,,,,,,,,,,None,,371.99687769003214,None,371.99687769003214,None,2022-07-25-14:04:37.119246,372.01098380004987,372.31206899974495,372.01098380004987,None,None,372.01098380004987,None,372.8122990901582,None,,,,21007,0001,2022_Jul_25_1358,localizer,2021.1.3,60.617375922040004,
block,faces,faces042.bmp,,,,,0,144,144,144,,,,,,,,,,,,,,,,,,,,,,,,,,,,,,,,,,,,,,,,,,None,,372.8122990901582,None,372.8122990901582,None,2022-07-25-14:04:37.933567,372.8217254001647,373.12859799992293,372.8217254001647,None,None,372.8217254001647,None,373.6291719900444,None,,,,21007,0001,2022_Jul_25_1358,localizer,2021.1.3,60.617375922040004,
block,faces,faces059.bmp,,,,,0,145,145,145,,,,,,,,,,,,,,,,,,,,,,,,,,,,,,,,,,,,,,,,,,None,,373.6291719900444,None,373.6291719900444,None,2022-07-25-14:04:38.750450,373.6396094998345,373.9453779999167,373.6396094998345,None,None,373.6396094998345,None,374.44555478980766,None,,,,21007,0001,2022_Jul_25_1358,localizer,2021.1.3,60.617375922040004,
block,faces,faces089.bmp,,,,,0,146,146,146,,,,,,,,,,,,,,,,,,,,,,,,,,,,,,,,,,,,,,,,,,None,,374.44555478980766,None,374.44555478980766,None,2022-07-25-14:04:39.566859,374.44626320013776,374.7455293000676,374.44626320013776,None,None,374.44626320013776,None,375.24580328976737,None,,,,21007,0001,2022_Jul_25_1358,localizer,2021.1.3,60.617375922040004,
block,faces,faces017.bmp,,,,,0,147,147,147,,,,,,,,,,,,,,,,,,,,,,,,,,,,,,,,,,,,,,,,,,None,,375.24580328976737,None,375.24580328976737,None,2022-07-25-14:04:40.369110,375.24838919984177,375.5627231998369,375.24838919984177,375.24838919984177,None,375.24838919984177,375.24838919984177,376.06287569012494,None,,,,21007,0001,2022_Jul_25_1358,localizer,2021.1.3,60.617375922040004,
block,faces,faces039.bmp,,,,,0,148,148,148,,,,,,,,,,,,,,,,,,,,,,,,,,,,,,,,,,,,,,,,,,None,,376.06287569012494,None,376.06287569012494,None,2022-07-25-14:04:41.185218,376.0648349998519,376.3788111000322,376.0648349998519,None,None,376.0648349998519,None,376.8792086897418,None,,,,21007,0001,2022_Jul_25_1358,localizer,2021.1.3,60.617375922040004,
block,faces,faces052.bmp,,,,,0,149,149,149,,,,,,,,,,,,,,,,,,,,,,,,,,,,,,,,,,,,,,,,,,None,,376.8792086897418,None,376.8792086897418,None,2022-07-25-14:04:42.000554,376.89161309972405,377.195686200168,376.89161309972405,None,None,376.89161309972405,None,377.69579189009966,None,,,,21007,0001,2022_Jul_25_1358,localizer,2021.1.3,60.617375922040004,
block,faces,faces078.bmp,,,,,0,150,150,150,,,,,,,,,,,,,,,,,,,,,,,,,,,,,,,,,,,,,,,,,,None,,377.69579189009966,None,377.69579189009966,None,2022-07-25-14:04:42.817388,377.7064029998146,378.01208729995415,377.7064029998146,None,None,377.7064029998146,None,378.5125726900995,None,,,,21007,0001,2022_Jul_25_1358,localizer,2021.1.3,60.617375922040004,
block,faces,faces009.bmp,,,,,0,151,151,151,,,,,,,,,,,,,,,,,,,,,,,,,,,,,,,,,,,,,,,,,,None,,378.5125726900995,None,378.5125726900995,None,2022-07-25-14:04:43.633952,378.52289670007303,378.8285217001103,378.52289670007303,None,None,378.52289670007303,None,379.32960848994554,None,,,,21007,0001,2022_Jul_25_1358,localizer,2021.1.3,60.617375922040004,
block_end,faces,faces035.bmp,,,,,0,152,152,152,,,,,,,,,,,,,,,,,,,,,,,,,,,,,,,,,,,,,,,,,,None,,379.32960848994554,None,379.32960848994554,None,2022-07-25-14:04:44.451994,379.3420433998108,379.6453672000207,379.3420433998108,None,None,379.3420433998108,None,380.14588328981773,None,,,,21007,0001,2022_Jul_25_1358,localizer,2021.1.3,60.617375922040004,
block_start,scenes,scenes042.bmp,,,,,0,153,153,153,,,,,,,,,,,,,,,,,,,,,,,,,,,,,,,,,,,,,,,,,,t,1.772240400314331,380.14563689986244,None,380.14563689986244,None,2022-07-25-14:04:47.077178,381.9646863997914,382.27871230011806,381.9646863997914,None,None,381.9646863997914,None,382.76261688973756,None,,,,21007,0001,2022_Jul_25_1358,localizer,2021.1.3,60.617375922040004,
block,scenes,scenes070.bmp,,,,,0,154,154,154,,,,,,,,,,,,,,,,,,,,,,,,,,,,,,,,,,,,,,,,,,None,,382.76261688973756,None,382.76261688973756,None,2022-07-25-14:04:47.884083,382.77299099974334,383.07906039990485,382.77299099974334,None,None,382.77299099974334,None,383.5795316898264,None,,,,21007,0001,2022_Jul_25_1358,localizer,2021.1.3,60.617375922040004,
block,scenes,scenes084.bmp,,,,,0,155,155,155,,,,,,,,,,,,,,,,,,,,,,,,,,,,,,,,,,,,,,,,,,None,,383.5795316898264,None,383.5795316898264,None,2022-07-25-14:04:48.702005,383.58005899982527,383.8808582001366,383.58005899982527,None,None,383.58005899982527,None,384.3791627899744,None,,,,21007,0001,2022_Jul_25_1358,localizer,2021.1.3,60.617375922040004,
block,scenes,scenes038.bmp,,,,,0,156,156,156,,,,,,,,,,,,,,,,,,,,,,,,,,,,,,,,,,,,,,,,,,None,,384.3791627899744,None,384.3791627899744,None,2022-07-25-14:04:49.502658,384.3816892001778,384.6956699001603,384.3816892001778,384.3816892001778,None,384.3816892001778,384.3816892001778,385.1955817897804,None,,,,21007,0001,2022_Jul_25_1358,localizer,2021.1.3,60.617375922040004,
block,scenes,scenes021.bmp,,,,,0,157,157,157,,,,,,,,,,,,,,,,,,,,,,,,,,,,,,,,,,,,,,,,,,None,,385.1955817897804,None,385.1955817897804,None,2022-07-25-14:04:50.317104,385.2060210001655,385.51213019993156,385.2060210001655,None,None,385.2060210001655,None,386.0124864901416,None,,,,21007,0001,2022_Jul_25_1358,localizer,2021.1.3,60.617375922040004,
block,scenes,scenes011.bmp,,,,,0,158,158,158,,,,,,,,,,,,,,,,,,,,,,,,,,,,,,,,,,,,,,,,,,None,,386.0124864901416,None,386.0124864901416,None,2022-07-25-14:04:51.134020,386.0222489000298,386.3290599999018,386.0222489000298,None,None,386.0222489000298,None,386.8292830900289,None,,,,21007,0001,2022_Jul_25_1358,localizer,2021.1.3,60.617375922040004,
block,scenes,scenes053.bmp,,,,,0,159,159,159,,,,,,,,,,,,,,,,,,,,,,,,,,,,,,,,,,,,,,,,,,None,,386.8292830900289,None,386.8292830900289,None,2022-07-25-14:04:51.951809,386.83042929973453,387.128957899753,386.83042929973453,None,None,386.83042929973453,None,387.6460495900363,None,,,,21007,0001,2022_Jul_25_1358,localizer,2021.1.3,60.617375922040004,
block,scenes,scenes014.bmp,,,,,0,160,160,160,,,,,,,,,,,,,,,,,,,,,,,,,,,,,,,,,,,,,,,,,,None,,387.6460495900363,None,387.6460495900363,None,2022-07-25-14:04:52.768798,387.65813829982653,387.9622133001685,387.65813829982653,None,None,387.65813829982653,None,388.4628824900836,None,,,,21007,0001,2022_Jul_25_1358,localizer,2021.1.3,60.617375922040004,
block,scenes,scenes080.bmp,,,,,0,161,161,161,,,,,,,,,,,,,,,,,,,,,,,,,,,,,,,,,,,,,,,,,,None,,388.4628824900836,None,388.4628824900836,None,2022-07-25-14:04:53.585686,388.4634377001785,388.7787234997377,388.4634377001785,None,None,388.4634377001785,None,389.2626511898823,None,,,,21007,0001,2022_Jul_25_1358,localizer,2021.1.3,60.617375922040004,
block,scenes,scenes080.bmp,,,,,0,162,162,162,,,,,,,,,,,,,,,,,,,,,,,,,,,,,,,,,,,,,,,,,,None,,389.2626511898823,None,389.2626511898823,None,2022-07-25-14:04:54.387438,389.2653640997596,389.5790667999536,389.2653640997596,389.2653640997596,None,389.2653640997596,389.2653640997596,390.0795902900398,None,,,,21007,0001,2022_Jul_25_1358,localizer,2021.1.3,60.617375922040004,
block,scenes,scenes071.bmp,,,,,0,163,163,163,,,,,,,,,,,,,,,,,,,,,,,,,,,,,,,,,,,,,,,,,,None,,390.0795902900398,None,390.0795902900398,None,2022-07-25-14:04:55.202197,390.08126300014555,390.39620109973475,390.08126300014555,None,y,390.08126300014555,None,390.8855736900121,None,0.19172539981082082,,,21007,0001,2022_Jul_25_1358,localizer,2021.1.3,60.617375922040004,
block,scenes,scenes017.bmp,,,,,0,164,164,164,,,,,,,,,,,,,,,,,,,,,,,,,,,,,,,,,,,,,,,,,,None,,390.8855736900121,None,390.8855736900121,None,2022-07-25-14:04:56.012205,390.9013571999967,391.21200030017644,390.9013571999967,None,None,390.9013571999967,None,391.69537168992684,None,,,,21007,0001,2022_Jul_25_1358,localizer,2021.1.3,60.617375922040004,
block,scenes,scenes031.bmp,,,,,0,165,165,165,,,,,,,,,,,,,,,,,,,,,,,,,,,,,,,,,,,,,,,,,,None,,391.69537168992684,None,391.69537168992684,None,2022-07-25-14:04:56.817037,391.70045349979773,392.0121296001598,391.70045349979773,None,None,391.70045349979773,None,392.51276358980687,None,,,,21007,0001,2022_Jul_25_1358,localizer,2021.1.3,60.617375922040004,
block,scenes,scenes012.bmp,,,,,0,166,166,166,,,,,,,,,,,,,,,,,,,,,,,,,,,,,,,,,,,,,,,,,,None,,392.51276358980687,None,392.51276358980687,None,2022-07-25-14:04:57.635630,392.52431809995323,392.8291126000695,392.52431809995323,None,None,392.52431809995323,None,393.3291557898745,None,,,,21007,0001,2022_Jul_25_1358,localizer,2021.1.3,60.617375922040004,
block_end,scenes,scenes006.bmp,,,,,0,167,167,167,,,,,,,,,,,,,,,,,,,,,,,,,,,,,,,,,,,,,,,,,,None,,393.3291557898745,None,393.3291557898745,None,2022-07-25-14:04:58.450843,393.32972769998014,393.62894620001316,393.32972769998014,None,None,393.32972769998014,None,394.12930848980324,None,,,,21007,0001,2022_Jul_25_1358,localizer,2021.1.3,60.617375922040004,
block_start,objects,objects045.bmp,,,,,0,168,168,168,,,,,,,,,,,,,,,,,,,,,,,,,,,,,,,,,,,,,,,,,,t,1.7885717996396124,394.12871730001643,None,394.12871730001643,None,2022-07-25-14:05:01.066096,395.9464611001313,396.24531739996746,395.9464611001313,None,None,395.9464611001313,None,396.74608948985116,None,,,,21007,0001,2022_Jul_25_1358,localizer,2021.1.3,60.617375922040004,
block,objects,objects061.bmp,,,,,0,169,169,169,,,,,,,,,,,,,,,,,,,,,,,,,,,,,,,,,,,,,,,,,,None,,396.74608948985116,None,396.74608948985116,None,2022-07-25-14:05:01.870832,396.7589055998251,397.0621210997924,396.7589055998251,396.7589055998251,None,396.7589055998251,396.7589055998251,397.56264869002626,None,,,,21007,0001,2022_Jul_25_1358,localizer,2021.1.3,60.617375922040004,
block,objects,objects060.bmp,,,,,0,170,170,170,,,,,,,,,,,,,,,,,,,,,,,,,,,,,,,,,,,,,,,,,,None,,397.56264869002626,None,397.56264869002626,None,2022-07-25-14:05:02.684634,397.57330740010366,397.8789073000662,397.57330740010366,None,None,397.57330740010366,None,398.3794049897231,None,,,,21007,0001,2022_Jul_25_1358,localizer,2021.1.3,60.617375922040004,
block,objects,objects055.bmp,,,,,0,171,171,171,,,,,,,,,,,,,,,,,,,,,,,,,,,,,,,,,,,,,,,,,,None,,398.3794049897231,None,398.3794049897231,None,2022-07-25-14:05:03.502919,398.39086859999225,398.6960300998762,398.39086859999225,None,None,398.39086859999225,None,399.19588158996777,None,,,,21007,0001,2022_Jul_25_1358,localizer,2021.1.3,60.617375922040004,
block,objects,objects065.bmp,,,,,0,172,172,172,,,,,,,,,,,,,,,,,,,,,,,,,,,,,,,,,,,,,,,,,,None,,399.19588158996777,None,399.19588158996777,None,2022-07-25-14:05:04.317688,399.19646940007806,399.4956435998902,399.19646940007806,None,None,399.19646940007806,None,399.9960029900074,None,,,,21007,0001,2022_Jul_25_1358,localizer,2021.1.3,60.617375922040004,
block,objects,objects049.bmp,,,,,0,173,173,173,,,,,,,,,,,,,,,,,,,,,,,,,,,,,,,,,,,,,,,,,,None,,399.9960029900074,None,399.9960029900074,None,2022-07-25-14:05:05.119787,400.0086548998952,400.31223509972915,400.0086548998952,400.0086548998952,None,400.0086548998952,400.0086548998952,400.8160303898156,None,,,,21007,0001,2022_Jul_25_1358,localizer,2021.1.3,60.617375922040004,
block,objects,objects079.bmp,,,,,0,174,174,174,,,,,,,,,,,,,,,,,,,,,,,,,,,,,,,,,,,,,,,,,,None,,400.8160303898156,None,400.8160303898156,None,2022-07-25-14:05:05.942827,400.83380489982665,401.14532600017264,400.83380489982665,None,None,400.83380489982665,None,401.62913408987225,None,,,,21007,0001,2022_Jul_25_1358,localizer,2021.1.3,60.617375922040004,
block,objects,objects039.bmp,,,,,0,175,175,175,,,,,,,,,,,,,,,,,,,,,,,,,,,,,,,,,,,,,,,,,,None,,401.62913408987225,None,401.62913408987225,None,2022-07-25-14:05:06.751198,401.63898629974574,401.9453755998984,401.63898629974574,None,None,401.63898629974574,None,402.44548269007356,None,,,,21007,0001,2022_Jul_25_1358,localizer,2021.1.3,60.617375922040004,
block,objects,objects073.bmp,,,,,0,176,176,176,,,,,,,,,,,,,,,,,,,,,,,,,,,,,,,,,,,,,,,,,,None,,402.44548269007356,None,402.44548269007356,None,2022-07-25-14:05:07.567639,402.4546726997942,402.76269430015236,402.4546726997942,None,None,402.4546726997942,None,403.2636560897343,None,,,,21007,0001,2022_Jul_25_1358,localizer,2021.1.3,60.617375922040004,
block,objects,objects003.bmp,,,,,0,177,177,177,,,,,,,,,,,,,,,,,,,,,,,,,,,,,,,,,,,,,,,,,,None,,403.2636560897343,None,403.2636560897343,None,2022-07-25-14:05:08.386673,403.2764053000137,403.5790896997787,403.2764053000137,None,None,403.2764053000137,None,404.0788160899654,None,,,,21007,0001,2022_Jul_25_1358,localizer,2021.1.3,60.617375922040004,
block,objects,objects057.bmp,,,,,0,178,178,178,,,,,,,,,,,,,,,,,,,,,,,,,,,,,,,,,,,,,,,,,,None,,404.0788160899654,None,404.0788160899654,None,2022-07-25-14:05:09.200396,404.0874061998911,404.3958522998728,404.0874061998911,None,None,404.0874061998911,None,404.896041389741,None,,,,21007,0001,2022_Jul_25_1358,localizer,2021.1.3,60.617375922040004,
block,objects,objects087.bmp,,,,,0,179,179,179,,,,,,,,,,,,,,,,,,,,,,,,,,,,,,,,,,,,,,,,,,None,,404.896041389741,None,404.896041389741,None,2022-07-25-14:05:10.018178,404.9056021999568,405.2120420001447,404.9056021999568,None,None,404.9056021999568,None,405.7124081898481,None,,,,21007,0001,2022_Jul_25_1358,localizer,2021.1.3,60.617375922040004,
block,objects,objects005.bmp,,,,,0,180,180,180,,,,,,,,,,,,,,,,,,,,,,,,,,,,,,,,,,,,,,,,,,None,,405.7124081898481,None,405.7124081898481,None,2022-07-25-14:05:10.834351,405.72258829977363,406.02883329987526,405.72258829977363,None,None,405.72258829977363,None,406.52974679013715,None,,,,21007,0001,2022_Jul_25_1358,localizer,2021.1.3,60.617375922040004,
block,objects,objects058.bmp,,,,,0,181,181,181,,,,,,,,,,,,,,,,,,,,,,,,,,,,,,,,,,,,,,,,,,None,,406.52974679013715,None,406.52974679013715,None,2022-07-25-14:05:11.652746,406.54127549985424,406.84547569975257,406.54127549985424,None,None,406.54127549985424,None,407.34554848978297,None,,,,21007,0001,2022_Jul_25_1358,localizer,2021.1.3,60.617375922040004,
block_end,objects,objects025.bmp,,,,,0,182,182,182,,,,,,,,,,,,,,,,,,,,,,,,,,,,,,,,,,,,,,,,,,None,,407.34554848978297,None,407.34554848978297,None,2022-07-25-14:05:12.467675,407.35477189999074,407.66277930000797,407.35477189999074,None,None,407.35477189999074,None,408.16213888973,None,,,,21007,0001,2022_Jul_25_1358,localizer,2021.1.3,60.617375922040004,
null_block,null_block,null_block.bmp,,,,,0,183,183,183,,,,,,,,,,,,,,,,,,,,,,,,,,,,,,,,,,,,,,,,,,t,1.7552966000512242,408.1617517997511,None,408.1617517997511,None,2022-07-25-14:05:15.066346,409.9461313897744,None,409.9461313897744,None,None,409.9461313897744,None,409.9476939998567,None,,,,21007,0001,2022_Jul_25_1358,localizer,2021.1.3,60.617375922040004,
block_start,objects,objects063.bmp,,,,,0,184,184,184,,,,,,,,,,,,,,,,,,,,,,,,,,,,,,,,,,,,,,,,,,t,1.9700728999450803,421.9476852999069,None,421.9476852999069,None,2022-07-25-14:05:29.062509,423.9495171997696,424.26245940010995,423.9495171997696,None,None,423.9495171997696,None,424.74604268996046,None,,,,21007,0001,2022_Jul_25_1358,localizer,2021.1.3,60.617375922040004,
block,objects,objects046.bmp,,,,,0,185,185,185,,,,,,,,,,,,,,,,,,,,,,,,,,,,,,,,,,,,,,,,,,None,,424.74604268996046,None,424.74604268996046,None,2022-07-25-14:05:29.868588,424.7567107998766,425.0622331001796,424.7567107998766,None,None,424.7567107998766,None,425.56255708979444,None,,,,21007,0001,2022_Jul_25_1358,localizer,2021.1.3,60.617375922040004,
block,objects,objects049.bmp,,,,,0,186,186,186,,,,,,,,,,,,,,,,,,,,,,,,,,,,,,,,,,,,,,,,,,None,,425.56255708979444,None,425.56255708979444,None,2022-07-25-14:05:30.684906,425.563167499844,425.8790417998098,425.563167499844,None,None,425.563167499844,None,426.3633004899137,None,,,,21007,0001,2022_Jul_25_1358,localizer,2021.1.3,60.617375922040004,
block,objects,objects005.bmp,,,,,0,187,187,187,,,,,,,,,,,,,,,,,,,,,,,,,,,,,,,,,,,,,,,,,,None,,426.3633004899137,None,426.3633004899137,None,2022-07-25-14:05:31.488842,426.3662111000158,426.67972509982064,426.3662111000158,426.3662111000158,None,426.3662111000158,426.3662111000158,427.17929339008407,None,,,,21007,0001,2022_Jul_25_1358,localizer,2021.1.3,60.617375922040004,
block,objects,objects031.bmp,,,,,0,188,188,188,,,,,,,,,,,,,,,,,,,,,,,,,,,,,,,,,,,,,,,,,,None,,427.17929339008407,None,427.17929339008407,None,2022-07-25-14:05:32.302672,427.18617320014164,427.4957166998647,427.18617320014164,None,None,427.18617320014164,None,427.99558828976006,None,,,,21007,0001,2022_Jul_25_1358,localizer,2021.1.3,60.617375922040004,
block,objects,objects031.bmp,,,,,0,189,189,189,,,,,,,,,,,,,,,,,,,,,,,,,,,,,,,,,,,,,,,,,,None,,427.99558828976006,None,427.99558828976006,None,2022-07-25-14:05:33.118290,427.9965535001829,428.2955633997917,427.9965535001829,None,y,427.9965535001829,None,428.8123111899011,None,0.5755221000872552,,,21007,0001,2022_Jul_25_1358,localizer,2021.1.3,60.617375922040004,
block,objects,objects009.bmp,,,,,0,190,190,190,,,,,,,,,,,,,,,,,,,,,,,,,,,,,,,,,,,,,,,,,,None,,428.8123111899011,None,428.8123111899011,None,2022-07-25-14:05:33.934730,428.82145719975233,429.129059500061,428.82145719975233,None,None,428.82145719975233,None,429.62945308974014,None,,,,21007,0001,2022_Jul_25_1358,localizer,2021.1.3,60.617375922040004,
block,objects,objects020.bmp,,,,,0,191,191,191,,,,,,,,,,,,,,,,,,,,,,,,,,,,,,,,,,,,,,,,,,None,,429.62945308974014,None,429.62945308974014,None,2022-07-25-14:05:34.751884,429.6300944997929,429.9337704000063,429.6300944997929,None,None,429.6300944997929,None,430.42961698975415,None,,,,21007,0001,2022_Jul_25_1358,localizer,2021.1.3,60.617375922040004,
block,objects,objects052.bmp,,,,,0,192,192,192,,,,,,,,,,,,,,,,,,,,,,,,,,,,,,,,,,,,,,,,,,None,,430.42961698975415,None,430.42961698975415,None,2022-07-25-14:05:35.555256,430.4324441999197,430.7461474998854,430.4324441999197,430.4324441999197,None,430.4324441999197,430.4324441999197,431.2458228899166,None,,,,21007,0001,2022_Jul_25_1358,localizer,2021.1.3,60.617375922040004,
block,objects,objects013.bmp,,,,,0,193,193,193,,,,,,,,,,,,,,,,,,,,,,,,,,,,,,,,,,,,,,,,,,None,,431.2458228899166,None,431.2458228899166,None,2022-07-25-14:05:36.368513,431.25070249987766,431.56201090011746,431.25070249987766,None,None,431.25070249987766,None,432.0626376897097,None,,,,21007,0001,2022_Jul_25_1358,localizer,2021.1.3,60.617375922040004,
block,objects,objects034.bmp,,,,,0,194,194,194,,,,,,,,,,,,,,,,,,,,,,,,,,,,,,,,,,,,,,,,,,None,,432.0626376897097,None,432.0626376897097,None,2022-07-25-14:05:37.185122,432.0686880997382,432.3791415998712,432.0686880997382,None,None,432.0686880997382,None,432.87934249006213,None,,,,21007,0001,2022_Jul_25_1358,localizer,2021.1.3,60.617375922040004,
block,objects,objects075.bmp,,,,,0,195,195,195,,,,,,,,,,,,,,,,,,,,,,,,,,,,,,,,,,,,,,,,,,None,,432.87934249006213,None,432.87934249006213,None,2022-07-25-14:05:38.001813,432.87996560009196,433.1793160000816,432.87996560009196,None,None,432.87996560009196,None,433.67918529007585,None,,,,21007,0001,2022_Jul_25_1358,localizer,2021.1.3,60.617375922040004,
block,objects,objects070.bmp,,,,,0,196,196,196,,,,,,,,,,,,,,,,,,,,,,,,,,,,,,,,,,,,,,,,,,None,,433.67918529007585,None,433.67918529007585,None,2022-07-25-14:05:38.803700,433.69103930005804,433.99558069976047,433.69103930005804,433.69103930005804,None,433.69103930005804,433.69103930005804,434.49584818976,None,,,,21007,0001,2022_Jul_25_1358,localizer,2021.1.3,60.617375922040004,
block,objects,objects068.bmp,,,,,0,197,197,197,,,,,,,,,,,,,,,,,,,,,,,,,,,,,,,,,,,,,,,,,,None,,434.49584818976,None,434.49584818976,None,2022-07-25-14:05:39.618555,434.5056489999406,434.8123598997481,434.5056489999406,None,None,434.5056489999406,None,435.31320438971744,None,,,,21007,0001,2022_Jul_25_1358,localizer,2021.1.3,60.617375922040004,
block_end,objects,objects044.bmp,,,,,0,198,198,198,,,,,,,,,,,,,,,,,,,,,,,,,,,,,,,,,,,,,,,,,,None,,435.31320438971744,None,435.31320438971744,None,2022-07-25-14:05:40.436673,435.31835559988394,435.6292786998674,435.31835559988394,None,None,435.31835559988394,None,436.1299575899728,None,,,,21007,0001,2022_Jul_25_1358,localizer,2021.1.3,60.617375922040004,
block_start,scenes,scenes050.bmp,,,,,0,199,199,199,,,,,,,,,,,,,,,,,,,,,,,,,,,,,,,,,,,,,,,,,,t,3.7877134000882506,436.1296681999229,None,436.1296681999229,None,2022-07-25-14:05:45.062701,439.9442190998234,440.24551989976317,439.9442190998234,None,None,439.9442190998234,None,440.74614278990776,None,,,,21007,0001,2022_Jul_25_1358,localizer,2021.1.3,60.617375922040004,
block,scenes,scenes026.bmp,,,,,0,200,200,200,,,,,,,,,,,,,,,,,,,,,,,,,,,,,,,,,,,,,,,,,,None,,440.74614278990776,None,440.74614278990776,None,2022-07-25-14:05:45.868803,440.74676770018414,441.0457991999574,440.74676770018414,None,None,440.74676770018414,None,441.54593679001556,None,,,,21007,0001,2022_Jul_25_1358,localizer,2021.1.3,60.617375922040004,
block,scenes,scenes023.bmp,,,,,0,201,201,201,,,,,,,,,,,,,,,,,,,,,,,,,,,,,,,,,,,,,,,,,,None,,441.54593679001556,None,441.54593679001556,None,2022-07-25-14:05:46.669869,441.5566286998801,441.8623421001248,441.5566286998801,441.5566286998801,None,441.5566286998801,441.5566286998801,442.3632259901613,None,,,,21007,0001,2022_Jul_25_1358,localizer,2021.1.3,60.617375922040004,
block,scenes,scenes053.bmp,,,,,0,202,202,202,,,,,,,,,,,,,,,,,,,,,,,,,,,,,,,,,,,,,,,,,,None,,442.3632259901613,None,442.3632259901613,None,2022-07-25-14:05:47.486932,442.36486920015886,442.6798477000557,442.36486920015886,None,None,442.36486920015886,None,443.1788839899935,None,,,,21007,0001,2022_Jul_25_1358,localizer,2021.1.3,60.617375922040004,
block,scenes,scenes076.bmp,,,,,0,203,203,203,,,,,,,,,,,,,,,,,,,,,,,,,,,,,,,,,,,,,,,,,,None,,443.1788839899935,None,443.1788839899935,None,2022-07-25-14:05:48.301602,443.1802102997899,443.47949460009113,443.1802102997899,None,None,443.1802102997899,None,443.99567298982294,None,,,,21007,0001,2022_Jul_25_1358,localizer,2021.1.3,60.617375922040004,
block,scenes,scenes015.bmp,,,,,0,204,204,204,,,,,,,,,,,,,,,,,,,,,,,,,,,,,,,,,,,,,,,,,,None,,443.99567298982294,None,443.99567298982294,None,2022-07-25-14:05:49.118054,443.9967837999575,444.29591660015285,443.9967837999575,None,None,443.9967837999575,None,444.79718258995564,None,,,,21007,0001,2022_Jul_25_1358,localizer,2021.1.3,60.617375922040004,
block,scenes,scenes033.bmp,,,,,0,205,205,205,,,,,,,,,,,,,,,,,,,,,,,,,,,,,,,,,,,,,,,,,,None,,444.79718258995564,None,444.79718258995564,None,2022-07-25-14:05:49.925016,444.8136142999865,445.1127476999536,444.8136142999865,444.8136142999865,None,444.8136142999865,444.8136142999865,445.6126781899482,None,,,,21007,0001,2022_Jul_25_1358,localizer,2021.1.3,60.617375922040004,
block,scenes,scenes034.bmp,,,,,0,206,206,206,,,,,,,,,,,,,,,,,,,,,,,,,,,,,,,,,,,,,,,,,,None,,445.6126781899482,None,445.6126781899482,None,2022-07-25-14:05:50.735425,445.61324869981036,445.91225520009175,445.61324869981036,None,None,445.61324869981036,None,446.413881689962,None,,,,21007,0001,2022_Jul_25_1358,localizer,2021.1.3,60.617375922040004,
block,scenes,scenes004.bmp,,,,,0,207,207,207,,,,,,,,,,,,,,,,,,,,,,,,,,,,,,,,,,,,,,,,,,None,,446.413881689962,None,446.413881689962,None,2022-07-25-14:05:51.541262,446.4316071001813,446.7458955999464,446.4316071001813,446.4316071001813,None,446.4316071001813,446.4316071001813,447.2303063899279,None,,,,21007,0001,2022_Jul_25_1358,localizer,2021.1.3,60.617375922040004,
block,scenes,scenes056.bmp,,,,,0,208,208,208,,,,,,,,,,,,,,,,,,,,,,,,,,,,,,,,,,,,,,,,,,None,,447.2303063899279,None,447.2303063899279,None,2022-07-25-14:05:52.354086,447.2322300998494,447.5463157999329,447.2322300998494,None,None,447.2322300998494,None,448.0464535897598,None,,,,21007,0001,2022_Jul_25_1358,localizer,2021.1.3,60.617375922040004,
block,scenes,scenes012.bmp,,,,,0,209,209,209,,,,,,,,,,,,,,,,,,,,,,,,,,,,,,,,,,,,,,,,,,None,,448.0464535897598,None,448.0464535897598,None,2022-07-25-14:05:53.170473,448.0469721001573,448.34626600006595,448.0469721001573,None,None,448.0469721001573,None,448.8462295897305,None,,,,21007,0001,2022_Jul_25_1358,localizer,2021.1.3,60.617375922040004,
block,scenes,scenes064.bmp,,,,,0,210,210,210,,,,,,,,,,,,,,,,,,,,,,,,,,,,,,,,,,,,,,,,,,None,,448.8462295897305,None,448.8462295897305,None,2022-07-25-14:05:53.971467,448.8589352997951,449.1625144998543,448.8589352997951,448.8589352997951,None,448.8589352997951,448.8589352997951,449.66265278980137,None,,,,21007,0001,2022_Jul_25_1358,localizer,2021.1.3,60.617375922040004,
block,scenes,scenes055.bmp,,,,,0,211,211,211,,,,,,,,,,,,,,,,,,,,,,,,,,,,,,,,,,,,,,,,,,None,,449.66265278980137,None,449.66265278980137,None,2022-07-25-14:05:54.785500,449.6699982001446,449.97938709985465,449.6699982001446,None,None,449.6699982001446,None,450.4793453898281,None,,,,21007,0001,2022_Jul_25_1358,localizer,2021.1.3,60.617375922040004,
block,scenes,scenes088.bmp,,,,,0,212,212,212,,,,,,,,,,,,,,,,,,,,,,,,,,,,,,,,,,,,,,,,,,None,,450.4793453898281,None,450.4793453898281,None,2022-07-25-14:05:55.602207,450.48910359991714,450.7958673997782,450.48910359991714,None,None,450.48910359991714,None,451.2957972900011,None,,,,21007,0001,2022_Jul_25_1358,localizer,2021.1.3,60.617375922040004,
block_end,scenes,scenes092.bmp,,,,,0,213,213,213,,,,,,,,,,,,,,,,,,,,,,,,,,,,,,,,,,,,,,,,,,None,,451.2957972900011,None,451.2957972900011,None,2022-07-25-14:05:56.418682,451.29669519979507,451.5958949001506,451.29669519979507,None,None,451.29669519979507,None,452.0965921899304,None,,,,21007,0001,2022_Jul_25_1358,localizer,2021.1.3,60.617375922040004,
block_start,faces,faces025.bmp,,,,,0,214,214,214,,,,,,,,,,,,,,,,,,,,,,,,,,,,,,,,,,,,,,,,,,t,1.8207414001226425,452.0969046000391,None,452.0969046000391,None,2022-07-25-14:05:59.063707,453.9399127997458,454.24556059995666,453.9399127997458,None,None,453.9399127997458,None,454.74618678977714,None,,,,21007,0001,2022_Jul_25_1358,localizer,2021.1.3,60.617375922040004,
block,faces,faces084.bmp,,,,,0,215,215,215,,,,,,,,,,,,,,,,,,,,,,,,,,,,,,,,,,,,,,,,,,None,,454.74618678977714,None,454.74618678977714,None,2022-07-25-14:05:59.869137,454.75689930003136,455.06927700014785,454.75689930003136,None,None,454.75689930003136,None,455.5627861900255,None,,,,21007,0001,2022_Jul_25_1358,localizer,2021.1.3,60.617375922040004,
block,faces,faces024.bmp,,,,,0,216,216,216,,,,,,,,,,,,,,,,,,,,,,,,,,,,,,,,,,,,,,,,,,None,,455.5627861900255,None,455.5627861900255,None,2022-07-25-14:06:00.685760,455.5635226997547,455.8790406999178,455.5635226997547,None,None,455.5635226997547,None,456.3829180898145,None,,,,21007,0001,2022_Jul_25_1358,localizer,2021.1.3,60.617375922040004,
block,faces,faces072.bmp,,,,,0,217,217,217,,,,,,,,,,,,,,,,,,,,,,,,,,,,,,,,,,,,,,,,,,None,,456.3829180898145,None,456.3829180898145,None,2022-07-25-14:06:01.505875,456.38832859974355,456.6956535000354,456.38832859974355,None,None,456.38832859974355,None,457.1963646898046,None,,,,21007,0001,2022_Jul_25_1358,localizer,2021.1.3,60.617375922040004,
block,faces,faces065.bmp,,,,,0,218,218,218,,,,,,,,,,,,,,,,,,,,,,,,,,,,,,,,,,,,,,,,,,None,,457.1963646898046,None,457.1963646898046,None,2022-07-25-14:06:02.320567,457.2146032000892,457.52922180015594,457.2146032000892,None,None,457.2146032000892,None,458.01317149000243,None,,,,21007,0001,2022_Jul_25_1358,localizer,2021.1.3,60.617375922040004,
block,faces,faces016.bmp,,,,,0,219,219,219,,,,,,,,,,,,,,,,,,,,,,,,,,,,,,,,,,,,,,,,,,None,,458.01317149000243,None,458.01317149000243,None,2022-07-25-14:06:03.136389,458.02441800013185,458.3292557997629,458.02441800013185,None,None,458.02441800013185,None,458.8294951898977,None,,,,21007,0001,2022_Jul_25_1358,localizer,2021.1.3,60.617375922040004,
block,faces,faces029.bmp,,,,,0,220,220,220,,,,,,,,,,,,,,,,,,,,,,,,,,,,,,,,,,,,,,,,,,None,,458.8294951898977,None,458.8294951898977,None,2022-07-25-14:06:03.952530,458.84078559977934,459.14576359977946,458.84078559977934,None,None,458.84078559977934,None,459.64613808989526,None,,,,21007,0001,2022_Jul_25_1358,localizer,2021.1.3,60.617375922040004,
block,faces,faces053.bmp,,,,,0,221,221,221,,,,,,,,,,,,,,,,,,,,,,,,,,,,,,,,,,,,,,,,,,None,,459.64613808989526,None,459.64613808989526,None,2022-07-25-14:06:04.769339,459.6561002000235,459.96240429999307,459.6561002000235,None,None,459.6561002000235,None,460.46270489012824,None,,,,21007,0001,2022_Jul_25_1358,localizer,2021.1.3,60.617375922040004,
block,faces,faces071.bmp,,,,,0,222,222,222,,,,,,,,,,,,,,,,,,,,,,,,,,,,,,,,,,,,,,,,,,None,,460.46270489012824,None,460.46270489012824,None,2022-07-25-14:06:05.586022,460.46345040015876,460.7626539999619,460.46345040015876,None,None,460.46345040015876,None,461.2627987900749,None,,,,21007,0001,2022_Jul_25_1358,localizer,2021.1.3,60.617375922040004,
block,faces,faces081.bmp,,,,,0,223,223,223,,,,,,,,,,,,,,,,,,,,,,,,,,,,,,,,,,,,,,,,,,None,,461.2627987900749,None,461.2627987900749,None,2022-07-25-14:06:06.387850,461.2654989999719,461.5794076998718,461.2654989999719,461.2654989999719,None,461.2654989999719,461.2654989999719,462.07933639008553,None,,,,21007,0001,2022_Jul_25_1358,localizer,2021.1.3,60.617375922040004,
block,faces,faces069.bmp,,,,,0,224,224,224,,,,,,,,,,,,,,,,,,,,,,,,,,,,,,,,,,,,,,,,,,None,,462.07933639008553,None,462.07933639008553,None,2022-07-25-14:06:07.202759,462.0801500999369,462.3801937997341,462.0801500999369,None,None,462.0801500999369,None,462.8792241897434,None,,,,21007,0001,2022_Jul_25_1358,localizer,2021.1.3,60.617375922040004,
block,faces,faces009.bmp,,,,,0,225,225,225,,,,,,,,,,,,,,,,,,,,,,,,,,,,,,,,,,,,,,,,,,None,,462.8792241897434,None,462.8792241897434,None,2022-07-25-14:06:08.003345,462.88002880010754,463.1796296001412,462.88002880010754,462.88002880010754,None,462.88002880010754,462.88002880010754,463.6792919898406,None,,,,21007,0001,2022_Jul_25_1358,localizer,2021.1.3,60.617375922040004,
block,faces,faces073.bmp,,,,,0,226,226,226,,,,,,,,,,,,,,,,,,,,,,,,,,,,,,,,,,,,,,,,,,None,,463.6792919898406,None,463.6792919898406,None,2022-07-25-14:06:08.803429,463.68015199992806,463.97893399978057,463.68015199992806,463.68015199992806,None,463.68015199992806,463.68015199992806,464.47968659009786,None,,,,21007,0001,2022_Jul_25_1358,localizer,2021.1.3,60.617375922040004,
block,faces,faces057.bmp,,,,,0,227,227,227,,,,,,,,,,,,,,,,,,,,,,,,,,,,,,,,,,,,,,,,,,None,,464.47968659009786,None,464.47968659009786,None,2022-07-25-14:06:09.605055,464.49330820003524,464.79572119982913,464.49330820003524,464.49330820003524,None,464.49330820003524,464.49330820003524,465.2997132900171,None,,,,21007,0001,2022_Jul_25_1358,localizer,2021.1.3,60.617375922040004,
block_end,faces,faces059.bmp,,,,,0,228,228,228,,,,,,,,,,,,,,,,,,,,,,,,,,,,,,,,,,,,,,,,,,None,,465.2997132900171,None,465.2997132900171,None,2022-07-25-14:06:10.426959,465.30264010000974,465.61250509973615,465.30264010000974,None,None,465.30264010000974,None,466.1140054899268,None,,,,21007,0001,2022_Jul_25_1358,localizer,2021.1.3,60.617375922040004,
block_start,scrambled,scrambled069.bmp,,,,,0,229,229,229,,,,,,,,,,,,,,,,,,,,,,,,,,,,,,,,,,,,,,,,,,t,1.8032849002629519,466.11372150015086,None,466.11372150015086,None,2022-07-25-14:06:13.069502,467.9469710998237,468.2459686999209,467.9469710998237,None,None,467.9469710998237,None,468.74633278995753,None,,,,21007,0001,2022_Jul_25_1358,localizer,2021.1.3,60.617375922040004,
block,scrambled,scrambled015.bmp,,,,,0,230,230,230,,,,,,,,,,,,,,,,,,,,,,,,,,,,,,,,,,,,,,,,,,None,,468.74633278995753,None,468.74633278995753,None,2022-07-25-14:06:13.871565,468.75937499990687,469.062722499948,468.75937499990687,468.75937499990687,None,468.75937499990687,468.75937499990687,469.5628759900108,None,,,,21007,0001,2022_Jul_25_1358,localizer,2021.1.3,60.617375922040004,
block,scrambled,scrambled084.bmp,,,,,0,231,231,231,,,,,,,,,,,,,,,,,,,,,,,,,,,,,,,,,,,,,,,,,,None,,469.5628759900108,None,469.5628759900108,None,2022-07-25-14:06:14.686610,469.57467920007184,469.879206399899,469.57467920007184,None,None,469.57467920007184,None,470.3795642901212,None,,,,21007,0001,2022_Jul_25_1358,localizer,2021.1.3,60.617375922040004,
block,scrambled,scrambled037.bmp,,,,,0,232,232,232,,,,,,,,,,,,,,,,,,,,,,,,,,,,,,,,,,,,,,,,,,None,,470.3795642901212,None,470.3795642901212,None,2022-07-25-14:06:15.502988,470.3898138999939,470.6958588999696,470.3898138999939,None,None,470.3898138999939,None,471.19698948990555,None,,,,21007,0001,2022_Jul_25_1358,localizer,2021.1.3,60.617375922040004,
block,scrambled,scrambled027.bmp,,,,,0,233,233,233,,,,,,,,,,,,,,,,,,,,,,,,,,,,,,,,,,,,,,,,,,None,,471.19698948990555,None,471.19698948990555,None,2022-07-25-14:06:16.321448,471.19912240002304,471.5126168001443,471.19912240002304,None,None,471.19912240002304,None,472.013112489786,None,,,,21007,0001,2022_Jul_25_1358,localizer,2021.1.3,60.617375922040004,
block,scrambled,scrambled050.bmp,,,,,0,234,234,234,,,,,,,,,,,,,,,,,,,,,,,,,,,,,,,,,,,,,,,,,,None,,472.013112489786,None,472.013112489786,None,2022-07-25-14:06:17.136625,472.0135944997892,472.3132378999144,472.0135944997892,None,None,472.0135944997892,None,472.8294553898275,None,,,,21007,0001,2022_Jul_25_1358,localizer,2021.1.3,60.617375922040004,
block,scrambled,scrambled017.bmp,,,,,0,235,235,235,,,,,,,,,,,,,,,,,,,,,,,,,,,,,,,,,,,,,,,,,,None,,472.8294553898275,None,472.8294553898275,None,2022-07-25-14:06:17.953777,472.83012369973585,473.12916330015287,472.83012369973585,None,None,472.83012369973585,None,473.62952019013466,None,,,,21007,0001,2022_Jul_25_1358,localizer,2021.1.3,60.617375922040004,
block,scrambled,scrambled041.bmp,,,,,0,236,236,236,,,,,,,,,,,,,,,,,,,,,,,,,,,,,,,,,,,,,,,,,,None,,473.62952019013466,None,473.62952019013466,None,2022-07-25-14:06:18.755080,473.63133529992774,473.9316321001388,473.63133529992774,473.63133529992774,None,473.63133529992774,473.63133529992774,474.4461215899326,None,,,,21007,0001,2022_Jul_25_1358,localizer,2021.1.3,60.617375922040004,
block,scrambled,scrambled019.bmp,,,,,0,237,237,237,,,,,,,,,,,,,,,,,,,,,,,,,,,,,,,,,,,,,,,,,,None,,474.4461215899326,None,474.4461215899326,None,2022-07-25-14:06:19.570475,474.4465892999433,474.74654459999874,474.4465892999433,None,None,474.4465892999433,None,475.24676348986105,None,,,,21007,0001,2022_Jul_25_1358,localizer,2021.1.3,60.617375922040004,
block,scrambled,scrambled070.bmp,,,,,0,238,238,238,,,,,,,,,,,,,,,,,,,,,,,,,,,,,,,,,,,,,,,,,,None,,475.24676348986105,None,475.24676348986105,None,2022-07-25-14:06:20.373316,475.24977059988305,475.5625267000869,475.24977059988305,475.24977059988305,None,475.24977059988305,475.24977059988305,476.06255379011856,None,,,,21007,0001,2022_Jul_25_1358,localizer,2021.1.3,60.617375922040004,
block,scrambled,scrambled075.bmp,,,,,0,239,239,239,,,,,,,,,,,,,,,,,,,,,,,,,,,,,,,,,,,,,,,,,,None,,476.06255379011856,None,476.06255379011856,None,2022-07-25-14:06:21.186192,476.07129399990663,476.3796719000675,476.07129399990663,None,None,476.07129399990663,None,476.8805527898483,None,,,,21007,0001,2022_Jul_25_1358,localizer,2021.1.3,60.617375922040004,
block,scrambled,scrambled057.bmp,,,,,0,240,240,240,,,,,,,,,,,,,,,,,,,,,,,,,,,,,,,,,,,,,,,,,,None,,476.8805527898483,None,476.8805527898483,None,2022-07-25-14:06:22.005924,476.8940274999477,477.1966796000488,476.8940274999477,None,None,476.8940274999477,None,477.69639549003915,None,,,,21007,0001,2022_Jul_25_1358,localizer,2021.1.3,60.617375922040004,
block,scrambled,scrambled001.bmp,,,,,0,241,241,241,,,,,,,,,,,,,,,,,,,,,,,,,,,,,,,,,,,,,,,,,,None,,477.69639549003915,None,477.69639549003915,None,2022-07-25-14:06:22.820014,477.6969778998755,477.9961461001076,477.6969778998755,None,None,477.6969778998755,None,478.5125096898526,None,,,,21007,0001,2022_Jul_25_1358,localizer,2021.1.3,60.617375922040004,
block,scrambled,scrambled008.bmp,,,,,0,242,242,242,,,,,,,,,,,,,,,,,,,,,,,,,,,,,,,,,,,,,,,,,,None,,478.5125096898526,None,478.5125096898526,None,2022-07-25-14:06:23.635957,478.52080870000646,478.82930869981647,478.52080870000646,None,None,478.52080870000646,None,479.329691089876,None,,,,21007,0001,2022_Jul_25_1358,localizer,2021.1.3,60.617375922040004,
block_end,scrambled,scrambled030.bmp,,,,,0,243,243,243,,,,,,,,,,,,,,,,,,,,,,,,,,,,,,,,,,,,,,,,,,None,,479.329691089876,None,479.329691089876,None,2022-07-25-14:06:24.453148,479.3402741998434,479.6458848998882,479.3402741998434,None,None,479.3402741998434,None,480.1462714897469,None,,,,21007,0001,2022_Jul_25_1358,localizer,2021.1.3,60.617375922040004,
,,,,,,,,,,,,,,,,,,,,,,,,,,,,,,,,,,,,,,,,,,,,,,,,,,,,,,,,,,,,,,,,,,,,,480.15140340011567,None,,,,,,,
