block_type,condition,img_name,Button.thisRepN,Button.thisTrialN,Button.thisN,Button.thisIndex,trials.thisRepN,trials.thisTrialN,trials.thisN,trials.thisIndex,Alignment_background.started,Alignment_background.stopped,Alignment_image.started,Alignment_image.stopped,Alignment_resp.keys,Alignment_resp.rt,Alignment_resp.started,Alignment_resp.stopped,Button_text.started,Button_text.stopped,Index_text.started,Index_text.stopped,Index_resp.keys,Index_resp.rt,Index_resp.started,Index_resp.stopped,Middle_text.started,Middle_text.stopped,Middle_resp.keys,Middle_resp.rt,Middle_resp.started,Middle_resp.stopped,Repeat_text.started,Repeat_text.stopped,Repeat_resp.keys,Repeat_resp.corr,Repeat_resp.rt,Repeat_resp.started,Repeat_resp.stopped,instruction_text.started,instruction_text.stopped,key_resp.keys,key_resp.rt,key_resp.started,key_resp.stopped,scanner_t.keys,scanner_t.rt,scanner_t.started,scanner_t.stopped,fixation_wait_for_t.started,fixation_wait_for_t.stopped,real_timestamp_trial_start,image.started,image.stopped,fixation.started,fixation.stopped,repeat_response.keys,repeat_response.started,repeat_response.stopped,fixation_null.started,fixation_null.stopped,repeat_response.rt,end_text.started,end_text.stopped,participant,run,date,expName,psychopyVersion,frameRate,
,,,,,,,,,,,41.13841949997004,None,41.13841949997004,None,return,1.0031515000155196,41.13841949997004,None,,,,,,,,,,,,,,,,,,,,,,,,,,,,,,,,,,,,,,,,,,,,,,,21001,0001,2021_Sep_07_0959,localizer,2021.1.3,59.99757608645396,
,,,0,0,0,0,,,,,,,,,,,,,42.16140230000019,None,43.169059699983336,None,y,15.086395899998024,43.169059699983336,None,58.28584939998109,None,b,3.482146999973338,58.28584939998109,None,61.78738469997188,None,n,0,2.472745999984909,61.78738469997188,None,,,,,,,,,,,,,,,,,,,,,,,,,,21001,0001,2021_Sep_07_0959,localizer,2021.1.3,59.99757608645396,
,,,,,,,,,,,,,,,,,,,,,,,,,,,,,,,,,,,,,,,,64.28620339999907,None,y,46.15933530003531,64.28620339999907,None,,,,,,,,,,,,,,,,,,,,21001,0001,2021_Sep_07_0959,localizer,2021.1.3,59.99757608645396,
block_start,scrambled,scrambled004.bmp,,,,,0,0,0,0,,,,,,,,,,,,,,,,,,,,,,,,,,,,,,,,,,,,t,2.941015899996273,110.55910019995645,None,110.55910019995645,None,2021-09-07-10:00:30.291873,113.55683719995432,113.86949099996127,113.55683719995432,None,None,113.55683719995432,None,114.33616728998604,None,,,,21001,0001,2021_Sep_07_0959,localizer,2021.1.3,59.99757608645396,
block,scrambled,scrambled024.bmp,,,,,0,1,1,1,,,,,,,,,,,,,,,,,,,,,,,,,,,,,,,,,,,,None,,114.33616728998604,None,114.33616728998604,None,2021-09-07-10:00:31.116346,114.37498079997022,114.68611059995601,114.37498079997022,None,None,114.37498079997022,None,115.1528897900076,None,,,,21001,0001,2021_Sep_07_0959,localizer,2021.1.3,59.99757608645396,
block,scrambled,scrambled060.bmp,,,,,0,2,2,2,,,,,,,,,,,,,,,,,,,,,,,,,,,,,,,,,,,,None,,115.1528897900076,None,115.1528897900076,None,2021-09-07-10:00:31.929293,115.17702429997735,115.48613439995097,115.17702429997735,None,None,115.17702429997735,None,115.9695094900031,None,,,,21001,0001,2021_Sep_07_0959,localizer,2021.1.3,59.99757608645396,
block,scrambled,scrambled006.bmp,,,,,0,3,3,3,,,,,,,,,,,,,,,,,,,,,,,,,,,,,,,,,,,,None,,115.9695094900031,None,115.9695094900031,None,2021-09-07-10:00:32.745627,116.00298729998758,116.30284449999453,116.00298729998758,None,None,116.00298729998758,None,116.7861811899871,None,,,,21001,0001,2021_Sep_07_0959,localizer,2021.1.3,59.99757608645396,
block,scrambled,scrambled030.bmp,,,,,0,4,4,4,,,,,,,,,,,,,,,,,,,,,,,,,,,,,,,,,,,,None,,116.7861811899871,None,116.7861811899871,None,2021-09-07-10:00:33.562590,116.80939169996418,117.11951839999529,116.80939169996418,None,None,116.80939169996418,None,117.60268838999909,None,,,,21001,0001,2021_Sep_07_0959,localizer,2021.1.3,59.99757608645396,
block,scrambled,scrambled072.bmp,,,,,0,5,5,5,,,,,,,,,,,,,,,,,,,,,,,,,,,,,,,,,,,,None,,117.60268838999909,None,117.60268838999909,None,2021-09-07-10:00:34.374212,117.62064829998417,117.91951029998017,117.62064829998417,None,None,117.62064829998417,None,118.41953318996238,None,,,,21001,0001,2021_Sep_07_0959,localizer,2021.1.3,59.99757608645396,
block,scrambled,scrambled047.bmp,,,,,0,6,6,6,,,,,,,,,,,,,,,,,,,,,,,,,,,,,,,,,,,,None,,118.41953318996238,None,118.41953318996238,None,2021-09-07-10:00:35.196157,118.44246319995727,118.7528565999819,118.44246319995727,None,None,118.44246319995727,None,119.23612428997293,None,,,,21001,0001,2021_Sep_07_0959,localizer,2021.1.3,59.99757608645396,
block,scrambled,scrambled043.bmp,,,,,0,7,7,7,,,,,,,,,,,,,,,,,,,,,,,,,,,,,,,,,,,,None,,119.23612428997293,None,119.23612428997293,None,2021-09-07-10:00:36.012241,119.27069719997235,119.56952639995143,119.27069719997235,None,None,119.27069719997235,None,120.05283339000889,None,,,,21001,0001,2021_Sep_07_0959,localizer,2021.1.3,59.99757608645396,
block,scrambled,scrambled016.bmp,,,,,0,8,8,8,,,,,,,,,,,,,,,,,,,,,,,,,,,,,,,,,,,,None,,120.05283339000889,None,120.05283339000889,None,2021-09-07-10:00:36.829272,120.07579319999786,120.38602809997974,120.07579319999786,None,None,120.07579319999786,None,120.8695192899846,None,,,,21001,0001,2021_Sep_07_0959,localizer,2021.1.3,59.99757608645396,
block,scrambled,scrambled077.bmp,,,,,0,9,9,9,,,,,,,,,,,,,,,,,,,,,,,,,,,,,,,,,,,,None,,120.8695192899846,None,120.8695192899846,None,2021-09-07-10:00:37.647150,120.88824000000022,121.2028117000009,120.88824000000022,None,None,120.88824000000022,None,121.68622188997105,None,,,,21001,0001,2021_Sep_07_0959,localizer,2021.1.3,59.99757608645396,
block,scrambled,scrambled034.bmp,,,,,0,10,10,10,,,,,,,,,,,,,,,,,,,,,,,,,,,,,,,,,,,,None,,121.68622188997105,None,121.68622188997105,None,2021-09-07-10:00:38.460854,121.70316959999036,122.00281919998815,121.70316959999036,None,None,121.70316959999036,None,122.50287739000632,None,,,,21001,0001,2021_Sep_07_0959,localizer,2021.1.3,59.99757608645396,
block,scrambled,scrambled027.bmp,,,,,0,11,11,11,,,,,,,,,,,,,,,,,,,,,,,,,,,,,,,,,,,,None,,122.50287739000632,None,122.50287739000632,None,2021-09-07-10:00:39.279509,122.52545189997181,122.83621599996695,122.52545189997181,None,None,122.52545189997181,None,123.3195726899954,None,,,,21001,0001,2021_Sep_07_0959,localizer,2021.1.3,59.99757608645396,
block,scrambled,scrambled074.bmp,,,,,0,12,12,12,,,,,,,,,,,,,,,,,,,,,,,,,,,,,,,,,,,,None,,123.3195726899954,None,123.3195726899954,None,2021-09-07-10:00:40.096210,123.34288359998027,123.65288359997794,123.34288359998027,None,None,123.34288359998027,None,124.13608458998496,None,,,,21001,0001,2021_Sep_07_0959,localizer,2021.1.3,59.99757608645396,
block,scrambled,scrambled053.bmp,,,,,0,13,13,13,,,,,,,,,,,,,,,,,,,,,,,,,,,,,,,,,,,,None,,124.13608458998496,None,124.13608458998496,None,2021-09-07-10:00:40.913717,124.1588413999998,124.46959489997244,124.1588413999998,None,None,124.1588413999998,None,124.95273208995931,None,,,,21001,0001,2021_Sep_07_0959,localizer,2021.1.3,59.99757608645396,
block_end,scrambled,scrambled062.bmp,,,,,0,14,14,14,,,,,,,,,,,,,,,,,,,,,,,,,,,,,,,,,,,,None,,124.95273208995931,None,124.95273208995931,None,2021-09-07-10:00:41.727630,124.96586369996658,125.26955689996248,124.96586369996658,None,None,124.96586369996658,None,125.7695274899539,None,,,,21001,0001,2021_Sep_07_0959,localizer,2021.1.3,59.99757608645396,
block_start,objects,objects019.bmp,,,,,0,15,15,15,,,,,,,,,,,,,,,,,,,,,,,,,,,,,,,,,,,,t,9.250620700011496,125.76957379997475,None,125.76957379997475,None,2021-09-07-10:00:51.806835,135.0504466999555,135.35295410000253,135.0504466999555,None,None,135.0504466999555,None,135.85298028995166,None,,,,21001,0001,2021_Sep_07_0959,localizer,2021.1.3,59.99757608645396,
block,objects,objects071.bmp,,,,,0,16,16,16,,,,,,,,,,,,,,,,,,,,,,,,,,,,,,,,,,,,None,,135.85298028995166,None,135.85298028995166,None,2021-09-07-10:00:52.629499,135.87650039995788,136.18623089999892,135.87650039995788,None,None,135.87650039995788,None,136.66956199000705,None,,,,21001,0001,2021_Sep_07_0959,localizer,2021.1.3,59.99757608645396,
block,objects,objects086.bmp,,,,,0,17,17,17,,,,,,,,,,,,,,,,,,,,,,,,,,,,,,,,,,,,None,,136.66956199000705,None,136.66956199000705,None,2021-09-07-10:00:53.447185,136.69327099999646,137.0028689999599,136.69327099999646,None,None,136.69327099999646,None,137.4862754899601,None,,,,21001,0001,2021_Sep_07_0959,localizer,2021.1.3,59.99757608645396,
block,objects,objects084.bmp,,,,,0,18,18,18,,,,,,,,,,,,,,,,,,,,,,,,,,,,,,,,,,,,None,,137.4862754899601,None,137.4862754899601,None,2021-09-07-10:00:54.262434,137.5089448999497,137.81950539996615,137.5089448999497,None,None,137.5089448999497,None,138.30290949000627,None,,,,21001,0001,2021_Sep_07_0959,localizer,2021.1.3,59.99757608645396,
block,objects,objects076.bmp,,,,,0,19,19,19,,,,,,,,,,,,,,,,,,,,,,,,,,,,,,,,,,,,None,,138.30290949000627,None,138.30290949000627,None,2021-09-07-10:00:55.079433,138.32611639995594,138.63626169995405,138.32611639995594,None,None,138.32611639995594,None,139.11960098996641,None,,,,21001,0001,2021_Sep_07_0959,localizer,2021.1.3,59.99757608645396,
block,objects,objects082.bmp,,,,,0,20,20,20,,,,,,,,,,,,,,,,,,,,,,,,,,,,,,,,,,,,None,,139.11960098996641,None,139.11960098996641,None,2021-09-07-10:00:55.897313,139.14279399998486,139.45295309997164,139.14279399998486,None,None,139.14279399998486,None,139.93627229000558,None,,,,21001,0001,2021_Sep_07_0959,localizer,2021.1.3,59.99757608645396,
block,objects,objects073.bmp,,,,,0,21,21,21,,,,,,,,,,,,,,,,,,,,,,,,,,,,,,,,,,,,None,,139.93627229000558,None,139.93627229000558,None,2021-09-07-10:00:56.712826,139.96639409998897,140.2695698000025,139.96639409998897,None,None,139.96639409998897,None,140.75299518997198,None,,,,21001,0001,2021_Sep_07_0959,localizer,2021.1.3,59.99757608645396,
block,objects,objects013.bmp,,,,,0,22,22,22,,,,,,,,,,,,,,,,,,,,,,,,,,,,,,,,,,,,None,,140.75299518997198,None,140.75299518997198,None,2021-09-07-10:00:57.529523,140.7868239999516,141.08624789997702,140.7868239999516,None,None,140.7868239999516,None,141.5695868899871,None,,,,21001,0001,2021_Sep_07_0959,localizer,2021.1.3,59.99757608645396,
block,objects,objects040.bmp,,,,,0,23,23,23,,,,,,,,,,,,,,,,,,,,,,,,,,,,,,,,,,,,None,,141.5695868899871,None,141.5695868899871,None,2021-09-07-10:00:58.346074,141.59231129998807,141.90285249997396,141.59231129998807,None,None,141.59231129998807,None,142.38621628999826,None,,,,21001,0001,2021_Sep_07_0959,localizer,2021.1.3,59.99757608645396,
block,objects,objects025.bmp,,,,,0,24,24,24,,,,,,,,,,,,,,,,,,,,,,,,,,,,,,,,,,,,None,,142.38621628999826,None,142.38621628999826,None,2021-09-07-10:00:59.163747,142.42080469999928,142.71946059999755,142.42080469999928,None,None,142.42080469999928,None,143.2029618899629,None,,,,21001,0001,2021_Sep_07_0959,localizer,2021.1.3,59.99757608645396,
block,objects,objects004.bmp,,,,,0,25,25,25,,,,,,,,,,,,,,,,,,,,,,,,,,,,,,,,,,,,None,,143.2029618899629,None,143.2029618899629,None,2021-09-07-10:00:59.979513,143.23698549997061,143.5361370999599,143.23698549997061,None,None,143.23698549997061,None,144.01954518997226,None,,,,21001,0001,2021_Sep_07_0959,localizer,2021.1.3,59.99757608645396,
block,objects,objects088.bmp,,,,,0,26,26,26,,,,,,,,,,,,,,,,,,,,,,,,,,,,,,,,,,,,None,,144.01954518997226,None,144.01954518997226,None,2021-09-07-10:01:00.797110,144.05188019998604,144.35300969996024,144.05188019998604,None,None,144.05188019998604,None,144.83629848999553,None,,,,21001,0001,2021_Sep_07_0959,localizer,2021.1.3,59.99757608645396,
block,objects,objects033.bmp,,,,,0,27,27,27,,,,,,,,,,,,,,,,,,,,,,,,,,,,,,,,,,,,None,,144.83629848999553,None,144.83629848999553,None,2021-09-07-10:01:01.612599,144.8701951999683,145.1695528999553,144.8701951999683,None,None,144.8701951999683,None,145.6528980899544,None,,,,21001,0001,2021_Sep_07_0959,localizer,2021.1.3,59.99757608645396,
block,objects,objects055.bmp,,,,,0,28,28,28,,,,,,,,,,,,,,,,,,,,,,,,,,,,,,,,,,,,None,,145.6528980899544,None,145.6528980899544,None,2021-09-07-10:01:02.430496,145.6891940999776,146.0029980999534,145.6891940999776,None,None,145.6891940999776,None,146.46967448997893,None,,,,21001,0001,2021_Sep_07_0959,localizer,2021.1.3,59.99757608645396,
block_end,objects,objects065.bmp,,,,,0,29,29,29,,,,,,,,,,,,,,,,,,,,,,,,,,,,,,,,,,,,None,,146.46967448997893,None,146.46967448997893,None,2021-09-07-10:01:03.246430,146.5033874999499,146.80303929996444,146.5033874999499,None,None,146.5033874999499,None,147.28626378997578,None,,,,21001,0001,2021_Sep_07_0959,localizer,2021.1.3,59.99757608645396,
null_block,null_block,null_block.bmp,,,,,0,30,30,30,,,,,,,,,,,,,,,,,,,,,,,,,,,,,,,,,,,,t,11.645177899976261,147.2863370999694,None,147.2863370999694,None,2021-09-07-10:01:15.729526,158.96979157997993,None,158.96979157997993,None,None,158.96979157997993,None,158.97077389998594,None,,,,21001,0001,2021_Sep_07_0959,localizer,2021.1.3,59.99757608645396,
block_start,scenes,scenes087.bmp,,,,,0,31,31,31,,,,,,,,,,,,,,,,,,,,,,,,,,,,,,,,,,,,t,3.731847600021865,170.98492179997265,None,170.98492179997265,None,2021-09-07-10:01:31.512122,174.7537611000007,175.05213209998328,174.7537611000007,None,None,174.7537611000007,None,175.55222058999934,None,,,,21001,0001,2021_Sep_07_0959,localizer,2021.1.3,59.99757608645396,
block,scenes,scenes049.bmp,,,,,0,32,32,32,,,,,,,,,,,,,,,,,,,,,,,,,,,,,,,,,,,,None,,175.55222058999934,None,175.55222058999934,None,2021-09-07-10:01:32.330173,175.57496070000343,175.885488800006,175.57496070000343,None,None,175.57496070000343,None,176.36890078998985,None,,,,21001,0001,2021_Sep_07_0959,localizer,2021.1.3,59.99757608645396,
block,scenes,scenes008.bmp,,,,,0,33,33,33,,,,,,,,,,,,,,,,,,,,,,,,,,,,,,,,,,,,None,,176.36890078998985,None,176.36890078998985,None,2021-09-07-10:01:33.146673,176.3909677999909,176.70194639998954,176.3909677999909,None,None,176.3909677999909,None,177.18546308995573,None,,,,21001,0001,2021_Sep_07_0959,localizer,2021.1.3,59.99757608645396,
block,scenes,scenes084.bmp,,,,,0,34,34,34,,,,,,,,,,,,,,,,,,,,,,,,,,,,,,,,,,,,None,,177.18546308995573,None,177.18546308995573,None,2021-09-07-10:01:33.963132,177.21827719995053,177.51886409998406,177.21827719995053,None,None,177.21827719995053,None,178.0022375899658,None,,,,21001,0001,2021_Sep_07_0959,localizer,2021.1.3,59.99757608645396,
block,scenes,scenes085.bmp,,,,,0,35,35,35,,,,,,,,,,,,,,,,,,,,,,,,,,,,,,,,,,,,None,,178.0022375899658,None,178.0022375899658,None,2021-09-07-10:01:34.778974,178.0237538999645,178.335531299992,178.0237538999645,None,None,178.0237538999645,None,178.81889228999498,None,,,,21001,0001,2021_Sep_07_0959,localizer,2021.1.3,59.99757608645396,
block,scenes,scenes022.bmp,,,,,0,36,36,36,,,,,,,,,,,,,,,,,,,,,,,,,,,,,,,,,,,,None,,178.81889228999498,None,178.81889228999498,None,2021-09-07-10:01:35.595255,178.8515986999846,179.15235519997077,178.8515986999846,None,None,178.8515986999846,None,179.63515778997098,None,,,,21001,0001,2021_Sep_07_0959,localizer,2021.1.3,59.99757608645396,
block,scenes,scenes031.bmp,,,,,0,37,37,37,,,,,,,,,,,,,,,,,,,,,,,,,,,,,,,,,,,,None,,179.63515778997098,None,179.63515778997098,None,2021-09-07-10:01:36.404063,179.64206729998114,179.951954499993,179.64206729998114,None,None,179.64206729998114,None,180.45211228995467,None,,,,21001,0001,2021_Sep_07_0959,localizer,2021.1.3,59.99757608645396,
block,scenes,scenes015.bmp,,,,,0,38,38,38,,,,,,,,,,,,,,,,,,,,,,,,,,,,,,,,,,,,None,,180.45211228995467,None,180.45211228995467,None,2021-09-07-10:01:37.225156,180.48796209995635,180.80194299999857,180.48796209995635,None,None,180.48796209995635,None,181.26883089000475,None,,,,21001,0001,2021_Sep_07_0959,localizer,2021.1.3,59.99757608645396,
block,scenes,scenes001.bmp,,,,,0,39,39,39,,,,,,,,,,,,,,,,,,,,,,,,,,,,,,,,,,,,None,,181.26883089000475,None,181.26883089000475,None,2021-09-07-10:01:38.047612,181.3029208999942,181.60226580000017,181.3029208999942,None,None,181.3029208999942,None,182.08562679000315,None,,,,21001,0001,2021_Sep_07_0959,localizer,2021.1.3,59.99757608645396,
block,scenes,scenes037.bmp,,,,,0,40,40,40,,,,,,,,,,,,,,,,,,,,,,,,,,,,,,,,,,,,None,,182.08562679000315,None,182.08562679000315,None,2021-09-07-10:01:38.863281,182.10166659997776,182.40224289998878,182.10166659997776,None,None,182.10166659997776,None,182.90207718999008,None,,,,21001,0001,2021_Sep_07_0959,localizer,2021.1.3,59.99757608645396,
block,scenes,scenes065.bmp,,,,,0,41,41,41,,,,,,,,,,,,,,,,,,,,,,,,,,,,,,,,,,,,None,,182.90207718999008,None,182.90207718999008,None,2021-09-07-10:01:39.678953,182.92210119997617,183.23558379994938,182.92210119997617,None,None,182.92210119997617,None,183.7185283899831,None,,,,21001,0001,2021_Sep_07_0959,localizer,2021.1.3,59.99757608645396,
block,scenes,scenes077.bmp,,,,,0,42,42,42,,,,,,,,,,,,,,,,,,,,,,,,,,,,,,,,,,,,None,,183.7185283899831,None,183.7185283899831,None,2021-09-07-10:01:40.487663,183.72489919996588,184.03521639999235,183.72489919996588,None,None,183.72489919996588,None,184.53537048998405,None,,,,21001,0001,2021_Sep_07_0959,localizer,2021.1.3,59.99757608645396,
block,scenes,scenes043.bmp,,,,,0,43,43,43,,,,,,,,,,,,,,,,,,,,,,,,,,,,,,,,,,,,None,,184.53537048998405,None,184.53537048998405,None,2021-09-07-10:01:41.307413,184.54476599994814,184.85203859995818,184.54476599994814,None,None,184.54476599994814,None,185.35217938996502,None,,,,21001,0001,2021_Sep_07_0959,localizer,2021.1.3,59.99757608645396,
block,scenes,scenes002.bmp,,,,,0,44,44,44,,,,,,,,,,,,,,,,,,,,,,,,,,,,,,,,,,,,None,,185.35217938996502,None,185.35217938996502,None,2021-09-07-10:01:42.122046,185.3616941999644,185.66869789996417,185.3616941999644,None,None,185.3616941999644,None,186.1689985899662,None,,,,21001,0001,2021_Sep_07_0959,localizer,2021.1.3,59.99757608645396,
block_end,scenes,scenes059.bmp,,,,,0,45,45,45,,,,,,,,,,,,,,,,,,,,,,,,,,,,,,,,,,,,None,,186.1689985899662,None,186.1689985899662,None,2021-09-07-10:01:42.945989,186.2017513999599,186.5023220999865,186.2017513999599,None,None,186.2017513999599,None,186.98562938998802,None,,,,21001,0001,2021_Sep_07_0959,localizer,2021.1.3,59.99757608645396,
block_start,faces,faces049.bmp,,,,,0,46,46,46,,,,,,,,,,,,,,,,,,,,,,,,,,,,,,,,,,,,t,8.64222380000865,186.98560969997197,None,186.98560969997197,None,2021-09-07-10:01:52.421957,195.6577647999511,195.96905209997203,195.6577647999511,None,None,195.6577647999511,None,196.46854699000832,None,,,,21001,0001,2021_Sep_07_0959,localizer,2021.1.3,59.99757608645396,
block,faces,faces059.bmp,,,,,0,47,47,47,,,,,,,,,,,,,,,,,,,,,,,,,,,,,,,,,,,,None,,196.46854699000832,None,196.46854699000832,None,2021-09-07-10:01:53.238040,196.47499119996792,196.78522329998668,196.47499119996792,None,None,196.47499119996792,None,197.28550319000496,None,,,,21001,0001,2021_Sep_07_0959,localizer,2021.1.3,59.99757608645396,
block,faces,faces036.bmp,,,,,0,48,48,48,,,,,,,,,,,,,,,,,,,,,,,,,,,,,,,,,,,,None,,197.28550319000496,None,197.28550319000496,None,2021-09-07-10:01:54.061376,197.31314159999602,197.618872299965,197.31314159999602,None,None,197.31314159999602,None,198.10227168996934,None,,,,21001,0001,2021_Sep_07_0959,localizer,2021.1.3,59.99757608645396,
block,faces,faces039.bmp,,,,,0,49,49,49,,,,,,,,,,,,,,,,,,,,,,,,,,,,,,,,,,,,None,,198.10227168996934,None,198.10227168996934,None,2021-09-07-10:01:54.879114,198.12613279995276,198.43570669996552,198.12613279995276,None,None,198.12613279995276,None,198.9190376899729,None,,,,21001,0001,2021_Sep_07_0959,localizer,2021.1.3,59.99757608645396,
block,faces,faces085.bmp,,,,,0,50,50,50,,,,,,,,,,,,,,,,,,,,,,,,,,,,,,,,,,,,None,,198.9190376899729,None,198.9190376899729,None,2021-09-07-10:01:55.697044,198.95196479995502,199.25235629995586,198.95196479995502,None,None,198.95196479995502,None,199.73566728998557,None,,,,21001,0001,2021_Sep_07_0959,localizer,2021.1.3,59.99757608645396,
block,faces,faces073.bmp,,,,,0,51,51,51,,,,,,,,,,,,,,,,,,,,,,,,,,,,,,,,,,,,None,,199.73566728998557,None,199.73566728998557,None,2021-09-07-10:01:56.511689,199.75585179997142,200.06904149998445,199.75585179997142,None,None,199.75585179997142,None,200.5524591899535,None,,,,21001,0001,2021_Sep_07_0959,localizer,2021.1.3,59.99757608645396,
block,faces,faces012.bmp,,,,,0,52,52,52,,,,,,,,,,,,,,,,,,,,,,,,,,,,,,,,,,,,None,,200.5524591899535,None,200.5524591899535,None,2021-09-07-10:01:57.330456,200.5747912999941,200.8857650999562,200.5747912999941,None,None,200.5747912999941,None,201.36897969000856,None,,,,21001,0001,2021_Sep_07_0959,localizer,2021.1.3,59.99757608645396,
block,faces,faces004.bmp,,,,,0,53,53,53,,,,,,,,,,,,,,,,,,,,,,,,,,,,,,,,,,,,None,,201.36897969000856,None,201.36897969000856,None,2021-09-07-10:01:58.145810,201.41772069997387,201.7190428999602,201.41772069997387,None,None,201.41772069997387,None,202.18550968996132,None,,,,21001,0001,2021_Sep_07_0959,localizer,2021.1.3,59.99757608645396,
block,faces,faces043.bmp,,,,,0,54,54,54,,,,,,,,,,,,,,,,,,,,,,,,,,,,,,,,,,,,None,,202.18550968996132,None,202.18550968996132,None,2021-09-07-10:01:58.962100,202.20642079995014,202.51911039999686,202.20642079995014,None,None,202.20642079995014,None,203.0023982899671,None,,,,21001,0001,2021_Sep_07_0959,localizer,2021.1.3,59.99757608645396,
block,faces,faces023.bmp,,,,,0,55,55,55,,,,,,,,,,,,,,,,,,,,,,,,,,,,,,,,,,,,None,,203.0023982899671,None,203.0023982899671,None,2021-09-07-10:01:59.780231,203.033018099959,203.33573150000302,203.033018099959,None,None,203.033018099959,None,203.81893199000623,None,,,,21001,0001,2021_Sep_07_0959,localizer,2021.1.3,59.99757608645396,
block,faces,faces040.bmp,,,,,0,56,56,56,,,,,,,,,,,,,,,,,,,,,,,,,,,,,,,,,,,,None,,203.81893199000623,None,203.81893199000623,None,2021-09-07-10:02:00.597004,203.84374489996117,204.1524386999663,203.84374489996117,None,None,203.84374489996117,None,204.63531358999316,None,,,,21001,0001,2021_Sep_07_0959,localizer,2021.1.3,59.99757608645396,
block,faces,faces063.bmp,,,,,0,57,57,57,,,,,,,,,,,,,,,,,,,,,,,,,,,,,,,,,,,,None,,204.63531358999316,None,204.63531358999316,None,2021-09-07-10:02:01.404233,204.64335989998654,204.95241939998232,204.64335989998654,None,None,204.64335989998654,None,205.45203738996642,None,,,,21001,0001,2021_Sep_07_0959,localizer,2021.1.3,59.99757608645396,
block,faces,faces027.bmp,,,,,0,58,58,58,,,,,,,,,,,,,,,,,,,,,,,,,,,,,,,,,,,,None,,205.45203738996642,None,205.45203738996642,None,2021-09-07-10:02:02.220848,205.46026599995093,205.76907449995633,205.46026599995093,None,None,205.46026599995093,None,206.26867258996353,None,,,,21001,0001,2021_Sep_07_0959,localizer,2021.1.3,59.99757608645396,
block,faces,faces027.bmp,,,,,0,59,59,59,,,,,,,,,,,,,,,,,,,,,,,,,,,,,,,,,,,,None,,206.26867258996353,None,206.26867258996353,None,2021-09-07-10:02:03.038150,206.26944909995655,206.5690475999727,206.26944909995655,None,y,206.26944909995655,None,207.06870008998666,None,0.504917900019791,,,21001,0001,2021_Sep_07_0959,localizer,2021.1.3,59.99757608645396,
block_end,faces,faces051.bmp,,,,,0,60,60,60,,,,,,,,,,,,,,,,,,,,,,,,,,,,,,,,,,,,None,,207.06870008998666,None,207.06870008998666,None,2021-09-07-10:02:03.839756,207.07850209996104,207.38545429997612,207.07850209996104,207.07850209996104,None,207.07850209996104,207.07850209996104,207.88563438999117,None,,,,21001,0001,2021_Sep_07_0959,localizer,2021.1.3,59.99757608645396,
null_block,null_block,null_block.bmp,,,,,0,61,61,61,,,,,,,,,,,,,,,,,,,,,,,,,,,,,,,,,,,,t,4.684062900021672,207.88567539997166,None,207.88567539997166,None,2021-09-07-10:02:09.360196,212.60229587996145,None,212.60229587996145,None,None,212.60229587996145,None,212.60082389996387,None,,,,21001,0001,2021_Sep_07_0959,localizer,2021.1.3,59.99757608645396,
block_start,scenes,scenes046.bmp,,,,,0,62,62,62,,,,,,,,,,,,,,,,,,,,,,,,,,,,,,,,,,,,t,4.168240400031209,224.6024470999837,None,224.6024470999837,None,2021-09-07-10:02:25.577568,228.81265639996855,229.11904199997662,228.81265639996855,None,None,228.81265639996855,None,229.6191769899975,None,,,,21001,0001,2021_Sep_07_0959,localizer,2021.1.3,59.99757608645396,
block,scenes,scenes064.bmp,,,,,0,63,63,63,,,,,,,,,,,,,,,,,,,,,,,,,,,,,,,,,,,,None,,229.6191769899975,None,229.6191769899975,None,2021-09-07-10:02:26.396115,229.63990359997842,229.9526856999728,229.63990359997842,None,None,229.63990359997842,None,230.43589828995172,None,,,,21001,0001,2021_Sep_07_0959,localizer,2021.1.3,59.99757608645396,
block,scenes,scenes075.bmp,,,,,0,64,64,64,,,,,,,,,,,,,,,,,,,,,,,,,,,,,,,,,,,,None,,230.43589828995172,None,230.43589828995172,None,2021-09-07-10:02:27.212678,230.4569362999755,230.7691834999714,230.4569362999755,None,None,230.4569362999755,None,231.2523309899785,None,,,,21001,0001,2021_Sep_07_0959,localizer,2021.1.3,59.99757608645396,
block,scenes,scenes083.bmp,,,,,0,65,65,65,,,,,,,,,,,,,,,,,,,,,,,,,,,,,,,,,,,,None,,231.2523309899785,None,231.2523309899785,None,2021-09-07-10:02:28.024284,231.2595373999793,231.5691701999749,231.2595373999793,None,None,231.2595373999793,None,232.0690148899972,None,,,,21001,0001,2021_Sep_07_0959,localizer,2021.1.3,59.99757608645396,
block,scenes,scenes015.bmp,,,,,0,66,66,66,,,,,,,,,,,,,,,,,,,,,,,,,,,,,,,,,,,,None,,232.0690148899972,None,232.0690148899972,None,2021-09-07-10:02:28.838170,232.06975969998166,232.36893219995545,232.06975969998166,None,None,232.06975969998166,None,232.8693148899998,None,,,,21001,0001,2021_Sep_07_0959,localizer,2021.1.3,59.99757608645396,
block,scenes,scenes018.bmp,,,,,0,67,67,67,,,,,,,,,,,,,,,,,,,,,,,,,,,,,,,,,,,,None,,232.8693148899998,None,232.8693148899998,None,2021-09-07-10:02:29.648213,232.89310839999234,233.20270229998278,232.89310839999234,232.89310839999234,None,232.89310839999234,232.89310839999234,233.68556159000727,None,,,,21001,0001,2021_Sep_07_0959,localizer,2021.1.3,59.99757608645396,
block,scenes,scenes027.bmp,,,,,0,68,68,68,,,,,,,,,,,,,,,,,,,,,,,,,,,,,,,,,,,,None,,233.68556159000727,None,233.68556159000727,None,2021-09-07-10:02:30.454505,233.69149279996054,234.00226119998842,233.69149279996054,None,None,233.69149279996054,None,234.5022670899576,None,,,,21001,0001,2021_Sep_07_0959,localizer,2021.1.3,59.99757608645396,
block,scenes,scenes041.bmp,,,,,0,69,69,69,,,,,,,,,,,,,,,,,,,,,,,,,,,,,,,,,,,,None,,234.5022670899576,None,234.5022670899576,None,2021-09-07-10:02:31.271824,234.5077617999632,234.8189228999545,234.5077617999632,None,None,234.5077617999632,None,235.31889878998626,None,,,,21001,0001,2021_Sep_07_0959,localizer,2021.1.3,59.99757608645396,
block,scenes,scenes088.bmp,,,,,0,70,70,70,,,,,,,,,,,,,,,,,,,,,,,,,,,,,,,,,,,,None,,235.31889878998626,None,235.31889878998626,None,2021-09-07-10:02:32.092469,235.3278232999728,235.63602759997593,235.3278232999728,None,None,235.3278232999728,None,236.1353729899798,None,,,,21001,0001,2021_Sep_07_0959,localizer,2021.1.3,59.99757608645396,
block,scenes,scenes061.bmp,,,,,0,71,71,71,,,,,,,,,,,,,,,,,,,,,,,,,,,,,,,,,,,,None,,236.1353729899798,None,236.1353729899798,None,2021-09-07-10:02:32.904920,236.1384966999758,236.4522858999553,236.1384966999758,None,None,236.1384966999758,None,236.9525750899862,None,,,,21001,0001,2021_Sep_07_0959,localizer,2021.1.3,59.99757608645396,
block,scenes,scenes019.bmp,,,,,0,72,72,72,,,,,,,,,,,,,,,,,,,,,,,,,,,,,,,,,,,,None,,236.9525750899862,None,236.9525750899862,None,2021-09-07-10:02:33.729671,236.98468349996256,237.28602259996114,236.98468349996256,None,None,236.98468349996256,None,237.7693517899548,None,,,,21001,0001,2021_Sep_07_0959,localizer,2021.1.3,59.99757608645396,
block,scenes,scenes052.bmp,,,,,0,73,73,73,,,,,,,,,,,,,,,,,,,,,,,,,,,,,,,,,,,,None,,237.7693517899548,None,237.7693517899548,None,2021-09-07-10:02:34.547264,237.79282829997828,238.1025494999485,237.79282829997828,None,None,237.79282829997828,None,238.58575588999665,None,,,,21001,0001,2021_Sep_07_0959,localizer,2021.1.3,59.99757608645396,
block,scenes,scenes008.bmp,,,,,0,74,74,74,,,,,,,,,,,,,,,,,,,,,,,,,,,,,,,,,,,,None,,238.58575588999665,None,238.58575588999665,None,2021-09-07-10:02:35.355742,238.5861858999706,238.8859942999552,238.5861858999706,None,None,238.5861858999706,None,239.38553629000089,None,,,,21001,0001,2021_Sep_07_0959,localizer,2021.1.3,59.99757608645396,
block,scenes,scenes009.bmp,,,,,0,75,75,75,,,,,,,,,,,,,,,,,,,,,,,,,,,,,,,,,,,,None,,239.38553629000089,None,239.38553629000089,None,2021-09-07-10:02:36.156148,239.3870969999698,239.68569169996772,239.3870969999698,239.3870969999698,None,239.3870969999698,239.3870969999698,240.20236528996028,None,,,,21001,0001,2021_Sep_07_0959,localizer,2021.1.3,59.99757608645396,
block_end,scenes,scenes092.bmp,,,,,0,76,76,76,,,,,,,,,,,,,,,,,,,,,,,,,,,,,,,,,,,,None,,240.20236528996028,None,240.20236528996028,None,2021-09-07-10:02:36.973311,240.21824939997168,240.51907129999017,240.21824939997168,None,None,240.21824939997168,None,241.01935998995904,None,,,,21001,0001,2021_Sep_07_0959,localizer,2021.1.3,59.99757608645396,
block_start,scrambled,scrambled041.bmp,,,,,0,77,77,77,,,,,,,,,,,,,,,,,,,,,,,,,,,,,,,,,,,,t,3.5083559000049718,241.01920659997268,None,241.01920659997268,None,2021-09-07-10:02:41.320403,244.553160499956,244.85231919999933,244.553160499956,None,None,244.553160499956,None,245.35280178998946,None,,,,21001,0001,2021_Sep_07_0959,localizer,2021.1.3,59.99757608645396,
block,scrambled,scrambled027.bmp,,,,,0,78,78,78,,,,,,,,,,,,,,,,,,,,,,,,,,,,,,,,,,,,None,,245.35280178998946,None,245.35280178998946,None,2021-09-07-10:02:42.131909,245.36522639996838,245.66930849995697,245.36522639996838,245.36522639996838,None,245.36522639996838,245.36522639996838,246.16929868998122,None,,,,21001,0001,2021_Sep_07_0959,localizer,2021.1.3,59.99757608645396,
block,scrambled,scrambled044.bmp,,,,,0,79,79,79,,,,,,,,,,,,,,,,,,,,,,,,,,,,,,,,,,,,None,,246.16929868998122,None,246.16929868998122,None,2021-09-07-10:02:42.946248,246.18635249999352,246.4861195999547,246.18635249999352,None,None,246.18635249999352,None,246.9859561899735,None,,,,21001,0001,2021_Sep_07_0959,localizer,2021.1.3,59.99757608645396,
block,scrambled,scrambled031.bmp,,,,,0,80,80,80,,,,,,,,,,,,,,,,,,,,,,,,,,,,,,,,,,,,None,,246.9859561899735,None,246.9859561899735,None,2021-09-07-10:02:43.763293,247.00227379996795,247.30276579997735,247.00227379996795,None,None,247.00227379996795,None,247.80234688997152,None,,,,21001,0001,2021_Sep_07_0959,localizer,2021.1.3,59.99757608645396,
block,scrambled,scrambled022.bmp,,,,,0,81,81,81,,,,,,,,,,,,,,,,,,,,,,,,,,,,,,,,,,,,None,,247.80234688997152,None,247.80234688997152,None,2021-09-07-10:02:44.571464,247.8029785999679,248.10258929996053,247.8029785999679,None,None,247.8029785999679,None,248.60255738999112,None,,,,21001,0001,2021_Sep_07_0959,localizer,2021.1.3,59.99757608645396,
block,scrambled,scrambled060.bmp,,,,,0,82,82,82,,,,,,,,,,,,,,,,,,,,,,,,,,,,,,,,,,,,None,,248.60255738999112,None,248.60255738999112,None,2021-09-07-10:02:45.378751,248.61051579995546,248.91917869995814,248.61051579995546,248.61051579995546,None,248.61051579995546,248.61051579995546,249.4194324899523,None,,,,21001,0001,2021_Sep_07_0959,localizer,2021.1.3,59.99757608645396,
block,scrambled,scrambled068.bmp,,,,,0,83,83,83,,,,,,,,,,,,,,,,,,,,,,,,,,,,,,,,,,,,None,,249.4194324899523,None,249.4194324899523,None,2021-09-07-10:02:46.197082,249.45215299999109,249.75275369995506,249.45215299999109,None,None,249.45215299999109,None,250.23606338997487,None,,,,21001,0001,2021_Sep_07_0959,localizer,2021.1.3,59.99757608645396,
block,scrambled,scrambled082.bmp,,,,,0,84,84,84,,,,,,,,,,,,,,,,,,,,,,,,,,,,,,,,,,,,None,,250.23606338997487,None,250.23606338997487,None,2021-09-07-10:02:47.014057,250.25323519995436,250.55277529999148,250.25323519995436,None,None,250.25323519995436,None,251.05248968995292,None,,,,21001,0001,2021_Sep_07_0959,localizer,2021.1.3,59.99757608645396,
block,scrambled,scrambled087.bmp,,,,,0,85,85,85,,,,,,,,,,,,,,,,,,,,,,,,,,,,,,,,,,,,None,,251.05248968995292,None,251.05248968995292,None,2021-09-07-10:02:47.823767,251.05778380000265,251.36923670000397,251.05778380000265,None,None,251.05778380000265,None,251.8691963899706,None,,,,21001,0001,2021_Sep_07_0959,localizer,2021.1.3,59.99757608645396,
block,scrambled,scrambled067.bmp,,,,,0,86,86,86,,,,,,,,,,,,,,,,,,,,,,,,,,,,,,,,,,,,None,,251.8691963899706,None,251.8691963899706,None,2021-09-07-10:02:48.639379,251.87450639996678,252.18586659996072,251.87450639996678,None,None,251.87450639996678,None,252.68613338999566,None,,,,21001,0001,2021_Sep_07_0959,localizer,2021.1.3,59.99757608645396,
block,scrambled,scrambled019.bmp,,,,,0,87,87,87,,,,,,,,,,,,,,,,,,,,,,,,,,,,,,,,,,,,None,,252.68613338999566,None,252.68613338999566,None,2021-09-07-10:02:49.463085,252.71717319998425,253.01948109996738,252.71717319998425,None,None,252.71717319998425,None,253.5026652899629,None,,,,21001,0001,2021_Sep_07_0959,localizer,2021.1.3,59.99757608645396,
block,scrambled,scrambled007.bmp,,,,,0,88,88,88,,,,,,,,,,,,,,,,,,,,,,,,,,,,,,,,,,,,None,,253.5026652899629,None,253.5026652899629,None,2021-09-07-10:02:50.279858,253.52304749999894,253.8360101999715,253.52304749999894,None,None,253.52304749999894,None,254.31915808998164,None,,,,21001,0001,2021_Sep_07_0959,localizer,2021.1.3,59.99757608645396,
block,scrambled,scrambled079.bmp,,,,,0,89,89,89,,,,,,,,,,,,,,,,,,,,,,,,,,,,,,,,,,,,None,,254.31915808998164,None,254.31915808998164,None,2021-09-07-10:02:51.088918,254.3218443999649,254.63601029996062,254.3218443999649,None,y,254.3218443999649,None,255.1358368899615,None,0.4600781000335701,,,21001,0001,2021_Sep_07_0959,localizer,2021.1.3,59.99757608645396,
block,scrambled,scrambled020.bmp,,,,,0,90,90,90,,,,,,,,,,,,,,,,,,,,,,,,,,,,,,,,,,,,None,,255.1358368899615,None,255.1358368899615,None,2021-09-07-10:02:51.905864,255.14108019997366,255.45255159999942,255.14108019997366,None,None,255.14108019997366,None,255.9528203899914,None,,,,21001,0001,2021_Sep_07_0959,localizer,2021.1.3,59.99757608645396,
block_end,scrambled,scrambled062.bmp,,,,,0,91,91,91,,,,,,,,,,,,,,,,,,,,,,,,,,,,,,,,,,,,None,,255.9528203899914,None,255.9528203899914,None,2021-09-07-10:02:52.729836,255.96306509996066,256.26953519997187,255.96306509996066,None,None,255.96306509996066,None,256.7694925899792,None,,,,21001,0001,2021_Sep_07_0959,localizer,2021.1.3,59.99757608645396,
block_start,faces,faces052.bmp,,,,,0,92,92,92,,,,,,,,,,,,,,,,,,,,,,,,,,,,,,,,,,,,t,3.861902699980419,256.7694351999671,None,256.7694351999671,None,2021-09-07-10:02:57.427709,260.6889710999676,261.00270379998256,260.6889710999676,None,None,260.6889710999676,None,261.4694945900061,None,,,,21001,0001,2021_Sep_07_0959,localizer,2021.1.3,59.99757608645396,
block,faces,faces006.bmp,,,,,0,93,93,93,,,,,,,,,,,,,,,,,,,,,,,,,,,,,,,,,,,,None,,261.4694945900061,None,261.4694945900061,None,2021-09-07-10:02:58.246958,261.49165879999055,261.8028354999842,261.49165879999055,None,None,261.49165879999055,None,262.2862420899852,None,,,,21001,0001,2021_Sep_07_0959,localizer,2021.1.3,59.99757608645396,
block,faces,faces062.bmp,,,,,0,94,94,94,,,,,,,,,,,,,,,,,,,,,,,,,,,,,,,,,,,,None,,262.2862420899852,None,262.2862420899852,None,2021-09-07-10:02:59.063249,262.31864819995826,262.61934409994865,262.31864819995826,None,None,262.31864819995826,None,263.10269038995614,None,,,,21001,0001,2021_Sep_07_0959,localizer,2021.1.3,59.99757608645396,
block,faces,faces057.bmp,,,,,0,95,95,95,,,,,,,,,,,,,,,,,,,,,,,,,,,,,,,,,,,,None,,263.10269038995614,None,263.10269038995614,None,2021-09-07-10:02:59.879147,263.11668029997963,263.41948270000285,263.11668029997963,None,None,263.11668029997963,None,263.91940238995596,None,,,,21001,0001,2021_Sep_07_0959,localizer,2021.1.3,59.99757608645396,
block,faces,faces018.bmp,,,,,0,96,96,96,,,,,,,,,,,,,,,,,,,,,,,,,,,,,,,,,,,,None,,263.91940238995596,None,263.91940238995596,None,2021-09-07-10:03:00.688722,263.9238593999762,264.2359554999857,263.9238593999762,None,None,263.9238593999762,None,264.7361870899855,None,,,,21001,0001,2021_Sep_07_0959,localizer,2021.1.3,59.99757608645396,
block,faces,faces069.bmp,,,,,0,97,97,97,,,,,,,,,,,,,,,,,,,,,,,,,,,,,,,,,,,,None,,264.7361870899855,None,264.7361870899855,None,2021-09-07-10:03:01.513168,264.76962759997696,265.06961029995,264.76962759997696,None,None,264.76962759997696,None,265.5529079899949,None,,,,21001,0001,2021_Sep_07_0959,localizer,2021.1.3,59.99757608645396,
block,faces,faces045.bmp,,,,,0,98,98,98,,,,,,,,,,,,,,,,,,,,,,,,,,,,,,,,,,,,None,,265.5529079899949,None,265.5529079899949,None,2021-09-07-10:03:02.330884,265.58743539999705,265.8862266999786,265.58743539999705,None,None,265.58743539999705,None,266.3694773899566,None,,,,21001,0001,2021_Sep_07_0959,localizer,2021.1.3,59.99757608645396,
block,faces,faces071.bmp,,,,,0,99,99,99,,,,,,,,,,,,,,,,,,,,,,,,,,,,,,,,,,,,None,,266.3694773899566,None,266.3694773899566,None,2021-09-07-10:03:03.146456,266.39102479995927,266.702753999969,266.39102479995927,None,None,266.39102479995927,None,267.18605668999373,None,,,,21001,0001,2021_Sep_07_0959,localizer,2021.1.3,59.99757608645396,
block,faces,faces017.bmp,,,,,0,100,100,100,,,,,,,,,,,,,,,,,,,,,,,,,,,,,,,,,,,,None,,267.18605668999373,None,267.18605668999373,None,2021-09-07-10:03:03.955124,267.1879829999525,267.5024591999827,267.1879829999525,None,None,267.1879829999525,None,268.0027670899814,None,,,,21001,0001,2021_Sep_07_0959,localizer,2021.1.3,59.99757608645396,
block,faces,faces061.bmp,,,,,0,101,101,101,,,,,,,,,,,,,,,,,,,,,,,,,,,,,,,,,,,,None,,268.0027670899814,None,268.0027670899814,None,2021-09-07-10:03:04.779810,268.0385876999935,268.35289629996987,268.0385876999935,None,None,268.0385876999935,None,268.8194591900043,None,,,,21001,0001,2021_Sep_07_0959,localizer,2021.1.3,59.99757608645396,
block,faces,faces033.bmp,,,,,0,102,102,102,,,,,,,,,,,,,,,,,,,,,,,,,,,,,,,,,,,,None,,268.8194591900043,None,268.8194591900043,None,2021-09-07-10:03:05.596497,268.87721459998284,269.1861964999698,268.87721459998284,None,None,268.87721459998284,None,269.6360531899787,None,,,,21001,0001,2021_Sep_07_0959,localizer,2021.1.3,59.99757608645396,
block,faces,faces089.bmp,,,,,0,103,103,103,,,,,,,,,,,,,,,,,,,,,,,,,,,,,,,,,,,,None,,269.6360531899787,None,269.6360531899787,None,2021-09-07-10:03:06.413335,269.66374649998033,269.96960289997514,269.66374649998033,None,None,269.66374649998033,None,270.45217498996647,None,,,,21001,0001,2021_Sep_07_0959,localizer,2021.1.3,59.99757608645396,
block,faces,faces035.bmp,,,,,0,104,104,104,,,,,,,,,,,,,,,,,,,,,,,,,,,,,,,,,,,,None,,270.45217498996647,None,270.45217498996647,None,2021-09-07-10:03:07.221268,270.45585139998,270.769192799984,270.45585139998,None,None,270.45585139998,None,271.2693666899519,None,,,,21001,0001,2021_Sep_07_0959,localizer,2021.1.3,59.99757608645396,
block,faces,faces031.bmp,,,,,0,105,105,105,,,,,,,,,,,,,,,,,,,,,,,,,,,,,,,,,,,,None,,271.2693666899519,None,271.2693666899519,None,2021-09-07-10:03:08.044406,271.2955952999764,271.6027919999906,271.2955952999764,None,None,271.2955952999764,None,272.08631398999717,None,,,,21001,0001,2021_Sep_07_0959,localizer,2021.1.3,59.99757608645396,
block_end,faces,faces027.bmp,,,,,0,106,106,106,,,,,,,,,,,,,,,,,,,,,,,,,,,,,,,,,,,,None,,272.08631398999717,None,272.08631398999717,None,2021-09-07-10:03:08.863306,272.0966150999884,272.4029377999832,272.0966150999884,None,None,272.0966150999884,None,272.9029035899963,None,,,,21001,0001,2021_Sep_07_0959,localizer,2021.1.3,59.99757608645396,
block_start,objects,objects001.bmp,,,,,0,107,107,107,,,,,,,,,,,,,,,,,,,,,,,,,,,,,,,,,,,,t,4.126249199965969,272.9029120999621,None,272.9029120999621,None,2021-09-07-10:03:13.821175,277.0567441000021,277.36927809996996,277.0567441000021,None,None,277.0567441000021,None,277.86945768998123,None,,,,21001,0001,2021_Sep_07_0959,localizer,2021.1.3,59.99757608645396,
block,objects,objects010.bmp,,,,,0,108,108,108,,,,,,,,,,,,,,,,,,,,,,,,,,,,,,,,,,,,None,,277.86945768998123,None,277.86945768998123,None,2021-09-07-10:03:14.645669,277.89967199997045,278.2027855999768,277.89967199997045,None,None,277.89967199997045,None,278.68630368995366,None,,,,21001,0001,2021_Sep_07_0959,localizer,2021.1.3,59.99757608645396,
block,objects,objects014.bmp,,,,,0,109,109,109,,,,,,,,,,,,,,,,,,,,,,,,,,,,,,,,,,,,None,,278.68630368995366,None,278.68630368995366,None,2021-09-07-10:03:15.464310,278.71894519997295,279.0196294999914,278.71894519997295,None,None,278.71894519997295,None,279.50298728997006,None,,,,21001,0001,2021_Sep_07_0959,localizer,2021.1.3,59.99757608645396,
block,objects,objects076.bmp,,,,,0,110,110,110,,,,,,,,,,,,,,,,,,,,,,,,,,,,,,,,,,,,None,,279.50298728997006,None,279.50298728997006,None,2021-09-07-10:03:16.281229,279.511413500004,279.819614499982,279.511413500004,None,None,279.511413500004,None,280.31931928998677,None,,,,21001,0001,2021_Sep_07_0959,localizer,2021.1.3,59.99757608645396,
block,objects,objects055.bmp,,,,,0,111,111,111,,,,,,,,,,,,,,,,,,,,,,,,,,,,,,,,,,,,None,,280.31931928998677,None,280.31931928998677,None,2021-09-07-10:03:17.089973,280.3200819999911,280.6195154999732,280.3200819999911,None,None,280.3200819999911,None,281.1194073900057,None,,,,21001,0001,2021_Sep_07_0959,localizer,2021.1.3,59.99757608645396,
block,objects,objects030.bmp,,,,,0,112,112,112,,,,,,,,,,,,,,,,,,,,,,,,,,,,,,,,,,,,None,,281.1194073900057,None,281.1194073900057,None,2021-09-07-10:03:17.890500,281.1227072000038,281.43592829996487,281.1227072000038,281.1227072000038,None,281.1227072000038,281.1227072000038,281.9363853899937,None,,,,21001,0001,2021_Sep_07_0959,localizer,2021.1.3,59.99757608645396,
block,objects,objects085.bmp,,,,,0,113,113,113,,,,,,,,,,,,,,,,,,,,,,,,,,,,,,,,,,,,None,,281.9363853899937,None,281.9363853899937,None,2021-09-07-10:03:18.713401,281.9635859999689,282.2696530999965,281.9635859999689,None,None,281.9635859999689,None,282.75293898995153,None,,,,21001,0001,2021_Sep_07_0959,localizer,2021.1.3,59.99757608645396,
block,objects,objects038.bmp,,,,,0,114,114,114,,,,,,,,,,,,,,,,,,,,,,,,,,,,,,,,,,,,None,,282.75293898995153,None,282.75293898995153,None,2021-09-07-10:03:19.530953,282.7849318999797,283.08628950000275,282.7849318999797,None,None,282.7849318999797,None,283.56946058995675,None,,,,21001,0001,2021_Sep_07_0959,localizer,2021.1.3,59.99757608645396,
block,objects,objects026.bmp,,,,,0,115,115,115,,,,,,,,,,,,,,,,,,,,,,,,,,,,,,,,,,,,None,,283.56946058995675,None,283.56946058995675,None,2021-09-07-10:03:20.347556,283.5957635999657,283.90296479995595,283.5957635999657,None,None,283.5957635999657,None,284.38599718995977,None,,,,21001,0001,2021_Sep_07_0959,localizer,2021.1.3,59.99757608645396,
block,objects,objects061.bmp,,,,,0,116,116,116,,,,,,,,,,,,,,,,,,,,,,,,,,,,,,,,,,,,None,,284.38599718995977,None,284.38599718995977,None,2021-09-07-10:03:21.155064,284.3861903999932,284.6861884999671,284.3861903999932,None,None,284.3861903999932,None,285.1860922899738,None,,,,21001,0001,2021_Sep_07_0959,localizer,2021.1.3,59.99757608645396,
block,objects,objects048.bmp,,,,,0,117,117,117,,,,,,,,,,,,,,,,,,,,,,,,,,,,,,,,,,,,None,,285.1860922899738,None,285.1860922899738,None,2021-09-07-10:03:21.958188,285.19970870000543,285.502778199967,285.19970870000543,285.19970870000543,None,285.19970870000543,285.19970870000543,286.0029082900088,None,,,,21001,0001,2021_Sep_07_0959,localizer,2021.1.3,59.99757608645396,
block,objects,objects077.bmp,,,,,0,118,118,118,,,,,,,,,,,,,,,,,,,,,,,,,,,,,,,,,,,,None,,286.0029082900088,None,286.0029082900088,None,2021-09-07-10:03:22.780111,286.03207109996583,286.336312600004,286.03207109996583,None,None,286.03207109996583,None,286.81956878996573,None,,,,21001,0001,2021_Sep_07_0959,localizer,2021.1.3,59.99757608645396,
block,objects,objects077.bmp,,,,,0,119,119,119,,,,,,,,,,,,,,,,,,,,,,,,,,,,,,,,,,,,None,,286.81956878996573,None,286.81956878996573,None,2021-09-07-10:03:23.596155,286.82927779998863,287.13629219995346,286.82927779998863,None,None,286.82927779998863,None,287.6361706900003,None,,,,21001,0001,2021_Sep_07_0959,localizer,2021.1.3,59.99757608645396,
block,objects,objects009.bmp,,,,,0,120,120,120,,,,,,,,,,,,,,,,,,,,,,,,,,,,,,,,,,,,None,,287.6361706900003,None,287.6361706900003,None,2021-09-07-10:03:24.410419,287.64689589996124,287.9528938999865,287.64689589996124,None,None,287.64689589996124,None,288.4527634899656,None,,,,21001,0001,2021_Sep_07_0959,localizer,2021.1.3,59.99757608645396,
block_end,objects,objects008.bmp,,,,,0,121,121,121,,,,,,,,,,,,,,,,,,,,,,,,,,,,,,,,,,,,None,,288.4527634899656,None,288.4527634899656,None,2021-09-07-10:03:25.222866,288.45892829995137,288.76945819996763,288.45892829995137,None,None,288.45892829995137,None,289.26970048999067,None,,,,21001,0001,2021_Sep_07_0959,localizer,2021.1.3,59.99757608645396,
block_start,scrambled,scrambled051.bmp,,,,,0,122,122,122,,,,,,,,,,,,,,,,,,,,,,,,,,,,,,,,,,,,t,5.155228300020099,289.2696742999833,None,289.2696742999833,None,2021-09-07-10:03:31.227753,294.4846104999888,294.7863882999518,294.4846104999888,None,None,294.4846104999888,None,295.2696289899701,None,,,,21001,0001,2021_Sep_07_0959,localizer,2021.1.3,59.99757608645396,
block,scrambled,scrambled059.bmp,,,,,0,123,123,123,,,,,,,,,,,,,,,,,,,,,,,,,,,,,,,,,,,,None,,295.2696289899701,None,295.2696289899701,None,2021-09-07-10:03:32.046132,295.2895961999893,295.60301769996295,295.2895961999893,None,None,295.2895961999893,None,296.086049989966,None,,,,21001,0001,2021_Sep_07_0959,localizer,2021.1.3,59.99757608645396,
block,scrambled,scrambled059.bmp,,,,,0,124,124,124,,,,,,,,,,,,,,,,,,,,,,,,,,,,,,,,,,,,None,,296.086049989966,None,296.086049989966,None,2021-09-07-10:03:32.855681,296.0866458999808,296.38607229996705,296.0866458999808,None,y,296.0866458999808,None,296.88622988998543,None,0.6235794000094756,,,21001,0001,2021_Sep_07_0959,localizer,2021.1.3,59.99757608645396,
block,scrambled,scrambled025.bmp,,,,,0,125,125,125,,,,,,,,,,,,,,,,,,,,,,,,,,,,,,,,,,,,None,,296.88622988998543,None,296.88622988998543,None,2021-09-07-10:03:33.663329,296.901667499973,297.2028263999964,296.901667499973,296.901667499973,None,296.901667499973,296.901667499973,297.7030892900017,None,,,,21001,0001,2021_Sep_07_0959,localizer,2021.1.3,59.99757608645396,
block,scrambled,scrambled078.bmp,,,,,0,126,126,126,,,,,,,,,,,,,,,,,,,,,,,,,,,,,,,,,,,,None,,297.7030892900017,None,297.7030892900017,None,2021-09-07-10:03:34.480200,297.7344344999874,298.03644479997456,297.7344344999874,None,None,297.7344344999874,None,298.5197632900032,None,,,,21001,0001,2021_Sep_07_0959,localizer,2021.1.3,59.99757608645396,
block,scrambled,scrambled070.bmp,,,,,0,127,127,127,,,,,,,,,,,,,,,,,,,,,,,,,,,,,,,,,,,,None,,298.5197632900032,None,298.5197632900032,None,2021-09-07-10:03:35.296819,298.5517568999785,298.85299240000313,298.5517568999785,None,None,298.5517568999785,None,299.3362171899586,None,,,,21001,0001,2021_Sep_07_0959,localizer,2021.1.3,59.99757608645396,
block,scrambled,scrambled055.bmp,,,,,0,128,128,128,,,,,,,,,,,,,,,,,,,,,,,,,,,,,,,,,,,,None,,299.3362171899586,None,299.3362171899586,None,2021-09-07-10:03:36.112223,299.3494199999841,299.6530202999711,299.3494199999841,None,None,299.3494199999841,None,300.1527076899598,None,,,,21001,0001,2021_Sep_07_0959,localizer,2021.1.3,59.99757608645396,
block,scrambled,scrambled020.bmp,,,,,0,129,129,129,,,,,,,,,,,,,,,,,,,,,,,,,,,,,,,,,,,,None,,300.1527076899598,None,300.1527076899598,None,2021-09-07-10:03:36.922035,300.1534466999583,300.45293879997917,300.1534466999583,None,None,300.1534466999583,None,300.9531461899693,None,,,,21001,0001,2021_Sep_07_0959,localizer,2021.1.3,59.99757608645396,
block,scrambled,scrambled084.bmp,,,,,0,130,130,130,,,,,,,,,,,,,,,,,,,,,,,,,,,,,,,,,,,,None,,300.9531461899693,None,300.9531461899693,None,2021-09-07-10:03:37.732204,300.9905091999681,301.3029453000054,300.9905091999681,300.9905091999681,None,300.9905091999681,300.9905091999681,301.7697821899725,None,,,,21001,0001,2021_Sep_07_0959,localizer,2021.1.3,59.99757608645396,
block,scrambled,scrambled072.bmp,,,,,0,131,131,131,,,,,,,,,,,,,,,,,,,,,,,,,,,,,,,,,,,,None,,301.7697821899725,None,301.7697821899725,None,2021-09-07-10:03:38.547874,301.7809519000002,302.0864835999673,301.7809519000002,None,None,301.7809519000002,None,302.58643818995336,None,,,,21001,0001,2021_Sep_07_0959,localizer,2021.1.3,59.99757608645396,
block,scrambled,scrambled044.bmp,,,,,0,132,132,132,,,,,,,,,,,,,,,,,,,,,,,,,,,,,,,,,,,,None,,302.58643818995336,None,302.58643818995336,None,2021-09-07-10:03:39.363691,302.5965695999912,302.9031954999664,302.5965695999912,None,None,302.5965695999912,None,303.40278388995796,None,,,,21001,0001,2021_Sep_07_0959,localizer,2021.1.3,59.99757608645396,
block,scrambled,scrambled026.bmp,,,,,0,133,133,133,,,,,,,,,,,,,,,,,,,,,,,,,,,,,,,,,,,,None,,303.40278388995796,None,303.40278388995796,None,2021-09-07-10:03:40.173922,303.4061829999555,303.7196573999827,303.4061829999555,None,None,303.4061829999555,None,304.21965539000814,None,,,,21001,0001,2021_Sep_07_0959,localizer,2021.1.3,59.99757608645396,
block,scrambled,scrambled014.bmp,,,,,0,134,134,134,,,,,,,,,,,,,,,,,,,,,,,,,,,,,,,,,,,,None,,304.21965539000814,None,304.21965539000814,None,2021-09-07-10:03:40.992986,304.23929939995287,304.55288410000503,304.23929939995287,None,None,304.23929939995287,None,305.03650429000265,None,,,,21001,0001,2021_Sep_07_0959,localizer,2021.1.3,59.99757608645396,
block,scrambled,scrambled076.bmp,,,,,0,135,135,135,,,,,,,,,,,,,,,,,,,,,,,,,,,,,,,,,,,,None,,305.03650429000265,None,305.03650429000265,None,2021-09-07-10:03:41.813735,305.05698609998217,305.3698386999895,305.05698609998217,None,y,305.05698609998217,None,305.85310118999917,None,0.6397705999552272,,,21001,0001,2021_Sep_07_0959,localizer,2021.1.3,59.99757608645396,
block_end,scrambled,scrambled006.bmp,,,,,0,136,136,136,,,,,,,,,,,,,,,,,,,,,,,,,,,,,,,,,,,,None,,305.85310118999917,None,305.85310118999917,None,2021-09-07-10:03:42.630052,305.8631428999943,306.16980919998605,305.8631428999943,None,None,305.8631428999943,None,306.66942878998236,None,,,,21001,0001,2021_Sep_07_0959,localizer,2021.1.3,59.99757608645396,
block_start,scenes,scenes028.bmp,,,,,0,137,137,137,,,,,,,,,,,,,,,,,,,,,,,,,,,,,,,,,,,,t,3.493542600015644,306.66942649998236,None,306.66942649998236,None,2021-09-07-10:03:46.961609,310.2180246000062,310.5199311999604,310.2180246000062,None,None,310.2180246000062,None,311.0030115899805,None,,,,21001,0001,2021_Sep_07_0959,localizer,2021.1.3,59.99757608645396,
block,scenes,scenes017.bmp,,,,,0,138,138,138,,,,,,,,,,,,,,,,,,,,,,,,,,,,,,,,,,,,None,,311.0030115899805,None,311.0030115899805,None,2021-09-07-10:03:47.777864,311.0159525999916,311.3198244999512,311.0159525999916,None,None,311.0159525999916,None,311.81955788999915,None,,,,21001,0001,2021_Sep_07_0959,localizer,2021.1.3,59.99757608645396,
block,scenes,scenes090.bmp,,,,,0,139,139,139,,,,,,,,,,,,,,,,,,,,,,,,,,,,,,,,,,,,None,,311.81955788999915,None,311.81955788999915,None,2021-09-07-10:03:48.589331,311.82089420000557,312.11970429995563,311.82089420000557,None,None,311.82089420000557,None,312.6365173899627,None,,,,21001,0001,2021_Sep_07_0959,localizer,2021.1.3,59.99757608645396,
block,scenes,scenes058.bmp,,,,,0,140,140,140,,,,,,,,,,,,,,,,,,,,,,,,,,,,,,,,,,,,None,,312.6365173899627,None,312.6365173899627,None,2021-09-07-10:03:49.414160,312.6691096999566,312.96975339995697,312.6691096999566,None,None,312.6691096999566,None,313.45310308999035,None,,,,21001,0001,2021_Sep_07_0959,localizer,2021.1.3,59.99757608645396,
block,scenes,scenes022.bmp,,,,,0,141,141,141,,,,,,,,,,,,,,,,,,,,,,,,,,,,,,,,,,,,None,,313.45310308999035,None,313.45310308999035,None,2021-09-07-10:03:50.230370,313.4623517,313.7699896999984,313.4623517,None,None,313.4623517,None,314.26989048998223,None,,,,21001,0001,2021_Sep_07_0959,localizer,2021.1.3,59.99757608645396,
block,scenes,scenes067.bmp,,,,,0,142,142,142,,,,,,,,,,,,,,,,,,,,,,,,,,,,,,,,,,,,None,,314.26989048998223,None,314.26989048998223,None,2021-09-07-10:03:51.047166,314.30248379998375,314.60323919996154,314.30248379998375,None,None,314.30248379998375,None,315.08616468996627,None,,,,21001,0001,2021_Sep_07_0959,localizer,2021.1.3,59.99757608645396,
block,scenes,scenes089.bmp,,,,,0,143,143,143,,,,,,,,,,,,,,,,,,,,,,,,,,,,,,,,,,,,None,,315.08616468996627,None,315.08616468996627,None,2021-09-07-10:03:51.856161,315.0883526999969,315.4030647999607,315.0883526999969,None,None,315.0883526999969,None,315.9029760899663,None,,,,21001,0001,2021_Sep_07_0959,localizer,2021.1.3,59.99757608645396,
block,scenes,scenes084.bmp,,,,,0,144,144,144,,,,,,,,,,,,,,,,,,,,,,,,,,,,,,,,,,,,None,,315.9029760899663,None,315.9029760899663,None,2021-09-07-10:03:52.673550,315.90372489998117,316.2028350000037,315.90372489998117,None,None,315.90372489998117,None,316.70320608995974,None,,,,21001,0001,2021_Sep_07_0959,localizer,2021.1.3,59.99757608645396,
block,scenes,scenes087.bmp,,,,,0,145,145,145,,,,,,,,,,,,,,,,,,,,,,,,,,,,,,,,,,,,None,,316.70320608995974,None,316.70320608995974,None,2021-09-07-10:03:53.482481,316.71591939998325,317.0198331999709,316.71591939998325,316.71591939998325,None,316.71591939998325,316.71591939998325,317.5199582899746,None,,,,21001,0001,2021_Sep_07_0959,localizer,2021.1.3,59.99757608645396,
block,scenes,scenes042.bmp,,,,,0,146,146,146,,,,,,,,,,,,,,,,,,,,,,,,,,,,,,,,,,,,None,,317.5199582899746,None,317.5199582899746,None,2021-09-07-10:03:54.297058,317.5524313999922,317.85308479995,317.5524313999922,None,None,317.5524313999922,None,318.33625058998007,None,,,,21001,0001,2021_Sep_07_0959,localizer,2021.1.3,59.99757608645396,
block,scenes,scenes008.bmp,,,,,0,147,147,147,,,,,,,,,,,,,,,,,,,,,,,,,,,,,,,,,,,,None,,318.33625058998007,None,318.33625058998007,None,2021-09-07-10:03:55.106835,318.33686149999266,318.63647309999214,318.33686149999266,None,None,318.33686149999266,None,319.13633248995177,None,,,,21001,0001,2021_Sep_07_0959,localizer,2021.1.3,59.99757608645396,
block,scenes,scenes018.bmp,,,,,0,148,148,148,,,,,,,,,,,,,,,,,,,,,,,,,,,,,,,,,,,,None,,319.13633248995177,None,319.13633248995177,None,2021-09-07-10:03:55.907514,319.1369499999564,319.43621989997337,319.1369499999564,319.1369499999564,None,319.1369499999564,319.1369499999564,319.93659628996977,None,,,,21001,0001,2021_Sep_07_0959,localizer,2021.1.3,59.99757608645396,
block,scenes,scenes039.bmp,,,,,0,149,149,149,,,,,,,,,,,,,,,,,,,,,,,,,,,,,,,,,,,,None,,319.93659628996977,None,319.93659628996977,None,2021-09-07-10:03:56.715877,319.9591807999532,320.26969459996326,319.9591807999532,319.9591807999532,None,319.9591807999532,319.9591807999532,320.75339018995294,None,,,,21001,0001,2021_Sep_07_0959,localizer,2021.1.3,59.99757608645396,
block,scenes,scenes073.bmp,,,,,0,150,150,150,,,,,,,,,,,,,,,,,,,,,,,,,,,,,,,,,,,,None,,320.75339018995294,None,320.75339018995294,None,2021-09-07-10:03:57.531428,320.78916559997015,321.1033336999826,320.78916559997015,None,None,320.78916559997015,None,321.5698405899981,None,,,,21001,0001,2021_Sep_07_0959,localizer,2021.1.3,59.99757608645396,
block_end,scenes,scenes034.bmp,,,,,0,151,151,151,,,,,,,,,,,,,,,,,,,,,,,,,,,,,,,,,,,,None,,321.5698405899981,None,321.5698405899981,None,2021-09-07-10:03:58.346435,321.5866568000056,321.8865830999566,321.5866568000056,None,None,321.5866568000056,None,322.3863954899658,None,,,,21001,0001,2021_Sep_07_0959,localizer,2021.1.3,59.99757608645396,
null_block,null_block,null_block.bmp,,,,,0,152,152,152,,,,,,,,,,,,,,,,,,,,,,,,,,,,,,,,,,,,t,3.1453976999619044,322.3862521999981,None,322.3862521999981,None,2021-09-07-10:04:02.327489,325.56998337996197,None,325.56998337996197,None,None,325.56998337996197,None,325.5710024999571,None,,,,21001,0001,2021_Sep_07_0959,localizer,2021.1.3,59.99757608645396,
block_start,faces,faces001.bmp,,,,,0,153,153,153,,,,,,,,,,,,,,,,,,,,,,,,,,,,,,,,,,,,t,0.23028670001076534,337.5699241999537,None,337.5699241999537,None,2021-09-07-10:04:14.592039,337.828412199975,338.13653079996584,337.828412199975,None,None,337.828412199975,None,338.63652198999773,None,,,,21001,0001,2021_Sep_07_0959,localizer,2021.1.3,59.99757608645396,
block,faces,faces060.bmp,,,,,0,154,154,154,,,,,,,,,,,,,,,,,,,,,,,,,,,,,,,,,,,,None,,338.63652198999773,None,338.63652198999773,None,2021-09-07-10:04:15.408730,338.663772800006,338.97011669998756,338.663772800006,None,None,338.663772800006,None,339.453466689965,None,,,,21001,0001,2021_Sep_07_0959,localizer,2021.1.3,59.99757608645396,
block,faces,faces058.bmp,,,,,0,155,155,155,,,,,,,,,,,,,,,,,,,,,,,,,,,,,,,,,,,,None,,339.453466689965,None,339.453466689965,None,2021-09-07-10:04:16.231647,339.48931370000355,339.8034483999945,339.48931370000355,None,None,339.48931370000355,None,340.26966148998474,None,,,,21001,0001,2021_Sep_07_0959,localizer,2021.1.3,59.99757608645396,
block,faces,faces039.bmp,,,,,0,156,156,156,,,,,,,,,,,,,,,,,,,,,,,,,,,,,,,,,,,,None,,340.26966148998474,None,340.26966148998474,None,2021-09-07-10:04:17.038832,340.2703697999823,340.5699272999773,340.2703697999823,None,None,340.2703697999823,None,341.06985068995857,None,,,,21001,0001,2021_Sep_07_0959,localizer,2021.1.3,59.99757608645396,
block,faces,faces043.bmp,,,,,0,157,157,157,,,,,,,,,,,,,,,,,,,,,,,,,,,,,,,,,,,,None,,341.06985068995857,None,341.06985068995857,None,2021-09-07-10:04:17.842279,341.07232779997867,341.38656600000104,341.07232779997867,341.07232779997867,None,341.07232779997867,341.07232779997867,341.88683138996714,None,,,,21001,0001,2021_Sep_07_0959,localizer,2021.1.3,59.99757608645396,
block,faces,faces037.bmp,,,,,0,158,158,158,,,,,,,,,,,,,,,,,,,,,,,,,,,,,,,,,,,,None,,341.88683138996714,None,341.88683138996714,None,2021-09-07-10:04:18.664170,341.9078099000035,342.2201426999527,341.9078099000035,None,None,341.9078099000035,None,342.70348628999784,None,,,,21001,0001,2021_Sep_07_0959,localizer,2021.1.3,59.99757608645396,
block,faces,faces089.bmp,,,,,0,159,159,159,,,,,,,,,,,,,,,,,,,,,,,,,,,,,,,,,,,,None,,342.70348628999784,None,342.70348628999784,None,2021-09-07-10:04:19.481096,342.71221049997257,343.02017589996103,342.71221049997257,None,None,342.71221049997257,None,343.5197133899725,None,,,,21001,0001,2021_Sep_07_0959,localizer,2021.1.3,59.99757608645396,
block,faces,faces061.bmp,,,,,0,160,160,160,,,,,,,,,,,,,,,,,,,,,,,,,,,,,,,,,,,,None,,343.5197133899725,None,343.5197133899725,None,2021-09-07-10:04:20.289000,343.52041289996123,343.8201593999984,343.52041289996123,None,None,343.52041289996123,None,344.31971159000534,None,,,,21001,0001,2021_Sep_07_0959,localizer,2021.1.3,59.99757608645396,
block,faces,faces042.bmp,,,,,0,161,161,161,,,,,,,,,,,,,,,,,,,,,,,,,,,,,,,,,,,,None,,344.31971159000534,None,344.31971159000534,None,2021-09-07-10:04:21.090862,344.32200699998066,344.6363738999935,344.32200699998066,344.32200699998066,None,344.32200699998066,344.32200699998066,345.136759790004,None,,,,21001,0001,2021_Sep_07_0959,localizer,2021.1.3,59.99757608645396,
block,faces,faces019.bmp,,,,,0,162,162,162,,,,,,,,,,,,,,,,,,,,,,,,,,,,,,,,,,,,None,,345.136759790004,None,345.136759790004,None,2021-09-07-10:04:21.914101,345.1679288999876,345.47017749998486,345.1679288999876,None,None,345.1679288999876,None,345.95352738996155,None,,,,21001,0001,2021_Sep_07_0959,localizer,2021.1.3,59.99757608645396,
block,faces,faces080.bmp,,,,,0,163,163,163,,,,,,,,,,,,,,,,,,,,,,,,,,,,,,,,,,,,None,,345.95352738996155,None,345.95352738996155,None,2021-09-07-10:04:22.730872,345.9805615999503,346.2867778999498,345.9805615999503,None,None,345.9805615999503,None,346.7699627900089,None,,,,21001,0001,2021_Sep_07_0959,localizer,2021.1.3,59.99757608645396,
block,faces,faces053.bmp,,,,,0,164,164,164,,,,,,,,,,,,,,,,,,,,,,,,,,,,,,,,,,,,None,,346.7699627900089,None,346.7699627900089,None,2021-09-07-10:04:23.547449,346.78676230000565,347.0868489999557,346.78676230000565,None,None,346.78676230000565,None,347.5863963899843,None,,,,21001,0001,2021_Sep_07_0959,localizer,2021.1.3,59.99757608645396,
block,faces,faces032.bmp,,,,,0,165,165,165,,,,,,,,,,,,,,,,,,,,,,,,,,,,,,,,,,,,None,,347.5863963899843,None,347.5863963899843,None,2021-09-07-10:04:24.356443,347.5882592999842,347.9030691999942,347.5882592999842,None,None,347.5882592999842,None,348.4032235899882,None,,,,21001,0001,2021_Sep_07_0959,localizer,2021.1.3,59.99757608645396,
block,faces,faces063.bmp,,,,,0,166,166,166,,,,,,,,,,,,,,,,,,,,,,,,,,,,,,,,,,,,None,,348.4032235899882,None,348.4032235899882,None,2021-09-07-10:04:25.173618,348.4039928999846,348.70315869996557,348.4039928999846,None,None,348.4039928999846,None,349.2031681899622,None,,,,21001,0001,2021_Sep_07_0959,localizer,2021.1.3,59.99757608645396,
block_end,faces,faces049.bmp,,,,,0,167,167,167,,,,,,,,,,,,,,,,,,,,,,,,,,,,,,,,,,,,None,,349.2031681899622,None,349.2031681899622,None,2021-09-07-10:04:25.974060,349.203822499956,349.5035375999869,349.203822499956,349.203822499956,None,349.203822499956,349.203822499956,350.0035452899698,None,,,,21001,0001,2021_Sep_07_0959,localizer,2021.1.3,59.99757608645396,
block_start,objects,objects015.bmp,,,,,0,168,168,168,,,,,,,,,,,,,,,,,,,,,,,,,,,,,,,,,,,,t,3.337251599994488,350.0034997999901,None,350.0034997999901,None,2021-09-07-10:04:30.138945,353.37084859999595,353.6701553000021,353.37084859999595,None,None,353.37084859999595,None,354.1699240899703,None,,,,21001,0001,2021_Sep_07_0959,localizer,2021.1.3,59.99757608645396,
block,objects,objects020.bmp,,,,,0,169,169,169,,,,,,,,,,,,,,,,,,,,,,,,,,,,,,,,,,,,None,,354.1699240899703,None,354.1699240899703,None,2021-09-07-10:04:30.941370,354.1737326000002,354.48643869999796,354.1737326000002,354.1737326000002,None,354.1737326000002,354.1737326000002,354.98679878998666,None,,,,21001,0001,2021_Sep_07_0959,localizer,2021.1.3,59.99757608645396,
block,objects,objects023.bmp,,,,,0,170,170,170,,,,,,,,,,,,,,,,,,,,,,,,,,,,,,,,,,,,None,,354.98679878998666,None,354.98679878998666,None,2021-09-07-10:04:31.763216,355.01825379999354,355.32009349996224,355.01825379999354,None,None,355.01825379999354,None,355.8035937899782,None,,,,21001,0001,2021_Sep_07_0959,localizer,2021.1.3,59.99757608645396,
block,objects,objects049.bmp,,,,,0,171,171,171,,,,,,,,,,,,,,,,,,,,,,,,,,,,,,,,,,,,None,,355.8035937899782,None,355.8035937899782,None,2021-09-07-10:04:32.581956,355.82570139999734,356.1368489000015,355.82570139999734,None,None,355.82570139999734,None,356.6200957900088,None,,,,21001,0001,2021_Sep_07_0959,localizer,2021.1.3,59.99757608645396,
block,objects,objects038.bmp,,,,,0,172,172,172,,,,,,,,,,,,,,,,,,,,,,,,,,,,,,,,,,,,None,,356.6200957900088,None,356.6200957900088,None,2021-09-07-10:04:33.396942,356.6296658999636,356.93693069997244,356.6296658999636,None,None,356.6296658999636,None,357.4365253899538,None,,,,21001,0001,2021_Sep_07_0959,localizer,2021.1.3,59.99757608645396,
block,objects,objects027.bmp,,,,,0,173,173,173,,,,,,,,,,,,,,,,,,,,,,,,,,,,,,,,,,,,None,,357.4365253899538,None,357.4365253899538,None,2021-09-07-10:04:34.205816,357.437780999986,357.7365102999611,357.437780999986,None,None,357.437780999986,None,358.23687828995173,None,,,,21001,0001,2021_Sep_07_0959,localizer,2021.1.3,59.99757608645396,
block,objects,objects083.bmp,,,,,0,174,174,174,,,,,,,,,,,,,,,,,,,,,,,,,,,,,,,,,,,,None,,358.23687828995173,None,358.23687828995173,None,2021-09-07-10:04:35.016082,358.25505179999163,358.5699398999568,358.25505179999163,358.25505179999163,None,358.25505179999163,358.25505179999163,359.05356238997194,None,,,,21001,0001,2021_Sep_07_0959,localizer,2021.1.3,59.99757608645396,
block,objects,objects088.bmp,,,,,0,175,175,175,,,,,,,,,,,,,,,,,,,,,,,,,,,,,,,,,,,,None,,359.05356238997194,None,359.05356238997194,None,2021-09-07-10:04:35.830753,359.06385889998637,359.37023229995975,359.06385889998637,None,None,359.06385889998637,None,359.8702921899909,None,,,,21001,0001,2021_Sep_07_0959,localizer,2021.1.3,59.99757608645396,
block,objects,objects055.bmp,,,,,0,176,176,176,,,,,,,,,,,,,,,,,,,,,,,,,,,,,,,,,,,,None,,359.8702921899909,None,359.8702921899909,None,2021-09-07-10:04:36.650676,359.8774976999848,360.1867402999778,359.8774976999848,None,None,359.8774976999848,None,360.6865871899587,None,,,,21001,0001,2021_Sep_07_0959,localizer,2021.1.3,59.99757608645396,
block,objects,objects041.bmp,,,,,0,177,177,177,,,,,,,,,,,,,,,,,,,,,,,,,,,,,,,,,,,,None,,360.6865871899587,None,360.6865871899587,None,2021-09-07-10:04:37.463628,360.7014447999536,361.0036358999787,360.7014447999536,None,None,360.7014447999536,None,361.50333088996706,None,,,,21001,0001,2021_Sep_07_0959,localizer,2021.1.3,59.99757608645396,
block,objects,objects069.bmp,,,,,0,178,178,178,,,,,,,,,,,,,,,,,,,,,,,,,,,,,,,,,,,,None,,361.50333088996706,None,361.50333088996706,None,2021-09-07-10:04:38.272803,361.50490869994974,361.81981479999376,361.50490869994974,None,None,361.50490869994974,None,362.32039428996507,None,,,,21001,0001,2021_Sep_07_0959,localizer,2021.1.3,59.99757608645396,
block,objects,objects062.bmp,,,,,0,179,179,179,,,,,,,,,,,,,,,,,,,,,,,,,,,,,,,,,,,,None,,362.32039428996507,None,362.32039428996507,None,2021-09-07-10:04:39.098775,362.3420804999769,362.65363229997456,362.3420804999769,None,None,362.3420804999769,None,363.13698889000227,None,,,,21001,0001,2021_Sep_07_0959,localizer,2021.1.3,59.99757608645396,
block,objects,objects029.bmp,,,,,0,180,180,180,,,,,,,,,,,,,,,,,,,,,,,,,,,,,,,,,,,,None,,363.13698889000227,None,363.13698889000227,None,2021-09-07-10:04:39.916187,363.16026939998847,363.4702486000024,363.16026939998847,None,None,363.16026939998847,None,363.95348808995334,None,,,,21001,0001,2021_Sep_07_0959,localizer,2021.1.3,59.99757608645396,
block,objects,objects066.bmp,,,,,0,181,181,181,,,,,,,,,,,,,,,,,,,,,,,,,,,,,,,,,,,,None,,363.95348808995334,None,363.95348808995334,None,2021-09-07-10:04:40.730751,363.9675993999699,364.2703138999641,363.9675993999699,None,None,363.9675993999699,None,364.7699940899562,None,,,,21001,0001,2021_Sep_07_0959,localizer,2021.1.3,59.99757608645396,
block_end,objects,objects040.bmp,,,,,0,182,182,182,,,,,,,,,,,,,,,,,,,,,,,,,,,,,,,,,,,,None,,364.7699940899562,None,364.7699940899562,None,2021-09-07-10:04:41.539285,364.7705585999647,365.06987619999563,364.7705585999647,None,None,364.7705585999647,None,365.5699445899751,None,,,,21001,0001,2021_Sep_07_0959,localizer,2021.1.3,59.99757608645396,
block_start,scrambled,scrambled051.bmp,,,,,0,183,183,183,,,,,,,,,,,,,,,,,,,,,,,,,,,,,,,,,,,,t,3.7341781000141054,365.57019309996394,None,365.57019309996394,None,2021-09-07-10:04:46.096755,369.3314743999508,369.63700319995405,369.3314743999508,None,None,369.3314743999508,None,370.1370118900028,None,,,,21001,0001,2021_Sep_07_0959,localizer,2021.1.3,59.99757608645396,
block,scrambled,scrambled083.bmp,,,,,0,184,184,184,,,,,,,,,,,,,,,,,,,,,,,,,,,,,,,,,,,,None,,370.1370118900028,None,370.1370118900028,None,2021-09-07-10:04:46.915237,370.1580791999586,370.47015599999577,370.1580791999586,None,None,370.1580791999586,None,370.95331518997557,None,,,,21001,0001,2021_Sep_07_0959,localizer,2021.1.3,59.99757608645396,
block,scrambled,scrambled054.bmp,,,,,0,185,185,185,,,,,,,,,,,,,,,,,,,,,,,,,,,,,,,,,,,,None,,370.95331518997557,None,370.95331518997557,None,2021-09-07-10:04:47.722441,370.9540759999654,371.25352599995676,370.9540759999654,None,None,370.9540759999654,None,371.75340128997925,None,,,,21001,0001,2021_Sep_07_0959,localizer,2021.1.3,59.99757608645396,
block,scrambled,scrambled081.bmp,,,,,0,186,186,186,,,,,,,,,,,,,,,,,,,,,,,,,,,,,,,,,,,,None,,371.75340128997925,None,371.75340128997925,None,2021-09-07-10:04:48.524699,371.76097989996197,372.0700402999646,371.76097989996197,371.76097989996197,None,371.76097989996197,371.76097989996197,372.5703398899583,None,,,,21001,0001,2021_Sep_07_0959,localizer,2021.1.3,59.99757608645396,
block,scrambled,scrambled010.bmp,,,,,0,187,187,187,,,,,,,,,,,,,,,,,,,,,,,,,,,,,,,,,,,,None,,372.5703398899583,None,372.5703398899583,None,2021-09-07-10:04:49.348752,372.5917901999783,372.9037019999814,372.5917901999783,None,None,372.5917901999783,None,373.3870495899988,None,,,,21001,0001,2021_Sep_07_0959,localizer,2021.1.3,59.99757608645396,
block,scrambled,scrambled053.bmp,,,,,0,188,188,188,,,,,,,,,,,,,,,,,,,,,,,,,,,,,,,,,,,,None,,373.3870495899988,None,373.3870495899988,None,2021-09-07-10:04:50.165276,373.39924020000035,373.7036064999993,373.39924020000035,None,None,373.39924020000035,None,374.2036658899684,None,,,,21001,0001,2021_Sep_07_0959,localizer,2021.1.3,59.99757608645396,
block,scrambled,scrambled001.bmp,,,,,0,189,189,189,,,,,,,,,,,,,,,,,,,,,,,,,,,,,,,,,,,,None,,374.2036658899684,None,374.2036658899684,None,2021-09-07-10:04:50.982089,374.22023549996084,374.5203894999577,374.22023549996084,None,None,374.22023549996084,None,375.0199678899895,None,,,,21001,0001,2021_Sep_07_0959,localizer,2021.1.3,59.99757608645396,
block,scrambled,scrambled047.bmp,,,,,0,190,190,190,,,,,,,,,,,,,,,,,,,,,,,,,,,,,,,,,,,,None,,375.0199678899895,None,375.0199678899895,None,2021-09-07-10:04:51.789983,375.0205454999814,375.3201388999587,375.0205454999814,None,None,375.0205454999814,None,375.8201625900052,None,,,,21001,0001,2021_Sep_07_0959,localizer,2021.1.3,59.99757608645396,
block,scrambled,scrambled035.bmp,,,,,0,191,191,191,,,,,,,,,,,,,,,,,,,,,,,,,,,,,,,,,,,,None,,375.8201625900052,None,375.8201625900052,None,2021-09-07-10:04:52.594456,375.8299880999839,376.1367393999826,375.8299880999839,375.8299880999839,None,375.8299880999839,375.8299880999839,376.63707248999856,None,,,,21001,0001,2021_Sep_07_0959,localizer,2021.1.3,59.99757608645396,
block,scrambled,scrambled044.bmp,,,,,0,192,192,192,,,,,,,,,,,,,,,,,,,,,,,,,,,,,,,,,,,,None,,376.63707248999856,None,376.63707248999856,None,2021-09-07-10:04:53.415487,376.64948879997246,376.9537296000053,376.64948879997246,None,None,376.64948879997246,None,377.45373119,None,,,,21001,0001,2021_Sep_07_0959,localizer,2021.1.3,59.99757608645396,
block,scrambled,scrambled063.bmp,,,,,0,193,193,193,,,,,,,,,,,,,,,,,,,,,,,,,,,,,,,,,,,,None,,377.45373119,None,377.45373119,None,2021-09-07-10:04:54.233034,377.4873986999737,377.78706529998453,377.4873986999737,None,None,377.4873986999737,None,378.26998018996676,None,,,,21001,0001,2021_Sep_07_0959,localizer,2021.1.3,59.99757608645396,
block,scrambled,scrambled002.bmp,,,,,0,194,194,194,,,,,,,,,,,,,,,,,,,,,,,,,,,,,,,,,,,,None,,378.26998018996676,None,378.26998018996676,None,2021-09-07-10:04:55.040301,378.2749163999688,378.58685949997744,378.2749163999688,None,None,378.2749163999688,None,379.08675928995365,None,,,,21001,0001,2021_Sep_07_0959,localizer,2021.1.3,59.99757608645396,
block,scrambled,scrambled077.bmp,,,,,0,195,195,195,,,,,,,,,,,,,,,,,,,,,,,,,,,,,,,,,,,,None,,379.08675928995365,None,379.08675928995365,None,2021-09-07-10:04:55.856083,379.08733579999534,379.38666039996315,379.08733579999534,None,None,379.08733579999534,None,379.8868620899681,None,,,,21001,0001,2021_Sep_07_0959,localizer,2021.1.3,59.99757608645396,
block,scrambled,scrambled059.bmp,,,,,0,196,196,196,,,,,,,,,,,,,,,,,,,,,,,,,,,,,,,,,,,,None,,379.8868620899681,None,379.8868620899681,None,2021-09-07-10:04:56.666141,379.8990813999553,380.203524499957,379.8990813999553,379.8990813999553,None,379.8990813999553,379.8990813999553,380.7037696900021,None,,,,21001,0001,2021_Sep_07_0959,localizer,2021.1.3,59.99757608645396,
block_end,scrambled,scrambled007.bmp,,,,,0,197,197,197,,,,,,,,,,,,,,,,,,,,,,,,,,,,,,,,,,,,None,,380.7037696900021,None,380.7037696900021,None,2021-09-07-10:04:57.483190,380.71606069995323,381.0203971999581,380.71606069995323,None,None,380.71606069995323,None,381.5204092899745,None,,,,21001,0001,2021_Sep_07_0959,localizer,2021.1.3,59.99757608645396,
block_start,objects,objects042.bmp,,,,,0,198,198,198,,,,,,,,,,,,,,,,,,,,,,,,,,,,,,,,,,,,t,3.185101500013843,381.52020849997643,None,381.52020849997643,None,2021-09-07-10:05:01.495899,384.7504953999887,385.0537844999926,384.7504953999887,None,None,384.7504953999887,None,385.53715548995535,None,,,,21001,0001,2021_Sep_07_0959,localizer,2021.1.3,59.99757608645396,
block,objects,objects001.bmp,,,,,0,199,199,199,,,,,,,,,,,,,,,,,,,,,,,,,,,,,,,,,,,,None,,385.53715548995535,None,385.53715548995535,None,2021-09-07-10:05:02.316590,385.5460469999816,385.8538004999864,385.5460469999816,None,None,385.5460469999816,None,386.3534039899765,None,,,,21001,0001,2021_Sep_07_0959,localizer,2021.1.3,59.99757608645396,
block,objects,objects010.bmp,,,,,0,200,200,200,,,,,,,,,,,,,,,,,,,,,,,,,,,,,,,,,,,,None,,386.3534039899765,None,386.3534039899765,None,2021-09-07-10:05:03.123453,386.35404589999234,386.65341349999653,386.35404589999234,None,None,386.35404589999234,None,387.1536561899644,None,,,,21001,0001,2021_Sep_07_0959,localizer,2021.1.3,59.99757608645396,
block,objects,objects015.bmp,,,,,0,201,201,201,,,,,,,,,,,,,,,,,,,,,,,,,,,,,,,,,,,,None,,387.1536561899644,None,387.1536561899644,None,2021-09-07-10:05:03.934120,387.1680338999722,387.47015809995355,387.1680338999722,387.1680338999722,None,387.1680338999722,387.1680338999722,387.97028668998394,None,,,,21001,0001,2021_Sep_07_0959,localizer,2021.1.3,59.99757608645396,
block,objects,objects088.bmp,,,,,0,202,202,202,,,,,,,,,,,,,,,,,,,,,,,,,,,,,,,,,,,,None,,387.97028668998394,None,387.97028668998394,None,2021-09-07-10:05:04.740731,387.9708518999978,388.27034899999853,387.9708518999978,None,None,387.9708518999978,None,388.77049739000506,None,,,,21001,0001,2021_Sep_07_0959,localizer,2021.1.3,59.99757608645396,
block,objects,objects047.bmp,,,,,0,203,203,203,,,,,,,,,,,,,,,,,,,,,,,,,,,,,,,,,,,,None,,388.77049739000506,None,388.77049739000506,None,2021-09-07-10:05:05.551942,388.7947774999775,389.1038100000005,388.7947774999775,388.7947774999775,None,388.7947774999775,388.7947774999775,389.5871485900076,None,,,,21001,0001,2021_Sep_07_0959,localizer,2021.1.3,59.99757608645396,
block,objects,objects062.bmp,,,,,0,204,204,204,,,,,,,,,,,,,,,,,,,,,,,,,,,,,,,,,,,,None,,389.5871485900076,None,389.5871485900076,None,2021-09-07-10:05:06.360456,389.58742709999206,389.8870579999639,389.58742709999206,None,None,389.58742709999206,None,390.38685278995547,None,,,,21001,0001,2021_Sep_07_0959,localizer,2021.1.3,59.99757608645396,
block,objects,objects064.bmp,,,,,0,205,205,205,,,,,,,,,,,,,,,,,,,,,,,,,,,,,,,,,,,,None,,390.38685278995547,None,390.38685278995547,None,2021-09-07-10:05:07.157619,390.389183399966,390.70340090000536,390.389183399966,390.389183399966,None,390.389183399966,390.389183399966,391.2037280899764,None,,,,21001,0001,2021_Sep_07_0959,localizer,2021.1.3,59.99757608645396,
block,objects,objects071.bmp,,,,,0,206,206,206,,,,,,,,,,,,,,,,,,,,,,,,,,,,,,,,,,,,None,,391.2037280899764,None,391.2037280899764,None,2021-09-07-10:05:07.981016,391.21396139997523,391.5201726999949,391.21396139997523,None,None,391.21396139997523,None,392.0205168899789,None,,,,21001,0001,2021_Sep_07_0959,localizer,2021.1.3,59.99757608645396,
block,objects,objects080.bmp,,,,,0,207,207,207,,,,,,,,,,,,,,,,,,,,,,,,,,,,,,,,,,,,None,,392.0205168899789,None,392.0205168899789,None,2021-09-07-10:05:08.798497,392.0510386999813,392.3538089999929,392.0510386999813,None,None,392.0510386999813,None,392.8369844899804,None,,,,21001,0001,2021_Sep_07_0959,localizer,2021.1.3,59.99757608645396,
block,objects,objects077.bmp,,,,,0,208,208,208,,,,,,,,,,,,,,,,,,,,,,,,,,,,,,,,,,,,None,,392.8369844899804,None,392.8369844899804,None,2021-09-07-10:05:09.614957,392.84774619998643,393.1538623999804,392.84774619998643,None,None,392.84774619998643,None,393.65337819000126,None,,,,21001,0001,2021_Sep_07_0959,localizer,2021.1.3,59.99757608645396,
block,objects,objects021.bmp,,,,,0,209,209,209,,,,,,,,,,,,,,,,,,,,,,,,,,,,,,,,,,,,None,,393.65337819000126,None,393.65337819000126,None,2021-09-07-10:05:10.423123,393.65494119998766,393.9534584999783,393.65494119998766,None,None,393.65494119998766,None,394.4701423899911,None,,,,21001,0001,2021_Sep_07_0959,localizer,2021.1.3,59.99757608645396,
block,objects,objects063.bmp,,,,,0,210,210,210,,,,,,,,,,,,,,,,,,,,,,,,,,,,,,,,,,,,None,,394.4701423899911,None,394.4701423899911,None,2021-09-07-10:05:11.241696,394.4873272999539,394.7868681999971,394.4873272999539,None,None,394.4873272999539,None,395.28719638997575,None,,,,21001,0001,2021_Sep_07_0959,localizer,2021.1.3,59.99757608645396,
block,objects,objects052.bmp,,,,,0,211,211,211,,,,,,,,,,,,,,,,,,,,,,,,,,,,,,,,,,,,None,,395.28719638997575,None,395.28719638997575,None,2021-09-07-10:05:12.065473,395.30907459999435,395.6203123999876,395.30907459999435,None,None,395.30907459999435,None,396.1037972900027,None,,,,21001,0001,2021_Sep_07_0959,localizer,2021.1.3,59.99757608645396,
block_end,objects,objects066.bmp,,,,,0,212,212,212,,,,,,,,,,,,,,,,,,,,,,,,,,,,,,,,,,,,None,,396.1037972900027,None,396.1037972900027,None,2021-09-07-10:05:12.882251,396.1162228999892,396.42053279996617,396.1162228999892,None,None,396.1162228999892,None,396.9201535899716,None,,,,21001,0001,2021_Sep_07_0959,localizer,2021.1.3,59.99757608645396,
block_start,scenes,scenes089.bmp,,,,,0,213,213,213,,,,,,,,,,,,,,,,,,,,,,,,,,,,,,,,,,,,t,2.563499000039883,396.9199820999638,None,396.9199820999638,None,2021-09-07-10:05:16.272305,399.5041703999741,399.8036515999702,399.5041703999741,None,None,399.5041703999741,None,400.30367858998363,None,,,,21001,0001,2021_Sep_07_0959,localizer,2021.1.3,59.99757608645396,
block,scenes,scenes024.bmp,,,,,0,214,214,214,,,,,,,,,,,,,,,,,,,,,,,,,,,,,,,,,,,,None,,400.30367858998363,None,400.30367858998363,None,2021-09-07-10:05:17.076220,400.3128469999647,400.62022089998936,400.3128469999647,400.3128469999647,None,400.3128469999647,400.3128469999647,401.1205045899784,None,,,,21001,0001,2021_Sep_07_0959,localizer,2021.1.3,59.99757608645396,
block,scenes,scenes033.bmp,,,,,0,215,215,215,,,,,,,,,,,,,,,,,,,,,,,,,,,,,,,,,,,,None,,401.1205045899784,None,401.1205045899784,None,2021-09-07-10:05:17.899973,401.1427119,401.45390749996295,401.1427119,None,None,401.1427119,None,401.9372466899746,None,,,,21001,0001,2021_Sep_07_0959,localizer,2021.1.3,59.99757608645396,
block,scenes,scenes056.bmp,,,,,0,216,216,216,,,,,,,,,,,,,,,,,,,,,,,,,,,,,,,,,,,,None,,401.9372466899746,None,401.9372466899746,None,2021-09-07-10:05:18.715717,401.9583924000035,402.27050990000134,401.9583924000035,None,None,401.9583924000035,None,402.75346678995413,None,,,,21001,0001,2021_Sep_07_0959,localizer,2021.1.3,59.99757608645396,
block,scenes,scenes056.bmp,,,,,0,217,217,217,,,,,,,,,,,,,,,,,,,,,,,,,,,,,,,,,,,,None,,402.75346678995413,None,402.75346678995413,None,2021-09-07-10:05:19.523485,402.75420389999636,403.05374139995547,402.75420389999636,None,None,402.75420389999636,None,403.5536780899798,None,,,,21001,0001,2021_Sep_07_0959,localizer,2021.1.3,59.99757608645396,
block,scenes,scenes038.bmp,,,,,0,218,218,218,,,,,,,,,,,,,,,,,,,,,,,,,,,,,,,,,,,,None,,403.5536780899798,None,403.5536780899798,None,2021-09-07-10:05:20.334105,403.58429289999185,403.88675869995495,403.58429289999185,403.58429289999185,None,403.58429289999185,403.58429289999185,404.37059528997054,None,,,,21001,0001,2021_Sep_07_0959,localizer,2021.1.3,59.99757608645396,
block,scenes,scenes081.bmp,,,,,0,219,219,219,,,,,,,,,,,,,,,,,,,,,,,,,,,,,,,,,,,,None,,404.37059528997054,None,404.37059528997054,None,2021-09-07-10:05:21.149076,404.3950511000003,404.7039281000034,404.3950511000003,None,None,404.3950511000003,None,405.1872745899542,None,,,,21001,0001,2021_Sep_07_0959,localizer,2021.1.3,59.99757608645396,
block,scenes,scenes051.bmp,,,,,0,220,220,220,,,,,,,,,,,,,,,,,,,,,,,,,,,,,,,,,,,,None,,405.1872745899542,None,405.1872745899542,None,2021-09-07-10:05:21.965575,405.21149079996394,405.5205866000033,405.21149079996394,None,None,405.21149079996394,None,406.0039201899723,None,,,,21001,0001,2021_Sep_07_0959,localizer,2021.1.3,59.99757608645396,
block,scenes,scenes036.bmp,,,,,0,221,221,221,,,,,,,,,,,,,,,,,,,,,,,,,,,,,,,,,,,,None,,406.0039201899723,None,406.0039201899723,None,2021-09-07-10:05:22.782219,406.0249985999544,406.3372667999938,406.0249985999544,None,None,406.0249985999544,None,406.8202655899746,None,,,,21001,0001,2021_Sep_07_0959,localizer,2021.1.3,59.99757608645396,
block,scenes,scenes037.bmp,,,,,0,222,222,222,,,,,,,,,,,,,,,,,,,,,,,,,,,,,,,,,,,,None,,406.8202655899746,None,406.8202655899746,None,2021-09-07-10:05:23.592654,406.8208735999651,407.1206258999882,406.8208735999651,None,None,406.8208735999651,None,407.6201179900032,None,,,,21001,0001,2021_Sep_07_0959,localizer,2021.1.3,59.99757608645396,
block,scenes,scenes032.bmp,,,,,0,223,223,223,,,,,,,,,,,,,,,,,,,,,,,,,,,,,,,,,,,,None,,407.6201179900032,None,407.6201179900032,None,2021-09-07-10:05:24.391398,407.6237826999859,407.9368381999666,407.6237826999859,407.6237826999859,None,407.6237826999859,407.6237826999859,408.43712859000664,None,,,,21001,0001,2021_Sep_07_0959,localizer,2021.1.3,59.99757608645396,
block,scenes,scenes067.bmp,,,,,0,224,224,224,,,,,,,,,,,,,,,,,,,,,,,,,,,,,,,,,,,,None,,408.43712859000664,None,408.43712859000664,None,2021-09-07-10:05:25.208498,408.4384657999617,408.73708859999897,408.4384657999617,None,None,408.4384657999617,None,409.253970090003,None,,,,21001,0001,2021_Sep_07_0959,localizer,2021.1.3,59.99757608645396,
block,scenes,scenes075.bmp,,,,,0,225,225,225,,,,,,,,,,,,,,,,,,,,,,,,,,,,,,,,,,,,None,,409.253970090003,None,409.253970090003,None,2021-09-07-10:05:26.032003,409.2659486999619,409.5706381999771,409.2659486999619,None,None,409.2659486999619,None,410.07047448999367,None,,,,21001,0001,2021_Sep_07_0959,localizer,2021.1.3,59.99757608645396,
block,scenes,scenes006.bmp,,,,,0,226,226,226,,,,,,,,,,,,,,,,,,,,,,,,,,,,,,,,,,,,None,,410.07047448999367,None,410.07047448999367,None,2021-09-07-10:05:26.842764,410.0788242999697,410.38728629995603,410.0788242999697,None,None,410.0788242999697,None,410.88692918995514,None,,,,21001,0001,2021_Sep_07_0959,localizer,2021.1.3,59.99757608645396,
block_end,scenes,scenes072.bmp,,,,,0,227,227,227,,,,,,,,,,,,,,,,,,,,,,,,,,,,,,,,,,,,None,,410.88692918995514,None,410.88692918995514,None,2021-09-07-10:05:27.656273,410.8877998999669,411.18702479999047,410.8877998999669,None,None,410.8877998999669,None,411.6871201900009,None,,,,21001,0001,2021_Sep_07_0959,localizer,2021.1.3,59.99757608645396,
block_start,faces,faces030.bmp,,,,,0,228,228,228,,,,,,,,,,,,,,,,,,,,,,,,,,,,,,,,,,,,t,3.2659985999925993,411.68720960000064,None,411.68720960000064,None,2021-09-07-10:05:31.739747,414.9738057999639,415.2868540000054,414.9738057999639,None,None,414.9738057999639,None,415.7873447899998,None,,,,21001,0001,2021_Sep_07_0959,localizer,2021.1.3,59.99757608645396,
block,faces,faces060.bmp,,,,,0,229,229,229,,,,,,,,,,,,,,,,,,,,,,,,,,,,,,,,,,,,None,,415.7873447899998,None,415.7873447899998,None,2021-09-07-10:05:32.564864,415.7987928999937,416.103811399953,415.7987928999937,None,None,415.7987928999937,None,416.60399569000003,None,,,,21001,0001,2021_Sep_07_0959,localizer,2021.1.3,59.99757608645396,
block,faces,faces079.bmp,,,,,0,230,230,230,,,,,,,,,,,,,,,,,,,,,,,,,,,,,,,,,,,,None,,416.60399569000003,None,416.60399569000003,None,2021-09-07-10:05:33.382504,416.62087270000484,416.9202053999761,416.62087270000484,None,None,416.62087270000484,None,417.4206630899513,None,,,,21001,0001,2021_Sep_07_0959,localizer,2021.1.3,59.99757608645396,
block,faces,faces023.bmp,,,,,0,231,231,231,,,,,,,,,,,,,,,,,,,,,,,,,,,,,,,,,,,,None,,417.4206630899513,None,417.4206630899513,None,2021-09-07-10:05:34.199186,417.43310179997934,417.73716699995566,417.43310179997934,None,None,417.43310179997934,None,418.23738848999494,None,,,,21001,0001,2021_Sep_07_0959,localizer,2021.1.3,59.99757608645396,
block,faces,faces002.bmp,,,,,0,232,232,232,,,,,,,,,,,,,,,,,,,,,,,,,,,,,,,,,,,,None,,418.23738848999494,None,418.23738848999494,None,2021-09-07-10:05:35.015902,418.2765018999926,418.5873656999902,418.2765018999926,None,None,418.2765018999926,None,419.05357348999826,None,,,,21001,0001,2021_Sep_07_0959,localizer,2021.1.3,59.99757608645396,
block,faces,faces017.bmp,,,,,0,233,233,233,,,,,,,,,,,,,,,,,,,,,,,,,,,,,,,,,,,,None,,419.05357348999826,None,419.05357348999826,None,2021-09-07-10:05:35.823264,419.0542546999641,419.35397389996797,419.0542546999641,None,None,419.0542546999641,None,419.85370278998164,None,,,,21001,0001,2021_Sep_07_0959,localizer,2021.1.3,59.99757608645396,
block,faces,faces071.bmp,,,,,0,234,234,234,,,,,,,,,,,,,,,,,,,,,,,,,,,,,,,,,,,,None,,419.85370278998164,None,419.85370278998164,None,2021-09-07-10:05:36.625004,419.8545680999523,420.153998099966,419.8545680999523,419.8545680999523,None,419.8545680999523,419.8545680999523,420.65397248998636,None,,,,21001,0001,2021_Sep_07_0959,localizer,2021.1.3,59.99757608645396,
block,faces,faces051.bmp,,,,,0,235,235,235,,,,,,,,,,,,,,,,,,,,,,,,,,,,,,,,,,,,None,,420.65397248998636,None,420.65397248998636,None,2021-09-07-10:05:37.424390,420.6547886999906,420.9540131999529,420.6547886999906,420.6547886999906,None,420.6547886999906,420.6547886999906,421.45410518999563,None,,,,21001,0001,2021_Sep_07_0959,localizer,2021.1.3,59.99757608645396,
block,faces,faces022.bmp,,,,,0,236,236,236,,,,,,,,,,,,,,,,,,,,,,,,,,,,,,,,,,,,None,,421.45410518999563,None,421.45410518999563,None,2021-09-07-10:05:38.235398,421.4973449999816,421.80395569995744,421.4973449999816,421.4973449999816,None,421.4973449999816,421.4973449999816,422.2702685900091,None,,,,21001,0001,2021_Sep_07_0959,localizer,2021.1.3,59.99757608645396,
block,faces,faces084.bmp,,,,,0,237,237,237,,,,,,,,,,,,,,,,,,,,,,,,,,,,,,,,,,,,None,,422.2702685900091,None,422.2702685900091,None,2021-09-07-10:05:39.040188,422.2734656999819,422.5872008999577,422.2734656999819,None,None,422.2734656999819,None,423.087089089962,None,,,,21001,0001,2021_Sep_07_0959,localizer,2021.1.3,59.99757608645396,
block,faces,faces006.bmp,,,,,0,238,238,238,,,,,,,,,,,,,,,,,,,,,,,,,,,,,,,,,,,,None,,423.087089089962,None,423.087089089962,None,2021-09-07-10:05:39.856514,423.0877008999814,423.3870346999611,423.0877008999814,None,None,423.0877008999814,None,423.8874146899849,None,,,,21001,0001,2021_Sep_07_0959,localizer,2021.1.3,59.99757608645396,
block,faces,faces054.bmp,,,,,0,239,239,239,,,,,,,,,,,,,,,,,,,,,,,,,,,,,,,,,,,,None,,423.8874146899849,None,423.8874146899849,None,2021-09-07-10:05:40.667702,423.9246637999895,424.23746459995164,423.9246637999895,423.9246637999895,None,423.9246637999895,423.9246637999895,424.7041810899915,None,,,,21001,0001,2021_Sep_07_0959,localizer,2021.1.3,59.99757608645396,
block,faces,faces085.bmp,,,,,0,240,240,240,,,,,,,,,,,,,,,,,,,,,,,,,,,,,,,,,,,,None,,424.7041810899915,None,424.7041810899915,None,2021-09-07-10:05:41.483656,424.7167064999812,425.0208628999535,424.7167064999812,None,None,424.7167064999812,None,425.52068029000077,None,,,,21001,0001,2021_Sep_07_0959,localizer,2021.1.3,59.99757608645396,
block,faces,faces046.bmp,,,,,0,241,241,241,,,,,,,,,,,,,,,,,,,,,,,,,,,,,,,,,,,,None,,425.52068029000077,None,425.52068029000077,None,2021-09-07-10:05:42.298490,425.5444767999579,425.8541000999976,425.5444767999579,None,None,425.5444767999579,None,426.33742158999087,None,,,,21001,0001,2021_Sep_07_0959,localizer,2021.1.3,59.99757608645396,
block_end,faces,faces039.bmp,,,,,0,242,242,242,,,,,,,,,,,,,,,,,,,,,,,,,,,,,,,,,,,,None,,426.33742158999087,None,426.33742158999087,None,2021-09-07-10:05:43.106855,426.33818099997006,426.6372200999758,426.33818099997006,None,None,426.33818099997006,None,427.13777108996294,None,,,,21001,0001,2021_Sep_07_0959,localizer,2021.1.3,59.99757608645396,
null_block,null_block,null_block.bmp,,,,,0,243,243,243,,,,,,,,,,,,,,,,,,,,,,,,,,,,,,,,,,,,t,4.216760799987242,427.137725699984,None,427.137725699984,None,2021-09-07-10:05:48.147145,431.38815757997804,None,431.38815757997804,None,None,431.38815757997804,None,431.3859026999562,None,,,,21001,0001,2021_Sep_07_0959,localizer,2021.1.3,59.99757608645396,
,,,,,,,,,,,,,,,,,,,,,,,,,,,,,,,,,,,,,,,,,,,,,,,,,,,,,,,,,,,,,,,443.3875639999751,None,,,,,,,
