block_type,condition,img_name,Button.thisRepN,Button.thisTrialN,Button.thisN,Button.thisIndex,trials.thisRepN,trials.thisTrialN,trials.thisN,trials.thisIndex,Ready_experimenter_text.started,Ready_experimenter_text.stopped,Ready_experimenter_resp.keys,Ready_experimenter_resp.rt,Ready_experimenter_resp.started,Ready_experimenter_resp.stopped,Alignment_background.started,Alignment_background.stopped,Alignment_image.started,Alignment_image.stopped,Alignment_resp.keys,Alignment_resp.rt,Alignment_resp.started,Alignment_resp.stopped,Button_text.started,Button_text.stopped,Index_text.started,Index_text.stopped,Index_resp.keys,Index_resp.rt,Index_resp.started,Index_resp.stopped,Middle_text.started,Middle_text.stopped,Middle_resp.keys,Middle_resp.rt,Middle_resp.started,Middle_resp.stopped,Repeat_text.started,Repeat_text.stopped,Repeat_resp.keys,Repeat_resp.corr,Repeat_resp.rt,Repeat_resp.started,Repeat_resp.stopped,instruction_text.started,instruction_text.stopped,key_resp.keys,key_resp.rt,key_resp.started,key_resp.stopped,scanner_t.keys,scanner_t.rt,scanner_t.started,scanner_t.stopped,fixation_wait_for_t.started,fixation_wait_for_t.stopped,real_timestamp_trial_start,image.started,image.stopped,fixation.started,fixation.stopped,repeat_response.keys,repeat_response.started,repeat_response.stopped,fixation_null.started,fixation_null.stopped,repeat_response.rt,end_text.started,end_text.stopped,participant,run,date,expName,psychopyVersion,frameRate,
,,,,,,,,,,,16.695561700034887,None,return,1.9984638998284936,16.695561700034887,None,,,,,,,,,,,,,,,,,,,,,,,,,,,,,,,,,,,,,,,,,,,,,,,,,,,,,,,22004,0001,2022_Feb_14_1435,localizer,2021.1.3,59.94140128650105,
,,,,,,,,,,,,,,,,,18.734279799973592,None,18.734279799973592,None,return,112.5818970000837,18.734279799973592,None,,,,,,,,,,,,,,,,,,,,,,,,,,,,,,,,,,,,,,,,,,,,,,,22004,0001,2022_Feb_14_1435,localizer,2021.1.3,59.94140128650105,
,,,0,0,0,0,,,,,,,,,,,,,,,,,,,131.33278789999895,None,132.34407380013727,None,y,5.586375599959865,132.34407380013727,None,137.96748680016026,None,b,3.116020299959928,137.96748680016026,None,141.11117010004818,None,n,0,3.293462699977681,141.11117010004818,None,,,,,,,,,,,,,,,,,,,,,,,,,,22004,0001,2022_Feb_14_1435,localizer,2021.1.3,59.94140128650105,
,,,,,,,,,,,,,,,,,,,,,,,,,,,,,,,,,,,,,,,,,,,,,,144.4270172000397,None,y,51.98338160011917,144.4270172000397,None,,,,,,,,,,,,,,,,,,,,22004,0001,2022_Feb_14_1435,localizer,2021.1.3,59.94140128650105,
null_block,null_block,null_block.bmp,,,,,0,0,0,0,,,,,,,,,,,,,,,,,,,,,,,,,,,,,,,,,,,,,,,,,,t,18.65538110001944,196.51486890017986,None,196.51486890017986,None,2022-02-14-14:39:19.796056,215.2112751599867,None,215.2112751599867,None,None,215.2112751599867,None,215.21162720001303,None,,,,22004,0001,2022_Feb_14_1435,localizer,2021.1.3,59.94140128650105,
block_start,scenes,scenes085.bmp,,,,,0,1,1,1,,,,,,,,,,,,,,,,,,,,,,,,,,,,,,,,,,,,,,,,,,t,1.9580069000367075,227.2123112999834,None,227.2123112999834,None,2022-02-14-14:39:33.798426,229.20236860006116,229.51110540004447,229.20236860006116,None,None,229.20236860006116,None,230.01131383010653,None,,,,22004,0001,2022_Feb_14_1435,localizer,2021.1.3,59.94140128650105,
block,scenes,scenes057.bmp,,,,,0,2,2,2,,,,,,,,,,,,,,,,,,,,,,,,,,,,,,,,,,,,,,,,,,None,,230.01131383010653,None,230.01131383010653,None,2022-02-14-14:39:34.616120,230.02478530001827,230.32780380011536,230.02478530001827,None,None,230.02478530001827,None,230.82749073004817,None,,,,22004,0001,2022_Feb_14_1435,localizer,2021.1.3,59.94140128650105,
block,scenes,scenes032.bmp,,,,,0,3,3,3,,,,,,,,,,,,,,,,,,,,,,,,,,,,,,,,,,,,,,,,,,None,,230.82749073004817,None,230.82749073004817,None,2022-02-14-14:39:35.429445,230.8367660001386,231.14421740011312,230.8367660001386,None,None,230.8367660001386,None,231.64442903019955,None,,,,22004,0001,2022_Feb_14_1435,localizer,2021.1.3,59.94140128650105,
block,scenes,scenes017.bmp,,,,,0,4,4,4,,,,,,,,,,,,,,,,,,,,,,,,,,,,,,,,,,,,,,,,,,None,,231.64442903019955,None,231.64442903019955,None,2022-02-14-14:39:36.247358,231.65491510019638,231.9613222000189,231.65491510019638,None,y,231.65491510019638,None,232.46102613008117,None,0.3982965999748558,,,22004,0001,2022_Feb_14_1435,localizer,2021.1.3,59.94140128650105,
block,scenes,scenes081.bmp,,,,,0,5,5,5,,,,,,,,,,,,,,,,,,,,,,,,,,,,,,,,,,,,,,,,,,None,,232.46102613008117,None,232.46102613008117,None,2022-02-14-14:39:37.064200,232.47159430012107,232.77791930013336,232.47159430012107,None,None,232.47159430012107,None,233.27846503008624,None,,,,22004,0001,2022_Feb_14_1435,localizer,2021.1.3,59.94140128650105,
block,scenes,scenes035.bmp,,,,,0,6,6,6,,,,,,,,,,,,,,,,,,,,,,,,,,,,,,,,,,,,,,,,,,None,,233.27846503008624,None,233.27846503008624,None,2022-02-14-14:39:37.882618,233.2922451000195,233.59510560007766,233.2922451000195,None,None,233.2922451000195,None,234.09515483009164,None,,,,22004,0001,2022_Feb_14_1435,localizer,2021.1.3,59.94140128650105,
block,scenes,scenes075.bmp,,,,,0,7,7,7,,,,,,,,,,,,,,,,,,,,,,,,,,,,,,,,,,,,,,,,,,None,,234.09515483009164,None,234.09515483009164,None,2022-02-14-14:39:38.699155,234.10791860008612,234.41119880019687,234.10791860008612,None,None,234.10791860008612,None,234.9107265300816,None,,,,22004,0001,2022_Feb_14_1435,localizer,2021.1.3,59.94140128650105,
block,scenes,scenes020.bmp,,,,,0,8,8,8,,,,,,,,,,,,,,,,,,,,,,,,,,,,,,,,,,,,,,,,,,None,,234.9107265300816,None,234.9107265300816,None,2022-02-14-14:39:39.512853,234.91978670004755,235.22779939998873,234.91978670004755,None,y,234.91978670004755,None,235.7281586300349,None,0.43582249991595745,,,22004,0001,2022_Feb_14_1435,localizer,2021.1.3,59.94140128650105,
block,scenes,scenes040.bmp,,,,,0,9,9,9,,,,,,,,,,,,,,,,,,,,,,,,,,,,,,,,,,,,,,,,,,None,,235.7281586300349,None,235.7281586300349,None,2022-02-14-14:39:40.331419,235.74002180015668,236.05082230013795,235.74002180015668,None,None,235.74002180015668,None,236.54407553009224,None,,,,22004,0001,2022_Feb_14_1435,localizer,2021.1.3,59.94140128650105,
block,scenes,scenes066.bmp,,,,,0,10,10,10,,,,,,,,,,,,,,,,,,,,,,,,,,,,,,,,,,,,,,,,,,None,,236.54407553009224,None,236.54407553009224,None,2022-02-14-14:39:41.147289,236.55321969999932,236.8613601999823,236.55321969999932,None,None,236.55321969999932,None,237.36119293009398,None,,,,22004,0001,2022_Feb_14_1435,localizer,2021.1.3,59.94140128650105,
block,scenes,scenes009.bmp,,,,,0,11,11,11,,,,,,,,,,,,,,,,,,,,,,,,,,,,,,,,,,,,,,,,,,None,,237.36119293009398,None,237.36119293009398,None,2022-02-14-14:39:41.964141,237.3720609000884,237.6775748000946,237.3720609000884,None,None,237.3720609000884,None,238.17904133007397,None,,,,22004,0001,2022_Feb_14_1435,localizer,2021.1.3,59.94140128650105,
block,scenes,scenes011.bmp,,,,,0,12,12,12,,,,,,,,,,,,,,,,,,,,,,,,,,,,,,,,,,,,,,,,,,None,,238.17904133007397,None,238.17904133007397,None,2022-02-14-14:39:42.785261,238.19507930008695,238.49433110002428,238.19507930008695,None,None,238.19507930008695,None,238.99503653014546,None,,,,22004,0001,2022_Feb_14_1435,localizer,2021.1.3,59.94140128650105,
block,scenes,scenes007.bmp,,,,,0,13,13,13,,,,,,,,,,,,,,,,,,,,,,,,,,,,,,,,,,,,,,,,,,None,,238.99503653014546,None,238.99503653014546,None,2022-02-14-14:39:43.599397,239.01354219997302,239.32769290008582,239.01354219997302,None,None,239.01354219997302,None,239.81495273003821,None,,,,22004,0001,2022_Feb_14_1435,localizer,2021.1.3,59.94140128650105,
block,scenes,scenes030.bmp,,,,,0,14,14,14,,,,,,,,,,,,,,,,,,,,,,,,,,,,,,,,,,,,,,,,,,None,,239.81495273003821,None,239.81495273003821,None,2022-02-14-14:39:44.427977,239.83344740001485,240.1444371000398,239.83344740001485,None,None,239.83344740001485,None,240.6276367300423,None,,,,22004,0001,2022_Feb_14_1435,localizer,2021.1.3,59.94140128650105,
block_end,scenes,scenes019.bmp,,,,,0,15,15,15,,,,,,,,,,,,,,,,,,,,,,,,,,,,,,,,,,,,,,,,,,None,,240.6276367300423,None,240.6276367300423,None,2022-02-14-14:39:45.229880,240.63639300013892,240.9443842000328,240.63639300013892,None,None,240.63639300013892,None,241.4457366301911,None,,,,22004,0001,2022_Feb_14_1435,localizer,2021.1.3,59.94140128650105,
block_start,scrambled,scrambled055.bmp,,,,,0,16,16,16,,,,,,,,,,,,,,,,,,,,,,,,,,,,,,,,,,,,,,,,,,t,1.7245208001695573,241.4457495000679,None,241.4457495000679,None,2022-02-14-14:39:47.797333,243.2062761001289,243.51113450014964,243.2062761001289,None,None,243.2062761001289,None,244.01163053007332,None,,,,22004,0001,2022_Feb_14_1435,localizer,2021.1.3,59.94140128650105,
block,scrambled,scrambled081.bmp,,,,,0,17,17,17,,,,,,,,,,,,,,,,,,,,,,,,,,,,,,,,,,,,,,,,,,None,,244.01163053007332,None,244.01163053007332,None,2022-02-14-14:39:48.615951,244.0264177999925,244.32789180008695,244.0264177999925,None,None,244.0264177999925,None,244.8279131300049,None,,,,22004,0001,2022_Feb_14_1435,localizer,2021.1.3,59.94140128650105,
block,scrambled,scrambled066.bmp,,,,,0,18,18,18,,,,,,,,,,,,,,,,,,,,,,,,,,,,,,,,,,,,,,,,,,None,,244.8279131300049,None,244.8279131300049,None,2022-02-14-14:39:49.431519,244.83902910002507,245.14467549999245,244.83902910002507,None,None,244.83902910002507,None,245.64448303014507,None,,,,22004,0001,2022_Feb_14_1435,localizer,2021.1.3,59.94140128650105,
block,scrambled,scrambled051.bmp,,,,,0,19,19,19,,,,,,,,,,,,,,,,,,,,,,,,,,,,,,,,,,,,,,,,,,None,,245.64448303014507,None,245.64448303014507,None,2022-02-14-14:39:50.247893,245.65480250003748,245.96163000003435,245.65480250003748,None,None,245.65480250003748,None,246.46144603013528,None,,,,22004,0001,2022_Feb_14_1435,localizer,2021.1.3,59.94140128650105,
block,scrambled,scrambled046.bmp,,,,,0,20,20,20,,,,,,,,,,,,,,,,,,,,,,,,,,,,,,,,,,,,,,,,,,None,,246.46144603013528,None,246.46144603013528,None,2022-02-14-14:39:51.065069,246.47318990016356,246.77925350004807,246.47318990016356,None,None,246.47318990016356,None,247.27809273016175,None,,,,22004,0001,2022_Feb_14_1435,localizer,2021.1.3,59.94140128650105,
block,scrambled,scrambled068.bmp,,,,,0,21,21,21,,,,,,,,,,,,,,,,,,,,,,,,,,,,,,,,,,,,,,,,,,None,,247.27809273016175,None,247.27809273016175,None,2022-02-14-14:39:51.881757,247.28600860014558,247.594443900045,247.28600860014558,None,None,247.28600860014558,None,248.0844372302061,None,,,,22004,0001,2022_Feb_14_1435,localizer,2021.1.3,59.94140128650105,
block,scrambled,scrambled026.bmp,,,,,0,22,22,22,,,,,,,,,,,,,,,,,,,,,,,,,,,,,,,,,,,,,,,,,,None,,248.0844372302061,None,248.0844372302061,None,2022-02-14-14:39:52.691829,248.10002530016936,248.41111139999703,248.10002530016936,None,None,248.10002530016936,None,248.89458442998585,None,,,,22004,0001,2022_Feb_14_1435,localizer,2021.1.3,59.94140128650105,
block,scrambled,scrambled017.bmp,,,,,0,23,23,23,,,,,,,,,,,,,,,,,,,,,,,,,,,,,,,,,,,,,,,,,,None,,248.89458442998585,None,248.89458442998585,None,2022-02-14-14:39:53.498102,248.9058221001178,249.21129270014353,248.9058221001178,None,None,248.9058221001178,None,249.71131363005844,None,,,,22004,0001,2022_Feb_14_1435,localizer,2021.1.3,59.94140128650105,
block,scrambled,scrambled074.bmp,,,,,0,24,24,24,,,,,,,,,,,,,,,,,,,,,,,,,,,,,,,,,,,,,,,,,,None,,249.71131363005844,None,249.71131363005844,None,2022-02-14-14:39:54.314859,249.72150490013883,250.02803440019488,249.72150490013883,None,None,249.72150490013883,None,250.52903933015187,None,,,,22004,0001,2022_Feb_14_1435,localizer,2021.1.3,59.94140128650105,
block,scrambled,scrambled059.bmp,,,,,0,25,25,25,,,,,,,,,,,,,,,,,,,,,,,,,,,,,,,,,,,,,,,,,,None,,250.52903933015187,None,250.52903933015187,None,2022-02-14-14:39:55.134230,250.54240330005996,250.84423859999515,250.54240330005996,None,None,250.54240330005996,None,251.3442921301583,None,,,,22004,0001,2022_Feb_14_1435,localizer,2021.1.3,59.94140128650105,
block,scrambled,scrambled033.bmp,,,,,0,26,26,26,,,,,,,,,,,,,,,,,,,,,,,,,,,,,,,,,,,,,,,,,,None,,251.3442921301583,None,251.3442921301583,None,2022-02-14-14:39:55.948061,251.3496203001123,251.66120960004628,251.3496203001123,None,None,251.3496203001123,None,252.16115483019968,None,,,,22004,0001,2022_Feb_14_1435,localizer,2021.1.3,59.94140128650105,
block,scrambled,scrambled079.bmp,,,,,0,27,27,27,,,,,,,,,,,,,,,,,,,,,,,,,,,,,,,,,,,,,,,,,,None,,252.16115483019968,None,252.16115483019968,None,2022-02-14-14:39:56.764787,252.17107000015676,252.47798550012521,252.17107000015676,None,None,252.17107000015676,None,252.97783443012742,None,,,,22004,0001,2022_Feb_14_1435,localizer,2021.1.3,59.94140128650105,
block,scrambled,scrambled036.bmp,,,,,0,28,28,28,,,,,,,,,,,,,,,,,,,,,,,,,,,,,,,,,,,,,,,,,,None,,252.97783443012742,None,252.97783443012742,None,2022-02-14-14:39:57.581362,252.9871235000901,253.294380400097,252.9871235000901,None,None,252.9871235000901,None,253.79451283004602,None,,,,22004,0001,2022_Feb_14_1435,localizer,2021.1.3,59.94140128650105,
block,scrambled,scrambled070.bmp,,,,,0,29,29,29,,,,,,,,,,,,,,,,,,,,,,,,,,,,,,,,,,,,,,,,,,None,,253.79451283004602,None,253.79451283004602,None,2022-02-14-14:39:58.398198,253.8059175000526,254.11111150006764,253.8059175000526,None,None,253.8059175000526,None,254.61514243001585,None,,,,22004,0001,2022_Feb_14_1435,localizer,2021.1.3,59.94140128650105,
block_end,scrambled,scrambled031.bmp,,,,,0,30,30,30,,,,,,,,,,,,,,,,,,,,,,,,,,,,,,,,,,,,,,,,,,None,,254.61514243001585,None,254.61514243001585,None,2022-02-14-14:39:59.222946,254.6324265000876,254.94460400007665,254.6324265000876,None,None,254.6324265000876,None,255.42783293018584,None,,,,22004,0001,2022_Feb_14_1435,localizer,2021.1.3,59.94140128650105,
block_start,objects,objects073.bmp,,,,,0,31,31,31,,,,,,,,,,,,,,,,,,,,,,,,,,,,,,,,,,,,,,,,,,t,1.7427274999208748,255.42764560016803,None,255.42764560016803,None,2022-02-14-14:40:01.798422,257.2050652001053,257.5111124999821,257.2050652001053,None,None,257.2050652001053,None,258.0112171301851,None,,,,22004,0001,2022_Feb_14_1435,localizer,2021.1.3,59.94140128650105,
block,objects,objects050.bmp,,,,,0,32,32,32,,,,,,,,,,,,,,,,,,,,,,,,,,,,,,,,,,,,,,,,,,None,,258.0112171301851,None,258.0112171301851,None,2022-02-14-14:40:02.615103,258.02158180018887,258.32789020007476,258.02158180018887,None,None,258.02158180018887,None,258.82792693011,None,,,,22004,0001,2022_Feb_14_1435,localizer,2021.1.3,59.94140128650105,
block,objects,objects050.bmp,,,,,0,33,33,33,,,,,,,,,,,,,,,,,,,,,,,,,,,,,,,,,,,,,,,,,,None,,258.82792693011,None,258.82792693011,None,2022-02-14-14:40:03.431789,258.82880690018646,259.1279476999771,258.82880690018646,None,None,258.82880690018646,None,259.62936983008404,None,,,,22004,0001,2022_Feb_14_1435,localizer,2021.1.3,59.94140128650105,
block,objects,objects012.bmp,,,,,0,34,34,34,,,,,,,,,,,,,,,,,,,,,,,,,,,,,,,,,,,,,,,,,,None,,259.62936983008404,None,259.62936983008404,None,2022-02-14-14:40:04.236355,259.6448896001093,259.94438490015455,259.6448896001093,259.6448896001093,y,259.6448896001093,259.6448896001093,260.44457173005213,None,0.12734759994782507,,,22004,0001,2022_Feb_14_1435,localizer,2021.1.3,59.94140128650105,
block,objects,objects067.bmp,,,,,0,35,35,35,,,,,,,,,,,,,,,,,,,,,,,,,,,,,,,,,,,,,,,,,,None,,260.44457173005213,None,260.44457173005213,None,2022-02-14-14:40:05.048488,260.45489250007086,260.76163200009614,260.45489250007086,None,None,260.45489250007086,None,261.26107133000625,None,,,,22004,0001,2022_Feb_14_1435,localizer,2021.1.3,59.94140128650105,
block,objects,objects070.bmp,,,,,0,36,36,36,,,,,,,,,,,,,,,,,,,,,,,,,,,,,,,,,,,,,,,,,,None,,261.26107133000625,None,261.26107133000625,None,2022-02-14-14:40:05.865257,261.2701348999981,261.57825330016203,261.2701348999981,None,None,261.2701348999981,None,262.07794092998375,None,,,,22004,0001,2022_Feb_14_1435,localizer,2021.1.3,59.94140128650105,
block,objects,objects034.bmp,,,,,0,37,37,37,,,,,,,,,,,,,,,,,,,,,,,,,,,,,,,,,,,,,,,,,,None,,262.07794092998375,None,262.07794092998375,None,2022-02-14-14:40:06.681913,262.08815440000035,262.3947974999901,262.08815440000035,None,None,262.08815440000035,None,262.8945590300253,None,,,,22004,0001,2022_Feb_14_1435,localizer,2021.1.3,59.94140128650105,
block,objects,objects016.bmp,,,,,0,38,38,38,,,,,,,,,,,,,,,,,,,,,,,,,,,,,,,,,,,,,,,,,,None,,262.8945590300253,None,262.8945590300253,None,2022-02-14-14:40:07.498560,262.90480860020034,263.2112801000476,262.90480860020034,None,None,262.90480860020034,None,263.7112473301357,None,,,,22004,0001,2022_Feb_14_1435,localizer,2021.1.3,59.94140128650105,
block,objects,objects007.bmp,,,,,0,39,39,39,,,,,,,,,,,,,,,,,,,,,,,,,,,,,,,,,,,,,,,,,,None,,263.7112473301357,None,263.7112473301357,None,2022-02-14-14:40:08.315278,263.7207802000921,264.0280900001526,263.7207802000921,None,None,263.7207802000921,None,264.53411513015163,None,,,,22004,0001,2022_Feb_14_1435,localizer,2021.1.3,59.94140128650105,
block,objects,objects003.bmp,,,,,0,40,40,40,,,,,,,,,,,,,,,,,,,,,,,,,,,,,,,,,,,,,,,,,,None,,264.53411513015163,None,264.53411513015163,None,2022-02-14-14:40:09.145137,264.5533002000302,264.8611259001773,264.5533002000302,None,None,264.5533002000302,None,265.34487972997596,None,,,,22004,0001,2022_Feb_14_1435,localizer,2021.1.3,59.94140128650105,
block,objects,objects004.bmp,,,,,0,41,41,41,,,,,,,,,,,,,,,,,,,,,,,,,,,,,,,,,,,,,,,,,,None,,265.34487972997596,None,265.34487972997596,None,2022-02-14-14:40:09.949071,265.35573930013925,265.6620233000722,265.35573930013925,None,None,265.35573930013925,None,266.1613477301551,None,,,,22004,0001,2022_Feb_14_1435,localizer,2021.1.3,59.94140128650105,
block,objects,objects081.bmp,,,,,0,42,42,42,,,,,,,,,,,,,,,,,,,,,,,,,,,,,,,,,,,,,,,,,,None,,266.1613477301551,None,266.1613477301551,None,2022-02-14-14:40:10.765439,266.1718386001885,266.47869300004095,266.1718386001885,None,None,266.1718386001885,None,266.978394930088,None,,,,22004,0001,2022_Feb_14_1435,localizer,2021.1.3,59.94140128650105,
block,objects,objects024.bmp,,,,,0,43,43,43,,,,,,,,,,,,,,,,,,,,,,,,,,,,,,,,,,,,,,,,,,None,,266.978394930088,None,266.978394930088,None,2022-02-14-14:40:11.583678,266.9898320999928,267.2943007000722,266.9898320999928,None,None,266.9898320999928,None,267.79583233019804,None,,,,22004,0001,2022_Feb_14_1435,localizer,2021.1.3,59.94140128650105,
block,objects,objects008.bmp,,,,,0,44,44,44,,,,,,,,,,,,,,,,,,,,,,,,,,,,,,,,,,,,,,,,,,None,,267.79583233019804,None,267.79583233019804,None,2022-02-14-14:40:12.401964,267.80882699997164,268.1112560001202,267.80882699997164,None,None,267.80882699997164,None,268.61399063009304,None,,,,22004,0001,2022_Feb_14_1435,localizer,2021.1.3,59.94140128650105,
block_end,objects,objects010.bmp,,,,,0,45,45,45,,,,,,,,,,,,,,,,,,,,,,,,,,,,,,,,,,,,,,,,,,None,,268.61399063009304,None,268.61399063009304,None,2022-02-14-14:40:13.220314,268.6270199001301,268.9283731000032,268.6270199001301,None,None,268.6270199001301,None,269.428352030064,None,,,,22004,0001,2022_Feb_14_1435,localizer,2021.1.3,59.94140128650105,
block_start,faces,faces078.bmp,,,,,0,46,46,46,,,,,,,,,,,,,,,,,,,,,,,,,,,,,,,,,,,,,,,,,,t,1.7419930999167264,269.4284374001436,None,269.4284374001436,None,2022-02-14-14:40:15.799115,271.20643610018305,271.51152170007117,271.20643610018305,None,None,271.20643610018305,None,272.0119804300601,None,,,,22004,0001,2022_Feb_14_1435,localizer,2021.1.3,59.94140128650105,
block,faces,faces007.bmp,,,,,0,47,47,47,,,,,,,,,,,,,,,,,,,,,,,,,,,,,,,,,,,,,,,,,,None,,272.0119804300601,None,272.0119804300601,None,2022-02-14-14:40:16.617348,272.02462210017256,272.3279939000495,272.02462210017256,None,None,272.02462210017256,None,272.8287085300079,None,,,,22004,0001,2022_Feb_14_1435,localizer,2021.1.3,59.94140128650105,
block,faces,faces089.bmp,,,,,0,48,48,48,,,,,,,,,,,,,,,,,,,,,,,,,,,,,,,,,,,,,,,,,,None,,272.8287085300079,None,272.8287085300079,None,2022-02-14-14:40:17.434037,272.8422717000358,273.14580900012515,272.8422717000358,None,None,272.8422717000358,None,273.645462730038,None,,,,22004,0001,2022_Feb_14_1435,localizer,2021.1.3,59.94140128650105,
block,faces,faces044.bmp,,,,,0,49,49,49,,,,,,,,,,,,,,,,,,,,,,,,,,,,,,,,,,,,,,,,,,None,,273.645462730038,None,273.645462730038,None,2022-02-14-14:40:18.250818,273.6598957001697,273.96195470006205,273.6598957001697,None,None,273.6598957001697,None,274.4618400301086,None,,,,22004,0001,2022_Feb_14_1435,localizer,2021.1.3,59.94140128650105,
block,faces,faces085.bmp,,,,,0,50,50,50,,,,,,,,,,,,,,,,,,,,,,,,,,,,,,,,,,,,,,,,,,None,,274.4618400301086,None,274.4618400301086,None,2022-02-14-14:40:19.066255,274.472892699996,274.77786530018784,274.472892699996,None,None,274.472892699996,None,275.2786322301952,None,,,,22004,0001,2022_Feb_14_1435,localizer,2021.1.3,59.94140128650105,
block,faces,faces014.bmp,,,,,0,51,51,51,,,,,,,,,,,,,,,,,,,,,,,,,,,,,,,,,,,,,,,,,,None,,275.2786322301952,None,275.2786322301952,None,2022-02-14-14:40:19.885075,275.2934197001159,275.5947823000606,275.2934197001159,None,None,275.2934197001159,None,276.0948838301236,None,,,,22004,0001,2022_Feb_14_1435,localizer,2021.1.3,59.94140128650105,
block,faces,faces058.bmp,,,,,0,52,52,52,,,,,,,,,,,,,,,,,,,,,,,,,,,,,,,,,,,,,,,,,,None,,276.0948838301236,None,276.0948838301236,None,2022-02-14-14:40:20.699552,276.1070187999867,276.41139440005645,276.1070187999867,None,None,276.1070187999867,None,276.91161493009423,None,,,,22004,0001,2022_Feb_14_1435,localizer,2021.1.3,59.94140128650105,
block,faces,faces034.bmp,,,,,0,53,53,53,,,,,,,,,,,,,,,,,,,,,,,,,,,,,,,,,,,,,,,,,,None,,276.91161493009423,None,276.91161493009423,None,2022-02-14-14:40:21.515885,276.92149220011197,277.2281411001459,276.92149220011197,None,None,276.92149220011197,None,277.72829363013153,None,,,,22004,0001,2022_Feb_14_1435,localizer,2021.1.3,59.94140128650105,
block,faces,faces038.bmp,,,,,0,54,54,54,,,,,,,,,,,,,,,,,,,,,,,,,,,,,,,,,,,,,,,,,,None,,277.72829363013153,None,277.72829363013153,None,2022-02-14-14:40:22.332797,277.7461238000542,278.045528100105,277.7461238000542,None,None,277.7461238000542,None,278.54465893011076,None,,,,22004,0001,2022_Feb_14_1435,localizer,2021.1.3,59.94140128650105,
block,faces,faces055.bmp,,,,,0,55,55,55,,,,,,,,,,,,,,,,,,,,,,,,,,,,,,,,,,,,,,,,,,None,,278.54465893011076,None,278.54465893011076,None,2022-02-14-14:40:23.148173,278.5533913001418,278.8614052000921,278.5533913001418,None,None,278.5533913001418,None,279.3618798300857,None,,,,22004,0001,2022_Feb_14_1435,localizer,2021.1.3,59.94140128650105,
block,faces,faces026.bmp,,,,,0,56,56,56,,,,,,,,,,,,,,,,,,,,,,,,,,,,,,,,,,,,,,,,,,None,,279.3618798300857,None,279.3618798300857,None,2022-02-14-14:40:23.966469,279.40132339997217,279.71102689998224,279.40132339997217,None,None,279.40132339997217,None,280.1785484301625,None,,,,22004,0001,2022_Feb_14_1435,localizer,2021.1.3,59.94140128650105,
block,faces,faces045.bmp,,,,,0,57,57,57,,,,,,,,,,,,,,,,,,,,,,,,,,,,,,,,,,,,,,,,,,None,,280.1785484301625,None,280.1785484301625,None,2022-02-14-14:40:24.784131,280.1918427001219,280.49474280001596,280.1918427001219,None,None,280.1918427001219,None,280.9945830300683,None,,,,22004,0001,2022_Feb_14_1435,localizer,2021.1.3,59.94140128650105,
block,faces,faces031.bmp,,,,,0,58,58,58,,,,,,,,,,,,,,,,,,,,,,,,,,,,,,,,,,,,,,,,,,None,,280.9945830300683,None,280.9945830300683,None,2022-02-14-14:40:25.598801,280.99988350016065,281.3119930999819,280.99988350016065,None,None,280.99988350016065,None,281.81161203009543,None,,,,22004,0001,2022_Feb_14_1435,localizer,2021.1.3,59.94140128650105,
block,faces,faces062.bmp,,,,,0,59,59,59,,,,,,,,,,,,,,,,,,,,,,,,,,,,,,,,,,,,,,,,,,None,,281.81161203009543,None,281.81161203009543,None,2022-02-14-14:40:26.415364,281.82019390002824,282.127521000104,281.82019390002824,None,None,281.82019390002824,None,282.6286964300787,None,,,,22004,0001,2022_Feb_14_1435,localizer,2021.1.3,59.94140128650105,
block_end,faces,faces080.bmp,,,,,0,60,60,60,,,,,,,,,,,,,,,,,,,,,,,,,,,,,,,,,,,,,,,,,,None,,282.6286964300787,None,282.6286964300787,None,2022-02-14-14:40:27.232365,282.6371685999911,282.9447193001397,282.6371685999911,None,None,282.6371685999911,None,283.4456624300918,None,,,,22004,0001,2022_Feb_14_1435,localizer,2021.1.3,59.94140128650105,
block_start,scrambled,scrambled031.bmp,,,,,0,61,61,61,,,,,,,,,,,,,,,,,,,,,,,,,,,,,,,,,,,,,,,,,,t,1.7254196000285447,283.4453985001892,None,283.4453985001892,None,2022-02-14-14:40:29.812752,285.2079255001154,285.51142680016346,285.2079255001154,None,None,285.2079255001154,None,286.0113802301465,None,,,,22004,0001,2022_Feb_14_1435,localizer,2021.1.3,59.94140128650105,
block,scrambled,scrambled075.bmp,,,,,0,62,62,62,,,,,,,,,,,,,,,,,,,,,,,,,,,,,,,,,,,,,,,,,,None,,286.0113802301465,None,286.0113802301465,None,2022-02-14-14:40:30.616175,286.02161470009014,286.32806750014424,286.02161470009014,None,None,286.02161470009014,None,286.82792903000956,None,,,,22004,0001,2022_Feb_14_1435,localizer,2021.1.3,59.94140128650105,
block,scrambled,scrambled003.bmp,,,,,0,63,63,63,,,,,,,,,,,,,,,,,,,,,,,,,,,,,,,,,,,,,,,,,,None,,286.82792903000956,None,286.82792903000956,None,2022-02-14-14:40:31.432753,286.83734100009315,287.14495080010965,286.83734100009315,None,None,286.83734100009315,None,287.6449911301723,None,,,,22004,0001,2022_Feb_14_1435,localizer,2021.1.3,59.94140128650105,
block,scrambled,scrambled025.bmp,,,,,0,64,64,64,,,,,,,,,,,,,,,,,,,,,,,,,,,,,,,,,,,,,,,,,,None,,287.6449911301723,None,287.6449911301723,None,2022-02-14-14:40:32.249877,287.65509210014716,287.9617914999835,287.65509210014716,None,None,287.65509210014716,None,288.46175343014767,None,,,,22004,0001,2022_Feb_14_1435,localizer,2021.1.3,59.94140128650105,
block,scrambled,scrambled063.bmp,,,,,0,65,65,65,,,,,,,,,,,,,,,,,,,,,,,,,,,,,,,,,,,,,,,,,,None,,288.46175343014767,None,288.46175343014767,None,2022-02-14-14:40:33.066691,288.4681086000055,288.7818142999895,288.4681086000055,None,None,288.4681086000055,None,289.2778656301787,None,,,,22004,0001,2022_Feb_14_1435,localizer,2021.1.3,59.94140128650105,
block,scrambled,scrambled066.bmp,,,,,0,66,66,66,,,,,,,,,,,,,,,,,,,,,,,,,,,,,,,,,,,,,,,,,,None,,289.2778656301787,None,289.2778656301787,None,2022-02-14-14:40:33.883021,289.27890869998373,289.5812870999798,289.27890869998373,None,None,289.27890869998373,None,290.0783731300151,None,,,,22004,0001,2022_Feb_14_1435,localizer,2021.1.3,59.94140128650105,
block,scrambled,scrambled079.bmp,,,,,0,67,67,67,,,,,,,,,,,,,,,,,,,,,,,,,,,,,,,,,,,,,,,,,,None,,290.0783731300151,None,290.0783731300151,None,2022-02-14-14:40:34.685352,290.07978540007025,290.3951779000927,290.07978540007025,290.07978540007025,None,290.07978540007025,290.07978540007025,290.8949569301447,None,,,,22004,0001,2022_Feb_14_1435,localizer,2021.1.3,59.94140128650105,
block,scrambled,scrambled018.bmp,,,,,0,68,68,68,,,,,,,,,,,,,,,,,,,,,,,,,,,,,,,,,,,,,,,,,,None,,290.8949569301447,None,290.8949569301447,None,2022-02-14-14:40:35.500148,290.90198970003985,291.21129160001874,290.90198970003985,None,None,290.90198970003985,None,291.711193230073,None,,,,22004,0001,2022_Feb_14_1435,localizer,2021.1.3,59.94140128650105,
block,scrambled,scrambled004.bmp,,,,,0,69,69,69,,,,,,,,,,,,,,,,,,,,,,,,,,,,,,,,,,,,,,,,,,None,,291.711193230073,None,291.711193230073,None,2022-02-14-14:40:36.315462,291.71897430019453,292.02856070012785,291.71897430019453,None,None,291.71897430019453,None,292.52876853018535,None,,,,22004,0001,2022_Feb_14_1435,localizer,2021.1.3,59.94140128650105,
block,scrambled,scrambled036.bmp,,,,,0,70,70,70,,,,,,,,,,,,,,,,,,,,,,,,,,,,,,,,,,,,,,,,,,None,,292.52876853018535,None,292.52876853018535,None,2022-02-14-14:40:37.134937,292.53050560015254,292.8449021000415,292.53050560015254,None,None,292.53050560015254,None,293.344990830007,None,,,,22004,0001,2022_Feb_14_1435,localizer,2021.1.3,59.94140128650105,
block,scrambled,scrambled058.bmp,,,,,0,71,71,71,,,,,,,,,,,,,,,,,,,,,,,,,,,,,,,,,,,,,,,,,,None,,293.344990830007,None,293.344990830007,None,2022-02-14-14:40:37.950134,293.35525130014867,293.661489300197,293.35525130014867,None,None,293.35525130014867,None,294.16167003016454,None,,,,22004,0001,2022_Feb_14_1435,localizer,2021.1.3,59.94140128650105,
block,scrambled,scrambled045.bmp,,,,,0,72,72,72,,,,,,,,,,,,,,,,,,,,,,,,,,,,,,,,,,,,,,,,,,None,,294.16167003016454,None,294.16167003016454,None,2022-02-14-14:40:38.767465,294.1725717000663,294.4783597001806,294.1725717000663,None,None,294.1725717000663,None,294.9785306300735,None,,,,22004,0001,2022_Feb_14_1435,localizer,2021.1.3,59.94140128650105,
block,scrambled,scrambled028.bmp,,,,,0,73,73,73,,,,,,,,,,,,,,,,,,,,,,,,,,,,,,,,,,,,,,,,,,None,,294.9785306300735,None,294.9785306300735,None,2022-02-14-14:40:39.583625,294.9893487000372,295.295013200026,294.9893487000372,None,None,294.9893487000372,None,295.79473492999097,None,,,,22004,0001,2022_Feb_14_1435,localizer,2021.1.3,59.94140128650105,
block,scrambled,scrambled064.bmp,,,,,0,74,74,74,,,,,,,,,,,,,,,,,,,,,,,,,,,,,,,,,,,,,,,,,,None,,295.79473492999097,None,295.79473492999097,None,2022-02-14-14:40:40.399841,295.8052624000702,296.1117494001519,295.8052624000702,None,None,295.8052624000702,None,296.6116819300922,None,,,,22004,0001,2022_Feb_14_1435,localizer,2021.1.3,59.94140128650105,
block_end,scrambled,scrambled055.bmp,,,,,0,75,75,75,,,,,,,,,,,,,,,,,,,,,,,,,,,,,,,,,,,,,,,,,,None,,296.6116819300922,None,296.6116819300922,None,2022-02-14-14:40:41.217153,296.6124634000007,296.92812260007486,296.6124634000007,None,None,296.6124634000007,None,297.41166663013865,None,,,,22004,0001,2022_Feb_14_1435,localizer,2021.1.3,59.94140128650105,
null_block,null_block,null_block.bmp,,,,,0,76,76,76,,,,,,,,,,,,,,,,,,,,,,,,,,,,,,,,,,,,,,,,,,t,1.759196599945426,297.41157350013964,None,297.41157350013964,None,2022-02-14-14:40:43.798950,299.19489923010116,None,299.19489923010116,None,None,299.19489923010116,None,299.19716150010936,None,,,,22004,0001,2022_Feb_14_1435,localizer,2021.1.3,59.94140128650105,
block_start,objects,objects078.bmp,,,,,0,77,77,77,,,,,,,,,,,,,,,,,,,,,,,,,,,,,,,,,,,,,,,,,,t,1.956889299908653,311.212495499989,None,311.212495499989,None,2022-02-14-14:40:57.800964,313.2057931001764,313.51156760007143,313.2057931001764,None,None,313.2057931001764,None,314.01145943005105,None,,,,22004,0001,2022_Feb_14_1435,localizer,2021.1.3,59.94140128650105,
block,objects,objects085.bmp,,,,,0,78,78,78,,,,,,,,,,,,,,,,,,,,,,,,,,,,,,,,,,,,,,,,,,None,,314.01145943005105,None,314.01145943005105,None,2022-02-14-14:40:58.616794,314.016366600059,314.328373500146,314.016366600059,None,None,314.016366600059,None,314.82939013007564,None,,,,22004,0001,2022_Feb_14_1435,localizer,2021.1.3,59.94140128650105,
block,objects,objects015.bmp,,,,,0,79,79,79,,,,,,,,,,,,,,,,,,,,,,,,,,,,,,,,,,,,,,,,,,None,,314.82939013007564,None,314.82939013007564,None,2022-02-14-14:40:59.436664,314.84295510011725,315.14612570009194,314.84295510011725,None,None,314.84295510011725,None,315.6461423300905,None,,,,22004,0001,2022_Feb_14_1435,localizer,2021.1.3,59.94140128650105,
block,objects,objects017.bmp,,,,,0,80,80,80,,,,,,,,,,,,,,,,,,,,,,,,,,,,,,,,,,,,,,,,,,None,,315.6461423300905,None,315.6461423300905,None,2022-02-14-14:41:00.252417,315.6596862000879,315.96148800011724,315.6596862000879,None,None,315.6596862000879,None,316.4618512301939,None,,,,22004,0001,2022_Feb_14_1435,localizer,2021.1.3,59.94140128650105,
block,objects,objects065.bmp,,,,,0,81,81,81,,,,,,,,,,,,,,,,,,,,,,,,,,,,,,,,,,,,,,,,,,None,,316.4618512301939,None,316.4618512301939,None,2022-02-14-14:41:01.067201,316.4736175001599,316.7781107001938,316.4736175001599,None,None,316.4736175001599,None,317.2783241300611,None,,,,22004,0001,2022_Feb_14_1435,localizer,2021.1.3,59.94140128650105,
block,objects,objects041.bmp,,,,,0,82,82,82,,,,,,,,,,,,,,,,,,,,,,,,,,,,,,,,,,,,,,,,,,None,,317.2783241300611,None,317.2783241300611,None,2022-02-14-14:41:01.883441,317.28862260002643,317.5947661001701,317.28862260002643,None,None,317.28862260002643,None,318.09492013005075,None,,,,22004,0001,2022_Feb_14_1435,localizer,2021.1.3,59.94140128650105,
block,objects,objects005.bmp,,,,,0,83,83,83,,,,,,,,,,,,,,,,,,,,,,,,,,,,,,,,,,,,,,,,,,None,,318.09492013005075,None,318.09492013005075,None,2022-02-14-14:41:02.700035,318.10106280003674,318.4116774001159,318.10106280003674,None,None,318.10106280003674,None,318.9119363299804,None,,,,22004,0001,2022_Feb_14_1435,localizer,2021.1.3,59.94140128650105,
block,objects,objects082.bmp,,,,,0,84,84,84,,,,,,,,,,,,,,,,,,,,,,,,,,,,,,,,,,,,,,,,,,None,,318.9119363299804,None,318.9119363299804,None,2022-02-14-14:41:03.517044,318.92177400016226,319.2284385000821,318.92177400016226,None,None,318.92177400016226,None,319.7320729301544,None,,,,22004,0001,2022_Feb_14_1435,localizer,2021.1.3,59.94140128650105,
block,objects,objects060.bmp,,,,,0,85,85,85,,,,,,,,,,,,,,,,,,,,,,,,,,,,,,,,,,,,,,,,,,None,,319.7320729301544,None,319.7320729301544,None,2022-02-14-14:41:04.347082,319.7548336000182,320.06168340006843,319.7548336000182,None,None,319.7548336000182,None,320.5450917301467,None,,,,22004,0001,2022_Feb_14_1435,localizer,2021.1.3,59.94140128650105,
block,objects,objects062.bmp,,,,,0,86,86,86,,,,,,,,,,,,,,,,,,,,,,,,,,,,,,,,,,,,,,,,,,None,,320.5450917301467,None,320.5450917301467,None,2022-02-14-14:41:05.150202,320.55516630015336,320.86164030013606,320.55516630015336,None,None,320.55516630015336,None,321.36130553002005,None,,,,22004,0001,2022_Feb_14_1435,localizer,2021.1.3,59.94140128650105,
block,objects,objects086.bmp,,,,,0,87,87,87,,,,,,,,,,,,,,,,,,,,,,,,,,,,,,,,,,,,,,,,,,None,,321.36130553002005,None,321.36130553002005,None,2022-02-14-14:41:05.966422,321.37106980010867,321.678595200181,321.37106980010867,None,None,321.37106980010867,None,322.1782423300436,None,,,,22004,0001,2022_Feb_14_1435,localizer,2021.1.3,59.94140128650105,
block,objects,objects084.bmp,,,,,0,88,88,88,,,,,,,,,,,,,,,,,,,,,,,,,,,,,,,,,,,,,,,,,,None,,322.1782423300436,None,322.1782423300436,None,2022-02-14-14:41:06.783358,322.1882148999721,322.49498860002495,322.1882148999721,None,None,322.1882148999721,None,322.994936330081,None,,,,22004,0001,2022_Feb_14_1435,localizer,2021.1.3,59.94140128650105,
block,objects,objects013.bmp,,,,,0,89,89,89,,,,,,,,,,,,,,,,,,,,,,,,,,,,,,,,,,,,,,,,,,None,,322.994936330081,None,322.994936330081,None,2022-02-14-14:41:07.600053,323.0040935999714,323.3120395001024,323.0040935999714,None,None,323.0040935999714,None,323.8114848300582,None,,,,22004,0001,2022_Feb_14_1435,localizer,2021.1.3,59.94140128650105,
block,objects,objects033.bmp,,,,,0,90,90,90,,,,,,,,,,,,,,,,,,,,,,,,,,,,,,,,,,,,,,,,,,None,,323.8114848300582,None,323.8114848300582,None,2022-02-14-14:41:08.416605,323.8200650999788,324.128089300124,323.8200650999788,None,None,323.8200650999788,None,324.6283956301166,None,,,,22004,0001,2022_Feb_14_1435,localizer,2021.1.3,59.94140128650105,
block_end,objects,objects002.bmp,,,,,0,91,91,91,,,,,,,,,,,,,,,,,,,,,,,,,,,,,,,,,,,,,,,,,,None,,324.6283956301166,None,324.6283956301166,None,2022-02-14-14:41:09.233507,324.63960470003076,324.94531910005026,324.63960470003076,None,None,324.63960470003076,None,325.44494713011665,None,,,,22004,0001,2022_Feb_14_1435,localizer,2021.1.3,59.94140128650105,
block_start,faces,faces088.bmp,,,,,0,92,92,92,,,,,,,,,,,,,,,,,,,,,,,,,,,,,,,,,,,,,,,,,,t,1.7246860000304878,325.44495360017754,None,325.44495360017754,None,2022-02-14-14:41:11.798948,327.20671010017395,327.5117201001849,327.20671010017395,None,None,327.20671010017395,None,328.01190703019967,None,,,,22004,0001,2022_Feb_14_1435,localizer,2021.1.3,59.94140128650105,
block,faces,faces016.bmp,,,,,0,93,93,93,,,,,,,,,,,,,,,,,,,,,,,,,,,,,,,,,,,,,,,,,,None,,328.01190703019967,None,328.01190703019967,None,2022-02-14-14:41:12.617018,328.0241865001153,328.3282228000462,328.0241865001153,None,None,328.0241865001153,None,328.8296698299935,None,,,,22004,0001,2022_Feb_14_1435,localizer,2021.1.3,59.94140128650105,
block,faces,faces077.bmp,,,,,0,94,94,94,,,,,,,,,,,,,,,,,,,,,,,,,,,,,,,,,,,,,,,,,,None,,328.8296698299935,None,328.8296698299935,None,2022-02-14-14:41:13.435744,328.84408519999124,329.14504470000975,328.84408519999124,None,None,328.84408519999124,None,329.64493243007456,None,,,,22004,0001,2022_Feb_14_1435,localizer,2021.1.3,59.94140128650105,
block,faces,faces050.bmp,,,,,0,95,95,95,,,,,,,,,,,,,,,,,,,,,,,,,,,,,,,,,,,,,,,,,,None,,329.64493243007456,None,329.64493243007456,None,2022-02-14-14:41:14.250049,329.6543556000106,329.96152060013264,329.6543556000106,None,None,329.6543556000106,None,330.46183113015724,None,,,,22004,0001,2022_Feb_14_1435,localizer,2021.1.3,59.94140128650105,
block,faces,faces040.bmp,,,,,0,96,96,96,,,,,,,,,,,,,,,,,,,,,,,,,,,,,,,,,,,,,,,,,,None,,330.46183113015724,None,330.46183113015724,None,2022-02-14-14:41:15.066948,330.4722276001703,330.7781446001027,330.4722276001703,None,None,330.4722276001703,None,331.2792297302047,None,,,,22004,0001,2022_Feb_14_1435,localizer,2021.1.3,59.94140128650105,
block,faces,faces070.bmp,,,,,0,97,97,97,,,,,,,,,,,,,,,,,,,,,,,,,,,,,,,,,,,,,,,,,,None,,331.2792297302047,None,331.2792297302047,None,2022-02-14-14:41:15.885330,331.2926167000551,331.5953117001336,331.2926167000551,None,None,331.2926167000551,None,332.0949852301972,None,,,,22004,0001,2022_Feb_14_1435,localizer,2021.1.3,59.94140128650105,
block,faces,faces022.bmp,,,,,0,98,98,98,,,,,,,,,,,,,,,,,,,,,,,,,,,,,,,,,,,,,,,,,,None,,332.0949852301972,None,332.0949852301972,None,2022-02-14-14:41:16.700109,332.1055596000515,332.41167930001393,332.1055596000515,None,None,332.1055596000515,None,332.9118021301227,None,,,,22004,0001,2022_Feb_14_1435,localizer,2021.1.3,59.94140128650105,
block,faces,faces010.bmp,,,,,0,99,99,99,,,,,,,,,,,,,,,,,,,,,,,,,,,,,,,,,,,,,,,,,,None,,332.9118021301227,None,332.9118021301227,None,2022-02-14-14:41:17.517852,332.9204877000302,333.22852770006284,332.9204877000302,None,None,332.9204877000302,None,333.7285384301329,None,,,,22004,0001,2022_Feb_14_1435,localizer,2021.1.3,59.94140128650105,
block,faces,faces031.bmp,,,,,0,100,100,100,,,,,,,,,,,,,,,,,,,,,,,,,,,,,,,,,,,,,,,,,,None,,333.7285384301329,None,333.7285384301329,None,2022-02-14-14:41:18.333653,333.7293643001467,334.0288436000701,333.7293643001467,None,None,333.7293643001467,None,334.52871863015463,None,,,,22004,0001,2022_Feb_14_1435,localizer,2021.1.3,59.94140128650105,
block,faces,faces030.bmp,,,,,0,101,101,101,,,,,,,,,,,,,,,,,,,,,,,,,,,,,,,,,,,,,,,,,,None,,334.52871863015463,None,334.52871863015463,None,2022-02-14-14:41:19.135848,334.542248000158,334.8450965001248,334.542248000158,334.542248000158,None,334.542248000158,334.542248000158,335.3457898300374,None,,,,22004,0001,2022_Feb_14_1435,localizer,2021.1.3,59.94140128650105,
block,faces,faces086.bmp,,,,,0,102,102,102,,,,,,,,,,,,,,,,,,,,,,,,,,,,,,,,,,,,,,,,,,None,,335.3457898300374,None,335.3457898300374,None,2022-02-14-14:41:19.951894,335.35754960007034,335.66184150008485,335.35754960007034,None,None,335.35754960007034,None,336.16187183007133,None,,,,22004,0001,2022_Feb_14_1435,localizer,2021.1.3,59.94140128650105,
block,faces,faces002.bmp,,,,,0,103,103,103,,,,,,,,,,,,,,,,,,,,,,,,,,,,,,,,,,,,,,,,,,None,,336.16187183007133,None,336.16187183007133,None,2022-02-14-14:41:20.766988,336.17378040007316,336.47847210010514,336.17378040007316,None,None,336.17378040007316,None,336.9796106301481,None,,,,22004,0001,2022_Feb_14_1435,localizer,2021.1.3,59.94140128650105,
block,faces,faces089.bmp,,,,,0,104,104,104,,,,,,,,,,,,,,,,,,,,,,,,,,,,,,,,,,,,,,,,,,None,,336.9796106301481,None,336.9796106301481,None,2022-02-14-14:41:21.587833,336.9828916999977,337.29550370015204,336.9828916999977,None,None,336.9828916999977,None,337.79507933005226,None,,,,22004,0001,2022_Feb_14_1435,localizer,2021.1.3,59.94140128650105,
block,faces,faces026.bmp,,,,,0,105,105,105,,,,,,,,,,,,,,,,,,,,,,,,,,,,,,,,,,,,,,,,,,None,,337.79507933005226,None,337.79507933005226,None,2022-02-14-14:41:22.400204,337.7971373000182,338.11169410008006,337.7971373000182,None,None,337.7971373000182,None,338.61149523018395,None,,,,22004,0001,2022_Feb_14_1435,localizer,2021.1.3,59.94140128650105,
block_end,faces,faces065.bmp,,,,,0,106,106,106,,,,,,,,,,,,,,,,,,,,,,,,,,,,,,,,,,,,,,,,,,None,,338.61149523018395,None,338.61149523018395,None,2022-02-14-14:41:23.215657,338.62916850019246,338.9289176000748,338.62916850019246,None,None,338.62916850019246,None,339.4285261301091,None,,,,22004,0001,2022_Feb_14_1435,localizer,2021.1.3,59.94140128650105,
block_start,scenes,scenes004.bmp,,,,,0,107,107,107,,,,,,,,,,,,,,,,,,,,,,,,,,,,,,,,,,,,,,,,,,t,1.741110400063917,339.4284618999809,None,339.4284618999809,None,2022-02-14-14:41:25.802510,341.21591350017115,341.528484800132,341.21591350017115,None,None,341.21591350017115,None,342.01189873002005,None,,,,22004,0001,2022_Feb_14_1435,localizer,2021.1.3,59.94140128650105,
block,scenes,scenes065.bmp,,,,,0,108,108,108,,,,,,,,,,,,,,,,,,,,,,,,,,,,,,,,,,,,,,,,,,None,,342.01189873002005,None,342.01189873002005,None,2022-02-14-14:41:26.617015,342.02181700011715,342.3282264000736,342.02181700011715,None,None,342.02181700011715,None,342.8285794300726,None,,,,22004,0001,2022_Feb_14_1435,localizer,2021.1.3,59.94140128650105,
block,scenes,scenes065.bmp,,,,,0,109,109,109,,,,,,,,,,,,,,,,,,,,,,,,,,,,,,,,,,,,,,,,,,None,,342.8285794300726,None,342.8285794300726,None,2022-02-14-14:41:27.434037,342.8293440002017,343.1285302999895,342.8293440002017,None,None,342.8293440002017,None,343.62854913000484,None,,,,22004,0001,2022_Feb_14_1435,localizer,2021.1.3,59.94140128650105,
block,scenes,scenes078.bmp,,,,,0,110,110,110,,,,,,,,,,,,,,,,,,,,,,,,,,,,,,,,,,,,,,,,,,None,,343.62854913000484,None,343.62854913000484,None,2022-02-14-14:41:28.234665,343.641964700073,343.9450903001707,343.641964700073,343.641964700073,None,343.641964700073,343.641964700073,344.44573133003433,None,,,,22004,0001,2022_Feb_14_1435,localizer,2021.1.3,59.94140128650105,
block,scenes,scenes003.bmp,,,,,0,111,111,111,,,,,,,,,,,,,,,,,,,,,,,,,,,,,,,,,,,,,,,,,,None,,344.44573133003433,None,344.44573133003433,None,2022-02-14-14:41:29.052036,344.45913089998066,344.76180039998144,344.45913089998066,None,None,344.45913089998066,None,345.26184233005625,None,,,,22004,0001,2022_Feb_14_1435,localizer,2021.1.3,59.94140128650105,
block,scenes,scenes092.bmp,,,,,0,112,112,112,,,,,,,,,,,,,,,,,,,,,,,,,,,,,,,,,,,,,,,,,,None,,345.26184233005625,None,345.26184233005625,None,2022-02-14-14:41:29.867918,345.2727899001911,345.5784676000476,345.2727899001911,None,None,345.2727899001911,None,346.0780471300939,None,,,,22004,0001,2022_Feb_14_1435,localizer,2021.1.3,59.94140128650105,
block,scenes,scenes051.bmp,,,,,0,113,113,113,,,,,,,,,,,,,,,,,,,,,,,,,,,,,,,,,,,,,,,,,,None,,346.0780471300939,None,346.0780471300939,None,2022-02-14-14:41:30.682175,346.08900520019233,346.3950977001805,346.08900520019233,None,None,346.08900520019233,None,346.895298630069,None,,,,22004,0001,2022_Feb_14_1435,localizer,2021.1.3,59.94140128650105,
block,scenes,scenes024.bmp,,,,,0,114,114,114,,,,,,,,,,,,,,,,,,,,,,,,,,,,,,,,,,,,,,,,,,None,,346.895298630069,None,346.895298630069,None,2022-02-14-14:41:31.500628,346.9056335000787,347.2119233000558,346.9056335000787,None,None,346.9056335000787,None,347.71185322997627,None,,,,22004,0001,2022_Feb_14_1435,localizer,2021.1.3,59.94140128650105,
block,scenes,scenes090.bmp,,,,,0,115,115,115,,,,,,,,,,,,,,,,,,,,,,,,,,,,,,,,,,,,,,,,,,None,,347.71185322997627,None,347.71185322997627,None,2022-02-14-14:41:32.316972,347.7220741000492,348.028451200109,347.7220741000492,None,None,347.7220741000492,None,348.5290016299812,None,,,,22004,0001,2022_Feb_14_1435,localizer,2021.1.3,59.94140128650105,
block,scenes,scenes088.bmp,,,,,0,116,116,116,,,,,,,,,,,,,,,,,,,,,,,,,,,,,,,,,,,,,,,,,,None,,348.5290016299812,None,348.5290016299812,None,2022-02-14-14:41:33.135043,348.54081530007534,348.8452643000055,348.54081530007534,None,None,348.54081530007534,None,349.34591553017964,None,,,,22004,0001,2022_Feb_14_1435,localizer,2021.1.3,59.94140128650105,
block,scenes,scenes023.bmp,,,,,0,117,117,117,,,,,,,,,,,,,,,,,,,,,,,,,,,,,,,,,,,,,,,,,,None,,349.34591553017964,None,349.34591553017964,None,2022-02-14-14:41:33.952216,349.35781530011445,349.6617027001921,349.35781530011445,None,None,349.35781530011445,None,350.16182263016236,None,,,,22004,0001,2022_Feb_14_1435,localizer,2021.1.3,59.94140128650105,
block,scenes,scenes081.bmp,,,,,0,118,118,118,,,,,,,,,,,,,,,,,,,,,,,,,,,,,,,,,,,,,,,,,,None,,350.16182263016236,None,350.16182263016236,None,2022-02-14-14:41:34.766943,350.162788500078,350.461788300192,350.162788500078,None,None,350.162788500078,None,350.96186343005394,None,,,,22004,0001,2022_Feb_14_1435,localizer,2021.1.3,59.94140128650105,
block,scenes,scenes089.bmp,,,,,0,119,119,119,,,,,,,,,,,,,,,,,,,,,,,,,,,,,,,,,,,,,,,,,,None,,350.96186343005394,None,350.96186343005394,None,2022-02-14-14:41:35.568979,350.9740617000498,351.2785420001019,350.9740617000498,350.9740617000498,None,350.9740617000498,350.9740617000498,351.77859873005656,None,,,,22004,0001,2022_Feb_14_1435,localizer,2021.1.3,59.94140128650105,
block,scenes,scenes074.bmp,,,,,0,120,120,120,,,,,,,,,,,,,,,,,,,,,,,,,,,,,,,,,,,,,,,,,,None,,351.77859873005656,None,351.77859873005656,None,2022-02-14-14:41:36.384004,351.7885686000809,352.09500940004364,351.7885686000809,None,None,351.7885686000809,None,352.59503243009095,None,,,,22004,0001,2022_Feb_14_1435,localizer,2021.1.3,59.94140128650105,
block_end,scenes,scenes015.bmp,,,,,0,121,121,121,,,,,,,,,,,,,,,,,,,,,,,,,,,,,,,,,,,,,,,,,,None,,352.59503243009095,None,352.59503243009095,None,2022-02-14-14:41:37.200155,352.606972000096,352.91181610012427,352.606972000096,None,None,352.606972000096,None,353.4131673300406,None,,,,22004,0001,2022_Feb_14_1435,localizer,2021.1.3,59.94140128650105,
block_start,scrambled,scrambled070.bmp,,,,,0,122,122,122,,,,,,,,,,,,,,,,,,,,,,,,,,,,,,,,,,,,,,,,,,t,1.7565595000050962,353.41308600013144,None,353.41308600013144,None,2022-02-14-14:41:39.799481,355.19675020012073,355.5118919000961,355.19675020012073,None,None,355.19675020012073,None,356.01255693014247,None,,,,22004,0001,2022_Feb_14_1435,localizer,2021.1.3,59.94140128650105,
block,scrambled,scrambled008.bmp,,,,,0,123,123,123,,,,,,,,,,,,,,,,,,,,,,,,,,,,,,,,,,,,,,,,,,None,,356.01255693014247,None,356.01255693014247,None,2022-02-14-14:41:40.618818,356.0239508000668,356.3286862000823,356.0239508000668,None,None,356.0239508000668,None,356.8290363301756,None,,,,22004,0001,2022_Feb_14_1435,localizer,2021.1.3,59.94140128650105,
block,scrambled,scrambled007.bmp,,,,,0,124,124,124,,,,,,,,,,,,,,,,,,,,,,,,,,,,,,,,,,,,,,,,,,None,,356.8290363301756,None,356.8290363301756,None,2022-02-14-14:41:41.434179,356.8397851001937,357.14589520008303,356.8397851001937,None,None,356.8397851001937,None,357.6458569300128,None,,,,22004,0001,2022_Feb_14_1435,localizer,2021.1.3,59.94140128650105,
block,scrambled,scrambled030.bmp,,,,,0,125,125,125,,,,,,,,,,,,,,,,,,,,,,,,,,,,,,,,,,,,,,,,,,None,,357.6458569300128,None,357.6458569300128,None,2022-02-14-14:41:42.252121,357.65777639998123,357.9622250001412,357.65777639998123,None,None,357.65777639998123,None,358.4618622300448,None,,,,22004,0001,2022_Feb_14_1435,localizer,2021.1.3,59.94140128650105,
block,scrambled,scrambled015.bmp,,,,,0,126,126,126,,,,,,,,,,,,,,,,,,,,,,,,,,,,,,,,,,,,,,,,,,None,,358.4618622300448,None,358.4618622300448,None,2022-02-14-14:41:43.066983,358.47187400003895,358.7793331001885,358.47187400003895,None,None,358.47187400003895,None,359.27853643016425,None,,,,22004,0001,2022_Feb_14_1435,localizer,2021.1.3,59.94140128650105,
block,scrambled,scrambled013.bmp,,,,,0,127,127,127,,,,,,,,,,,,,,,,,,,,,,,,,,,,,,,,,,,,,,,,,,None,,359.27853643016425,None,359.27853643016425,None,2022-02-14-14:41:43.883661,359.28786889999174,359.59534910018556,359.28786889999174,None,None,359.28786889999174,None,360.0950993300183,None,,,,22004,0001,2022_Feb_14_1435,localizer,2021.1.3,59.94140128650105,
block,scrambled,scrambled033.bmp,,,,,0,128,128,128,,,,,,,,,,,,,,,,,,,,,,,,,,,,,,,,,,,,,,,,,,None,,360.0950993300183,None,360.0950993300183,None,2022-02-14-14:41:44.700227,360.0962918000296,360.41191190015525,360.0962918000296,None,None,360.0962918000296,None,360.895906630042,None,,,,22004,0001,2022_Feb_14_1435,localizer,2021.1.3,59.94140128650105,
block,scrambled,scrambled037.bmp,,,,,0,129,129,129,,,,,,,,,,,,,,,,,,,,,,,,,,,,,,,,,,,,,,,,,,None,,360.895906630042,None,360.895906630042,None,2022-02-14-14:41:45.504160,360.9100991000887,361.2118954001926,360.9100991000887,360.9100991000887,None,360.9100991000887,360.9100991000887,361.7125500301598,None,,,,22004,0001,2022_Feb_14_1435,localizer,2021.1.3,59.94140128650105,
block,scrambled,scrambled003.bmp,,,,,0,130,130,130,,,,,,,,,,,,,,,,,,,,,,,,,,,,,,,,,,,,,,,,,,None,,361.7125500301598,None,361.7125500301598,None,2022-02-14-14:41:46.318641,361.71342380018905,362.02858679997735,361.71342380018905,None,None,361.71342380018905,None,362.5288007301977,None,,,,22004,0001,2022_Feb_14_1435,localizer,2021.1.3,59.94140128650105,
block,scrambled,scrambled076.bmp,,,,,0,131,131,131,,,,,,,,,,,,,,,,,,,,,,,,,,,,,,,,,,,,,,,,,,None,,362.5288007301977,None,362.5288007301977,None,2022-02-14-14:41:47.133923,362.534637800185,362.8451837999746,362.534637800185,None,None,362.534637800185,None,363.3451732299989,None,,,,22004,0001,2022_Feb_14_1435,localizer,2021.1.3,59.94140128650105,
block,scrambled,scrambled002.bmp,,,,,0,132,132,132,,,,,,,,,,,,,,,,,,,,,,,,,,,,,,,,,,,,,,,,,,None,,363.3451732299989,None,363.3451732299989,None,2022-02-14-14:41:47.950297,363.3583869000431,363.6621452001855,363.3583869000431,None,None,363.3583869000431,None,364.16325593001676,None,,,,22004,0001,2022_Feb_14_1435,localizer,2021.1.3,59.94140128650105,
block,scrambled,scrambled038.bmp,,,,,0,133,133,133,,,,,,,,,,,,,,,,,,,,,,,,,,,,,,,,,,,,,,,,,,None,,364.16325593001676,None,364.16325593001676,None,2022-02-14-14:41:48.769944,364.1802630000748,364.4954625000246,364.1802630000748,None,None,364.1802630000748,None,364.97875103012194,None,,,,22004,0001,2022_Feb_14_1435,localizer,2021.1.3,59.94140128650105,
block,scrambled,scrambled053.bmp,,,,,0,134,134,134,,,,,,,,,,,,,,,,,,,,,,,,,,,,,,,,,,,,,,,,,,None,,364.97875103012194,None,364.97875103012194,None,2022-02-14-14:41:49.583872,364.99000770016573,365.2952292000409,364.99000770016573,None,None,364.99000770016573,None,365.7966205301462,None,,,,22004,0001,2022_Feb_14_1435,localizer,2021.1.3,59.94140128650105,
block,scrambled,scrambled086.bmp,,,,,0,135,135,135,,,,,,,,,,,,,,,,,,,,,,,,,,,,,,,,,,,,,,,,,,None,,365.7966205301462,None,365.7966205301462,None,2022-02-14-14:41:50.403684,365.8112320001237,366.11207520007156,365.8112320001237,None,None,365.8112320001237,None,366.6120186299784,None,,,,22004,0001,2022_Feb_14_1435,localizer,2021.1.3,59.94140128650105,
block_end,scrambled,scrambled082.bmp,,,,,0,136,136,136,,,,,,,,,,,,,,,,,,,,,,,,,,,,,,,,,,,,,,,,,,None,,366.6120186299784,None,366.6120186299784,None,2022-02-14-14:41:51.217143,366.6218666001223,366.9287268000189,366.6218666001223,None,None,366.6218666001223,None,367.42868403003087,None,,,,22004,0001,2022_Feb_14_1435,localizer,2021.1.3,59.94140128650105,
block_start,scenes,scenes014.bmp,,,,,0,137,137,137,,,,,,,,,,,,,,,,,,,,,,,,,,,,,,,,,,,,,,,,,,t,1.7408110001124442,367.4285659000743,None,367.4285659000743,None,2022-02-14-14:41:53.798965,369.2083645001985,369.5123165000696,369.2083645001985,None,None,369.2083645001985,None,370.01199733007235,None,,,,22004,0001,2022_Feb_14_1435,localizer,2021.1.3,59.94140128650105,
block,scenes,scenes018.bmp,,,,,0,138,138,138,,,,,,,,,,,,,,,,,,,,,,,,,,,,,,,,,,,,,,,,,,None,,370.01199733007235,None,370.01199733007235,None,2022-02-14-14:41:54.617251,370.02236369997263,370.32860870007426,370.02236369997263,None,None,370.02236369997263,None,370.8285967300879,None,,,,22004,0001,2022_Feb_14_1435,localizer,2021.1.3,59.94140128650105,
block,scenes,scenes002.bmp,,,,,0,139,139,139,,,,,,,,,,,,,,,,,,,,,,,,,,,,,,,,,,,,,,,,,,None,,370.8285967300879,None,370.8285967300879,None,2022-02-14-14:41:55.433723,370.83779610018246,371.1453774999827,370.83779610018246,None,None,370.83779610018246,None,371.64606543008705,None,,,,22004,0001,2022_Feb_14_1435,localizer,2021.1.3,59.94140128650105,
block,scenes,scenes074.bmp,,,,,0,140,140,140,,,,,,,,,,,,,,,,,,,,,,,,,,,,,,,,,,,,,,,,,,None,,371.64606543008705,None,371.64606543008705,None,2022-02-14-14:41:56.252176,371.6465132001322,371.96198710007593,371.6465132001322,None,None,371.6465132001322,None,372.4459933301667,None,,,,22004,0001,2022_Feb_14_1435,localizer,2021.1.3,59.94140128650105,
block,scenes,scenes050.bmp,,,,,0,141,141,141,,,,,,,,,,,,,,,,,,,,,,,,,,,,,,,,,,,,,,,,,,None,,372.4459933301667,None,372.4459933301667,None,2022-02-14-14:41:57.054086,372.46160980011337,372.7623169000726,372.46160980011337,372.46160980011337,None,372.46160980011337,372.46160980011337,373.2618577301735,None,,,,22004,0001,2022_Feb_14_1435,localizer,2021.1.3,59.94140128650105,
block,scenes,scenes069.bmp,,,,,0,142,142,142,,,,,,,,,,,,,,,,,,,,,,,,,,,,,,,,,,,,,,,,,,None,,373.2618577301735,None,373.2618577301735,None,2022-02-14-14:41:57.866985,373.27129440009594,373.5787847000174,373.27129440009594,None,None,373.27129440009594,None,374.0786842301721,None,,,,22004,0001,2022_Feb_14_1435,localizer,2021.1.3,59.94140128650105,
block,scenes,scenes020.bmp,,,,,0,143,143,143,,,,,,,,,,,,,,,,,,,,,,,,,,,,,,,,,,,,,,,,,,None,,374.0786842301721,None,374.0786842301721,None,2022-02-14-14:41:58.683870,374.07964750006795,374.37917000008747,374.07964750006795,None,None,374.07964750006795,None,374.8952068300685,None,,,,22004,0001,2022_Feb_14_1435,localizer,2021.1.3,59.94140128650105,
block,scenes,scenes068.bmp,,,,,0,144,144,144,,,,,,,,,,,,,,,,,,,,,,,,,,,,,,,,,,,,,,,,,,None,,374.8952068300685,None,374.8952068300685,None,2022-02-14-14:41:59.500337,374.904565700097,375.21199740003794,374.904565700097,None,None,374.904565700097,None,375.7122175300727,None,,,,22004,0001,2022_Feb_14_1435,localizer,2021.1.3,59.94140128650105,
block,scenes,scenes058.bmp,,,,,0,145,145,145,,,,,,,,,,,,,,,,,,,,,,,,,,,,,,,,,,,,,,,,,,None,,375.7122175300727,None,375.7122175300727,None,2022-02-14-14:42:00.317679,375.7221600001212,376.0287415999919,375.7221600001212,None,None,375.7221600001212,None,376.52876923007426,None,,,,22004,0001,2022_Feb_14_1435,localizer,2021.1.3,59.94140128650105,
block,scenes,scenes054.bmp,,,,,0,146,146,146,,,,,,,,,,,,,,,,,,,,,,,,,,,,,,,,,,,,,,,,,,None,,376.52876923007426,None,376.52876923007426,None,2022-02-14-14:42:01.133896,376.5407432001084,376.8453117001336,376.5407432001084,None,None,376.5407432001084,None,377.345291630202,None,,,,22004,0001,2022_Feb_14_1435,localizer,2021.1.3,59.94140128650105,
block,scenes,scenes010.bmp,,,,,0,147,147,147,,,,,,,,,,,,,,,,,,,,,,,,,,,,,,,,,,,,,,,,,,None,,377.345291630202,None,377.345291630202,None,2022-02-14-14:42:01.950419,377.3506071001757,377.66200320003554,377.3506071001757,None,None,377.3506071001757,None,378.1620253301924,None,,,,22004,0001,2022_Feb_14_1435,localizer,2021.1.3,59.94140128650105,
block,scenes,scenes078.bmp,,,,,0,148,148,148,,,,,,,,,,,,,,,,,,,,,,,,,,,,,,,,,,,,,,,,,,None,,378.1620253301924,None,378.1620253301924,None,2022-02-14-14:42:02.767667,378.1630939000752,378.4622387001291,378.1630939000752,None,None,378.1630939000752,None,378.9633515300928,None,,,,22004,0001,2022_Feb_14_1435,localizer,2021.1.3,59.94140128650105,
block,scenes,scenes081.bmp,,,,,0,149,149,149,,,,,,,,,,,,,,,,,,,,,,,,,,,,,,,,,,,,,,,,,,None,,378.9633515300928,None,378.9633515300928,None,2022-02-14-14:42:03.571450,378.9676791001111,379.2786787999794,378.9676791001111,378.9676791001111,None,378.9676791001111,378.9676791001111,379.77882133012173,None,,,,22004,0001,2022_Feb_14_1435,localizer,2021.1.3,59.94140128650105,
block,scenes,scenes072.bmp,,,,,0,150,150,150,,,,,,,,,,,,,,,,,,,,,,,,,,,,,,,,,,,,,,,,,,None,,379.77882133012173,None,379.77882133012173,None,2022-02-14-14:42:04.383948,379.7887021000497,380.0958322000224,379.7887021000497,None,None,379.7887021000497,None,380.59527972999496,None,,,,22004,0001,2022_Feb_14_1435,localizer,2021.1.3,59.94140128650105,
block_end,scenes,scenes045.bmp,,,,,0,151,151,151,,,,,,,,,,,,,,,,,,,,,,,,,,,,,,,,,,,,,,,,,,None,,380.59527972999496,None,380.59527972999496,None,2022-02-14-14:42:05.200408,380.60466579999775,380.91224590013735,380.60466579999775,None,None,380.60466579999775,None,381.41210573010613,None,,,,22004,0001,2022_Feb_14_1435,localizer,2021.1.3,59.94140128650105,
block_start,faces,faces066.bmp,,,,,0,152,152,152,,,,,,,,,,,,,,,,,,,,,,,,,,,,,,,,,,,,,,,,,,t,1.7572992998175323,381.4120802001562,None,381.4120802001562,None,2022-02-14-14:42:07.799534,383.2047290999908,383.5122227000538,383.2047290999908,None,None,383.2047290999908,None,384.01216683008244,None,,,,22004,0001,2022_Feb_14_1435,localizer,2021.1.3,59.94140128650105,
block,faces,faces087.bmp,,,,,0,153,153,153,,,,,,,,,,,,,,,,,,,,,,,,,,,,,,,,,,,,,,,,,,None,,384.01216683008244,None,384.01216683008244,None,2022-02-14-14:42:08.617295,384.024448200129,384.3287337999791,384.024448200129,None,None,384.024448200129,None,384.8289692300139,None,,,,22004,0001,2022_Feb_14_1435,localizer,2021.1.3,59.94140128650105,
block,faces,faces052.bmp,,,,,0,154,154,154,,,,,,,,,,,,,,,,,,,,,,,,,,,,,,,,,,,,,,,,,,None,,384.8289692300139,None,384.8289692300139,None,2022-02-14-14:42:09.434299,384.84089890006,385.1450769000221,384.84089890006,None,None,384.84089890006,None,385.64541082999204,None,,,,22004,0001,2022_Feb_14_1435,localizer,2021.1.3,59.94140128650105,
block,faces,faces009.bmp,,,,,0,155,155,155,,,,,,,,,,,,,,,,,,,,,,,,,,,,,,,,,,,,,,,,,,None,,385.64541082999204,None,385.64541082999204,None,2022-02-14-14:42:10.250539,385.65521290013567,385.9620742001571,385.65521290013567,None,None,385.65521290013567,None,386.4621585300891,None,,,,22004,0001,2022_Feb_14_1435,localizer,2021.1.3,59.94140128650105,
block,faces,faces067.bmp,,,,,0,156,156,156,,,,,,,,,,,,,,,,,,,,,,,,,,,,,,,,,,,,,,,,,,None,,386.4621585300891,None,386.4621585300891,None,2022-02-14-14:42:11.067284,386.4743103000801,386.7788540001493,386.4743103000801,None,None,386.4743103000801,None,387.27872702998576,None,,,,22004,0001,2022_Feb_14_1435,localizer,2021.1.3,59.94140128650105,
block,faces,faces080.bmp,,,,,0,157,157,157,,,,,,,,,,,,,,,,,,,,,,,,,,,,,,,,,,,,,,,,,,None,,387.27872702998576,None,387.27872702998576,None,2022-02-14-14:42:11.883857,387.28017619997263,387.59559949999675,387.28017619997263,None,None,387.28017619997263,None,388.0855963300681,None,,,,22004,0001,2022_Feb_14_1435,localizer,2021.1.3,59.94140128650105,
block,faces,faces028.bmp,,,,,0,158,158,158,,,,,,,,,,,,,,,,,,,,,,,,,,,,,,,,,,,,,,,,,,None,,388.0855963300681,None,388.0855963300681,None,2022-02-14-14:42:12.696280,388.10507669998333,388.41181150008924,388.10507669998333,None,None,388.10507669998333,None,388.89581083001104,None,,,,22004,0001,2022_Feb_14_1435,localizer,2021.1.3,59.94140128650105,
block,faces,faces065.bmp,,,,,0,159,159,159,,,,,,,,,,,,,,,,,,,,,,,,,,,,,,,,,,,,,,,,,,None,,388.89581083001104,None,388.89581083001104,None,2022-02-14-14:42:13.500952,388.8965904000215,389.19569940003566,388.8965904000215,None,None,388.8965904000215,None,389.6958680300275,None,,,,22004,0001,2022_Feb_14_1435,localizer,2021.1.3,59.94140128650105,
block,faces,faces048.bmp,,,,,0,160,160,160,,,,,,,,,,,,,,,,,,,,,,,,,,,,,,,,,,,,,,,,,,None,,389.6958680300275,None,389.6958680300275,None,2022-02-14-14:42:14.303163,389.7116333001759,390.01235250011086,389.7116333001759,389.7116333001759,None,389.7116333001759,389.7116333001759,390.51242393006106,None,,,,22004,0001,2022_Feb_14_1435,localizer,2021.1.3,59.94140128650105,
block,faces,faces048.bmp,,,,,0,161,161,161,,,,,,,,,,,,,,,,,,,,,,,,,,,,,,,,,,,,,,,,,,None,,390.51242393006106,None,390.51242393006106,None,2022-02-14-14:42:15.118772,390.5136218999978,390.81265650014393,390.5136218999978,None,None,390.5136218999978,None,391.3289323300822,None,,,,22004,0001,2022_Feb_14_1435,localizer,2021.1.3,59.94140128650105,
block,faces,faces074.bmp,,,,,0,162,162,162,,,,,,,,,,,,,,,,,,,,,,,,,,,,,,,,,,,,,,,,,,None,,391.3289323300822,None,391.3289323300822,None,2022-02-14-14:42:15.934038,391.34092770004645,391.6455333000049,391.34092770004645,None,None,391.34092770004645,None,392.146037129988,None,,,,22004,0001,2022_Feb_14_1435,localizer,2021.1.3,59.94140128650105,
block,faces,faces070.bmp,,,,,0,163,163,163,,,,,,,,,,,,,,,,,,,,,,,,,,,,,,,,,,,,,,,,,,None,,392.146037129988,None,392.146037129988,None,2022-02-14-14:42:16.752136,392.1470040001441,392.4460756999906,392.1470040001441,None,None,392.1470040001441,None,392.96244263004047,None,,,,22004,0001,2022_Feb_14_1435,localizer,2021.1.3,59.94140128650105,
block,faces,faces033.bmp,,,,,0,164,164,164,,,,,,,,,,,,,,,,,,,,,,,,,,,,,,,,,,,,,,,,,,None,,392.96244263004047,None,392.96244263004047,None,2022-02-14-14:42:17.567787,392.9813803001307,393.29596630018204,392.9813803001307,None,None,392.9813803001307,None,393.78010242998135,None,,,,22004,0001,2022_Feb_14_1435,localizer,2021.1.3,59.94140128650105,
block,faces,faces050.bmp,,,,,0,165,165,165,,,,,,,,,,,,,,,,,,,,,,,,,,,,,,,,,,,,,,,,,,None,,393.78010242998135,None,393.78010242998135,None,2022-02-14-14:42:18.386397,393.7825158999767,394.09627660014667,393.7825158999767,None,None,393.7825158999767,None,394.5961303301854,None,,,,22004,0001,2022_Feb_14_1435,localizer,2021.1.3,59.94140128650105,
block_end,faces,faces024.bmp,,,,,0,166,166,166,,,,,,,,,,,,,,,,,,,,,,,,,,,,,,,,,,,,,,,,,,None,,394.5961303301854,None,394.5961303301854,None,2022-02-14-14:42:19.202444,394.6094192999881,394.9122905000113,394.6094192999881,None,None,394.6094192999881,None,395.4125430300599,None,,,,22004,0001,2022_Feb_14_1435,localizer,2021.1.3,59.94140128650105,
block_start,objects,objects079.bmp,,,,,0,167,167,167,,,,,,,,,,,,,,,,,,,,,,,,,,,,,,,,,,,,,,,,,,t,1.7570900998543948,395.41251220018603,None,395.41251220018603,None,2022-02-14-14:42:21.798875,397.2049098999705,397.5122954000253,397.2049098999705,None,None,397.2049098999705,None,398.01223353000825,None,,,,22004,0001,2022_Feb_14_1435,localizer,2021.1.3,59.94140128650105,
block,objects,objects010.bmp,,,,,0,168,168,168,,,,,,,,,,,,,,,,,,,,,,,,,,,,,,,,,,,,,,,,,,None,,398.01223353000825,None,398.01223353000825,None,2022-02-14-14:42:22.617364,398.01312480005436,398.32889150013216,398.01312480005436,None,None,398.01312480005436,None,398.8123013301054,None,,,,22004,0001,2022_Feb_14_1435,localizer,2021.1.3,59.94140128650105,
block,objects,objects040.bmp,,,,,0,169,169,169,,,,,,,,,,,,,,,,,,,,,,,,,,,,,,,,,,,,,,,,,,None,,398.8123013301054,None,398.8123013301054,None,2022-02-14-14:42:23.419858,398.82452470017597,399.12880549998954,398.82452470017597,398.82452470017597,None,398.82452470017597,398.82452470017597,399.6287741300883,None,,,,22004,0001,2022_Feb_14_1435,localizer,2021.1.3,59.94140128650105,
block,objects,objects063.bmp,,,,,0,170,170,170,,,,,,,,,,,,,,,,,,,,,,,,,,,,,,,,,,,,,,,,,,None,,399.6287741300883,None,399.6287741300883,None,2022-02-14-14:42:24.233906,399.6377034999896,399.94621230009943,399.6377034999896,None,None,399.6377034999896,None,400.4456095300382,None,,,,22004,0001,2022_Feb_14_1435,localizer,2021.1.3,59.94140128650105,
block,objects,objects065.bmp,,,,,0,171,171,171,,,,,,,,,,,,,,,,,,,,,,,,,,,,,,,,,,,,,,,,,,None,,400.4456095300382,None,400.4456095300382,None,2022-02-14-14:42:25.051152,400.4464347001631,400.76214610016905,400.4464347001631,None,None,400.4464347001631,None,401.26209923003336,None,,,,22004,0001,2022_Feb_14_1435,localizer,2021.1.3,59.94140128650105,
block,objects,objects028.bmp,,,,,0,172,172,172,,,,,,,,,,,,,,,,,,,,,,,,,,,,,,,,,,,,,,,,,,None,,401.26209923003336,None,401.26209923003336,None,2022-02-14-14:42:25.867232,401.2675248000305,401.56903999997303,401.2675248000305,None,None,401.2675248000305,None,402.07959943015595,None,,,,22004,0001,2022_Feb_14_1435,localizer,2021.1.3,59.94140128650105,
block,objects,objects020.bmp,,,,,0,173,173,173,,,,,,,,,,,,,,,,,,,,,,,,,,,,,,,,,,,,,,,,,,None,,402.07959943015595,None,402.07959943015595,None,2022-02-14-14:42:26.685716,402.09046980016865,402.39553270000033,402.09046980016865,None,None,402.09046980016865,None,402.8955401301617,None,,,,22004,0001,2022_Feb_14_1435,localizer,2021.1.3,59.94140128650105,
block,objects,objects006.bmp,,,,,0,174,174,174,,,,,,,,,,,,,,,,,,,,,,,,,,,,,,,,,,,,,,,,,,None,,402.8955401301617,None,402.8955401301617,None,2022-02-14-14:42:27.500671,402.90545399999246,403.21207450004295,402.90545399999246,None,None,402.90545399999246,None,403.7129028300522,None,,,,22004,0001,2022_Feb_14_1435,localizer,2021.1.3,59.94140128650105,
block,objects,objects007.bmp,,,,,0,175,175,175,,,,,,,,,,,,,,,,,,,,,,,,,,,,,,,,,,,,,,,,,,None,,403.7129028300522,None,403.7129028300522,None,2022-02-14-14:42:28.319020,403.7136285000015,404.02934510004707,403.7136285000015,None,None,403.7136285000015,None,404.5129226300167,None,,,,22004,0001,2022_Feb_14_1435,localizer,2021.1.3,59.94140128650105,
block,objects,objects035.bmp,,,,,0,176,176,176,,,,,,,,,,,,,,,,,,,,,,,,,,,,,,,,,,,,,,,,,,None,,404.5129226300167,None,404.5129226300167,None,2022-02-14-14:42:29.121232,404.52670609997585,404.82875670003705,404.52670609997585,404.52670609997585,None,404.52670609997585,404.52670609997585,405.3317912300816,None,,,,22004,0001,2022_Feb_14_1435,localizer,2021.1.3,59.94140128650105,
block,objects,objects060.bmp,,,,,0,177,177,177,,,,,,,,,,,,,,,,,,,,,,,,,,,,,,,,,,,,,,,,,,None,,405.3317912300816,None,405.3317912300816,None,2022-02-14-14:42:29.938446,405.33946770010516,405.64553550002165,405.33946770010516,None,None,405.33946770010516,None,406.14571533009877,None,,,,22004,0001,2022_Feb_14_1435,localizer,2021.1.3,59.94140128650105,
block,objects,objects016.bmp,,,,,0,178,178,178,,,,,,,,,,,,,,,,,,,,,,,,,,,,,,,,,,,,,,,,,,None,,406.14571533009877,None,406.14571533009877,None,2022-02-14-14:42:30.750845,406.14651510003023,406.44562000012957,406.14651510003023,None,None,406.14651510003023,None,406.9455695301993,None,,,,22004,0001,2022_Feb_14_1435,localizer,2021.1.3,59.94140128650105,
block,objects,objects031.bmp,,,,,0,179,179,179,,,,,,,,,,,,,,,,,,,,,,,,,,,,,,,,,,,,,,,,,,None,,406.9455695301993,None,406.9455695301993,None,2022-02-14-14:42:31.551701,406.95667800004594,407.26256080018356,406.95667800004594,406.95667800004594,None,406.95667800004594,406.95667800004594,407.76254383015913,None,,,,22004,0001,2022_Feb_14_1435,localizer,2021.1.3,59.94140128650105,
block,objects,objects037.bmp,,,,,0,180,180,180,,,,,,,,,,,,,,,,,,,,,,,,,,,,,,,,,,,,,,,,,,None,,407.76254383015913,None,407.76254383015913,None,2022-02-14-14:42:32.367670,407.7734750001691,408.08566260011867,407.7734750001691,None,None,407.7734750001691,None,408.5853761300212,None,,,,22004,0001,2022_Feb_14_1435,localizer,2021.1.3,59.94140128650105,
block_end,objects,objects055.bmp,,,,,0,181,181,181,,,,,,,,,,,,,,,,,,,,,,,,,,,,,,,,,,,,,,,,,,None,,408.5853761300212,None,408.5853761300212,None,2022-02-14-14:42:33.197392,408.6084698000923,408.9126250001136,408.6084698000923,None,None,408.6084698000923,None,409.3963584299898,None,,,,22004,0001,2022_Feb_14_1435,localizer,2021.1.3,59.94140128650105,
null_block,null_block,null_block.bmp,,,,,0,182,182,182,,,,,,,,,,,,,,,,,,,,,,,,,,,,,,,,,,,,,,,,,,t,1.773224800126627,409.39634320000187,None,409.39634320000187,None,2022-02-14-14:42:35.801141,411.19578123006505,None,411.19578123006505,None,None,411.19578123006505,None,411.19965770002455,None,,,,22004,0001,2022_Feb_14_1435,localizer,2021.1.3,59.94140128650105,
block_start,scenes,scenes059.bmp,,,,,0,183,183,183,,,,,,,,,,,,,,,,,,,,,,,,,,,,,,,,,,,,,,,,,,t,1.9559239000082016,423.2136383000761,None,423.2136383000761,None,2022-02-14-14:42:49.807020,425.2110260000918,425.5123346999753,425.2110260000918,None,None,425.2110260000918,None,426.01290492999834,None,,,,22004,0001,2022_Feb_14_1435,localizer,2021.1.3,59.94140128650105,
block,scenes,scenes051.bmp,,,,,0,184,184,184,,,,,,,,,,,,,,,,,,,,,,,,,,,,,,,,,,,,,,,,,,None,,426.01290492999834,None,426.01290492999834,None,2022-02-14-14:42:50.618033,426.0136545000132,426.31270900019445,426.0136545000132,None,None,426.0136545000132,None,426.83280663012994,None,,,,22004,0001,2022_Feb_14_1435,localizer,2021.1.3,59.94140128650105,
block,scenes,scenes009.bmp,,,,,0,185,185,185,,,,,,,,,,,,,,,,,,,,,,,,,,,,,,,,,,,,,,,,,,None,,426.83280663012994,None,426.83280663012994,None,2022-02-14-14:42:51.446822,426.8444837999996,427.1460904001724,426.8444837999996,None,None,426.8444837999996,None,427.64612033015584,None,,,,22004,0001,2022_Feb_14_1435,localizer,2021.1.3,59.94140128650105,
block,scenes,scenes077.bmp,,,,,0,186,186,186,,,,,,,,,,,,,,,,,,,,,,,,,,,,,,,,,,,,,,,,,,None,,427.64612033015584,None,427.64612033015584,None,2022-02-14-14:42:52.251462,427.6581053000409,427.96242900006473,427.6581053000409,None,None,427.6581053000409,None,428.4626144301845,None,,,,22004,0001,2022_Feb_14_1435,localizer,2021.1.3,59.94140128650105,
block,scenes,scenes045.bmp,,,,,0,187,187,187,,,,,,,,,,,,,,,,,,,,,,,,,,,,,,,,,,,,,,,,,,None,,428.4626144301845,None,428.4626144301845,None,2022-02-14-14:42:53.067963,428.46342400019057,428.76276680012234,428.46342400019057,None,None,428.46342400019057,None,429.2628393301973,None,,,,22004,0001,2022_Feb_14_1435,localizer,2021.1.3,59.94140128650105,
block,scenes,scenes072.bmp,,,,,0,188,188,188,,,,,,,,,,,,,,,,,,,,,,,,,,,,,,,,,,,,,,,,,,None,,429.2628393301973,None,429.2628393301973,None,2022-02-14-14:42:53.869967,429.2656568000093,429.5794562001247,429.2656568000093,429.2656568000093,None,429.2656568000093,429.2656568000093,430.0787340300856,None,,,,22004,0001,2022_Feb_14_1435,localizer,2021.1.3,59.94140128650105,
block,scenes,scenes085.bmp,,,,,0,189,189,189,,,,,,,,,,,,,,,,,,,,,,,,,,,,,,,,,,,,,,,,,,None,,430.0787340300856,None,430.0787340300856,None,2022-02-14-14:42:54.683875,430.0805051000789,430.3957529000472,430.0805051000789,None,None,430.0805051000789,None,430.8960099300137,None,,,,22004,0001,2022_Feb_14_1435,localizer,2021.1.3,59.94140128650105,
block,scenes,scenes084.bmp,,,,,0,190,190,190,,,,,,,,,,,,,,,,,,,,,,,,,,,,,,,,,,,,,,,,,,None,,430.8960099300137,None,430.8960099300137,None,2022-02-14-14:42:55.501141,430.9066281002015,431.21230480005033,430.9066281002015,None,None,430.9066281002015,None,431.71280823003036,None,,,,22004,0001,2022_Feb_14_1435,localizer,2021.1.3,59.94140128650105,
block,scenes,scenes054.bmp,,,,,0,191,191,191,,,,,,,,,,,,,,,,,,,,,,,,,,,,,,,,,,,,,,,,,,None,,431.71280823003036,None,431.71280823003036,None,2022-02-14-14:42:56.318384,431.7136068001855,432.01283020013943,431.7136068001855,None,None,431.7136068001855,None,432.51274992998225,None,,,,22004,0001,2022_Feb_14_1435,localizer,2021.1.3,59.94140128650105,
block,scenes,scenes033.bmp,,,,,0,192,192,192,,,,,,,,,,,,,,,,,,,,,,,,,,,,,,,,,,,,,,,,,,None,,432.51274992998225,None,432.51274992998225,None,2022-02-14-14:42:57.119875,432.5263396000955,432.8303604000248,432.5263396000955,432.5263396000955,None,432.5263396000955,432.5263396000955,433.32923643018586,None,,,,22004,0001,2022_Feb_14_1435,localizer,2021.1.3,59.94140128650105,
block,scenes,scenes001.bmp,,,,,0,193,193,193,,,,,,,,,,,,,,,,,,,,,,,,,,,,,,,,,,,,,,,,,,None,,433.32923643018586,None,433.32923643018586,None,2022-02-14-14:42:57.934593,433.33929460006766,433.64582940004766,433.33929460006766,None,None,433.33929460006766,None,434.1458847299917,None,,,,22004,0001,2022_Feb_14_1435,localizer,2021.1.3,59.94140128650105,
block,scenes,scenes074.bmp,,,,,0,194,194,194,,,,,,,,,,,,,,,,,,,,,,,,,,,,,,,,,,,,,,,,,,None,,434.1458847299917,None,434.1458847299917,None,2022-02-14-14:42:58.751259,434.1467424000148,434.46249010018073,434.1467424000148,None,None,434.1467424000148,None,434.94618923014497,None,,,,22004,0001,2022_Feb_14_1435,localizer,2021.1.3,59.94140128650105,
block,scenes,scenes022.bmp,,,,,0,195,195,195,,,,,,,,,,,,,,,,,,,,,,,,,,,,,,,,,,,,,,,,,,None,,434.94618923014497,None,434.94618923014497,None,2022-02-14-14:42:59.553298,434.9584713000804,435.2626081001945,434.9584713000804,434.9584713000804,None,434.9584713000804,434.9584713000804,435.7630597300129,None,,,,22004,0001,2022_Feb_14_1435,localizer,2021.1.3,59.94140128650105,
block,scenes,scenes021.bmp,,,,,0,196,196,196,,,,,,,,,,,,,,,,,,,,,,,,,,,,,,,,,,,,,,,,,,None,,435.7630597300129,None,435.7630597300129,None,2022-02-14-14:43:00.369390,435.77597580011934,436.07946260017343,435.77597580011934,None,None,435.77597580011934,None,436.58035233018455,None,,,,22004,0001,2022_Feb_14_1435,localizer,2021.1.3,59.94140128650105,
block_end,scenes,scenes012.bmp,,,,,0,197,197,197,,,,,,,,,,,,,,,,,,,,,,,,,,,,,,,,,,,,,,,,,,None,,436.58035233018455,None,436.58035233018455,None,2022-02-14-14:43:01.187640,436.5952517001424,436.8960226001218,436.5952517001424,None,None,436.5952517001424,None,437.39711873007474,None,,,,22004,0001,2022_Feb_14_1435,localizer,2021.1.3,59.94140128650105,
block_start,objects,objects015.bmp,,,,,0,198,198,198,,,,,,,,,,,,,,,,,,,,,,,,,,,,,,,,,,,,,,,,,,t,1.7723199999891222,437.39716599998064,None,437.39716599998064,None,2022-02-14-14:43:03.800097,439.196906800149,439.5125333999749,439.196906800149,None,None,439.196906800149,None,440.0130683300784,None,,,,22004,0001,2022_Feb_14_1435,localizer,2021.1.3,59.94140128650105,
block,objects,objects056.bmp,,,,,0,199,199,199,,,,,,,,,,,,,,,,,,,,,,,,,,,,,,,,,,,,,,,,,,None,,440.0130683300784,None,440.0130683300784,None,2022-02-14-14:43:04.618217,440.0235121001024,440.329342600191,440.0235121001024,None,None,440.0235121001024,None,440.82923942997587,None,,,,22004,0001,2022_Feb_14_1435,localizer,2021.1.3,59.94140128650105,
block,objects,objects049.bmp,,,,,0,200,200,200,,,,,,,,,,,,,,,,,,,,,,,,,,,,,,,,,,,,,,,,,,None,,440.82923942997587,None,440.82923942997587,None,2022-02-14-14:43:05.434608,440.83939820015803,441.14561450015754,440.83939820015803,None,None,440.83939820015803,None,441.6455095301615,None,,,,22004,0001,2022_Feb_14_1435,localizer,2021.1.3,59.94140128650105,
block,objects,objects035.bmp,,,,,0,201,201,201,,,,,,,,,,,,,,,,,,,,,,,,,,,,,,,,,,,,,,,,,,None,,441.6455095301615,None,441.6455095301615,None,2022-02-14-14:43:06.249657,441.64691610005684,441.96262200013734,441.64691610005684,None,None,441.64691610005684,None,442.44601853012574,None,,,,22004,0001,2022_Feb_14_1435,localizer,2021.1.3,59.94140128650105,
block,objects,objects011.bmp,,,,,0,202,202,202,,,,,,,,,,,,,,,,,,,,,,,,,,,,,,,,,,,,,,,,,,None,,442.44601853012574,None,442.44601853012574,None,2022-02-14-14:43:07.053262,442.4591839001514,442.7623676999938,442.4591839001514,442.4591839001514,None,442.4591839001514,442.4591839001514,443.2626875302056,None,,,,22004,0001,2022_Feb_14_1435,localizer,2021.1.3,59.94140128650105,
block,objects,objects050.bmp,,,,,0,203,203,203,,,,,,,,,,,,,,,,,,,,,,,,,,,,,,,,,,,,,,,,,,None,,443.2626875302056,None,443.2626875302056,None,2022-02-14-14:43:07.867828,443.2634523001034,443.5626869001426,443.2634523001034,None,None,443.2634523001034,None,444.0636884300737,None,,,,22004,0001,2022_Feb_14_1435,localizer,2021.1.3,59.94140128650105,
block,objects,objects041.bmp,,,,,0,204,204,204,,,,,,,,,,,,,,,,,,,,,,,,,,,,,,,,,,,,,,,,,,None,,444.0636884300737,None,444.0636884300737,None,2022-02-14-14:43:08.670701,444.063983600121,444.3790802999865,444.063983600121,444.063983600121,None,444.063983600121,444.063983600121,444.87923533010763,None,,,,22004,0001,2022_Feb_14_1435,localizer,2021.1.3,59.94140128650105,
block,objects,objects042.bmp,,,,,0,205,205,205,,,,,,,,,,,,,,,,,,,,,,,,,,,,,,,,,,,,,,,,,,None,,444.87923533010763,None,444.87923533010763,None,2022-02-14-14:43:09.484375,444.8894677001517,445.1959844001103,444.8894677001517,None,None,444.8894677001517,None,445.6965920301853,None,,,,22004,0001,2022_Feb_14_1435,localizer,2021.1.3,59.94140128650105,
block,objects,objects009.bmp,,,,,0,206,206,206,,,,,,,,,,,,,,,,,,,,,,,,,,,,,,,,,,,,,,,,,,None,,445.6965920301853,None,445.6965920301853,None,2022-02-14-14:43:10.301950,445.70676780003123,446.0126826001797,445.70676780003123,None,None,445.70676780003123,None,446.5126975300489,None,,,,22004,0001,2022_Feb_14_1435,localizer,2021.1.3,59.94140128650105,
block,objects,objects027.bmp,,,,,0,207,207,207,,,,,,,,,,,,,,,,,,,,,,,,,,,,,,,,,,,,,,,,,,None,,446.5126975300489,None,446.5126975300489,None,2022-02-14-14:43:11.117836,446.5227149000857,446.8293287002016,446.5227149000857,None,None,446.5227149000857,None,447.3312937301351,None,,,,22004,0001,2022_Feb_14_1435,localizer,2021.1.3,59.94140128650105,
block,objects,objects046.bmp,,,,,0,208,208,208,,,,,,,,,,,,,,,,,,,,,,,,,,,,,,,,,,,,,,,,,,None,,447.3312937301351,None,447.3312937301351,None,2022-02-14-14:43:11.940511,447.34759430005215,447.6628284000326,447.34759430005215,None,None,447.34759430005215,None,448.14988213016187,None,,,,22004,0001,2022_Feb_14_1435,localizer,2021.1.3,59.94140128650105,
block,objects,objects071.bmp,,,,,0,209,209,209,,,,,,,,,,,,,,,,,,,,,,,,,,,,,,,,,,,,,,,,,,None,,448.14988213016187,None,448.14988213016187,None,2022-02-14-14:43:12.758918,448.1681942001451,448.47928680013865,448.1681942001451,None,None,448.1681942001451,None,448.96224273003173,None,,,,22004,0001,2022_Feb_14_1435,localizer,2021.1.3,59.94140128650105,
block,objects,objects006.bmp,,,,,0,210,210,210,,,,,,,,,,,,,,,,,,,,,,,,,,,,,,,,,,,,,,,,,,None,,448.96224273003173,None,448.96224273003173,None,2022-02-14-14:43:13.567350,448.96407370013185,449.2632000001613,448.96407370013185,None,None,448.96407370013185,None,449.7631482301047,None,,,,22004,0001,2022_Feb_14_1435,localizer,2021.1.3,59.94140128650105,
block,objects,objects076.bmp,,,,,0,211,211,211,,,,,,,,,,,,,,,,,,,,,,,,,,,,,,,,,,,,,,,,,,None,,449.7631482301047,None,449.7631482301047,None,2022-02-14-14:43:14.371462,449.7770861000754,450.0796970000956,449.7770861000754,449.7770861000754,None,449.7770861000754,449.7770861000754,450.57967343002093,None,,,,22004,0001,2022_Feb_14_1435,localizer,2021.1.3,59.94140128650105,
block_end,objects,objects080.bmp,,,,,0,212,212,212,,,,,,,,,,,,,,,,,,,,,,,,,,,,,,,,,,,,,,,,,,None,,450.57967343002093,None,450.57967343002093,None,2022-02-14-14:43:15.185032,450.59024829999544,450.8959393000696,450.59024829999544,None,None,450.59024829999544,None,451.39640543011484,None,,,,22004,0001,2022_Feb_14_1435,localizer,2021.1.3,59.94140128650105,
block_start,scrambled,scrambled027.bmp,,,,,0,213,213,213,,,,,,,,,,,,,,,,,,,,,,,,,,,,,,,,,,,,,,,,,,t,1.7726853999774903,451.3968184001278,None,451.3968184001278,None,2022-02-14-14:43:17.801788,453.20793769997545,453.5128732000012,453.20793769997545,None,None,453.20793769997545,None,454.01250672999305,None,,,,22004,0001,2022_Feb_14_1435,localizer,2021.1.3,59.94140128650105,
block,scrambled,scrambled054.bmp,,,,,0,214,214,214,,,,,,,,,,,,,,,,,,,,,,,,,,,,,,,,,,,,,,,,,,None,,454.01250672999305,None,454.01250672999305,None,2022-02-14-14:43:18.617684,454.01759689999744,454.3292541000992,454.01759689999744,None,None,454.01759689999744,None,454.82927723003087,None,,,,22004,0001,2022_Feb_14_1435,localizer,2021.1.3,59.94140128650105,
block,scrambled,scrambled021.bmp,,,,,0,215,215,215,,,,,,,,,,,,,,,,,,,,,,,,,,,,,,,,,,,,,,,,,,None,,454.82927723003087,None,454.82927723003087,None,2022-02-14-14:43:19.434389,454.83929540007375,455.1459731000941,454.83929540007375,None,None,454.83929540007375,None,455.64558033000213,None,,,,22004,0001,2022_Feb_14_1435,localizer,2021.1.3,59.94140128650105,
block,scrambled,scrambled065.bmp,,,,,0,216,216,216,,,,,,,,,,,,,,,,,,,,,,,,,,,,,,,,,,,,,,,,,,None,,455.64558033000213,None,455.64558033000213,None,2022-02-14-14:43:20.251219,455.65435350011103,455.962642500177,455.65435350011103,None,None,455.65435350011103,None,456.46270503017587,None,,,,22004,0001,2022_Feb_14_1435,localizer,2021.1.3,59.94140128650105,
block,scrambled,scrambled056.bmp,,,,,0,217,217,217,,,,,,,,,,,,,,,,,,,,,,,,,,,,,,,,,,,,,,,,,,None,,456.46270503017587,None,456.46270503017587,None,2022-02-14-14:43:21.067849,456.47222900018096,456.7794435999822,456.47222900018096,None,None,456.47222900018096,None,457.27935913002585,None,,,,22004,0001,2022_Feb_14_1435,localizer,2021.1.3,59.94140128650105,
block,scrambled,scrambled056.bmp,,,,,0,218,218,218,,,,,,,,,,,,,,,,,,,,,,,,,,,,,,,,,,,,,,,,,,None,,457.27935913002585,None,457.27935913002585,None,2022-02-14-14:43:21.884499,457.28022280009463,457.57941810018383,457.28022280009463,None,y,457.28022280009463,None,458.085720730084,None,0.5973129000049084,,,22004,0001,2022_Feb_14_1435,localizer,2021.1.3,59.94140128650105,
block,scrambled,scrambled019.bmp,,,,,0,219,219,219,,,,,,,,,,,,,,,,,,,,,,,,,,,,,,,,,,,,,,,,,,None,,458.085720730084,None,458.085720730084,None,2022-02-14-14:43:22.698646,458.10246840002947,458.41252840007655,458.10246840002947,None,None,458.10246840002947,None,458.8961336301407,None,,,,22004,0001,2022_Feb_14_1435,localizer,2021.1.3,59.94140128650105,
block,scrambled,scrambled073.bmp,,,,,0,220,220,220,,,,,,,,,,,,,,,,,,,,,,,,,,,,,,,,,,,,,,,,,,None,,458.8961336301407,None,458.8961336301407,None,2022-02-14-14:43:23.501271,458.9079193000216,459.21299250004813,458.9079193000216,None,None,458.9079193000216,None,459.7128960300004,None,,,,22004,0001,2022_Feb_14_1435,localizer,2021.1.3,59.94140128650105,
block,scrambled,scrambled008.bmp,,,,,0,221,221,221,,,,,,,,,,,,,,,,,,,,,,,,,,,,,,,,,,,,,,,,,,None,,459.7128960300004,None,459.7128960300004,None,2022-02-14-14:43:24.318138,459.71360880020075,460.0125244001392,459.71360880020075,None,None,459.71360880020075,None,460.5135990300449,None,,,,22004,0001,2022_Feb_14_1435,localizer,2021.1.3,59.94140128650105,
block,scrambled,scrambled024.bmp,,,,,0,222,222,222,,,,,,,,,,,,,,,,,,,,,,,,,,,,,,,,,,,,,,,,,,None,,460.5135990300449,None,460.5135990300449,None,2022-02-14-14:43:25.121867,460.52904940000735,460.8291649001185,460.52904940000735,460.52904940000735,None,460.52904940000735,460.52904940000735,461.32903983008583,None,,,,22004,0001,2022_Feb_14_1435,localizer,2021.1.3,59.94140128650105,
block,scrambled,scrambled079.bmp,,,,,0,223,223,223,,,,,,,,,,,,,,,,,,,,,,,,,,,,,,,,,,,,,,,,,,None,,461.32903983008583,None,461.32903983008583,None,2022-02-14-14:43:25.934187,461.3302846001461,461.6460637000855,461.3302846001461,None,None,461.3302846001461,None,462.12934963016306,None,,,,22004,0001,2022_Feb_14_1435,localizer,2021.1.3,59.94140128650105,
block,scrambled,scrambled039.bmp,,,,,0,224,224,224,,,,,,,,,,,,,,,,,,,,,,,,,,,,,,,,,,,,,,,,,,None,,462.12934963016306,None,462.12934963016306,None,2022-02-14-14:43:26.736386,462.1415745001286,462.4458890000824,462.1415745001286,462.1415745001286,None,462.1415745001286,462.1415745001286,462.9464832300553,None,,,,22004,0001,2022_Feb_14_1435,localizer,2021.1.3,59.94140128650105,
block,scrambled,scrambled082.bmp,,,,,0,225,225,225,,,,,,,,,,,,,,,,,,,,,,,,,,,,,,,,,,,,,,,,,,None,,462.9464832300553,None,462.9464832300553,None,2022-02-14-14:43:27.552810,462.9474375001155,463.26280190004036,462.9474375001155,None,None,462.9474375001155,None,463.76267983003055,None,,,,22004,0001,2022_Feb_14_1435,localizer,2021.1.3,59.94140128650105,
block,scrambled,scrambled078.bmp,,,,,0,226,226,226,,,,,,,,,,,,,,,,,,,,,,,,,,,,,,,,,,,,,,,,,,None,,463.76267983003055,None,463.76267983003055,None,2022-02-14-14:43:28.368060,463.7728769001551,464.07942570000887,463.7728769001551,None,None,463.7728769001551,None,464.5797048300272,None,,,,22004,0001,2022_Feb_14_1435,localizer,2021.1.3,59.94140128650105,
block_end,scrambled,scrambled085.bmp,,,,,0,227,227,227,,,,,,,,,,,,,,,,,,,,,,,,,,,,,,,,,,,,,,,,,,None,,464.5797048300272,None,464.5797048300272,None,2022-02-14-14:43:29.185941,464.59058850002475,464.8959320001304,464.59058850002475,None,None,464.59058850002475,None,465.39580283018296,None,,,,22004,0001,2022_Feb_14_1435,localizer,2021.1.3,59.94140128650105,
block_start,faces,faces035.bmp,,,,,0,228,228,228,,,,,,,,,,,,,,,,,,,,,,,,,,,,,,,,,,,,,,,,,,t,1.7724929999094456,465.39600150007755,None,465.39600150007755,None,2022-02-14-14:43:31.799176,467.20692250016145,467.51285930001177,467.20692250016145,None,None,467.20692250016145,None,468.0128104300937,None,,,,22004,0001,2022_Feb_14_1435,localizer,2021.1.3,59.94140128650105,
block,faces,faces040.bmp,,,,,0,229,229,229,,,,,,,,,,,,,,,,,,,,,,,,,,,,,,,,,,,,,,,,,,None,,468.0128104300937,None,468.0128104300937,None,2022-02-14-14:43:32.618196,468.01387050002813,468.3293014001101,468.01387050002813,None,None,468.01387050002813,None,468.82913673000877,None,,,,22004,0001,2022_Feb_14_1435,localizer,2021.1.3,59.94140128650105,
block,faces,faces075.bmp,,,,,0,230,230,230,,,,,,,,,,,,,,,,,,,,,,,,,,,,,,,,,,,,,,,,,,None,,468.82913673000877,None,468.82913673000877,None,2022-02-14-14:43:33.434286,468.83776510017924,469.14567180001177,468.83776510017924,None,None,468.83776510017924,None,469.6459232301684,None,,,,22004,0001,2022_Feb_14_1435,localizer,2021.1.3,59.94140128650105,
block,faces,faces074.bmp,,,,,0,231,231,231,,,,,,,,,,,,,,,,,,,,,,,,,,,,,,,,,,,,,,,,,,None,,469.6459232301684,None,469.6459232301684,None,2022-02-14-14:43:34.251069,469.6469343001954,469.94619860011153,469.6469343001954,None,None,469.6469343001954,None,470.4460737300804,None,,,,22004,0001,2022_Feb_14_1435,localizer,2021.1.3,59.94140128650105,
block,faces,faces066.bmp,,,,,0,232,232,232,,,,,,,,,,,,,,,,,,,,,,,,,,,,,,,,,,,,,,,,,,None,,470.4460737300804,None,470.4460737300804,None,2022-02-14-14:43:35.052215,470.44700699998066,470.74604840017855,470.44700699998066,470.44700699998066,None,470.44700699998066,470.44700699998066,471.2626344301505,None,,,,22004,0001,2022_Feb_14_1435,localizer,2021.1.3,59.94140128650105,
block,faces,faces022.bmp,,,,,0,233,233,233,,,,,,,,,,,,,,,,,,,,,,,,,,,,,,,,,,,,,,,,,,None,,471.2626344301505,None,471.2626344301505,None,2022-02-14-14:43:35.868005,471.26345030008815,471.56251850002445,471.26345030008815,None,None,471.26345030008815,None,472.0629308301257,None,,,,22004,0001,2022_Feb_14_1435,localizer,2021.1.3,59.94140128650105,
block,faces,faces038.bmp,,,,,0,234,234,234,,,,,,,,,,,,,,,,,,,,,,,,,,,,,,,,,,,,,,,,,,None,,472.0629308301257,None,472.0629308301257,None,2022-02-14-14:43:36.670062,472.06429230002686,472.3795916000381,472.06429230002686,472.06429230002686,None,472.06429230002686,472.06429230002686,472.86962103012485,None,,,,22004,0001,2022_Feb_14_1435,localizer,2021.1.3,59.94140128650105,
block,faces,faces041.bmp,,,,,0,235,235,235,,,,,,,,,,,,,,,,,,,,,,,,,,,,,,,,,,,,,,,,,,None,,472.86962103012485,None,472.86962103012485,None,2022-02-14-14:43:37.479621,472.88570960005745,473.1960399001837,472.88570960005745,None,None,472.88570960005745,None,473.67944013008383,None,,,,22004,0001,2022_Feb_14_1435,localizer,2021.1.3,59.94140128650105,
block,faces,faces008.bmp,,,,,0,236,236,236,,,,,,,,,,,,,,,,,,,,,,,,,,,,,,,,,,,,,,,,,,None,,473.67944013008383,None,473.67944013008383,None,2022-02-14-14:43:38.284588,473.6913892000448,473.9961496000178,473.6913892000448,None,None,473.6913892000448,None,474.4962154301582,None,,,,22004,0001,2022_Feb_14_1435,localizer,2021.1.3,59.94140128650105,
block,faces,faces010.bmp,,,,,0,237,237,237,,,,,,,,,,,,,,,,,,,,,,,,,,,,,,,,,,,,,,,,,,None,,474.4962154301582,None,474.4962154301582,None,2022-02-14-14:43:39.101557,474.49698880012147,474.8127751001157,474.49698880012147,None,None,474.49698880012147,None,475.2961675301893,None,,,,22004,0001,2022_Feb_14_1435,localizer,2021.1.3,59.94140128650105,
block,faces,faces023.bmp,,,,,0,238,238,238,,,,,,,,,,,,,,,,,,,,,,,,,,,,,,,,,,,,,,,,,,None,,475.2961675301893,None,475.2961675301893,None,2022-02-14-14:43:39.903466,475.3082137000747,475.6128663001582,475.3082137000747,475.3082137000747,None,475.3082137000747,475.3082137000747,476.11263573013713,None,,,,22004,0001,2022_Feb_14_1435,localizer,2021.1.3,59.94140128650105,
block,faces,faces058.bmp,,,,,0,239,239,239,,,,,,,,,,,,,,,,,,,,,,,,,,,,,,,,,,,,,,,,,,None,,476.11263573013713,None,476.11263573013713,None,2022-02-14-14:43:40.717786,476.11363460007124,476.4128737000283,476.11363460007124,None,None,476.11363460007124,None,476.9292852301849,None,,,,22004,0001,2022_Feb_14_1435,localizer,2021.1.3,59.94140128650105,
block,faces,faces031.bmp,,,,,0,240,240,240,,,,,,,,,,,,,,,,,,,,,,,,,,,,,,,,,,,,,,,,,,None,,476.9292852301849,None,476.9292852301849,None,2022-02-14-14:43:41.534434,476.9304748000577,477.24616900016554,476.9304748000577,None,None,476.9304748000577,None,477.7460511301877,None,,,,22004,0001,2022_Feb_14_1435,localizer,2021.1.3,59.94140128650105,
block,faces,faces047.bmp,,,,,0,241,241,241,,,,,,,,,,,,,,,,,,,,,,,,,,,,,,,,,,,,,,,,,,None,,477.7460511301877,None,477.7460511301877,None,2022-02-14-14:43:42.351197,477.76302470010705,478.0693819001317,477.76302470010705,None,None,477.76302470010705,None,478.56238223013935,None,,,,22004,0001,2022_Feb_14_1435,localizer,2021.1.3,59.94140128650105,
block_end,faces,faces052.bmp,,,,,0,242,242,242,,,,,,,,,,,,,,,,,,,,,,,,,,,,,,,,,,,,,,,,,,None,,478.56238223013935,None,478.56238223013935,None,2022-02-14-14:43:43.167531,478.56384550011717,478.86304880003445,478.56384550011717,None,None,478.56384550011717,None,479.36303903006484,None,,,,22004,0001,2022_Feb_14_1435,localizer,2021.1.3,59.94140128650105,
null_block,null_block,null_block.bmp,,,,,0,243,243,243,,,,,,,,,,,,,,,,,,,,,,,,,,,,,,,,,,,,,,,,,,t,1.8054690000135452,479.36293669999577,None,479.36293669999577,None,2022-02-14-14:43:45.802696,481.19633963012603,None,481.19633963012603,None,None,481.19633963012603,None,481.20110810012557,None,,,,22004,0001,2022_Feb_14_1435,localizer,2021.1.3,59.94140128650105,
,,,,,,,,,,,,,,,,,,,,,,,,,,,,,,,,,,,,,,,,,,,,,,,,,,,,,,,,,,,,,,,,,,,,,493.21807740000077,None,,,,,,,
