block_type,condition,img_name,Button.thisRepN,Button.thisTrialN,Button.thisN,Button.thisIndex,trials.thisRepN,trials.thisTrialN,trials.thisN,trials.thisIndex,Ready_experimenter_text.started,Ready_experimenter_text.stopped,Ready_experimenter_resp.keys,Ready_experimenter_resp.rt,Ready_experimenter_resp.started,Ready_experimenter_resp.stopped,Alignment_background.started,Alignment_background.stopped,Alignment_image.started,Alignment_image.stopped,Alignment_resp.keys,Alignment_resp.rt,Alignment_resp.started,Alignment_resp.stopped,Button_text.started,Button_text.stopped,Index_text.started,Index_text.stopped,Index_resp.keys,Index_resp.rt,Index_resp.started,Index_resp.stopped,Middle_text.started,Middle_text.stopped,Middle_resp.keys,Middle_resp.rt,Middle_resp.started,Middle_resp.stopped,Repeat_text.started,Repeat_text.stopped,Repeat_resp.keys,Repeat_resp.corr,Repeat_resp.rt,Repeat_resp.started,Repeat_resp.stopped,instruction_text.started,instruction_text.stopped,key_resp.keys,key_resp.rt,key_resp.started,key_resp.stopped,scanner_t.keys,scanner_t.rt,scanner_t.started,scanner_t.stopped,fixation_wait_for_t.started,fixation_wait_for_t.stopped,real_timestamp_trial_start,image.started,image.stopped,fixation.started,fixation.stopped,repeat_response.keys,repeat_response.started,repeat_response.stopped,fixation_null.started,fixation_null.stopped,repeat_response.rt,end_text.started,end_text.stopped,participant,run,date,expName,psychopyVersion,frameRate,
,,,,,,,,,,,9.284599400009029,None,return,5.34570409997832,9.284599400009029,None,,,,,,,,,,,,,,,,,,,,,,,,,,,,,,,,,,,,,,,,,,,,,,,,,,,,,,,21016,0001,2022_Nov_30_0808,localizer,2021.1.3,61.06351886261129,
,,,,,,,,,,,,,,,,,14.681788100046106,None,14.681788100046106,None,return,0.1691328000742942,14.681788100046106,None,,,,,,,,,,,,,,,,,,,,,,,,,,,,,,,,,,,,,,,,,,,,,,,21016,0001,2022_Nov_30_0808,localizer,2021.1.3,61.06351886261129,
,,,0,0,0,0,,,,,,,,,,,,,,,,,,,14.875913500087336,None,15.893003500066698,None,y,7.848697900073603,15.893003500066698,None,23.771047500078566,None,b,9.336690400028601,23.771047500078566,None,33.13874389999546,None,y,1,4.395994699909352,33.13874389999546,None,,,,,,,,,,,,,,,,,,,,,,,,,,21016,0001,2022_Nov_30_0808,localizer,2021.1.3,61.06351886261129,
,,,1,0,1,0,,,,,,,,,,,,,,,,,,,37.554264300037175,None,38.554043400101364,None,y,10.43321529997047,38.554043400101364,None,49.004606700036675,None,b,6.649193300050683,49.004606700036675,None,55.67102940008044,None,n,0,0.6811536999884993,55.67102940008044,None,,,,,,,,,,,,,,,,,,,,,,,,,,21016,0001,2022_Nov_30_0808,localizer,2021.1.3,61.06351886261129,
,,,,,,,,,,,,,,,,,,,,,,,,,,,,,,,,,,,,,,,,,,,,,,56.371930000022985,None,y,168.03478400001768,56.371930000022985,None,,,,,,,,,,,,,,,,,,,,21016,0001,2022_Nov_30_0808,localizer,2021.1.3,61.06351886261129,
block_start,scenes,scenes069.bmp,,,,,0,0,0,0,,,,,,,,,,,,,,,,,,,,,,,,,,,,,,,,,,,,,,,,,,t,14.885914800106548,224.5032602000283,None,224.5032602000283,None,2022-11-30-08:12:35.642438,239.42474230006337,239.73928360000718,239.42474230006337,None,None,239.42474230006337,None,240.22248269002884,None,,,,21016,0001,2022_Nov_30_0808,localizer,2021.1.3,61.06351886261129,
block,scenes,scenes065.bmp,,,,,0,1,1,1,,,,,,,,,,,,,,,,,,,,,,,,,,,,,,,,,,,,,,,,,,None,,240.22248269002884,None,240.22248269002884,None,2022-11-30-08:12:36.457883,240.23619040008634,240.5389779000543,240.23619040008634,None,None,240.23619040008634,None,241.0393490900984,None,,,,21016,0001,2022_Nov_30_0808,localizer,2021.1.3,61.06351886261129,
block,scenes,scenes059.bmp,,,,,0,2,2,2,,,,,,,,,,,,,,,,,,,,,,,,,,,,,,,,,,,,,,,,,,None,,241.0393490900984,None,241.0393490900984,None,2022-11-30-08:12:37.274860,241.05171380005777,241.3557332000928,241.05171380005777,None,None,241.05171380005777,None,241.85661719008348,None,,,,21016,0001,2022_Nov_30_0808,localizer,2021.1.3,61.06351886261129,
block,scenes,scenes049.bmp,,,,,0,3,3,3,,,,,,,,,,,,,,,,,,,,,,,,,,,,,,,,,,,,,,,,,,None,,241.85661719008348,None,241.85661719008348,None,2022-11-30-08:12:38.092187,241.87093450000975,242.1722701000981,241.87093450000975,None,None,241.87093450000975,None,242.67266779011115,None,,,,21016,0001,2022_Nov_30_0808,localizer,2021.1.3,61.06351886261129,
block,scenes,scenes062.bmp,,,,,0,4,4,4,,,,,,,,,,,,,,,,,,,,,,,,,,,,,,,,,,,,,,,,,,None,,242.67266779011115,None,242.67266779011115,None,2022-11-30-08:12:38.907063,242.68570250004996,242.98905700002797,242.68570250004996,None,None,242.68570250004996,None,243.48927839009556,None,,,,21016,0001,2022_Nov_30_0808,localizer,2021.1.3,61.06351886261129,
block,scenes,scenes054.bmp,,,,,0,5,5,5,,,,,,,,,,,,,,,,,,,,,,,,,,,,,,,,,,,,,,,,,,None,,243.48927839009556,None,243.48927839009556,None,2022-11-30-08:12:39.724673,243.50478290009778,243.80598860001191,243.50478290009778,None,None,243.50478290009778,None,244.30595149009022,None,,,,21016,0001,2022_Nov_30_0808,localizer,2021.1.3,61.06351886261129,
block,scenes,scenes084.bmp,,,,,0,6,6,6,,,,,,,,,,,,,,,,,,,,,,,,,,,,,,,,,,,,,,,,,,None,,244.30595149009022,None,244.30595149009022,None,2022-11-30-08:12:40.541058,244.31706020003185,244.62252100009937,244.31706020003185,None,None,244.31706020003185,None,245.126349390042,None,,,,21016,0001,2022_Nov_30_0808,localizer,2021.1.3,61.06351886261129,
block,scenes,scenes061.bmp,,,,,0,7,7,7,,,,,,,,,,,,,,,,,,,,,,,,,,,,,,,,,,,,,,,,,,None,,245.126349390042,None,245.126349390042,None,2022-11-30-08:12:41.370512,245.1537660000613,245.4556903000921,245.1537660000613,None,None,245.1537660000613,None,245.93911969000473,None,,,,21016,0001,2022_Nov_30_0808,localizer,2021.1.3,61.06351886261129,
block,scenes,scenes075.bmp,,,,,0,8,8,8,,,,,,,,,,,,,,,,,,,,,,,,,,,,,,,,,,,,,,,,,,None,,245.93911969000473,None,245.93911969000473,None,2022-11-30-08:12:42.173522,245.9502327000955,246.25565590010956,245.9502327000955,None,None,245.9502327000955,None,246.75599869005381,None,,,,21016,0001,2022_Nov_30_0808,localizer,2021.1.3,61.06351886261129,
block,scenes,scenes042.bmp,,,,,0,9,9,9,,,,,,,,,,,,,,,,,,,,,,,,,,,,,,,,,,,,,,,,,,None,,246.75599869005381,None,246.75599869005381,None,2022-11-30-08:12:42.990400,246.7675577000482,247.07259740005247,246.7675577000482,None,None,246.7675577000482,None,247.57306409000884,None,,,,21016,0001,2022_Nov_30_0808,localizer,2021.1.3,61.06351886261129,
block,scenes,scenes020.bmp,,,,,0,10,10,10,,,,,,,,,,,,,,,,,,,,,,,,,,,,,,,,,,,,,,,,,,None,,247.57306409000884,None,247.57306409000884,None,2022-11-30-08:12:43.808453,247.58784880000167,247.88964130007662,247.58784880000167,None,None,247.58784880000167,None,248.3897744900547,None,,,,21016,0001,2022_Nov_30_0808,localizer,2021.1.3,61.06351886261129,
block,scenes,scenes079.bmp,,,,,0,11,11,11,,,,,,,,,,,,,,,,,,,,,,,,,,,,,,,,,,,,,,,,,,None,,248.3897744900547,None,248.3897744900547,None,2022-11-30-08:12:44.625164,248.4045282000443,248.70642669999506,248.4045282000443,None,None,248.4045282000443,None,249.20649399005342,None,,,,21016,0001,2022_Nov_30_0808,localizer,2021.1.3,61.06351886261129,
block,scenes,scenes066.bmp,,,,,0,12,12,12,,,,,,,,,,,,,,,,,,,,,,,,,,,,,,,,,,,,,,,,,,None,,249.20649399005342,None,249.20649399005342,None,2022-11-30-08:12:45.442078,249.21780420001596,249.52296080009546,249.21780420001596,None,None,249.21780420001596,None,250.0231553900754,None,,,,21016,0001,2022_Nov_30_0808,localizer,2021.1.3,61.06351886261129,
block,scenes,scenes044.bmp,,,,,0,13,13,13,,,,,,,,,,,,,,,,,,,,,,,,,,,,,,,,,,,,,,,,,,None,,250.0231553900754,None,250.0231553900754,None,2022-11-30-08:12:46.258738,250.03864710009657,250.33964180003386,250.03864710009657,None,None,250.03864710009657,None,250.83976299003697,None,,,,21016,0001,2022_Nov_30_0808,localizer,2021.1.3,61.06351886261129,
block_end,scenes,scenes072.bmp,,,,,0,14,14,14,,,,,,,,,,,,,,,,,,,,,,,,,,,,,,,,,,,,,,,,,,None,,250.83976299003697,None,250.83976299003697,None,2022-11-30-08:12:47.075152,250.8515316999983,251.1556001000572,250.8515316999983,None,None,250.8515316999983,None,251.65591369001194,None,,,,21016,0001,2022_Nov_30_0808,localizer,2021.1.3,61.06351886261129,
block_start,faces,faces066.bmp,,,,,0,15,15,15,,,,,,,,,,,,,,,,,,,,,,,,,,,,,,,,,,,,,,,,,,t,1.732866800040938,251.65587340004276,None,251.65587340004276,None,2022-11-30-08:12:49.638687,253.41680170001928,253.72263160010334,253.41680170001928,None,None,253.41680170001928,None,254.2215376900509,None,,,,21016,0001,2022_Nov_30_0808,localizer,2021.1.3,61.06351886261129,
block,faces,faces086.bmp,,,,,0,16,16,16,,,,,,,,,,,,,,,,,,,,,,,,,,,,,,,,,,,,,,,,,,None,,254.2215376900509,None,254.2215376900509,None,2022-11-30-08:12:50.455245,254.23129260004498,254.53819310001563,254.23129260004498,None,None,254.23129260004498,None,255.03896429007872,None,,,,21016,0001,2022_Nov_30_0808,localizer,2021.1.3,61.06351886261129,
block,faces,faces069.bmp,,,,,0,17,17,17,,,,,,,,,,,,,,,,,,,,,,,,,,,,,,,,,,,,,,,,,,None,,255.03896429007872,None,255.03896429007872,None,2022-11-30-08:12:51.273369,255.04987580003217,255.35580130002927,255.04987580003217,None,None,255.04987580003217,None,255.85553509010933,None,,,,21016,0001,2022_Nov_30_0808,localizer,2021.1.3,61.06351886261129,
block,faces,faces010.bmp,,,,,0,18,18,18,,,,,,,,,,,,,,,,,,,,,,,,,,,,,,,,,,,,,,,,,,None,,255.85553509010933,None,255.85553509010933,None,2022-11-30-08:12:52.090240,255.8627501000883,256.1722636000486,255.8627501000883,None,None,255.8627501000883,None,256.6724625900621,None,,,,21016,0001,2022_Nov_30_0808,localizer,2021.1.3,61.06351886261129,
block,faces,faces028.bmp,,,,,0,19,19,19,,,,,,,,,,,,,,,,,,,,,,,,,,,,,,,,,,,,,,,,,,None,,256.6724625900621,None,256.6724625900621,None,2022-11-30-08:12:52.906858,256.6803279001033,256.9890500000911,256.6803279001033,None,None,256.6803279001033,None,257.49030949003065,None,,,,21016,0001,2022_Nov_30_0808,localizer,2021.1.3,61.06351886261129,
block,faces,faces067.bmp,,,,,0,20,20,20,,,,,,,,,,,,,,,,,,,,,,,,,,,,,,,,,,,,,,,,,,None,,257.49030949003065,None,257.49030949003065,None,2022-11-30-08:12:53.727685,257.5112647000933,257.8224180000834,257.5112647000933,None,None,257.5112647000933,None,258.312006290094,None,,,,21016,0001,2022_Nov_30_0808,localizer,2021.1.3,61.06351886261129,
block,faces,faces088.bmp,,,,,0,21,21,21,,,,,,,,,,,,,,,,,,,,,,,,,,,,,,,,,,,,,,,,,,None,,258.312006290094,None,258.312006290094,None,2022-11-30-08:12:54.554287,258.3310434001032,258.64023710007314,258.3310434001032,None,None,258.3310434001032,None,259.12368369011676,None,,,,21016,0001,2022_Nov_30_0808,localizer,2021.1.3,61.06351886261129,
block,faces,faces026.bmp,,,,,0,22,22,22,,,,,,,,,,,,,,,,,,,,,,,,,,,,,,,,,,,,,,,,,,None,,259.12368369011676,None,259.12368369011676,None,2022-11-30-08:12:55.360244,259.17789370007813,259.48915540007874,259.17789370007813,None,None,259.17789370007813,None,259.9393581900746,None,,,,21016,0001,2022_Nov_30_0808,localizer,2021.1.3,61.06351886261129,
block,faces,faces031.bmp,,,,,0,23,23,23,,,,,,,,,,,,,,,,,,,,,,,,,,,,,,,,,,,,,,,,,,None,,259.9393581900746,None,259.9393581900746,None,2022-11-30-08:12:56.173757,259.94575220008846,260.255603000056,259.94575220008846,None,None,259.94575220008846,None,260.7557940900093,None,,,,21016,0001,2022_Nov_30_0808,localizer,2021.1.3,61.06351886261129,
block,faces,faces049.bmp,,,,,0,24,24,24,,,,,,,,,,,,,,,,,,,,,,,,,,,,,,,,,,,,,,,,,,None,,260.7557940900093,None,260.7557940900093,None,2022-11-30-08:12:56.990411,260.76700830005575,261.07241040002555,260.76700830005575,None,None,260.76700830005575,None,261.572683990025,None,,,,21016,0001,2022_Nov_30_0808,localizer,2021.1.3,61.06351886261129,
block,faces,faces063.bmp,,,,,0,25,25,25,,,,,,,,,,,,,,,,,,,,,,,,,,,,,,,,,,,,,,,,,,None,,261.572683990025,None,261.572683990025,None,2022-11-30-08:12:57.807149,261.58550010004546,261.8891951000551,261.58550010004546,None,None,261.58550010004546,None,262.3880943900673,None,,,,21016,0001,2022_Nov_30_0808,localizer,2021.1.3,61.06351886261129,
block,faces,faces075.bmp,,,,,0,26,26,26,,,,,,,,,,,,,,,,,,,,,,,,,,,,,,,,,,,,,,,,,,None,,262.3880943900673,None,262.3880943900673,None,2022-11-30-08:12:58.622101,262.39334410009906,262.70574270002544,262.39334410009906,None,None,262.39334410009906,None,263.20786029009616,None,,,,21016,0001,2022_Nov_30_0808,localizer,2021.1.3,61.06351886261129,
block,faces,faces068.bmp,,,,,0,27,27,27,,,,,,,,,,,,,,,,,,,,,,,,,,,,,,,,,,,,,,,,,,None,,263.20786029009616,None,263.20786029009616,None,2022-11-30-08:12:59.446489,263.2264208000852,263.5391642000759,263.2264208000852,None,None,263.2264208000852,None,264.0247944900999,None,,,,21016,0001,2022_Nov_30_0808,localizer,2021.1.3,61.06351886261129,
block,faces,faces083.bmp,,,,,0,28,28,28,,,,,,,,,,,,,,,,,,,,,,,,,,,,,,,,,,,,,,,,,,None,,264.0247944900999,None,264.0247944900999,None,2022-11-30-08:13:00.260358,264.03382140002213,264.3393410000717,264.03382140002213,None,None,264.03382140002213,None,264.83920019005893,None,,,,21016,0001,2022_Nov_30_0808,localizer,2021.1.3,61.06351886261129,
block_end,faces,faces020.bmp,,,,,0,29,29,29,,,,,,,,,,,,,,,,,,,,,,,,,,,,,,,,,,,,,,,,,,None,,264.83920019005893,None,264.83920019005893,None,2022-11-30-08:13:01.073641,264.8506324000191,265.1554363000905,264.8506324000191,None,None,264.8506324000191,None,265.6560887900647,None,,,,21016,0001,2022_Nov_30_0808,localizer,2021.1.3,61.06351886261129,
block_start,scrambled,scrambled041.bmp,,,,,0,30,30,30,,,,,,,,,,,,,,,,,,,,,,,,,,,,,,,,,,,,,,,,,,t,1.7327181999571621,265.65601160004735,None,265.65601160004735,None,2022-11-30-08:13:03.645264,267.4269129000604,267.74026220000815,267.4269129000604,None,None,267.4269129000604,None,268.22299139006066,None,,,,21016,0001,2022_Nov_30_0808,localizer,2021.1.3,61.06351886261129,
block,scrambled,scrambled085.bmp,,,,,0,31,31,31,,,,,,,,,,,,,,,,,,,,,,,,,,,,,,,,,,,,,,,,,,None,,268.22299139006066,None,268.22299139006066,None,2022-11-30-08:13:04.458562,268.2386934000533,268.5397360000061,268.2386934000533,None,None,268.2386934000533,None,269.03970729003197,None,,,,21016,0001,2022_Nov_30_0808,localizer,2021.1.3,61.06351886261129,
block,scrambled,scrambled009.bmp,,,,,0,32,32,32,,,,,,,,,,,,,,,,,,,,,,,,,,,,,,,,,,,,,,,,,,None,,269.03970729003197,None,269.03970729003197,None,2022-11-30-08:13:05.275041,269.0529157000128,269.3559774000896,269.0529157000128,None,None,269.0529157000128,None,269.85606259005147,None,,,,21016,0001,2022_Nov_30_0808,localizer,2021.1.3,61.06351886261129,
block,scrambled,scrambled031.bmp,,,,,0,33,33,33,,,,,,,,,,,,,,,,,,,,,,,,,,,,,,,,,,,,,,,,,,None,,269.85606259005147,None,269.85606259005147,None,2022-11-30-08:13:06.090463,269.86812220001593,270.1722305000294,269.86812220001593,None,None,269.86812220001593,None,270.672116590105,None,,,,21016,0001,2022_Nov_30_0808,localizer,2021.1.3,61.06351886261129,
block,scrambled,scrambled020.bmp,,,,,0,34,34,34,,,,,,,,,,,,,,,,,,,,,,,,,,,,,,,,,,,,,,,,,,None,,270.672116590105,None,270.672116590105,None,2022-11-30-08:13:06.906523,270.68296670005657,270.9894339001039,270.68296670005657,None,None,270.68296670005657,None,271.48924999011217,None,,,,21016,0001,2022_Nov_30_0808,localizer,2021.1.3,61.06351886261129,
block,scrambled,scrambled035.bmp,,,,,0,35,35,35,,,,,,,,,,,,,,,,,,,,,,,,,,,,,,,,,,,,,,,,,,None,,271.48924999011217,None,271.48924999011217,None,2022-11-30-08:13:07.723637,271.5002282001078,271.80596040003,271.5002282001078,None,None,271.5002282001078,None,272.3057285900228,None,,,,21016,0001,2022_Nov_30_0808,localizer,2021.1.3,61.06351886261129,
block,scrambled,scrambled068.bmp,,,,,0,36,36,36,,,,,,,,,,,,,,,,,,,,,,,,,,,,,,,,,,,,,,,,,,None,,272.3057285900228,None,272.3057285900228,None,2022-11-30-08:13:08.540129,272.3169970000163,272.62279060005676,272.3169970000163,None,None,272.3169970000163,None,273.12878499007786,None,,,,21016,0001,2022_Nov_30_0808,localizer,2021.1.3,61.06351886261129,
block,scrambled,scrambled004.bmp,,,,,0,37,37,37,,,,,,,,,,,,,,,,,,,,,,,,,,,,,,,,,,,,,,,,,,None,,273.12878499007786,None,273.12878499007786,None,2022-11-30-08:13:09.370131,273.1508439000463,273.45594210003037,273.1508439000463,None,None,273.1508439000463,None,273.94016659006013,None,,,,21016,0001,2022_Nov_30_0808,localizer,2021.1.3,61.06351886261129,
block,scrambled,scrambled083.bmp,,,,,0,38,38,38,,,,,,,,,,,,,,,,,,,,,,,,,,,,,,,,,,,,,,,,,,None,,273.94016659006013,None,273.94016659006013,None,2022-11-30-08:13:10.176614,273.9544603000395,274.25589030003175,273.9544603000395,None,None,273.9544603000395,None,274.7458378901007,None,,,,21016,0001,2022_Nov_30_0808,localizer,2021.1.3,61.06351886261129,
block,scrambled,scrambled013.bmp,,,,,0,39,39,39,,,,,,,,,,,,,,,,,,,,,,,,,,,,,,,,,,,,,,,,,,None,,274.7458378901007,None,274.7458378901007,None,2022-11-30-08:13:10.988039,274.76489040011074,275.07360290002543,274.76489040011074,None,y,274.76489040011074,None,275.5561735900352,None,0.4916884999256581,,,21016,0001,2022_Nov_30_0808,localizer,2021.1.3,61.06351886261129,
block,scrambled,scrambled030.bmp,,,,,0,40,40,40,,,,,,,,,,,,,,,,,,,,,,,,,,,,,,,,,,,,,,,,,,None,,275.5561735900352,None,275.5561735900352,None,2022-11-30-08:13:11.790571,275.5673058000393,275.87272640003357,275.5673058000393,None,None,275.5673058000393,None,276.37363949001303,None,,,,21016,0001,2022_Nov_30_0808,localizer,2021.1.3,61.06351886261129,
block,scrambled,scrambled065.bmp,,,,,0,41,41,41,,,,,,,,,,,,,,,,,,,,,,,,,,,,,,,,,,,,,,,,,,None,,276.37363949001303,None,276.37363949001303,None,2022-11-30-08:13:12.610628,276.3905472001061,276.7059946000809,276.3905472001061,None,None,276.3905472001061,None,277.1891485901084,None,,,,21016,0001,2022_Nov_30_0808,localizer,2021.1.3,61.06351886261129,
block,scrambled,scrambled023.bmp,,,,,0,42,42,42,,,,,,,,,,,,,,,,,,,,,,,,,,,,,,,,,,,,,,,,,,None,,277.1891485901084,None,277.1891485901084,None,2022-11-30-08:13:13.423649,277.19934180006385,277.505765000009,277.19934180006385,None,None,277.19934180006385,None,278.0061742901104,None,,,,21016,0001,2022_Nov_30_0808,localizer,2021.1.3,61.06351886261129,
block,scrambled,scrambled052.bmp,,,,,0,43,43,43,,,,,,,,,,,,,,,,,,,,,,,,,,,,,,,,,,,,,,,,,,None,,278.0061742901104,None,278.0061742901104,None,2022-11-30-08:13:14.240574,278.0170795000158,278.32227790006436,278.0170795000158,None,None,278.0170795000158,None,278.82221479006114,None,,,,21016,0001,2022_Nov_30_0808,localizer,2021.1.3,61.06351886261129,
block_end,scrambled,scrambled039.bmp,,,,,0,44,44,44,,,,,,,,,,,,,,,,,,,,,,,,,,,,,,,,,,,,,,,,,,None,,278.82221479006114,None,278.82221479006114,None,2022-11-30-08:13:15.056622,278.828006500029,279.142693300033,278.828006500029,None,None,278.828006500029,None,279.6391447900329,None,,,,21016,0001,2022_Nov_30_0808,localizer,2021.1.3,61.06351886261129,
block_start,objects,objects086.bmp,,,,,0,45,45,45,,,,,,,,,,,,,,,,,,,,,,,,,,,,,,,,,,,,,,,,,,t,1.7496958000119776,279.63907880010083,None,279.63907880010083,None,2022-11-30-08:13:17.639346,281.41703390004113,281.7245597000001,281.41703390004113,None,None,281.41703390004113,None,282.22252569000705,None,,,,21016,0001,2022_Nov_30_0808,localizer,2021.1.3,61.06351886261129,
block,objects,objects086.bmp,,,,,0,46,46,46,,,,,,,,,,,,,,,,,,,,,,,,,,,,,,,,,,,,,,,,,,None,,282.22252569000705,None,282.22252569000705,None,2022-11-30-08:13:18.456820,282.2235005000839,282.5226414001081,282.2235005000839,None,y,282.2235005000839,None,283.0228928900557,None,0.5721420999616385,,,21016,0001,2022_Nov_30_0808,localizer,2021.1.3,61.06351886261129,
block,objects,objects021.bmp,,,,,0,47,47,47,,,,,,,,,,,,,,,,,,,,,,,,,,,,,,,,,,,,,,,,,,None,,283.0228928900557,None,283.0228928900557,None,2022-11-30-08:13:19.259288,283.03800140006933,283.33931740000844,283.03800140006933,283.03800140006933,None,283.03800140006933,283.03800140006933,283.8394178900868,None,,,,21016,0001,2022_Nov_30_0808,localizer,2021.1.3,61.06351886261129,
block,objects,objects024.bmp,,,,,0,48,48,48,,,,,,,,,,,,,,,,,,,,,,,,,,,,,,,,,,,,,,,,,,None,,283.8394178900868,None,283.8394178900868,None,2022-11-30-08:13:20.074032,283.85090550000314,284.15699190006126,283.85090550000314,None,None,283.85090550000314,None,284.65651219002905,None,,,,21016,0001,2022_Nov_30_0808,localizer,2021.1.3,61.06351886261129,
block,objects,objects075.bmp,,,,,0,49,49,49,,,,,,,,,,,,,,,,,,,,,,,,,,,,,,,,,,,,,,,,,,None,,284.65651219002905,None,284.65651219002905,None,2022-11-30-08:13:20.891927,284.6706138000591,284.97296320006717,284.6706138000591,None,None,284.6706138000591,None,285.4726527900435,None,,,,21016,0001,2022_Nov_30_0808,localizer,2021.1.3,61.06351886261129,
block,objects,objects045.bmp,,,,,0,50,50,50,,,,,,,,,,,,,,,,,,,,,,,,,,,,,,,,,,,,,,,,,,None,,285.4726527900435,None,285.4726527900435,None,2022-11-30-08:13:21.707058,285.483059200109,285.78893300006166,285.483059200109,None,None,285.483059200109,None,286.2913586900337,None,,,,21016,0001,2022_Nov_30_0808,localizer,2021.1.3,61.06351886261129,
block,objects,objects019.bmp,,,,,0,51,51,51,,,,,,,,,,,,,,,,,,,,,,,,,,,,,,,,,,,,,,,,,,None,,286.2913586900337,None,286.2913586900337,None,2022-11-30-08:13:22.530557,286.3072258000029,286.6226655000355,286.3072258000029,None,None,286.3072258000029,None,287.1059825900244,None,,,,21016,0001,2022_Nov_30_0808,localizer,2021.1.3,61.06351886261129,
block,objects,objects062.bmp,,,,,0,52,52,52,,,,,,,,,,,,,,,,,,,,,,,,,,,,,,,,,,,,,,,,,,None,,287.1059825900244,None,287.1059825900244,None,2022-11-30-08:13:23.340382,287.12231720006093,287.4222936000442,287.12231720006093,None,None,287.12231720006093,None,287.9226945900824,None,,,,21016,0001,2022_Nov_30_0808,localizer,2021.1.3,61.06351886261129,
block,objects,objects037.bmp,,,,,0,53,53,53,,,,,,,,,,,,,,,,,,,,,,,,,,,,,,,,,,,,,,,,,,None,,287.9226945900824,None,287.9226945900824,None,2022-11-30-08:13:24.157308,287.9337446000427,288.2392983000027,287.9337446000427,None,None,287.9337446000427,None,288.73957649003717,None,,,,21016,0001,2022_Nov_30_0808,localizer,2021.1.3,61.06351886261129,
block,objects,objects017.bmp,,,,,0,54,54,54,,,,,,,,,,,,,,,,,,,,,,,,,,,,,,,,,,,,,,,,,,None,,288.73957649003717,None,288.73957649003717,None,2022-11-30-08:13:24.975177,288.7518750000745,289.0558137000771,288.7518750000745,None,None,288.7518750000745,None,289.55706169004554,None,,,,21016,0001,2022_Nov_30_0808,localizer,2021.1.3,61.06351886261129,
block,objects,objects088.bmp,,,,,0,55,55,55,,,,,,,,,,,,,,,,,,,,,,,,,,,,,,,,,,,,,,,,,,None,,289.55706169004554,None,289.55706169004554,None,2022-11-30-08:13:25.793500,289.5741567000514,289.8891686000861,289.5741567000514,None,None,289.5741567000514,None,290.3746755901026,None,,,,21016,0001,2022_Nov_30_0808,localizer,2021.1.3,61.06351886261129,
block,objects,objects028.bmp,,,,,0,56,56,56,,,,,,,,,,,,,,,,,,,,,,,,,,,,,,,,,,,,,,,,,,None,,290.3746755901026,None,290.3746755901026,None,2022-11-30-08:13:26.614021,290.38906040007714,290.6892796000466,290.38906040007714,None,None,290.38906040007714,None,291.18989459008446,None,,,,21016,0001,2022_Nov_30_0808,localizer,2021.1.3,61.06351886261129,
block,objects,objects010.bmp,,,,,0,57,57,57,,,,,,,,,,,,,,,,,,,,,,,,,,,,,,,,,,,,,,,,,,None,,291.18989459008446,None,291.18989459008446,None,2022-11-30-08:13:27.425476,291.2015385000268,291.5057836000342,291.2015385000268,None,None,291.2015385000268,None,292.00635109005964,None,,,,21016,0001,2022_Nov_30_0808,localizer,2021.1.3,61.06351886261129,
block,objects,objects061.bmp,,,,,0,58,58,58,,,,,,,,,,,,,,,,,,,,,,,,,,,,,,,,,,,,,,,,,,None,,292.00635109005964,None,292.00635109005964,None,2022-11-30-08:13:28.241674,292.017135500093,292.322539600078,292.017135500093,None,None,292.017135500093,None,292.82297459002586,None,,,,21016,0001,2022_Nov_30_0808,localizer,2021.1.3,61.06351886261129,
block_end,objects,objects071.bmp,,,,,0,59,59,59,,,,,,,,,,,,,,,,,,,,,,,,,,,,,,,,,,,,,,,,,,None,,292.82297459002586,None,292.82297459002586,None,2022-11-30-08:13:29.058368,292.83459820004646,293.1620246000821,292.83459820004646,None,None,292.83459820004646,None,293.6392624901142,None,,,,21016,0001,2022_Nov_30_0808,localizer,2021.1.3,61.06351886261129,
null_block,null_block,null_block.bmp,,,,,0,60,60,60,,,,,,,,,,,,,,,,,,,,,,,,,,,,,,,,,,,,,,,,,,t,1.749702800065279,293.63909810001496,None,293.63909810001496,None,2022-11-30-08:13:31.639781,295.405641390034,None,295.405641390034,None,None,295.405641390034,None,295.4174624000443,None,,,,21016,0001,2022_Nov_30_0808,localizer,2021.1.3,61.06351886261129,
block_start,scenes,scenes008.bmp,,,,,0,61,61,61,,,,,,,,,,,,,,,,,,,,,,,,,,,,,,,,,,,,,,,,,,t,1.965090199955739,307.4237924000481,None,307.4237924000481,None,2022-11-30-08:13:45.641672,309.4184030001052,309.72253060003277,309.4184030001052,None,None,309.4184030001052,None,310.223325290042,None,,,,21016,0001,2022_Nov_30_0808,localizer,2021.1.3,61.06351886261129,
block,scenes,scenes054.bmp,,,,,0,62,62,62,,,,,,,,,,,,,,,,,,,,,,,,,,,,,,,,,,,,,,,,,,None,,310.223325290042,None,310.223325290042,None,2022-11-30-08:13:46.458897,310.22561520000454,310.54006160004064,310.22561520000454,None,None,310.22561520000454,None,311.0399834900396,None,,,,21016,0001,2022_Nov_30_0808,localizer,2021.1.3,61.06351886261129,
block,scenes,scenes035.bmp,,,,,0,63,63,63,,,,,,,,,,,,,,,,,,,,,,,,,,,,,,,,,,,,,,,,,,None,,311.0399834900396,None,311.0399834900396,None,2022-11-30-08:13:47.276160,311.0534071000293,311.3560297000222,311.0534071000293,None,None,311.0534071000293,None,311.85678889011035,None,,,,21016,0001,2022_Nov_30_0808,localizer,2021.1.3,61.06351886261129,
block,scenes,scenes022.bmp,,,,,0,64,64,64,,,,,,,,,,,,,,,,,,,,,,,,,,,,,,,,,,,,,,,,,,None,,311.85678889011035,None,311.85678889011035,None,2022-11-30-08:13:48.092311,311.8714030000847,312.17266510007903,311.8714030000847,None,None,311.8714030000847,None,312.6726563900244,None,,,,21016,0001,2022_Nov_30_0808,localizer,2021.1.3,61.06351886261129,
block,scenes,scenes055.bmp,,,,,0,65,65,65,,,,,,,,,,,,,,,,,,,,,,,,,,,,,,,,,,,,,,,,,,None,,312.6726563900244,None,312.6726563900244,None,2022-11-30-08:13:48.907059,312.6843774000881,312.9894176000962,312.6843774000881,None,None,312.6843774000881,None,313.4893272900023,None,,,,21016,0001,2022_Nov_30_0808,localizer,2021.1.3,61.06351886261129,
block,scenes,scenes085.bmp,,,,,0,66,66,66,,,,,,,,,,,,,,,,,,,,,,,,,,,,,,,,,,,,,,,,,,None,,313.4893272900023,None,313.4893272900023,None,2022-11-30-08:13:49.723030,313.49868010007776,313.80617039999925,313.49868010007776,None,None,313.49868010007776,None,314.3059127900284,None,,,,21016,0001,2022_Nov_30_0808,localizer,2021.1.3,61.06351886261129,
block,scenes,scenes045.bmp,,,,,0,67,67,67,,,,,,,,,,,,,,,,,,,,,,,,,,,,,,,,,,,,,,,,,,None,,314.3059127900284,None,314.3059127900284,None,2022-11-30-08:13:50.540589,314.3157183000585,314.6226593001047,314.3157183000585,None,None,314.3157183000585,None,315.122752090008,None,,,,21016,0001,2022_Nov_30_0808,localizer,2021.1.3,61.06351886261129,
block,scenes,scenes007.bmp,,,,,0,68,68,68,,,,,,,,,,,,,,,,,,,,,,,,,,,,,,,,,,,,,,,,,,None,,315.122752090008,None,315.122752090008,None,2022-11-30-08:13:51.357159,315.13699890009593,315.4395308000967,315.13699890009593,None,None,315.13699890009593,None,315.93957819000354,None,,,,21016,0001,2022_Nov_30_0808,localizer,2021.1.3,61.06351886261129,
block,scenes,scenes007.bmp,,,,,0,69,69,69,,,,,,,,,,,,,,,,,,,,,,,,,,,,,,,,,,,,,,,,,,None,,315.93957819000354,None,315.93957819000354,None,2022-11-30-08:13:52.173978,315.94036760006566,316.23949430009816,315.94036760006566,None,y,315.94036760006566,None,316.74058659004515,None,0.5490732000907883,,,21016,0001,2022_Nov_30_0808,localizer,2021.1.3,61.06351886261129,
block,scenes,scenes004.bmp,,,,,0,70,70,70,,,,,,,,,,,,,,,,,,,,,,,,,,,,,,,,,,,,,,,,,,None,,316.74058659004515,None,316.74058659004515,None,2022-11-30-08:13:52.979142,316.7659391000634,317.0726276000496,316.7659391000634,316.7659391000634,None,316.7659391000634,316.7659391000634,317.5559119900223,None,,,,21016,0001,2022_Nov_30_0808,localizer,2021.1.3,61.06351886261129,
block,scenes,scenes046.bmp,,,,,0,71,71,71,,,,,,,,,,,,,,,,,,,,,,,,,,,,,,,,,,,,,,,,,,None,,317.5559119900223,None,317.5559119900223,None,2022-11-30-08:13:53.790321,317.56565770006273,317.8729476000881,317.56565770006273,None,None,317.56565770006273,None,318.3730665900745,None,,,,21016,0001,2022_Nov_30_0808,localizer,2021.1.3,61.06351886261129,
block,scenes,scenes079.bmp,,,,,0,72,72,72,,,,,,,,,,,,,,,,,,,,,,,,,,,,,,,,,,,,,,,,,,None,,318.3730665900745,None,318.3730665900745,None,2022-11-30-08:13:54.607488,318.37383200007025,318.6893419000553,318.37383200007025,None,None,318.37383200007025,None,319.1894668900874,None,,,,21016,0001,2022_Nov_30_0808,localizer,2021.1.3,61.06351886261129,
block,scenes,scenes033.bmp,,,,,0,73,73,73,,,,,,,,,,,,,,,,,,,,,,,,,,,,,,,,,,,,,,,,,,None,,319.1894668900874,None,319.1894668900874,None,2022-11-30-08:13:55.423870,319.2007546001114,319.50598710007034,319.2007546001114,None,None,319.2007546001114,None,320.00640279010406,None,,,,21016,0001,2022_Nov_30_0808,localizer,2021.1.3,61.06351886261129,
block,scenes,scenes061.bmp,,,,,0,74,74,74,,,,,,,,,,,,,,,,,,,,,,,,,,,,,,,,,,,,,,,,,,None,,320.00640279010406,None,320.00640279010406,None,2022-11-30-08:13:56.241798,320.00707790011074,320.3066821000539,320.00707790011074,None,None,320.00707790011074,None,320.80693849003876,None,,,,21016,0001,2022_Nov_30_0808,localizer,2021.1.3,61.06351886261129,
block_end,scenes,scenes014.bmp,,,,,0,75,75,75,,,,,,,,,,,,,,,,,,,,,,,,,,,,,,,,,,,,,,,,,,None,,320.80693849003876,None,320.80693849003876,None,2022-11-30-08:13:57.042946,320.8186060000444,321.12272179999854,320.8186060000444,320.8186060000444,None,320.8186060000444,320.8186060000444,321.6227233900223,None,,,,21016,0001,2022_Nov_30_0808,localizer,2021.1.3,61.06351886261129,
block_start,scrambled,scrambled023.bmp,,,,,0,76,76,76,,,,,,,,,,,,,,,,,,,,,,,,,,,,,,,,,,,,,,,,,,t,1.7659417999675497,321.62279450008646,None,321.62279450008646,None,2022-11-30-08:13:59.639661,323.4070518000517,323.70623430004343,323.4070518000517,None,None,323.4070518000517,None,324.2062591900118,None,,,,21016,0001,2022_Nov_30_0808,localizer,2021.1.3,61.06351886261129,
block,scrambled,scrambled063.bmp,,,,,0,77,77,77,,,,,,,,,,,,,,,,,,,,,,,,,,,,,,,,,,,,,,,,,,None,,324.2062591900118,None,324.2062591900118,None,2022-11-30-08:14:00.441659,324.21750620007515,324.5229024,324.21750620007515,324.21750620007515,None,324.21750620007515,324.21750620007515,325.0230025900761,None,,,,21016,0001,2022_Nov_30_0808,localizer,2021.1.3,61.06351886261129,
block,scrambled,scrambled049.bmp,,,,,0,78,78,78,,,,,,,,,,,,,,,,,,,,,,,,,,,,,,,,,,,,,,,,,,None,,325.0230025900761,None,325.0230025900761,None,2022-11-30-08:14:01.257624,325.0344577000942,325.3398185000988,325.0344577000942,None,None,325.0344577000942,None,325.84111959000586,None,,,,21016,0001,2022_Nov_30_0808,localizer,2021.1.3,61.06351886261129,
block,scrambled,scrambled065.bmp,,,,,0,79,79,79,,,,,,,,,,,,,,,,,,,,,,,,,,,,,,,,,,,,,,,,,,None,,325.84111959000586,None,325.84111959000586,None,2022-11-30-08:14:02.077682,325.8498788001016,326.1567665000912,325.8498788001016,None,None,325.8498788001016,None,326.65683119001335,None,,,,21016,0001,2022_Nov_30_0808,localizer,2021.1.3,61.06351886261129,
block,scrambled,scrambled010.bmp,,,,,0,80,80,80,,,,,,,,,,,,,,,,,,,,,,,,,,,,,,,,,,,,,,,,,,None,,326.65683119001335,None,326.65683119001335,None,2022-11-30-08:14:02.892199,326.66910080006346,326.9728433000855,326.66910080006346,None,None,326.66910080006346,None,327.4742188900942,None,,,,21016,0001,2022_Nov_30_0808,localizer,2021.1.3,61.06351886261129,
block,scrambled,scrambled008.bmp,,,,,0,81,81,81,,,,,,,,,,,,,,,,,,,,,,,,,,,,,,,,,,,,,,,,,,None,,327.4742188900942,None,327.4742188900942,None,2022-11-30-08:14:03.710788,327.49168990005273,327.806102200062,327.49168990005273,None,y,327.49168990005273,None,328.28948199006265,None,0.37887490005232394,,,21016,0001,2022_Nov_30_0808,localizer,2021.1.3,61.06351886261129,
block,scrambled,scrambled044.bmp,,,,,0,82,82,82,,,,,,,,,,,,,,,,,,,,,,,,,,,,,,,,,,,,,,,,,,None,,328.28948199006265,None,328.28948199006265,None,2022-11-30-08:14:04.523985,328.29864200006705,328.6061652000062,328.29864200006705,None,None,328.29864200006705,None,329.10638419005556,None,,,,21016,0001,2022_Nov_30_0808,localizer,2021.1.3,61.06351886261129,
block,scrambled,scrambled028.bmp,,,,,0,83,83,83,,,,,,,,,,,,,,,,,,,,,,,,,,,,,,,,,,,,,,,,,,None,,329.10638419005556,None,329.10638419005556,None,2022-11-30-08:14:05.340667,329.11706240009516,329.42277040006593,329.11706240009516,None,None,329.11706240009516,None,329.9227435901063,None,,,,21016,0001,2022_Nov_30_0808,localizer,2021.1.3,61.06351886261129,
block,scrambled,scrambled059.bmp,,,,,0,84,84,84,,,,,,,,,,,,,,,,,,,,,,,,,,,,,,,,,,,,,,,,,,None,,329.9227435901063,None,329.9227435901063,None,2022-11-30-08:14:06.157149,329.9329322000267,330.23945830005687,329.9329322000267,None,None,329.9329322000267,None,330.739987290022,None,,,,21016,0001,2022_Nov_30_0808,localizer,2021.1.3,61.06351886261129,
block,scrambled,scrambled030.bmp,,,,,0,85,85,85,,,,,,,,,,,,,,,,,,,,,,,,,,,,,,,,,,,,,,,,,,None,,330.739987290022,None,330.739987290022,None,2022-11-30-08:14:06.974383,330.74038770003244,331.0397425000556,330.74038770003244,None,None,330.74038770003244,None,331.54070859008937,None,,,,21016,0001,2022_Nov_30_0808,localizer,2021.1.3,61.06351886261129,
block,scrambled,scrambled086.bmp,,,,,0,86,86,86,,,,,,,,,,,,,,,,,,,,,,,,,,,,,,,,,,,,,,,,,,None,,331.54070859008937,None,331.54070859008937,None,2022-11-30-08:14:07.780302,331.5611503000837,331.8726065000519,331.5611503000837,331.5611503000837,None,331.5611503000837,331.5611503000837,332.35651179009585,None,,,,21016,0001,2022_Nov_30_0808,localizer,2021.1.3,61.06351886261129,
block,scrambled,scrambled062.bmp,,,,,0,87,87,87,,,,,,,,,,,,,,,,,,,,,,,,,,,,,,,,,,,,,,,,,,None,,332.35651179009585,None,332.35651179009585,None,2022-11-30-08:14:08.592027,332.3681785000954,332.6729557000799,332.3681785000954,None,None,332.3681785000954,None,333.1727470900165,None,,,,21016,0001,2022_Nov_30_0808,localizer,2021.1.3,61.06351886261129,
block,scrambled,scrambled087.bmp,,,,,0,88,88,88,,,,,,,,,,,,,,,,,,,,,,,,,,,,,,,,,,,,,,,,,,None,,333.1727470900165,None,333.1727470900165,None,2022-11-30-08:14:09.407154,333.18153550010175,333.48961590009276,333.18153550010175,None,None,333.18153550010175,None,333.98998479000295,None,,,,21016,0001,2022_Nov_30_0808,localizer,2021.1.3,61.06351886261129,
block,scrambled,scrambled073.bmp,,,,,0,89,89,89,,,,,,,,,,,,,,,,,,,,,,,,,,,,,,,,,,,,,,,,,,None,,333.98998479000295,None,333.98998479000295,None,2022-11-30-08:14:10.224409,334.0011257000733,334.30610780010466,334.0011257000733,None,None,334.0011257000733,None,334.8063865900273,None,,,,21016,0001,2022_Nov_30_0808,localizer,2021.1.3,61.06351886261129,
block_end,scrambled,scrambled033.bmp,,,,,0,90,90,90,,,,,,,,,,,,,,,,,,,,,,,,,,,,,,,,,,,,,,,,,,None,,334.8063865900273,None,334.8063865900273,None,2022-11-30-08:14:11.040788,334.81748600001447,335.1229499001056,334.81748600001447,None,None,334.81748600001447,None,335.62329539007044,None,,,,21016,0001,2022_Nov_30_0808,localizer,2021.1.3,61.06351886261129,
block_start,objects,objects087.bmp,,,,,0,91,91,91,,,,,,,,,,,,,,,,,,,,,,,,,,,,,,,,,,,,,,,,,,t,1.7658161000581458,335.6229663999984,None,335.6229663999984,None,2022-11-30-08:14:13.644157,337.42537980002817,337.7395739000058,337.42537980002817,None,None,337.42537980002817,None,338.22419579003474,None,,,,21016,0001,2022_Nov_30_0808,localizer,2021.1.3,61.06351886261129,
block,objects,objects063.bmp,,,,,0,92,92,92,,,,,,,,,,,,,,,,,,,,,,,,,,,,,,,,,,,,,,,,,,None,,338.22419579003474,None,338.22419579003474,None,2022-11-30-08:14:14.461333,338.23690760007594,338.5399468000978,338.23690760007594,None,None,338.23690760007594,None,339.0396588900127,None,,,,21016,0001,2022_Nov_30_0808,localizer,2021.1.3,61.06351886261129,
block,objects,objects014.bmp,,,,,0,93,93,93,,,,,,,,,,,,,,,,,,,,,,,,,,,,,,,,,,,,,,,,,,None,,339.0396588900127,None,339.0396588900127,None,2022-11-30-08:14:15.275077,339.0508850000333,339.35672420007177,339.0508850000333,None,None,339.0508850000333,None,339.85678889011035,None,,,,21016,0001,2022_Nov_30_0808,localizer,2021.1.3,61.06351886261129,
block,objects,objects032.bmp,,,,,0,94,94,94,,,,,,,,,,,,,,,,,,,,,,,,,,,,,,,,,,,,,,,,,,None,,339.85678889011035,None,339.85678889011035,None,2022-11-30-08:14:16.092381,339.86847320001107,340.1728861000156,339.86847320001107,None,None,339.86847320001107,None,340.67347589009444,None,,,,21016,0001,2022_Nov_30_0808,localizer,2021.1.3,61.06351886261129,
block,objects,objects034.bmp,,,,,0,95,95,95,,,,,,,,,,,,,,,,,,,,,,,,,,,,,,,,,,,,,,,,,,None,,340.67347589009444,None,340.67347589009444,None,2022-11-30-08:14:16.908876,340.6862266000826,340.98965650005266,340.6862266000826,None,None,340.6862266000826,None,341.4929754900746,None,,,,21016,0001,2022_Nov_30_0808,localizer,2021.1.3,61.06351886261129,
block,objects,objects050.bmp,,,,,0,96,96,96,,,,,,,,,,,,,,,,,,,,,,,,,,,,,,,,,,,,,,,,,,None,,341.4929754900746,None,341.4929754900746,None,2022-11-30-08:14:17.731125,341.5063297000015,341.8062380000483,341.5063297000015,None,None,341.5063297000015,None,342.30660869008864,None,,,,21016,0001,2022_Nov_30_0808,localizer,2021.1.3,61.06351886261129,
block,objects,objects024.bmp,,,,,0,97,97,97,,,,,,,,,,,,,,,,,,,,,,,,,,,,,,,,,,,,,,,,,,None,,342.30660869008864,None,342.30660869008864,None,2022-11-30-08:14:18.541007,342.3072388001019,342.6063003001036,342.3072388001019,None,None,342.3072388001019,None,343.1065824900521,None,,,,21016,0001,2022_Nov_30_0808,localizer,2021.1.3,61.06351886261129,
block,objects,objects041.bmp,,,,,0,98,98,98,,,,,,,,,,,,,,,,,,,,,,,,,,,,,,,,,,,,,,,,,,None,,343.1065824900521,None,343.1065824900521,None,2022-11-30-08:14:19.344183,343.11728830006905,343.4226812000852,343.11728830006905,343.11728830006905,None,343.11728830006905,343.11728830006905,343.9232195900055,None,,,,21016,0001,2022_Nov_30_0808,localizer,2021.1.3,61.06351886261129,
block,objects,objects020.bmp,,,,,0,99,99,99,,,,,,,,,,,,,,,,,,,,,,,,,,,,,,,,,,,,,,,,,,None,,343.9232195900055,None,343.9232195900055,None,2022-11-30-08:14:20.157613,343.93400110001676,344.2391226000618,343.93400110001676,None,None,343.93400110001676,None,344.73987919001377,None,,,,21016,0001,2022_Nov_30_0808,localizer,2021.1.3,61.06351886261129,
block,objects,objects077.bmp,,,,,0,100,100,100,,,,,,,,,,,,,,,,,,,,,,,,,,,,,,,,,,,,,,,,,,None,,344.73987919001377,None,344.73987919001377,None,2022-11-30-08:14:20.974279,344.7508184000617,345.0562940000091,344.7508184000617,None,None,344.7508184000617,None,345.55657479006334,None,,,,21016,0001,2022_Nov_30_0808,localizer,2021.1.3,61.06351886261129,
block,objects,objects030.bmp,,,,,0,101,101,101,,,,,,,,,,,,,,,,,,,,,,,,,,,,,,,,,,,,,,,,,,None,,345.55657479006334,None,345.55657479006334,None,2022-11-30-08:14:21.791157,345.5676463000709,345.87291970010847,345.5676463000709,None,None,345.5676463000709,None,346.37301149000416,None,,,,21016,0001,2022_Nov_30_0808,localizer,2021.1.3,61.06351886261129,
block,objects,objects064.bmp,,,,,0,102,102,102,,,,,,,,,,,,,,,,,,,,,,,,,,,,,,,,,,,,,,,,,,None,,346.37301149000416,None,346.37301149000416,None,2022-11-30-08:14:22.607415,346.384145500022,346.68961130001117,346.384145500022,None,None,346.384145500022,None,347.1897573900875,None,,,,21016,0001,2022_Nov_30_0808,localizer,2021.1.3,61.06351886261129,
block,objects,objects006.bmp,,,,,0,103,103,103,,,,,,,,,,,,,,,,,,,,,,,,,,,,,,,,,,,,,,,,,,None,,347.1897573900875,None,347.1897573900875,None,2022-11-30-08:14:23.424160,347.19684590003453,347.50659870007075,347.19684590003453,None,None,347.19684590003453,None,348.00673399006484,None,,,,21016,0001,2022_Nov_30_0808,localizer,2021.1.3,61.06351886261129,
block,objects,objects057.bmp,,,,,0,104,104,104,,,,,,,,,,,,,,,,,,,,,,,,,,,,,,,,,,,,,,,,,,None,,348.00673399006484,None,348.00673399006484,None,2022-11-30-08:14:24.244124,348.0205198000185,348.3231042000698,348.0205198000185,None,None,348.0205198000185,None,348.82332209011076,None,,,,21016,0001,2022_Nov_30_0808,localizer,2021.1.3,61.06351886261129,
block_end,objects,objects073.bmp,,,,,0,105,105,105,,,,,,,,,,,,,,,,,,,,,,,,,,,,,,,,,,,,,,,,,,None,,348.82332209011076,None,348.82332209011076,None,2022-11-30-08:14:25.058715,348.8351036000531,349.1395229001064,348.8351036000531,None,None,348.8351036000531,None,349.63983259003146,None,,,,21016,0001,2022_Nov_30_0808,localizer,2021.1.3,61.06351886261129,
null_block,null_block,null_block.bmp,,,,,0,106,106,106,,,,,,,,,,,,,,,,,,,,,,,,,,,,,,,,,,,,,,,,,,t,1.7478447000030428,349.6398651000345,None,349.6398651000345,None,2022-11-30-08:14:27.641045,351.40664419010284,None,351.40664419010284,None,None,351.40664419010284,None,351.41137910005637,None,,,,21016,0001,2022_Nov_30_0808,localizer,2021.1.3,61.06351886261129,
block_start,faces,faces048.bmp,,,,,0,107,107,107,,,,,,,,,,,,,,,,,,,,,,,,,,,,,,,,,,,,,,,,,,t,1.9635280000511557,363.42425800010096,None,363.42425800010096,None,2022-11-30-08:14:41.641891,365.4186471001012,365.72305230004713,365.4186471001012,None,None,365.4186471001012,None,366.2242879900383,None,,,,21016,0001,2022_Nov_30_0808,localizer,2021.1.3,61.06351886261129,
block,faces,faces001.bmp,,,,,0,108,108,108,,,,,,,,,,,,,,,,,,,,,,,,,,,,,,,,,,,,,,,,,,None,,366.2242879900383,None,366.2242879900383,None,2022-11-30-08:14:42.460645,366.24229970003944,366.55649790004827,366.24229970003944,None,None,366.24229970003944,None,367.04098419009244,None,,,,21016,0001,2022_Nov_30_0808,localizer,2021.1.3,61.06351886261129,
block,faces,faces049.bmp,,,,,0,109,109,109,,,,,,,,,,,,,,,,,,,,,,,,,,,,,,,,,,,,,,,,,,None,,367.04098419009244,None,367.04098419009244,None,2022-11-30-08:14:43.277364,367.04399140004534,367.3564403000055,367.04399140004534,None,None,367.04399140004534,None,367.8565219900571,None,,,,21016,0001,2022_Nov_30_0808,localizer,2021.1.3,61.06351886261129,
block,faces,faces088.bmp,,,,,0,110,110,110,,,,,,,,,,,,,,,,,,,,,,,,,,,,,,,,,,,,,,,,,,None,,367.8565219900571,None,367.8565219900571,None,2022-11-30-08:14:44.090923,367.8574069000315,368.1730761000654,367.8574069000315,None,None,367.8574069000315,None,368.6627046900336,None,,,,21016,0001,2022_Nov_30_0808,localizer,2021.1.3,61.06351886261129,
block,faces,faces007.bmp,,,,,0,111,111,111,,,,,,,,,,,,,,,,,,,,,,,,,,,,,,,,,,,,,,,,,,None,,368.6627046900336,None,368.6627046900336,None,2022-11-30-08:14:44.897114,368.6728975001024,368.97322400007397,368.6728975001024,None,None,368.6728975001024,None,369.4731265900424,None,,,,21016,0001,2022_Nov_30_0808,localizer,2021.1.3,61.06351886261129,
block,faces,faces033.bmp,,,,,0,112,112,112,,,,,,,,,,,,,,,,,,,,,,,,,,,,,,,,,,,,,,,,,,None,,369.4731265900424,None,369.4731265900424,None,2022-11-30-08:14:45.707530,369.49098400003277,369.806522400002,369.49098400003277,None,None,369.49098400003277,None,370.29092799001376,None,,,,21016,0001,2022_Nov_30_0808,localizer,2021.1.3,61.06351886261129,
block,faces,faces028.bmp,,,,,0,113,113,113,,,,,,,,,,,,,,,,,,,,,,,,,,,,,,,,,,,,,,,,,,None,,370.29092799001376,None,370.29092799001376,None,2022-11-30-08:14:46.527221,370.29418080009054,370.6076374000404,370.29418080009054,None,None,370.29418080009054,None,371.1077618900687,None,,,,21016,0001,2022_Nov_30_0808,localizer,2021.1.3,61.06351886261129,
block,faces,faces053.bmp,,,,,0,114,114,114,,,,,,,,,,,,,,,,,,,,,,,,,,,,,,,,,,,,,,,,,,None,,371.1077618900687,None,371.1077618900687,None,2022-11-30-08:14:47.343328,371.12542390008457,371.422877300065,371.12542390008457,None,None,371.12542390008457,None,371.9230229900219,None,,,,21016,0001,2022_Nov_30_0808,localizer,2021.1.3,61.06351886261129,
block,faces,faces046.bmp,,,,,0,115,115,115,,,,,,,,,,,,,,,,,,,,,,,,,,,,,,,,,,,,,,,,,,None,,371.9230229900219,None,371.9230229900219,None,2022-11-30-08:14:48.157428,371.9341508001089,372.23925650003366,371.9341508001089,None,None,371.9341508001089,None,372.7401096900227,None,,,,21016,0001,2022_Nov_30_0808,localizer,2021.1.3,61.06351886261129,
block,faces,faces058.bmp,,,,,0,116,116,116,,,,,,,,,,,,,,,,,,,,,,,,,,,,,,,,,,,,,,,,,,None,,372.7401096900227,None,372.7401096900227,None,2022-11-30-08:14:48.974506,372.75171780004166,373.0574168000603,372.75171780004166,None,None,372.75171780004166,None,373.55673049008476,None,,,,21016,0001,2022_Nov_30_0808,localizer,2021.1.3,61.06351886261129,
block,faces,faces052.bmp,,,,,0,117,117,117,,,,,,,,,,,,,,,,,,,,,,,,,,,,,,,,,,,,,,,,,,None,,373.55673049008476,None,373.55673049008476,None,2022-11-30-08:14:49.792329,373.5696483000647,373.8732448000228,373.5696483000647,None,None,373.5696483000647,None,374.3730436900165,None,,,,21016,0001,2022_Nov_30_0808,localizer,2021.1.3,61.06351886261129,
block,faces,faces020.bmp,,,,,0,118,118,118,,,,,,,,,,,,,,,,,,,,,,,,,,,,,,,,,,,,,,,,,,None,,374.3730436900165,None,374.3730436900165,None,2022-11-30-08:14:50.607450,374.37414020008873,374.68974020006135,374.37414020008873,None,None,374.37414020008873,None,375.17342309004164,None,,,,21016,0001,2022_Nov_30_0808,localizer,2021.1.3,61.06351886261129,
block,faces,faces025.bmp,,,,,0,119,119,119,,,,,,,,,,,,,,,,,,,,,,,,,,,,,,,,,,,,,,,,,,None,,375.17342309004164,None,375.17342309004164,None,2022-11-30-08:14:51.409811,375.1869590000715,375.4898391000461,375.1869590000715,375.1869590000715,None,375.1869590000715,375.1869590000715,375.9900185900275,None,,,,21016,0001,2022_Nov_30_0808,localizer,2021.1.3,61.06351886261129,
block,faces,faces011.bmp,,,,,0,120,120,120,,,,,,,,,,,,,,,,,,,,,,,,,,,,,,,,,,,,,,,,,,None,,375.9900185900275,None,375.9900185900275,None,2022-11-30-08:14:52.224633,376.00101300003007,376.306445299997,376.00101300003007,None,None,376.00101300003007,None,376.80695299003276,None,,,,21016,0001,2022_Nov_30_0808,localizer,2021.1.3,61.06351886261129,
block_end,faces,faces042.bmp,,,,,0,121,121,121,,,,,,,,,,,,,,,,,,,,,,,,,,,,,,,,,,,,,,,,,,None,,376.80695299003276,None,376.80695299003276,None,2022-11-30-08:14:53.042464,376.8185433000326,377.12311590008903,376.8185433000326,None,None,376.8185433000326,None,377.62434499002995,None,,,,21016,0001,2022_Nov_30_0808,localizer,2021.1.3,61.06351886261129,
null_block,null_block,null_block.bmp,,,,,0,122,122,122,,,,,,,,,,,,,,,,,,,,,,,,,,,,,,,,,,,,,,,,,,t,1.7634930000640452,377.6242935000919,None,377.6242935000919,None,2022-11-30-08:14:55.640282,379.4066802900285,None,379.4066802900285,None,None,379.4066802900285,None,379.4106502000941,None,,,,21016,0001,2022_Nov_30_0808,localizer,2021.1.3,61.06351886261129,
block_start,scenes,scenes040.bmp,,,,,0,123,123,123,,,,,,,,,,,,,,,,,,,,,,,,,,,,,,,,,,,,,,,,,,t,1.9639828000217676,391.42382470006123,None,391.42382470006123,None,2022-11-30-08:15:09.643618,393.4195763000753,393.72339950001333,393.4195763000753,None,None,393.4195763000753,None,394.2237006901065,None,,,,21016,0001,2022_Nov_30_0808,localizer,2021.1.3,61.06351886261129,
block,scenes,scenes039.bmp,,,,,0,124,124,124,,,,,,,,,,,,,,,,,,,,,,,,,,,,,,,,,,,,,,,,,,None,,394.2237006901065,None,394.2237006901065,None,2022-11-30-08:15:10.459306,394.2358092000941,394.5400134000229,394.2358092000941,None,None,394.2358092000941,None,395.04012029003354,None,,,,21016,0001,2022_Nov_30_0808,localizer,2021.1.3,61.06351886261129,
block,scenes,scenes022.bmp,,,,,0,125,125,125,,,,,,,,,,,,,,,,,,,,,,,,,,,,,,,,,,,,,,,,,,None,,395.04012029003354,None,395.04012029003354,None,2022-11-30-08:15:11.274741,395.0408526000101,395.3399597000098,395.0408526000101,None,None,395.0408526000101,None,395.840098290029,None,,,,21016,0001,2022_Nov_30_0808,localizer,2021.1.3,61.06351886261129,
block,scenes,scenes044.bmp,,,,,0,126,126,126,,,,,,,,,,,,,,,,,,,,,,,,,,,,,,,,,,,,,,,,,,None,,395.840098290029,None,395.840098290029,None,2022-11-30-08:15:12.076694,395.84291060001124,396.1422974000452,395.84291060001124,395.84291060001124,None,395.84291060001124,395.84291060001124,396.65779519001956,None,,,,21016,0001,2022_Nov_30_0808,localizer,2021.1.3,61.06351886261129,
block,scenes,scenes091.bmp,,,,,0,127,127,127,,,,,,,,,,,,,,,,,,,,,,,,,,,,,,,,,,,,,,,,,,None,,396.65779519001956,None,396.65779519001956,None,2022-11-30-08:15:12.894191,396.6766651000362,396.99001770000905,396.6766651000362,None,None,396.6766651000362,None,397.47316629011186,None,,,,21016,0001,2022_Nov_30_0808,localizer,2021.1.3,61.06351886261129,
block,scenes,scenes049.bmp,,,,,0,128,128,128,,,,,,,,,,,,,,,,,,,,,,,,,,,,,,,,,,,,,,,,,,None,,397.47316629011186,None,397.47316629011186,None,2022-11-30-08:15:13.707574,397.47490990010556,397.79000080004334,397.47490990010556,None,None,397.47490990010556,None,398.290599290072,None,,,,21016,0001,2022_Nov_30_0808,localizer,2021.1.3,61.06351886261129,
block,scenes,scenes003.bmp,,,,,0,129,129,129,,,,,,,,,,,,,,,,,,,,,,,,,,,,,,,,,,,,,,,,,,None,,398.290599290072,None,398.290599290072,None,2022-11-30-08:15:14.525914,398.3040076000616,398.6065195000265,398.3040076000616,None,None,398.3040076000616,None,399.10684579007795,None,,,,21016,0001,2022_Nov_30_0808,localizer,2021.1.3,61.06351886261129,
block,scenes,scenes017.bmp,,,,,0,130,130,130,,,,,,,,,,,,,,,,,,,,,,,,,,,,,,,,,,,,,,,,,,None,,399.10684579007795,None,399.10684579007795,None,2022-11-30-08:15:15.341244,399.11692250007764,399.42334030009806,399.11692250007764,None,None,399.11692250007764,None,399.9242780900328,None,,,,21016,0001,2022_Nov_30_0808,localizer,2021.1.3,61.06351886261129,
block,scenes,scenes056.bmp,,,,,0,131,131,131,,,,,,,,,,,,,,,,,,,,,,,,,,,,,,,,,,,,,,,,,,None,,399.9242780900328,None,399.9242780900328,None,2022-11-30-08:15:16.159780,399.93743980000727,400.2398559000576,399.93743980000727,None,None,399.93743980000727,None,400.74046349003913,None,,,,21016,0001,2022_Nov_30_0808,localizer,2021.1.3,61.06351886261129,
block,scenes,scenes088.bmp,,,,,0,132,132,132,,,,,,,,,,,,,,,,,,,,,,,,,,,,,,,,,,,,,,,,,,None,,400.74046349003913,None,400.74046349003913,None,2022-11-30-08:15:16.975856,400.75254210003186,401.0568565001013,400.75254210003186,None,None,400.75254210003186,None,401.5568126900122,None,,,,21016,0001,2022_Nov_30_0808,localizer,2021.1.3,61.06351886261129,
block,scenes,scenes067.bmp,,,,,0,133,133,133,,,,,,,,,,,,,,,,,,,,,,,,,,,,,,,,,,,,,,,,,,None,,401.5568126900122,None,401.5568126900122,None,2022-11-30-08:15:17.791495,401.5681147000287,401.87343670008704,401.5681147000287,None,None,401.5681147000287,None,402.3734367900994,None,,,,21016,0001,2022_Nov_30_0808,localizer,2021.1.3,61.06351886261129,
block,scenes,scenes004.bmp,,,,,0,134,134,134,,,,,,,,,,,,,,,,,,,,,,,,,,,,,,,,,,,,,,,,,,None,,402.3734367900994,None,402.3734367900994,None,2022-11-30-08:15:18.607714,402.37424930010457,402.6736670000246,402.37424930010457,None,None,402.37424930010457,None,403.17531719002875,None,,,,21016,0001,2022_Nov_30_0808,localizer,2021.1.3,61.06351886261129,
block,scenes,scenes002.bmp,,,,,0,135,135,135,,,,,,,,,,,,,,,,,,,,,,,,,,,,,,,,,,,,,,,,,,None,,403.17531719002875,None,403.17531719002875,None,2022-11-30-08:15:19.414885,403.19497010007035,403.507244400098,403.19497010007035,403.19497010007035,None,403.19497010007035,403.19497010007035,403.99065339008814,None,,,,21016,0001,2022_Nov_30_0808,localizer,2021.1.3,61.06351886261129,
block,scenes,scenes080.bmp,,,,,0,136,136,136,,,,,,,,,,,,,,,,,,,,,,,,,,,,,,,,,,,,,,,,,,None,,403.99065339008814,None,403.99065339008814,None,2022-11-30-08:15:20.226238,404.00349840009585,404.3066631000256,404.00349840009585,None,None,404.00349840009585,None,404.80680809009357,None,,,,21016,0001,2022_Nov_30_0808,localizer,2021.1.3,61.06351886261129,
block_end,scenes,scenes034.bmp,,,,,0,137,137,137,,,,,,,,,,,,,,,,,,,,,,,,,,,,,,,,,,,,,,,,,,None,,404.80680809009357,None,404.80680809009357,None,2022-11-30-08:15:21.041246,404.8166238000849,405.1233046000125,404.8166238000849,None,None,404.8166238000849,None,405.62332149003635,None,,,,21016,0001,2022_Nov_30_0808,localizer,2021.1.3,61.06351886261129,
block_start,scrambled,scrambled038.bmp,,,,,0,138,138,138,,,,,,,,,,,,,,,,,,,,,,,,,,,,,,,,,,,,,,,,,,t,1.7643445000285283,405.62334920000285,None,405.62334920000285,None,2022-11-30-08:15:23.640505,407.4191253000172,407.72347040008754,407.4191253000172,None,None,407.4191253000172,None,408.2235557900509,None,,,,21016,0001,2022_Nov_30_0808,localizer,2021.1.3,61.06351886261129,
block,scrambled,scrambled024.bmp,,,,,0,139,139,139,,,,,,,,,,,,,,,,,,,,,,,,,,,,,,,,,,,,,,,,,,None,,408.2235557900509,None,408.2235557900509,None,2022-11-30-08:15:24.458575,408.2351846001111,408.54041730007157,408.2351846001111,None,None,408.2351846001111,None,409.039649290056,None,,,,21016,0001,2022_Nov_30_0808,localizer,2021.1.3,61.06351886261129,
block,scrambled,scrambled021.bmp,,,,,0,140,140,140,,,,,,,,,,,,,,,,,,,,,,,,,,,,,,,,,,,,,,,,,,None,,409.039649290056,None,409.039649290056,None,2022-11-30-08:15:25.274050,409.04948980000336,409.35668050008826,409.04948980000336,None,None,409.04948980000336,None,409.85700879003855,None,,,,21016,0001,2022_Nov_30_0808,localizer,2021.1.3,61.06351886261129,
block,scrambled,scrambled014.bmp,,,,,0,141,141,141,,,,,,,,,,,,,,,,,,,,,,,,,,,,,,,,,,,,,,,,,,None,,409.85700879003855,None,409.85700879003855,None,2022-11-30-08:15:26.092403,409.8656623000279,410.173570800107,409.8656623000279,None,None,409.8656623000279,None,410.6737480900716,None,,,,21016,0001,2022_Nov_30_0808,localizer,2021.1.3,61.06351886261129,
block,scrambled,scrambled066.bmp,,,,,0,142,142,142,,,,,,,,,,,,,,,,,,,,,,,,,,,,,,,,,,,,,,,,,,None,,410.6737480900716,None,410.6737480900716,None,2022-11-30-08:15:26.909142,410.6852028000867,410.9901239000028,410.6852028000867,None,None,410.6852028000867,None,411.49047459000724,None,,,,21016,0001,2022_Nov_30_0808,localizer,2021.1.3,61.06351886261129,
block,scrambled,scrambled011.bmp,,,,,0,143,143,143,,,,,,,,,,,,,,,,,,,,,,,,,,,,,,,,,,,,,,,,,,None,,411.49047459000724,None,411.49047459000724,None,2022-11-30-08:15:27.725870,411.50229940004647,411.8067288000602,411.50229940004647,None,None,411.50229940004647,None,412.3066949900473,None,,,,21016,0001,2022_Nov_30_0808,localizer,2021.1.3,61.06351886261129,
block,scrambled,scrambled070.bmp,,,,,0,144,144,144,,,,,,,,,,,,,,,,,,,,,,,,,,,,,,,,,,,,,,,,,,None,,412.3066949900473,None,412.3066949900473,None,2022-11-30-08:15:28.541295,412.31766040006187,412.6236425000243,412.31766040006187,None,y,412.31766040006187,None,413.1254726900021,None,0.2065615999745205,,,21016,0001,2022_Nov_30_0808,localizer,2021.1.3,61.06351886261129,
block,scrambled,scrambled013.bmp,,,,,0,145,145,145,,,,,,,,,,,,,,,,,,,,,,,,,,,,,,,,,,,,,,,,,,None,,413.1254726900021,None,413.1254726900021,None,2022-11-30-08:15:29.364861,413.1320143000921,413.44029180007055,413.1320143000921,None,None,413.1320143000921,None,413.94042009001134,None,,,,21016,0001,2022_Nov_30_0808,localizer,2021.1.3,61.06351886261129,
block,scrambled,scrambled086.bmp,,,,,0,146,146,146,,,,,,,,,,,,,,,,,,,,,,,,,,,,,,,,,,,,,,,,,,None,,413.94042009001134,None,413.94042009001134,None,2022-11-30-08:15:30.175939,413.9410573000787,414.24003040010575,413.9410573000787,None,None,413.9410573000787,None,414.74121139002966,None,,,,21016,0001,2022_Nov_30_0808,localizer,2021.1.3,61.06351886261129,
block,scrambled,scrambled048.bmp,,,,,0,147,147,147,,,,,,,,,,,,,,,,,,,,,,,,,,,,,,,,,,,,,,,,,,None,,414.74121139002966,None,414.74121139002966,None,2022-11-30-08:15:30.979785,414.7570384000428,415.0565555000212,414.7570384000428,414.7570384000428,None,414.7570384000428,414.7570384000428,415.55724279002754,None,,,,21016,0001,2022_Nov_30_0808,localizer,2021.1.3,61.06351886261129,
block,scrambled,scrambled006.bmp,,,,,0,148,148,148,,,,,,,,,,,,,,,,,,,,,,,,,,,,,,,,,,,,,,,,,,None,,415.55724279002754,None,415.55724279002754,None,2022-11-30-08:15:31.791770,415.56907340011094,415.8735517000314,415.56907340011094,None,None,415.56907340011094,None,416.373701690021,None,,,,21016,0001,2022_Nov_30_0808,localizer,2021.1.3,61.06351886261129,
block,scrambled,scrambled088.bmp,,,,,0,149,149,149,,,,,,,,,,,,,,,,,,,,,,,,,,,,,,,,,,,,,,,,,,None,,416.373701690021,None,416.373701690021,None,2022-11-30-08:15:32.609480,416.38554300006945,416.6900009000674,416.38554300006945,None,None,416.38554300006945,None,417.19056649007837,None,,,,21016,0001,2022_Nov_30_0808,localizer,2021.1.3,61.06351886261129,
block,scrambled,scrambled040.bmp,,,,,0,150,150,150,,,,,,,,,,,,,,,,,,,,,,,,,,,,,,,,,,,,,,,,,,None,,417.19056649007837,None,417.19056649007837,None,2022-11-30-08:15:33.425957,417.2022929000668,417.50695500010625,417.2022929000668,None,None,417.2022929000668,None,417.99665949007033,None,,,,21016,0001,2022_Nov_30_0808,localizer,2021.1.3,61.06351886261129,
block,scrambled,scrambled083.bmp,,,,,0,151,151,151,,,,,,,,,,,,,,,,,,,,,,,,,,,,,,,,,,,,,,,,,,None,,417.99665949007033,None,417.99665949007033,None,2022-11-30-08:15:34.238863,418.0059513000306,418.3067594000604,418.0059513000306,None,None,418.0059513000306,None,418.80805229002146,None,,,,21016,0001,2022_Nov_30_0808,localizer,2021.1.3,61.06351886261129,
block_end,scrambled,scrambled046.bmp,,,,,0,152,152,152,,,,,,,,,,,,,,,,,,,,,,,,,,,,,,,,,,,,,,,,,,None,,418.80805229002146,None,418.80805229002146,None,2022-11-30-08:15:35.044427,418.82373640011065,419.1282207000768,418.82373640011065,None,None,418.82373640011065,None,419.6256011900492,None,,,,21016,0001,2022_Nov_30_0808,localizer,2021.1.3,61.06351886261129,
block_start,objects,objects067.bmp,,,,,0,153,153,153,,,,,,,,,,,,,,,,,,,,,,,,,,,,,,,,,,,,,,,,,,t,1.7606225999770686,419.62702750007156,None,419.62702750007156,None,2022-11-30-08:15:37.642825,421.4226334000705,421.72421630006284,421.4226334000705,None,None,421.4226334000705,None,422.2247079900932,None,,,,21016,0001,2022_Nov_30_0808,localizer,2021.1.3,61.06351886261129,
block,objects,objects017.bmp,,,,,0,154,154,154,,,,,,,,,,,,,,,,,,,,,,,,,,,,,,,,,,,,,,,,,,None,,422.2247079900932,None,422.2247079900932,None,2022-11-30-08:15:38.461279,422.2279066001065,422.54038340004627,422.2279066001065,None,None,422.2279066001065,None,423.0402533901157,None,,,,21016,0001,2022_Nov_30_0808,localizer,2021.1.3,61.06351886261129,
block,objects,objects087.bmp,,,,,0,155,155,155,,,,,,,,,,,,,,,,,,,,,,,,,,,,,,,,,,,,,,,,,,None,,423.0402533901157,None,423.0402533901157,None,2022-11-30-08:15:39.274653,423.04105280002113,423.3408492000308,423.04105280002113,None,None,423.04105280002113,None,423.8405253900215,None,,,,21016,0001,2022_Nov_30_0808,localizer,2021.1.3,61.06351886261129,
block,objects,objects069.bmp,,,,,0,156,156,156,,,,,,,,,,,,,,,,,,,,,,,,,,,,,,,,,,,,,,,,,,None,,423.8405253900215,None,423.8405253900215,None,2022-11-30-08:15:40.078109,423.8557692000177,424.15884030004963,423.8557692000177,423.8557692000177,None,423.8557692000177,423.8557692000177,424.65742649000606,None,,,,21016,0001,2022_Nov_30_0808,localizer,2021.1.3,61.06351886261129,
block,objects,objects011.bmp,,,,,0,157,157,157,,,,,,,,,,,,,,,,,,,,,,,,,,,,,,,,,,,,,,,,,,None,,424.65742649000606,None,424.65742649000606,None,2022-11-30-08:15:40.892816,424.6693371000001,424.97389600006863,424.6693371000001,None,None,424.6693371000001,None,425.4737783901161,None,,,,21016,0001,2022_Nov_30_0808,localizer,2021.1.3,61.06351886261129,
block,objects,objects023.bmp,,,,,0,158,158,158,,,,,,,,,,,,,,,,,,,,,,,,,,,,,,,,,,,,,,,,,,None,,425.4737783901161,None,425.4737783901161,None,2022-11-30-08:15:41.709219,425.48558650002815,425.7900314000435,425.48558650002815,None,None,425.48558650002815,None,426.2913391900016,None,,,,21016,0001,2022_Nov_30_0808,localizer,2021.1.3,61.06351886261129,
block,objects,objects020.bmp,,,,,0,159,159,159,,,,,,,,,,,,,,,,,,,,,,,,,,,,,,,,,,,,,,,,,,None,,426.2913391900016,None,426.2913391900016,None,2022-11-30-08:15:42.528716,426.29429230000824,426.60712240007706,426.29429230000824,None,None,426.29429230000824,None,427.1072626901092,None,,,,21016,0001,2022_Nov_30_0808,localizer,2021.1.3,61.06351886261129,
block,objects,objects030.bmp,,,,,0,160,160,160,,,,,,,,,,,,,,,,,,,,,,,,,,,,,,,,,,,,,,,,,,None,,427.1072626901092,None,427.1072626901092,None,2022-11-30-08:15:43.342656,427.1078322000103,427.40683670004364,427.1078322000103,None,None,427.1078322000103,None,427.92342799007895,None,,,,21016,0001,2022_Nov_30_0808,localizer,2021.1.3,61.06351886261129,
block,objects,objects034.bmp,,,,,0,161,161,161,,,,,,,,,,,,,,,,,,,,,,,,,,,,,,,,,,,,,,,,,,None,,427.92342799007895,None,427.92342799007895,None,2022-11-30-08:15:44.158070,427.9243264000397,428.22379270009696,427.9243264000397,None,None,427.9243264000397,None,428.72369179003874,None,,,,21016,0001,2022_Nov_30_0808,localizer,2021.1.3,61.06351886261129,
block,objects,objects047.bmp,,,,,0,162,162,162,,,,,,,,,,,,,,,,,,,,,,,,,,,,,,,,,,,,,,,,,,None,,428.72369179003874,None,428.72369179003874,None,2022-11-30-08:15:44.959505,428.7352632000111,429.0401365000289,428.7352632000111,428.7352632000111,None,428.7352632000111,428.7352632000111,429.5404764900683,None,,,,21016,0001,2022_Nov_30_0808,localizer,2021.1.3,61.06351886261129,
block,objects,objects046.bmp,,,,,0,163,163,163,,,,,,,,,,,,,,,,,,,,,,,,,,,,,,,,,,,,,,,,,,None,,429.5404764900683,None,429.5404764900683,None,2022-11-30-08:15:45.774877,429.55096950009465,429.85691650002263,429.55096950009465,None,None,429.55096950009465,None,430.3580781900324,None,,,,21016,0001,2022_Nov_30_0808,localizer,2021.1.3,61.06351886261129,
block,objects,objects041.bmp,,,,,0,164,164,164,,,,,,,,,,,,,,,,,,,,,,,,,,,,,,,,,,,,,,,,,,None,,430.3580781900324,None,430.3580781900324,None,2022-11-30-08:15:46.593643,430.36026720004156,430.6736990000354,430.36026720004156,None,None,430.36026720004156,None,431.17386989006775,None,,,,21016,0001,2022_Nov_30_0808,localizer,2021.1.3,61.06351886261129,
block,objects,objects060.bmp,,,,,0,165,165,165,,,,,,,,,,,,,,,,,,,,,,,,,,,,,,,,,,,,,,,,,,None,,431.17386989006775,None,431.17386989006775,None,2022-11-30-08:15:47.409303,431.1815206001047,431.4904280001065,431.1815206001047,None,None,431.1815206001047,None,431.99049219002484,None,,,,21016,0001,2022_Nov_30_0808,localizer,2021.1.3,61.06351886261129,
block,objects,objects059.bmp,,,,,0,166,166,166,,,,,,,,,,,,,,,,,,,,,,,,,,,,,,,,,,,,,,,,,,None,,431.99049219002484,None,431.99049219002484,None,2022-11-30-08:15:48.226052,432.0023744000355,432.30742780002765,432.0023744000355,None,None,432.0023744000355,None,432.80766139007176,None,,,,21016,0001,2022_Nov_30_0808,localizer,2021.1.3,61.06351886261129,
block_end,objects,objects013.bmp,,,,,0,167,167,167,,,,,,,,,,,,,,,,,,,,,,,,,,,,,,,,,,,,,,,,,,None,,432.80766139007176,None,432.80766139007176,None,2022-11-30-08:15:49.043242,432.8192157000303,433.12349490006454,432.8192157000303,None,None,432.8192157000303,None,433.61321429002567,None,,,,21016,0001,2022_Nov_30_0808,localizer,2021.1.3,61.06351886261129,
block_start,faces,faces073.bmp,,,,,0,168,168,168,,,,,,,,,,,,,,,,,,,,,,,,,,,,,,,,,,,,,,,,,,t,1.7810025999788195,433.60669990000315,None,433.60669990000315,None,2022-11-30-08:15:51.643111,435.42015180003364,435.7235919000814,435.42015180003364,None,None,435.42015180003364,None,436.2240594900446,None,,,,21016,0001,2022_Nov_30_0808,localizer,2021.1.3,61.06351886261129,
block,faces,faces009.bmp,,,,,0,169,169,169,,,,,,,,,,,,,,,,,,,,,,,,,,,,,,,,,,,,,,,,,,None,,436.2240594900446,None,436.2240594900446,None,2022-11-30-08:15:52.459637,436.2324724000646,436.5467733000405,436.2324724000646,None,None,436.2324724000646,None,437.0413585900329,None,,,,21016,0001,2022_Nov_30_0808,localizer,2021.1.3,61.06351886261129,
block,faces,faces009.bmp,,,,,0,170,170,170,,,,,,,,,,,,,,,,,,,,,,,,,,,,,,,,,,,,,,,,,,None,,437.0413585900329,None,437.0413585900329,None,2022-11-30-08:15:53.276920,437.0436021001078,437.357236300013,437.0436021001078,None,None,437.0436021001078,None,437.85722429004966,None,,,,21016,0001,2022_Nov_30_0808,localizer,2021.1.3,61.06351886261129,
block,faces,faces054.bmp,,,,,0,171,171,171,,,,,,,,,,,,,,,,,,,,,,,,,,,,,,,,,,,,,,,,,,None,,437.85722429004966,None,437.85722429004966,None,2022-11-30-08:15:54.092726,437.8693900000071,438.17342670005746,437.8693900000071,None,None,437.8693900000071,None,438.6739952900913,None,,,,21016,0001,2022_Nov_30_0808,localizer,2021.1.3,61.06351886261129,
block,faces,faces010.bmp,,,,,0,172,172,172,,,,,,,,,,,,,,,,,,,,,,,,,,,,,,,,,,,,,,,,,,None,,438.6739952900913,None,438.6739952900913,None,2022-11-30-08:15:54.908603,438.6743503001053,438.9736893000081,438.6743503001053,None,None,438.6743503001053,None,439.47481359008236,None,,,,21016,0001,2022_Nov_30_0808,localizer,2021.1.3,61.06351886261129,
block,faces,faces016.bmp,,,,,0,173,173,173,,,,,,,,,,,,,,,,,,,,,,,,,,,,,,,,,,,,,,,,,,None,,439.47481359008236,None,439.47481359008236,None,2022-11-30-08:15:55.713379,439.4940710000228,439.80750720005017,439.4940710000228,439.4940710000228,None,439.4940710000228,439.4940710000228,440.29138909003234,None,,,,21016,0001,2022_Nov_30_0808,localizer,2021.1.3,61.06351886261129,
block,faces,faces058.bmp,,,,,0,174,174,174,,,,,,,,,,,,,,,,,,,,,,,,,,,,,,,,,,,,,,,,,,None,,440.29138909003234,None,440.29138909003234,None,2022-11-30-08:15:56.528381,440.3007083000848,440.60717160010245,440.3007083000848,None,None,440.3007083000848,None,441.1071221900871,None,,,,21016,0001,2022_Nov_30_0808,localizer,2021.1.3,61.06351886261129,
block,faces,faces051.bmp,,,,,0,175,175,175,,,,,,,,,,,,,,,,,,,,,,,,,,,,,,,,,,,,,,,,,,None,,441.1071221900871,None,441.1071221900871,None,2022-11-30-08:15:57.342716,441.1198126000818,441.4235074000899,441.1198126000818,None,None,441.1198126000818,None,441.9240541900741,None,,,,21016,0001,2022_Nov_30_0808,localizer,2021.1.3,61.06351886261129,
block,faces,faces084.bmp,,,,,0,176,176,176,,,,,,,,,,,,,,,,,,,,,,,,,,,,,,,,,,,,,,,,,,None,,441.9240541900741,None,441.9240541900741,None,2022-11-30-08:15:58.159449,441.93645590008236,442.2401128000347,441.93645590008236,None,None,441.93645590008236,None,442.7413701900747,None,,,,21016,0001,2022_Nov_30_0808,localizer,2021.1.3,61.06351886261129,
block,faces,faces075.bmp,,,,,0,177,177,177,,,,,,,,,,,,,,,,,,,,,,,,,,,,,,,,,,,,,,,,,,None,,442.7413701900747,None,442.7413701900747,None,2022-11-30-08:15:58.978775,442.7444993000245,443.0576098000165,442.7444993000245,None,None,442.7444993000245,None,443.557502890029,None,,,,21016,0001,2022_Nov_30_0808,localizer,2021.1.3,61.06351886261129,
block,faces,faces036.bmp,,,,,0,178,178,178,,,,,,,,,,,,,,,,,,,,,,,,,,,,,,,,,,,,,,,,,,None,,443.557502890029,None,443.557502890029,None,2022-11-30-08:15:59.793036,443.5688596999971,443.8733124000719,443.5688596999971,None,None,443.5688596999971,None,444.37341849007646,None,,,,21016,0001,2022_Nov_30_0808,localizer,2021.1.3,61.06351886261129,
block,faces,faces012.bmp,,,,,0,179,179,179,,,,,,,,,,,,,,,,,,,,,,,,,,,,,,,,,,,,,,,,,,None,,444.37341849007646,None,444.37341849007646,None,2022-11-30-08:16:00.607828,444.3827393000247,444.69055030005984,444.3827393000247,None,None,444.3827393000247,None,445.19061539010147,None,,,,21016,0001,2022_Nov_30_0808,localizer,2021.1.3,61.06351886261129,
block,faces,faces022.bmp,,,,,0,180,180,180,,,,,,,,,,,,,,,,,,,,,,,,,,,,,,,,,,,,,,,,,,None,,445.19061539010147,None,445.19061539010147,None,2022-11-30-08:16:01.425225,445.2024935000809,445.5068930000998,445.2024935000809,None,None,445.2024935000809,None,446.0071704900125,None,,,,21016,0001,2022_Nov_30_0808,localizer,2021.1.3,61.06351886261129,
block,faces,faces047.bmp,,,,,0,181,181,181,,,,,,,,,,,,,,,,,,,,,,,,,,,,,,,,,,,,,,,,,,None,,446.0071704900125,None,446.0071704900125,None,2022-11-30-08:16:02.241571,446.0229910000926,446.3237681000028,446.0229910000926,None,None,446.0229910000926,None,446.8238939900417,None,,,,21016,0001,2022_Nov_30_0808,localizer,2021.1.3,61.06351886261129,
block_end,faces,faces005.bmp,,,,,0,182,182,182,,,,,,,,,,,,,,,,,,,,,,,,,,,,,,,,,,,,,,,,,,None,,446.8238939900417,None,446.8238939900417,None,2022-11-30-08:16:03.059289,446.835423200042,447.1400214000605,446.835423200042,None,None,446.835423200042,None,447.64103619011587,None,,,,21016,0001,2022_Nov_30_0808,localizer,2021.1.3,61.06351886261129,
block_start,faces,faces003.bmp,,,,,0,183,183,183,,,,,,,,,,,,,,,,,,,,,,,,,,,,,,,,,,,,,,,,,,t,1.746932299924083,447.64075500005856,None,447.64075500005856,None,2022-11-30-08:16:05.643226,449.416738800006,449.7236193000572,449.416738800006,None,None,449.416738800006,None,450.2238431900274,None,,,,21016,0001,2022_Nov_30_0808,localizer,2021.1.3,61.06351886261129,
block,faces,faces055.bmp,,,,,0,184,184,184,,,,,,,,,,,,,,,,,,,,,,,,,,,,,,,,,,,,,,,,,,None,,450.2238431900274,None,450.2238431900274,None,2022-11-30-08:16:06.458451,450.2346215000143,450.54035370005295,450.2346215000143,None,None,450.2346215000143,None,451.04043819000947,None,,,,21016,0001,2022_Nov_30_0808,localizer,2021.1.3,61.06351886261129,
block,faces,faces011.bmp,,,,,0,185,185,185,,,,,,,,,,,,,,,,,,,,,,,,,,,,,,,,,,,,,,,,,,None,,451.04043819000947,None,451.04043819000947,None,2022-11-30-08:16:07.274837,451.0413131000241,451.3407847000053,451.0413131000241,None,None,451.0413131000241,None,451.8411859900458,None,,,,21016,0001,2022_Nov_30_0808,localizer,2021.1.3,61.06351886261129,
block,faces,faces043.bmp,,,,,0,186,186,186,,,,,,,,,,,,,,,,,,,,,,,,,,,,,,,,,,,,,,,,,,None,,451.8411859900458,None,451.8411859900458,None,2022-11-30-08:16:08.079567,451.8589624000015,452.17349730001297,451.8589624000015,451.8589624000015,None,451.8589624000015,451.8589624000015,452.6571101900423,None,,,,21016,0001,2022_Nov_30_0808,localizer,2021.1.3,61.06351886261129,
block,faces,faces024.bmp,,,,,0,187,187,187,,,,,,,,,,,,,,,,,,,,,,,,,,,,,,,,,,,,,,,,,,None,,452.6571101900423,None,452.6571101900423,None,2022-11-30-08:16:08.892137,452.6701690000482,452.9739093000535,452.6701690000482,None,None,452.6701690000482,None,453.473445890029,None,,,,21016,0001,2022_Nov_30_0808,localizer,2021.1.3,61.06351886261129,
block,faces,faces082.bmp,,,,,0,188,188,188,,,,,,,,,,,,,,,,,,,,,,,,,,,,,,,,,,,,,,,,,,None,,453.473445890029,None,453.473445890029,None,2022-11-30-08:16:09.708108,453.4806326000253,453.79135010007303,453.4806326000253,None,None,453.4806326000253,None,454.2914579900913,None,,,,21016,0001,2022_Nov_30_0808,localizer,2021.1.3,61.06351886261129,
block,faces,faces077.bmp,,,,,0,189,189,189,,,,,,,,,,,,,,,,,,,,,,,,,,,,,,,,,,,,,,,,,,None,,454.2914579900913,None,454.2914579900913,None,2022-11-30-08:16:10.527020,454.30853700009175,454.62389620009344,454.30853700009175,None,None,454.30853700009175,None,455.1071046900703,None,,,,21016,0001,2022_Nov_30_0808,localizer,2021.1.3,61.06351886261129,
block,faces,faces080.bmp,,,,,0,190,190,190,,,,,,,,,,,,,,,,,,,,,,,,,,,,,,,,,,,,,,,,,,None,,455.1071046900703,None,455.1071046900703,None,2022-11-30-08:16:11.341268,455.1198253000621,455.4254416000331,455.1198253000621,None,None,455.1198253000621,None,455.9249432900921,None,,,,21016,0001,2022_Nov_30_0808,localizer,2021.1.3,61.06351886261129,
block,faces,faces037.bmp,,,,,0,191,191,191,,,,,,,,,,,,,,,,,,,,,,,,,,,,,,,,,,,,,,,,,,None,,455.9249432900921,None,455.9249432900921,None,2022-11-30-08:16:12.161515,455.9385820000898,456.24026109999977,455.9385820000898,None,None,455.9385820000898,None,456.74062699000353,None,,,,21016,0001,2022_Nov_30_0808,localizer,2021.1.3,61.06351886261129,
block,faces,faces066.bmp,,,,,0,192,192,192,,,,,,,,,,,,,,,,,,,,,,,,,,,,,,,,,,,,,,,,,,None,,456.74062699000353,None,456.74062699000353,None,2022-11-30-08:16:12.975236,456.741292300052,457.0404778000666,456.741292300052,None,None,456.741292300052,None,457.540509790089,None,,,,21016,0001,2022_Nov_30_0808,localizer,2021.1.3,61.06351886261129,
block,faces,faces009.bmp,,,,,0,193,193,193,,,,,,,,,,,,,,,,,,,,,,,,,,,,,,,,,,,,,,,,,,None,,457.540509790089,None,457.540509790089,None,2022-11-30-08:16:13.776227,457.5424143000273,457.8570191001054,457.5424143000273,457.5424143000273,None,457.5424143000273,457.5424143000273,458.3571910900297,None,,,,21016,0001,2022_Nov_30_0808,localizer,2021.1.3,61.06351886261129,
block,faces,faces070.bmp,,,,,0,194,194,194,,,,,,,,,,,,,,,,,,,,,,,,,,,,,,,,,,,,,,,,,,None,,458.3571910900297,None,458.3571910900297,None,2022-11-30-08:16:14.592794,458.36995570000727,458.67369470000267,458.36995570000727,None,None,458.36995570000727,None,459.17397339004094,None,,,,21016,0001,2022_Nov_30_0808,localizer,2021.1.3,61.06351886261129,
block,faces,faces074.bmp,,,,,0,195,195,195,,,,,,,,,,,,,,,,,,,,,,,,,,,,,,,,,,,,,,,,,,None,,459.17397339004094,None,459.17397339004094,None,2022-11-30-08:16:15.408369,459.18607560009696,459.49011160002556,459.18607560009696,None,None,459.18607560009696,None,459.9909819900291,None,,,,21016,0001,2022_Nov_30_0808,localizer,2021.1.3,61.06351886261129,
block,faces,faces083.bmp,,,,,0,196,196,196,,,,,,,,,,,,,,,,,,,,,,,,,,,,,,,,,,,,,,,,,,None,,459.9909819900291,None,459.9909819900291,None,2022-11-30-08:16:16.226570,459.99187590007205,460.3072518000845,459.99187590007205,None,None,459.99187590007205,None,460.80751159009526,None,,,,21016,0001,2022_Nov_30_0808,localizer,2021.1.3,61.06351886261129,
block_end,faces,faces027.bmp,,,,,0,197,197,197,,,,,,,,,,,,,,,,,,,,,,,,,,,,,,,,,,,,,,,,,,None,,460.80751159009526,None,460.80751159009526,None,2022-11-30-08:16:17.042902,460.8204212000128,461.12380640010815,460.8204212000128,None,None,460.8204212000128,None,461.62374809002506,None,,,,21016,0001,2022_Nov_30_0808,localizer,2021.1.3,61.06351886261129,
block_start,scrambled,scrambled009.bmp,,,,,0,198,198,198,,,,,,,,,,,,,,,,,,,,,,,,,,,,,,,,,,,,,,,,,,t,1.7638928999658674,461.62376940005925,None,461.62376940005925,None,2022-11-30-08:16:19.641387,463.40809330006596,463.70751310000196,463.40809330006596,None,None,463.40809330006596,None,464.2082567900885,None,,,,21016,0001,2022_Nov_30_0808,localizer,2021.1.3,61.06351886261129,
block,scrambled,scrambled011.bmp,,,,,0,199,199,199,,,,,,,,,,,,,,,,,,,,,,,,,,,,,,,,,,,,,,,,,,None,,464.2082567900885,None,464.2082567900885,None,2022-11-30-08:16:20.446824,464.2124128000578,464.5234861000208,464.2124128000578,464.2124128000578,None,464.2124128000578,464.2124128000578,465.0242650900269,None,,,,21016,0001,2022_Nov_30_0808,localizer,2021.1.3,61.06351886261129,
block,scrambled,scrambled019.bmp,,,,,0,200,200,200,,,,,,,,,,,,,,,,,,,,,,,,,,,,,,,,,,,,,,,,,,None,,465.0242650900269,None,465.0242650900269,None,2022-11-30-08:16:21.258662,465.0372621000279,465.3404036000138,465.0372621000279,None,None,465.0372621000279,None,465.84028859008106,None,,,,21016,0001,2022_Nov_30_0808,localizer,2021.1.3,61.06351886261129,
block,scrambled,scrambled079.bmp,,,,,0,201,201,201,,,,,,,,,,,,,,,,,,,,,,,,,,,,,,,,,,,,,,,,,,None,,465.84028859008106,None,465.84028859008106,None,2022-11-30-08:16:22.074907,465.85180870001204,466.1604328000685,465.85180870001204,None,None,465.85180870001204,None,466.6574506900739,None,,,,21016,0001,2022_Nov_30_0808,localizer,2021.1.3,61.06351886261129,
block,scrambled,scrambled046.bmp,,,,,0,202,202,202,,,,,,,,,,,,,,,,,,,,,,,,,,,,,,,,,,,,,,,,,,None,,466.6574506900739,None,466.6574506900739,None,2022-11-30-08:16:22.891850,466.6581222000532,466.9576768000843,466.6581222000532,None,None,466.6581222000532,None,467.47381359003487,None,,,,21016,0001,2022_Nov_30_0808,localizer,2021.1.3,61.06351886261129,
block,scrambled,scrambled069.bmp,,,,,0,203,203,203,,,,,,,,,,,,,,,,,,,,,,,,,,,,,,,,,,,,,,,,,,None,,467.47381359003487,None,467.47381359003487,None,2022-11-30-08:16:23.708218,467.48377340007573,467.7903743000934,467.48377340007573,None,None,467.48377340007573,None,468.290946990042,None,,,,21016,0001,2022_Nov_30_0808,localizer,2021.1.3,61.06351886261129,
block,scrambled,scrambled006.bmp,,,,,0,204,204,204,,,,,,,,,,,,,,,,,,,,,,,,,,,,,,,,,,,,,,,,,,None,,468.290946990042,None,468.290946990042,None,2022-11-30-08:16:24.527199,468.293809600058,468.607775600045,468.293809600058,None,None,468.293809600058,None,469.10768689007966,None,,,,21016,0001,2022_Nov_30_0808,localizer,2021.1.3,61.06351886261129,
block,scrambled,scrambled025.bmp,,,,,0,205,205,205,,,,,,,,,,,,,,,,,,,,,,,,,,,,,,,,,,,,,,,,,,None,,469.10768689007966,None,469.10768689007966,None,2022-11-30-08:16:25.344073,469.120470300084,469.42375450010877,469.120470300084,None,None,469.120470300084,None,469.9250133900438,None,,,,21016,0001,2022_Nov_30_0808,localizer,2021.1.3,61.06351886261129,
block,scrambled,scrambled057.bmp,,,,,0,206,206,206,,,,,,,,,,,,,,,,,,,,,,,,,,,,,,,,,,,,,,,,,,None,,469.9250133900438,None,469.9250133900438,None,2022-11-30-08:16:26.161475,469.9417413000483,470.24158950010315,469.9417413000483,None,None,469.9417413000483,None,470.74170869009106,None,,,,21016,0001,2022_Nov_30_0808,localizer,2021.1.3,61.06351886261129,
block,scrambled,scrambled068.bmp,,,,,0,207,207,207,,,,,,,,,,,,,,,,,,,,,,,,,,,,,,,,,,,,,,,,,,None,,470.74170869009106,None,470.74170869009106,None,2022-11-30-08:16:26.977648,470.7509690000443,471.05781830009073,470.7509690000443,None,None,470.7509690000443,None,471.5566923900275,None,,,,21016,0001,2022_Nov_30_0808,localizer,2021.1.3,61.06351886261129,
block,scrambled,scrambled068.bmp,,,,,0,208,208,208,,,,,,,,,,,,,,,,,,,,,,,,,,,,,,,,,,,,,,,,,,None,,471.5566923900275,None,471.5566923900275,None,2022-11-30-08:16:27.791343,471.55788990005385,471.85718890000135,471.55788990005385,None,y,471.55788990005385,None,472.35699689006435,None,0.7616850000340492,,,21016,0001,2022_Nov_30_0808,localizer,2021.1.3,61.06351886261129,
block,scrambled,scrambled023.bmp,,,,,0,209,209,209,,,,,,,,,,,,,,,,,,,,,,,,,,,,,,,,,,,,,,,,,,None,,472.35699689006435,None,472.35699689006435,None,2022-11-30-08:16:28.593400,472.35832700005267,472.6738382000476,472.35832700005267,472.35832700005267,None,472.35832700005267,472.35832700005267,473.1738836900564,None,,,,21016,0001,2022_Nov_30_0808,localizer,2021.1.3,61.06351886261129,
block,scrambled,scrambled022.bmp,,,,,0,210,210,210,,,,,,,,,,,,,,,,,,,,,,,,,,,,,,,,,,,,,,,,,,None,,473.1738836900564,None,473.1738836900564,None,2022-11-30-08:16:29.408283,473.1848369000945,473.49059910001233,473.1848369000945,None,None,473.1848369000945,None,473.9908485900611,None,,,,21016,0001,2022_Nov_30_0808,localizer,2021.1.3,61.06351886261129,
block,scrambled,scrambled030.bmp,,,,,0,211,211,211,,,,,,,,,,,,,,,,,,,,,,,,,,,,,,,,,,,,,,,,,,None,,473.9908485900611,None,473.9908485900611,None,2022-11-30-08:16:30.225245,473.99154010007624,474.2911007000366,473.99154010007624,None,None,473.99154010007624,None,474.7913739900338,None,,,,21016,0001,2022_Nov_30_0808,localizer,2021.1.3,61.06351886261129,
block_end,scrambled,scrambled040.bmp,,,,,0,212,212,212,,,,,,,,,,,,,,,,,,,,,,,,,,,,,,,,,,,,,,,,,,None,,474.7913739900338,None,474.7913739900338,None,2022-11-30-08:16:31.028966,474.7945307000773,475.1077396000037,474.7945307000773,474.7945307000773,None,474.7945307000773,474.7945307000773,475.6078052900499,None,,,,21016,0001,2022_Nov_30_0808,localizer,2021.1.3,61.06351886261129,
null_block,null_block,null_block.bmp,,,,,0,213,213,213,,,,,,,,,,,,,,,,,,,,,,,,,,,,,,,,,,,,,,,,,,t,1.7799126000609249,475.60774180002045,None,475.60774180002045,None,2022-11-30-08:16:33.641088,477.4076558900066,None,477.4076558900066,None,None,477.4076558900066,None,477.41034660011064,None,,,,21016,0001,2022_Nov_30_0808,localizer,2021.1.3,61.06351886261129,
block_start,scenes,scenes078.bmp,,,,,0,214,214,214,,,,,,,,,,,,,,,,,,,,,,,,,,,,,,,,,,,,,,,,,,t,1.9631881000241265,489.42364100005943,None,489.42364100005943,None,2022-11-30-08:16:47.645258,491.42272220004816,491.72462090000045,491.42272220004816,None,None,491.42272220004816,None,492.2238926900551,None,,,,21016,0001,2022_Nov_30_0808,localizer,2021.1.3,61.06351886261129,
block,scenes,scenes029.bmp,,,,,0,215,215,215,,,,,,,,,,,,,,,,,,,,,,,,,,,,,,,,,,,,,,,,,,None,,492.2238926900551,None,492.2238926900551,None,2022-11-30-08:16:48.458295,492.2343300000066,492.5405683000572,492.2343300000066,None,None,492.2343300000066,None,493.04071659003387,None,,,,21016,0001,2022_Nov_30_0808,localizer,2021.1.3,61.06351886261129,
block,scenes,scenes034.bmp,,,,,0,216,216,216,,,,,,,,,,,,,,,,,,,,,,,,,,,,,,,,,,,,,,,,,,None,,493.04071659003387,None,493.04071659003387,None,2022-11-30-08:16:49.275116,493.041605800041,493.34081310010515,493.041605800041,None,None,493.041605800041,None,493.857676690002,None,,,,21016,0001,2022_Nov_30_0808,localizer,2021.1.3,61.06351886261129,
block,scenes,scenes063.bmp,,,,,0,217,217,217,,,,,,,,,,,,,,,,,,,,,,,,,,,,,,,,,,,,,,,,,,None,,493.857676690002,None,493.857676690002,None,2022-11-30-08:16:50.092649,493.865088700084,494.17452140001114,493.865088700084,None,None,493.865088700084,None,494.67514639000876,None,,,,21016,0001,2022_Nov_30_0808,localizer,2021.1.3,61.06351886261129,
block,scenes,scenes038.bmp,,,,,0,218,218,218,,,,,,,,,,,,,,,,,,,,,,,,,,,,,,,,,,,,,,,,,,None,,494.67514639000876,None,494.67514639000876,None,2022-11-30-08:16:50.911694,494.6915873000398,495.007123800111,494.6915873000398,None,None,494.6915873000398,None,495.4905680900207,None,,,,21016,0001,2022_Nov_30_0808,localizer,2021.1.3,61.06351886261129,
block,scenes,scenes066.bmp,,,,,0,219,219,219,,,,,,,,,,,,,,,,,,,,,,,,,,,,,,,,,,,,,,,,,,None,,495.4905680900207,None,495.4905680900207,None,2022-11-30-08:16:51.725256,495.4912051000865,495.7926585000241,495.4912051000865,None,None,495.4912051000865,None,496.29059449003546,None,,,,21016,0001,2022_Nov_30_0808,localizer,2021.1.3,61.06351886261129,
block,scenes,scenes077.bmp,,,,,0,220,220,220,,,,,,,,,,,,,,,,,,,,,,,,,,,,,,,,,,,,,,,,,,None,,496.29059449003546,None,496.29059449003546,None,2022-11-30-08:16:52.525995,496.30173840001225,496.6074278000742,496.30173840001225,496.30173840001225,None,496.30173840001225,496.30173840001225,497.1072823900264,None,,,,21016,0001,2022_Nov_30_0808,localizer,2021.1.3,61.06351886261129,
block,scenes,scenes015.bmp,,,,,0,221,221,221,,,,,,,,,,,,,,,,,,,,,,,,,,,,,,,,,,,,,,,,,,None,,497.1072823900264,None,497.1072823900264,None,2022-11-30-08:16:53.341888,497.1154910000041,497.4242069000611,497.1154910000041,None,None,497.1154910000041,None,497.92409839006143,None,,,,21016,0001,2022_Nov_30_0808,localizer,2021.1.3,61.06351886261129,
block,scenes,scenes030.bmp,,,,,0,222,222,222,,,,,,,,,,,,,,,,,,,,,,,,,,,,,,,,,,,,,,,,,,None,,497.92409839006143,None,497.92409839006143,None,2022-11-30-08:16:54.158917,497.931449900032,498.2406202000566,497.931449900032,None,None,497.931449900032,None,498.7417470900342,None,,,,21016,0001,2022_Nov_30_0808,localizer,2021.1.3,61.06351886261129,
block,scenes,scenes014.bmp,,,,,0,223,223,223,,,,,,,,,,,,,,,,,,,,,,,,,,,,,,,,,,,,,,,,,,None,,498.7417470900342,None,498.7417470900342,None,2022-11-30-08:16:54.978223,498.74482720007654,499.05726380005945,498.74482720007654,None,None,498.74482720007654,None,499.55757599000356,None,,,,21016,0001,2022_Nov_30_0808,localizer,2021.1.3,61.06351886261129,
block,scenes,scenes028.bmp,,,,,0,224,224,224,,,,,,,,,,,,,,,,,,,,,,,,,,,,,,,,,,,,,,,,,,None,,499.55757599000356,None,499.55757599000356,None,2022-11-30-08:16:55.792202,499.56948290008586,499.87444160005543,499.56948290008586,None,None,499.56948290008586,None,500.3742594900774,None,,,,21016,0001,2022_Nov_30_0808,localizer,2021.1.3,61.06351886261129,
block,scenes,scenes011.bmp,,,,,0,225,225,225,,,,,,,,,,,,,,,,,,,,,,,,,,,,,,,,,,,,,,,,,,None,,500.3742594900774,None,500.3742594900774,None,2022-11-30-08:16:56.608805,500.3861058000475,500.69086100009736,500.3861058000475,None,None,500.3861058000475,None,501.19071709006096,None,,,,21016,0001,2022_Nov_30_0808,localizer,2021.1.3,61.06351886261129,
block,scenes,scenes092.bmp,,,,,0,226,226,226,,,,,,,,,,,,,,,,,,,,,,,,,,,,,,,,,,,,,,,,,,None,,501.19071709006096,None,501.19071709006096,None,2022-11-30-08:16:57.425348,501.201673100004,501.50757800007705,501.201673100004,None,None,501.201673100004,None,502.0075568900444,None,,,,21016,0001,2022_Nov_30_0808,localizer,2021.1.3,61.06351886261129,
block,scenes,scenes009.bmp,,,,,0,227,227,227,,,,,,,,,,,,,,,,,,,,,,,,,,,,,,,,,,,,,,,,,,None,,502.0075568900444,None,502.0075568900444,None,2022-11-30-08:16:58.241956,502.0146559000714,502.32401090010535,502.0146559000714,None,None,502.0146559000714,None,502.8242408900056,None,,,,21016,0001,2022_Nov_30_0808,localizer,2021.1.3,61.06351886261129,
block_end,scenes,scenes003.bmp,,,,,0,228,228,228,,,,,,,,,,,,,,,,,,,,,,,,,,,,,,,,,,,,,,,,,,None,,502.8242408900056,None,502.8242408900056,None,2022-11-30-08:16:59.058637,502.8250599000603,503.13996360008605,502.8250599000603,None,None,502.8250599000603,None,503.6406987901079,None,,,,21016,0001,2022_Nov_30_0808,localizer,2021.1.3,61.06351886261129,
block_start,objects,objects059.bmp,,,,,0,229,229,229,,,,,,,,,,,,,,,,,,,,,,,,,,,,,,,,,,,,,,,,,,t,1.7461897999746725,503.64056310011074,None,503.64056310011074,None,2022-11-30-08:17:01.643641,505.41050570004154,505.7240459000459,505.41050570004154,None,None,505.41050570004154,None,506.22423379009126,None,,,,21016,0001,2022_Nov_30_0808,localizer,2021.1.3,61.06351886261129,
block,objects,objects025.bmp,,,,,0,230,230,230,,,,,,,,,,,,,,,,,,,,,,,,,,,,,,,,,,,,,,,,,,None,,506.22423379009126,None,506.22423379009126,None,2022-11-30-08:17:02.458954,506.23552280000877,506.54054460010957,506.23552280000877,None,None,506.23552280000877,None,507.0408523900202,None,,,,21016,0001,2022_Nov_30_0808,localizer,2021.1.3,61.06351886261129,
block,objects,objects037.bmp,,,,,0,231,231,231,,,,,,,,,,,,,,,,,,,,,,,,,,,,,,,,,,,,,,,,,,None,,507.0408523900202,None,507.0408523900202,None,2022-11-30-08:17:03.275252,507.04165950010065,507.3411159000825,507.04165950010065,None,None,507.04165950010065,None,507.8411800900009,None,,,,21016,0001,2022_Nov_30_0808,localizer,2021.1.3,61.06351886261129,
block,objects,objects013.bmp,,,,,0,232,232,232,,,,,,,,,,,,,,,,,,,,,,,,,,,,,,,,,,,,,,,,,,None,,507.8411800900009,None,507.8411800900009,None,2022-11-30-08:17:04.078774,507.84387070010416,508.14391350001097,507.84387070010416,507.84387070010416,None,507.84387070010416,507.84387070010416,508.65797609011645,None,,,,21016,0001,2022_Nov_30_0808,localizer,2021.1.3,61.06351886261129,
block,objects,objects052.bmp,,,,,0,233,233,233,,,,,,,,,,,,,,,,,,,,,,,,,,,,,,,,,,,,,,,,,,None,,508.65797609011645,None,508.65797609011645,None,2022-11-30-08:17:04.893365,508.67071269999724,508.9740399000002,508.67071269999724,None,None,508.67071269999724,None,509.47430649006276,None,,,,21016,0001,2022_Nov_30_0808,localizer,2021.1.3,61.06351886261129,
block,objects,objects028.bmp,,,,,0,234,234,234,,,,,,,,,,,,,,,,,,,,,,,,,,,,,,,,,,,,,,,,,,None,,509.47430649006276,None,509.47430649006276,None,2022-11-30-08:17:05.708708,509.47509670001455,509.7748649000423,509.47509670001455,None,None,509.47509670001455,None,510.27465159005953,None,,,,21016,0001,2022_Nov_30_0808,localizer,2021.1.3,61.06351886261129,
block,objects,objects058.bmp,,,,,0,235,235,235,,,,,,,,,,,,,,,,,,,,,,,,,,,,,,,,,,,,,,,,,,None,,510.27465159005953,None,510.27465159005953,None,2022-11-30-08:17:06.512036,510.28957780008204,510.5908389000688,510.28957780008204,510.28957780008204,None,510.28957780008204,510.28957780008204,511.0910363900708,None,,,,21016,0001,2022_Nov_30_0808,localizer,2021.1.3,61.06351886261129,
block,objects,objects005.bmp,,,,,0,236,236,236,,,,,,,,,,,,,,,,,,,,,,,,,,,,,,,,,,,,,,,,,,None,,511.0910363900708,None,511.0910363900708,None,2022-11-30-08:17:07.325436,511.10222390003037,511.40736420010217,511.10222390003037,None,None,511.10222390003037,None,511.90756809003653,None,,,,21016,0001,2022_Nov_30_0808,localizer,2021.1.3,61.06351886261129,
block,objects,objects082.bmp,,,,,0,237,237,237,,,,,,,,,,,,,,,,,,,,,,,,,,,,,,,,,,,,,,,,,,None,,511.90756809003653,None,511.90756809003653,None,2022-11-30-08:17:08.141964,511.91882550006267,512.2242066001054,511.91882550006267,None,None,511.91882550006267,None,512.7242847900139,None,,,,21016,0001,2022_Nov_30_0808,localizer,2021.1.3,61.06351886261129,
block,objects,objects055.bmp,,,,,0,238,238,238,,,,,,,,,,,,,,,,,,,,,,,,,,,,,,,,,,,,,,,,,,None,,512.7242847900139,None,512.7242847900139,None,2022-11-30-08:17:08.958684,512.7352545000613,513.0407774000196,512.7352545000613,None,None,512.7352545000613,None,513.5409705901053,None,,,,21016,0001,2022_Nov_30_0808,localizer,2021.1.3,61.06351886261129,
block,objects,objects077.bmp,,,,,0,239,239,239,,,,,,,,,,,,,,,,,,,,,,,,,,,,,,,,,,,,,,,,,,None,,513.5409705901053,None,513.5409705901053,None,2022-11-30-08:17:09.775368,513.5416626000078,513.8408711000811,513.5416626000078,None,None,513.5416626000078,None,514.3410927900346,None,,,,21016,0001,2022_Nov_30_0808,localizer,2021.1.3,61.06351886261129,
block,objects,objects085.bmp,,,,,0,240,240,240,,,,,,,,,,,,,,,,,,,,,,,,,,,,,,,,,,,,,,,,,,None,,514.3410927900346,None,514.3410927900346,None,2022-11-30-08:17:10.577487,514.3544545000186,514.6574374000775,514.3544545000186,514.3544545000186,None,514.3544545000186,514.3544545000186,515.1604442900513,None,,,,21016,0001,2022_Nov_30_0808,localizer,2021.1.3,61.06351886261129,
block,objects,objects043.bmp,,,,,0,241,241,241,,,,,,,,,,,,,,,,,,,,,,,,,,,,,,,,,,,,,,,,,,None,,515.1604442900513,None,515.1604442900513,None,2022-11-30-08:17:11.396997,515.1742537000682,515.4748407000443,515.1742537000682,None,None,515.1742537000682,None,515.9748389900429,None,,,,21016,0001,2022_Nov_30_0808,localizer,2021.1.3,61.06351886261129,
block,objects,objects063.bmp,,,,,0,242,242,242,,,,,,,,,,,,,,,,,,,,,,,,,,,,,,,,,,,,,,,,,,None,,515.9748389900429,None,515.9748389900429,None,2022-11-30-08:17:12.210424,515.9769039000385,516.2909910000162,515.9769039000385,None,None,515.9769039000385,None,516.7913942900719,None,,,,21016,0001,2022_Nov_30_0808,localizer,2021.1.3,61.06351886261129,
block_end,objects,objects039.bmp,,,,,0,243,243,243,,,,,,,,,,,,,,,,,,,,,,,,,,,,,,,,,,,,,,,,,,None,,516.7913942900719,None,516.7913942900719,None,2022-11-30-08:17:13.026781,516.803046300076,517.107125800103,516.803046300076,None,None,516.803046300076,None,517.6084885900142,None,,,,21016,0001,2022_Nov_30_0808,localizer,2021.1.3,61.06351886261129,
,,,,,,,,,,,,,,,,,,,,,,,,,,,,,,,,,,,,,,,,,,,,,,,,,,,,,,,,,,,,,,,,,,,,,517.6087392000481,None,,,,,,,
