block_type,condition,img_name,Button.thisRepN,Button.thisTrialN,Button.thisN,Button.thisIndex,trials.thisRepN,trials.thisTrialN,trials.thisN,trials.thisIndex,Ready_experimenter_text.started,Ready_experimenter_text.stopped,Ready_experimenter_resp.keys,Ready_experimenter_resp.rt,Ready_experimenter_resp.started,Ready_experimenter_resp.stopped,Alignment_background.started,Alignment_background.stopped,Alignment_image.started,Alignment_image.stopped,Alignment_resp.keys,Alignment_resp.rt,Alignment_resp.started,Alignment_resp.stopped,Button_text.started,Button_text.stopped,Index_text.started,Index_text.stopped,Index_resp.keys,Index_resp.rt,Index_resp.started,Index_resp.stopped,Middle_text.started,Middle_text.stopped,Middle_resp.keys,Middle_resp.rt,Middle_resp.started,Middle_resp.stopped,Repeat_text.started,Repeat_text.stopped,Repeat_resp.keys,Repeat_resp.corr,Repeat_resp.rt,Repeat_resp.started,Repeat_resp.stopped,instruction_text.started,instruction_text.stopped,key_resp.keys,key_resp.rt,key_resp.started,key_resp.stopped,scanner_t.keys,scanner_t.rt,scanner_t.started,scanner_t.stopped,fixation_wait_for_t.started,fixation_wait_for_t.stopped,real_timestamp_trial_start,image.started,image.stopped,fixation.started,fixation.stopped,repeat_response.keys,repeat_response.started,repeat_response.stopped,fixation_null.started,fixation_null.stopped,end_text.started,end_text.stopped,participant,run,date,expName,psychopyVersion,frameRate,
,,,,,,,,,,,9.144624900072813,None,return,83.33081980003044,9.144624900072813,None,,,,,,,,,,,,,,,,,,,,,,,,,,,,,,,,,,,,,,,,,,,,,,,,,,,,,,22011,0001,2022_Aug_12_1232,localizer,2021.1.3,59.92911583227335,
,,,,,,,,,,,,,,,,,92.52365240012296,None,92.52365240012296,None,return,2.492672999855131,92.52365240012296,None,,,,,,,,,,,,,,,,,,,,,,,,,,,,,,,,,,,,,,,,,,,,,,22011,0001,2022_Aug_12_1232,localizer,2021.1.3,59.92911583227335,
,,,0,0,0,0,,,,,,,,,,,,,,,,,,,95.04568340000696,None,96.05825210013427,None,y,51.622150500072166,96.05825210013427,None,147.71358670014888,None,b,8.94481709995307,147.71358670014888,None,156.67589160008356,None,n,0,2.601788999978453,156.67589160008356,None,,,,,,,,,,,,,,,,,,,,,,,,,22011,0001,2022_Aug_12_1232,localizer,2021.1.3,59.92911583227335,
,,,,,,,,,,,,,,,,,,,,,,,,,,,,,,,,,,,,,,,,,,,,,,159.2932314001955,None,b,89.73620910011232,159.2932314001955,None,,,,,,,,,,,,,,,,,,,22011,0001,2022_Aug_12_1232,localizer,2021.1.3,59.92911583227335,
block_start,objects,objects022.bmp,,,,,0,0,0,0,,,,,,,,,,,,,,,,,,,,,,,,,,,,,,,,,,,,,,,,,,t,16.053520999848843,249.13685520016588,None,249.13685520016588,None,2022-08-12-12:36:44.053117,265.22489310009405,265.52607640018687,265.22489310009405,None,None,265.22489310009405,None,266.02715569019784,None,,,22011,0001,2022_Aug_12_1232,localizer,2021.1.3,59.92911583227335,
block,objects,objects082.bmp,,,,,0,1,1,1,,,,,,,,,,,,,,,,,,,,,,,,,,,,,,,,,,,,,,,,,,None,,266.02715569019784,None,266.02715569019784,None,2022-08-12-12:36:44.874559,266.0447822001297,266.35950790019706,266.0447822001297,None,None,266.0447822001297,None,266.8437554899836,None,,,22011,0001,2022_Aug_12_1232,localizer,2021.1.3,59.92911583227335,
block,objects,objects027.bmp,,,,,0,2,2,2,,,,,,,,,,,,,,,,,,,,,,,,,,,,,,,,,,,,,,,,,,None,,266.8437554899836,None,266.8437554899836,None,2022-08-12-12:36:45.688521,266.8565454999916,267.1600846000947,266.8565454999916,None,None,266.8565454999916,None,267.66000049009455,None,,,22011,0001,2022_Aug_12_1232,localizer,2021.1.3,59.92911583227335,
block,objects,objects088.bmp,,,,,0,3,3,3,,,,,,,,,,,,,,,,,,,,,,,,,,,,,,,,,,,,,,,,,,None,,267.66000049009455,None,267.66000049009455,None,2022-08-12-12:36:46.503775,267.67188630020246,267.9760536001995,267.67188630020246,None,None,267.67188630020246,None,268.47592859000434,None,,,22011,0001,2022_Aug_12_1232,localizer,2021.1.3,59.92911583227335,
block,objects,objects014.bmp,,,,,0,4,4,4,,,,,,,,,,,,,,,,,,,,,,,,,,,,,,,,,,,,,,,,,,None,,268.47592859000434,None,268.47592859000434,None,2022-08-12-12:36:47.318751,268.48209760012105,268.7927191001363,268.48209760012105,None,None,268.48209760012105,None,269.29930209002924,None,,,22011,0001,2022_Aug_12_1232,localizer,2021.1.3,59.92911583227335,
block,objects,objects085.bmp,,,,,0,5,5,5,,,,,,,,,,,,,,,,,,,,,,,,,,,,,,,,,,,,,,,,,,None,,269.29930209002924,None,269.29930209002924,None,2022-08-12-12:36:48.150895,269.3199034000281,269.6261303999927,269.3199034000281,None,None,269.3199034000281,None,270.1102123901481,None,,,22011,0001,2022_Aug_12_1232,localizer,2021.1.3,59.92911583227335,
block,objects,objects021.bmp,,,,,0,6,6,6,,,,,,,,,,,,,,,,,,,,,,,,,,,,,,,,,,,,,,,,,,None,,270.1102123901481,None,270.1102123901481,None,2022-08-12-12:36:48.954154,270.1228472001385,270.4259530000854,270.1228472001385,None,None,270.1228472001385,None,270.925751590007,None,,,22011,0001,2022_Aug_12_1232,localizer,2021.1.3,59.92911583227335,
block,objects,objects025.bmp,,,,,0,7,7,7,,,,,,,,,,,,,,,,,,,,,,,,,,,,,,,,,,,,,,,,,,None,,270.925751590007,None,270.925751590007,None,2022-08-12-12:36:49.768183,270.9344707999844,271.24933290015906,270.9344707999844,None,None,270.9344707999844,None,271.74242108997424,None,,,22011,0001,2022_Aug_12_1232,localizer,2021.1.3,59.92911583227335,
block,objects,objects080.bmp,,,,,0,8,8,8,,,,,,,,,,,,,,,,,,,,,,,,,,,,,,,,,,,,,,,,,,None,,271.74242108997424,None,271.74242108997424,None,2022-08-12-12:36:50.585363,271.7508826002013,272.059582100017,271.7508826002013,None,None,271.7508826002013,None,272.559512590128,None,,,22011,0001,2022_Aug_12_1232,localizer,2021.1.3,59.92911583227335,
block,objects,objects026.bmp,,,,,0,9,9,9,,,,,,,,,,,,,,,,,,,,,,,,,,,,,,,,,,,,,,,,,,None,,272.559512590128,None,272.559512590128,None,2022-08-12-12:36:51.402299,272.57056910009123,272.87647960009053,272.57056910009123,None,None,272.57056910009123,None,273.37569989014884,None,,,22011,0001,2022_Aug_12_1232,localizer,2021.1.3,59.92911583227335,
block,objects,objects030.bmp,,,,,0,10,10,10,,,,,,,,,,,,,,,,,,,,,,,,,,,,,,,,,,,,,,,,,,None,,273.37569989014884,None,273.37569989014884,None,2022-08-12-12:36:52.218778,273.3848014001269,273.6927025001496,273.3848014001269,None,None,273.3848014001269,None,274.1928355901735,None,,,22011,0001,2022_Aug_12_1232,localizer,2021.1.3,59.92911583227335,
block,objects,objects054.bmp,,,,,0,11,11,11,,,,,,,,,,,,,,,,,,,,,,,,,,,,,,,,,,,,,,,,,,None,,274.1928355901735,None,274.1928355901735,None,2022-08-12-12:36:53.035840,274.2038000000175,274.50929379998706,274.2038000000175,None,None,274.2038000000175,None,275.0090609901352,None,,,22011,0001,2022_Aug_12_1232,localizer,2021.1.3,59.92911583227335,
block,objects,objects078.bmp,,,,,0,12,12,12,,,,,,,,,,,,,,,,,,,,,,,,,,,,,,,,,,,,,,,,,,None,,275.0090609901352,None,275.0090609901352,None,2022-08-12-12:36:53.852007,275.01775390002877,275.32646230002865,275.01775390002877,None,None,275.01775390002877,None,275.82579018997495,None,,,22011,0001,2022_Aug_12_1232,localizer,2021.1.3,59.92911583227335,
block,objects,objects033.bmp,,,,,0,13,13,13,,,,,,,,,,,,,,,,,,,,,,,,,,,,,,,,,,,,,,,,,,None,,275.82579018997495,None,275.82579018997495,None,2022-08-12-12:36:54.668688,275.83588050003164,276.14326749998145,275.83588050003164,None,None,275.83588050003164,None,276.64298659011257,None,,,22011,0001,2022_Aug_12_1232,localizer,2021.1.3,59.92911583227335,
block_end,objects,objects073.bmp,,,,,0,14,14,14,,,,,,,,,,,,,,,,,,,,,,,,,,,,,,,,,,,,,,,,,,None,,276.64298659011257,None,276.64298659011257,None,2022-08-12-12:36:55.486767,276.65402230015025,276.95932090003043,276.65402230015025,None,None,276.65402230015025,None,277.4489388901973,None,,,22011,0001,2022_Aug_12_1232,localizer,2021.1.3,59.92911583227335,
null_block,null_block,null_block.bmp,,,,,0,15,15,15,,,,,,,,,,,,,,,,,,,,,,,,,,,,,,,,,,,,,,,,,,t,1.7403444999363273,277.44910200010054,None,277.44910200010054,None,2022-08-12-12:36:58.053746,279.2263075801544,None,279.2263075801544,None,None,279.2263075801544,None,279.2260471000336,None,,,22011,0001,2022_Aug_12_1232,localizer,2021.1.3,59.92911583227335,
block_start,scrambled,scrambled005.bmp,,,,,0,16,16,16,,,,,,,,,,,,,,,,,,,,,,,,,,,,,,,,,,,,,,,,,,t,1.963185500120744,291.2262216000818,None,291.2262216000818,None,2022-08-12-12:37:12.053156,293.220538900001,293.5262411001604,293.220538900001,None,None,293.220538900001,None,294.02628349007574,None,,,22011,0001,2022_Aug_12_1232,localizer,2021.1.3,59.92911583227335,
block,scrambled,scrambled013.bmp,,,,,0,17,17,17,,,,,,,,,,,,,,,,,,,,,,,,,,,,,,,,,,,,,,,,,,None,,294.02628349007574,None,294.02628349007574,None,2022-08-12-12:37:12.869242,294.033302300144,294.3432364000473,294.033302300144,None,None,294.033302300144,None,294.8429196901387,None,,,22011,0001,2022_Aug_12_1232,localizer,2021.1.3,59.92911583227335,
block,scrambled,scrambled036.bmp,,,,,0,18,18,18,,,,,,,,,,,,,,,,,,,,,,,,,,,,,,,,,,,,,,,,,,None,,294.8429196901387,None,294.8429196901387,None,2022-08-12-12:37:13.685706,294.8537655000109,295.15986840007827,294.8537655000109,None,None,294.8537655000109,None,295.6594774900703,None,,,22011,0001,2022_Aug_12_1232,localizer,2021.1.3,59.92911583227335,
block,scrambled,scrambled021.bmp,,,,,0,19,19,19,,,,,,,,,,,,,,,,,,,,,,,,,,,,,,,,,,,,,,,,,,None,,295.6594774900703,None,295.6594774900703,None,2022-08-12-12:37:14.502267,295.67004980007187,295.9770727001596,295.67004980007187,None,None,295.67004980007187,None,296.47756368999836,None,,,22011,0001,2022_Aug_12_1232,localizer,2021.1.3,59.92911583227335,
block,scrambled,scrambled047.bmp,,,,,0,20,20,20,,,,,,,,,,,,,,,,,,,,,,,,,,,,,,,,,,,,,,,,,,None,,296.47756368999836,None,296.47756368999836,None,2022-08-12-12:37:15.322512,296.4904023001436,296.79919980000705,296.4904023001436,None,None,296.4904023001436,None,297.29251209001524,None,,,22011,0001,2022_Aug_12_1232,localizer,2021.1.3,59.92911583227335,
block,scrambled,scrambled052.bmp,,,,,0,21,21,21,,,,,,,,,,,,,,,,,,,,,,,,,,,,,,,,,,,,,,,,,,None,,297.29251209001524,None,297.29251209001524,None,2022-08-12-12:37:16.134310,297.3009487001691,297.60982380015776,297.3009487001691,None,None,297.3009487001691,None,298.1106580901658,None,,,22011,0001,2022_Aug_12_1232,localizer,2021.1.3,59.92911583227335,
block,scrambled,scrambled083.bmp,,,,,0,22,22,22,,,,,,,,,,,,,,,,,,,,,,,,,,,,,,,,,,,,,,,,,,None,,298.1106580901658,None,298.1106580901658,None,2022-08-12-12:37:16.955597,298.1205482000951,298.42606239998713,298.1205482000951,None,None,298.1205482000951,None,298.93284679001664,None,,,22011,0001,2022_Aug_12_1232,localizer,2021.1.3,59.92911583227335,
block,scrambled,scrambled035.bmp,,,,,0,23,23,23,,,,,,,,,,,,,,,,,,,,,,,,,,,,,,,,,,,,,,,,,,None,,298.93284679001664,None,298.93284679001664,None,2022-08-12-12:37:17.782191,298.95120540005155,299.25949750002474,298.95120540005155,None,None,298.95120540005155,None,299.74284049014096,None,,,22011,0001,2022_Aug_12_1232,localizer,2021.1.3,59.92911583227335,
block,scrambled,scrambled035.bmp,,,,,0,24,24,24,,,,,,,,,,,,,,,,,,,,,,,,,,,,,,,,,,,,,,,,,,None,,299.74284049014096,None,299.74284049014096,None,2022-08-12-12:37:18.585629,299.74396380013786,300.0432844001334,299.74396380013786,None,None,299.74396380013786,None,300.5595422900049,None,,,22011,0001,2022_Aug_12_1232,localizer,2021.1.3,59.92911583227335,
block,scrambled,scrambled068.bmp,,,,,0,25,25,25,,,,,,,,,,,,,,,,,,,,,,,,,,,,,,,,,,,,,,,,,,None,,300.5595422900049,None,300.5595422900049,None,2022-08-12-12:37:19.402332,300.56971940002404,300.87609839998186,300.56971940002404,None,None,300.56971940002404,None,301.3763500899775,None,,,22011,0001,2022_Aug_12_1232,localizer,2021.1.3,59.92911583227335,
block,scrambled,scrambled043.bmp,,,,,0,26,26,26,,,,,,,,,,,,,,,,,,,,,,,,,,,,,,,,,,,,,,,,,,None,,301.3763500899775,None,301.3763500899775,None,2022-08-12-12:37:20.220338,301.3874536000658,301.69296940020286,301.3874536000658,None,None,301.3874536000658,None,302.1927724900423,None,,,22011,0001,2022_Aug_12_1232,localizer,2021.1.3,59.92911583227335,
block,scrambled,scrambled042.bmp,,,,,0,27,27,27,,,,,,,,,,,,,,,,,,,,,,,,,,,,,,,,,,,,,,,,,,None,,302.1927724900423,None,302.1927724900423,None,2022-08-12-12:37:21.035562,302.1990802001674,302.4995899000205,302.1990802001674,None,None,302.1990802001674,None,303.00947399002035,None,,,22011,0001,2022_Aug_12_1232,localizer,2021.1.3,59.92911583227335,
block,scrambled,scrambled055.bmp,,,,,0,28,28,28,,,,,,,,,,,,,,,,,,,,,,,,,,,,,,,,,,,,,,,,,,None,,303.00947399002035,None,303.00947399002035,None,2022-08-12-12:37:21.852500,303.0208161000628,303.3263116001617,303.0208161000628,None,None,303.0208161000628,None,303.8259844901739,None,,,22011,0001,2022_Aug_12_1232,localizer,2021.1.3,59.92911583227335,
block,scrambled,scrambled082.bmp,,,,,0,29,29,29,,,,,,,,,,,,,,,,,,,,,,,,,,,,,,,,,,,,,,,,,,None,,303.8259844901739,None,303.8259844901739,None,2022-08-12-12:37:22.668652,303.8350039999932,304.1432775000576,303.8350039999932,None,None,303.8350039999932,None,304.642836390133,None,,,22011,0001,2022_Aug_12_1232,localizer,2021.1.3,59.92911583227335,
block_end,scrambled,scrambled032.bmp,,,,,0,30,30,30,,,,,,,,,,,,,,,,,,,,,,,,,,,,,,,,,,,,,,,,,,None,,304.642836390133,None,304.642836390133,None,2022-08-12-12:37:23.485626,304.6530840001069,304.95932840020396,304.6530840001069,None,None,304.6530840001069,None,305.45958328999114,None,,,22011,0001,2022_Aug_12_1232,localizer,2021.1.3,59.92911583227335,
block_start,scenes,scenes063.bmp,,,,,0,31,31,31,,,,,,,,,,,,,,,,,,,,,,,,,,,,,,,,,,,,,,,,,,t,1.730107800103724,305.4594209000934,None,305.4594209000934,None,2022-08-12-12:37:26.052442,307.22280440013856,307.52622240013443,307.22280440013856,None,None,307.22280440013856,None,308.0262771901442,None,,,22011,0001,2022_Aug_12_1232,localizer,2021.1.3,59.92911583227335,
block,scenes,scenes016.bmp,,,,,0,32,32,32,,,,,,,,,,,,,,,,,,,,,,,,,,,,,,,,,,,,,,,,,,None,,308.0262771901442,None,308.0262771901442,None,2022-08-12-12:37:26.869065,308.0423543001525,308.3429436001461,308.0423543001525,None,None,308.0423543001525,None,308.843059090036,None,,,22011,0001,2022_Aug_12_1232,localizer,2021.1.3,59.92911583227335,
block,scenes,scenes011.bmp,,,,,0,33,33,33,,,,,,,,,,,,,,,,,,,,,,,,,,,,,,,,,,,,,,,,,,None,,308.843059090036,None,308.843059090036,None,2022-08-12-12:37:27.686052,308.8541092001833,309.1614155001007,308.8541092001833,None,None,308.8541092001833,None,309.6595887901029,None,,,22011,0001,2022_Aug_12_1232,localizer,2021.1.3,59.92911583227335,
block,scenes,scenes052.bmp,,,,,0,34,34,34,,,,,,,,,,,,,,,,,,,,,,,,,,,,,,,,,,,,,,,,,,None,,309.6595887901029,None,309.6595887901029,None,2022-08-12-12:37:28.502376,309.66991220018826,309.9764064999763,309.66991220018826,None,None,309.66991220018826,None,310.4769786902005,None,,,22011,0001,2022_Aug_12_1232,localizer,2021.1.3,59.92911583227335,
block,scenes,scenes028.bmp,,,,,0,35,35,35,,,,,,,,,,,,,,,,,,,,,,,,,,,,,,,,,,,,,,,,,,None,,310.4769786902005,None,310.4769786902005,None,2022-08-12-12:37:29.320939,310.48867750004865,310.79295570007525,310.48867750004865,None,None,310.48867750004865,None,311.2935431900667,None,,,22011,0001,2022_Aug_12_1232,localizer,2021.1.3,59.92911583227335,
block,scenes,scenes015.bmp,,,,,0,36,36,36,,,,,,,,,,,,,,,,,,,,,,,,,,,,,,,,,,,,,,,,,,None,,311.2935431900667,None,311.2935431900667,None,2022-08-12-12:37:30.137510,311.3070815000683,311.6103837999981,311.3070815000683,None,None,311.3070815000683,None,312.10957219016274,None,,,22011,0001,2022_Aug_12_1232,localizer,2021.1.3,59.92911583227335,
block,scenes,scenes059.bmp,,,,,0,37,37,37,,,,,,,,,,,,,,,,,,,,,,,,,,,,,,,,,,,,,,,,,,None,,312.10957219016274,None,312.10957219016274,None,2022-08-12-12:37:30.952588,312.1199990999885,312.4261797000654,312.1199990999885,None,None,312.1199990999885,None,312.9262433900265,None,,,22011,0001,2022_Aug_12_1232,localizer,2021.1.3,59.92911583227335,
block,scenes,scenes005.bmp,,,,,0,38,38,38,,,,,,,,,,,,,,,,,,,,,,,,,,,,,,,,,,,,,,,,,,None,,312.9262433900265,None,312.9262433900265,None,2022-08-12-12:37:31.769033,312.93671780009754,313.24289580015466,312.93671780009754,None,None,312.93671780009754,None,313.74276028999594,None,,,22011,0001,2022_Aug_12_1232,localizer,2021.1.3,59.92911583227335,
block,scenes,scenes023.bmp,,,,,0,39,39,39,,,,,,,,,,,,,,,,,,,,,,,,,,,,,,,,,,,,,,,,,,None,,313.74276028999594,None,313.74276028999594,None,2022-08-12-12:37:32.585547,313.7529379001353,314.059732099995,313.7529379001353,None,None,313.7529379001353,None,314.5595757901436,None,,,22011,0001,2022_Aug_12_1232,localizer,2021.1.3,59.92911583227335,
block,scenes,scenes081.bmp,,,,,0,40,40,40,,,,,,,,,,,,,,,,,,,,,,,,,,,,,,,,,,,,,,,,,,None,,314.5595757901436,None,314.5595757901436,None,2022-08-12-12:37:33.402364,314.5710370000452,314.8763998001814,314.5710370000452,None,None,314.5710370000452,None,315.3762373901671,None,,,22011,0001,2022_Aug_12_1232,localizer,2021.1.3,59.92911583227335,
block,scenes,scenes022.bmp,,,,,0,41,41,41,,,,,,,,,,,,,,,,,,,,,,,,,,,,,,,,,,,,,,,,,,None,,315.3762373901671,None,315.3762373901671,None,2022-08-12-12:37:34.219026,315.3883511000313,315.6927185000386,315.3883511000313,None,None,315.3883511000313,None,316.19291409018916,None,,,22011,0001,2022_Aug_12_1232,localizer,2021.1.3,59.92911583227335,
block,scenes,scenes027.bmp,,,,,0,42,42,42,,,,,,,,,,,,,,,,,,,,,,,,,,,,,,,,,,,,,,,,,,None,,316.19291409018916,None,316.19291409018916,None,2022-08-12-12:37:35.035901,316.2039088001475,316.50997310015373,316.2039088001475,None,None,316.2039088001475,None,317.0094627901679,None,,,22011,0001,2022_Aug_12_1232,localizer,2021.1.3,59.92911583227335,
block,scenes,scenes010.bmp,,,,,0,43,43,43,,,,,,,,,,,,,,,,,,,,,,,,,,,,,,,,,,,,,,,,,,None,,317.0094627901679,None,317.0094627901679,None,2022-08-12-12:37:35.852254,317.01940770004876,317.32639790000394,317.01940770004876,None,None,317.01940770004876,None,317.8265269899974,None,,,22011,0001,2022_Aug_12_1232,localizer,2021.1.3,59.92911583227335,
block,scenes,scenes001.bmp,,,,,0,44,44,44,,,,,,,,,,,,,,,,,,,,,,,,,,,,,,,,,,,,,,,,,,None,,317.8265269899974,None,317.8265269899974,None,2022-08-12-12:37:36.669308,317.8376350000035,318.1434820999857,317.8376350000035,None,None,317.8376350000035,None,318.6431678899797,None,,,22011,0001,2022_Aug_12_1232,localizer,2021.1.3,59.92911583227335,
block_end,scenes,scenes043.bmp,,,,,0,45,45,45,,,,,,,,,,,,,,,,,,,,,,,,,,,,,,,,,,,,,,,,,,None,,318.6431678899797,None,318.6431678899797,None,2022-08-12-12:37:37.486172,318.6543513999786,318.95936980005354,318.6543513999786,None,None,318.6543513999786,None,319.4596204900416,None,,,22011,0001,2022_Aug_12_1232,localizer,2021.1.3,59.92911583227335,
block_start,faces,faces011.bmp,,,,,0,46,46,46,,,,,,,,,,,,,,,,,,,,,,,,,,,,,,,,,,,,,,,,,,t,1.7297681998461485,319.45960340020247,None,319.45960340020247,None,2022-08-12-12:37:40.055764,321.2208537000697,321.52639050013386,321.2208537000697,None,None,321.2208537000697,None,322.02647989017424,None,,,22011,0001,2022_Aug_12_1232,localizer,2021.1.3,59.92911583227335,
block,faces,faces027.bmp,,,,,0,47,47,47,,,,,,,,,,,,,,,,,,,,,,,,,,,,,,,,,,,,,,,,,,None,,322.02647989017424,None,322.02647989017424,None,2022-08-12-12:37:40.869750,322.0403799000196,322.34288570005447,322.0403799000196,None,None,322.0403799000196,None,322.84283539007885,None,,,22011,0001,2022_Aug_12_1232,localizer,2021.1.3,59.92911583227335,
block,faces,faces067.bmp,,,,,0,48,48,48,,,,,,,,,,,,,,,,,,,,,,,,,,,,,,,,,,,,,,,,,,None,,322.84283539007885,None,322.84283539007885,None,2022-08-12-12:37:41.685626,322.8548044001218,323.1597110000439,322.8548044001218,None,None,322.8548044001218,None,323.6597594901221,None,,,22011,0001,2022_Aug_12_1232,localizer,2021.1.3,59.92911583227335,
block,faces,faces023.bmp,,,,,0,49,49,49,,,,,,,,,,,,,,,,,,,,,,,,,,,,,,,,,,,,,,,,,,None,,323.6597594901221,None,323.6597594901221,None,2022-08-12-12:37:42.502773,323.67052260017954,323.9783990001306,323.67052260017954,None,None,323.67052260017954,None,324.47607039015276,None,,,22011,0001,2022_Aug_12_1232,localizer,2021.1.3,59.92911583227335,
block,faces,faces010.bmp,,,,,0,50,50,50,,,,,,,,,,,,,,,,,,,,,,,,,,,,,,,,,,,,,,,,,,None,,324.47607039015276,None,324.47607039015276,None,2022-08-12-12:37:43.318862,324.4870156000834,324.79297970002517,324.4870156000834,None,None,324.4870156000834,None,325.29303109000904,None,,,22011,0001,2022_Aug_12_1232,localizer,2021.1.3,59.92911583227335,
block,faces,faces083.bmp,,,,,0,51,51,51,,,,,,,,,,,,,,,,,,,,,,,,,,,,,,,,,,,,,,,,,,None,,325.29303109000904,None,325.29303109000904,None,2022-08-12-12:37:44.136799,325.3040470001288,325.6097411001101,325.3040470001288,None,None,325.3040470001288,None,326.1103108900832,None,,,22011,0001,2022_Aug_12_1232,localizer,2021.1.3,59.92911583227335,
block,faces,faces049.bmp,,,,,0,52,52,52,,,,,,,,,,,,,,,,,,,,,,,,,,,,,,,,,,,,,,,,,,None,,326.1103108900832,None,326.1103108900832,None,2022-08-12-12:37:44.954281,326.12307810015045,326.42627840000205,326.12307810015045,None,None,326.12307810015045,None,326.9263434899738,None,,,22011,0001,2022_Aug_12_1232,localizer,2021.1.3,59.92911583227335,
block,faces,faces018.bmp,,,,,0,53,53,53,,,,,,,,,,,,,,,,,,,,,,,,,,,,,,,,,,,,,,,,,,None,,326.9263434899738,None,326.9263434899738,None,2022-08-12-12:37:45.769115,326.9366147001274,327.2435063000303,326.9366147001274,None,None,326.9366147001274,None,327.74316389004235,None,,,22011,0001,2022_Aug_12_1232,localizer,2021.1.3,59.92911583227335,
block,faces,faces037.bmp,,,,,0,54,54,54,,,,,,,,,,,,,,,,,,,,,,,,,,,,,,,,,,,,,,,,,,None,,327.74316389004235,None,327.74316389004235,None,2022-08-12-12:37:46.587049,327.75438820011914,328.0595139001962,327.75438820011914,None,None,327.75438820011914,None,328.5493285901146,None,,,22011,0001,2022_Aug_12_1232,localizer,2021.1.3,59.92911583227335,
block,faces,faces073.bmp,,,,,0,55,55,55,,,,,,,,,,,,,,,,,,,,,,,,,,,,,,,,,,,,,,,,,,None,,328.5493285901146,None,328.5493285901146,None,2022-08-12-12:37:47.400087,328.56665870011784,328.87666629999876,328.56665870011784,None,None,328.56665870011784,None,329.35968499009033,None,,,22011,0001,2022_Aug_12_1232,localizer,2021.1.3,59.92911583227335,
block,faces,faces014.bmp,,,,,0,56,56,56,,,,,,,,,,,,,,,,,,,,,,,,,,,,,,,,,,,,,,,,,,None,,329.35968499009033,None,329.35968499009033,None,2022-08-12-12:37:48.202372,329.36982610006817,329.6769440001808,329.36982610006817,None,None,329.36982610006817,None,330.1763340901351,None,,,22011,0001,2022_Aug_12_1232,localizer,2021.1.3,59.92911583227335,
block,faces,faces065.bmp,,,,,0,57,57,57,,,,,,,,,,,,,,,,,,,,,,,,,,,,,,,,,,,,,,,,,,None,,330.1763340901351,None,330.1763340901351,None,2022-08-12-12:37:49.019123,330.1945332000032,330.4937870001886,330.1945332000032,None,None,330.1945332000032,None,330.9992880901089,None,,,22011,0001,2022_Aug_12_1232,localizer,2021.1.3,59.92911583227335,
block,faces,faces006.bmp,,,,,0,58,58,58,,,,,,,,,,,,,,,,,,,,,,,,,,,,,,,,,,,,,,,,,,None,,330.9992880901089,None,330.9992880901089,None,2022-08-12-12:37:49.850996,331.0208472001832,331.3272925000638,331.0208472001832,None,None,331.0208472001832,None,331.8097736901371,None,,,22011,0001,2022_Aug_12_1232,localizer,2021.1.3,59.92911583227335,
block,faces,faces044.bmp,,,,,0,59,59,59,,,,,,,,,,,,,,,,,,,,,,,,,,,,,,,,,,,,,,,,,,None,,331.8097736901371,None,331.8097736901371,None,2022-08-12-12:37:50.652930,331.82106760004535,332.1262776001822,331.82106760004535,None,None,331.82106760004535,None,332.6265847900184,None,,,22011,0001,2022_Aug_12_1232,localizer,2021.1.3,59.92911583227335,
block_end,faces,faces012.bmp,,,,,0,60,60,60,,,,,,,,,,,,,,,,,,,,,,,,,,,,,,,,,,,,,,,,,,None,,332.6265847900184,None,332.6265847900184,None,2022-08-12-12:37:51.469371,332.63760300003923,332.9433571000118,332.63760300003923,None,None,332.63760300003923,None,333.44314979000484,None,,,22011,0001,2022_Aug_12_1232,localizer,2021.1.3,59.92911583227335,
block_start,faces,faces025.bmp,,,,,0,61,61,61,,,,,,,,,,,,,,,,,,,,,,,,,,,,,,,,,,,,,,,,,,t,1.7462228999938816,333.4431706001051,None,333.4431706001051,None,2022-08-12-12:37:54.051450,335.21612310013734,335.53277350007556,335.21612310013734,None,None,335.21612310013734,None,336.02754479001743,None,,,22011,0001,2022_Aug_12_1232,localizer,2021.1.3,59.92911583227335,
block,faces,faces078.bmp,,,,,0,62,62,62,,,,,,,,,,,,,,,,,,,,,,,,,,,,,,,,,,,,,,,,,,None,,336.02754479001743,None,336.02754479001743,None,2022-08-12-12:37:54.871440,336.0410239000339,336.34314190014265,336.0410239000339,None,None,336.0410239000339,None,336.8431681900518,None,,,22011,0001,2022_Aug_12_1232,localizer,2021.1.3,59.92911583227335,
block,faces,faces048.bmp,,,,,0,63,63,63,,,,,,,,,,,,,,,,,,,,,,,,,,,,,,,,,,,,,,,,,,None,,336.8431681900518,None,336.8431681900518,None,2022-08-12-12:37:55.685659,336.8557149001863,337.15991839999333,336.8557149001863,None,None,336.8557149001863,None,337.66030829011,None,,,22011,0001,2022_Aug_12_1232,localizer,2021.1.3,59.92911583227335,
block,faces,faces039.bmp,,,,,0,64,64,64,,,,,,,,,,,,,,,,,,,,,,,,,,,,,,,,,,,,,,,,,,None,,337.66030829011,None,337.66030829011,None,2022-08-12-12:37:56.504679,337.67496640002355,337.9816933001857,337.67496640002355,None,None,337.67496640002355,None,338.4763643900631,None,,,22011,0001,2022_Aug_12_1232,localizer,2021.1.3,59.92911583227335,
block,faces,faces002.bmp,,,,,0,65,65,65,,,,,,,,,,,,,,,,,,,,,,,,,,,,,,,,,,,,,,,,,,None,,338.4763643900631,None,338.4763643900631,None,2022-08-12-12:37:57.319154,338.48827410000376,338.7930482001975,338.48827410000376,None,None,338.48827410000376,None,339.2929990899982,None,,,22011,0001,2022_Aug_12_1232,localizer,2021.1.3,59.92911583227335,
block,faces,faces019.bmp,,,,,0,66,66,66,,,,,,,,,,,,,,,,,,,,,,,,,,,,,,,,,,,,,,,,,,None,,339.2929990899982,None,339.2929990899982,None,2022-08-12-12:37:58.136030,339.3095831000246,339.6097440000158,339.3095831000246,None,None,339.3095831000246,None,340.10966709007045,None,,,22011,0001,2022_Aug_12_1232,localizer,2021.1.3,59.92911583227335,
block,faces,faces069.bmp,,,,,0,67,67,67,,,,,,,,,,,,,,,,,,,,,,,,,,,,,,,,,,,,,,,,,,None,,340.10966709007045,None,340.10966709007045,None,2022-08-12-12:37:58.952683,340.12027150020003,340.4299628001172,340.12027150020003,None,None,340.12027150020003,None,340.92599879002665,None,,,22011,0001,2022_Aug_12_1232,localizer,2021.1.3,59.92911583227335,
block,faces,faces023.bmp,,,,,0,68,68,68,,,,,,,,,,,,,,,,,,,,,,,,,,,,,,,,,,,,,,,,,,None,,340.92599879002665,None,340.92599879002665,None,2022-08-12-12:37:59.767699,340.92766210017726,341.2428017000202,340.92766210017726,None,None,340.92766210017726,None,341.7431437900057,None,,,22011,0001,2022_Aug_12_1232,localizer,2021.1.3,59.92911583227335,
block,faces,faces011.bmp,,,,,0,69,69,69,,,,,,,,,,,,,,,,,,,,,,,,,,,,,,,,,,,,,,,,,,None,,341.7431437900057,None,341.7431437900057,None,2022-08-12-12:38:00.585932,341.74401760008186,342.04564500018023,341.74401760008186,None,None,341.74401760008186,None,342.5596181900008,None,,,22011,0001,2022_Aug_12_1232,localizer,2021.1.3,59.92911583227335,
block,faces,faces070.bmp,,,,,0,70,70,70,,,,,,,,,,,,,,,,,,,,,,,,,,,,,,,,,,,,,,,,,,None,,342.5596181900008,None,342.5596181900008,None,2022-08-12-12:38:01.402411,342.5706227000337,342.8763565002009,342.5706227000337,None,None,342.5706227000337,None,343.3762228901731,None,,,22011,0001,2022_Aug_12_1232,localizer,2021.1.3,59.92911583227335,
block,faces,faces089.bmp,,,,,0,71,71,71,,,,,,,,,,,,,,,,,,,,,,,,,,,,,,,,,,,,,,,,,,None,,343.3762228901731,None,343.3762228901731,None,2022-08-12-12:38:02.219017,343.3849718000274,343.6938589999918,343.3849718000274,None,None,343.3849718000274,None,344.1936795900809,None,,,22011,0001,2022_Aug_12_1232,localizer,2021.1.3,59.92911583227335,
block,faces,faces088.bmp,,,,,0,72,72,72,,,,,,,,,,,,,,,,,,,,,,,,,,,,,,,,,,,,,,,,,,None,,344.1936795900809,None,344.1936795900809,None,2022-08-12-12:38:03.037534,344.207238700008,344.5098945000209,344.207238700008,None,None,344.207238700008,None,345.01099019015675,None,,,22011,0001,2022_Aug_12_1232,localizer,2021.1.3,59.92911583227335,
block,faces,faces005.bmp,,,,,0,73,73,73,,,,,,,,,,,,,,,,,,,,,,,,,,,,,,,,,,,,,,,,,,None,,345.01099019015675,None,345.01099019015675,None,2022-08-12-12:38:03.855931,345.0256942000706,345.32640080014244,345.0256942000706,None,None,345.0256942000706,None,345.82709829004017,None,,,22011,0001,2022_Aug_12_1232,localizer,2021.1.3,59.92911583227335,
block,faces,faces065.bmp,,,,,0,74,74,74,,,,,,,,,,,,,,,,,,,,,,,,,,,,,,,,,,,,,,,,,,None,,345.82709829004017,None,345.82709829004017,None,2022-08-12-12:38:04.670882,345.8285007001832,346.143945600139,345.8285007001832,None,None,345.8285007001832,None,346.6428232901497,None,,,22011,0001,2022_Aug_12_1232,localizer,2021.1.3,59.92911583227335,
block_end,faces,faces062.bmp,,,,,0,75,75,75,,,,,,,,,,,,,,,,,,,,,,,,,,,,,,,,,,,,,,,,,,None,,346.6428232901497,None,346.6428232901497,None,2022-08-12-12:38:05.484873,346.6520128999837,346.9599691000767,346.6520128999837,None,None,346.6520128999837,None,347.4602446901379,None,,,22011,0001,2022_Aug_12_1232,localizer,2021.1.3,59.92911583227335,
block_start,objects,objects029.bmp,,,,,0,76,76,76,,,,,,,,,,,,,,,,,,,,,,,,,,,,,,,,,,,,,,,,,,t,1.7289032000117004,347.46050380007364,None,347.46050380007364,None,2022-08-12-12:38:08.055999,349.224580100039,349.52684479998425,349.224580100039,None,None,349.224580100039,None,350.0269582900917,None,,,22011,0001,2022_Aug_12_1232,localizer,2021.1.3,59.92911583227335,
block,objects,objects060.bmp,,,,,0,77,77,77,,,,,,,,,,,,,,,,,,,,,,,,,,,,,,,,,,,,,,,,,,None,,350.0269582900917,None,350.0269582900917,None,2022-08-12-12:38:08.870753,350.03862670017406,350.3430814000312,350.03862670017406,None,None,350.03862670017406,None,350.8432605900569,None,,,22011,0001,2022_Aug_12_1232,localizer,2021.1.3,59.92911583227335,
block,objects,objects053.bmp,,,,,0,78,78,78,,,,,,,,,,,,,,,,,,,,,,,,,,,,,,,,,,,,,,,,,,None,,350.8432605900569,None,350.8432605900569,None,2022-08-12-12:38:09.686063,350.854344899999,351.1598957001697,350.854344899999,None,None,350.854344899999,None,351.65980669001584,None,,,22011,0001,2022_Aug_12_1232,localizer,2021.1.3,59.92911583227335,
block,objects,objects021.bmp,,,,,0,79,79,79,,,,,,,,,,,,,,,,,,,,,,,,,,,,,,,,,,,,,,,,,,None,,351.65980669001584,None,351.65980669001584,None,2022-08-12-12:38:10.502596,351.6608083001338,351.97645940002985,351.6608083001338,None,None,351.6608083001338,None,352.4599685900146,None,,,22011,0001,2022_Aug_12_1232,localizer,2021.1.3,59.92911583227335,
block,objects,objects027.bmp,,,,,0,80,80,80,,,,,,,,,,,,,,,,,,,,,,,,,,,,,,,,,,,,,,,,,,None,,352.4599685900146,None,352.4599685900146,None,2022-08-12-12:38:11.304751,352.4630037001334,352.77693340019323,352.4630037001334,352.4630037001334,None,352.4630037001334,352.4630037001334,353.2767547900556,None,,,22011,0001,2022_Aug_12_1232,localizer,2021.1.3,59.92911583227335,
block,objects,objects081.bmp,,,,,0,81,81,81,,,,,,,,,,,,,,,,,,,,,,,,,,,,,,,,,,,,,,,,,,None,,353.2767547900556,None,353.2767547900556,None,2022-08-12-12:38:12.119540,353.2852241001092,353.5933330000844,353.2852241001092,None,None,353.2852241001092,None,354.0931762899971,None,,,22011,0001,2022_Aug_12_1232,localizer,2021.1.3,59.92911583227335,
block,objects,objects015.bmp,,,,,0,82,82,82,,,,,,,,,,,,,,,,,,,,,,,,,,,,,,,,,,,,,,,,,,None,,354.0931762899971,None,354.0931762899971,None,2022-08-12-12:38:12.935966,354.1040829999838,354.40976960002445,354.1040829999838,None,None,354.1040829999838,None,354.90978209006136,None,,,22011,0001,2022_Aug_12_1232,localizer,2021.1.3,59.92911583227335,
block,objects,objects070.bmp,,,,,0,83,83,83,,,,,,,,,,,,,,,,,,,,,,,,,,,,,,,,,,,,,,,,,,None,,354.90978209006136,None,354.90978209006136,None,2022-08-12-12:38:13.751592,354.92206240003,355.2265095000621,354.92206240003,None,None,354.92206240003,None,355.72766469006893,None,,,22011,0001,2022_Aug_12_1232,localizer,2021.1.3,59.92911583227335,
block,objects,objects017.bmp,,,,,0,84,84,84,,,,,,,,,,,,,,,,,,,,,,,,,,,,,,,,,,,,,,,,,,None,,355.72766469006893,None,355.72766469006893,None,2022-08-12-12:38:14.572987,355.7414558001328,356.04288820014335,355.7414558001328,None,None,355.7414558001328,None,356.5430863900809,None,,,22011,0001,2022_Aug_12_1232,localizer,2021.1.3,59.92911583227335,
block,objects,objects052.bmp,,,,,0,85,85,85,,,,,,,,,,,,,,,,,,,,,,,,,,,,,,,,,,,,,,,,,,None,,356.5430863900809,None,356.5430863900809,None,2022-08-12-12:38:15.385870,356.55352420010604,356.8599882000126,356.55352420010604,None,None,356.55352420010604,None,357.35978979018984,None,,,22011,0001,2022_Aug_12_1232,localizer,2021.1.3,59.92911583227335,
block,objects,objects076.bmp,,,,,0,86,86,86,,,,,,,,,,,,,,,,,,,,,,,,,,,,,,,,,,,,,,,,,,None,,357.35978979018984,None,357.35978979018984,None,2022-08-12-12:38:16.202579,357.3700870000757,357.6764617001172,357.3700870000757,None,None,357.3700870000757,None,358.1764682899928,None,,,22011,0001,2022_Aug_12_1232,localizer,2021.1.3,59.92911583227335,
block,objects,objects054.bmp,,,,,0,87,87,87,,,,,,,,,,,,,,,,,,,,,,,,,,,,,,,,,,,,,,,,,,None,,358.1764682899928,None,358.1764682899928,None,2022-08-12-12:38:17.019454,358.1775579000823,358.493122600019,358.1775579000823,None,None,358.1775579000823,None,358.97671229003464,None,,,22011,0001,2022_Aug_12_1232,localizer,2021.1.3,59.92911583227335,
block,objects,objects006.bmp,,,,,0,88,88,88,,,,,,,,,,,,,,,,,,,,,,,,,,,,,,,,,,,,,,,,,,None,,358.97671229003464,None,358.97671229003464,None,2022-08-12-12:38:17.821701,358.9905578000471,359.2933048000559,358.9905578000471,358.9905578000471,None,358.9905578000471,358.9905578000471,359.7934637901606,None,,,22011,0001,2022_Aug_12_1232,localizer,2021.1.3,59.92911583227335,
block,objects,objects058.bmp,,,,,0,89,89,89,,,,,,,,,,,,,,,,,,,,,,,,,,,,,,,,,,,,,,,,,,None,,359.7934637901606,None,359.7934637901606,None,2022-08-12-12:38:18.636252,359.8044148001354,360.1099737000186,359.8044148001354,None,None,359.8044148001354,None,360.60985989014154,None,,,22011,0001,2022_Aug_12_1232,localizer,2021.1.3,59.92911583227335,
block_end,objects,objects003.bmp,,,,,0,90,90,90,,,,,,,,,,,,,,,,,,,,,,,,,,,,,,,,,,,,,,,,,,None,,360.60985989014154,None,360.60985989014154,None,2022-08-12-12:38:19.452791,360.61985150002874,360.9266572999768,360.61985150002874,None,None,360.61985150002874,None,361.42686319008936,None,,,22011,0001,2022_Aug_12_1232,localizer,2021.1.3,59.92911583227335,
null_block,null_block,null_block.bmp,,,,,0,91,91,91,,,,,,,,,,,,,,,,,,,,,,,,,,,,,,,,,,,,,,,,,,t,1.7625240001361817,361.4268053001724,None,361.4268053001724,None,2022-08-12-12:38:22.052851,363.21006609017496,None,363.21006609017496,None,None,363.21006609017496,None,363.2137041001115,None,,,22011,0001,2022_Aug_12_1232,localizer,2021.1.3,59.92911583227335,
block_start,scenes,scenes038.bmp,,,,,0,92,92,92,,,,,,,,,,,,,,,,,,,,,,,,,,,,,,,,,,,,,,,,,,t,1.9566752999089658,375.2329717001412,None,375.2329717001412,None,2022-08-12-12:38:36.054509,377.22134730010293,377.5267045001965,377.22134730010293,None,None,377.22134730010293,None,378.02720119019506,None,,,22011,0001,2022_Aug_12_1232,localizer,2021.1.3,59.92911583227335,
block,scenes,scenes053.bmp,,,,,0,93,93,93,,,,,,,,,,,,,,,,,,,,,,,,,,,,,,,,,,,,,,,,,,None,,378.02720119019506,None,378.02720119019506,None,2022-08-12-12:38:36.869924,378.037315600086,378.3432383001782,378.037315600086,None,None,378.037315600086,None,378.8438227901468,None,,,22011,0001,2022_Aug_12_1232,localizer,2021.1.3,59.92911583227335,
block,scenes,scenes087.bmp,,,,,0,94,94,94,,,,,,,,,,,,,,,,,,,,,,,,,,,,,,,,,,,,,,,,,,None,,378.8438227901468,None,378.8438227901468,None,2022-08-12-12:38:37.687596,378.85235790000297,379.1600274001248,378.85235790000297,None,None,378.85235790000297,None,379.66010708997493,None,,,22011,0001,2022_Aug_12_1232,localizer,2021.1.3,59.92911583227335,
block,scenes,scenes024.bmp,,,,,0,95,95,95,,,,,,,,,,,,,,,,,,,,,,,,,,,,,,,,,,,,,,,,,,None,,379.66010708997493,None,379.66010708997493,None,2022-08-12-12:38:38.502788,379.6714428002015,379.97752310009673,379.6714428002015,None,None,379.6714428002015,None,380.4787741900189,None,,,22011,0001,2022_Aug_12_1232,localizer,2021.1.3,59.92911583227335,
block,scenes,scenes019.bmp,,,,,0,96,96,96,,,,,,,,,,,,,,,,,,,,,,,,,,,,,,,,,,,,,,,,,,None,,380.4787741900189,None,380.4787741900189,None,2022-08-12-12:38:39.325702,380.4943715000991,380.81006090017036,380.4943715000991,None,None,380.4943715000991,None,381.2934088900918,None,,,22011,0001,2022_Aug_12_1232,localizer,2021.1.3,59.92911583227335,
block,scenes,scenes032.bmp,,,,,0,97,97,97,,,,,,,,,,,,,,,,,,,,,,,,,,,,,,,,,,,,,,,,,,None,,381.2934088900918,None,381.2934088900918,None,2022-08-12-12:38:40.136405,381.3041137000546,381.61014590016566,381.3041137000546,None,None,381.3041137000546,None,382.111153889983,None,,,22011,0001,2022_Aug_12_1232,localizer,2021.1.3,59.92911583227335,
block,scenes,scenes069.bmp,,,,,0,98,98,98,,,,,,,,,,,,,,,,,,,,,,,,,,,,,,,,,,,,,,,,,,None,,382.111153889983,None,382.111153889983,None,2022-08-12-12:38:40.955116,382.12543070013635,382.42658110009506,382.12543070013635,None,None,382.12543070013635,None,382.9262844899902,None,,,22011,0001,2022_Aug_12_1232,localizer,2021.1.3,59.92911583227335,
block,scenes,scenes016.bmp,,,,,0,99,99,99,,,,,,,,,,,,,,,,,,,,,,,,,,,,,,,,,,,,,,,,,,None,,382.9262844899902,None,382.9262844899902,None,2022-08-12-12:38:41.769075,382.92769080004655,383.24346030014567,382.92769080004655,None,None,382.92769080004655,None,383.72914899007884,None,,,22011,0001,2022_Aug_12_1232,localizer,2021.1.3,59.92911583227335,
block,scenes,scenes055.bmp,,,,,0,100,100,100,,,,,,,,,,,,,,,,,,,,,,,,,,,,,,,,,,,,,,,,,,None,,383.72914899007884,None,383.72914899007884,None,2022-08-12-12:38:42.574846,383.743976800004,384.04337820014916,383.743976800004,383.743976800004,None,383.743976800004,383.743976800004,384.54325389007573,None,,,22011,0001,2022_Aug_12_1232,localizer,2021.1.3,59.92911583227335,
block,scenes,scenes046.bmp,,,,,0,101,101,101,,,,,,,,,,,,,,,,,,,,,,,,,,,,,,,,,,,,,,,,,,None,,384.54325389007573,None,384.54325389007573,None,2022-08-12-12:38:43.386049,384.5517694000155,384.86036609997973,384.5517694000155,None,None,384.5517694000155,None,385.35991159018596,None,,,22011,0001,2022_Aug_12_1232,localizer,2021.1.3,59.92911583227335,
block,scenes,scenes089.bmp,,,,,0,102,102,102,,,,,,,,,,,,,,,,,,,,,,,,,,,,,,,,,,,,,,,,,,None,,385.35991159018596,None,385.35991159018596,None,2022-08-12-12:38:44.202702,385.36775580001995,385.6767556001432,385.36775580001995,None,None,385.36775580001995,None,386.17703759002035,None,,,22011,0001,2022_Aug_12_1232,localizer,2021.1.3,59.92911583227335,
block,scenes,scenes089.bmp,,,,,0,103,103,103,,,,,,,,,,,,,,,,,,,,,,,,,,,,,,,,,,,,,,,,,,None,,386.17703759002035,None,386.17703759002035,None,2022-08-12-12:38:45.020016,386.1776185000781,386.4932242000941,386.1776185000781,None,None,386.1776185000781,None,386.9795438901754,None,,,22011,0001,2022_Aug_12_1232,localizer,2021.1.3,59.92911583227335,
block,scenes,scenes079.bmp,,,,,0,104,104,104,,,,,,,,,,,,,,,,,,,,,,,,,,,,,,,,,,,,,,,,,,None,,386.9795438901754,None,386.9795438901754,None,2022-08-12-12:38:45.826481,386.99637429998256,387.31015840009786,386.99637429998256,386.99637429998256,None,386.99637429998256,386.99637429998256,387.7937109901803,None,,,22011,0001,2022_Aug_12_1232,localizer,2021.1.3,59.92911583227335,
block,scenes,scenes050.bmp,,,,,0,105,105,105,,,,,,,,,,,,,,,,,,,,,,,,,,,,,,,,,,,,,,,,,,None,,387.7937109901803,None,387.7937109901803,None,2022-08-12-12:38:46.637695,387.80562190013006,388.10988800018094,387.80562190013006,None,None,387.80562190013006,None,388.6097835901426,None,,,22011,0001,2022_Aug_12_1232,localizer,2021.1.3,59.92911583227335,
block_end,scenes,scenes011.bmp,,,,,0,106,106,106,,,,,,,,,,,,,,,,,,,,,,,,,,,,,,,,,,,,,,,,,,None,,388.6097835901426,None,388.6097835901426,None,2022-08-12-12:38:47.452579,388.6110000000335,388.92676760000177,388.6110000000335,None,None,388.6110000000335,None,389.41006198998076,None,,,22011,0001,2022_Aug_12_1232,localizer,2021.1.3,59.92911583227335,
block_start,scrambled,scrambled026.bmp,,,,,0,107,107,107,,,,,,,,,,,,,,,,,,,,,,,,,,,,,,,,,,,,,,,,,,t,1.7793712001293898,389.4100324001629,None,389.4100324001629,None,2022-08-12-12:38:50.051153,391.21874779998325,391.5268312001135,391.21874779998325,None,None,391.21874779998325,None,392.02716939018575,None,,,22011,0001,2022_Aug_12_1232,localizer,2021.1.3,59.92911583227335,
block,scrambled,scrambled030.bmp,,,,,0,108,108,108,,,,,,,,,,,,,,,,,,,,,,,,,,,,,,,,,,,,,,,,,,None,,392.02716939018575,None,392.02716939018575,None,2022-08-12-12:38:50.871166,392.03805520012975,392.34345530020073,392.03805520012975,None,None,392.03805520012975,None,392.84384109016975,None,,,22011,0001,2022_Aug_12_1232,localizer,2021.1.3,59.92911583227335,
block,scrambled,scrambled072.bmp,,,,,0,109,109,109,,,,,,,,,,,,,,,,,,,,,,,,,,,,,,,,,,,,,,,,,,None,,392.84384109016975,None,392.84384109016975,None,2022-08-12-12:38:51.687824,392.851837299997,393.1604900001548,392.851837299997,None,None,392.851837299997,None,393.6599700900959,None,,,22011,0001,2022_Aug_12_1232,localizer,2021.1.3,59.92911583227335,
block,scrambled,scrambled047.bmp,,,,,0,110,110,110,,,,,,,,,,,,,,,,,,,,,,,,,,,,,,,,,,,,,,,,,,None,,393.6599700900959,None,393.6599700900959,None,2022-08-12-12:38:52.502759,393.66105260001495,393.9608539000619,393.66105260001495,None,None,393.66105260001495,None,394.46071759012995,None,,,22011,0001,2022_Aug_12_1232,localizer,2021.1.3,59.92911583227335,
block,scrambled,scrambled017.bmp,,,,,0,111,111,111,,,,,,,,,,,,,,,,,,,,,,,,,,,,,,,,,,,,,,,,,,None,,394.46071759012995,None,394.46071759012995,None,2022-08-12-12:38:53.306674,394.4752625999972,394.7767303001601,394.4752625999972,394.4752625999972,None,394.4752625999972,394.4752625999972,395.27713929007297,None,,,22011,0001,2022_Aug_12_1232,localizer,2021.1.3,59.92911583227335,
block,scrambled,scrambled077.bmp,,,,,0,112,112,112,,,,,,,,,,,,,,,,,,,,,,,,,,,,,,,,,,,,,,,,,,None,,395.27713929007297,None,395.27713929007297,None,2022-08-12-12:38:54.120025,395.28808860015124,395.59378330013715,395.28808860015124,None,None,395.28808860015124,None,396.09440979019274,None,,,22011,0001,2022_Aug_12_1232,localizer,2021.1.3,59.92911583227335,
block,scrambled,scrambled041.bmp,,,,,0,113,113,113,,,,,,,,,,,,,,,,,,,,,,,,,,,,,,,,,,,,,,,,,,None,,396.09440979019274,None,396.09440979019274,None,2022-08-12-12:38:54.937205,396.10215900000185,396.4102194001898,396.10215900000185,None,None,396.10215900000185,None,396.91040279001464,None,,,22011,0001,2022_Aug_12_1232,localizer,2021.1.3,59.92911583227335,
block,scrambled,scrambled039.bmp,,,,,0,114,114,114,,,,,,,,,,,,,,,,,,,,,,,,,,,,,,,,,,,,,,,,,,None,,396.91040279001464,None,396.91040279001464,None,2022-08-12-12:38:55.753187,396.91955180000514,397.2267214001622,396.91955180000514,None,None,396.91955180000514,None,397.7265697899973,None,,,22011,0001,2022_Aug_12_1232,localizer,2021.1.3,59.92911583227335,
block,scrambled,scrambled004.bmp,,,,,0,115,115,115,,,,,,,,,,,,,,,,,,,,,,,,,,,,,,,,,,,,,,,,,,None,,397.7265697899973,None,397.7265697899973,None,2022-08-12-12:38:56.568946,397.73529750015587,398.0433905001264,397.73529750015587,None,None,397.73529750015587,None,398.5435762899695,None,,,22011,0001,2022_Aug_12_1232,localizer,2021.1.3,59.92911583227335,
block,scrambled,scrambled027.bmp,,,,,0,116,116,116,,,,,,,,,,,,,,,,,,,,,,,,,,,,,,,,,,,,,,,,,,None,,398.5435762899695,None,398.5435762899695,None,2022-08-12-12:38:57.386942,398.5545903001912,398.86668620002456,398.5545903001912,None,None,398.5545903001912,None,399.360529890121,None,,,22011,0001,2022_Aug_12_1232,localizer,2021.1.3,59.92911583227335,
block,scrambled,scrambled045.bmp,,,,,0,117,117,117,,,,,,,,,,,,,,,,,,,,,,,,,,,,,,,,,,,,,,,,,,None,,399.360529890121,None,399.360529890121,None,2022-08-12-12:38:58.203513,399.372393200174,399.67673870013095,399.372393200174,None,None,399.372393200174,None,400.1765924900072,None,,,22011,0001,2022_Aug_12_1232,localizer,2021.1.3,59.92911583227335,
block,scrambled,scrambled076.bmp,,,,,0,118,118,118,,,,,,,,,,,,,,,,,,,,,,,,,,,,,,,,,,,,,,,,,,None,,400.1765924900072,None,400.1765924900072,None,2022-08-12-12:38:59.019648,400.1859870001208,400.4937984000426,400.1859870001208,None,None,400.1859870001208,None,400.9936781901168,None,,,22011,0001,2022_Aug_12_1232,localizer,2021.1.3,59.92911583227335,
block,scrambled,scrambled019.bmp,,,,,0,119,119,119,,,,,,,,,,,,,,,,,,,,,,,,,,,,,,,,,,,,,,,,,,None,,400.9936781901168,None,400.9936781901168,None,2022-08-12-12:38:59.836634,401.00456410017796,401.31043990002945,401.00456410017796,None,None,401.00456410017796,None,401.81086918998045,None,,,22011,0001,2022_Aug_12_1232,localizer,2021.1.3,59.92911583227335,
block,scrambled,scrambled080.bmp,,,,,0,120,120,120,,,,,,,,,,,,,,,,,,,,,,,,,,,,,,,,,,,,,,,,,,None,,401.81086918998045,None,401.81086918998045,None,2022-08-12-12:39:00.654645,401.82242890005,402.126895399997,401.82242890005,None,None,401.82242890005,None,402.62697119016667,None,,,22011,0001,2022_Aug_12_1232,localizer,2021.1.3,59.92911583227335,
block_end,scrambled,scrambled034.bmp,,,,,0,121,121,121,,,,,,,,,,,,,,,,,,,,,,,,,,,,,,,,,,,,,,,,,,None,,402.62697119016667,None,402.62697119016667,None,2022-08-12-12:39:01.469968,402.6392463000957,402.9434372000396,402.6392463000957,None,None,402.6392463000957,None,403.44350529003424,None,,,22011,0001,2022_Aug_12_1232,localizer,2021.1.3,59.92911583227335,
block_start,faces,faces004.bmp,,,,,0,122,122,122,,,,,,,,,,,,,,,,,,,,,,,,,,,,,,,,,,,,,,,,,,t,1.7447943000588566,403.4436471001245,None,403.4436471001245,None,2022-08-12-12:39:04.050665,405.2233759001829,405.52725900011137,405.2233759001829,None,None,405.2233759001829,None,406.0271037901519,None,,,22011,0001,2022_Aug_12_1232,localizer,2021.1.3,59.92911583227335,
block,faces,faces043.bmp,,,,,0,123,123,123,,,,,,,,,,,,,,,,,,,,,,,,,,,,,,,,,,,,,,,,,,None,,406.0271037901519,None,406.0271037901519,None,2022-08-12-12:39:04.869890,406.0398728,406.34361250000075,406.0398728,None,None,406.0398728,None,406.84345219011885,None,,,22011,0001,2022_Aug_12_1232,localizer,2021.1.3,59.92911583227335,
block,faces,faces076.bmp,,,,,0,124,124,124,,,,,,,,,,,,,,,,,,,,,,,,,,,,,,,,,,,,,,,,,,None,,406.84345219011885,None,406.84345219011885,None,2022-08-12-12:39:05.685211,406.85221230005845,407.16044730017893,406.85221230005845,None,None,406.85221230005845,None,407.65991769016256,None,,,22011,0001,2022_Aug_12_1232,localizer,2021.1.3,59.92911583227335,
block,faces,faces032.bmp,,,,,0,125,125,125,,,,,,,,,,,,,,,,,,,,,,,,,,,,,,,,,,,,,,,,,,None,,407.65991769016256,None,407.65991769016256,None,2022-08-12-12:39:06.502710,407.6679784001317,407.97682320000604,407.6679784001317,None,None,407.6679784001317,None,408.46476578998846,None,,,22011,0001,2022_Aug_12_1232,localizer,2021.1.3,59.92911583227335,
block,faces,faces030.bmp,,,,,0,126,126,126,,,,,,,,,,,,,,,,,,,,,,,,,,,,,,,,,,,,,,,,,,None,,408.46476578998846,None,408.46476578998846,None,2022-08-12-12:39:07.309743,408.4751703001093,408.77704300009646,408.4751703001093,None,None,408.4751703001093,None,409.27710729006213,None,,,22011,0001,2022_Aug_12_1232,localizer,2021.1.3,59.92911583227335,
block,faces,faces040.bmp,,,,,0,127,127,127,,,,,,,,,,,,,,,,,,,,,,,,,,,,,,,,,,,,,,,,,,None,,409.27710729006213,None,409.27710729006213,None,2022-08-12-12:39:08.119918,409.2878103000112,409.5939178999979,409.2878103000112,None,None,409.2878103000112,None,410.09372899013107,None,,,22011,0001,2022_Aug_12_1232,localizer,2021.1.3,59.92911583227335,
block,faces,faces069.bmp,,,,,0,128,128,128,,,,,,,,,,,,,,,,,,,,,,,,,,,,,,,,,,,,,,,,,,None,,410.09372899013107,None,410.09372899013107,None,2022-08-12-12:39:08.936491,410.0944841001183,410.39385510003194,410.0944841001183,None,None,410.0944841001183,None,410.9001938901609,None,,,22011,0001,2022_Aug_12_1232,localizer,2021.1.3,59.92911583227335,
block,faces,faces067.bmp,,,,,0,129,129,129,,,,,,,,,,,,,,,,,,,,,,,,,,,,,,,,,,,,,,,,,,None,,410.9001938901609,None,410.9001938901609,None,2022-08-12-12:39:09.750666,410.90959450020455,411.21020160010085,410.90959450020455,None,None,410.90959450020455,None,411.7108368899906,None,,,22011,0001,2022_Aug_12_1232,localizer,2021.1.3,59.92911583227335,
block,faces,faces063.bmp,,,,,0,130,130,130,,,,,,,,,,,,,,,,,,,,,,,,,,,,,,,,,,,,,,,,,,None,,411.7108368899906,None,411.7108368899906,None,2022-08-12-12:39:10.554611,411.72436790005304,412.0270477000158,411.72436790005304,None,None,411.72436790005304,None,412.5270334901987,None,,,22011,0001,2022_Aug_12_1232,localizer,2021.1.3,59.92911583227335,
block,faces,faces047.bmp,,,,,0,131,131,131,,,,,,,,,,,,,,,,,,,,,,,,,,,,,,,,,,,,,,,,,,None,,412.5270334901987,None,412.5270334901987,None,2022-08-12-12:39:11.370170,412.5437251001131,412.8436567999888,412.5437251001131,None,None,412.5437251001131,None,413.34462809010876,None,,,22011,0001,2022_Aug_12_1232,localizer,2021.1.3,59.92911583227335,
block,faces,faces068.bmp,,,,,0,132,132,132,,,,,,,,,,,,,,,,,,,,,,,,,,,,,,,,,,,,,,,,,,None,,413.34462809010876,None,413.34462809010876,None,2022-08-12-12:39:12.188574,413.36009410000406,413.66031220019795,413.36009410000406,None,None,413.36009410000406,None,414.16060929007364,None,,,22011,0001,2022_Aug_12_1232,localizer,2021.1.3,59.92911583227335,
block,faces,faces048.bmp,,,,,0,133,133,133,,,,,,,,,,,,,,,,,,,,,,,,,,,,,,,,,,,,,,,,,,None,,414.16060929007364,None,414.16060929007364,None,2022-08-12-12:39:13.004389,414.16170000005513,414.4612056000624,414.16170000005513,None,None,414.16170000005513,None,414.9766797901364,None,,,22011,0001,2022_Aug_12_1232,localizer,2021.1.3,59.92911583227335,
block,faces,faces007.bmp,,,,,0,134,134,134,,,,,,,,,,,,,,,,,,,,,,,,,,,,,,,,,,,,,,,,,,None,,414.9766797901364,None,414.9766797901364,None,2022-08-12-12:39:13.818452,414.98552990006283,415.2936170999892,414.98552990006283,None,None,414.98552990006283,None,415.7935625899816,None,,,22011,0001,2022_Aug_12_1232,localizer,2021.1.3,59.92911583227335,
block,faces,faces007.bmp,,,,,0,135,135,135,,,,,,,,,,,,,,,,,,,,,,,,,,,,,,,,,,,,,,,,,,None,,415.7935625899816,None,415.7935625899816,None,2022-08-12-12:39:14.636554,415.79463280015625,416.1102187000215,415.79463280015625,None,None,415.79463280015625,None,416.6106513899984,None,,,22011,0001,2022_Aug_12_1232,localizer,2021.1.3,59.92911583227335,
block_end,faces,faces082.bmp,,,,,0,136,136,136,,,,,,,,,,,,,,,,,,,,,,,,,,,,,,,,,,,,,,,,,,None,,416.6106513899984,None,416.6106513899984,None,2022-08-12-12:39:15.454634,416.62361440015957,416.926696700044,416.62361440015957,None,None,416.62361440015957,None,417.4272077901522,None,,,22011,0001,2022_Aug_12_1232,localizer,2021.1.3,59.92911583227335,
block_start,objects,objects031.bmp,,,,,0,137,137,137,,,,,,,,,,,,,,,,,,,,,,,,,,,,,,,,,,,,,,,,,,t,1.761445000069216,417.4268930000253,None,417.4268930000253,None,2022-08-12-12:39:18.051993,419.2189402000513,419.5280120000243,419.2189402000513,None,None,419.2189402000513,None,420.02805909009186,None,,,22011,0001,2022_Aug_12_1232,localizer,2021.1.3,59.92911583227335,
block,objects,objects058.bmp,,,,,0,138,138,138,,,,,,,,,,,,,,,,,,,,,,,,,,,,,,,,,,,,,,,,,,None,,420.02805909009186,None,420.02805909009186,None,2022-08-12-12:39:18.873820,420.0311960000545,420.3342507001944,420.0311960000545,None,None,420.0311960000545,None,420.8441363899736,None,,,22011,0001,2022_Aug_12_1232,localizer,2021.1.3,59.92911583227335,
block,objects,objects025.bmp,,,,,0,139,139,139,,,,,,,,,,,,,,,,,,,,,,,,,,,,,,,,,,,,,,,,,,None,,420.8441363899736,None,420.8441363899736,None,2022-08-12-12:39:19.687916,420.84458920010366,421.14399040001445,420.84458920010366,None,None,420.84458920010366,None,421.6447475900175,None,,,22011,0001,2022_Aug_12_1232,localizer,2021.1.3,59.92911583227335,
block,objects,objects012.bmp,,,,,0,140,140,140,,,,,,,,,,,,,,,,,,,,,,,,,,,,,,,,,,,,,,,,,,None,,421.6447475900175,None,421.6447475900175,None,2022-08-12-12:39:20.493586,421.66289940010756,421.9625993000809,421.66289940010756,421.66289940010756,None,421.66289940010756,421.66289940010756,422.4665596900275,None,,,22011,0001,2022_Aug_12_1232,localizer,2021.1.3,59.92911583227335,
block,objects,objects077.bmp,,,,,0,141,141,141,,,,,,,,,,,,,,,,,,,,,,,,,,,,,,,,,,,,,,,,,,None,,422.4665596900275,None,422.4665596900275,None,2022-08-12-12:39:21.312391,422.4765370001551,422.7772441999987,422.4765370001551,None,None,422.4765370001551,None,423.2771593901096,None,,,22011,0001,2022_Aug_12_1232,localizer,2021.1.3,59.92911583227335,
block,objects,objects082.bmp,,,,,0,142,142,142,,,,,,,,,,,,,,,,,,,,,,,,,,,,,,,,,,,,,,,,,,None,,423.2771593901096,None,423.2771593901096,None,2022-08-12-12:39:22.120080,423.2779712001793,423.57763279997744,423.2779712001793,None,None,423.2779712001793,None,424.07801759017167,None,,,22011,0001,2022_Aug_12_1232,localizer,2021.1.3,59.92911583227335,
block,objects,objects001.bmp,,,,,0,143,143,143,,,,,,,,,,,,,,,,,,,,,,,,,,,,,,,,,,,,,,,,,,None,,424.07801759017167,None,424.07801759017167,None,2022-08-12-12:39:22.925993,424.09173910017125,424.39359120000154,424.09173910017125,424.09173910017125,None,424.09173910017125,424.09173910017125,424.89354239015375,None,,,22011,0001,2022_Aug_12_1232,localizer,2021.1.3,59.92911583227335,
block,objects,objects081.bmp,,,,,0,144,144,144,,,,,,,,,,,,,,,,,,,,,,,,,,,,,,,,,,,,,,,,,,None,,424.89354239015375,None,424.89354239015375,None,2022-08-12-12:39:23.736329,424.8946402000729,425.19412620016374,424.8946402000729,None,None,424.8946402000729,None,425.71056799015497,None,,,22011,0001,2022_Aug_12_1232,localizer,2021.1.3,59.92911583227335,
block,objects,objects071.bmp,,,,,0,145,145,145,,,,,,,,,,,,,,,,,,,,,,,,,,,,,,,,,,,,,,,,,,None,,425.71056799015497,None,425.71056799015497,None,2022-08-12-12:39:24.553568,425.721146899974,426.0270295001101,425.721146899974,None,None,425.721146899974,None,426.52727359004786,None,,,22011,0001,2022_Aug_12_1232,localizer,2021.1.3,59.92911583227335,
block,objects,objects034.bmp,,,,,0,146,146,146,,,,,,,,,,,,,,,,,,,,,,,,,,,,,,,,,,,,,,,,,,None,,426.52727359004786,None,426.52727359004786,None,2022-08-12-12:39:25.371055,426.5383316001389,426.84368030005135,426.5383316001389,None,None,426.5383316001389,None,427.33315719019157,None,,,22011,0001,2022_Aug_12_1232,localizer,2021.1.3,59.92911583227335,
block,objects,objects068.bmp,,,,,0,147,147,147,,,,,,,,,,,,,,,,,,,,,,,,,,,,,,,,,,,,,,,,,,None,,427.33315719019157,None,427.33315719019157,None,2022-08-12-12:39:26.179999,427.3481984999962,427.6605172001291,427.3481984999962,None,None,427.3481984999962,None,428.14465118998197,None,,,22011,0001,2022_Aug_12_1232,localizer,2021.1.3,59.92911583227335,
block,objects,objects007.bmp,,,,,0,148,148,148,,,,,,,,,,,,,,,,,,,,,,,,,,,,,,,,,,,,,,,,,,None,,428.14465118998197,None,428.14465118998197,None,2022-08-12-12:39:26.990407,428.15939810010605,428.4602918000892,428.15939810010605,None,None,428.15939810010605,None,428.96023009002676,None,,,22011,0001,2022_Aug_12_1232,localizer,2021.1.3,59.92911583227335,
block,objects,objects072.bmp,,,,,0,149,149,149,,,,,,,,,,,,,,,,,,,,,,,,,,,,,,,,,,,,,,,,,,None,,428.96023009002676,None,428.96023009002676,None,2022-08-12-12:39:27.803024,428.9654178000055,429.27684639999643,428.9654178000055,None,None,428.9654178000055,None,429.7773099900922,None,,,22011,0001,2022_Aug_12_1232,localizer,2021.1.3,59.92911583227335,
block,objects,objects024.bmp,,,,,0,150,150,150,,,,,,,,,,,,,,,,,,,,,,,,,,,,,,,,,,,,,,,,,,None,,429.7773099900922,None,429.7773099900922,None,2022-08-12-12:39:28.620635,429.78921670001,430.0942802000791,429.78921670001,None,None,429.78921670001,None,430.59394639015665,None,,,22011,0001,2022_Aug_12_1232,localizer,2021.1.3,59.92911583227335,
block_end,objects,objects045.bmp,,,,,0,151,151,151,,,,,,,,,,,,,,,,,,,,,,,,,,,,,,,,,,,,,,,,,,None,,430.59394639015665,None,430.59394639015665,None,2022-08-12-12:39:29.437725,430.6047951001674,430.9105084000621,430.6047951001674,None,None,430.6047951001674,None,431.41051899020096,None,,,22011,0001,2022_Aug_12_1232,localizer,2021.1.3,59.92911583227335,
null_block,null_block,null_block.bmp,,,,,0,152,152,152,,,,,,,,,,,,,,,,,,,,,,,,,,,,,,,,,,,,,,,,,,t,1.7780917999334633,431.41033700015396,None,431.41033700015396,None,2022-08-12-12:39:32.056202,433.2114355900092,None,433.2114355900092,None,None,433.2114355900092,None,433.2192144000437,None,,,22011,0001,2022_Aug_12_1232,localizer,2021.1.3,59.92911583227335,
block_start,scrambled,scrambled032.bmp,,,,,0,153,153,153,,,,,,,,,,,,,,,,,,,,,,,,,,,,,,,,,,,,,,,,,,t,1.9606461999937892,445.2277226001024,None,445.2277226001024,None,2022-08-12-12:39:46.055511,447.21305950009264,447.52726390003227,447.21305950009264,None,None,447.21305950009264,None,448.02783188999166,None,,,22011,0001,2022_Aug_12_1232,localizer,2021.1.3,59.92911583227335,
block,scrambled,scrambled038.bmp,,,,,0,154,154,154,,,,,,,,,,,,,,,,,,,,,,,,,,,,,,,,,,,,,,,,,,None,,448.02783188999166,None,448.02783188999166,None,2022-08-12-12:39:46.872472,448.03942880011164,448.3436646000482,448.03942880011164,None,None,448.03942880011164,None,448.84488679009957,None,,,22011,0001,2022_Aug_12_1232,localizer,2021.1.3,59.92911583227335,
block,scrambled,scrambled017.bmp,,,,,0,155,155,155,,,,,,,,,,,,,,,,,,,,,,,,,,,,,,,,,,,,,,,,,,None,,448.84488679009957,None,448.84488679009957,None,2022-08-12-12:39:47.688833,448.84747460018843,449.1612001999747,448.84747460018843,None,None,448.84747460018843,None,449.6610411899863,None,,,22011,0001,2022_Aug_12_1232,localizer,2021.1.3,59.92911583227335,
block,scrambled,scrambled084.bmp,,,,,0,156,156,156,,,,,,,,,,,,,,,,,,,,,,,,,,,,,,,,,,,,,,,,,,None,,449.6610411899863,None,449.6610411899863,None,2022-08-12-12:39:48.505134,449.6745154000819,449.9774337001145,449.6745154000819,None,None,449.6745154000819,None,450.47707288998646,None,,,22011,0001,2022_Aug_12_1232,localizer,2021.1.3,59.92911583227335,
block,scrambled,scrambled033.bmp,,,,,0,157,157,157,,,,,,,,,,,,,,,,,,,,,,,,,,,,,,,,,,,,,,,,,,None,,450.47707288998646,None,450.47707288998646,None,2022-08-12-12:39:49.319862,450.4858115001116,450.7937820001971,450.4858115001116,None,None,450.4858115001116,None,451.2946899901843,None,,,22011,0001,2022_Aug_12_1232,localizer,2021.1.3,59.92911583227335,
block,scrambled,scrambled087.bmp,,,,,0,158,158,158,,,,,,,,,,,,,,,,,,,,,,,,,,,,,,,,,,,,,,,,,,None,,451.2946899901843,None,451.2946899901843,None,2022-08-12-12:39:50.137508,451.3036392000504,451.6103797000833,451.3036392000504,None,None,451.3036392000504,None,452.1104802899761,None,,,22011,0001,2022_Aug_12_1232,localizer,2021.1.3,59.92911583227335,
block,scrambled,scrambled012.bmp,,,,,0,159,159,159,,,,,,,,,,,,,,,,,,,,,,,,,,,,,,,,,,,,,,,,,,None,,452.1104802899761,None,452.1104802899761,None,2022-08-12-12:39:50.952936,452.1167664001696,452.4267996000126,452.1167664001696,None,None,452.1167664001696,None,452.92720549001825,None,,,22011,0001,2022_Aug_12_1232,localizer,2021.1.3,59.92911583227335,
block,scrambled,scrambled081.bmp,,,,,0,160,160,160,,,,,,,,,,,,,,,,,,,,,,,,,,,,,,,,,,,,,,,,,,None,,452.92720549001825,None,452.92720549001825,None,2022-08-12-12:39:51.769992,452.9392909000162,453.2437580002006,452.9392909000162,None,None,452.9392909000162,None,453.7440088901902,None,,,22011,0001,2022_Aug_12_1232,localizer,2021.1.3,59.92911583227335,
block,scrambled,scrambled047.bmp,,,,,0,161,161,161,,,,,,,,,,,,,,,,,,,,,,,,,,,,,,,,,,,,,,,,,,None,,453.7440088901902,None,453.7440088901902,None,2022-08-12-12:39:52.586790,453.74476410006173,454.04415359999985,453.74476410006173,None,None,453.74476410006173,None,454.560457990109,None,,,22011,0001,2022_Aug_12_1232,localizer,2021.1.3,59.92911583227335,
block,scrambled,scrambled037.bmp,,,,,0,162,162,162,,,,,,,,,,,,,,,,,,,,,,,,,,,,,,,,,,,,,,,,,,None,,454.560457990109,None,454.560457990109,None,2022-08-12-12:39:53.403249,454.57115039997734,454.87761380011216,454.57115039997734,None,None,454.57115039997734,None,455.3776126900455,None,,,22011,0001,2022_Aug_12_1232,localizer,2021.1.3,59.92911583227335,
block,scrambled,scrambled051.bmp,,,,,0,163,163,163,,,,,,,,,,,,,,,,,,,,,,,,,,,,,,,,,,,,,,,,,,None,,455.3776126900455,None,455.3776126900455,None,2022-08-12-12:39:54.221510,455.389404800022,455.6945121001918,455.389404800022,None,None,455.389404800022,None,456.19355859009084,None,,,22011,0001,2022_Aug_12_1232,localizer,2021.1.3,59.92911583227335,
block,scrambled,scrambled079.bmp,,,,,0,164,164,164,,,,,,,,,,,,,,,,,,,,,,,,,,,,,,,,,,,,,,,,,,None,,456.19355859009084,None,456.19355859009084,None,2022-08-12-12:39:55.036599,456.1988737999927,456.5106397001073,456.1988737999927,None,None,456.1988737999927,None,457.0002828900004,None,,,22011,0001,2022_Aug_12_1232,localizer,2021.1.3,59.92911583227335,
block,scrambled,scrambled029.bmp,,,,,0,165,165,165,,,,,,,,,,,,,,,,,,,,,,,,,,,,,,,,,,,,,,,,,,None,,457.0002828900004,None,457.0002828900004,None,2022-08-12-12:39:55.851050,457.0212820000015,457.32716360013,457.0212820000015,None,None,457.0212820000015,None,457.81076388999355,None,,,22011,0001,2022_Aug_12_1232,localizer,2021.1.3,59.92911583227335,
block,scrambled,scrambled073.bmp,,,,,0,166,166,166,,,,,,,,,,,,,,,,,,,,,,,,,,,,,,,,,,,,,,,,,,None,,457.81076388999355,None,457.81076388999355,None,2022-08-12-12:39:56.653781,457.82170490012504,458.1273624000605,457.82170490012504,None,None,457.82170490012504,None,458.6274240900064,None,,,22011,0001,2022_Aug_12_1232,localizer,2021.1.3,59.92911583227335,
block_end,scrambled,scrambled071.bmp,,,,,0,167,167,167,,,,,,,,,,,,,,,,,,,,,,,,,,,,,,,,,,,,,,,,,,None,,458.6274240900064,None,458.6274240900064,None,2022-08-12-12:39:57.470222,458.63839079998434,458.94368610018864,458.63839079998434,None,None,458.63839079998434,None,459.4458577901358,None,,,22011,0001,2022_Aug_12_1232,localizer,2021.1.3,59.92911583227335,
block_start,scenes,scenes047.bmp,,,,,0,168,168,168,,,,,,,,,,,,,,,,,,,,,,,,,,,,,,,,,,,,,,,,,,t,1.7437892998568714,459.4445532001555,None,459.4445532001555,None,2022-08-12-12:40:00.051956,461.21897160005756,461.52771000005305,461.21897160005756,None,None,461.21897160005756,None,462.027530890028,None,,,22011,0001,2022_Aug_12_1232,localizer,2021.1.3,59.92911583227335,
block,scenes,scenes073.bmp,,,,,0,169,169,169,,,,,,,,,,,,,,,,,,,,,,,,,,,,,,,,,,,,,,,,,,None,,462.027530890028,None,462.027530890028,None,2022-08-12-12:40:00.870383,462.0402739001438,462.3437487001065,462.0402739001438,None,None,462.0402739001438,None,462.84397189000157,None,,,22011,0001,2022_Aug_12_1232,localizer,2021.1.3,59.92911583227335,
block,scenes,scenes089.bmp,,,,,0,170,170,170,,,,,,,,,,,,,,,,,,,,,,,,,,,,,,,,,,,,,,,,,,None,,462.84397189000157,None,462.84397189000157,None,2022-08-12-12:40:01.686759,462.8452379000373,463.1606927001849,462.8452379000373,None,None,462.8452379000373,None,463.6607323901961,None,,,22011,0001,2022_Aug_12_1232,localizer,2021.1.3,59.92911583227335,
block,scenes,scenes061.bmp,,,,,0,171,171,171,,,,,,,,,,,,,,,,,,,,,,,,,,,,,,,,,,,,,,,,,,None,,463.6607323901961,None,463.6607323901961,None,2022-08-12-12:40:02.503728,463.6726373001002,463.9770306001883,463.6726373001002,None,None,463.6726373001002,None,464.4776985899778,None,,,22011,0001,2022_Aug_12_1232,localizer,2021.1.3,59.92911583227335,
block,scenes,scenes033.bmp,,,,,0,172,172,172,,,,,,,,,,,,,,,,,,,,,,,,,,,,,,,,,,,,,,,,,,None,,464.4776985899778,None,464.4776985899778,None,2022-08-12-12:40:03.321477,464.4886344000697,464.7940368000418,464.4886344000697,None,None,464.4886344000697,None,465.29428779014853,None,,,22011,0001,2022_Aug_12_1232,localizer,2021.1.3,59.92911583227335,
block,scenes,scenes056.bmp,,,,,0,173,173,173,,,,,,,,,,,,,,,,,,,,,,,,,,,,,,,,,,,,,,,,,,None,,465.29428779014853,None,465.29428779014853,None,2022-08-12-12:40:04.138268,465.3063553001266,465.6105236001313,465.3063553001266,None,None,465.3063553001266,None,466.1104946900858,None,,,22011,0001,2022_Aug_12_1232,localizer,2021.1.3,59.92911583227335,
block,scenes,scenes078.bmp,,,,,0,174,174,174,,,,,,,,,,,,,,,,,,,,,,,,,,,,,,,,,,,,,,,,,,None,,466.1104946900858,None,466.1104946900858,None,2022-08-12-12:40:04.953281,466.1219436000101,466.4273287001997,466.1219436000101,None,None,466.1219436000101,None,466.927366090077,None,,,22011,0001,2022_Aug_12_1232,localizer,2021.1.3,59.92911583227335,
block,scenes,scenes079.bmp,,,,,0,175,175,175,,,,,,,,,,,,,,,,,,,,,,,,,,,,,,,,,,,,,,,,,,None,,466.927366090077,None,466.927366090077,None,2022-08-12-12:40:05.770167,466.9283418999985,467.2441476001404,466.9283418999985,None,None,466.9283418999985,None,467.7274075900903,None,,,22011,0001,2022_Aug_12_1232,localizer,2021.1.3,59.92911583227335,
block,scenes,scenes059.bmp,,,,,0,176,176,176,,,,,,,,,,,,,,,,,,,,,,,,,,,,,,,,,,,,,,,,,,None,,467.7274075900903,None,467.7274075900903,None,2022-08-12-12:40:06.573732,467.7299500000663,468.0442192000337,467.7299500000663,467.7299500000663,None,467.7299500000663,467.7299500000663,468.5439757901011,None,,,22011,0001,2022_Aug_12_1232,localizer,2021.1.3,59.92911583227335,
block,scenes,scenes039.bmp,,,,,0,177,177,177,,,,,,,,,,,,,,,,,,,,,,,,,,,,,,,,,,,,,,,,,,None,,468.5439757901011,None,468.5439757901011,None,2022-08-12-12:40:07.386888,468.5538153001107,468.86070810002275,468.5538153001107,None,None,468.5538153001107,None,469.36075728998986,None,,,22011,0001,2022_Aug_12_1232,localizer,2021.1.3,59.92911583227335,
block,scenes,scenes045.bmp,,,,,0,178,178,178,,,,,,,,,,,,,,,,,,,,,,,,,,,,,,,,,,,,,,,,,,None,,469.36075728998986,None,469.36075728998986,None,2022-08-12-12:40:08.203538,469.37169000017457,469.67845590016805,469.37169000017457,None,None,469.37169000017457,None,470.1783501900034,None,,,22011,0001,2022_Aug_12_1232,localizer,2021.1.3,59.92911583227335,
block,scenes,scenes064.bmp,,,,,0,179,179,179,,,,,,,,,,,,,,,,,,,,,,,,,,,,,,,,,,,,,,,,,,None,,470.1783501900034,None,470.1783501900034,None,2022-08-12-12:40:09.023293,470.1914619000163,470.49408670002595,470.1914619000163,None,None,470.1914619000163,None,470.99500449008775,None,,,22011,0001,2022_Aug_12_1232,localizer,2021.1.3,59.92911583227335,
block,scenes,scenes069.bmp,,,,,0,180,180,180,,,,,,,,,,,,,,,,,,,,,,,,,,,,,,,,,,,,,,,,,,None,,470.99500449008775,None,470.99500449008775,None,2022-08-12-12:40:09.839801,470.9983449000865,471.311051200144,470.9983449000865,None,None,470.9983449000865,None,471.81076909003315,None,,,22011,0001,2022_Aug_12_1232,localizer,2021.1.3,59.92911583227335,
block,scenes,scenes070.bmp,,,,,0,181,181,181,,,,,,,,,,,,,,,,,,,,,,,,,,,,,,,,,,,,,,,,,,None,,471.81076909003315,None,471.81076909003315,None,2022-08-12-12:40:10.654761,471.82198330014944,472.12765930010937,471.82198330014944,None,None,471.82198330014944,None,472.6270695899846,None,,,22011,0001,2022_Aug_12_1232,localizer,2021.1.3,59.92911583227335,
block_end,scenes,scenes001.bmp,,,,,0,182,182,182,,,,,,,,,,,,,,,,,,,,,,,,,,,,,,,,,,,,,,,,,,None,,472.6270695899846,None,472.6270695899846,None,2022-08-12-12:40:11.469861,472.628284299979,472.95061210007407,472.628284299979,None,None,472.628284299979,None,473.4284699899843,None,,,22011,0001,2022_Aug_12_1232,localizer,2021.1.3,59.92911583227335,
block_start,faces,faces048.bmp,,,,,0,183,183,183,,,,,,,,,,,,,,,,,,,,,,,,,,,,,,,,,,,,,,,,,,t,1.758802100084722,473.4295533001423,None,473.4295533001423,None,2022-08-12-12:40:14.053705,475.211837900104,475.52761350013316,475.211837900104,None,None,475.211837900104,None,476.02711709013676,None,,,22011,0001,2022_Aug_12_1232,localizer,2021.1.3,59.92911583227335,
block,faces,faces088.bmp,,,,,0,184,184,184,,,,,,,,,,,,,,,,,,,,,,,,,,,,,,,,,,,,,,,,,,None,,476.02711709013676,None,476.02711709013676,None,2022-08-12-12:40:14.869919,476.02834410010837,476.34401010000147,476.02834410010837,None,None,476.02834410010837,None,476.82736279007514,None,,,22011,0001,2022_Aug_12_1232,localizer,2021.1.3,59.92911583227335,
block,faces,faces064.bmp,,,,,0,185,185,185,,,,,,,,,,,,,,,,,,,,,,,,,,,,,,,,,,,,,,,,,,None,,476.82736279007514,None,476.82736279007514,None,2022-08-12-12:40:15.672035,476.84049820015207,477.14404550008476,476.84049820015207,476.84049820015207,None,476.84049820015207,476.84049820015207,477.64406219015365,None,,,22011,0001,2022_Aug_12_1232,localizer,2021.1.3,59.92911583227335,
block,faces,faces054.bmp,,,,,0,186,186,186,,,,,,,,,,,,,,,,,,,,,,,,,,,,,,,,,,,,,,,,,,None,,477.64406219015365,None,477.64406219015365,None,2022-08-12-12:40:16.487067,477.6552866001148,477.9603681000881,477.6552866001148,None,None,477.6552866001148,None,478.46067589016167,None,,,22011,0001,2022_Aug_12_1232,localizer,2021.1.3,59.92911583227335,
block,faces,faces033.bmp,,,,,0,187,187,187,,,,,,,,,,,,,,,,,,,,,,,,,,,,,,,,,,,,,,,,,,None,,478.46067589016167,None,478.46067589016167,None,2022-08-12-12:40:17.303464,478.4785433001816,478.79375490010716,478.4785433001816,None,None,478.4785433001816,None,479.2774745901814,None,,,22011,0001,2022_Aug_12_1232,localizer,2021.1.3,59.92911583227335,
block,faces,faces027.bmp,,,,,0,188,188,188,,,,,,,,,,,,,,,,,,,,,,,,,,,,,,,,,,,,,,,,,,None,,479.2774745901814,None,479.2774745901814,None,2022-08-12-12:40:18.120261,479.2784677001182,479.580596400192,479.2784677001182,None,None,479.2784677001182,None,480.0939637900563,None,,,22011,0001,2022_Aug_12_1232,localizer,2021.1.3,59.92911583227335,
block,faces,faces068.bmp,,,,,0,189,189,189,,,,,,,,,,,,,,,,,,,,,,,,,,,,,,,,,,,,,,,,,,None,,480.0939637900563,None,480.0939637900563,None,2022-08-12-12:40:18.936894,480.09503440000117,480.3944816000294,480.09503440000117,None,None,480.09503440000117,None,480.89421559015756,None,,,22011,0001,2022_Aug_12_1232,localizer,2021.1.3,59.92911583227335,
block,faces,faces025.bmp,,,,,0,190,190,190,,,,,,,,,,,,,,,,,,,,,,,,,,,,,,,,,,,,,,,,,,None,,480.89421559015756,None,480.89421559015756,None,2022-08-12-12:40:19.739110,480.89599890005775,481.21105070016347,480.89599890005775,480.89599890005775,None,480.89599890005775,480.89599890005775,481.7110452901805,None,,,22011,0001,2022_Aug_12_1232,localizer,2021.1.3,59.92911583227335,
block,faces,faces042.bmp,,,,,0,191,191,191,,,,,,,,,,,,,,,,,,,,,,,,,,,,,,,,,,,,,,,,,,None,,481.7110452901805,None,481.7110452901805,None,2022-08-12-12:40:20.554040,481.72194780013524,482.02705819997936,481.72194780013524,None,None,481.72194780013524,None,482.52742029011716,None,,,22011,0001,2022_Aug_12_1232,localizer,2021.1.3,59.92911583227335,
block,faces,faces071.bmp,,,,,0,192,192,192,,,,,,,,,,,,,,,,,,,,,,,,,,,,,,,,,,,,,,,,,,None,,482.52742029011716,None,482.52742029011716,None,2022-08-12-12:40:21.370206,482.534316400066,482.8439637001138,482.534316400066,None,None,482.534316400066,None,483.34460139002186,None,,,22011,0001,2022_Aug_12_1232,localizer,2021.1.3,59.92911583227335,
block,faces,faces003.bmp,,,,,0,193,193,193,,,,,,,,,,,,,,,,,,,,,,,,,,,,,,,,,,,,,,,,,,None,,483.34460139002186,None,483.34460139002186,None,2022-08-12-12:40:22.188375,483.3562074000947,483.6607643000316,483.3562074000947,None,None,483.3562074000947,None,484.1610007901443,None,,,22011,0001,2022_Aug_12_1232,localizer,2021.1.3,59.92911583227335,
block,faces,faces026.bmp,,,,,0,194,194,194,,,,,,,,,,,,,,,,,,,,,,,,,,,,,,,,,,,,,,,,,,None,,484.1610007901443,None,484.1610007901443,None,2022-08-12-12:40:23.003997,484.20678720017895,484.5106776000466,484.20678720017895,None,None,484.20678720017895,None,484.97714359017556,None,,,22011,0001,2022_Aug_12_1232,localizer,2021.1.3,59.92911583227335,
block,faces,faces082.bmp,,,,,0,195,195,195,,,,,,,,,,,,,,,,,,,,,,,,,,,,,,,,,,,,,,,,,,None,,484.97714359017556,None,484.97714359017556,None,2022-08-12-12:40:23.819936,484.97831759997644,485.2939063999802,484.97831759997644,None,None,484.97831759997644,None,485.7784596901154,None,,,22011,0001,2022_Aug_12_1232,localizer,2021.1.3,59.92911583227335,
block,faces,faces078.bmp,,,,,0,196,196,196,,,,,,,,,,,,,,,,,,,,,,,,,,,,,,,,,,,,,,,,,,None,,485.7784596901154,None,485.7784596901154,None,2022-08-12-12:40:24.626220,485.7850667000748,486.0940494001843,485.7850667000748,485.7850667000748,None,485.7850667000748,485.7850667000748,486.5945642900886,None,,,22011,0001,2022_Aug_12_1232,localizer,2021.1.3,59.92911583227335,
block_end,faces,faces058.bmp,,,,,0,197,197,197,,,,,,,,,,,,,,,,,,,,,,,,,,,,,,,,,,,,,,,,,,None,,486.5945642900886,None,486.5945642900886,None,2022-08-12-12:40:25.438338,486.60750200017355,486.91063410020433,486.60750200017355,None,None,486.60750200017355,None,487.4115127900848,None,,,22011,0001,2022_Aug_12_1232,localizer,2021.1.3,59.92911583227335,
block_start,objects,objects086.bmp,,,,,0,198,198,198,,,,,,,,,,,,,,,,,,,,,,,,,,,,,,,,,,,,,,,,,,t,1.7767986999824643,487.4115759001579,None,487.4115759001579,None,2022-08-12-12:40:28.056796,489.2255907000508,489.52809480018914,489.2255907000508,None,None,489.2255907000508,None,490.02773159004283,None,,,22011,0001,2022_Aug_12_1232,localizer,2021.1.3,59.92911583227335,
block,objects,objects048.bmp,,,,,0,199,199,199,,,,,,,,,,,,,,,,,,,,,,,,,,,,,,,,,,,,,,,,,,None,,490.02773159004283,None,490.02773159004283,None,2022-08-12-12:40:28.871510,490.03862150013447,490.3440315001644,490.03862150013447,None,None,490.03862150013447,None,490.84449279012625,None,,,22011,0001,2022_Aug_12_1232,localizer,2021.1.3,59.92911583227335,
block,objects,objects012.bmp,,,,,0,200,200,200,,,,,,,,,,,,,,,,,,,,,,,,,,,,,,,,,,,,,,,,,,None,,490.84449279012625,None,490.84449279012625,None,2022-08-12-12:40:29.688274,490.845046200091,491.144530300051,490.845046200091,None,None,490.845046200091,None,491.64419209009503,None,,,22011,0001,2022_Aug_12_1232,localizer,2021.1.3,59.92911583227335,
block,objects,objects012.bmp,,,,,0,201,201,201,,,,,,,,,,,,,,,,,,,,,,,,,,,,,,,,,,,,,,,,,,None,,491.64419209009503,None,491.64419209009503,None,2022-08-12-12:40:30.489179,491.64703250001185,491.9606488000136,491.64703250001185,491.64703250001185,None,491.64703250001185,491.64703250001185,492.46136069002097,None,,,22011,0001,2022_Aug_12_1232,localizer,2021.1.3,59.92911583227335,
block,objects,objects060.bmp,,,,,0,202,202,202,,,,,,,,,,,,,,,,,,,,,,,,,,,,,,,,,,,,,,,,,,None,,492.46136069002097,None,492.46136069002097,None,2022-08-12-12:40:31.305320,492.4637045999989,492.7781438000966,492.4637045999989,None,None,492.4637045999989,None,493.2779820899712,None,,,22011,0001,2022_Aug_12_1232,localizer,2021.1.3,59.92911583227335,
block,objects,objects082.bmp,,,,,0,203,203,203,,,,,,,,,,,,,,,,,,,,,,,,,,,,,,,,,,,,,,,,,,None,,493.2779820899712,None,493.2779820899712,None,2022-08-12-12:40:32.121884,493.28014150005765,493.59420880000107,493.28014150005765,None,None,493.28014150005765,None,494.0952687899815,None,,,22011,0001,2022_Aug_12_1232,localizer,2021.1.3,59.92911583227335,
block,objects,objects017.bmp,,,,,0,204,204,204,,,,,,,,,,,,,,,,,,,,,,,,,,,,,,,,,,,,,,,,,,None,,494.0952687899815,None,494.0952687899815,None,2022-08-12-12:40:32.940220,494.09851659997366,494.41156420018524,494.09851659997366,None,None,494.09851659997366,None,494.9113448900869,None,,,22011,0001,2022_Aug_12_1232,localizer,2021.1.3,59.92911583227335,
block,objects,objects061.bmp,,,,,0,205,205,205,,,,,,,,,,,,,,,,,,,,,,,,,,,,,,,,,,,,,,,,,,None,,494.9113448900869,None,494.9113448900869,None,2022-08-12-12:40:33.755314,494.92552340007387,495.22718930011615,494.92552340007387,None,None,494.92552340007387,None,495.7302061899798,None,,,22011,0001,2022_Aug_12_1232,localizer,2021.1.3,59.92911583227335,
block,objects,objects022.bmp,,,,,0,206,206,206,,,,,,,,,,,,,,,,,,,,,,,,,,,,,,,,,,,,,,,,,,None,,495.7302061899798,None,495.7302061899798,None,2022-08-12-12:40:34.573131,495.72867890005,496.0282005001791,495.72867890005,None,None,495.72867890005,None,496.54407529004385,None,,,22011,0001,2022_Aug_12_1232,localizer,2021.1.3,59.92911583227335,
block,objects,objects059.bmp,,,,,0,207,207,207,,,,,,,,,,,,,,,,,,,,,,,,,,,,,,,,,,,,,,,,,,None,,496.54407529004385,None,496.54407529004385,None,2022-08-12-12:40:35.386866,496.55423780018464,496.8607215001248,496.55423780018464,None,None,496.55423780018464,None,497.36151749019047,None,,,22011,0001,2022_Aug_12_1232,localizer,2021.1.3,59.92911583227335,
block,objects,objects015.bmp,,,,,0,208,208,208,,,,,,,,,,,,,,,,,,,,,,,,,,,,,,,,,,,,,,,,,,None,,497.36151749019047,None,497.36151749019047,None,2022-08-12-12:40:36.205291,497.36379140010104,497.67729080002755,497.36379140010104,None,None,497.36379140010104,None,498.1777823901037,None,,,22011,0001,2022_Aug_12_1232,localizer,2021.1.3,59.92911583227335,
block,objects,objects075.bmp,,,,,0,209,209,209,,,,,,,,,,,,,,,,,,,,,,,,,,,,,,,,,,,,,,,,,,None,,498.1777823901037,None,498.1777823901037,None,2022-08-12-12:40:37.021558,498.184876000043,498.49436800018884,498.184876000043,None,None,498.184876000043,None,498.99429099012633,None,,,22011,0001,2022_Aug_12_1232,localizer,2021.1.3,59.92911583227335,
block,objects,objects051.bmp,,,,,0,210,210,210,,,,,,,,,,,,,,,,,,,,,,,,,,,,,,,,,,,,,,,,,,None,,498.99429099012633,None,498.99429099012633,None,2022-08-12-12:40:37.838277,499.0052193000447,499.310926400125,499.0052193000447,None,None,499.0052193000447,None,499.81088989002166,None,,,22011,0001,2022_Aug_12_1232,localizer,2021.1.3,59.92911583227335,
block,objects,objects071.bmp,,,,,0,211,211,211,,,,,,,,,,,,,,,,,,,,,,,,,,,,,,,,,,,,,,,,,,None,,499.81088989002166,None,499.81088989002166,None,2022-08-12-12:40:38.653673,499.8117325999774,500.11202060012147,499.8117325999774,None,None,499.8117325999774,None,500.61199689011556,None,,,22011,0001,2022_Aug_12_1232,localizer,2021.1.3,59.92911583227335,
block_end,objects,objects034.bmp,,,,,0,212,212,212,,,,,,,,,,,,,,,,,,,,,,,,,,,,,,,,,,,,,,,,,,None,,500.61199689011556,None,500.61199689011556,None,2022-08-12-12:40:39.458943,500.616336800158,500.9338331001345,500.616336800158,500.616336800158,None,500.616336800158,500.616336800158,501.4280823900597,None,,,22011,0001,2022_Aug_12_1232,localizer,2021.1.3,59.92911583227335,
block_start,scenes,scenes023.bmp,,,,,0,213,213,213,,,,,,,,,,,,,,,,,,,,,,,,,,,,,,,,,,,,,,,,,,t,1.7603572998195887,501.42822740017436,None,501.42822740017436,None,2022-08-12-12:40:42.056690,503.21460050018504,503.52693559997715,503.21460050018504,None,None,503.21460050018504,None,504.02724948998076,None,,,22011,0001,2022_Aug_12_1232,localizer,2021.1.3,59.92911583227335,
block,scenes,scenes015.bmp,,,,,0,214,214,214,,,,,,,,,,,,,,,,,,,,,,,,,,,,,,,,,,,,,,,,,,None,,504.02724948998076,None,504.02724948998076,None,2022-08-12-12:40:42.869640,504.0287375000771,504.3447834001854,504.0287375000771,None,None,504.0287375000771,None,504.82871619013605,None,,,22011,0001,2022_Aug_12_1232,localizer,2021.1.3,59.92911583227335,
block,scenes,scenes090.bmp,,,,,0,215,215,215,,,,,,,,,,,,,,,,,,,,,,,,,,,,,,,,,,,,,,,,,,None,,504.82871619013605,None,504.82871619013605,None,2022-08-12-12:40:43.675478,504.84475480020046,505.1446754001081,504.84475480020046,504.84475480020046,None,504.84475480020046,504.84475480020046,505.6439096900402,None,,,22011,0001,2022_Aug_12_1232,localizer,2021.1.3,59.92911583227335,
block,scenes,scenes014.bmp,,,,,0,216,216,216,,,,,,,,,,,,,,,,,,,,,,,,,,,,,,,,,,,,,,,,,,None,,505.6439096900402,None,505.6439096900402,None,2022-08-12-12:40:44.486705,505.65458400011994,505.9636854000855,505.65458400011994,None,None,505.65458400011994,None,506.46110229014886,None,,,22011,0001,2022_Aug_12_1232,localizer,2021.1.3,59.92911583227335,
block,scenes,scenes078.bmp,,,,,0,217,217,217,,,,,,,,,,,,,,,,,,,,,,,,,,,,,,,,,,,,,,,,,,None,,506.46110229014886,None,506.46110229014886,None,2022-08-12-12:40:45.303885,506.46186719997786,506.7773606001865,506.46186719997786,None,None,506.46186719997786,None,507.27748889017386,None,,,22011,0001,2022_Aug_12_1232,localizer,2021.1.3,59.92911583227335,
block,scenes,scenes025.bmp,,,,,0,218,218,218,,,,,,,,,,,,,,,,,,,,,,,,,,,,,,,,,,,,,,,,,,None,,507.27748889017386,None,507.27748889017386,None,2022-08-12-12:40:46.120278,507.2929978000466,507.5941306001041,507.2929978000466,None,None,507.2929978000466,None,508.09438989015763,None,,,22011,0001,2022_Aug_12_1232,localizer,2021.1.3,59.92911583227335,
block,scenes,scenes010.bmp,,,,,0,219,219,219,,,,,,,,,,,,,,,,,,,,,,,,,,,,,,,,,,,,,,,,,,None,,508.09438989015763,None,508.09438989015763,None,2022-08-12-12:40:46.938366,508.09530350007117,508.3948402001988,508.09530350007117,None,None,508.09530350007117,None,508.89477959002835,None,,,22011,0001,2022_Aug_12_1232,localizer,2021.1.3,59.92911583227335,
block,scenes,scenes054.bmp,,,,,0,220,220,220,,,,,,,,,,,,,,,,,,,,,,,,,,,,,,,,,,,,,,,,,,None,,508.89477959002835,None,508.89477959002835,None,2022-08-12-12:40:47.740551,508.91097940015607,509.2109890000429,508.91097940015607,508.91097940015607,None,508.91097940015607,508.91097940015607,509.7109019901371,None,,,22011,0001,2022_Aug_12_1232,localizer,2021.1.3,59.92911583227335,
block,scenes,scenes029.bmp,,,,,0,221,221,221,,,,,,,,,,,,,,,,,,,,,,,,,,,,,,,,,,,,,,,,,,None,,509.7109019901371,None,509.7109019901371,None,2022-08-12-12:40:48.553905,509.722104200162,510.02881889999844,509.722104200162,None,None,509.722104200162,None,510.52761099005585,None,,,22011,0001,2022_Aug_12_1232,localizer,2021.1.3,59.92911583227335,
block,scenes,scenes018.bmp,,,,,0,222,222,222,,,,,,,,,,,,,,,,,,,,,,,,,,,,,,,,,,,,,,,,,,None,,510.52761099005585,None,510.52761099005585,None,2022-08-12-12:40:49.370506,510.5387277000118,510.8452353000175,510.5387277000118,None,None,510.5387277000118,None,511.34409199010116,None,,,22011,0001,2022_Aug_12_1232,localizer,2021.1.3,59.92911583227335,
block,scenes,scenes086.bmp,,,,,0,223,223,223,,,,,,,,,,,,,,,,,,,,,,,,,,,,,,,,,,,,,,,,,,None,,511.34409199010116,None,511.34409199010116,None,2022-08-12-12:40:50.186881,511.35418200003915,511.6611113001127,511.35418200003915,None,None,511.35418200003915,None,512.1614146901527,None,,,22011,0001,2022_Aug_12_1232,localizer,2021.1.3,59.92911583227335,
block,scenes,scenes003.bmp,,,,,0,224,224,224,,,,,,,,,,,,,,,,,,,,,,,,,,,,,,,,,,,,,,,,,,None,,512.1614146901527,None,512.1614146901527,None,2022-08-12-12:40:51.005344,512.1757708999794,512.4776265001856,512.1757708999794,None,None,512.1757708999794,None,512.9777019900037,None,,,22011,0001,2022_Aug_12_1232,localizer,2021.1.3,59.92911583227335,
block,scenes,scenes092.bmp,,,,,0,225,225,225,,,,,,,,,,,,,,,,,,,,,,,,,,,,,,,,,,,,,,,,,,None,,512.9777019900037,None,512.9777019900037,None,2022-08-12-12:40:51.820601,512.9842080001254,513.2941902000457,512.9842080001254,None,None,512.9842080001254,None,513.7944301900686,None,,,22011,0001,2022_Aug_12_1232,localizer,2021.1.3,59.92911583227335,
block,scenes,scenes072.bmp,,,,,0,226,226,226,,,,,,,,,,,,,,,,,,,,,,,,,,,,,,,,,,,,,,,,,,None,,513.7944301900686,None,513.7944301900686,None,2022-08-12-12:40:52.637213,513.8053657000419,514.1107956999913,513.8053657000419,None,None,513.8053657000419,None,514.6108269901713,None,,,22011,0001,2022_Aug_12_1232,localizer,2021.1.3,59.92911583227335,
block_end,scenes,scenes033.bmp,,,,,0,227,227,227,,,,,,,,,,,,,,,,,,,,,,,,,,,,,,,,,,,,,,,,,,None,,514.6108269901713,None,514.6108269901713,None,2022-08-12-12:40:53.453614,514.6119109999854,514.9102223999798,514.6119109999854,None,None,514.6119109999854,None,515.4115293899783,None,,,22011,0001,2022_Aug_12_1232,localizer,2021.1.3,59.92911583227335,
null_block,null_block,null_block.bmp,,,,,0,228,228,228,,,,,,,,,,,,,,,,,,,,,,,,,,,,,,,,,,,,,,,,,,t,1.7767976999748498,515.411786200013,None,515.411786200013,None,2022-08-12-12:40:56.056822,517.2120383901754,None,517.2120383901754,None,None,517.2120383901754,None,517.2196645999793,None,,,22011,0001,2022_Aug_12_1232,localizer,2021.1.3,59.92911583227335,
block_start,scrambled,scrambled085.bmp,,,,,0,229,229,229,,,,,,,,,,,,,,,,,,,,,,,,,,,,,,,,,,,,,,,,,,t,1.960794399958104,529.2277687001042,None,529.2277687001042,None,2022-08-12-12:41:10.057659,531.2208232001867,531.5277598001994,531.2208232001867,None,None,531.2208232001867,None,532.0275726901134,None,,,22011,0001,2022_Aug_12_1232,localizer,2021.1.3,59.92911583227335,
block,scrambled,scrambled064.bmp,,,,,0,230,230,230,,,,,,,,,,,,,,,,,,,,,,,,,,,,,,,,,,,,,,,,,,None,,532.0275726901134,None,532.0275726901134,None,2022-08-12-12:41:10.870862,532.038800700102,532.3442695999984,532.038800700102,None,None,532.038800700102,None,532.8442024901276,None,,,22011,0001,2022_Aug_12_1232,localizer,2021.1.3,59.92911583227335,
block,scrambled,scrambled060.bmp,,,,,0,231,231,231,,,,,,,,,,,,,,,,,,,,,,,,,,,,,,,,,,,,,,,,,,None,,532.8442024901276,None,532.8442024901276,None,2022-08-12-12:41:11.687195,532.854854500154,533.161511000013,532.854854500154,None,None,532.854854500154,None,533.6610871901037,None,,,22011,0001,2022_Aug_12_1232,localizer,2021.1.3,59.92911583227335,
block,scrambled,scrambled054.bmp,,,,,0,232,232,232,,,,,,,,,,,,,,,,,,,,,,,,,,,,,,,,,,,,,,,,,,None,,533.6610871901037,None,533.6610871901037,None,2022-08-12-12:41:12.504080,533.672106300015,533.9788294001482,533.672106300015,None,None,533.672106300015,None,534.4788999900454,None,,,22011,0001,2022_Aug_12_1232,localizer,2021.1.3,59.92911583227335,
block,scrambled,scrambled076.bmp,,,,,0,233,233,233,,,,,,,,,,,,,,,,,,,,,,,,,,,,,,,,,,,,,,,,,,None,,534.4788999900454,None,534.4788999900454,None,2022-08-12-12:41:13.324208,534.4882795000449,534.7950206000824,534.4882795000449,None,None,534.4882795000449,None,535.2941011901246,None,,,22011,0001,2022_Aug_12_1232,localizer,2021.1.3,59.92911583227335,
block,scrambled,scrambled029.bmp,,,,,0,234,234,234,,,,,,,,,,,,,,,,,,,,,,,,,,,,,,,,,,,,,,,,,,None,,535.2941011901246,None,535.2941011901246,None,2022-08-12-12:41:14.136892,535.2952153000515,535.611068499973,535.2952153000515,None,None,535.2952153000515,None,536.1110278901876,None,,,22011,0001,2022_Aug_12_1232,localizer,2021.1.3,59.92911583227335,
block,scrambled,scrambled088.bmp,,,,,0,235,235,235,,,,,,,,,,,,,,,,,,,,,,,,,,,,,,,,,,,,,,,,,,None,,536.1110278901876,None,536.1110278901876,None,2022-08-12-12:41:14.953967,536.12176190014,536.4277343000285,536.12176190014,None,None,536.12176190014,None,536.9292724901577,None,,,22011,0001,2022_Aug_12_1232,localizer,2021.1.3,59.92911583227335,
block,scrambled,scrambled056.bmp,,,,,0,236,236,236,,,,,,,,,,,,,,,,,,,,,,,,,,,,,,,,,,,,,,,,,,None,,536.9292724901577,None,536.9292724901577,None,2022-08-12-12:41:15.771093,536.9374879000243,537.2442315001972,536.9374879000243,None,None,536.9374879000243,None,537.7453562899725,None,,,22011,0001,2022_Aug_12_1232,localizer,2021.1.3,59.92911583227335,
block,scrambled,scrambled019.bmp,,,,,0,237,237,237,,,,,,,,,,,,,,,,,,,,,,,,,,,,,,,,,,,,,,,,,,None,,537.7453562899725,None,537.7453562899725,None,2022-08-12-12:41:16.589312,537.7480117999949,538.0609232001007,537.7480117999949,None,None,537.7480117999949,None,538.5630275901174,None,,,22011,0001,2022_Aug_12_1232,localizer,2021.1.3,59.92911583227335,
block,scrambled,scrambled049.bmp,,,,,0,238,238,238,,,,,,,,,,,,,,,,,,,,,,,,,,,,,,,,,,,,,,,,,,None,,538.5630275901174,None,538.5630275901174,None,2022-08-12-12:41:17.410800,538.5803305001464,538.8944244000595,538.5803305001464,None,None,538.5803305001464,None,539.3779650901677,None,,,22011,0001,2022_Aug_12_1232,localizer,2021.1.3,59.92911583227335,
block,scrambled,scrambled050.bmp,,,,,0,239,239,239,,,,,,,,,,,,,,,,,,,,,,,,,,,,,,,,,,,,,,,,,,None,,539.3779650901677,None,539.3779650901677,None,2022-08-12-12:41:18.220938,539.3856184000615,539.6951169001404,539.3856184000615,None,None,539.3856184000615,None,540.1943294900236,None,,,22011,0001,2022_Aug_12_1232,localizer,2021.1.3,59.92911583227335,
block,scrambled,scrambled007.bmp,,,,,0,240,240,240,,,,,,,,,,,,,,,,,,,,,,,,,,,,,,,,,,,,,,,,,,None,,540.1943294900236,None,540.1943294900236,None,2022-08-12-12:41:19.037114,540.2053352000657,540.5117030001711,540.2053352000657,None,None,540.2053352000657,None,541.0121356901479,None,,,22011,0001,2022_Aug_12_1232,localizer,2021.1.3,59.92911583227335,
block,scrambled,scrambled002.bmp,,,,,0,241,241,241,,,,,,,,,,,,,,,,,,,,,,,,,,,,,,,,,,,,,,,,,,None,,541.0121356901479,None,541.0121356901479,None,2022-08-12-12:41:19.856094,541.0275149000809,541.3274404001422,541.0275149000809,None,None,541.0275149000809,None,541.8276337900431,None,,,22011,0001,2022_Aug_12_1232,localizer,2021.1.3,59.92911583227335,
block,scrambled,scrambled031.bmp,,,,,0,242,242,242,,,,,,,,,,,,,,,,,,,,,,,,,,,,,,,,,,,,,,,,,,None,,541.8276337900431,None,541.8276337900431,None,2022-08-12-12:41:20.669914,541.8406484001316,542.1443793000653,541.8406484001316,None,None,541.8406484001316,None,542.6444930900586,None,,,22011,0001,2022_Aug_12_1232,localizer,2021.1.3,59.92911583227335,
block_end,scrambled,scrambled014.bmp,,,,,0,243,243,243,,,,,,,,,,,,,,,,,,,,,,,,,,,,,,,,,,,,,,,,,,None,,542.6444930900586,None,542.6444930900586,None,2022-08-12-12:41:21.487278,542.655438200105,542.9610253002029,542.655438200105,None,None,542.655438200105,None,543.4625738901784,None,,,22011,0001,2022_Aug_12_1232,localizer,2021.1.3,59.92911583227335,
,,,,,,,,,,,,,,,,,,,,,,,,,,,,,,,,,,,,,,,,,,,,,,,,,,,,,,,,,,,,,,,,,,,,543.463379900204,None,,,,,,,
