block_type,condition,img_name,Button.thisRepN,Button.thisTrialN,Button.thisN,Button.thisIndex,trials.thisRepN,trials.thisTrialN,trials.thisN,trials.thisIndex,Ready_experimenter_text.started,Ready_experimenter_text.stopped,Ready_experimenter_resp.keys,Ready_experimenter_resp.rt,Ready_experimenter_resp.started,Ready_experimenter_resp.stopped,Alignment_background.started,Alignment_background.stopped,Alignment_image.started,Alignment_image.stopped,Alignment_resp.keys,Alignment_resp.rt,Alignment_resp.started,Alignment_resp.stopped,Button_text.started,Button_text.stopped,Index_text.started,Index_text.stopped,Index_resp.keys,Index_resp.rt,Index_resp.started,Index_resp.stopped,Middle_text.started,Middle_text.stopped,Middle_resp.keys,Middle_resp.rt,Middle_resp.started,Middle_resp.stopped,Repeat_text.started,Repeat_text.stopped,Repeat_resp.keys,Repeat_resp.corr,Repeat_resp.rt,Repeat_resp.started,Repeat_resp.stopped,instruction_text.started,instruction_text.stopped,key_resp.keys,key_resp.rt,key_resp.started,key_resp.stopped,scanner_t.keys,scanner_t.rt,scanner_t.started,scanner_t.stopped,fixation_wait_for_t.started,fixation_wait_for_t.stopped,real_timestamp_trial_start,image.started,image.stopped,fixation.started,fixation.stopped,repeat_response.keys,repeat_response.started,repeat_response.stopped,fixation_null.started,fixation_null.stopped,repeat_response.rt,end_text.started,end_text.stopped,participant,run,date,expName,psychopyVersion,frameRate,
,,,,,,,,,,,9.175924600014696,None,return,25.893873599998187,9.175924600014696,None,,,,,,,,,,,,,,,,,,,,,,,,,,,,,,,,,,,,,,,,,,,,,,,,,,,,,,,11004,0001,2022_Jan_24_0827,localizer,2021.1.3,62.3713590667224,
,,,,,,,,,,,,,,,,,35.11760360002518,None,35.11760360002518,None,return,7.1587397000112105,35.11760360002518,None,,,,,,,,,,,,,,,,,,,,,,,,,,,,,,,,,,,,,,,,,,,,,,,11004,0001,2022_Jan_24_0827,localizer,2021.1.3,62.3713590667224,
,,,0,0,0,0,,,,,,,,,,,,,,,,,,,42.29631600002176,None,43.31349620001856,None,y,2.8583255999838,43.31349620001856,None,46.19138030000613,None,b,1.5036121000011917,46.19138030000613,None,47.7243548000115,None,n,0,2.8078382999810856,47.7243548000115,None,,,,,,,,,,,,,,,,,,,,,,,,,,11004,0001,2022_Jan_24_0827,localizer,2021.1.3,62.3713590667224,
,,,,,,,,,,,,,,,,,,,,,,,,,,,,,,,,,,,,,,,,,,,,,,50.55921659999876,None,y,33.02950289999717,50.55921659999876,None,,,,,,,,,,,,,,,,,,,,11004,0001,2022_Jan_24_0827,localizer,2021.1.3,62.3713590667224,
null_block,null_block,null_block.bmp,,,,,0,0,0,0,,,,,,,,,,,,,,,,,,,,,,,,,,,,,,,,,,,,,,,,,,t,19.636667900020257,83.67529189999914,None,83.67529189999914,None,2022-01-24-08:28:57.216649,103.34357232000912,None,103.34357232000912,None,None,103.34357232000912,None,103.34862600002089,None,,,,11004,0001,2022_Jan_24_0827,localizer,2021.1.3,62.3713590667224,
block_start,scenes,scenes085.bmp,,,,,0,1,1,1,,,,,,,,,,,,,,,,,,,,,,,,,,,,,,,,,,,,,,,,,,t,1.95099109999137,115.36081050001667,None,115.36081050001667,None,2022-01-24-08:29:11.231367,117.35331180001958,117.65791060001357,117.35331180001958,None,None,117.35331180001958,None,118.15795576001983,None,,,,11004,0001,2022_Jan_24_0827,localizer,2021.1.3,62.3713590667224,
block,scenes,scenes057.bmp,,,,,0,2,2,2,,,,,,,,,,,,,,,,,,,,,,,,,,,,,,,,,,,,,,,,,,None,,118.15795576001983,None,118.15795576001983,None,2022-01-24-08:29:12.046133,118.16920850001043,118.47509170000558,118.16920850001043,None,None,118.16920850001043,None,118.97436716000084,None,,,,11004,0001,2022_Jan_24_0827,localizer,2021.1.3,62.3713590667224,
block,scenes,scenes032.bmp,,,,,0,3,3,3,,,,,,,,,,,,,,,,,,,,,,,,,,,,,,,,,,,,,,,,,,None,,118.97436716000084,None,118.97436716000084,None,2022-01-24-08:29:12.862532,118.98053670002264,119.29353799999808,118.98053670002264,None,None,118.98053670002264,None,119.79003516002558,None,,,,11004,0001,2022_Jan_24_0827,localizer,2021.1.3,62.3713590667224,
block,scenes,scenes017.bmp,,,,,0,4,4,4,,,,,,,,,,,,,,,,,,,,,,,,,,,,,,,,,,,,,,,,,,None,,119.79003516002558,None,119.79003516002558,None,2022-01-24-08:29:13.677300,119.79369540000334,120.10756240002229,119.79369540000334,None,None,119.79369540000334,None,120.61328846000833,None,,,,11004,0001,2022_Jan_24_0827,localizer,2021.1.3,62.3713590667224,
block,scenes,scenes081.bmp,,,,,0,5,5,5,,,,,,,,,,,,,,,,,,,,,,,,,,,,,,,,,,,,,,,,,,None,,120.61328846000833,None,120.61328846000833,None,2022-01-24-08:29:14.500497,120.62184110001544,120.93076730001485,120.62184110001544,None,None,120.62184110001544,None,121.4234892600216,None,,,,11004,0001,2022_Jan_24_0827,localizer,2021.1.3,62.3713590667224,
block,scenes,scenes035.bmp,,,,,0,6,6,6,,,,,,,,,,,,,,,,,,,,,,,,,,,,,,,,,,,,,,,,,,None,,121.4234892600216,None,121.4234892600216,None,2022-01-24-08:29:15.310683,121.42776030002278,121.73267960001249,121.42776030002278,None,None,121.42776030002278,None,122.24015896001947,None,,,,11004,0001,2022_Jan_24_0827,localizer,2021.1.3,62.3713590667224,
block,scenes,scenes075.bmp,,,,,0,7,7,7,,,,,,,,,,,,,,,,,,,,,,,,,,,,,,,,,,,,,,,,,,None,,122.24015896001947,None,122.24015896001947,None,2022-01-24-08:29:16.127554,122.24418000000878,122.55745480000041,122.24418000000878,None,None,122.24418000000878,None,123.0575353600143,None,,,,11004,0001,2022_Jan_24_0827,localizer,2021.1.3,62.3713590667224,
block,scenes,scenes020.bmp,,,,,0,8,8,8,,,,,,,,,,,,,,,,,,,,,,,,,,,,,,,,,,,,,,,,,,None,,123.0575353600143,None,123.0575353600143,None,2022-01-24-08:29:16.945087,123.06537130000652,123.37401060000411,123.06537130000652,None,None,123.06537130000652,None,123.8740290600108,None,,,,11004,0001,2022_Jan_24_0827,localizer,2021.1.3,62.3713590667224,
block,scenes,scenes040.bmp,,,,,0,9,9,9,,,,,,,,,,,,,,,,,,,,,,,,,,,,,,,,,,,,,,,,,,None,,123.8740290600108,None,123.8740290600108,None,2022-01-24-08:29:17.762148,123.88424460001988,124.19106730000931,123.88424460001988,None,None,123.88424460001988,None,124.69004236001638,None,,,,11004,0001,2022_Jan_24_0827,localizer,2021.1.3,62.3713590667224,
block,scenes,scenes066.bmp,,,,,0,10,10,10,,,,,,,,,,,,,,,,,,,,,,,,,,,,,,,,,,,,,,,,,,None,,124.69004236001638,None,124.69004236001638,None,2022-01-24-08:29:18.577273,124.69485150001128,125.00755690000369,124.69485150001128,None,None,124.69485150001128,None,125.50733266002499,None,,,,11004,0001,2022_Jan_24_0827,localizer,2021.1.3,62.3713590667224,
block,scenes,scenes009.bmp,,,,,0,11,11,11,,,,,,,,,,,,,,,,,,,,,,,,,,,,,,,,,,,,,,,,,,None,,125.50733266002499,None,125.50733266002499,None,2022-01-24-08:29:19.394499,125.51535290002357,125.82479760001297,125.51535290002357,None,None,125.51535290002357,None,126.32407896002405,None,,,,11004,0001,2022_Jan_24_0827,localizer,2021.1.3,62.3713590667224,
block,scenes,scenes011.bmp,,,,,0,12,12,12,,,,,,,,,,,,,,,,,,,,,,,,,,,,,,,,,,,,,,,,,,None,,126.32407896002405,None,126.32407896002405,None,2022-01-24-08:29:20.212268,126.33332060000976,126.6411862000241,126.33332060000976,None,None,126.33332060000976,None,127.14139616000466,None,,,,11004,0001,2022_Jan_24_0827,localizer,2021.1.3,62.3713590667224,
block,scenes,scenes007.bmp,,,,,0,13,13,13,,,,,,,,,,,,,,,,,,,,,,,,,,,,,,,,,,,,,,,,,,None,,127.14139616000466,None,127.14139616000466,None,2022-01-24-08:29:21.029774,127.15317170001799,127.45795470001758,127.15317170001799,None,None,127.15317170001799,None,127.95788106002146,None,,,,11004,0001,2022_Jan_24_0827,localizer,2021.1.3,62.3713590667224,
block,scenes,scenes030.bmp,,,,,0,14,14,14,,,,,,,,,,,,,,,,,,,,,,,,,,,,,,,,,,,,,,,,,,None,,127.95788106002146,None,127.95788106002146,None,2022-01-24-08:29:21.846061,127.96879780001473,128.2748318000231,127.96879780001473,None,None,127.96879780001473,None,128.7745808600157,None,,,,11004,0001,2022_Jan_24_0827,localizer,2021.1.3,62.3713590667224,
block_end,scenes,scenes019.bmp,,,,,0,15,15,15,,,,,,,,,,,,,,,,,,,,,,,,,,,,,,,,,,,,,,,,,,None,,128.7745808600157,None,128.7745808600157,None,2022-01-24-08:29:22.662959,128.78466480001225,129.09140340000158,128.78466480001225,None,None,128.78466480001225,None,129.59137706001638,None,,,,11004,0001,2022_Jan_24_0827,localizer,2021.1.3,62.3713590667224,
block_start,scrambled,scrambled055.bmp,,,,,0,16,16,16,,,,,,,,,,,,,,,,,,,,,,,,,,,,,,,,,,,,,,,,,,t,1.720167199993739,129.591665200016,None,129.591665200016,None,2022-01-24-08:29:25.228845,131.35041780001484,131.65795700001763,131.35041780001484,None,None,131.35041780001484,None,132.15748846001225,None,,,,11004,0001,2022_Jan_24_0827,localizer,2021.1.3,62.3713590667224,
block,scrambled,scrambled081.bmp,,,,,0,17,17,17,,,,,,,,,,,,,,,,,,,,,,,,,,,,,,,,,,,,,,,,,,None,,132.15748846001225,None,132.15748846001225,None,2022-01-24-08:29:26.045639,132.1725547000242,132.47529250002117,132.1725547000242,None,None,132.1725547000242,None,132.97467146001873,None,,,,11004,0001,2022_Jan_24_0827,localizer,2021.1.3,62.3713590667224,
block,scrambled,scrambled066.bmp,,,,,0,18,18,18,,,,,,,,,,,,,,,,,,,,,,,,,,,,,,,,,,,,,,,,,,None,,132.97467146001873,None,132.97467146001873,None,2022-01-24-08:29:26.863043,132.98583050002344,133.29088740001316,132.98583050002344,None,None,132.98583050002344,None,133.79114306002157,None,,,,11004,0001,2022_Jan_24_0827,localizer,2021.1.3,62.3713590667224,
block,scrambled,scrambled051.bmp,,,,,0,19,19,19,,,,,,,,,,,,,,,,,,,,,,,,,,,,,,,,,,,,,,,,,,None,,133.79114306002157,None,133.79114306002157,None,2022-01-24-08:29:27.678405,133.80125390001922,134.10945240000729,133.80125390001922,None,None,133.80125390001922,None,134.60950816000695,None,,,,11004,0001,2022_Jan_24_0827,localizer,2021.1.3,62.3713590667224,
block,scrambled,scrambled046.bmp,,,,,0,20,20,20,,,,,,,,,,,,,,,,,,,,,,,,,,,,,,,,,,,,,,,,,,None,,134.60950816000695,None,134.60950816000695,None,2022-01-24-08:29:28.500569,134.62469840000267,134.9259080000047,134.62469840000267,None,None,134.62469840000267,None,135.4247906600067,None,,,,11004,0001,2022_Jan_24_0827,localizer,2021.1.3,62.3713590667224,
block,scrambled,scrambled068.bmp,,,,,0,21,21,21,,,,,,,,,,,,,,,,,,,,,,,,,,,,,,,,,,,,,,,,,,None,,135.4247906600067,None,135.4247906600067,None,2022-01-24-08:29:29.313051,135.4359691000136,135.7417614000151,135.4359691000136,None,y,135.4359691000136,None,136.2420493600075,None,0.7200388000055682,,,11004,0001,2022_Jan_24_0827,localizer,2021.1.3,62.3713590667224,
block,scrambled,scrambled026.bmp,,,,,0,22,22,22,,,,,,,,,,,,,,,,,,,,,,,,,,,,,,,,,,,,,,,,,,None,,136.2420493600075,None,136.2420493600075,None,2022-01-24-08:29:30.132212,136.2536892000062,136.5583531000011,136.2536892000062,None,None,136.2536892000062,None,137.0578745600069,None,,,,11004,0001,2022_Jan_24_0827,localizer,2021.1.3,62.3713590667224,
block,scrambled,scrambled017.bmp,,,,,0,23,23,23,,,,,,,,,,,,,,,,,,,,,,,,,,,,,,,,,,,,,,,,,,None,,137.0578745600069,None,137.0578745600069,None,2022-01-24-08:29:30.946169,137.06801930000074,137.37445790000493,137.06801930000074,None,None,137.06801930000074,None,137.8640018600272,None,,,,11004,0001,2022_Jan_24_0827,localizer,2021.1.3,62.3713590667224,
block,scrambled,scrambled074.bmp,,,,,0,24,24,24,,,,,,,,,,,,,,,,,,,,,,,,,,,,,,,,,,,,,,,,,,None,,137.8640018600272,None,137.8640018600272,None,2022-01-24-08:29:31.758993,137.88237830001162,138.19156289999955,137.88237830001162,None,None,137.88237830001162,None,138.6748791600112,None,,,,11004,0001,2022_Jan_24_0827,localizer,2021.1.3,62.3713590667224,
block,scrambled,scrambled059.bmp,,,,,0,25,25,25,,,,,,,,,,,,,,,,,,,,,,,,,,,,,,,,,,,,,,,,,,None,,138.6748791600112,None,138.6748791600112,None,2022-01-24-08:29:32.563056,138.68596000000252,138.99137480001082,138.68596000000252,None,None,138.68596000000252,None,139.4928902600077,None,,,,11004,0001,2022_Jan_24_0827,localizer,2021.1.3,62.3713590667224,
block,scrambled,scrambled033.bmp,,,,,0,26,26,26,,,,,,,,,,,,,,,,,,,,,,,,,,,,,,,,,,,,,,,,,,None,,139.4928902600077,None,139.4928902600077,None,2022-01-24-08:29:33.384208,139.508857000008,139.82525310001802,139.508857000008,None,None,139.508857000008,None,140.30766606001998,None,,,,11004,0001,2022_Jan_24_0827,localizer,2021.1.3,62.3713590667224,
block,scrambled,scrambled079.bmp,,,,,0,27,27,27,,,,,,,,,,,,,,,,,,,,,,,,,,,,,,,,,,,,,,,,,,None,,140.30766606001998,None,140.30766606001998,None,2022-01-24-08:29:34.195134,140.31610760002513,140.62507680000272,140.31610760002513,None,y,140.31610760002513,None,141.1240515600075,None,0.03581150001264177,,,11004,0001,2022_Jan_24_0827,localizer,2021.1.3,62.3713590667224,
block,scrambled,scrambled036.bmp,,,,,0,28,28,28,,,,,,,,,,,,,,,,,,,,,,,,,,,,,,,,,,,,,,,,,,None,,141.1240515600075,None,141.1240515600075,None,2022-01-24-08:29:35.012626,141.13243980001425,141.44150750001427,141.13243980001425,None,None,141.13243980001425,None,141.9405597600271,None,,,,11004,0001,2022_Jan_24_0827,localizer,2021.1.3,62.3713590667224,
block,scrambled,scrambled070.bmp,,,,,0,29,29,29,,,,,,,,,,,,,,,,,,,,,,,,,,,,,,,,,,,,,,,,,,None,,141.9405597600271,None,141.9405597600271,None,2022-01-24-08:29:35.827753,141.94942330001504,142.26409080001758,141.94942330001504,None,None,141.94942330001504,None,142.75772336000227,None,,,,11004,0001,2022_Jan_24_0827,localizer,2021.1.3,62.3713590667224,
block_end,scrambled,scrambled031.bmp,,,,,0,30,30,30,,,,,,,,,,,,,,,,,,,,,,,,,,,,,,,,,,,,,,,,,,None,,142.75772336000227,None,142.75772336000227,None,2022-01-24-08:29:36.644910,142.76582670002244,143.0753494000237,142.76582670002244,None,None,142.76582670002244,None,143.5757398600108,None,,,,11004,0001,2022_Jan_24_0827,localizer,2021.1.3,62.3713590667224,
block_start,objects,objects073.bmp,,,,,0,31,31,31,,,,,,,,,,,,,,,,,,,,,,,,,,,,,,,,,,,,,,,,,,t,1.7356852999946568,143.57619320001686,None,143.57619320001686,None,2022-01-24-08:29:39.229905,145.35409020000952,145.65857430000324,145.35409020000952,None,None,145.35409020000952,None,146.1584885600023,None,,,,11004,0001,2022_Jan_24_0827,localizer,2021.1.3,62.3713590667224,
block,objects,objects050.bmp,,,,,0,32,32,32,,,,,,,,,,,,,,,,,,,,,,,,,,,,,,,,,,,,,,,,,,None,,146.1584885600023,None,146.1584885600023,None,2022-01-24-08:29:40.047847,146.17152200001874,146.47507830001996,146.17152200001874,None,None,146.17152200001874,None,146.97474016001797,None,,,,11004,0001,2022_Jan_24_0827,localizer,2021.1.3,62.3713590667224,
block,objects,objects050.bmp,,,,,0,33,33,33,,,,,,,,,,,,,,,,,,,,,,,,,,,,,,,,,,,,,,,,,,None,,146.97474016001797,None,146.97474016001797,None,2022-01-24-08:29:40.863080,146.97587799999746,147.2910490000213,146.97587799999746,None,y,146.97587799999746,None,147.791105960001,None,0.6907390000123996,,,11004,0001,2022_Jan_24_0827,localizer,2021.1.3,62.3713590667224,
block,objects,objects012.bmp,,,,,0,34,34,34,,,,,,,,,,,,,,,,,,,,,,,,,,,,,,,,,,,,,,,,,,None,,147.791105960001,None,147.791105960001,None,2022-01-24-08:29:41.679613,147.80140850000316,148.10837650002213,147.80140850000316,None,None,147.80140850000316,None,148.60766276001232,None,,,,11004,0001,2022_Jan_24_0827,localizer,2021.1.3,62.3713590667224,
block,objects,objects067.bmp,,,,,0,35,35,35,,,,,,,,,,,,,,,,,,,,,,,,,,,,,,,,,,,,,,,,,,None,,148.60766276001232,None,148.60766276001232,None,2022-01-24-08:29:42.495592,148.61712790001184,148.92504339999869,148.61712790001184,None,None,148.61712790001184,None,149.42413756001042,None,,,,11004,0001,2022_Jan_24_0827,localizer,2021.1.3,62.3713590667224,
block,objects,objects070.bmp,,,,,0,36,36,36,,,,,,,,,,,,,,,,,,,,,,,,,,,,,,,,,,,,,,,,,,None,,149.42413756001042,None,149.42413756001042,None,2022-01-24-08:29:43.311328,149.43299990001833,149.7415702000144,149.43299990001833,None,None,149.43299990001833,None,150.24123866000446,None,,,,11004,0001,2022_Jan_24_0827,localizer,2021.1.3,62.3713590667224,
block,objects,objects034.bmp,,,,,0,37,37,37,,,,,,,,,,,,,,,,,,,,,,,,,,,,,,,,,,,,,,,,,,None,,150.24123866000446,None,150.24123866000446,None,2022-01-24-08:29:44.129634,150.25168590000249,150.558509399998,150.25168590000249,None,None,150.25168590000249,None,151.05963606000296,None,,,,11004,0001,2022_Jan_24_0827,localizer,2021.1.3,62.3713590667224,
block,objects,objects016.bmp,,,,,0,38,38,38,,,,,,,,,,,,,,,,,,,,,,,,,,,,,,,,,,,,,,,,,,None,,151.05963606000296,None,151.05963606000296,None,2022-01-24-08:29:44.949663,151.06975930000772,151.37485620001098,151.06975930000772,None,None,151.06975930000772,None,151.87545866001165,None,,,,11004,0001,2022_Jan_24_0827,localizer,2021.1.3,62.3713590667224,
block,objects,objects007.bmp,,,,,0,39,39,39,,,,,,,,,,,,,,,,,,,,,,,,,,,,,,,,,,,,,,,,,,None,,151.87545866001165,None,151.87545866001165,None,2022-01-24-08:29:45.764793,151.88694039999973,152.19134140000097,151.88694039999973,None,None,151.88694039999973,None,152.6915302600246,None,,,,11004,0001,2022_Jan_24_0827,localizer,2021.1.3,62.3713590667224,
block,objects,objects003.bmp,,,,,0,40,40,40,,,,,,,,,,,,,,,,,,,,,,,,,,,,,,,,,,,,,,,,,,None,,152.6915302600246,None,152.6915302600246,None,2022-01-24-08:29:46.579704,152.70154410001123,153.00910620001378,152.70154410001123,None,None,152.70154410001123,None,153.50797956000315,None,,,,11004,0001,2022_Jan_24_0827,localizer,2021.1.3,62.3713590667224,
block,objects,objects004.bmp,,,,,0,41,41,41,,,,,,,,,,,,,,,,,,,,,,,,,,,,,,,,,,,,,,,,,,None,,153.50797956000315,None,153.50797956000315,None,2022-01-24-08:29:47.396291,153.5174643000064,153.8244285999972,153.5174643000064,None,None,153.5174643000064,None,154.32548646000214,None,,,,11004,0001,2022_Jan_24_0827,localizer,2021.1.3,62.3713590667224,
block,objects,objects081.bmp,,,,,0,42,42,42,,,,,,,,,,,,,,,,,,,,,,,,,,,,,,,,,,,,,,,,,,None,,154.32548646000214,None,154.32548646000214,None,2022-01-24-08:29:48.213788,154.3373354000214,154.64258090002113,154.3373354000214,None,None,154.3373354000214,None,155.14227396002389,None,,,,11004,0001,2022_Jan_24_0827,localizer,2021.1.3,62.3713590667224,
block,objects,objects024.bmp,,,,,0,43,43,43,,,,,,,,,,,,,,,,,,,,,,,,,,,,,,,,,,,,,,,,,,None,,155.14227396002389,None,155.14227396002389,None,2022-01-24-08:29:49.033607,155.15490960000898,155.45818370001507,155.15490960000898,None,None,155.15490960000898,None,155.95787876000395,None,,,,11004,0001,2022_Jan_24_0827,localizer,2021.1.3,62.3713590667224,
block,objects,objects008.bmp,,,,,0,44,44,44,,,,,,,,,,,,,,,,,,,,,,,,,,,,,,,,,,,,,,,,,,None,,155.95787876000395,None,155.95787876000395,None,2022-01-24-08:29:49.846078,155.96778620002442,156.28108140002587,155.96778620002442,None,None,155.96778620002442,None,156.77422636002302,None,,,,11004,0001,2022_Jan_24_0827,localizer,2021.1.3,62.3713590667224,
block_end,objects,objects010.bmp,,,,,0,45,45,45,,,,,,,,,,,,,,,,,,,,,,,,,,,,,,,,,,,,,,,,,,None,,156.77422636002302,None,156.77422636002302,None,2022-01-24-08:29:50.661418,156.78223579999758,157.0924843000248,156.78223579999758,None,None,156.78223579999758,None,157.59219396000844,None,,,,11004,0001,2022_Jan_24_0827,localizer,2021.1.3,62.3713590667224,
block_start,faces,faces078.bmp,,,,,0,46,46,46,,,,,,,,,,,,,,,,,,,,,,,,,,,,,,,,,,,,,,,,,,t,1.7194394999823999,157.59249430001364,None,157.59249430001364,None,2022-01-24-08:29:53.229498,159.3520316000213,159.65824210000574,159.3520316000213,None,None,159.3520316000213,None,160.15794896002626,None,,,,11004,0001,2022_Jan_24_0827,localizer,2021.1.3,62.3713590667224,
block,faces,faces007.bmp,,,,,0,47,47,47,,,,,,,,,,,,,,,,,,,,,,,,,,,,,,,,,,,,,,,,,,None,,160.15794896002626,None,160.15794896002626,None,2022-01-24-08:29:54.046337,160.168568699999,160.47478990000673,160.168568699999,None,None,160.168568699999,None,160.97474386001704,None,,,,11004,0001,2022_Jan_24_0827,localizer,2021.1.3,62.3713590667224,
block,faces,faces089.bmp,,,,,0,48,48,48,,,,,,,,,,,,,,,,,,,,,,,,,,,,,,,,,,,,,,,,,,None,,160.97474386001704,None,160.97474386001704,None,2022-01-24-08:29:54.862968,160.98606150000705,161.29366620001383,160.98606150000705,None,None,160.98606150000705,None,161.79052116000094,None,,,,11004,0001,2022_Jan_24_0827,localizer,2021.1.3,62.3713590667224,
block,faces,faces044.bmp,,,,,0,49,49,49,,,,,,,,,,,,,,,,,,,,,,,,,,,,,,,,,,,,,,,,,,None,,161.79052116000094,None,161.79052116000094,None,2022-01-24-08:29:55.677715,161.79941590002272,162.10814120000578,161.79941590002272,None,None,161.79941590002272,None,162.60811346000992,None,,,,11004,0001,2022_Jan_24_0827,localizer,2021.1.3,62.3713590667224,
block,faces,faces085.bmp,,,,,0,50,50,50,,,,,,,,,,,,,,,,,,,,,,,,,,,,,,,,,,,,,,,,,,None,,162.60811346000992,None,162.60811346000992,None,2022-01-24-08:29:56.496295,162.61496070001158,162.92473220001557,162.61496070001158,None,None,162.61496070001158,None,163.4247862600023,None,,,,11004,0001,2022_Jan_24_0827,localizer,2021.1.3,62.3713590667224,
block,faces,faces014.bmp,,,,,0,51,51,51,,,,,,,,,,,,,,,,,,,,,,,,,,,,,,,,,,,,,,,,,,None,,163.4247862600023,None,163.4247862600023,None,2022-01-24-08:29:57.312966,163.43531630001962,163.74170740001136,163.43531630001962,None,None,163.43531630001962,None,164.2418051600107,None,,,,11004,0001,2022_Jan_24_0827,localizer,2021.1.3,62.3713590667224,
block,faces,faces058.bmp,,,,,0,52,52,52,,,,,,,,,,,,,,,,,,,,,,,,,,,,,,,,,,,,,,,,,,None,,164.2418051600107,None,164.2418051600107,None,2022-01-24-08:29:58.129982,164.2539396000211,164.55830000000424,164.2539396000211,None,None,164.2539396000211,None,165.05808946001343,None,,,,11004,0001,2022_Jan_24_0827,localizer,2021.1.3,62.3713590667224,
block,faces,faces034.bmp,,,,,0,53,53,53,,,,,,,,,,,,,,,,,,,,,,,,,,,,,,,,,,,,,,,,,,None,,165.05808946001343,None,165.05808946001343,None,2022-01-24-08:29:58.946476,165.06859100001748,165.3747754000069,165.06859100001748,None,None,165.06859100001748,None,165.87552716000937,None,,,,11004,0001,2022_Jan_24_0827,localizer,2021.1.3,62.3713590667224,
block,faces,faces038.bmp,,,,,0,54,54,54,,,,,,,,,,,,,,,,,,,,,,,,,,,,,,,,,,,,,,,,,,None,,165.87552716000937,None,165.87552716000937,None,2022-01-24-08:29:59.765691,165.89646620000713,166.20849840002484,165.89646620000713,None,None,165.89646620000713,None,166.69120056001702,None,,,,11004,0001,2022_Jan_24_0827,localizer,2021.1.3,62.3713590667224,
block,faces,faces055.bmp,,,,,0,55,55,55,,,,,,,,,,,,,,,,,,,,,,,,,,,,,,,,,,,,,,,,,,None,,166.69120056001702,None,166.69120056001702,None,2022-01-24-08:30:00.579595,166.7030827999988,167.00768229999812,166.7030827999988,None,None,166.7030827999988,None,167.5084386600065,None,,,,11004,0001,2022_Jan_24_0827,localizer,2021.1.3,62.3713590667224,
block,faces,faces026.bmp,,,,,0,56,56,56,,,,,,,,,,,,,,,,,,,,,,,,,,,,,,,,,,,,,,,,,,None,,167.5084386600065,None,167.5084386600065,None,2022-01-24-08:30:01.396591,167.5465446000162,167.85859530000016,167.5465446000162,None,None,167.5465446000162,None,168.32508146000328,None,,,,11004,0001,2022_Jan_24_0827,localizer,2021.1.3,62.3713590667224,
block,faces,faces045.bmp,,,,,0,57,57,57,,,,,,,,,,,,,,,,,,,,,,,,,,,,,,,,,,,,,,,,,,None,,168.32508146000328,None,168.32508146000328,None,2022-01-24-08:30:02.213256,168.3366948000039,168.6414881000237,168.3366948000039,None,None,168.3366948000039,None,169.14149456002633,None,,,,11004,0001,2022_Jan_24_0827,localizer,2021.1.3,62.3713590667224,
block,faces,faces031.bmp,,,,,0,58,58,58,,,,,,,,,,,,,,,,,,,,,,,,,,,,,,,,,,,,,,,,,,None,,169.14149456002633,None,169.14149456002633,None,2022-01-24-08:30:03.029718,169.15184350000345,169.45807120000245,169.15184350000345,None,None,169.15184350000345,None,169.95818326002336,None,,,,11004,0001,2022_Jan_24_0827,localizer,2021.1.3,62.3713590667224,
block,faces,faces062.bmp,,,,,0,59,59,59,,,,,,,,,,,,,,,,,,,,,,,,,,,,,,,,,,,,,,,,,,None,,169.95818326002336,None,169.95818326002336,None,2022-01-24-08:30:03.846388,169.96854260002146,170.2745940000168,169.96854260002146,None,None,169.96854260002146,None,170.7759301600163,None,,,,11004,0001,2022_Jan_24_0827,localizer,2021.1.3,62.3713590667224,
block_end,faces,faces080.bmp,,,,,0,60,60,60,,,,,,,,,,,,,,,,,,,,,,,,,,,,,,,,,,,,,,,,,,None,,170.7759301600163,None,170.7759301600163,None,2022-01-24-08:30:04.666091,170.793713400024,171.10810730000958,170.793713400024,None,None,170.793713400024,None,171.59101646000636,None,,,,11004,0001,2022_Jan_24_0827,localizer,2021.1.3,62.3713590667224,
block_start,scrambled,scrambled031.bmp,,,,,0,61,61,61,,,,,,,,,,,,,,,,,,,,,,,,,,,,,,,,,,,,,,,,,,t,1.7204921999946237,171.5913358000107,None,171.5913358000107,None,2022-01-24-08:30:07.229755,173.34317700000247,173.6581853000098,173.34317700000247,None,None,173.34317700000247,None,174.1577361600066,None,,,,11004,0001,2022_Jan_24_0827,localizer,2021.1.3,62.3713590667224,
block,scrambled,scrambled075.bmp,,,,,0,62,62,62,,,,,,,,,,,,,,,,,,,,,,,,,,,,,,,,,,,,,,,,,,None,,174.1577361600066,None,174.1577361600066,None,2022-01-24-08:30:08.044933,174.16760280000744,174.47498280002037,174.16760280000744,None,None,174.16760280000744,None,174.9746585600078,None,,,,11004,0001,2022_Jan_24_0827,localizer,2021.1.3,62.3713590667224,
block,scrambled,scrambled003.bmp,,,,,0,63,63,63,,,,,,,,,,,,,,,,,,,,,,,,,,,,,,,,,,,,,,,,,,None,,174.9746585600078,None,174.9746585600078,None,2022-01-24-08:30:08.862842,174.98385820002295,175.29195730001084,174.98385820002295,None,None,174.98385820002295,None,175.79179146001115,None,,,,11004,0001,2022_Jan_24_0827,localizer,2021.1.3,62.3713590667224,
block,scrambled,scrambled025.bmp,,,,,0,64,64,64,,,,,,,,,,,,,,,,,,,,,,,,,,,,,,,,,,,,,,,,,,None,,175.79179146001115,None,175.79179146001115,None,2022-01-24-08:30:09.680052,175.80275420000544,176.10887190001085,175.80275420000544,None,None,175.80275420000544,None,176.6111090600025,None,,,,11004,0001,2022_Jan_24_0827,localizer,2021.1.3,62.3713590667224,
block,scrambled,scrambled063.bmp,,,,,0,65,65,65,,,,,,,,,,,,,,,,,,,,,,,,,,,,,,,,,,,,,,,,,,None,,176.6111090600025,None,176.6111090600025,None,2022-01-24-08:30:10.504398,176.62795510000433,176.94291160002467,176.62795510000433,None,y,176.62795510000433,None,177.42569366001408,None,0.6685725999996066,,,11004,0001,2022_Jan_24_0827,localizer,2021.1.3,62.3713590667224,
block,scrambled,scrambled066.bmp,,,,,0,66,66,66,,,,,,,,,,,,,,,,,,,,,,,,,,,,,,,,,,,,,,,,,,None,,177.42569366001408,None,177.42569366001408,None,2022-01-24-08:30:11.315804,177.42820880000363,177.74215810000896,177.42820880000363,None,None,177.42820880000363,None,178.24176076002186,None,,,,11004,0001,2022_Jan_24_0827,localizer,2021.1.3,62.3713590667224,
block,scrambled,scrambled079.bmp,,,,,0,67,67,67,,,,,,,,,,,,,,,,,,,,,,,,,,,,,,,,,,,,,,,,,,None,,178.24176076002186,None,178.24176076002186,None,2022-01-24-08:30:12.130123,178.24290250000195,178.55834190000314,178.24290250000195,None,None,178.24290250000195,None,179.05798445999972,None,,,,11004,0001,2022_Jan_24_0827,localizer,2021.1.3,62.3713590667224,
block,scrambled,scrambled018.bmp,,,,,0,68,68,68,,,,,,,,,,,,,,,,,,,,,,,,,,,,,,,,,,,,,,,,,,None,,179.05798445999972,None,179.05798445999972,None,2022-01-24-08:30:12.946227,179.06746690001455,179.3751977000211,179.06746690001455,None,None,179.06746690001455,None,179.87513546002447,None,,,,11004,0001,2022_Jan_24_0827,localizer,2021.1.3,62.3713590667224,
block,scrambled,scrambled004.bmp,,,,,0,69,69,69,,,,,,,,,,,,,,,,,,,,,,,,,,,,,,,,,,,,,,,,,,None,,179.87513546002447,None,179.87513546002447,None,2022-01-24-08:30:13.763274,179.88526100001764,180.1915064000059,179.88526100001764,None,None,179.88526100001764,None,180.69205815999885,None,,,,11004,0001,2022_Jan_24_0827,localizer,2021.1.3,62.3713590667224,
block,scrambled,scrambled036.bmp,,,,,0,70,70,70,,,,,,,,,,,,,,,,,,,,,,,,,,,,,,,,,,,,,,,,,,None,,180.69205815999885,None,180.69205815999885,None,2022-01-24-08:30:14.580311,180.69318220001878,181.00907130000996,180.69318220001878,None,None,180.69318220001878,None,181.50877506000688,None,,,,11004,0001,2022_Jan_24_0827,localizer,2021.1.3,62.3713590667224,
block,scrambled,scrambled058.bmp,,,,,0,71,71,71,,,,,,,,,,,,,,,,,,,,,,,,,,,,,,,,,,,,,,,,,,None,,181.50877506000688,None,181.50877506000688,None,2022-01-24-08:30:15.396949,181.5196539000026,181.82469490001677,181.5196539000026,None,None,181.5196539000026,None,182.32409006002126,None,,,,11004,0001,2022_Jan_24_0827,localizer,2021.1.3,62.3713590667224,
block,scrambled,scrambled045.bmp,,,,,0,72,72,72,,,,,,,,,,,,,,,,,,,,,,,,,,,,,,,,,,,,,,,,,,None,,182.32409006002126,None,182.32409006002126,None,2022-01-24-08:30:16.211682,182.3323210000235,182.64113850001013,182.3323210000235,None,y,182.3323210000235,None,183.14254876002087,None,0.14944189999368973,,,11004,0001,2022_Jan_24_0827,localizer,2021.1.3,62.3713590667224,
block,scrambled,scrambled028.bmp,,,,,0,73,73,73,,,,,,,,,,,,,,,,,,,,,,,,,,,,,,,,,,,,,,,,,,None,,183.14254876002087,None,183.14254876002087,None,2022-01-24-08:30:17.033851,183.15677349999896,183.45817880000686,183.15677349999896,None,None,183.15677349999896,None,183.95830235999892,None,,,,11004,0001,2022_Jan_24_0827,localizer,2021.1.3,62.3713590667224,
block,scrambled,scrambled064.bmp,,,,,0,74,74,74,,,,,,,,,,,,,,,,,,,,,,,,,,,,,,,,,,,,,,,,,,None,,183.95830235999892,None,183.95830235999892,None,2022-01-24-08:30:17.846668,183.96951409999747,184.27481300002546,183.96951409999747,None,None,183.96951409999747,None,184.77815366000868,None,,,,11004,0001,2022_Jan_24_0827,localizer,2021.1.3,62.3713590667224,
block_end,scrambled,scrambled055.bmp,,,,,0,75,75,75,,,,,,,,,,,,,,,,,,,,,,,,,,,,,,,,,,,,,,,,,,None,,184.77815366000868,None,184.77815366000868,None,2022-01-24-08:30:18.673242,184.7873637000157,185.09269109999877,184.7873637000157,None,y,184.7873637000157,None,185.592294460017,None,0.720487199985655,,,11004,0001,2022_Jan_24_0827,localizer,2021.1.3,62.3713590667224,
null_block,null_block,null_block.bmp,,,,,0,76,76,76,,,,,,,,,,,,,,,,,,,,,,,,,,,,,,,,,,,,,,,,,,t,1.7189132000203244,185.59283120001783,None,185.59283120001783,None,2022-01-24-08:30:21.228830,187.3414375600114,None,187.3414375600114,None,None,187.3414375600114,None,187.34320790000493,None,,,,11004,0001,2022_Jan_24_0827,localizer,2021.1.3,62.3713590667224,
block_start,objects,objects078.bmp,,,,,0,77,77,77,,,,,,,,,,,,,,,,,,,,,,,,,,,,,,,,,,,,,,,,,,t,1.9670924000092782,199.3448012000008,None,199.3448012000008,None,2022-01-24-08:30:35.231931,201.35264670001925,201.67454360000556,201.35264670001925,None,None,201.35264670001925,None,202.15707166001084,None,,,,11004,0001,2022_Jan_24_0827,localizer,2021.1.3,62.3713590667224,
block,objects,objects085.bmp,,,,,0,78,78,78,,,,,,,,,,,,,,,,,,,,,,,,,,,,,,,,,,,,,,,,,,None,,202.15707166001084,None,202.15707166001084,None,2022-01-24-08:30:36.044305,202.16742400001385,202.4746999000199,202.16742400001385,None,None,202.16742400001385,None,202.97518256001058,None,,,,11004,0001,2022_Jan_24_0827,localizer,2021.1.3,62.3713590667224,
block,objects,objects015.bmp,,,,,0,79,79,79,,,,,,,,,,,,,,,,,,,,,,,,,,,,,,,,,,,,,,,,,,None,,202.97518256001058,None,202.97518256001058,None,2022-01-24-08:30:36.863308,202.98634370000218,203.2916495000245,202.98634370000218,None,None,202.98634370000218,None,203.79091856000014,None,,,,11004,0001,2022_Jan_24_0827,localizer,2021.1.3,62.3713590667224,
block,objects,objects017.bmp,,,,,0,80,80,80,,,,,,,,,,,,,,,,,,,,,,,,,,,,,,,,,,,,,,,,,,None,,203.79091856000014,None,203.79091856000014,None,2022-01-24-08:30:37.678113,203.7994848000235,204.10858210001606,203.7994848000235,None,None,203.7994848000235,None,204.60762706000241,None,,,,11004,0001,2022_Jan_24_0827,localizer,2021.1.3,62.3713590667224,
block,objects,objects065.bmp,,,,,0,81,81,81,,,,,,,,,,,,,,,,,,,,,,,,,,,,,,,,,,,,,,,,,,None,,204.60762706000241,None,204.60762706000241,None,2022-01-24-08:30:38.494823,204.61592140002176,204.92510200000834,204.61592140002176,None,None,204.61592140002176,None,205.42493976000696,None,,,,11004,0001,2022_Jan_24_0827,localizer,2021.1.3,62.3713590667224,
block,objects,objects041.bmp,,,,,0,82,82,82,,,,,,,,,,,,,,,,,,,,,,,,,,,,,,,,,,,,,,,,,,None,,205.42493976000696,None,205.42493976000696,None,2022-01-24-08:30:39.313320,205.43626180000138,205.74193380001816,205.43626180000138,None,None,205.43626180000138,None,206.24144306001836,None,,,,11004,0001,2022_Jan_24_0827,localizer,2021.1.3,62.3713590667224,
block,objects,objects005.bmp,,,,,0,83,83,83,,,,,,,,,,,,,,,,,,,,,,,,,,,,,,,,,,,,,,,,,,None,,206.24144306001836,None,206.24144306001836,None,2022-01-24-08:30:40.129834,206.25209720002022,206.55891030002385,206.25209720002022,None,None,206.25209720002022,None,207.05824836000102,None,,,,11004,0001,2022_Jan_24_0827,localizer,2021.1.3,62.3713590667224,
block,objects,objects082.bmp,,,,,0,84,84,84,,,,,,,,,,,,,,,,,,,,,,,,,,,,,,,,,,,,,,,,,,None,,207.05824836000102,None,207.05824836000102,None,2022-01-24-08:30:40.946428,207.06788159999996,207.37545839999802,207.06788159999996,None,None,207.06788159999996,None,207.87486646001344,None,,,,11004,0001,2022_Jan_24_0827,localizer,2021.1.3,62.3713590667224,
block,objects,objects060.bmp,,,,,0,85,85,85,,,,,,,,,,,,,,,,,,,,,,,,,,,,,,,,,,,,,,,,,,None,,207.87486646001344,None,207.87486646001344,None,2022-01-24-08:30:41.763163,207.88525859999936,208.19172130001243,207.88525859999936,None,None,207.88525859999936,None,208.69151726001292,None,,,,11004,0001,2022_Jan_24_0827,localizer,2021.1.3,62.3713590667224,
block,objects,objects062.bmp,,,,,0,86,86,86,,,,,,,,,,,,,,,,,,,,,,,,,,,,,,,,,,,,,,,,,,None,,208.69151726001292,None,208.69151726001292,None,2022-01-24-08:30:42.578712,208.6948631000123,209.00841520001995,208.6948631000123,None,None,208.6948631000123,None,209.50894666000386,None,,,,11004,0001,2022_Jan_24_0827,localizer,2021.1.3,62.3713590667224,
block,objects,objects086.bmp,,,,,0,87,87,87,,,,,,,,,,,,,,,,,,,,,,,,,,,,,,,,,,,,,,,,,,None,,209.50894666000386,None,209.50894666000386,None,2022-01-24-08:30:43.398308,209.52086970000528,209.83099620000576,209.52086970000528,None,None,209.52086970000528,None,210.32576696001342,None,,,,11004,0001,2022_Jan_24_0827,localizer,2021.1.3,62.3713590667224,
block,objects,objects084.bmp,,,,,0,88,88,88,,,,,,,,,,,,,,,,,,,,,,,,,,,,,,,,,,,,,,,,,,None,,210.32576696001342,None,210.32576696001342,None,2022-01-24-08:30:44.215068,210.33751040001516,210.64234440002474,210.33751040001516,None,None,210.33751040001516,None,211.14161576001788,None,,,,11004,0001,2022_Jan_24_0827,localizer,2021.1.3,62.3713590667224,
block,objects,objects013.bmp,,,,,0,89,89,89,,,,,,,,,,,,,,,,,,,,,,,,,,,,,,,,,,,,,,,,,,None,,211.14161576001788,None,211.14161576001788,None,2022-01-24-08:30:45.030002,211.1518113000202,211.45899210000061,211.1518113000202,None,None,211.1518113000202,None,211.95927766000386,None,,,,11004,0001,2022_Jan_24_0827,localizer,2021.1.3,62.3713590667224,
block,objects,objects033.bmp,,,,,0,90,90,90,,,,,,,,,,,,,,,,,,,,,,,,,,,,,,,,,,,,,,,,,,None,,211.95927766000386,None,211.95927766000386,None,2022-01-24-08:30:45.848976,211.97183240001323,212.27512900001602,211.97183240001323,None,None,211.97183240001323,None,212.77425146001042,None,,,,11004,0001,2022_Jan_24_0827,localizer,2021.1.3,62.3713590667224,
block_end,objects,objects002.bmp,,,,,0,91,91,91,,,,,,,,,,,,,,,,,,,,,,,,,,,,,,,,,,,,,,,,,,None,,212.77425146001042,None,212.77425146001042,None,2022-01-24-08:30:46.661552,212.77790290000848,213.0917477000039,212.77790290000848,None,None,212.77790290000848,None,213.59148976000142,None,,,,11004,0001,2022_Jan_24_0827,localizer,2021.1.3,62.3713590667224,
block_start,faces,faces088.bmp,,,,,0,92,92,92,,,,,,,,,,,,,,,,,,,,,,,,,,,,,,,,,,,,,,,,,,t,1.719358199974522,213.59234040000592,None,213.59234040000592,None,2022-01-24-08:30:49.228089,215.35035250001238,215.66187450001598,215.35035250001238,None,None,215.35035250001238,None,216.15923026000382,None,,,,11004,0001,2022_Jan_24_0827,localizer,2021.1.3,62.3713590667224,
block,faces,faces016.bmp,,,,,0,93,93,93,,,,,,,,,,,,,,,,,,,,,,,,,,,,,,,,,,,,,,,,,,None,,216.15923026000382,None,216.15923026000382,None,2022-01-24-08:30:50.049656,216.17429350002203,216.4749369000201,216.17429350002203,None,None,216.17429350002203,None,216.97509676002664,None,,,,11004,0001,2022_Jan_24_0827,localizer,2021.1.3,62.3713590667224,
block,faces,faces077.bmp,,,,,0,94,94,94,,,,,,,,,,,,,,,,,,,,,,,,,,,,,,,,,,,,,,,,,,None,,216.97509676002664,None,216.97509676002664,None,2022-01-24-08:30:50.863276,216.98641130002216,217.29170110000996,216.98641130002216,None,None,216.98641130002216,None,217.79186426001252,None,,,,11004,0001,2022_Jan_24_0827,localizer,2021.1.3,62.3713590667224,
block,faces,faces050.bmp,,,,,0,95,95,95,,,,,,,,,,,,,,,,,,,,,,,,,,,,,,,,,,,,,,,,,,None,,217.79186426001252,None,217.79186426001252,None,2022-01-24-08:30:51.681046,217.79939530001138,218.10781190000125,217.79939530001138,None,None,217.79939530001138,None,218.6079846600187,None,,,,11004,0001,2022_Jan_24_0827,localizer,2021.1.3,62.3713590667224,
block,faces,faces040.bmp,,,,,0,96,96,96,,,,,,,,,,,,,,,,,,,,,,,,,,,,,,,,,,,,,,,,,,None,,218.6079846600187,None,218.6079846600187,None,2022-01-24-08:30:52.496167,218.61811979999766,218.92512190001435,218.61811979999766,None,None,218.61811979999766,None,219.42518556001596,None,,,,11004,0001,2022_Jan_24_0827,localizer,2021.1.3,62.3713590667224,
block,faces,faces070.bmp,,,,,0,97,97,97,,,,,,,,,,,,,,,,,,,,,,,,,,,,,,,,,,,,,,,,,,None,,219.42518556001596,None,219.42518556001596,None,2022-01-24-08:30:53.313555,219.43756360001862,219.74172010002076,219.43756360001862,None,None,219.43756360001862,None,220.24122306000208,None,,,,11004,0001,2022_Jan_24_0827,localizer,2021.1.3,62.3713590667224,
block,faces,faces022.bmp,,,,,0,98,98,98,,,,,,,,,,,,,,,,,,,,,,,,,,,,,,,,,,,,,,,,,,None,,220.24122306000208,None,220.24122306000208,None,2022-01-24-08:30:54.128124,220.25057390000438,220.55834390001837,220.25057390000438,None,None,220.25057390000438,None,221.05847856000764,None,,,,11004,0001,2022_Jan_24_0827,localizer,2021.1.3,62.3713590667224,
block,faces,faces010.bmp,,,,,0,99,99,99,,,,,,,,,,,,,,,,,,,,,,,,,,,,,,,,,,,,,,,,,,None,,221.05847856000764,None,221.05847856000764,None,2022-01-24-08:30:54.946859,221.0710156999994,221.3750357000099,221.0710156999994,None,None,221.0710156999994,None,221.87541176000377,None,,,,11004,0001,2022_Jan_24_0827,localizer,2021.1.3,62.3713590667224,
block,faces,faces031.bmp,,,,,0,100,100,100,,,,,,,,,,,,,,,,,,,,,,,,,,,,,,,,,,,,,,,,,,None,,221.87541176000377,None,221.87541176000377,None,2022-01-24-08:30:55.763587,221.87652499999967,222.1920031000045,221.87652499999967,None,None,221.87652499999967,None,222.69210376002593,None,,,,11004,0001,2022_Jan_24_0827,localizer,2021.1.3,62.3713590667224,
block,faces,faces030.bmp,,,,,0,101,101,101,,,,,,,,,,,,,,,,,,,,,,,,,,,,,,,,,,,,,,,,,,None,,222.69210376002593,None,222.69210376002593,None,2022-01-24-08:30:56.581254,222.70574390000547,223.00841320000472,222.70574390000547,None,None,222.70574390000547,None,223.5080187600106,None,,,,11004,0001,2022_Jan_24_0827,localizer,2021.1.3,62.3713590667224,
block,faces,faces086.bmp,,,,,0,102,102,102,,,,,,,,,,,,,,,,,,,,,,,,,,,,,,,,,,,,,,,,,,None,,223.5080187600106,None,223.5080187600106,None,2022-01-24-08:30:57.396201,223.5174198000168,223.8256500000134,223.5174198000168,None,None,223.5174198000168,None,224.32533276002505,None,,,,11004,0001,2022_Jan_24_0827,localizer,2021.1.3,62.3713590667224,
block,faces,faces002.bmp,,,,,0,103,103,103,,,,,,,,,,,,,,,,,,,,,,,,,,,,,,,,,,,,,,,,,,None,,224.32533276002505,None,224.32533276002505,None,2022-01-24-08:30:58.213664,224.33744010000373,224.6417758000025,224.33744010000373,None,None,224.33744010000373,None,225.1422829600051,None,,,,11004,0001,2022_Jan_24_0827,localizer,2021.1.3,62.3713590667224,
block,faces,faces089.bmp,,,,,0,104,104,104,,,,,,,,,,,,,,,,,,,,,,,,,,,,,,,,,,,,,,,,,,None,,225.1422829600051,None,225.1422829600051,None,2022-01-24-08:30:59.029478,225.14259850000963,225.4584180000238,225.14259850000963,None,None,225.14259850000963,None,225.94218776002526,None,,,,11004,0001,2022_Jan_24_0827,localizer,2021.1.3,62.3713590667224,
block,faces,faces026.bmp,,,,,0,105,105,105,,,,,,,,,,,,,,,,,,,,,,,,,,,,,,,,,,,,,,,,,,None,,225.94218776002526,None,225.94218776002526,None,2022-01-24-08:30:59.832495,225.9458038000157,226.2587465000106,225.9458038000157,225.9458038000157,None,225.9458038000157,225.9458038000157,226.75825976001215,None,,,,11004,0001,2022_Jan_24_0827,localizer,2021.1.3,62.3713590667224,
block_end,faces,faces065.bmp,,,,,0,106,106,106,,,,,,,,,,,,,,,,,,,,,,,,,,,,,,,,,,,,,,,,,,None,,226.75825976001215,None,226.75825976001215,None,2022-01-24-08:31:00.645614,226.7733630000148,227.0754410000227,226.7733630000148,None,None,226.7733630000148,None,227.57470536002074,None,,,,11004,0001,2022_Jan_24_0827,localizer,2021.1.3,62.3713590667224,
block_start,scenes,scenes004.bmp,,,,,0,107,107,107,,,,,,,,,,,,,,,,,,,,,,,,,,,,,,,,,,,,,,,,,,t,1.7368200000200886,227.57502980000572,None,227.57502980000572,None,2022-01-24-08:31:03.228941,229.35718560000532,229.65853210000205,229.35718560000532,None,None,229.35718560000532,None,230.1583012600022,None,,,,11004,0001,2022_Jan_24_0827,localizer,2021.1.3,62.3713590667224,
block,scenes,scenes065.bmp,,,,,0,108,108,108,,,,,,,,,,,,,,,,,,,,,,,,,,,,,,,,,,,,,,,,,,None,,230.1583012600022,None,230.1583012600022,None,2022-01-24-08:31:04.046688,230.1688787000021,230.4751178000006,230.1688787000021,None,None,230.1688787000021,None,230.9748583600158,None,,,,11004,0001,2022_Jan_24_0827,localizer,2021.1.3,62.3713590667224,
block,scenes,scenes065.bmp,,,,,0,109,109,109,,,,,,,,,,,,,,,,,,,,,,,,,,,,,,,,,,,,,,,,,,None,,230.9748583600158,None,230.9748583600158,None,2022-01-24-08:31:04.863042,230.97597610001685,231.28117200001725,230.97597610001685,None,y,230.97597610001685,None,231.77535926000564,None,0.5065698999969754,,,11004,0001,2022_Jan_24_0827,localizer,2021.1.3,62.3713590667224,
block,scenes,scenes078.bmp,,,,,0,110,110,110,,,,,,,,,,,,,,,,,,,,,,,,,,,,,,,,,,,,,,,,,,None,,231.77535926000564,None,231.77535926000564,None,2022-01-24-08:31:05.665531,231.7892889000068,232.0920036000025,231.7892889000068,231.7892889000068,None,231.7892889000068,231.7892889000068,232.5920124600234,None,,,,11004,0001,2022_Jan_24_0827,localizer,2021.1.3,62.3713590667224,
block,scenes,scenes003.bmp,,,,,0,111,111,111,,,,,,,,,,,,,,,,,,,,,,,,,,,,,,,,,,,,,,,,,,None,,232.5920124600234,None,232.5920124600234,None,2022-01-24-08:31:06.480343,232.60413820002577,232.90829099999974,232.60413820002577,None,None,232.60413820002577,None,233.4080078600091,None,,,,11004,0001,2022_Jan_24_0827,localizer,2021.1.3,62.3713590667224,
block,scenes,scenes092.bmp,,,,,0,112,112,112,,,,,,,,,,,,,,,,,,,,,,,,,,,,,,,,,,,,,,,,,,None,,233.4080078600091,None,233.4080078600091,None,2022-01-24-08:31:07.296394,233.41742820001673,233.72575589999906,233.41742820001673,None,None,233.41742820001673,None,234.2253615600057,None,,,,11004,0001,2022_Jan_24_0827,localizer,2021.1.3,62.3713590667224,
block,scenes,scenes051.bmp,,,,,0,113,113,113,,,,,,,,,,,,,,,,,,,,,,,,,,,,,,,,,,,,,,,,,,None,,234.2253615600057,None,234.2253615600057,None,2022-01-24-08:31:08.113646,234.2375687000167,234.5420412000094,234.2375687000167,None,None,234.2375687000167,None,235.04160676000174,None,,,,11004,0001,2022_Jan_24_0827,localizer,2021.1.3,62.3713590667224,
block,scenes,scenes024.bmp,,,,,0,114,114,114,,,,,,,,,,,,,,,,,,,,,,,,,,,,,,,,,,,,,,,,,,None,,235.04160676000174,None,235.04160676000174,None,2022-01-24-08:31:08.929790,235.0524037000141,235.3587171000254,235.0524037000141,None,None,235.0524037000141,None,235.85822146001738,None,,,,11004,0001,2022_Jan_24_0827,localizer,2021.1.3,62.3713590667224,
block,scenes,scenes090.bmp,,,,,0,115,115,115,,,,,,,,,,,,,,,,,,,,,,,,,,,,,,,,,,,,,,,,,,None,,235.85822146001738,None,235.85822146001738,None,2022-01-24-08:31:09.745408,235.86870300001465,236.17542270000558,235.86870300001465,None,None,235.86870300001465,None,236.67480866002734,None,,,,11004,0001,2022_Jan_24_0827,localizer,2021.1.3,62.3713590667224,
block,scenes,scenes088.bmp,,,,,0,116,116,116,,,,,,,,,,,,,,,,,,,,,,,,,,,,,,,,,,,,,,,,,,None,,236.67480866002734,None,236.67480866002734,None,2022-01-24-08:31:10.562991,236.68546530001913,236.991835599998,236.68546530001913,None,None,236.68546530001913,None,237.491916960018,None,,,,11004,0001,2022_Jan_24_0827,localizer,2021.1.3,62.3713590667224,
block,scenes,scenes023.bmp,,,,,0,117,117,117,,,,,,,,,,,,,,,,,,,,,,,,,,,,,,,,,,,,,,,,,,None,,237.491916960018,None,237.491916960018,None,2022-01-24-08:31:11.380099,237.50295190000907,237.8083974000183,237.50295190000907,None,None,237.50295190000907,None,238.3077239600243,None,,,,11004,0001,2022_Jan_24_0827,localizer,2021.1.3,62.3713590667224,
block,scenes,scenes081.bmp,,,,,0,118,118,118,,,,,,,,,,,,,,,,,,,,,,,,,,,,,,,,,,,,,,,,,,None,,238.3077239600243,None,238.3077239600243,None,2022-01-24-08:31:12.194917,238.30974090000382,238.62501420002081,238.30974090000382,None,y,238.30974090000382,None,239.12484396001673,None,0.6008868000062648,,,11004,0001,2022_Jan_24_0827,localizer,2021.1.3,62.3713590667224,
block,scenes,scenes089.bmp,,,,,0,119,119,119,,,,,,,,,,,,,,,,,,,,,,,,,,,,,,,,,,,,,,,,,,None,,239.12484396001673,None,239.12484396001673,None,2022-01-24-08:31:13.013046,239.13390860002255,239.44842390000122,239.13390860002255,None,None,239.13390860002255,None,239.94263386001694,None,,,,11004,0001,2022_Jan_24_0827,localizer,2021.1.3,62.3713590667224,
block,scenes,scenes074.bmp,,,,,0,120,120,120,,,,,,,,,,,,,,,,,,,,,,,,,,,,,,,,,,,,,,,,,,None,,239.94263386001694,None,239.94263386001694,None,2022-01-24-08:31:13.831777,239.9543723000097,240.25863399999798,239.9543723000097,None,None,239.9543723000097,None,240.75826676000725,None,,,,11004,0001,2022_Jan_24_0827,localizer,2021.1.3,62.3713590667224,
block_end,scenes,scenes015.bmp,,,,,0,121,121,121,,,,,,,,,,,,,,,,,,,,,,,,,,,,,,,,,,,,,,,,,,None,,240.75826676000725,None,240.75826676000725,None,2022-01-24-08:31:14.645438,240.76747010002146,241.0814204000053,240.76747010002146,None,None,240.76747010002146,None,241.5749080600217,None,,,,11004,0001,2022_Jan_24_0827,localizer,2021.1.3,62.3713590667224,
block_start,scrambled,scrambled070.bmp,,,,,0,122,122,122,,,,,,,,,,,,,,,,,,,,,,,,,,,,,,,,,,,,,,,,,,t,1.736554899980547,241.57531070002005,None,241.57531070002005,None,2022-01-24-08:31:17.227743,243.34328930001357,243.65894210000988,243.34328930001357,None,None,243.34328930001357,None,244.15859316001297,None,,,,11004,0001,2022_Jan_24_0827,localizer,2021.1.3,62.3713590667224,
block,scrambled,scrambled008.bmp,,,,,0,123,123,123,,,,,,,,,,,,,,,,,,,,,,,,,,,,,,,,,,,,,,,,,,None,,244.15859316001297,None,244.15859316001297,None,2022-01-24-08:31:18.046795,244.16605100000743,244.47572560000117,244.16605100000743,None,None,244.16605100000743,None,244.9768841600162,None,,,,11004,0001,2022_Jan_24_0827,localizer,2021.1.3,62.3713590667224,
block,scrambled,scrambled007.bmp,,,,,0,124,124,124,,,,,,,,,,,,,,,,,,,,,,,,,,,,,,,,,,,,,,,,,,None,,244.9768841600162,None,244.9768841600162,None,2022-01-24-08:31:18.867073,244.99122110000462,245.29212910000933,244.99122110000462,None,None,244.99122110000462,None,245.7911481600022,None,,,,11004,0001,2022_Jan_24_0827,localizer,2021.1.3,62.3713590667224,
block,scrambled,scrambled030.bmp,,,,,0,125,125,125,,,,,,,,,,,,,,,,,,,,,,,,,,,,,,,,,,,,,,,,,,None,,245.7911481600022,None,245.7911481600022,None,2022-01-24-08:31:19.678343,245.79469070001505,246.108460700023,245.79469070001505,None,None,245.79469070001505,None,246.60827265999978,None,,,,11004,0001,2022_Jan_24_0827,localizer,2021.1.3,62.3713590667224,
block,scrambled,scrambled015.bmp,,,,,0,126,126,126,,,,,,,,,,,,,,,,,,,,,,,,,,,,,,,,,,,,,,,,,,None,,246.60827265999978,None,246.60827265999978,None,2022-01-24-08:31:20.496456,246.6179900999996,246.92433740000706,246.6179900999996,None,None,246.6179900999996,None,247.424264160014,None,,,,11004,0001,2022_Jan_24_0827,localizer,2021.1.3,62.3713590667224,
block,scrambled,scrambled013.bmp,,,,,0,127,127,127,,,,,,,,,,,,,,,,,,,,,,,,,,,,,,,,,,,,,,,,,,None,,247.424264160014,None,247.424264160014,None,2022-01-24-08:31:21.311417,247.42741550001665,247.7279674000165,247.42741550001665,None,y,247.42741550001665,None,248.2411241600057,None,0.21230579999973997,,,11004,0001,2022_Jan_24_0827,localizer,2021.1.3,62.3713590667224,
block,scrambled,scrambled033.bmp,,,,,0,128,128,128,,,,,,,,,,,,,,,,,,,,,,,,,,,,,,,,,,,,,,,,,,None,,248.2411241600057,None,248.2411241600057,None,2022-01-24-08:31:22.128335,248.24373090002337,248.55970020001405,248.24373090002337,None,None,248.24373090002337,None,249.05774186001508,None,,,,11004,0001,2022_Jan_24_0827,localizer,2021.1.3,62.3713590667224,
block,scrambled,scrambled037.bmp,,,,,0,129,129,129,,,,,,,,,,,,,,,,,,,,,,,,,,,,,,,,,,,,,,,,,,None,,249.05774186001508,None,249.05774186001508,None,2022-01-24-08:31:22.945192,249.06368800002383,249.37538330000825,249.06368800002383,None,None,249.06368800002383,None,249.8760080600041,None,,,,11004,0001,2022_Jan_24_0827,localizer,2021.1.3,62.3713590667224,
block,scrambled,scrambled003.bmp,,,,,0,130,130,130,,,,,,,,,,,,,,,,,,,,,,,,,,,,,,,,,,,,,,,,,,None,,249.8760080600041,None,249.8760080600041,None,2022-01-24-08:31:23.765173,249.87743520000367,250.1764573000255,249.87743520000367,None,None,249.87743520000367,None,250.6922091600136,None,,,,11004,0001,2022_Jan_24_0827,localizer,2021.1.3,62.3713590667224,
block,scrambled,scrambled076.bmp,,,,,0,131,131,131,,,,,,,,,,,,,,,,,,,,,,,,,,,,,,,,,,,,,,,,,,None,,250.6922091600136,None,250.6922091600136,None,2022-01-24-08:31:24.580409,250.7032350000227,251.0147477000137,250.7032350000227,None,y,250.7032350000227,None,251.50764236002578,None,0.7382651999942027,,,11004,0001,2022_Jan_24_0827,localizer,2021.1.3,62.3713590667224,
block,scrambled,scrambled002.bmp,,,,,0,132,132,132,,,,,,,,,,,,,,,,,,,,,,,,,,,,,,,,,,,,,,,,,,None,,251.50764236002578,None,251.50764236002578,None,2022-01-24-08:31:25.394835,251.5162682000082,251.8251983000082,251.5162682000082,None,None,251.5162682000082,None,252.32760666002287,None,,,,11004,0001,2022_Jan_24_0827,localizer,2021.1.3,62.3713590667224,
block,scrambled,scrambled038.bmp,,,,,0,133,133,133,,,,,,,,,,,,,,,,,,,,,,,,,,,,,,,,,,,,,,,,,,None,,252.32760666002287,None,252.32760666002287,None,2022-01-24-08:31:26.218073,252.34300560000702,252.6588326000201,252.34300560000702,None,None,252.34300560000702,None,253.14192246002494,None,,,,11004,0001,2022_Jan_24_0827,localizer,2021.1.3,62.3713590667224,
block,scrambled,scrambled053.bmp,,,,,0,134,134,134,,,,,,,,,,,,,,,,,,,,,,,,,,,,,,,,,,,,,,,,,,None,,253.14192246002494,None,253.14192246002494,None,2022-01-24-08:31:27.030192,253.15200540001388,253.45843550001155,253.15200540001388,None,None,253.15200540001388,None,253.9583264600078,None,,,,11004,0001,2022_Jan_24_0827,localizer,2021.1.3,62.3713590667224,
block,scrambled,scrambled086.bmp,,,,,0,135,135,135,,,,,,,,,,,,,,,,,,,,,,,,,,,,,,,,,,,,,,,,,,None,,253.9583264600078,None,253.9583264600078,None,2022-01-24-08:31:27.846511,253.9684970000235,254.27546780000557,253.9684970000235,None,None,253.9684970000235,None,254.77435766000417,None,,,,11004,0001,2022_Jan_24_0827,localizer,2021.1.3,62.3713590667224,
block_end,scrambled,scrambled082.bmp,,,,,0,136,136,136,,,,,,,,,,,,,,,,,,,,,,,,,,,,,,,,,,,,,,,,,,None,,254.77435766000417,None,254.77435766000417,None,2022-01-24-08:31:28.661551,254.78206520000822,255.09254480001982,254.78206520000822,None,None,254.78206520000822,None,255.59234175999882,None,,,,11004,0001,2022_Jan_24_0827,localizer,2021.1.3,62.3713590667224,
block_start,scenes,scenes014.bmp,,,,,0,137,137,137,,,,,,,,,,,,,,,,,,,,,,,,,,,,,,,,,,,,,,,,,,t,1.7183050999883562,255.59252230002312,None,255.59252230002312,None,2022-01-24-08:31:31.215315,257.3353504000115,257.6413484000077,257.3353504000115,None,None,257.3353504000115,None,258.1416423600167,None,,,,11004,0001,2022_Jan_24_0827,localizer,2021.1.3,62.3713590667224,
block,scenes,scenes018.bmp,,,,,0,138,138,138,,,,,,,,,,,,,,,,,,,,,,,,,,,,,,,,,,,,,,,,,,None,,258.1416423600167,None,258.1416423600167,None,2022-01-24-08:31:32.029872,258.15172500000335,258.45946060001734,258.15172500000335,None,None,258.15172500000335,None,258.95891785999993,None,,,,11004,0001,2022_Jan_24_0827,localizer,2021.1.3,62.3713590667224,
block,scenes,scenes002.bmp,,,,,0,139,139,139,,,,,,,,,,,,,,,,,,,,,,,,,,,,,,,,,,,,,,,,,,None,,258.95891785999993,None,258.95891785999993,None,2022-01-24-08:31:32.847093,258.9695600999985,259.27532140002586,258.9695600999985,None,None,258.9695600999985,None,259.77485426000203,None,,,,11004,0001,2022_Jan_24_0827,localizer,2021.1.3,62.3713590667224,
block,scenes,scenes074.bmp,,,,,0,140,140,140,,,,,,,,,,,,,,,,,,,,,,,,,,,,,,,,,,,,,,,,,,None,,259.77485426000203,None,259.77485426000203,None,2022-01-24-08:31:33.661992,259.7768532000191,260.092066000012,259.7768532000191,None,None,259.7768532000191,None,260.5760748600005,None,,,,11004,0001,2022_Jan_24_0827,localizer,2021.1.3,62.3713590667224,
block,scenes,scenes050.bmp,,,,,0,141,141,141,,,,,,,,,,,,,,,,,,,,,,,,,,,,,,,,,,,,,,,,,,None,,260.5760748600005,None,260.5760748600005,None,2022-01-24-08:31:34.468463,260.5914655000088,260.8922069000255,260.5914655000088,260.5914655000088,None,260.5914655000088,260.5914655000088,261.3917471599998,None,,,,11004,0001,2022_Jan_24_0827,localizer,2021.1.3,62.3713590667224,
block,scenes,scenes069.bmp,,,,,0,142,142,142,,,,,,,,,,,,,,,,,,,,,,,,,,,,,,,,,,,,,,,,,,None,,261.3917471599998,None,261.3917471599998,None,2022-01-24-08:31:35.280138,261.40266730001895,261.70865179999964,261.40266730001895,None,None,261.40266730001895,None,262.1976209600107,None,,,,11004,0001,2022_Jan_24_0827,localizer,2021.1.3,62.3713590667224,
block,scenes,scenes020.bmp,,,,,0,143,143,143,,,,,,,,,,,,,,,,,,,,,,,,,,,,,,,,,,,,,,,,,,None,,262.1976209600107,None,262.1976209600107,None,2022-01-24-08:31:36.088799,262.2023675000237,262.5094591000234,262.2023675000237,None,None,262.2023675000237,None,263.0087279600266,None,,,,11004,0001,2022_Jan_24_0827,localizer,2021.1.3,62.3713590667224,
block,scenes,scenes068.bmp,,,,,0,144,144,144,,,,,,,,,,,,,,,,,,,,,,,,,,,,,,,,,,,,,,,,,,None,,263.0087279600266,None,263.0087279600266,None,2022-01-24-08:31:36.896904,263.0200430000259,263.32483880000655,263.0200430000259,None,None,263.0200430000259,None,263.82534876000136,None,,,,11004,0001,2022_Jan_24_0827,localizer,2021.1.3,62.3713590667224,
block,scenes,scenes058.bmp,,,,,0,145,145,145,,,,,,,,,,,,,,,,,,,,,,,,,,,,,,,,,,,,,,,,,,None,,263.82534876000136,None,263.82534876000136,None,2022-01-24-08:31:37.713607,263.835702100012,264.14206310000736,263.835702100012,None,None,263.835702100012,None,264.6421505600156,None,,,,11004,0001,2022_Jan_24_0827,localizer,2021.1.3,62.3713590667224,
block,scenes,scenes054.bmp,,,,,0,146,146,146,,,,,,,,,,,,,,,,,,,,,,,,,,,,,,,,,,,,,,,,,,None,,264.6421505600156,None,264.6421505600156,None,2022-01-24-08:31:38.530328,264.65435240001534,264.9590630000166,264.65435240001534,None,None,264.65435240001534,None,265.45882336000795,None,,,,11004,0001,2022_Jan_24_0827,localizer,2021.1.3,62.3713590667224,
block,scenes,scenes010.bmp,,,,,0,147,147,147,,,,,,,,,,,,,,,,,,,,,,,,,,,,,,,,,,,,,,,,,,None,,265.45882336000795,None,265.45882336000795,None,2022-01-24-08:31:39.347004,265.4699118999997,265.78174480001326,265.4699118999997,None,None,265.4699118999997,None,266.2742015600088,None,,,,11004,0001,2022_Jan_24_0827,localizer,2021.1.3,62.3713590667224,
block,scenes,scenes078.bmp,,,,,0,148,148,148,,,,,,,,,,,,,,,,,,,,,,,,,,,,,,,,,,,,,,,,,,None,,266.2742015600088,None,266.2742015600088,None,2022-01-24-08:31:40.161390,266.2769869000185,266.5919645000249,266.2769869000185,None,None,266.2769869000185,None,267.0916173600126,None,,,,11004,0001,2022_Jan_24_0827,localizer,2021.1.3,62.3713590667224,
block,scenes,scenes081.bmp,,,,,0,149,149,149,,,,,,,,,,,,,,,,,,,,,,,,,,,,,,,,,,,,,,,,,,None,,267.0916173600126,None,267.0916173600126,None,2022-01-24-08:31:40.979803,267.09294160001446,267.408566099999,267.09294160001446,None,y,267.09294160001446,None,267.9085948600259,None,0.02679649999481626,,,11004,0001,2022_Jan_24_0827,localizer,2021.1.3,62.3713590667224,
block,scenes,scenes072.bmp,,,,,0,150,150,150,,,,,,,,,,,,,,,,,,,,,,,,,,,,,,,,,,,,,,,,,,None,,267.9085948600259,None,267.9085948600259,None,2022-01-24-08:31:41.796813,267.91471199999796,268.22534020000603,267.91471199999796,None,None,267.91471199999796,None,268.72528256001533,None,,,,11004,0001,2022_Jan_24_0827,localizer,2021.1.3,62.3713590667224,
block_end,scenes,scenes045.bmp,,,,,0,151,151,151,,,,,,,,,,,,,,,,,,,,,,,,,,,,,,,,,,,,,,,,,,None,,268.72528256001533,None,268.72528256001533,None,2022-01-24-08:31:42.613694,268.735470500018,269.0429132000136,268.735470500018,None,None,268.735470500018,None,269.54258606000803,None,,,,11004,0001,2022_Jan_24_0827,localizer,2021.1.3,62.3713590667224,
block_start,faces,faces066.bmp,,,,,0,152,152,152,,,,,,,,,,,,,,,,,,,,,,,,,,,,,,,,,,,,,,,,,,t,1.7679908999998588,269.54286929999944,None,269.54286929999944,None,2022-01-24-08:31:45.212473,271.33607400002074,271.6421425000008,271.33607400002074,None,None,271.33607400002074,None,272.14190016000066,None,,,,11004,0001,2022_Jan_24_0827,localizer,2021.1.3,62.3713590667224,
block,faces,faces087.bmp,,,,,0,153,153,153,,,,,,,,,,,,,,,,,,,,,,,,,,,,,,,,,,,,,,,,,,None,,272.14190016000066,None,272.14190016000066,None,2022-01-24-08:31:46.030387,272.1533676000254,272.4587664999999,272.1533676000254,None,None,272.1533676000254,None,272.9587552600133,None,,,,11004,0001,2022_Jan_24_0827,localizer,2021.1.3,62.3713590667224,
block,faces,faces052.bmp,,,,,0,154,154,154,,,,,,,,,,,,,,,,,,,,,,,,,,,,,,,,,,,,,,,,,,None,,272.9587552600133,None,272.9587552600133,None,2022-01-24-08:31:46.846936,272.9698040000221,273.28255750000244,272.9698040000221,None,None,272.9698040000221,None,273.7752630600007,None,,,,11004,0001,2022_Jan_24_0827,localizer,2021.1.3,62.3713590667224,
block,faces,faces009.bmp,,,,,0,155,155,155,,,,,,,,,,,,,,,,,,,,,,,,,,,,,,,,,,,,,,,,,,None,,273.7752630600007,None,273.7752630600007,None,2022-01-24-08:31:47.663481,273.7845402000239,274.0924858000071,273.7845402000239,None,None,273.7845402000239,None,274.59234656000626,None,,,,11004,0001,2022_Jan_24_0827,localizer,2021.1.3,62.3713590667224,
block,faces,faces067.bmp,,,,,0,156,156,156,,,,,,,,,,,,,,,,,,,,,,,,,,,,,,,,,,,,,,,,,,None,,274.59234656000626,None,274.59234656000626,None,2022-01-24-08:31:48.480652,274.6046308000223,274.9089532000071,274.6046308000223,None,None,274.6046308000223,None,275.4089465600264,None,,,,11004,0001,2022_Jan_24_0827,localizer,2021.1.3,62.3713590667224,
block,faces,faces080.bmp,,,,,0,157,157,157,,,,,,,,,,,,,,,,,,,,,,,,,,,,,,,,,,,,,,,,,,None,,275.4089465600264,None,275.4089465600264,None,2022-01-24-08:31:49.297327,275.4114211999986,275.7259454000159,275.4114211999986,None,None,275.4114211999986,None,276.2246365600149,None,,,,11004,0001,2022_Jan_24_0827,localizer,2021.1.3,62.3713590667224,
block,faces,faces028.bmp,,,,,0,158,158,158,,,,,,,,,,,,,,,,,,,,,,,,,,,,,,,,,,,,,,,,,,None,,276.2246365600149,None,276.2246365600149,None,2022-01-24-08:31:50.112697,276.2346511000069,276.54625189999933,276.2346511000069,None,None,276.2346511000069,None,277.04214306001086,None,,,,11004,0001,2022_Jan_24_0827,localizer,2021.1.3,62.3713590667224,
block,faces,faces065.bmp,,,,,0,159,159,159,,,,,,,,,,,,,,,,,,,,,,,,,,,,,,,,,,,,,,,,,,None,,277.04214306001086,None,277.04214306001086,None,2022-01-24-08:31:50.930299,277.0434989000205,277.3426985999977,277.0434989000205,None,None,277.0434989000205,None,277.8579983600066,None,,,,11004,0001,2022_Jan_24_0827,localizer,2021.1.3,62.3713590667224,
block,faces,faces048.bmp,,,,,0,160,160,160,,,,,,,,,,,,,,,,,,,,,,,,,,,,,,,,,,,,,,,,,,None,,277.8579983600066,None,277.8579983600066,None,2022-01-24-08:31:51.745210,277.8671937000181,278.1755660000199,277.8671937000181,None,None,277.8671937000181,None,278.6647851600137,None,,,,11004,0001,2022_Jan_24_0827,localizer,2021.1.3,62.3713590667224,
block,faces,faces048.bmp,,,,,0,161,161,161,,,,,,,,,,,,,,,,,,,,,,,,,,,,,,,,,,,,,,,,,,None,,278.6647851600137,None,278.6647851600137,None,2022-01-24-08:31:52.554900,278.66923510000925,278.97476480001933,278.66923510000925,None,None,278.66923510000925,None,279.4754130600195,None,,,,11004,0001,2022_Jan_24_0827,localizer,2021.1.3,62.3713590667224,
block,faces,faces074.bmp,,,,,0,162,162,162,,,,,,,,,,,,,,,,,,,,,,,,,,,,,,,,,,,,,,,,,,None,,279.4754130600195,None,279.4754130600195,None,2022-01-24-08:31:53.362601,279.4819023000018,279.79169030001503,279.4819023000018,None,y,279.4819023000018,None,280.29825136001455,None,0.022533300012582913,,,11004,0001,2022_Jan_24_0827,localizer,2021.1.3,62.3713590667224,
block,faces,faces070.bmp,,,,,0,163,163,163,,,,,,,,,,,,,,,,,,,,,,,,,,,,,,,,,,,,,,,,,,None,,280.29825136001455,None,280.29825136001455,None,2022-01-24-08:31:54.192314,280.3040040000051,280.6095859000052,280.3040040000051,None,None,280.3040040000051,None,281.10839176000445,None,,,,11004,0001,2022_Jan_24_0827,localizer,2021.1.3,62.3713590667224,
block,faces,faces033.bmp,,,,,0,164,164,164,,,,,,,,,,,,,,,,,,,,,,,,,,,,,,,,,,,,,,,,,,None,,281.10839176000445,None,281.10839176000445,None,2022-01-24-08:31:54.995493,281.12499440001557,281.4254983999999,281.12499440001557,None,None,281.12499440001557,None,281.92573356002686,None,,,,11004,0001,2022_Jan_24_0827,localizer,2021.1.3,62.3713590667224,
block,faces,faces050.bmp,,,,,0,165,165,165,,,,,,,,,,,,,,,,,,,,,,,,,,,,,,,,,,,,,,,,,,None,,281.92573356002686,None,281.92573356002686,None,2022-01-24-08:31:55.814099,281.9270263000217,282.24724389999756,281.9270263000217,None,None,281.9270263000217,None,282.7421463600185,None,,,,11004,0001,2022_Jan_24_0827,localizer,2021.1.3,62.3713590667224,
block_end,faces,faces024.bmp,,,,,0,166,166,166,,,,,,,,,,,,,,,,,,,,,,,,,,,,,,,,,,,,,,,,,,None,,282.7421463600185,None,282.7421463600185,None,2022-01-24-08:31:56.630328,282.7530994999979,283.0587854000041,282.7530994999979,None,None,282.7530994999979,None,283.5596445600095,None,,,,11004,0001,2022_Jan_24_0827,localizer,2021.1.3,62.3713590667224,
block_start,objects,objects079.bmp,,,,,0,167,167,167,,,,,,,,,,,,,,,,,,,,,,,,,,,,,,,,,,,,,,,,,,t,1.750955299998168,283.5598463000206,None,283.5598463000206,None,2022-01-24-08:31:59.212544,285.3313449000125,285.64239040002576,285.3313449000125,None,None,285.3313449000125,None,286.14276176001295,None,,,,11004,0001,2022_Jan_24_0827,localizer,2021.1.3,62.3713590667224,
block,objects,objects010.bmp,,,,,0,168,168,168,,,,,,,,,,,,,,,,,,,,,,,,,,,,,,,,,,,,,,,,,,None,,286.14276176001295,None,286.14276176001295,None,2022-01-24-08:32:00.030132,286.14335630001733,286.4432613000099,286.14335630001733,None,None,286.14335630001733,None,286.94593496000743,None,,,,11004,0001,2022_Jan_24_0827,localizer,2021.1.3,62.3713590667224,
block,objects,objects040.bmp,,,,,0,169,169,169,,,,,,,,,,,,,,,,,,,,,,,,,,,,,,,,,,,,,,,,,,None,,286.94593496000743,None,286.94593496000743,None,2022-01-24-08:32:00.837027,286.96027320000576,287.27572270002565,286.96027320000576,286.96027320000576,None,286.96027320000576,286.96027320000576,287.75863436001237,None,,,,11004,0001,2022_Jan_24_0827,localizer,2021.1.3,62.3713590667224,
block,objects,objects063.bmp,,,,,0,170,170,170,,,,,,,,,,,,,,,,,,,,,,,,,,,,,,,,,,,,,,,,,,None,,287.75863436001237,None,287.75863436001237,None,2022-01-24-08:32:01.646817,287.7687705999997,288.07569490000606,287.7687705999997,None,None,287.7687705999997,None,288.57537076002336,None,,,,11004,0001,2022_Jan_24_0827,localizer,2021.1.3,62.3713590667224,
block,objects,objects065.bmp,,,,,0,171,171,171,,,,,,,,,,,,,,,,,,,,,,,,,,,,,,,,,,,,,,,,,,None,,288.57537076002336,None,288.57537076002336,None,2022-01-24-08:32:02.463550,288.57671720001963,288.89267400000244,288.57671720001963,None,None,288.57671720001963,None,289.39211826000246,None,,,,11004,0001,2022_Jan_24_0827,localizer,2021.1.3,62.3713590667224,
block,objects,objects028.bmp,,,,,0,172,172,172,,,,,,,,,,,,,,,,,,,,,,,,,,,,,,,,,,,,,,,,,,None,,289.39211826000246,None,289.39211826000246,None,2022-01-24-08:32:03.280299,289.3983816000109,289.7088967000018,289.3983816000109,None,None,289.3983816000109,None,290.207901960006,None,,,,11004,0001,2022_Jan_24_0827,localizer,2021.1.3,62.3713590667224,
block,objects,objects020.bmp,,,,,0,173,173,173,,,,,,,,,,,,,,,,,,,,,,,,,,,,,,,,,,,,,,,,,,None,,290.207901960006,None,290.207901960006,None,2022-01-24-08:32:04.095098,290.215737600025,290.5259153000079,290.215737600025,None,None,290.215737600025,None,291.025661260006,None,,,,11004,0001,2022_Jan_24_0827,localizer,2021.1.3,62.3713590667224,
block,objects,objects006.bmp,,,,,0,174,174,174,,,,,,,,,,,,,,,,,,,,,,,,,,,,,,,,,,,,,,,,,,None,,291.025661260006,None,291.025661260006,None,2022-01-24-08:32:04.913836,291.03684870002326,291.34910859999945,291.03684870002326,None,None,291.03684870002326,None,291.84150206000777,None,,,,11004,0001,2022_Jan_24_0827,localizer,2021.1.3,62.3713590667224,
block,objects,objects007.bmp,,,,,0,175,175,175,,,,,,,,,,,,,,,,,,,,,,,,,,,,,,,,,,,,,,,,,,None,,291.84150206000777,None,291.84150206000777,None,2022-01-24-08:32:05.728236,291.84398400000646,292.1586306000245,291.84398400000646,None,None,291.84398400000646,None,292.6594284599996,None,,,,11004,0001,2022_Jan_24_0827,localizer,2021.1.3,62.3713590667224,
block,objects,objects035.bmp,,,,,0,176,176,176,,,,,,,,,,,,,,,,,,,,,,,,,,,,,,,,,,,,,,,,,,None,,292.6594284599996,None,292.6594284599996,None,2022-01-24-08:32:06.548788,292.6712069000059,292.97604570002295,292.6712069000059,None,None,292.6712069000059,None,293.47511066001607,None,,,,11004,0001,2022_Jan_24_0827,localizer,2021.1.3,62.3713590667224,
block,objects,objects060.bmp,,,,,0,177,177,177,,,,,,,,,,,,,,,,,,,,,,,,,,,,,,,,,,,,,,,,,,None,,293.47511066001607,None,293.47511066001607,None,2022-01-24-08:32:07.363486,293.4763834000041,293.78047009999864,293.4763834000041,None,None,293.4763834000041,None,294.2761917600001,None,,,,11004,0001,2022_Jan_24_0827,localizer,2021.1.3,62.3713590667224,
block,objects,objects016.bmp,,,,,0,178,178,178,,,,,,,,,,,,,,,,,,,,,,,,,,,,,,,,,,,,,,,,,,None,,294.2761917600001,None,294.2761917600001,None,2022-01-24-08:32:08.168093,294.27939270000206,294.592151400022,294.27939270000206,294.27939270000206,None,294.27939270000206,294.27939270000206,295.0938468600216,None,,,,11004,0001,2022_Jan_24_0827,localizer,2021.1.3,62.3713590667224,
block,objects,objects031.bmp,,,,,0,179,179,179,,,,,,,,,,,,,,,,,,,,,,,,,,,,,,,,,,,,,,,,,,None,,295.0938468600216,None,295.0938468600216,None,2022-01-24-08:32:08.984999,295.1087441999989,295.40862140001263,295.1087441999989,None,None,295.1087441999989,None,295.9084637600172,None,,,,11004,0001,2022_Jan_24_0827,localizer,2021.1.3,62.3713590667224,
block,objects,objects037.bmp,,,,,0,180,180,180,,,,,,,,,,,,,,,,,,,,,,,,,,,,,,,,,,,,,,,,,,None,,295.9084637600172,None,295.9084637600172,None,2022-01-24-08:32:09.796647,295.91820480002207,296.22545500000706,295.91820480002207,None,None,295.91820480002207,None,296.72612826002296,None,,,,11004,0001,2022_Jan_24_0827,localizer,2021.1.3,62.3713590667224,
block_end,objects,objects055.bmp,,,,,0,181,181,181,,,,,,,,,,,,,,,,,,,,,,,,,,,,,,,,,,,,,,,,,,None,,296.72612826002296,None,296.72612826002296,None,2022-01-24-08:32:10.615081,296.73904100002255,297.0425975000253,296.73904100002255,None,None,296.73904100002255,None,297.5417853600229,None,,,,11004,0001,2022_Jan_24_0827,localizer,2021.1.3,62.3713590667224,
null_block,null_block,null_block.bmp,,,,,0,182,182,182,,,,,,,,,,,,,,,,,,,,,,,,,,,,,,,,,,,,,,,,,,t,1.7685686000040732,297.54214510001475,None,297.54214510001475,None,2022-01-24-08:32:13.212308,299.3251225600252,None,299.3251225600252,None,None,299.3251225600252,None,299.3266485000204,None,,,,11004,0001,2022_Jan_24_0827,localizer,2021.1.3,62.3713590667224,
block_start,scenes,scenes059.bmp,,,,,0,183,183,183,,,,,,,,,,,,,,,,,,,,,,,,,,,,,,,,,,,,,,,,,,t,1.9682819000154268,311.34251010001753,None,311.34251010001753,None,2022-01-24-08:32:27.213359,313.3345944000175,313.64237570000114,313.3345944000175,None,None,313.3345944000175,None,314.14407586000743,None,,,,11004,0001,2022_Jan_24_0827,localizer,2021.1.3,62.3713590667224,
block,scenes,scenes051.bmp,,,,,0,184,184,184,,,,,,,,,,,,,,,,,,,,,,,,,,,,,,,,,,,,,,,,,,None,,314.14407586000743,None,314.14407586000743,None,2022-01-24-08:32:28.035386,314.1474846000201,314.4590561000223,314.1474846000201,None,None,314.1474846000201,None,314.95965416001854,None,,,,11004,0001,2022_Jan_24_0827,localizer,2021.1.3,62.3713590667224,
block,scenes,scenes009.bmp,,,,,0,185,185,185,,,,,,,,,,,,,,,,,,,,,,,,,,,,,,,,,,,,,,,,,,None,,314.95965416001854,None,314.95965416001854,None,2022-01-24-08:32:28.849009,314.9609528000001,315.25945760001196,314.9609528000001,None,None,314.9609528000001,None,315.76062706002267,None,,,,11004,0001,2022_Jan_24_0827,localizer,2021.1.3,62.3713590667224,
block,scenes,scenes077.bmp,,,,,0,186,186,186,,,,,,,,,,,,,,,,,,,,,,,,,,,,,,,,,,,,,,,,,,None,,315.76062706002267,None,315.76062706002267,None,2022-01-24-08:32:29.653899,315.77779670001473,316.09202030001325,315.77779670001473,315.77779670001473,None,315.77779670001473,315.77779670001473,316.57540186002734,None,,,,11004,0001,2022_Jan_24_0827,localizer,2021.1.3,62.3713590667224,
block,scenes,scenes045.bmp,,,,,0,187,187,187,,,,,,,,,,,,,,,,,,,,,,,,,,,,,,,,,,,,,,,,,,None,,316.57540186002734,None,316.57540186002734,None,2022-01-24-08:32:30.463794,316.57648840002366,316.8922453999985,316.57648840002366,None,None,316.57648840002366,None,317.3920542600099,None,,,,11004,0001,2022_Jan_24_0827,localizer,2021.1.3,62.3713590667224,
block,scenes,scenes072.bmp,,,,,0,188,188,188,,,,,,,,,,,,,,,,,,,,,,,,,,,,,,,,,,,,,,,,,,None,,317.3920542600099,None,317.3920542600099,None,2022-01-24-08:32:31.280539,317.3931828000059,317.7086741000239,317.3931828000059,None,None,317.3931828000059,None,318.1929969600169,None,,,,11004,0001,2022_Jan_24_0827,localizer,2021.1.3,62.3713590667224,
block,scenes,scenes085.bmp,,,,,0,189,189,189,,,,,,,,,,,,,,,,,,,,,,,,,,,,,,,,,,,,,,,,,,None,,318.1929969600169,None,318.1929969600169,None,2022-01-24-08:32:32.085289,318.19673789999797,318.5092216000194,318.19673789999797,318.19673789999797,None,318.19673789999797,318.19673789999797,319.0089923600026,None,,,,11004,0001,2022_Jan_24_0827,localizer,2021.1.3,62.3713590667224,
block,scenes,scenes084.bmp,,,,,0,190,190,190,,,,,,,,,,,,,,,,,,,,,,,,,,,,,,,,,,,,,,,,,,None,,319.0089923600026,None,319.0089923600026,None,2022-01-24-08:32:32.897175,319.0190097000159,319.3258417000179,319.0190097000159,None,None,319.0190097000159,None,319.8264032600273,None,,,,11004,0001,2022_Jan_24_0827,localizer,2021.1.3,62.3713590667224,
block,scenes,scenes054.bmp,,,,,0,191,191,191,,,,,,,,,,,,,,,,,,,,,,,,,,,,,,,,,,,,,,,,,,None,,319.8264032600273,None,319.8264032600273,None,2022-01-24-08:32:33.715711,319.82789020001655,320.1267739000032,319.82789020001655,None,None,319.82789020001655,None,320.6425228599983,None,,,,11004,0001,2022_Jan_24_0827,localizer,2021.1.3,62.3713590667224,
block,scenes,scenes033.bmp,,,,,0,192,192,192,,,,,,,,,,,,,,,,,,,,,,,,,,,,,,,,,,,,,,,,,,None,,320.6425228599983,None,320.6425228599983,None,2022-01-24-08:32:34.530682,320.65321420002147,320.9590041000047,320.65321420002147,None,None,320.65321420002147,None,321.45902156000375,None,,,,11004,0001,2022_Jan_24_0827,localizer,2021.1.3,62.3713590667224,
block,scenes,scenes001.bmp,,,,,0,193,193,193,,,,,,,,,,,,,,,,,,,,,,,,,,,,,,,,,,,,,,,,,,None,,321.45902156000375,None,321.45902156000375,None,2022-01-24-08:32:35.347184,321.4692147000169,321.7766784999985,321.4692147000169,None,None,321.4692147000169,None,322.27619126002537,None,,,,11004,0001,2022_Jan_24_0827,localizer,2021.1.3,62.3713590667224,
block,scenes,scenes074.bmp,,,,,0,194,194,194,,,,,,,,,,,,,,,,,,,,,,,,,,,,,,,,,,,,,,,,,,None,,322.27619126002537,None,322.27619126002537,None,2022-01-24-08:32:36.165549,322.2775782000099,322.59229090000736,322.2775782000099,None,None,322.2775782000099,None,323.0922496600251,None,,,,11004,0001,2022_Jan_24_0827,localizer,2021.1.3,62.3713590667224,
block,scenes,scenes022.bmp,,,,,0,195,195,195,,,,,,,,,,,,,,,,,,,,,,,,,,,,,,,,,,,,,,,,,,None,,323.0922496600251,None,323.0922496600251,None,2022-01-24-08:32:36.980682,323.1038346000132,323.4093324000132,323.1038346000132,None,None,323.1038346000132,None,323.90892826000345,None,,,,11004,0001,2022_Jan_24_0827,localizer,2021.1.3,62.3713590667224,
block,scenes,scenes021.bmp,,,,,0,196,196,196,,,,,,,,,,,,,,,,,,,,,,,,,,,,,,,,,,,,,,,,,,None,,323.90892826000345,None,323.90892826000345,None,2022-01-24-08:32:37.797312,323.9200497000129,324.225719900016,323.9200497000129,None,None,323.9200497000129,None,324.7256903600064,None,,,,11004,0001,2022_Jan_24_0827,localizer,2021.1.3,62.3713590667224,
block_end,scenes,scenes012.bmp,,,,,0,197,197,197,,,,,,,,,,,,,,,,,,,,,,,,,,,,,,,,,,,,,,,,,,None,,324.7256903600064,None,324.7256903600064,None,2022-01-24-08:32:38.614087,324.736945200013,325.042998000019,324.736945200013,None,None,324.736945200013,None,325.5413152600231,None,,,,11004,0001,2022_Jan_24_0827,localizer,2021.1.3,62.3713590667224,
block_start,objects,objects015.bmp,,,,,0,198,198,198,,,,,,,,,,,,,,,,,,,,,,,,,,,,,,,,,,,,,,,,,,t,1.7687735999934375,325.5418955000059,None,325.5418955000059,None,2022-01-24-08:32:41.212696,327.32678110001143,327.6422265000001,327.32678110001143,None,None,327.32678110001143,None,328.1421103600005,None,,,,11004,0001,2022_Jan_24_0827,localizer,2021.1.3,62.3713590667224,
block,objects,objects056.bmp,,,,,0,199,199,199,,,,,,,,,,,,,,,,,,,,,,,,,,,,,,,,,,,,,,,,,,None,,328.1421103600005,None,328.1421103600005,None,2022-01-24-08:32:42.030498,328.15265070000896,328.45941860001767,328.15265070000896,None,None,328.15265070000896,None,328.9607998600113,None,,,,11004,0001,2022_Jan_24_0827,localizer,2021.1.3,62.3713590667224,
block,objects,objects049.bmp,,,,,0,200,200,200,,,,,,,,,,,,,,,,,,,,,,,,,,,,,,,,,,,,,,,,,,None,,328.9607998600113,None,328.9607998600113,None,2022-01-24-08:32:42.850991,328.9748062000144,329.27531940001063,328.9748062000144,None,None,328.9748062000144,None,329.77466766000725,None,,,,11004,0001,2022_Jan_24_0827,localizer,2021.1.3,62.3713590667224,
block,objects,objects035.bmp,,,,,0,201,201,201,,,,,,,,,,,,,,,,,,,,,,,,,,,,,,,,,,,,,,,,,,None,,329.77466766000725,None,329.77466766000725,None,2022-01-24-08:32:43.661862,329.77705520001473,330.09222650001175,329.77705520001473,None,None,329.77705520001473,None,330.59206326000276,None,,,,11004,0001,2022_Jan_24_0827,localizer,2021.1.3,62.3713590667224,
block,objects,objects011.bmp,,,,,0,202,202,202,,,,,,,,,,,,,,,,,,,,,,,,,,,,,,,,,,,,,,,,,,None,,330.59206326000276,None,330.59206326000276,None,2022-01-24-08:32:44.480430,330.6026439999987,330.9089224000054,330.6026439999987,None,None,330.6026439999987,None,331.4088200600236,None,,,,11004,0001,2022_Jan_24_0827,localizer,2021.1.3,62.3713590667224,
block,objects,objects050.bmp,,,,,0,203,203,203,,,,,,,,,,,,,,,,,,,,,,,,,,,,,,,,,,,,,,,,,,None,,331.4088200600236,None,331.4088200600236,None,2022-01-24-08:32:45.297004,331.410145700007,331.72583770001074,331.410145700007,None,None,331.410145700007,None,332.2094227600028,None,,,,11004,0001,2022_Jan_24_0827,localizer,2021.1.3,62.3713590667224,
block,objects,objects041.bmp,,,,,0,204,204,204,,,,,,,,,,,,,,,,,,,,,,,,,,,,,,,,,,,,,,,,,,None,,332.2094227600028,None,332.2094227600028,None,2022-01-24-08:32:46.099597,332.21284000002197,332.52595250000013,332.21284000002197,332.21284000002197,None,332.21284000002197,332.21284000002197,333.0249340599985,None,,,,11004,0001,2022_Jan_24_0827,localizer,2021.1.3,62.3713590667224,
block,objects,objects042.bmp,,,,,0,205,205,205,,,,,,,,,,,,,,,,,,,,,,,,,,,,,,,,,,,,,,,,,,None,,333.0249340599985,None,333.0249340599985,None,2022-01-24-08:32:46.912130,333.0286708000058,333.3426095000177,333.0286708000058,None,None,333.0286708000058,None,333.84266295999987,None,,,,11004,0001,2022_Jan_24_0827,localizer,2021.1.3,62.3713590667224,
block,objects,objects009.bmp,,,,,0,206,206,206,,,,,,,,,,,,,,,,,,,,,,,,,,,,,,,,,,,,,,,,,,None,,333.84266295999987,None,333.84266295999987,None,2022-01-24-08:32:47.730884,333.8526520000014,334.1594021000201,333.8526520000014,None,None,333.8526520000014,None,334.65900586001226,None,,,,11004,0001,2022_Jan_24_0827,localizer,2021.1.3,62.3713590667224,
block,objects,objects027.bmp,,,,,0,207,207,207,,,,,,,,,,,,,,,,,,,,,,,,,,,,,,,,,,,,,,,,,,None,,334.65900586001226,None,334.65900586001226,None,2022-01-24-08:32:48.547188,334.6682329000032,334.97571950001293,334.6682329000032,None,None,334.6682329000032,None,335.4756319599983,None,,,,11004,0001,2022_Jan_24_0827,localizer,2021.1.3,62.3713590667224,
block,objects,objects046.bmp,,,,,0,208,208,208,,,,,,,,,,,,,,,,,,,,,,,,,,,,,,,,,,,,,,,,,,None,,335.4756319599983,None,335.4756319599983,None,2022-01-24-08:32:49.363816,335.4856291000033,335.79482010001084,335.4856291000033,None,None,335.4856291000033,None,336.292610960023,None,,,,11004,0001,2022_Jan_24_0827,localizer,2021.1.3,62.3713590667224,
block,objects,objects071.bmp,,,,,0,209,209,209,,,,,,,,,,,,,,,,,,,,,,,,,,,,,,,,,,,,,,,,,,None,,336.292610960023,None,336.292610960023,None,2022-01-24-08:32:50.180768,336.302777600009,336.60905920001096,336.302777600009,None,None,336.302777600009,None,337.10798326000804,None,,,,11004,0001,2022_Jan_24_0827,localizer,2021.1.3,62.3713590667224,
block,objects,objects006.bmp,,,,,0,210,210,210,,,,,,,,,,,,,,,,,,,,,,,,,,,,,,,,,,,,,,,,,,None,,337.10798326000804,None,337.10798326000804,None,2022-01-24-08:32:50.995240,337.11040590002085,337.4258775000053,337.11040590002085,None,None,337.11040590002085,None,337.92525776001276,None,,,,11004,0001,2022_Jan_24_0827,localizer,2021.1.3,62.3713590667224,
block,objects,objects076.bmp,,,,,0,211,211,211,,,,,,,,,,,,,,,,,,,,,,,,,,,,,,,,,,,,,,,,,,None,,337.92525776001276,None,337.92525776001276,None,2022-01-24-08:32:51.813650,337.93496620000224,338.24224560000584,337.93496620000224,None,None,337.93496620000224,None,338.7421375600097,None,,,,11004,0001,2022_Jan_24_0827,localizer,2021.1.3,62.3713590667224,
block_end,objects,objects080.bmp,,,,,0,212,212,212,,,,,,,,,,,,,,,,,,,,,,,,,,,,,,,,,,,,,,,,,,None,,338.7421375600097,None,338.7421375600097,None,2022-01-24-08:32:52.630539,338.7525361000153,339.0591953000112,338.7525361000153,None,None,338.7525361000153,None,339.55882496002596,None,,,,11004,0001,2022_Jan_24_0827,localizer,2021.1.3,62.3713590667224,
block_start,scrambled,scrambled027.bmp,,,,,0,213,213,213,,,,,,,,,,,,,,,,,,,,,,,,,,,,,,,,,,,,,,,,,,t,1.750623199972324,339.55992530001095,None,339.55992530001095,None,2022-01-24-08:32:55.212564,341.32905520001077,341.64232110002195,341.32905520001077,None,None,341.32905520001077,None,342.14239386000554,None,,,,11004,0001,2022_Jan_24_0827,localizer,2021.1.3,62.3713590667224,
block,scrambled,scrambled054.bmp,,,,,0,214,214,214,,,,,,,,,,,,,,,,,,,,,,,,,,,,,,,,,,,,,,,,,,None,,342.14239386000554,None,342.14239386000554,None,2022-01-24-08:32:56.030788,342.15303909999784,342.4588297000155,342.15303909999784,None,None,342.15303909999784,None,342.9594513600168,None,,,,11004,0001,2022_Jan_24_0827,localizer,2021.1.3,62.3713590667224,
block,scrambled,scrambled021.bmp,,,,,0,215,215,215,,,,,,,,,,,,,,,,,,,,,,,,,,,,,,,,,,,,,,,,,,None,,342.9594513600168,None,342.9594513600168,None,2022-01-24-08:32:56.847821,342.9704338000156,343.2755407000077,342.9704338000156,None,None,342.9704338000156,None,343.7754168600077,None,,,,11004,0001,2022_Jan_24_0827,localizer,2021.1.3,62.3713590667224,
block,scrambled,scrambled065.bmp,,,,,0,216,216,216,,,,,,,,,,,,,,,,,,,,,,,,,,,,,,,,,,,,,,,,,,None,,343.7754168600077,None,343.7754168600077,None,2022-01-24-08:32:57.663604,343.78398750000633,344.09242310002446,343.78398750000633,None,None,343.78398750000633,None,344.5923911600257,None,,,,11004,0001,2022_Jan_24_0827,localizer,2021.1.3,62.3713590667224,
block,scrambled,scrambled056.bmp,,,,,0,217,217,217,,,,,,,,,,,,,,,,,,,,,,,,,,,,,,,,,,,,,,,,,,None,,344.5923911600257,None,344.5923911600257,None,2022-01-24-08:32:58.480701,344.6018862000201,344.9104236999992,344.6018862000201,None,None,344.6018862000201,None,345.40846846002387,None,,,,11004,0001,2022_Jan_24_0827,localizer,2021.1.3,62.3713590667224,
block,scrambled,scrambled056.bmp,,,,,0,218,218,218,,,,,,,,,,,,,,,,,,,,,,,,,,,,,,,,,,,,,,,,,,None,,345.40846846002387,None,345.40846846002387,None,2022-01-24-08:32:59.295660,345.41045340002165,345.7258371000062,345.41045340002165,None,y,345.41045340002165,None,346.22577926001395,None,0.5971578999888152,,,11004,0001,2022_Jan_24_0827,localizer,2021.1.3,62.3713590667224,
block,scrambled,scrambled019.bmp,,,,,0,219,219,219,,,,,,,,,,,,,,,,,,,,,,,,,,,,,,,,,,,,,,,,,,None,,346.22577926001395,None,346.22577926001395,None,2022-01-24-08:33:00.114392,346.2360042000073,346.5433983000112,346.2360042000073,None,None,346.2360042000073,None,347.0425928600016,None,,,,11004,0001,2022_Jan_24_0827,localizer,2021.1.3,62.3713590667224,
block,scrambled,scrambled073.bmp,,,,,0,220,220,220,,,,,,,,,,,,,,,,,,,,,,,,,,,,,,,,,,,,,,,,,,None,,347.0425928600016,None,347.0425928600016,None,2022-01-24-08:33:00.930960,347.05284400001983,347.36288170001353,347.05284400001983,None,None,347.05284400001983,None,347.8587743600074,None,,,,11004,0001,2022_Jan_24_0827,localizer,2021.1.3,62.3713590667224,
block,scrambled,scrambled008.bmp,,,,,0,221,221,221,,,,,,,,,,,,,,,,,,,,,,,,,,,,,,,,,,,,,,,,,,None,,347.8587743600074,None,347.8587743600074,None,2022-01-24-08:33:01.746960,347.860084200016,348.17575419999775,347.860084200016,None,None,347.860084200016,None,348.67551205999916,None,,,,11004,0001,2022_Jan_24_0827,localizer,2021.1.3,62.3713590667224,
block,scrambled,scrambled024.bmp,,,,,0,222,222,222,,,,,,,,,,,,,,,,,,,,,,,,,,,,,,,,,,,,,,,,,,None,,348.67551205999916,None,348.67551205999916,None,2022-01-24-08:33:02.563699,348.68427540000994,348.9942203000246,348.68427540000994,None,y,348.68427540000994,None,349.49191236001207,None,0.42246349999913946,,,11004,0001,2022_Jan_24_0827,localizer,2021.1.3,62.3713590667224,
block,scrambled,scrambled079.bmp,,,,,0,223,223,223,,,,,,,,,,,,,,,,,,,,,,,,,,,,,,,,,,,,,,,,,,None,,349.49191236001207,None,349.49191236001207,None,2022-01-24-08:33:03.379100,349.4940077000065,349.80913850001525,349.4940077000065,None,None,349.4940077000065,None,350.3090654600237,None,,,,11004,0001,2022_Jan_24_0827,localizer,2021.1.3,62.3713590667224,
block,scrambled,scrambled039.bmp,,,,,0,224,224,224,,,,,,,,,,,,,,,,,,,,,,,,,,,,,,,,,,,,,,,,,,None,,350.3090654600237,None,350.3090654600237,None,2022-01-24-08:33:04.197357,350.3197816000029,350.62581019999925,350.3197816000029,None,None,350.3197816000029,None,351.1261136600224,None,,,,11004,0001,2022_Jan_24_0827,localizer,2021.1.3,62.3713590667224,
block,scrambled,scrambled082.bmp,,,,,0,225,225,225,,,,,,,,,,,,,,,,,,,,,,,,,,,,,,,,,,,,,,,,,,None,,351.1261136600224,None,351.1261136600224,None,2022-01-24-08:33:05.014478,351.1275233000051,351.44232560001547,351.1275233000051,None,None,351.1275233000051,None,351.94247836002614,None,,,,11004,0001,2022_Jan_24_0827,localizer,2021.1.3,62.3713590667224,
block,scrambled,scrambled078.bmp,,,,,0,226,226,226,,,,,,,,,,,,,,,,,,,,,,,,,,,,,,,,,,,,,,,,,,None,,351.94247836002614,None,351.94247836002614,None,2022-01-24-08:33:05.830801,351.9525146000087,352.25925430000643,351.9525146000087,None,None,351.9525146000087,None,352.75911896000616,None,,,,11004,0001,2022_Jan_24_0827,localizer,2021.1.3,62.3713590667224,
block_end,scrambled,scrambled085.bmp,,,,,0,227,227,227,,,,,,,,,,,,,,,,,,,,,,,,,,,,,,,,,,,,,,,,,,None,,352.75911896000616,None,352.75911896000616,None,2022-01-24-08:33:06.646302,352.76643730001524,353.0818634000025,352.76643730001524,None,None,352.76643730001524,None,353.5757796600228,None,,,,11004,0001,2022_Jan_24_0827,localizer,2021.1.3,62.3713590667224,
block_start,faces,faces035.bmp,,,,,0,228,228,228,,,,,,,,,,,,,,,,,,,,,,,,,,,,,,,,,,,,,,,,,,t,1.7346304999955464,353.57588590000523,None,353.57588590000523,None,2022-01-24-08:33:09.227139,355.3502862000023,355.65918930000043,355.3502862000023,None,None,355.3502862000023,None,356.1600414600107,None,,,,11004,0001,2022_Jan_24_0827,localizer,2021.1.3,62.3713590667224,
block,faces,faces040.bmp,,,,,0,229,229,229,,,,,,,,,,,,,,,,,,,,,,,,,,,,,,,,,,,,,,,,,,None,,356.1600414600107,None,356.1600414600107,None,2022-01-24-08:33:10.049386,356.1612929000112,356.4755675000197,356.1612929000112,None,None,356.1612929000112,None,356.97560856002383,None,,,,11004,0001,2022_Jan_24_0827,localizer,2021.1.3,62.3713590667224,
block,faces,faces075.bmp,,,,,0,230,230,230,,,,,,,,,,,,,,,,,,,,,,,,,,,,,,,,,,,,,,,,,,None,,356.97560856002383,None,356.97560856002383,None,2022-01-24-08:33:10.863815,356.98638420001953,357.2928138000134,356.98638420001953,None,None,356.98638420001953,None,357.792788760009,None,,,,11004,0001,2022_Jan_24_0827,localizer,2021.1.3,62.3713590667224,
block,faces,faces074.bmp,,,,,0,231,231,231,,,,,,,,,,,,,,,,,,,,,,,,,,,,,,,,,,,,,,,,,,None,,357.792788760009,None,357.792788760009,None,2022-01-24-08:33:11.681157,357.79405039999983,358.1089530000172,357.79405039999983,None,None,357.79405039999983,None,358.6094112600258,None,,,,11004,0001,2022_Jan_24_0827,localizer,2021.1.3,62.3713590667224,
block,faces,faces066.bmp,,,,,0,232,232,232,,,,,,,,,,,,,,,,,,,,,,,,,,,,,,,,,,,,,,,,,,None,,358.6094112600258,None,358.6094112600258,None,2022-01-24-08:33:12.497752,358.61072180001065,358.9264077000262,358.61072180001065,None,None,358.61072180001065,None,359.42568166001,None,,,,11004,0001,2022_Jan_24_0827,localizer,2021.1.3,62.3713590667224,
block,faces,faces022.bmp,,,,,0,233,233,233,,,,,,,,,,,,,,,,,,,,,,,,,,,,,,,,,,,,,,,,,,None,,359.42568166001,None,359.42568166001,None,2022-01-24-08:33:13.313863,359.4269580000255,359.726118999999,359.4269580000255,None,None,359.4269580000255,None,360.22601776002557,None,,,,11004,0001,2022_Jan_24_0827,localizer,2021.1.3,62.3713590667224,
block,faces,faces038.bmp,,,,,0,234,234,234,,,,,,,,,,,,,,,,,,,,,,,,,,,,,,,,,,,,,,,,,,None,,360.22601776002557,None,360.22601776002557,None,2022-01-24-08:33:14.116165,360.2278468000004,360.5424867000256,360.2278468000004,360.2278468000004,None,360.2278468000004,360.2278468000004,361.04278676002286,None,,,,11004,0001,2022_Jan_24_0827,localizer,2021.1.3,62.3713590667224,
block,faces,faces041.bmp,,,,,0,235,235,235,,,,,,,,,,,,,,,,,,,,,,,,,,,,,,,,,,,,,,,,,,None,,361.04278676002286,None,361.04278676002286,None,2022-01-24-08:33:14.931112,361.0546417000005,361.3595175000082,361.0546417000005,None,None,361.0546417000005,None,361.85923496002215,None,,,,11004,0001,2022_Jan_24_0827,localizer,2021.1.3,62.3713590667224,
block,faces,faces008.bmp,,,,,0,236,236,236,,,,,,,,,,,,,,,,,,,,,,,,,,,,,,,,,,,,,,,,,,None,,361.85923496002215,None,361.85923496002215,None,2022-01-24-08:33:15.747634,361.8709554000234,362.1761207000236,361.8709554000234,None,None,361.8709554000234,None,362.6752371600014,None,,,,11004,0001,2022_Jan_24_0827,localizer,2021.1.3,62.3713590667224,
block,faces,faces010.bmp,,,,,0,237,237,237,,,,,,,,,,,,,,,,,,,,,,,,,,,,,,,,,,,,,,,,,,None,,362.6752371600014,None,362.6752371600014,None,2022-01-24-08:33:16.562678,362.6775000000198,362.99232859999756,362.6775000000198,None,None,362.6775000000198,None,363.4920617600146,None,,,,11004,0001,2022_Jan_24_0827,localizer,2021.1.3,62.3713590667224,
block,faces,faces023.bmp,,,,,0,238,238,238,,,,,,,,,,,,,,,,,,,,,,,,,,,,,,,,,,,,,,,,,,None,,363.4920617600146,None,363.4920617600146,None,2022-01-24-08:33:17.380249,363.4970392000105,363.809124899999,363.4970392000105,None,None,363.4970392000105,None,364.3089792600076,None,,,,11004,0001,2022_Jan_24_0827,localizer,2021.1.3,62.3713590667224,
block,faces,faces058.bmp,,,,,0,239,239,239,,,,,,,,,,,,,,,,,,,,,,,,,,,,,,,,,,,,,,,,,,None,,364.3089792600076,None,364.3089792600076,None,2022-01-24-08:33:18.197166,364.31033330000355,364.6260029000114,364.31033330000355,None,None,364.31033330000355,None,365.1255863600236,None,,,,11004,0001,2022_Jan_24_0827,localizer,2021.1.3,62.3713590667224,
block,faces,faces031.bmp,,,,,0,240,240,240,,,,,,,,,,,,,,,,,,,,,,,,,,,,,,,,,,,,,,,,,,None,,365.1255863600236,None,365.1255863600236,None,2022-01-24-08:33:19.013770,365.1269314000092,365.4422370000102,365.1269314000092,None,None,365.1269314000092,None,365.9261122600001,None,,,,11004,0001,2022_Jan_24_0827,localizer,2021.1.3,62.3713590667224,
block,faces,faces047.bmp,,,,,0,241,241,241,,,,,,,,,,,,,,,,,,,,,,,,,,,,,,,,,,,,,,,,,,None,,365.9261122600001,None,365.9261122600001,None,2022-01-24-08:33:19.816283,365.94136140000774,366.24251410001307,365.94136140000774,365.94136140000774,None,365.94136140000774,365.94136140000774,366.7423186600208,None,,,,11004,0001,2022_Jan_24_0827,localizer,2021.1.3,62.3713590667224,
block_end,faces,faces052.bmp,,,,,0,242,242,242,,,,,,,,,,,,,,,,,,,,,,,,,,,,,,,,,,,,,,,,,,None,,366.7423186600208,None,366.7423186600208,None,2022-01-24-08:33:20.630503,366.74380029999884,367.0590506000153,366.74380029999884,None,None,366.74380029999884,None,367.55893076001666,None,,,,11004,0001,2022_Jan_24_0827,localizer,2021.1.3,62.3713590667224,
null_block,null_block,null_block.bmp,,,,,0,243,243,243,,,,,,,,,,,,,,,,,,,,,,,,,,,,,,,,,,,,,,,,,,t,1.7512554000131786,367.5594194000005,None,367.5594194000005,None,2022-01-24-08:33:23.229574,369.34238596001524,None,369.34238596001524,None,None,369.34238596001524,None,369.3438077000028,None,,,,11004,0001,2022_Jan_24_0827,localizer,2021.1.3,62.3713590667224,
,,,,,,,,,,,,,,,,,,,,,,,,,,,,,,,,,,,,,,,,,,,,,,,,,,,,,,,,,,,,,,,,,,,,,381.3423560000083,None,,,,,,,
