block_type,condition,img_name,Button.thisRepN,Button.thisTrialN,Button.thisN,Button.thisIndex,trials.thisRepN,trials.thisTrialN,trials.thisN,trials.thisIndex,Ready_experimenter_text.started,Ready_experimenter_text.stopped,Ready_experimenter_resp.keys,Ready_experimenter_resp.rt,Ready_experimenter_resp.started,Ready_experimenter_resp.stopped,Alignment_background.started,Alignment_background.stopped,Alignment_image.started,Alignment_image.stopped,Alignment_resp.keys,Alignment_resp.rt,Alignment_resp.started,Alignment_resp.stopped,Button_text.started,Button_text.stopped,Index_text.started,Index_text.stopped,Index_resp.keys,Index_resp.rt,Index_resp.started,Index_resp.stopped,Middle_text.started,Middle_text.stopped,Middle_resp.keys,Middle_resp.rt,Middle_resp.started,Middle_resp.stopped,Repeat_text.started,Repeat_text.stopped,Repeat_resp.keys,Repeat_resp.corr,Repeat_resp.rt,Repeat_resp.started,Repeat_resp.stopped,instruction_text.started,instruction_text.stopped,key_resp.keys,key_resp.rt,key_resp.started,key_resp.stopped,scanner_t.keys,scanner_t.rt,scanner_t.started,scanner_t.stopped,fixation_wait_for_t.started,fixation_wait_for_t.stopped,real_timestamp_trial_start,image.started,image.stopped,fixation.started,fixation.stopped,repeat_response.keys,repeat_response.started,repeat_response.stopped,fixation_null.started,fixation_null.stopped,repeat_response.rt,end_text.started,end_text.stopped,participant,run,date,expName,psychopyVersion,frameRate,
,,,,,,,,,,,11.332981599960476,None,return,481.3664933000691,11.332981599960476,None,,,,,,,,,,,,,,,,,,,,,,,,,,,,,,,,,,,,,,,,,,,,,,,,,,,,,,,21005,0002,2022_Jul_08_1316,localizer,2021.1.3,61.125105378456055,
,,,,,,,,,,,,,,,,,492.75429910002276,None,492.75429910002276,None,return,0.9272396999876946,492.75429910002276,None,,,,,,,,,,,,,,,,,,,,,,,,,,,,,,,,,,,,,,,,,,,,,,,21005,0002,2022_Jul_08_1316,localizer,2021.1.3,61.125105378456055,
,,,0,0,0,0,,,,,,,,,,,,,,,,,,,493.69688699999824,None,494.69689709995873,None,y,2.542842000024393,494.69689709995873,None,497.263280000072,None,b,1.5895607999991626,497.263280000072,None,498.8809102999512,None,n,0,1.4765772998798639,498.8809102999512,None,,,,,,,,,,,,,,,,,,,,,,,,,,21005,0002,2022_Jul_08_1316,localizer,2021.1.3,61.125105378456055,
,,,,,,,,,,,,,,,,,,,,,,,,,,,,,,,,,,,,,,,,,,,,,,500.37994879996404,None,y,21.031695700017735,500.37994879996404,None,,,,,,,,,,,,,,,,,,,,21005,0002,2022_Jul_08_1316,localizer,2021.1.3,61.125105378456055,
block_start,scenes,scenes034.bmp,,,,,0,0,0,0,,,,,,,,,,,,,,,,,,,,,,,,,,,,,,,,,,,,,,,,,,t,15.71705470001325,521.4547224000562,None,521.4547224000562,None,2022-07-08-13:25:37.011318,537.2082369001582,537.5140148000792,537.2082369001582,None,None,537.2082369001582,None,538.013946379954,None,,,,21005,0002,2022_Jul_08_1316,localizer,2021.1.3,61.125105378456055,
block,scenes,scenes023.bmp,,,,,0,1,1,1,,,,,,,,,,,,,,,,,,,,,,,,,,,,,,,,,,,,,,,,,,None,,538.013946379954,None,538.013946379954,None,2022-07-08-13:25:37.831470,538.0168167999946,538.3305943000596,538.0168167999946,None,None,538.0168167999946,None,538.8305319800972,None,,,,21005,0002,2022_Jul_08_1316,localizer,2021.1.3,61.125105378456055,
block,scenes,scenes084.bmp,,,,,0,2,2,2,,,,,,,,,,,,,,,,,,,,,,,,,,,,,,,,,,,,,,,,,,None,,538.8305319800972,None,538.8305319800972,None,2022-07-08-13:25:38.647101,538.8315528000239,539.1474361999426,538.8315528000239,None,None,538.8315528000239,None,539.6362154799979,None,,,,21005,0002,2022_Jul_08_1316,localizer,2021.1.3,61.125105378456055,
block,scenes,scenes019.bmp,,,,,0,3,3,3,,,,,,,,,,,,,,,,,,,,,,,,,,,,,,,,,,,,,,,,,,None,,539.6362154799979,None,539.6362154799979,None,2022-07-08-13:25:39.452796,539.6407520000357,539.9473356001545,539.6407520000357,None,None,539.6407520000357,None,540.4473547799978,None,,,,21005,0002,2022_Jul_08_1316,localizer,2021.1.3,61.125105378456055,
block,scenes,scenes082.bmp,,,,,0,4,4,4,,,,,,,,,,,,,,,,,,,,,,,,,,,,,,,,,,,,,,,,,,None,,540.4473547799978,None,540.4473547799978,None,2022-07-08-13:25:40.263921,540.4583764001727,540.7641640000511,540.4583764001727,None,None,540.4583764001727,None,541.2649797801394,None,,,,21005,0002,2022_Jul_08_1316,localizer,2021.1.3,61.125105378456055,
block,scenes,scenes044.bmp,,,,,0,5,5,5,,,,,,,,,,,,,,,,,,,,,,,,,,,,,,,,,,,,,,,,,,None,,541.2649797801394,None,541.2649797801394,None,2022-07-08-13:25:41.082713,541.2675514000002,541.5807461000513,541.2675514000002,None,None,541.2675514000002,None,542.0803017799742,None,,,,21005,0002,2022_Jul_08_1316,localizer,2021.1.3,61.125105378456055,
block,scenes,scenes073.bmp,,,,,0,6,6,6,,,,,,,,,,,,,,,,,,,,,,,,,,,,,,,,,,,,,,,,,,None,,542.0803017799742,None,542.0803017799742,None,2022-07-08-13:25:41.896877,542.0912288001273,542.3975889000576,542.0912288001273,None,None,542.0912288001273,None,542.8869855801574,None,,,,21005,0002,2022_Jul_08_1316,localizer,2021.1.3,61.125105378456055,
block,scenes,scenes047.bmp,,,,,0,7,7,7,,,,,,,,,,,,,,,,,,,,,,,,,,,,,,,,,,,,,,,,,,None,,542.8869855801574,None,542.8869855801574,None,2022-07-08-13:25:42.708245,542.8925863001496,543.1975611001253,542.8925863001496,None,None,542.8925863001496,None,543.6975592800416,None,,,,21005,0002,2022_Jul_08_1316,localizer,2021.1.3,61.125105378456055,
block,scenes,scenes054.bmp,,,,,0,8,8,8,,,,,,,,,,,,,,,,,,,,,,,,,,,,,,,,,,,,,,,,,,None,,543.6975592800416,None,543.6975592800416,None,2022-07-08-13:25:43.514839,543.6995822000317,544.0132828999776,543.6995822000317,None,None,543.6995822000317,None,544.5136398800648,None,,,,21005,0002,2022_Jul_08_1316,localizer,2021.1.3,61.125105378456055,
block,scenes,scenes065.bmp,,,,,0,9,9,9,,,,,,,,,,,,,,,,,,,,,,,,,,,,,,,,,,,,,,,,,,None,,544.5136398800648,None,544.5136398800648,None,2022-07-08-13:25:44.330378,544.5150913000107,544.8306345001329,544.5150913000107,None,None,544.5150913000107,None,545.3304463801439,None,,,,21005,0002,2022_Jul_08_1316,localizer,2021.1.3,61.125105378456055,
block,scenes,scenes083.bmp,,,,,0,10,10,10,,,,,,,,,,,,,,,,,,,,,,,,,,,,,,,,,,,,,,,,,,None,,545.3304463801439,None,545.3304463801439,None,2022-07-08-13:25:45.147764,545.3315226000268,545.6471260001417,545.3315226000268,None,None,545.3315226000268,None,546.1472919799387,None,,,,21005,0002,2022_Jul_08_1316,localizer,2021.1.3,61.125105378456055,
block,scenes,scenes045.bmp,,,,,0,11,11,11,,,,,,,,,,,,,,,,,,,,,,,,,,,,,,,,,,,,,,,,,,None,,546.1472919799387,None,546.1472919799387,None,2022-07-08-13:25:45.963846,546.1575726999436,546.4639926000964,546.1575726999436,None,None,546.1575726999436,None,546.952872780105,None,,,,21005,0002,2022_Jul_08_1316,localizer,2021.1.3,61.125105378456055,
block,scenes,scenes062.bmp,,,,,0,12,12,12,,,,,,,,,,,,,,,,,,,,,,,,,,,,,,,,,,,,,,,,,,None,,546.952872780105,None,546.952872780105,None,2022-07-08-13:25:46.773046,546.9702203001361,547.2812769999728,546.9702203001361,None,None,546.9702203001361,None,547.764586880058,None,,,,21005,0002,2022_Jul_08_1316,localizer,2021.1.3,61.125105378456055,
block,scenes,scenes080.bmp,,,,,0,13,13,13,,,,,,,,,,,,,,,,,,,,,,,,,,,,,,,,,,,,,,,,,,None,,547.764586880058,None,547.764586880058,None,2022-07-08-13:25:47.582241,547.7653602999635,548.0804640001152,547.7653602999635,None,None,547.7653602999635,None,548.580506680021,None,,,,21005,0002,2022_Jul_08_1316,localizer,2021.1.3,61.125105378456055,
block_end,scenes,scenes005.bmp,,,,,0,14,14,14,,,,,,,,,,,,,,,,,,,,,,,,,,,,,,,,,,,,,,,,,,None,,548.580506680021,None,548.580506680021,None,2022-07-08-13:25:48.398074,548.5816931000445,548.8973811999895,548.5816931000445,None,None,548.5816931000445,None,549.397166180145,None,,,,21005,0002,2022_Jul_08_1316,localizer,2021.1.3,61.125105378456055,
block_start,scrambled,scrambled079.bmp,,,,,0,15,15,15,,,,,,,,,,,,,,,,,,,,,,,,,,,,,,,,,,,,,,,,,,t,1.7744486001320183,549.397307400126,None,549.397307400126,None,2022-07-08-13:25:51.015910,551.2012231000699,551.5137563999742,551.2012231000699,None,None,551.2012231000699,None,552.0016776800155,None,,,,21005,0002,2022_Jul_08_1316,localizer,2021.1.3,61.125105378456055,
block,scrambled,scrambled014.bmp,,,,,0,16,16,16,,,,,,,,,,,,,,,,,,,,,,,,,,,,,,,,,,,,,,,,,,None,,552.0016776800155,None,552.0016776800155,None,2022-07-08-13:25:51.822198,552.0061052001547,552.3142228999641,552.0061052001547,552.0061052001547,None,552.0061052001547,552.0061052001547,552.813974080095,None,,,,21005,0002,2022_Jul_08_1316,localizer,2021.1.3,61.125105378456055,
block,scrambled,scrambled051.bmp,,,,,0,17,17,17,,,,,,,,,,,,,,,,,,,,,,,,,,,,,,,,,,,,,,,,,,None,,552.813974080095,None,552.813974080095,None,2022-07-08-13:25:52.630545,552.8151412999723,553.1305432999507,552.8151412999723,None,None,552.8151412999723,None,553.6297657801304,None,,,,21005,0002,2022_Jul_08_1316,localizer,2021.1.3,61.125105378456055,
block,scrambled,scrambled087.bmp,,,,,0,18,18,18,,,,,,,,,,,,,,,,,,,,,,,,,,,,,,,,,,,,,,,,,,None,,553.6297657801304,None,553.6297657801304,None,2022-07-08-13:25:53.447173,553.6347759000491,553.9475692000706,553.6347759000491,None,None,553.6347759000491,None,554.4476549799554,None,,,,21005,0002,2022_Jul_08_1316,localizer,2021.1.3,61.125105378456055,
block,scrambled,scrambled027.bmp,,,,,0,19,19,19,,,,,,,,,,,,,,,,,,,,,,,,,,,,,,,,,,,,,,,,,,None,,554.4476549799554,None,554.4476549799554,None,2022-07-08-13:25:54.265319,554.4611156999599,554.76415250008,554.4611156999599,None,None,554.4611156999599,None,555.2627508800476,None,,,,21005,0002,2022_Jul_08_1316,localizer,2021.1.3,61.125105378456055,
block,scrambled,scrambled037.bmp,,,,,0,20,20,20,,,,,,,,,,,,,,,,,,,,,,,,,,,,,,,,,,,,,,,,,,None,,555.2627508800476,None,555.2627508800476,None,2022-07-08-13:25:55.078332,555.2650336001534,555.5805321000516,555.2650336001534,None,None,555.2650336001534,None,556.0643421799875,None,,,,21005,0002,2022_Jul_08_1316,localizer,2021.1.3,61.125105378456055,
block,scrambled,scrambled020.bmp,,,,,0,21,21,21,,,,,,,,,,,,,,,,,,,,,,,,,,,,,,,,,,,,,,,,,,None,,556.0643421799875,None,556.0643421799875,None,2022-07-08-13:25:55.884092,556.0795674000401,556.3805521000177,556.0795674000401,556.0795674000401,None,556.0795674000401,556.0795674000401,556.8803467801306,None,,,,21005,0002,2022_Jul_08_1316,localizer,2021.1.3,61.125105378456055,
block,scrambled,scrambled011.bmp,,,,,0,22,22,22,,,,,,,,,,,,,,,,,,,,,,,,,,,,,,,,,,,,,,,,,,None,,556.8803467801306,None,556.8803467801306,None,2022-07-08-13:25:56.696903,556.8818445000798,557.1973880999722,556.8818445000798,None,None,556.8818445000798,None,557.6815701799467,None,,,,21005,0002,2022_Jul_08_1316,localizer,2021.1.3,61.125105378456055,
block,scrambled,scrambled011.bmp,,,,,0,23,23,23,,,,,,,,,,,,,,,,,,,,,,,,,,,,,,,,,,,,,,,,,,None,,557.6815701799467,None,557.6815701799467,None,2022-07-08-13:25:57.502353,557.6858980001416,557.9976515001617,557.6858980001416,557.6858980001416,None,557.6858980001416,557.6858980001416,558.5043796801008,None,,,,21005,0002,2022_Jul_08_1316,localizer,2021.1.3,61.125105378456055,
block,scrambled,scrambled046.bmp,,,,,0,24,24,24,,,,,,,,,,,,,,,,,,,,,,,,,,,,,,,,,,,,,,,,,,None,,558.5043796801008,None,558.5043796801008,None,2022-07-08-13:25:58.326950,558.5244031001348,558.8313444000669,558.5244031001348,None,None,558.5244031001348,None,559.3135774801019,None,,,,21005,0002,2022_Jul_08_1316,localizer,2021.1.3,61.125105378456055,
block,scrambled,scrambled057.bmp,,,,,0,25,25,25,,,,,,,,,,,,,,,,,,,,,,,,,,,,,,,,,,,,,,,,,,None,,559.3135774801019,None,559.3135774801019,None,2022-07-08-13:25:59.130156,559.3222797999624,559.6309502001386,559.3222797999624,None,None,559.3222797999624,None,560.1307267799973,None,,,,21005,0002,2022_Jul_08_1316,localizer,2021.1.3,61.125105378456055,
block,scrambled,scrambled023.bmp,,,,,0,26,26,26,,,,,,,,,,,,,,,,,,,,,,,,,,,,,,,,,,,,,,,,,,None,,560.1307267799973,None,560.1307267799973,None,2022-07-08-13:25:59.947501,560.1316655001137,560.4309442001395,560.1316655001137,None,None,560.1316655001137,None,560.9471520799677,None,,,,21005,0002,2022_Jul_08_1316,localizer,2021.1.3,61.125105378456055,
block,scrambled,scrambled038.bmp,,,,,0,27,27,27,,,,,,,,,,,,,,,,,,,,,,,,,,,,,,,,,,,,,,,,,,None,,560.9471520799677,None,560.9471520799677,None,2022-07-08-13:26:00.763723,560.9536202000454,561.2638451000676,560.9536202000454,None,None,560.9536202000454,None,561.7638421800918,None,,,,21005,0002,2022_Jul_08_1316,localizer,2021.1.3,61.125105378456055,
block,scrambled,scrambled048.bmp,,,,,0,28,28,28,,,,,,,,,,,,,,,,,,,,,,,,,,,,,,,,,,,,,,,,,,None,,561.7638421800918,None,561.7638421800918,None,2022-07-08-13:26:01.580421,561.7649232000113,562.0804555001669,561.7649232000113,None,None,561.7649232000113,None,562.5704946801532,None,,,,21005,0002,2022_Jul_08_1316,localizer,2021.1.3,61.125105378456055,
block_end,scrambled,scrambled004.bmp,,,,,0,29,29,29,,,,,,,,,,,,,,,,,,,,,,,,,,,,,,,,,,,,,,,,,,None,,562.5704946801532,None,562.5704946801532,None,2022-07-08-13:26:02.394447,562.5786005000118,562.8809571000747,562.5786005000118,None,None,562.5786005000118,None,563.3801984800491,None,,,,21005,0002,2022_Jul_08_1316,localizer,2021.1.3,61.125105378456055,
block_start,objects,objects050.bmp,,,,,0,30,30,30,,,,,,,,,,,,,,,,,,,,,,,,,,,,,,,,,,,,,,,,,,t,1.7910994999110699,563.3805587000679,None,563.3805587000679,None,2022-07-08-13:26:05.013912,565.1982214001473,565.5142002000939,565.1982214001473,None,None,565.1982214001473,None,565.9974502799566,None,,,,21005,0002,2022_Jul_08_1316,localizer,2021.1.3,61.125105378456055,
block,objects,objects047.bmp,,,,,0,31,31,31,,,,,,,,,,,,,,,,,,,,,,,,,,,,,,,,,,,,,,,,,,None,,565.9974502799566,None,565.9974502799566,None,2022-07-08-13:26:05.816191,565.9995997999795,566.3143560001627,565.9995997999795,565.9995997999795,None,565.9995997999795,565.9995997999795,566.8140505800955,None,,,,21005,0002,2022_Jul_08_1316,localizer,2021.1.3,61.125105378456055,
block,objects,objects069.bmp,,,,,0,32,32,32,,,,,,,,,,,,,,,,,,,,,,,,,,,,,,,,,,,,,,,,,,None,,566.8140505800955,None,566.8140505800955,None,2022-07-08-13:26:06.630915,566.8241137000732,567.1307669000234,566.8241137000732,None,None,566.8241137000732,None,567.6305546799674,None,,,,21005,0002,2022_Jul_08_1316,localizer,2021.1.3,61.125105378456055,
block,objects,objects014.bmp,,,,,0,33,33,33,,,,,,,,,,,,,,,,,,,,,,,,,,,,,,,,,,,,,,,,,,None,,567.6305546799674,None,567.6305546799674,None,2022-07-08-13:26:07.447809,567.6315466000233,567.9471736000851,567.6315466000233,None,None,567.6315466000233,None,568.4470278799533,None,,,,21005,0002,2022_Jul_08_1316,localizer,2021.1.3,61.125105378456055,
block,objects,objects068.bmp,,,,,0,34,34,34,,,,,,,,,,,,,,,,,,,,,,,,,,,,,,,,,,,,,,,,,,None,,568.4470278799533,None,568.4470278799533,None,2022-07-08-13:26:08.263866,568.4487610999495,568.7638471000828,568.4487610999495,None,None,568.4487610999495,None,569.2638507801573,None,,,,21005,0002,2022_Jul_08_1316,localizer,2021.1.3,61.125105378456055,
block,objects,objects016.bmp,,,,,0,35,35,35,,,,,,,,,,,,,,,,,,,,,,,,,,,,,,,,,,,,,,,,,,None,,569.2638507801573,None,569.2638507801573,None,2022-07-08-13:26:09.080427,569.2737779000308,569.5822843001224,569.2737779000308,None,None,569.2737779000308,None,570.0801968799904,None,,,,21005,0002,2022_Jul_08_1316,localizer,2021.1.3,61.125105378456055,
block,objects,objects029.bmp,,,,,0,36,36,36,,,,,,,,,,,,,,,,,,,,,,,,,,,,,,,,,,,,,,,,,,None,,570.0801968799904,None,570.0801968799904,None,2022-07-08-13:26:09.897034,570.0891645001248,570.3977649000008,570.0891645001248,None,None,570.0891645001248,None,570.8968984800856,None,,,,21005,0002,2022_Jul_08_1316,localizer,2021.1.3,61.125105378456055,
block,objects,objects081.bmp,,,,,0,37,37,37,,,,,,,,,,,,,,,,,,,,,,,,,,,,,,,,,,,,,,,,,,None,,570.8968984800856,None,570.8968984800856,None,2022-07-08-13:26:10.713475,570.9058115000371,571.213887100108,570.9058115000371,None,None,570.9058115000371,None,571.7139096799772,None,,,,21005,0002,2022_Jul_08_1316,localizer,2021.1.3,61.125105378456055,
block,objects,objects071.bmp,,,,,0,38,38,38,,,,,,,,,,,,,,,,,,,,,,,,,,,,,,,,,,,,,,,,,,None,,571.7139096799772,None,571.7139096799772,None,2022-07-08-13:26:11.530694,571.7240453001577,572.0309171001427,571.7240453001577,None,None,571.7240453001577,None,572.5309847800061,None,,,,21005,0002,2022_Jul_08_1316,localizer,2021.1.3,61.125105378456055,
block,objects,objects077.bmp,,,,,0,39,39,39,,,,,,,,,,,,,,,,,,,,,,,,,,,,,,,,,,,,,,,,,,None,,572.5309847800061,None,572.5309847800061,None,2022-07-08-13:26:12.346934,572.531804600032,572.8537016001064,572.531804600032,None,None,572.531804600032,None,573.3312406800221,None,,,,21005,0002,2022_Jul_08_1316,localizer,2021.1.3,61.125105378456055,
block,objects,objects039.bmp,,,,,0,40,40,40,,,,,,,,,,,,,,,,,,,,,,,,,,,,,,,,,,,,,,,,,,None,,573.3312406800221,None,573.3312406800221,None,2022-07-08-13:26:13.151759,573.3360586001072,573.6475480999798,573.3360586001072,573.3360586001072,None,573.3360586001072,573.3360586001072,574.1471861800644,None,,,,21005,0002,2022_Jul_08_1316,localizer,2021.1.3,61.125105378456055,
block,objects,objects019.bmp,,,,,0,41,41,41,,,,,,,,,,,,,,,,,,,,,,,,,,,,,,,,,,,,,,,,,,None,,574.1471861800644,None,574.1471861800644,None,2022-07-08-13:26:13.963759,574.1482359000947,574.4639382001478,574.1482359000947,None,None,574.1482359000947,None,574.9474062800407,None,,,,21005,0002,2022_Jul_08_1316,localizer,2021.1.3,61.125105378456055,
block,objects,objects064.bmp,,,,,0,42,42,42,,,,,,,,,,,,,,,,,,,,,,,,,,,,,,,,,,,,,,,,,,None,,574.9474062800407,None,574.9474062800407,None,2022-07-08-13:26:14.764976,574.9588379000779,575.2641135000158,574.9588379000779,574.9588379000779,None,574.9588379000779,574.9588379000779,575.7636197800282,None,,,,21005,0002,2022_Jul_08_1316,localizer,2021.1.3,61.125105378456055,
block,objects,objects059.bmp,,,,,0,43,43,43,,,,,,,,,,,,,,,,,,,,,,,,,,,,,,,,,,,,,,,,,,None,,575.7636197800282,None,575.7636197800282,None,2022-07-08-13:26:15.580799,575.77263030014,576.0809416000266,575.77263030014,None,None,575.77263030014,None,576.5811257799621,None,,,,21005,0002,2022_Jul_08_1316,localizer,2021.1.3,61.125105378456055,
block_end,objects,objects033.bmp,,,,,0,44,44,44,,,,,,,,,,,,,,,,,,,,,,,,,,,,,,,,,,,,,,,,,,None,,576.5811257799621,None,576.5811257799621,None,2022-07-08-13:26:16.399714,576.590985200135,576.8976039001718,576.590985200135,None,None,576.590985200135,None,577.3968796799425,None,,,,21005,0002,2022_Jul_08_1316,localizer,2021.1.3,61.125105378456055,
block_start,faces,faces065.bmp,,,,,0,45,45,45,,,,,,,,,,,,,,,,,,,,,,,,,,,,,,,,,,,,,,,,,,t,1.7733676000498235,577.3972543999553,None,577.3972543999553,None,2022-07-08-13:26:19.012737,579.2155000001658,579.5306585000362,579.2155000001658,None,None,579.2155000001658,None,580.0140514799393,None,,,,21005,0002,2022_Jul_08_1316,localizer,2021.1.3,61.125105378456055,
block,faces,faces062.bmp,,,,,0,46,46,46,,,,,,,,,,,,,,,,,,,,,,,,,,,,,,,,,,,,,,,,,,None,,580.0140514799393,None,580.0140514799393,None,2022-07-08-13:26:19.830834,580.015049500158,580.3307137000374,580.015049500158,None,None,580.015049500158,None,580.8304770800285,None,,,,21005,0002,2022_Jul_08_1316,localizer,2021.1.3,61.125105378456055,
block,faces,faces076.bmp,,,,,0,47,47,47,,,,,,,,,,,,,,,,,,,,,,,,,,,,,,,,,,,,,,,,,,None,,580.8304770800285,None,580.8304770800285,None,2022-07-08-13:26:20.648011,580.8320399001241,581.1474779001437,580.8320399001241,None,None,580.8320399001241,None,581.6470389801077,None,,,,21005,0002,2022_Jul_08_1316,localizer,2021.1.3,61.125105378456055,
block,faces,faces073.bmp,,,,,0,48,48,48,,,,,,,,,,,,,,,,,,,,,,,,,,,,,,,,,,,,,,,,,,None,,581.6470389801077,None,581.6470389801077,None,2022-07-08-13:26:21.463618,581.6520060000475,581.96396990004,581.6520060000475,None,None,581.6520060000475,None,582.4640222801361,None,,,,21005,0002,2022_Jul_08_1316,localizer,2021.1.3,61.125105378456055,
block,faces,faces033.bmp,,,,,0,49,49,49,,,,,,,,,,,,,,,,,,,,,,,,,,,,,,,,,,,,,,,,,,None,,582.4640222801361,None,582.4640222801361,None,2022-07-08-13:26:22.280806,582.4651898001321,582.780814900063,582.4651898001321,None,None,582.4651898001321,None,583.280745480163,None,,,,21005,0002,2022_Jul_08_1316,localizer,2021.1.3,61.125105378456055,
block,faces,faces079.bmp,,,,,0,50,50,50,,,,,,,,,,,,,,,,,,,,,,,,,,,,,,,,,,,,,,,,,,None,,583.280745480163,None,583.280745480163,None,2022-07-08-13:26:23.097317,583.2819054001011,583.5814924000297,583.2819054001011,None,None,583.2819054001011,None,584.097485480085,None,,,,21005,0002,2022_Jul_08_1316,localizer,2021.1.3,61.125105378456055,
block,faces,faces087.bmp,,,,,0,51,51,51,,,,,,,,,,,,,,,,,,,,,,,,,,,,,,,,,,,,,,,,,,None,,584.097485480085,None,584.097485480085,None,2022-07-08-13:26:23.914056,584.0984012000263,584.4141895000357,584.0984012000263,None,None,584.0984012000263,None,584.9018841799814,None,,,,21005,0002,2022_Jul_08_1316,localizer,2021.1.3,61.125105378456055,
block,faces,faces034.bmp,,,,,0,52,52,52,,,,,,,,,,,,,,,,,,,,,,,,,,,,,,,,,,,,,,,,,,None,,584.9018841799814,None,584.9018841799814,None,2022-07-08-13:26:24.722416,584.9171557000373,585.2310778000392,584.9171557000373,584.9171557000373,None,584.9171557000373,584.9171557000373,585.7142543801572,None,,,,21005,0002,2022_Jul_08_1316,localizer,2021.1.3,61.125105378456055,
block,faces,faces039.bmp,,,,,0,53,53,53,,,,,,,,,,,,,,,,,,,,,,,,,,,,,,,,,,,,,,,,,,None,,585.7142543801572,None,585.7142543801572,None,2022-07-08-13:26:25.530825,585.7257996001281,586.0309450000059,585.7257996001281,None,None,585.7257996001281,None,586.5308340801391,None,,,,21005,0002,2022_Jul_08_1316,localizer,2021.1.3,61.125105378456055,
block,faces,faces025.bmp,,,,,0,54,54,54,,,,,,,,,,,,,,,,,,,,,,,,,,,,,,,,,,,,,,,,,,None,,586.5308340801391,None,586.5308340801391,None,2022-07-08-13:26:26.347557,586.540820900118,586.8472842001356,586.540820900118,None,None,586.540820900118,None,587.3475012799724,None,,,,21005,0002,2022_Jul_08_1316,localizer,2021.1.3,61.125105378456055,
block,faces,faces067.bmp,,,,,0,55,55,55,,,,,,,,,,,,,,,,,,,,,,,,,,,,,,,,,,,,,,,,,,None,,587.3475012799724,None,587.3475012799724,None,2022-07-08-13:26:27.164073,587.3586631000508,587.6643453000579,587.3586631000508,None,None,587.3586631000508,None,588.1641800801269,None,,,,21005,0002,2022_Jul_08_1316,localizer,2021.1.3,61.125105378456055,
block,faces,faces047.bmp,,,,,0,56,56,56,,,,,,,,,,,,,,,,,,,,,,,,,,,,,,,,,,,,,,,,,,None,,588.1641800801269,None,588.1641800801269,None,2022-07-08-13:26:27.980747,588.1792993999552,588.4809888999444,588.1792993999552,None,None,588.1792993999552,None,588.9808953799773,None,,,,21005,0002,2022_Jul_08_1316,localizer,2021.1.3,61.125105378456055,
block,faces,faces050.bmp,,,,,0,57,57,57,,,,,,,,,,,,,,,,,,,,,,,,,,,,,,,,,,,,,,,,,,None,,588.9808953799773,None,588.9808953799773,None,2022-07-08-13:26:28.798462,588.9903998000082,589.2975050001405,588.9903998000082,None,None,588.9903998000082,None,589.7976462800987,None,,,,21005,0002,2022_Jul_08_1316,localizer,2021.1.3,61.125105378456055,
block,faces,faces044.bmp,,,,,0,58,58,58,,,,,,,,,,,,,,,,,,,,,,,,,,,,,,,,,,,,,,,,,,None,,589.7976462800987,None,589.7976462800987,None,2022-07-08-13:26:29.614216,589.8086849001702,590.1142669001129,589.8086849001702,None,None,589.8086849001702,None,590.6142444801051,None,,,,21005,0002,2022_Jul_08_1316,localizer,2021.1.3,61.125105378456055,
block_end,faces,faces057.bmp,,,,,0,59,59,59,,,,,,,,,,,,,,,,,,,,,,,,,,,,,,,,,,,,,,,,,,None,,590.6142444801051,None,590.6142444801051,None,2022-07-08-13:26:30.431021,590.6263405999634,590.9307152000256,590.6263405999634,None,None,590.6263405999634,None,591.4312753800302,None,,,,21005,0002,2022_Jul_08_1316,localizer,2021.1.3,61.125105378456055,
null_block,null_block,null_block.bmp,,,,,0,60,60,60,,,,,,,,,,,,,,,,,,,,,,,,,,,,,,,,,,,,,,,,,,t,1.7389762999955565,591.4315659001004,None,591.4315659001004,None,2022-07-08-13:26:33.012785,593.1972122799605,None,593.1972122799605,None,None,593.1972122799605,None,593.199201800162,None,,,,21005,0002,2022_Jul_08_1316,localizer,2021.1.3,61.125105378456055,
block_start,objects,objects044.bmp,,,,,0,61,61,61,,,,,,,,,,,,,,,,,,,,,,,,,,,,,,,,,,,,,,,,,,t,1.956551200011745,605.2139513001312,None,605.2139513001312,None,2022-07-08-13:26:47.015876,607.2000313000754,607.514146800153,607.2000313000754,None,None,607.2000313000754,None,608.0142955800518,None,,,,21005,0002,2022_Jul_08_1316,localizer,2021.1.3,61.125105378456055,
block,objects,objects029.bmp,,,,,0,62,62,62,,,,,,,,,,,,,,,,,,,,,,,,,,,,,,,,,,,,,,,,,,None,,608.0142955800518,None,608.0142955800518,None,2022-07-08-13:26:47.831068,608.0153257001657,608.3308958001435,608.0153257001657,None,None,608.0153257001657,None,608.8306244799867,None,,,,21005,0002,2022_Jul_08_1316,localizer,2021.1.3,61.125105378456055,
block,objects,objects031.bmp,,,,,0,63,63,63,,,,,,,,,,,,,,,,,,,,,,,,,,,,,,,,,,,,,,,,,,None,,608.8306244799867,None,608.8306244799867,None,2022-07-08-13:26:48.647337,608.8413565000519,609.1476372000761,608.8413565000519,None,None,608.8413565000519,None,609.6480191801209,None,,,,21005,0002,2022_Jul_08_1316,localizer,2021.1.3,61.125105378456055,
block,objects,objects022.bmp,,,,,0,64,64,64,,,,,,,,,,,,,,,,,,,,,,,,,,,,,,,,,,,,,,,,,,None,,609.6480191801209,None,609.6480191801209,None,2022-07-08-13:26:49.465776,609.6488674001303,609.9646795999724,609.6488674001303,None,None,609.6488674001303,None,610.4642264800611,None,,,,21005,0002,2022_Jul_08_1316,localizer,2021.1.3,61.125105378456055,
block,objects,objects041.bmp,,,,,0,65,65,65,,,,,,,,,,,,,,,,,,,,,,,,,,,,,,,,,,,,,,,,,,None,,610.4642264800611,None,610.4642264800611,None,2022-07-08-13:26:50.280794,610.4651725001168,610.7811869001016,610.4651725001168,None,None,610.4651725001168,None,611.2649851799476,None,,,,21005,0002,2022_Jul_08_1316,localizer,2021.1.3,61.125105378456055,
block,objects,objects046.bmp,,,,,0,66,66,66,,,,,,,,,,,,,,,,,,,,,,,,,,,,,,,,,,,,,,,,,,None,,611.2649851799476,None,611.2649851799476,None,2022-07-08-13:26:51.084729,611.2745308999438,611.5821486001369,611.2745308999438,611.2745308999438,None,611.2745308999438,611.2745308999438,612.0810822799801,None,,,,21005,0002,2022_Jul_08_1316,localizer,2021.1.3,61.125105378456055,
block,objects,objects087.bmp,,,,,0,67,67,67,,,,,,,,,,,,,,,,,,,,,,,,,,,,,,,,,,,,,,,,,,None,,612.0810822799801,None,612.0810822799801,None,2022-07-08-13:26:51.897886,612.0819812000263,612.3976100001018,612.0819812000263,None,None,612.0819812000263,None,612.8810943800024,None,,,,21005,0002,2022_Jul_08_1316,localizer,2021.1.3,61.125105378456055,
block,objects,objects077.bmp,,,,,0,68,68,68,,,,,,,,,,,,,,,,,,,,,,,,,,,,,,,,,,,,,,,,,,None,,612.8810943800024,None,612.8810943800024,None,2022-07-08-13:26:52.699658,612.8840608000755,613.1978530001361,612.8840608000755,612.8840608000755,None,612.8840608000755,612.8840608000755,613.697688480094,None,,,,21005,0002,2022_Jul_08_1316,localizer,2021.1.3,61.125105378456055,
block,objects,objects067.bmp,,,,,0,69,69,69,,,,,,,,,,,,,,,,,,,,,,,,,,,,,,,,,,,,,,,,,,None,,613.697688480094,None,613.697688480094,None,2022-07-08-13:26:53.514255,613.6986748999916,614.0145048999693,613.6986748999916,None,None,613.6986748999916,None,614.5140165800228,None,,,,21005,0002,2022_Jul_08_1316,localizer,2021.1.3,61.125105378456055,
block,objects,objects021.bmp,,,,,0,70,70,70,,,,,,,,,,,,,,,,,,,,,,,,,,,,,,,,,,,,,,,,,,None,,614.5140165800228,None,614.5140165800228,None,2022-07-08-13:26:54.330590,614.5238155000843,614.831224600086,614.5238155000843,None,None,614.5238155000843,None,615.3297228801064,None,,,,21005,0002,2022_Jul_08_1316,localizer,2021.1.3,61.125105378456055,
block,objects,objects006.bmp,,,,,0,71,71,71,,,,,,,,,,,,,,,,,,,,,,,,,,,,,,,,,,,,,,,,,,None,,615.3297228801064,None,615.3297228801064,None,2022-07-08-13:26:55.145666,615.3336422001012,615.6476892000064,615.3336422001012,None,None,615.3336422001012,None,616.1479286800138,None,,,,21005,0002,2022_Jul_08_1316,localizer,2021.1.3,61.125105378456055,
block,objects,objects008.bmp,,,,,0,72,72,72,,,,,,,,,,,,,,,,,,,,,,,,,,,,,,,,,,,,,,,,,,None,,616.1479286800138,None,616.1479286800138,None,2022-07-08-13:26:55.965490,616.1490996000357,616.4640399001073,616.1490996000357,None,None,616.1490996000357,None,616.9644285800866,None,,,,21005,0002,2022_Jul_08_1316,localizer,2021.1.3,61.125105378456055,
block,objects,objects059.bmp,,,,,0,73,73,73,,,,,,,,,,,,,,,,,,,,,,,,,,,,,,,,,,,,,,,,,,None,,616.9644285800866,None,616.9644285800866,None,2022-07-08-13:26:56.781201,616.9653318000492,617.2655358000193,616.9653318000492,None,None,616.9653318000492,None,617.7805655800737,None,,,,21005,0002,2022_Jul_08_1316,localizer,2021.1.3,61.125105378456055,
block,objects,objects049.bmp,,,,,0,74,74,74,,,,,,,,,,,,,,,,,,,,,,,,,,,,,,,,,,,,,,,,,,None,,617.7805655800737,None,617.7805655800737,None,2022-07-08-13:26:57.597136,617.781672900077,618.0976184001192,617.781672900077,None,None,617.781672900077,None,618.5973856800235,None,,,,21005,0002,2022_Jul_08_1316,localizer,2021.1.3,61.125105378456055,
block_end,objects,objects061.bmp,,,,,0,75,75,75,,,,,,,,,,,,,,,,,,,,,,,,,,,,,,,,,,,,,,,,,,None,,618.5973856800235,None,618.5973856800235,None,2022-07-08-13:26:58.413961,618.6061027999967,618.9142243999522,618.6061027999967,None,None,618.6061027999967,None,619.4162614801432,None,,,,21005,0002,2022_Jul_08_1316,localizer,2021.1.3,61.125105378456055,
block_start,scrambled,scrambled076.bmp,,,,,0,76,76,76,,,,,,,,,,,,,,,,,,,,,,,,,,,,,,,,,,,,,,,,,,t,1.7524739000946283,619.4180062001105,None,619.4180062001105,None,2022-07-08-13:27:01.012326,621.2026031999849,621.5150220999494,621.2026031999849,None,None,621.2026031999849,None,622.0163008800707,None,,,,21005,0002,2022_Jul_08_1316,localizer,2021.1.3,61.125105378456055,
block,scrambled,scrambled042.bmp,,,,,0,77,77,77,,,,,,,,,,,,,,,,,,,,,,,,,,,,,,,,,,,,,,,,,,None,,622.0163008800707,None,622.0163008800707,None,2022-07-08-13:27:01.837809,622.0239212999586,622.3313701001462,622.0239212999586,None,None,622.0239212999586,None,622.8310834799893,None,,,,21005,0002,2022_Jul_08_1316,localizer,2021.1.3,61.125105378456055,
block,scrambled,scrambled059.bmp,,,,,0,78,78,78,,,,,,,,,,,,,,,,,,,,,,,,,,,,,,,,,,,,,,,,,,None,,622.8310834799893,None,622.8310834799893,None,2022-07-08-13:27:02.647654,622.8411411000416,623.1479057001416,622.8411411000416,None,None,622.8411411000416,None,623.6472545801196,None,,,,21005,0002,2022_Jul_08_1316,localizer,2021.1.3,61.125105378456055,
block,scrambled,scrambled082.bmp,,,,,0,79,79,79,,,,,,,,,,,,,,,,,,,,,,,,,,,,,,,,,,,,,,,,,,None,,623.6472545801196,None,623.6472545801196,None,2022-07-08-13:27:03.463833,623.6558940000832,623.9644121001475,623.6558940000832,None,None,623.6558940000832,None,624.4653886800631,None,,,,21005,0002,2022_Jul_08_1316,localizer,2021.1.3,61.125105378456055,
block,scrambled,scrambled068.bmp,,,,,0,80,80,80,,,,,,,,,,,,,,,,,,,,,,,,,,,,,,,,,,,,,,,,,,None,,624.4653886800631,None,624.4653886800631,None,2022-07-08-13:27:04.283315,624.4779595001601,624.7807577999774,624.4779595001601,None,None,624.4779595001601,None,625.2815497801173,None,,,,21005,0002,2022_Jul_08_1316,localizer,2021.1.3,61.125105378456055,
block,scrambled,scrambled043.bmp,,,,,0,81,81,81,,,,,,,,,,,,,,,,,,,,,,,,,,,,,,,,,,,,,,,,,,None,,625.2815497801173,None,625.2815497801173,None,2022-07-08-13:27:05.098334,625.292085400084,625.5982391999569,625.292085400084,None,None,625.292085400084,None,626.0974101800937,None,,,,21005,0002,2022_Jul_08_1316,localizer,2021.1.3,61.125105378456055,
block,scrambled,scrambled079.bmp,,,,,0,82,82,82,,,,,,,,,,,,,,,,,,,,,,,,,,,,,,,,,,,,,,,,,,None,,626.0974101800937,None,626.0974101800937,None,2022-07-08-13:27:05.912992,626.0987256001681,626.3987611001357,626.0987256001681,None,None,626.0987256001681,None,626.9140752800274,None,,,,21005,0002,2022_Jul_08_1316,localizer,2021.1.3,61.125105378456055,
block,scrambled,scrambled045.bmp,,,,,0,83,83,83,,,,,,,,,,,,,,,,,,,,,,,,,,,,,,,,,,,,,,,,,,None,,626.9140752800274,None,626.9140752800274,None,2022-07-08-13:27:06.730647,626.9230772999581,627.231265499955,626.9230772999581,None,None,626.9230772999581,None,627.7306515799835,None,,,,21005,0002,2022_Jul_08_1316,localizer,2021.1.3,61.125105378456055,
block,scrambled,scrambled063.bmp,,,,,0,84,84,84,,,,,,,,,,,,,,,,,,,,,,,,,,,,,,,,,,,,,,,,,,None,,627.7306515799835,None,627.7306515799835,None,2022-07-08-13:27:07.547652,627.7394580000546,628.0479236999527,627.7394580000546,None,None,627.7394580000546,None,628.547765880078,None,,,,21005,0002,2022_Jul_08_1316,localizer,2021.1.3,61.125105378456055,
block,scrambled,scrambled037.bmp,,,,,0,85,85,85,,,,,,,,,,,,,,,,,,,,,,,,,,,,,,,,,,,,,,,,,,None,,628.547765880078,None,628.547765880078,None,2022-07-08-13:27:08.364672,628.5487575000152,628.8644195001107,628.5487575000152,None,None,628.5487575000152,None,629.3640379800461,None,,,,21005,0002,2022_Jul_08_1316,localizer,2021.1.3,61.125105378456055,
block,scrambled,scrambled003.bmp,,,,,0,86,86,86,,,,,,,,,,,,,,,,,,,,,,,,,,,,,,,,,,,,,,,,,,None,,629.3640379800461,None,629.3640379800461,None,2022-07-08-13:27:09.180923,629.3731951999944,629.6814145001117,629.3731951999944,None,None,629.3731951999944,None,630.18327948004,None,,,,21005,0002,2022_Jul_08_1316,localizer,2021.1.3,61.125105378456055,
block,scrambled,scrambled035.bmp,,,,,0,87,87,87,,,,,,,,,,,,,,,,,,,,,,,,,,,,,,,,,,,,,,,,,,None,,630.18327948004,None,630.18327948004,None,2022-07-08-13:27:10.003983,630.2039226000197,630.5147188000847,630.2039226000197,None,None,630.2039226000197,None,631.003880180139,None,,,,21005,0002,2022_Jul_08_1316,localizer,2021.1.3,61.125105378456055,
block,scrambled,scrambled038.bmp,,,,,0,88,88,88,,,,,,,,,,,,,,,,,,,,,,,,,,,,,,,,,,,,,,,,,,None,,631.003880180139,None,631.003880180139,None,2022-07-08-13:27:10.828165,631.010998000158,631.3145427999552,631.010998000158,None,None,631.010998000158,None,631.8141506800428,None,,,,21005,0002,2022_Jul_08_1316,localizer,2021.1.3,61.125105378456055,
block,scrambled,scrambled061.bmp,,,,,0,89,89,89,,,,,,,,,,,,,,,,,,,,,,,,,,,,,,,,,,,,,,,,,,None,,631.8141506800428,None,631.8141506800428,None,2022-07-08-13:27:11.630734,631.8157043000683,632.1310533001088,631.8157043000683,None,None,631.8157043000683,None,632.6310410799458,None,,,,21005,0002,2022_Jul_08_1316,localizer,2021.1.3,61.125105378456055,
block_end,scrambled,scrambled017.bmp,,,,,0,90,90,90,,,,,,,,,,,,,,,,,,,,,,,,,,,,,,,,,,,,,,,,,,None,,632.6310410799458,None,632.6310410799458,None,2022-07-08-13:27:12.447612,632.6382578001358,632.9482764001004,632.6382578001358,None,None,632.6382578001358,None,633.4481042800005,None,,,,21005,0002,2022_Jul_08_1316,localizer,2021.1.3,61.125105378456055,
block_start,scenes,scenes045.bmp,,,,,0,91,91,91,,,,,,,,,,,,,,,,,,,,,,,,,,,,,,,,,,,,,,,,,,t,1.7221350998152047,633.4483531999867,None,633.4483531999867,None,2022-07-08-13:27:15.012421,635.1989875000436,635.5144508001395,635.1989875000436,None,None,635.1989875000436,None,635.9980199799872,None,,,,21005,0002,2022_Jul_08_1316,localizer,2021.1.3,61.125105378456055,
block,scenes,scenes028.bmp,,,,,0,92,92,92,,,,,,,,,,,,,,,,,,,,,,,,,,,,,,,,,,,,,,,,,,None,,635.9980199799872,None,635.9980199799872,None,2022-07-08-13:27:15.816565,636.0009213001467,636.3147800001316,636.0009213001467,636.0009213001467,None,636.0009213001467,636.0009213001467,636.8145682799629,None,,,,21005,0002,2022_Jul_08_1316,localizer,2021.1.3,61.125105378456055,
block,scenes,scenes011.bmp,,,,,0,93,93,93,,,,,,,,,,,,,,,,,,,,,,,,,,,,,,,,,,,,,,,,,,None,,636.8145682799629,None,636.8145682799629,None,2022-07-08-13:27:16.631363,636.815558000002,637.1373749000486,636.815558000002,None,None,636.815558000002,None,637.6306930800899,None,,,,21005,0002,2022_Jul_08_1316,localizer,2021.1.3,61.125105378456055,
block,scenes,scenes092.bmp,,,,,0,94,94,94,,,,,,,,,,,,,,,,,,,,,,,,,,,,,,,,,,,,,,,,,,None,,637.6306930800899,None,637.6306930800899,None,2022-07-08-13:27:17.447272,637.6322786000092,637.9477480000351,637.6322786000092,None,None,637.6322786000092,None,638.4480022801552,None,,,,21005,0002,2022_Jul_08_1316,localizer,2021.1.3,61.125105378456055,
block,scenes,scenes021.bmp,,,,,0,95,95,95,,,,,,,,,,,,,,,,,,,,,,,,,,,,,,,,,,,,,,,,,,None,,638.4480022801552,None,638.4480022801552,None,2022-07-08-13:27:18.264568,638.4610153001267,638.7642882000655,638.4610153001267,None,None,638.4610153001267,None,639.2642150800209,None,,,,21005,0002,2022_Jul_08_1316,localizer,2021.1.3,61.125105378456055,
block,scenes,scenes016.bmp,,,,,0,96,96,96,,,,,,,,,,,,,,,,,,,,,,,,,,,,,,,,,,,,,,,,,,None,,639.2642150800209,None,639.2642150800209,None,2022-07-08-13:27:19.080790,639.279580200091,639.5817996000405,639.279580200091,None,None,639.279580200091,None,640.0809796801302,None,,,,21005,0002,2022_Jul_08_1316,localizer,2021.1.3,61.125105378456055,
block,scenes,scenes027.bmp,,,,,0,97,97,97,,,,,,,,,,,,,,,,,,,,,,,,,,,,,,,,,,,,,,,,,,None,,640.0809796801302,None,640.0809796801302,None,2022-07-08-13:27:19.897553,640.0820611000527,640.3978470000438,640.0820611000527,None,None,640.0820611000527,None,640.8874488800764,None,,,,21005,0002,2022_Jul_08_1316,localizer,2021.1.3,61.125105378456055,
block,scenes,scenes020.bmp,,,,,0,98,98,98,,,,,,,,,,,,,,,,,,,,,,,,,,,,,,,,,,,,,,,,,,None,,640.8874488800764,None,640.8874488800764,None,2022-07-08-13:27:20.709711,640.8939630000386,641.1978707001545,640.8939630000386,None,None,640.8939630000386,None,641.6995958799496,None,,,,21005,0002,2022_Jul_08_1316,localizer,2021.1.3,61.125105378456055,
block,scenes,scenes070.bmp,,,,,0,99,99,99,,,,,,,,,,,,,,,,,,,,,,,,,,,,,,,,,,,,,,,,,,None,,641.6995958799496,None,641.6995958799496,None,2022-07-08-13:27:21.520129,641.7115690000355,642.0158868001308,641.7115690000355,None,None,641.7115690000355,None,642.514649480069,None,,,,21005,0002,2022_Jul_08_1316,localizer,2021.1.3,61.125105378456055,
block,scenes,scenes041.bmp,,,,,0,100,100,100,,,,,,,,,,,,,,,,,,,,,,,,,,,,,,,,,,,,,,,,,,None,,642.514649480069,None,642.514649480069,None,2022-07-08-13:27:22.331218,642.5153914000839,642.8312592001166,642.5153914000839,None,None,642.5153914000839,None,643.3144692801404,None,,,,21005,0002,2022_Jul_08_1316,localizer,2021.1.3,61.125105378456055,
block,scenes,scenes044.bmp,,,,,0,101,101,101,,,,,,,,,,,,,,,,,,,,,,,,,,,,,,,,,,,,,,,,,,None,,643.3144692801404,None,643.3144692801404,None,2022-07-08-13:27:23.133034,643.3160826000385,643.6312279000413,643.3160826000385,643.3160826000385,None,643.3160826000385,643.3160826000385,644.130793480156,None,,,,21005,0002,2022_Jul_08_1316,localizer,2021.1.3,61.125105378456055,
block,scenes,scenes005.bmp,,,,,0,102,102,102,,,,,,,,,,,,,,,,,,,,,,,,,,,,,,,,,,,,,,,,,,None,,644.130793480156,None,644.130793480156,None,2022-07-08-13:27:23.947630,644.1321640000679,644.447965499945,644.1321640000679,None,None,644.1321640000679,None,644.9477685801219,None,,,,21005,0002,2022_Jul_08_1316,localizer,2021.1.3,61.125105378456055,
block,scenes,scenes086.bmp,,,,,0,103,103,103,,,,,,,,,,,,,,,,,,,,,,,,,,,,,,,,,,,,,,,,,,None,,644.9477685801219,None,644.9477685801219,None,2022-07-08-13:27:24.764602,644.9589426000603,645.2648028000258,644.9589426000603,None,None,644.9589426000603,None,645.7646858801133,None,,,,21005,0002,2022_Jul_08_1316,localizer,2021.1.3,61.125105378456055,
block,scenes,scenes029.bmp,,,,,0,104,104,104,,,,,,,,,,,,,,,,,,,,,,,,,,,,,,,,,,,,,,,,,,None,,645.7646858801133,None,645.7646858801133,None,2022-07-08-13:27:25.581443,645.7756426001433,646.0809174000751,645.7756426001433,None,None,645.7756426001433,None,646.5812268801499,None,,,,21005,0002,2022_Jul_08_1316,localizer,2021.1.3,61.125105378456055,
block_end,scenes,scenes046.bmp,,,,,0,105,105,105,,,,,,,,,,,,,,,,,,,,,,,,,,,,,,,,,,,,,,,,,,None,,646.5812268801499,None,646.5812268801499,None,2022-07-08-13:27:26.397794,646.582138299942,646.8977834000252,646.582138299942,None,None,646.582138299942,None,647.397694379976,None,,,,21005,0002,2022_Jul_08_1316,localizer,2021.1.3,61.125105378456055,
block_start,faces,faces036.bmp,,,,,0,106,106,106,,,,,,,,,,,,,,,,,,,,,,,,,,,,,,,,,,,,,,,,,,t,1.772728699957952,647.3978008001577,None,647.3978008001577,None,2022-07-08-13:27:29.012845,649.2063548001461,649.5150808000471,649.2063548001461,None,None,649.2063548001461,None,650.0142517799511,None,,,,21005,0002,2022_Jul_08_1316,localizer,2021.1.3,61.125105378456055,
block,faces,faces048.bmp,,,,,0,107,107,107,,,,,,,,,,,,,,,,,,,,,,,,,,,,,,,,,,,,,,,,,,None,,650.0142517799511,None,650.0142517799511,None,2022-07-08-13:27:29.831825,650.0255279000849,650.3311616999563,650.0255279000849,None,None,650.0255279000849,None,650.8312847800087,None,,,,21005,0002,2022_Jul_08_1316,localizer,2021.1.3,61.125105378456055,
block,faces,faces070.bmp,,,,,0,108,108,108,,,,,,,,,,,,,,,,,,,,,,,,,,,,,,,,,,,,,,,,,,None,,650.8312847800087,None,650.8312847800087,None,2022-07-08-13:27:30.648064,650.8322624000721,651.1475899999496,650.8322624000721,None,None,650.8322624000721,None,651.6312624800019,None,,,,21005,0002,2022_Jul_08_1316,localizer,2021.1.3,61.125105378456055,
block,faces,faces070.bmp,,,,,0,109,109,109,,,,,,,,,,,,,,,,,,,,,,,,,,,,,,,,,,,,,,,,,,None,,651.6312624800019,None,651.6312624800019,None,2022-07-08-13:27:31.450032,651.6344902999699,651.9484177001286,651.6344902999699,651.6344902999699,y,651.6344902999699,651.6344902999699,652.448214380024,None,0.716796400025487,,,21005,0002,2022_Jul_08_1316,localizer,2021.1.3,61.125105378456055,
block,faces,faces077.bmp,,,,,0,110,110,110,,,,,,,,,,,,,,,,,,,,,,,,,,,,,,,,,,,,,,,,,,None,,652.448214380024,None,652.448214380024,None,2022-07-08-13:27:32.265962,652.4492449001409,652.7648024000227,652.4492449001409,None,None,652.4492449001409,None,653.2648519800975,None,,,,21005,0002,2022_Jul_08_1316,localizer,2021.1.3,61.125105378456055,
block,faces,faces018.bmp,,,,,0,111,111,111,,,,,,,,,,,,,,,,,,,,,,,,,,,,,,,,,,,,,,,,,,None,,653.2648519800975,None,653.2648519800975,None,2022-07-08-13:27:33.082409,653.2746435001027,653.5821873000823,653.2746435001027,None,None,653.2746435001027,None,654.0821195800788,None,,,,21005,0002,2022_Jul_08_1316,localizer,2021.1.3,61.125105378456055,
block,faces,faces053.bmp,,,,,0,112,112,112,,,,,,,,,,,,,,,,,,,,,,,,,,,,,,,,,,,,,,,,,,None,,654.0821195800788,None,654.0821195800788,None,2022-07-08-13:27:33.900861,654.0960540000815,654.3987453000154,654.0960540000815,None,None,654.0960540000815,None,654.8975070800632,None,,,,21005,0002,2022_Jul_08_1316,localizer,2021.1.3,61.125105378456055,
block,faces,faces004.bmp,,,,,0,113,113,113,,,,,,,,,,,,,,,,,,,,,,,,,,,,,,,,,,,,,,,,,,None,,654.8975070800632,None,654.8975070800632,None,2022-07-08-13:27:34.714081,654.898905799957,655.214220300084,654.898905799957,None,None,654.898905799957,None,655.7040106800384,None,,,,21005,0002,2022_Jul_08_1316,localizer,2021.1.3,61.125105378456055,
block,faces,faces015.bmp,,,,,0,114,114,114,,,,,,,,,,,,,,,,,,,,,,,,,,,,,,,,,,,,,,,,,,None,,655.7040106800384,None,655.7040106800384,None,2022-07-08-13:27:35.524568,655.7264746001456,656.0308916000649,655.7264746001456,None,None,655.7264746001456,None,656.5155194799415,None,,,,21005,0002,2022_Jul_08_1316,localizer,2021.1.3,61.125105378456055,
block,faces,faces061.bmp,,,,,0,115,115,115,,,,,,,,,,,,,,,,,,,,,,,,,,,,,,,,,,,,,,,,,,None,,656.5155194799415,None,656.5155194799415,None,2022-07-08-13:27:36.334268,656.5181685001589,656.8316103001125,656.5181685001589,None,None,656.5181685001589,None,657.3322737800888,None,,,,21005,0002,2022_Jul_08_1316,localizer,2021.1.3,61.125105378456055,
block,faces,faces081.bmp,,,,,0,116,116,116,,,,,,,,,,,,,,,,,,,,,,,,,,,,,,,,,,,,,,,,,,None,,657.3322737800888,None,657.3322737800888,None,2022-07-08-13:27:37.149994,657.3467355000321,657.6481469999999,657.3467355000321,None,None,657.3467355000321,None,658.1478464800864,None,,,,21005,0002,2022_Jul_08_1316,localizer,2021.1.3,61.125105378456055,
block,faces,faces002.bmp,,,,,0,117,117,117,,,,,,,,,,,,,,,,,,,,,,,,,,,,,,,,,,,,,,,,,,None,,658.1478464800864,None,658.1478464800864,None,2022-07-08-13:27:37.964631,658.1485735999886,658.4643487001304,658.1485735999886,None,None,658.1485735999886,None,658.9541356800589,None,,,,21005,0002,2022_Jul_08_1316,localizer,2021.1.3,61.125105378456055,
block,faces,faces049.bmp,,,,,0,118,118,118,,,,,,,,,,,,,,,,,,,,,,,,,,,,,,,,,,,,,,,,,,None,,658.9541356800589,None,658.9541356800589,None,2022-07-08-13:27:38.774614,658.9587024000939,659.2651574001648,658.9587024000939,None,None,658.9587024000939,None,659.7646970799658,None,,,,21005,0002,2022_Jul_08_1316,localizer,2021.1.3,61.125105378456055,
block,faces,faces030.bmp,,,,,0,119,119,119,,,,,,,,,,,,,,,,,,,,,,,,,,,,,,,,,,,,,,,,,,None,,659.7646970799658,None,659.7646970799658,None,2022-07-08-13:27:39.581460,659.7767197000794,660.0822445000522,659.7767197000794,None,None,659.7767197000794,None,660.5807745800819,None,,,,21005,0002,2022_Jul_08_1316,localizer,2021.1.3,61.125105378456055,
block_end,faces,faces006.bmp,,,,,0,120,120,120,,,,,,,,,,,,,,,,,,,,,,,,,,,,,,,,,,,,,,,,,,None,,660.5807745800819,None,660.5807745800819,None,2022-07-08-13:27:40.397348,660.5821712999605,660.8978035000619,660.5821712999605,None,None,660.5821712999605,None,661.3976118801627,None,,,,21005,0002,2022_Jul_08_1316,localizer,2021.1.3,61.125105378456055,
null_block,null_block,null_block.bmp,,,,,0,121,121,121,,,,,,,,,,,,,,,,,,,,,,,,,,,,,,,,,,,,,,,,,,t,1.772649300051853,661.3977918999735,None,661.3977918999735,None,2022-07-08-13:27:43.015915,663.1981665801256,None,663.1981665801256,None,None,663.1981665801256,None,663.2030982000288,None,,,,21005,0002,2022_Jul_08_1316,localizer,2021.1.3,61.125105378456055,
block_start,scrambled,scrambled004.bmp,,,,,0,122,122,122,,,,,,,,,,,,,,,,,,,,,,,,,,,,,,,,,,,,,,,,,,t,1.9546927001792938,675.2157269001473,None,675.2157269001473,None,2022-07-08-13:27:57.019280,677.2019160999916,677.5146809001453,677.2019160999916,None,None,677.2019160999916,None,678.0150890801567,None,,,,21005,0002,2022_Jul_08_1316,localizer,2021.1.3,61.125105378456055,
block,scrambled,scrambled084.bmp,,,,,0,123,123,123,,,,,,,,,,,,,,,,,,,,,,,,,,,,,,,,,,,,,,,,,,None,,678.0150890801567,None,678.0150890801567,None,2022-07-08-13:27:57.832674,678.0290479001123,678.3312401000876,678.0290479001123,None,None,678.0290479001123,None,678.8308598801493,None,,,,21005,0002,2022_Jul_08_1316,localizer,2021.1.3,61.125105378456055,
block,scrambled,scrambled006.bmp,,,,,0,124,124,124,,,,,,,,,,,,,,,,,,,,,,,,,,,,,,,,,,,,,,,,,,None,,678.8308598801493,None,678.8308598801493,None,2022-07-08-13:27:58.646443,678.8395629001316,679.1479462001007,678.8395629001316,None,None,678.8395629001316,None,679.6489288799464,None,,,,21005,0002,2022_Jul_08_1316,localizer,2021.1.3,61.125105378456055,
block,scrambled,scrambled028.bmp,,,,,0,125,125,125,,,,,,,,,,,,,,,,,,,,,,,,,,,,,,,,,,,,,,,,,,None,,679.6489288799464,None,679.6489288799464,None,2022-07-08-13:27:59.468563,679.652524500154,679.9646091000177,679.652524500154,None,None,679.652524500154,None,680.464600080112,None,,,,21005,0002,2022_Jul_08_1316,localizer,2021.1.3,61.125105378456055,
block,scrambled,scrambled050.bmp,,,,,0,126,126,126,,,,,,,,,,,,,,,,,,,,,,,,,,,,,,,,,,,,,,,,,,None,,680.464600080112,None,680.464600080112,None,2022-07-08-13:28:00.281370,680.4727050000802,680.7815152001567,680.4727050000802,None,None,680.4727050000802,None,681.2813436800614,None,,,,21005,0002,2022_Jul_08_1316,localizer,2021.1.3,61.125105378456055,
block,scrambled,scrambled048.bmp,,,,,0,127,127,127,,,,,,,,,,,,,,,,,,,,,,,,,,,,,,,,,,,,,,,,,,None,,681.2813436800614,None,681.2813436800614,None,2022-07-08-13:28:01.097853,681.2822310000192,681.5815151999705,681.2822310000192,None,None,681.2822310000192,None,682.0815200800541,None,,,,21005,0002,2022_Jul_08_1316,localizer,2021.1.3,61.125105378456055,
block,scrambled,scrambled011.bmp,,,,,0,128,128,128,,,,,,,,,,,,,,,,,,,,,,,,,,,,,,,,,,,,,,,,,,None,,682.0815200800541,None,682.0815200800541,None,2022-07-08-13:28:01.900044,682.0836664000526,682.3979059001431,682.0836664000526,682.0836664000526,None,682.0836664000526,682.0836664000526,682.8980428799521,None,,,,21005,0002,2022_Jul_08_1316,localizer,2021.1.3,61.125105378456055,
block,scrambled,scrambled068.bmp,,,,,0,129,129,129,,,,,,,,,,,,,,,,,,,,,,,,,,,,,,,,,,,,,,,,,,None,,682.8980428799521,None,682.8980428799521,None,2022-07-08-13:28:02.714610,682.8991950000636,683.214741700096,682.8991950000636,None,None,682.8991950000636,None,683.6985748800914,None,,,,21005,0002,2022_Jul_08_1316,localizer,2021.1.3,61.125105378456055,
block,scrambled,scrambled076.bmp,,,,,0,130,130,130,,,,,,,,,,,,,,,,,,,,,,,,,,,,,,,,,,,,,,,,,,None,,683.6985748800914,None,683.6985748800914,None,2022-07-08-13:28:03.518307,683.7020761000458,684.014679600019,683.7020761000458,683.7020761000458,None,683.7020761000458,683.7020761000458,684.5022304800339,None,,,,21005,0002,2022_Jul_08_1316,localizer,2021.1.3,61.125105378456055,
block,scrambled,scrambled072.bmp,,,,,0,131,131,131,,,,,,,,,,,,,,,,,,,,,,,,,,,,,,,,,,,,,,,,,,None,,684.5022304800339,None,684.5022304800339,None,2022-07-08-13:28:04.328838,684.5228569000028,684.8310261999723,684.5228569000028,684.5228569000028,None,684.5228569000028,684.5228569000028,685.3146182801108,None,,,,21005,0002,2022_Jul_08_1316,localizer,2021.1.3,61.125105378456055,
block,scrambled,scrambled016.bmp,,,,,0,132,132,132,,,,,,,,,,,,,,,,,,,,,,,,,,,,,,,,,,,,,,,,,,None,,685.3146182801108,None,685.3146182801108,None,2022-07-08-13:28:05.131189,685.326196399983,685.6315705000889,685.326196399983,None,None,685.326196399983,None,686.1313114801421,None,,,,21005,0002,2022_Jul_08_1316,localizer,2021.1.3,61.125105378456055,
block,scrambled,scrambled010.bmp,,,,,0,133,133,133,,,,,,,,,,,,,,,,,,,,,,,,,,,,,,,,,,,,,,,,,,None,,686.1313114801421,None,686.1313114801421,None,2022-07-08-13:28:05.947855,686.1323490999639,686.4319387001451,686.1323490999639,None,None,686.1323490999639,None,686.947815180011,None,,,,21005,0002,2022_Jul_08_1316,localizer,2021.1.3,61.125105378456055,
block,scrambled,scrambled060.bmp,,,,,0,134,134,134,,,,,,,,,,,,,,,,,,,,,,,,,,,,,,,,,,,,,,,,,,None,,686.947815180011,None,686.947815180011,None,2022-07-08-13:28:06.764385,686.9488884001039,687.2646600001026,686.9488884001039,None,None,686.9488884001039,None,687.7644245801027,None,,,,21005,0002,2022_Jul_08_1316,localizer,2021.1.3,61.125105378456055,
block,scrambled,scrambled056.bmp,,,,,0,135,135,135,,,,,,,,,,,,,,,,,,,,,,,,,,,,,,,,,,,,,,,,,,None,,687.7644245801027,None,687.7644245801027,None,2022-07-08-13:28:07.580999,687.7655138999689,688.0652302000672,687.7655138999689,None,None,687.7655138999689,None,688.5809029801283,None,,,,21005,0002,2022_Jul_08_1316,localizer,2021.1.3,61.125105378456055,
block_end,scrambled,scrambled049.bmp,,,,,0,136,136,136,,,,,,,,,,,,,,,,,,,,,,,,,,,,,,,,,,,,,,,,,,None,,688.5809029801283,None,688.5809029801283,None,2022-07-08-13:28:08.397564,688.5824299000669,688.8981431000866,688.5824299000669,None,None,688.5824299000669,None,689.3823409799486,None,,,,21005,0002,2022_Jul_08_1316,localizer,2021.1.3,61.125105378456055,
null_block,null_block,null_block.bmp,,,,,0,137,137,137,,,,,,,,,,,,,,,,,,,,,,,,,,,,,,,,,,,,,,,,,,t,1.7868717999663204,689.3834855000023,None,689.3834855000023,None,2022-07-08-13:28:11.014219,691.1976000801194,None,691.1976000801194,None,None,691.1976000801194,None,691.2003838000819,None,,,,21005,0002,2022_Jul_08_1316,localizer,2021.1.3,61.125105378456055,
block_start,scenes,scenes081.bmp,,,,,0,138,138,138,,,,,,,,,,,,,,,,,,,,,,,,,,,,,,,,,,,,,,,,,,t,1.9678038998972625,703.2015430000611,None,703.2015430000611,None,2022-07-08-13:28:25.015456,705.1999191001523,705.515117800096,705.1999191001523,None,None,705.1999191001523,None,706.014316280093,None,,,,21005,0002,2022_Jul_08_1316,localizer,2021.1.3,61.125105378456055,
block,scenes,scenes075.bmp,,,,,0,139,139,139,,,,,,,,,,,,,,,,,,,,,,,,,,,,,,,,,,,,,,,,,,None,,706.014316280093,None,706.014316280093,None,2022-07-08-13:28:25.830895,706.015871200012,706.3315461999737,706.015871200012,None,None,706.015871200012,None,706.8315220800694,None,,,,21005,0002,2022_Jul_08_1316,localizer,2021.1.3,61.125105378456055,
block,scenes,scenes032.bmp,,,,,0,140,140,140,,,,,,,,,,,,,,,,,,,,,,,,,,,,,,,,,,,,,,,,,,None,,706.8315220800694,None,706.8315220800694,None,2022-07-08-13:28:26.649278,706.8425628000405,707.1479442999698,706.8425628000405,None,None,706.8425628000405,None,707.6483934800606,None,,,,21005,0002,2022_Jul_08_1316,localizer,2021.1.3,61.125105378456055,
block,scenes,scenes009.bmp,,,,,0,141,141,141,,,,,,,,,,,,,,,,,,,,,,,,,,,,,,,,,,,,,,,,,,None,,707.6483934800606,None,707.6483934800606,None,2022-07-08-13:28:27.466953,707.6516681001522,707.96535770013,707.6516681001522,None,None,707.6516681001522,None,708.4643852801062,None,,,,21005,0002,2022_Jul_08_1316,localizer,2021.1.3,61.125105378456055,
block,scenes,scenes003.bmp,,,,,0,142,142,142,,,,,,,,,,,,,,,,,,,,,,,,,,,,,,,,,,,,,,,,,,None,,708.4643852801062,None,708.4643852801062,None,2022-07-08-13:28:28.280962,708.4657725000288,708.7652495000511,708.4657725000288,None,None,708.4657725000288,None,709.2811691800132,None,,,,21005,0002,2022_Jul_08_1316,localizer,2021.1.3,61.125105378456055,
block,scenes,scenes068.bmp,,,,,0,143,143,143,,,,,,,,,,,,,,,,,,,,,,,,,,,,,,,,,,,,,,,,,,None,,709.2811691800132,None,709.2811691800132,None,2022-07-08-13:28:29.097467,709.2830535999965,709.5983245000243,709.2830535999965,None,None,709.2830535999965,None,710.0980871801264,None,,,,21005,0002,2022_Jul_08_1316,localizer,2021.1.3,61.125105378456055,
block,scenes,scenes073.bmp,,,,,0,144,144,144,,,,,,,,,,,,,,,,,,,,,,,,,,,,,,,,,,,,,,,,,,None,,710.0980871801264,None,710.0980871801264,None,2022-07-08-13:28:29.914659,710.1000161000993,710.4147584999446,710.1000161000993,None,None,710.1000161000993,None,710.9143588800914,None,,,,21005,0002,2022_Jul_08_1316,localizer,2021.1.3,61.125105378456055,
block,scenes,scenes052.bmp,,,,,0,145,145,145,,,,,,,,,,,,,,,,,,,,,,,,,,,,,,,,,,,,,,,,,,None,,710.9143588800914,None,710.9143588800914,None,2022-07-08-13:28:30.730934,710.9242831999436,711.2312944000587,710.9242831999436,None,None,710.9242831999436,None,711.7321232801303,None,,,,21005,0002,2022_Jul_08_1316,localizer,2021.1.3,61.125105378456055,
block,scenes,scenes092.bmp,,,,,0,146,146,146,,,,,,,,,,,,,,,,,,,,,,,,,,,,,,,,,,,,,,,,,,None,,711.7321232801303,None,711.7321232801303,None,2022-07-08-13:28:31.550657,711.735439900076,712.0480406000279,711.735439900076,None,None,711.735439900076,None,712.548142180033,None,,,,21005,0002,2022_Jul_08_1316,localizer,2021.1.3,61.125105378456055,
block,scenes,scenes018.bmp,,,,,0,147,147,147,,,,,,,,,,,,,,,,,,,,,,,,,,,,,,,,,,,,,,,,,,None,,712.548142180033,None,712.548142180033,None,2022-07-08-13:28:32.364710,712.5582506000064,712.8647921001539,712.5582506000064,None,None,712.5582506000064,None,713.3706211801152,None,,,,21005,0002,2022_Jul_08_1316,localizer,2021.1.3,61.125105378456055,
block,scenes,scenes067.bmp,,,,,0,148,148,148,,,,,,,,,,,,,,,,,,,,,,,,,,,,,,,,,,,,,,,,,,None,,713.3706211801152,None,713.3706211801152,None,2022-07-08-13:28:33.195108,713.3916943001095,713.6988063000608,713.3916943001095,None,None,713.3916943001095,None,714.1818979801144,None,,,,21005,0002,2022_Jul_08_1316,localizer,2021.1.3,61.125105378456055,
block,scenes,scenes028.bmp,,,,,0,149,149,149,,,,,,,,,,,,,,,,,,,,,,,,,,,,,,,,,,,,,,,,,,None,,714.1818979801144,None,714.1818979801144,None,2022-07-08-13:28:33.999410,714.1837594001554,714.4980341000482,714.1837594001554,None,None,714.1837594001554,None,714.9981103799771,None,,,,21005,0002,2022_Jul_08_1316,localizer,2021.1.3,61.125105378456055,
block,scenes,scenes048.bmp,,,,,0,150,150,150,,,,,,,,,,,,,,,,,,,,,,,,,,,,,,,,,,,,,,,,,,None,,714.9981103799771,None,714.9981103799771,None,2022-07-08-13:28:34.814664,715.013520100154,715.3148638000712,715.013520100154,None,None,715.013520100154,None,715.8141123801004,None,,,,21005,0002,2022_Jul_08_1316,localizer,2021.1.3,61.125105378456055,
block,scenes,scenes025.bmp,,,,,0,151,151,151,,,,,,,,,,,,,,,,,,,,,,,,,,,,,,,,,,,,,,,,,,None,,715.8141123801004,None,715.8141123801004,None,2022-07-08-13:28:35.630693,715.816507600015,716.1313845999539,715.816507600015,None,None,715.816507600015,None,716.6314818800427,None,,,,21005,0002,2022_Jul_08_1316,localizer,2021.1.3,61.125105378456055,
block_end,scenes,scenes087.bmp,,,,,0,152,152,152,,,,,,,,,,,,,,,,,,,,,,,,,,,,,,,,,,,,,,,,,,None,,716.6314818800427,None,716.6314818800427,None,2022-07-08-13:28:36.448048,716.6424514001701,716.9480394001585,716.6424514001701,None,None,716.6424514001701,None,717.4478999799583,None,,,,21005,0002,2022_Jul_08_1316,localizer,2021.1.3,61.125105378456055,
block_start,objects,objects058.bmp,,,,,0,153,153,153,,,,,,,,,,,,,,,,,,,,,,,,,,,,,,,,,,,,,,,,,,t,1.721237299963832,717.4480851001572,None,717.4480851001572,None,2022-07-08-13:28:39.014637,719.204647900071,719.5151482000947,719.204647900071,None,None,719.204647900071,None,720.0147620799951,None,,,,21005,0002,2022_Jul_08_1316,localizer,2021.1.3,61.125105378456055,
block,objects,objects005.bmp,,,,,0,154,154,154,,,,,,,,,,,,,,,,,,,,,,,,,,,,,,,,,,,,,,,,,,None,,720.0147620799951,None,720.0147620799951,None,2022-07-08-13:28:39.831537,720.0223648999818,720.3318321001716,720.0223648999818,None,None,720.0223648999818,None,720.8313458801247,None,,,,21005,0002,2022_Jul_08_1316,localizer,2021.1.3,61.125105378456055,
block,objects,objects076.bmp,,,,,0,155,155,155,,,,,,,,,,,,,,,,,,,,,,,,,,,,,,,,,,,,,,,,,,None,,720.8313458801247,None,720.8313458801247,None,2022-07-08-13:28:40.647921,720.8362649001647,721.1484163000714,720.8362649001647,None,None,720.8362649001647,None,721.6483257801272,None,,,,21005,0002,2022_Jul_08_1316,localizer,2021.1.3,61.125105378456055,
block,objects,objects004.bmp,,,,,0,156,156,156,,,,,,,,,,,,,,,,,,,,,,,,,,,,,,,,,,,,,,,,,,None,,721.6483257801272,None,721.6483257801272,None,2022-07-08-13:28:41.466128,721.6587493000552,721.96486800001,721.6587493000552,None,None,721.6587493000552,None,722.4657749800942,None,,,,21005,0002,2022_Jul_08_1316,localizer,2021.1.3,61.125105378456055,
block,objects,objects020.bmp,,,,,0,157,157,157,,,,,,,,,,,,,,,,,,,,,,,,,,,,,,,,,,,,,,,,,,None,,722.4657749800942,None,722.4657749800942,None,2022-07-08-13:28:42.284520,722.468256900087,722.7818501000293,722.468256900087,None,None,722.468256900087,None,723.2811234800145,None,,,,21005,0002,2022_Jul_08_1316,localizer,2021.1.3,61.125105378456055,
block,objects,objects056.bmp,,,,,0,158,158,158,,,,,,,,,,,,,,,,,,,,,,,,,,,,,,,,,,,,,,,,,,None,,723.2811234800145,None,723.2811234800145,None,2022-07-08-13:28:43.096706,723.2823400001507,723.5983176000882,723.2823400001507,None,None,723.2823400001507,None,724.0815037800464,None,,,,21005,0002,2022_Jul_08_1316,localizer,2021.1.3,61.125105378456055,
block,objects,objects056.bmp,,,,,0,159,159,159,,,,,,,,,,,,,,,,,,,,,,,,,,,,,,,,,,,,,,,,,,None,,724.0815037800464,None,724.0815037800464,None,2022-07-08-13:28:43.900068,724.084254699992,724.3981167001184,724.084254699992,724.084254699992,y,724.084254699992,724.084254699992,724.8978903800714,None,0.5171222998760641,,,21005,0002,2022_Jul_08_1316,localizer,2021.1.3,61.125105378456055,
block,objects,objects010.bmp,,,,,0,160,160,160,,,,,,,,,,,,,,,,,,,,,,,,,,,,,,,,,,,,,,,,,,None,,724.8978903800714,None,724.8978903800714,None,2022-07-08-13:28:44.714468,724.9073312000837,725.2146236000117,724.9073312000837,None,None,724.9073312000837,None,725.7145502799656,None,,,,21005,0002,2022_Jul_08_1316,localizer,2021.1.3,61.125105378456055,
block,objects,objects051.bmp,,,,,0,161,161,161,,,,,,,,,,,,,,,,,,,,,,,,,,,,,,,,,,,,,,,,,,None,,725.7145502799656,None,725.7145502799656,None,2022-07-08-13:28:45.531119,725.7155131001491,726.014914000174,725.7155131001491,None,None,725.7155131001491,None,726.5146213799715,None,,,,21005,0002,2022_Jul_08_1316,localizer,2021.1.3,61.125105378456055,
block,objects,objects061.bmp,,,,,0,162,162,162,,,,,,,,,,,,,,,,,,,,,,,,,,,,,,,,,,,,,,,,,,None,,726.5146213799715,None,726.5146213799715,None,2022-07-08-13:28:46.333192,726.5161085999571,726.8316165001597,726.5161085999571,726.5161085999571,None,726.5161085999571,726.5161085999571,727.3316951801069,None,,,,21005,0002,2022_Jul_08_1316,localizer,2021.1.3,61.125105378456055,
block,objects,objects015.bmp,,,,,0,163,163,163,,,,,,,,,,,,,,,,,,,,,,,,,,,,,,,,,,,,,,,,,,None,,727.3316951801069,None,727.3316951801069,None,2022-07-08-13:28:47.148391,727.3325926000252,727.6484469000716,727.3325926000252,None,None,727.3325926000252,None,728.1480971800163,None,,,,21005,0002,2022_Jul_08_1316,localizer,2021.1.3,61.125105378456055,
block,objects,objects024.bmp,,,,,0,164,164,164,,,,,,,,,,,,,,,,,,,,,,,,,,,,,,,,,,,,,,,,,,None,,728.1480971800163,None,728.1480971800163,None,2022-07-08-13:28:47.964996,728.1543640000746,728.4651929000393,728.1543640000746,None,None,728.1543640000746,None,728.9648341801483,None,,,,21005,0002,2022_Jul_08_1316,localizer,2021.1.3,61.125105378456055,
block,objects,objects017.bmp,,,,,0,165,165,165,,,,,,,,,,,,,,,,,,,,,,,,,,,,,,,,,,,,,,,,,,None,,728.9648341801483,None,728.9648341801483,None,2022-07-08-13:28:48.782611,728.9771310000215,729.28197859996,728.9771310000215,None,None,728.9771310000215,None,729.7814531800802,None,,,,21005,0002,2022_Jul_08_1316,localizer,2021.1.3,61.125105378456055,
block,objects,objects029.bmp,,,,,0,166,166,166,,,,,,,,,,,,,,,,,,,,,,,,,,,,,,,,,,,,,,,,,,None,,729.7814531800802,None,729.7814531800802,None,2022-07-08-13:28:49.598027,729.7825510001276,730.0983071001247,729.7825510001276,None,None,729.7825510001276,None,730.5817717799916,None,,,,21005,0002,2022_Jul_08_1316,localizer,2021.1.3,61.125105378456055,
block_end,objects,objects078.bmp,,,,,0,167,167,167,,,,,,,,,,,,,,,,,,,,,,,,,,,,,,,,,,,,,,,,,,None,,730.5817717799916,None,730.5817717799916,None,2022-07-08-13:28:50.401542,730.5963698001578,730.8985856999643,730.5963698001578,730.5963698001578,None,730.5963698001578,730.5963698001578,731.3984406799543,None,,,,21005,0002,2022_Jul_08_1316,localizer,2021.1.3,61.125105378456055,
block_start,faces,faces061.bmp,,,,,0,168,168,168,,,,,,,,,,,,,,,,,,,,,,,,,,,,,,,,,,,,,,,,,,t,1.7700973998289555,731.3991300000343,None,731.3991300000343,None,2022-07-08-13:28:53.013618,733.1992880001199,733.5148269999772,733.1992880001199,None,None,733.1992880001199,None,733.9988701799418,None,,,,21005,0002,2022_Jul_08_1316,localizer,2021.1.3,61.125105378456055,
block,faces,faces034.bmp,,,,,0,169,169,169,,,,,,,,,,,,,,,,,,,,,,,,,,,,,,,,,,,,,,,,,,None,,733.9988701799418,None,733.9988701799418,None,2022-07-08-13:28:53.818610,734.0034615001641,734.3158144999761,734.0034615001641,734.0034615001641,None,734.0034615001641,734.0034615001641,734.8148747800849,None,,,,21005,0002,2022_Jul_08_1316,localizer,2021.1.3,61.125105378456055,
block,faces,faces071.bmp,,,,,0,170,170,170,,,,,,,,,,,,,,,,,,,,,,,,,,,,,,,,,,,,,,,,,,None,,734.8148747800849,None,734.8148747800849,None,2022-07-08-13:28:54.631454,734.8254954000004,735.1315621000249,734.8254954000004,None,None,734.8254954000004,None,735.6321942801121,None,,,,21005,0002,2022_Jul_08_1316,localizer,2021.1.3,61.125105378456055,
block,faces,faces056.bmp,,,,,0,171,171,171,,,,,,,,,,,,,,,,,,,,,,,,,,,,,,,,,,,,,,,,,,None,,735.6321942801121,None,735.6321942801121,None,2022-07-08-13:28:55.448524,735.6318065000232,735.9316492001526,735.6318065000232,None,None,735.6318065000232,None,736.4315102800726,None,,,,21005,0002,2022_Jul_08_1316,localizer,2021.1.3,61.125105378456055,
block,faces,faces052.bmp,,,,,0,172,172,172,,,,,,,,,,,,,,,,,,,,,,,,,,,,,,,,,,,,,,,,,,None,,736.4315102800726,None,736.4315102800726,None,2022-07-08-13:28:56.250074,736.433210400166,736.7483654001262,736.433210400166,736.433210400166,None,736.433210400166,736.433210400166,737.2478525801096,None,,,,21005,0002,2022_Jul_08_1316,localizer,2021.1.3,61.125105378456055,
block,faces,faces004.bmp,,,,,0,173,173,173,,,,,,,,,,,,,,,,,,,,,,,,,,,,,,,,,,,,,,,,,,None,,737.2478525801096,None,737.2478525801096,None,2022-07-08-13:28:57.064430,737.2491456000134,737.5649639000185,737.2491456000134,None,None,737.2491456000134,None,738.0484237800817,None,,,,21005,0002,2022_Jul_08_1316,localizer,2021.1.3,61.125105378456055,
block,faces,faces003.bmp,,,,,0,174,174,174,,,,,,,,,,,,,,,,,,,,,,,,,,,,,,,,,,,,,,,,,,None,,738.0484237800817,None,738.0484237800817,None,2022-07-08-13:28:57.867949,738.0621621001046,738.3649329999462,738.0621621001046,738.0621621001046,None,738.0621621001046,738.0621621001046,738.8651244800537,None,,,,21005,0002,2022_Jul_08_1316,localizer,2021.1.3,61.125105378456055,
block,faces,faces043.bmp,,,,,0,175,175,175,,,,,,,,,,,,,,,,,,,,,,,,,,,,,,,,,,,,,,,,,,None,,738.8651244800537,None,738.8651244800537,None,2022-07-08-13:28:58.681702,738.8662541001104,739.1816658000462,738.8662541001104,None,None,738.8662541001104,None,739.6816416801419,None,,,,21005,0002,2022_Jul_08_1316,localizer,2021.1.3,61.125105378456055,
block,faces,faces028.bmp,,,,,0,176,176,176,,,,,,,,,,,,,,,,,,,,,,,,,,,,,,,,,,,,,,,,,,None,,739.6816416801419,None,739.6816416801419,None,2022-07-08-13:28:59.498213,739.6927400000859,739.9984933000524,739.6927400000859,None,None,739.6927400000859,None,740.4979732799809,None,,,,21005,0002,2022_Jul_08_1316,localizer,2021.1.3,61.125105378456055,
block,faces,faces064.bmp,,,,,0,177,177,177,,,,,,,,,,,,,,,,,,,,,,,,,,,,,,,,,,,,,,,,,,None,,740.4979732799809,None,740.4979732799809,None,2022-07-08-13:29:00.314546,740.5075336000882,740.8148928000592,740.5075336000882,None,None,740.5075336000882,None,741.3145365800708,None,,,,21005,0002,2022_Jul_08_1316,localizer,2021.1.3,61.125105378456055,
block,faces,faces029.bmp,,,,,0,178,178,178,,,,,,,,,,,,,,,,,,,,,,,,,,,,,,,,,,,,,,,,,,None,,741.3145365800708,None,741.3145365800708,None,2022-07-08-13:29:01.131109,741.3264289000072,741.6322487001307,741.3264289000072,None,None,741.3264289000072,None,742.1315249800216,None,,,,21005,0002,2022_Jul_08_1316,localizer,2021.1.3,61.125105378456055,
block,faces,faces033.bmp,,,,,0,179,179,179,,,,,,,,,,,,,,,,,,,,,,,,,,,,,,,,,,,,,,,,,,None,,742.1315249800216,None,742.1315249800216,None,2022-07-08-13:29:01.948107,742.1327436999418,742.4478166000918,742.1327436999418,None,None,742.1327436999418,None,742.9482986800838,None,,,,21005,0002,2022_Jul_08_1316,localizer,2021.1.3,61.125105378456055,
block,faces,faces035.bmp,,,,,0,180,180,180,,,,,,,,,,,,,,,,,,,,,,,,,,,,,,,,,,,,,,,,,,None,,742.9482986800838,None,742.9482986800838,None,2022-07-08-13:29:02.765076,742.9491012000944,743.254967099987,742.9491012000944,None,None,742.9491012000944,None,743.7648267801385,None,,,,21005,0002,2022_Jul_08_1316,localizer,2021.1.3,61.125105378456055,
block,faces,faces045.bmp,,,,,0,181,181,181,,,,,,,,,,,,,,,,,,,,,,,,,,,,,,,,,,,,,,,,,,None,,743.7648267801385,None,743.7648267801385,None,2022-07-08-13:29:03.581621,743.7659063001629,744.0816567000002,743.7659063001629,None,None,743.7659063001629,None,744.5814145800657,None,,,,21005,0002,2022_Jul_08_1316,localizer,2021.1.3,61.125105378456055,
block_end,faces,faces080.bmp,,,,,0,182,182,182,,,,,,,,,,,,,,,,,,,,,,,,,,,,,,,,,,,,,,,,,,None,,744.5814145800657,None,744.5814145800657,None,2022-07-08-13:29:04.397988,744.5956572000869,744.8980890000239,744.5956572000869,None,None,744.5956572000869,None,745.3988118799869,None,,,,21005,0002,2022_Jul_08_1316,localizer,2021.1.3,61.125105378456055,
block_start,scenes,scenes030.bmp,,,,,0,183,183,183,,,,,,,,,,,,,,,,,,,,,,,,,,,,,,,,,,,,,,,,,,t,1.7705147999804467,745.3987841999624,None,745.3987841999624,None,2022-07-08-13:29:07.016256,747.2016658000648,747.5156318000518,747.2016658000648,None,None,747.2016658000648,None,748.0160066801589,None,,,,21005,0002,2022_Jul_08_1316,localizer,2021.1.3,61.125105378456055,
block,scenes,scenes089.bmp,,,,,0,184,184,184,,,,,,,,,,,,,,,,,,,,,,,,,,,,,,,,,,,,,,,,,,None,,748.0160066801589,None,748.0160066801589,None,2022-07-08-13:29:07.834735,748.0295619000681,748.331771499943,748.0295619000681,None,None,748.0295619000681,None,748.8313765800092,None,,,,21005,0002,2022_Jul_08_1316,localizer,2021.1.3,61.125105378456055,
block,scenes,scenes066.bmp,,,,,0,185,185,185,,,,,,,,,,,,,,,,,,,,,,,,,,,,,,,,,,,,,,,,,,None,,748.8313765800092,None,748.8313765800092,None,2022-07-08-13:29:08.646956,748.8400246000383,749.1481635000091,748.8400246000383,None,None,748.8400246000383,None,749.6501289801206,None,,,,21005,0002,2022_Jul_08_1316,localizer,2021.1.3,61.125105378456055,
block,scenes,scenes035.bmp,,,,,0,186,186,186,,,,,,,,,,,,,,,,,,,,,,,,,,,,,,,,,,,,,,,,,,None,,749.6501289801206,None,749.6501289801206,None,2022-07-08-13:29:09.471662,749.6709851999767,749.9879276000429,749.6709851999767,None,None,749.6709851999767,None,750.4643376799766,None,,,,21005,0002,2022_Jul_08_1316,localizer,2021.1.3,61.125105378456055,
block,scenes,scenes088.bmp,,,,,0,187,187,187,,,,,,,,,,,,,,,,,,,,,,,,,,,,,,,,,,,,,,,,,,None,,750.4643376799766,None,750.4643376799766,None,2022-07-08-13:29:10.280914,750.4660786001477,750.7816478000022,750.4660786001477,None,None,750.4660786001477,None,751.281570280157,None,,,,21005,0002,2022_Jul_08_1316,localizer,2021.1.3,61.125105378456055,
block,scenes,scenes007.bmp,,,,,0,188,188,188,,,,,,,,,,,,,,,,,,,,,,,,,,,,,,,,,,,,,,,,,,None,,751.281570280157,None,751.281570280157,None,2022-07-08-13:29:11.098157,751.2928739001509,751.5983122000471,751.2928739001509,None,None,751.2928739001509,None,752.0980117800179,None,,,,21005,0002,2022_Jul_08_1316,localizer,2021.1.3,61.125105378456055,
block,scenes,scenes040.bmp,,,,,0,189,189,189,,,,,,,,,,,,,,,,,,,,,,,,,,,,,,,,,,,,,,,,,,None,,752.0980117800179,None,752.0980117800179,None,2022-07-08-13:29:11.914588,752.0993825001642,752.4152202999685,752.0993825001642,None,None,752.0993825001642,None,752.9148770800791,None,,,,21005,0002,2022_Jul_08_1316,localizer,2021.1.3,61.125105378456055,
block,scenes,scenes087.bmp,,,,,0,190,190,190,,,,,,,,,,,,,,,,,,,,,,,,,,,,,,,,,,,,,,,,,,None,,752.9148770800791,None,752.9148770800791,None,2022-07-08-13:29:12.731664,752.9159842000809,753.2317067000549,752.9159842000809,None,None,752.9159842000809,None,753.7312004800885,None,,,,21005,0002,2022_Jul_08_1316,localizer,2021.1.3,61.125105378456055,
block,scenes,scenes005.bmp,,,,,0,191,191,191,,,,,,,,,,,,,,,,,,,,,,,,,,,,,,,,,,,,,,,,,,None,,753.7312004800885,None,753.7312004800885,None,2022-07-08-13:29:13.548022,753.7325232001022,754.0484367001336,753.7325232001022,None,None,753.7325232001022,None,754.5318027799483,None,,,,21005,0002,2022_Jul_08_1316,localizer,2021.1.3,61.125105378456055,
block,scenes,scenes051.bmp,,,,,0,192,192,192,,,,,,,,,,,,,,,,,,,,,,,,,,,,,,,,,,,,,,,,,,None,,754.5318027799483,None,754.5318027799483,None,2022-07-08-13:29:14.350598,754.534420600161,754.8483794000931,754.534420600161,754.534420600161,None,754.534420600161,754.534420600161,755.3485190800391,None,,,,21005,0002,2022_Jul_08_1316,localizer,2021.1.3,61.125105378456055,
block,scenes,scenes075.bmp,,,,,0,193,193,193,,,,,,,,,,,,,,,,,,,,,,,,,,,,,,,,,,,,,,,,,,None,,755.3485190800391,None,755.3485190800391,None,2022-07-08-13:29:15.166083,755.3502986000385,755.6653332000133,755.3502986000385,None,None,755.3502986000385,None,756.1650317799765,None,,,,21005,0002,2022_Jul_08_1316,localizer,2021.1.3,61.125105378456055,
block,scenes,scenes090.bmp,,,,,0,194,194,194,,,,,,,,,,,,,,,,,,,,,,,,,,,,,,,,,,,,,,,,,,None,,756.1650317799765,None,756.1650317799765,None,2022-07-08-13:29:15.982596,756.1725828000344,756.4819602000061,756.1725828000344,None,None,756.1725828000344,None,756.9814831800293,None,,,,21005,0002,2022_Jul_08_1316,localizer,2021.1.3,61.125105378456055,
block,scenes,scenes013.bmp,,,,,0,195,195,195,,,,,,,,,,,,,,,,,,,,,,,,,,,,,,,,,,,,,,,,,,None,,756.9814831800293,None,756.9814831800293,None,2022-07-08-13:29:16.798052,756.9826679001562,757.2842127999756,756.9826679001562,None,None,756.9826679001562,None,757.7820118800271,None,,,,21005,0002,2022_Jul_08_1316,localizer,2021.1.3,61.125105378456055,
block,scenes,scenes013.bmp,,,,,0,196,196,196,,,,,,,,,,,,,,,,,,,,,,,,,,,,,,,,,,,,,,,,,,None,,757.7820118800271,None,757.7820118800271,None,2022-07-08-13:29:17.602759,757.7851440999657,758.0880760001019,757.7851440999657,757.7851440999657,y,757.7851440999657,757.7851440999657,758.598198480159,None,0.6229997000191361,,,21005,0002,2022_Jul_08_1316,localizer,2021.1.3,61.125105378456055,
block_end,scenes,scenes014.bmp,,,,,0,197,197,197,,,,,,,,,,,,,,,,,,,,,,,,,,,,,,,,,,,,,,,,,,None,,758.598198480159,None,758.598198480159,None,2022-07-08-13:29:18.416074,758.5992227001116,758.915104100015,758.5992227001116,None,None,758.5992227001116,None,759.3983085799962,None,,,,21005,0002,2022_Jul_08_1316,localizer,2021.1.3,61.125105378456055,
block_start,objects,objects057.bmp,,,,,0,198,198,198,,,,,,,,,,,,,,,,,,,,,,,,,,,,,,,,,,,,,,,,,,t,1.770994700025767,759.3983533000574,None,759.3983533000574,None,2022-07-08-13:29:21.014018,761.1993951001205,761.5149898000527,761.1993951001205,None,None,761.1993951001205,None,761.9984550801571,None,,,,21005,0002,2022_Jul_08_1316,localizer,2021.1.3,61.125105378456055,
block,objects,objects001.bmp,,,,,0,199,199,199,,,,,,,,,,,,,,,,,,,,,,,,,,,,,,,,,,,,,,,,,,None,,761.9984550801571,None,761.9984550801571,None,2022-07-08-13:29:21.817120,762.0006351000629,762.315046899952,762.0006351000629,762.0006351000629,None,762.0006351000629,762.0006351000629,762.8151194799691,None,,,,21005,0002,2022_Jul_08_1316,localizer,2021.1.3,61.125105378456055,
block,objects,objects003.bmp,,,,,0,200,200,200,,,,,,,,,,,,,,,,,,,,,,,,,,,,,,,,,,,,,,,,,,None,,762.8151194799691,None,762.8151194799691,None,2022-07-08-13:29:22.632904,762.8160862000659,763.1158348000608,762.8160862000659,None,None,762.8160862000659,None,763.6317184799816,None,,,,21005,0002,2022_Jul_08_1316,localizer,2021.1.3,61.125105378456055,
block,objects,objects006.bmp,,,,,0,201,201,201,,,,,,,,,,,,,,,,,,,,,,,,,,,,,,,,,,,,,,,,,,None,,763.6317184799816,None,763.6317184799816,None,2022-07-08-13:29:23.448910,763.6325429000426,763.9318723001052,763.6325429000426,None,None,763.6325429000426,None,764.4321829799562,None,,,,21005,0002,2022_Jul_08_1316,localizer,2021.1.3,61.125105378456055,
block,objects,objects024.bmp,,,,,0,202,202,202,,,,,,,,,,,,,,,,,,,,,,,,,,,,,,,,,,,,,,,,,,None,,764.4321829799562,None,764.4321829799562,None,2022-07-08-13:29:24.251737,764.4354294000659,764.7491576999892,764.4354294000659,764.4354294000659,None,764.4354294000659,764.4354294000659,765.2483071800787,None,,,,21005,0002,2022_Jul_08_1316,localizer,2021.1.3,61.125105378456055,
block,objects,objects054.bmp,,,,,0,203,203,203,,,,,,,,,,,,,,,,,,,,,,,,,,,,,,,,,,,,,,,,,,None,,765.2483071800787,None,765.2483071800787,None,2022-07-08-13:29:25.064877,765.2596271000803,765.5648917001672,765.2596271000803,None,None,765.2596271000803,None,766.0711411800701,None,,,,21005,0002,2022_Jul_08_1316,localizer,2021.1.3,61.125105378456055,
block,objects,objects084.bmp,,,,,0,204,204,204,,,,,,,,,,,,,,,,,,,,,,,,,,,,,,,,,,,,,,,,,,None,,766.0711411800701,None,766.0711411800701,None,2022-07-08-13:29:25.895512,766.0774681000039,766.3820939001162,766.0774681000039,None,None,766.0774681000039,None,766.8877764800097,None,,,,21005,0002,2022_Jul_08_1316,localizer,2021.1.3,61.125105378456055,
block,objects,objects031.bmp,,,,,0,205,205,205,,,,,,,,,,,,,,,,,,,,,,,,,,,,,,,,,,,,,,,,,,None,,766.8877764800097,None,766.8877764800097,None,2022-07-08-13:29:26.712133,766.8946808001492,767.1985090000089,766.8946808001492,None,None,766.8946808001492,None,767.6984088799916,None,,,,21005,0002,2022_Jul_08_1316,localizer,2021.1.3,61.125105378456055,
block,objects,objects043.bmp,,,,,0,206,206,206,,,,,,,,,,,,,,,,,,,,,,,,,,,,,,,,,,,,,,,,,,None,,767.6984088799916,None,767.6984088799916,None,2022-07-08-13:29:27.515183,767.7095737000927,768.0184508000966,767.7095737000927,None,None,767.7095737000927,None,768.5147938800044,None,,,,21005,0002,2022_Jul_08_1316,localizer,2021.1.3,61.125105378456055,
block,objects,objects015.bmp,,,,,0,207,207,207,,,,,,,,,,,,,,,,,,,,,,,,,,,,,,,,,,,,,,,,,,None,,768.5147938800044,None,768.5147938800044,None,2022-07-08-13:29:28.331531,768.5159905001055,768.8318227999844,768.5159905001055,None,None,768.5159905001055,None,769.3153859800193,None,,,,21005,0002,2022_Jul_08_1316,localizer,2021.1.3,61.125105378456055,
block,objects,objects038.bmp,,,,,0,208,208,208,,,,,,,,,,,,,,,,,,,,,,,,,,,,,,,,,,,,,,,,,,None,,769.3153859800193,None,769.3153859800193,None,2022-07-08-13:29:29.134940,769.3258591000922,769.6318008000962,769.3258591000922,769.3258591000922,None,769.3258591000922,769.3258591000922,770.1311998799908,None,,,,21005,0002,2022_Jul_08_1316,localizer,2021.1.3,61.125105378456055,
block,objects,objects062.bmp,,,,,0,209,209,209,,,,,,,,,,,,,,,,,,,,,,,,,,,,,,,,,,,,,,,,,,None,,770.1311998799908,None,770.1311998799908,None,2022-07-08-13:29:29.946781,770.1402847999707,770.4482953001279,770.1402847999707,None,None,770.1402847999707,None,770.947973580053,None,,,,21005,0002,2022_Jul_08_1316,localizer,2021.1.3,61.125105378456055,
block,objects,objects030.bmp,,,,,0,210,210,210,,,,,,,,,,,,,,,,,,,,,,,,,,,,,,,,,,,,,,,,,,None,,770.947973580053,None,770.947973580053,None,2022-07-08-13:29:30.764710,770.9494448001496,771.2650803001598,770.9494448001496,None,None,770.9494448001496,None,771.7647731799632,None,,,,21005,0002,2022_Jul_08_1316,localizer,2021.1.3,61.125105378456055,
block,objects,objects075.bmp,,,,,0,211,211,211,,,,,,,,,,,,,,,,,,,,,,,,,,,,,,,,,,,,,,,,,,None,,771.7647731799632,None,771.7647731799632,None,2022-07-08-13:29:31.581347,771.7660004000645,772.0818213000894,771.7660004000645,None,None,771.7660004000645,None,772.56551447995,None,,,,21005,0002,2022_Jul_08_1316,localizer,2021.1.3,61.125105378456055,
block_end,objects,objects041.bmp,,,,,0,212,212,212,,,,,,,,,,,,,,,,,,,,,,,,,,,,,,,,,,,,,,,,,,None,,772.56551447995,None,772.56551447995,None,2022-07-08-13:29:32.385228,772.5688626000192,772.8823051000945,772.5688626000192,772.5688626000192,None,772.5688626000192,772.5688626000192,773.381543480046,None,,,,21005,0002,2022_Jul_08_1316,localizer,2021.1.3,61.125105378456055,
block_start,scrambled,scrambled020.bmp,,,,,0,213,213,213,,,,,,,,,,,,,,,,,,,,,,,,,,,,,,,,,,,,,,,,,,t,1.7874927001539618,773.3817884000018,None,773.3817884000018,None,2022-07-08-13:29:35.015267,775.1998380001169,775.5151103001554,775.1998380001169,None,None,775.1998380001169,None,776.014863579953,None,,,,21005,0002,2022_Jul_08_1316,localizer,2021.1.3,61.125105378456055,
block,scrambled,scrambled070.bmp,,,,,0,214,214,214,,,,,,,,,,,,,,,,,,,,,,,,,,,,,,,,,,,,,,,,,,None,,776.014863579953,None,776.014863579953,None,2022-07-08-13:29:35.831438,776.0247633000836,776.3317730000708,776.0247633000836,None,None,776.0247633000836,None,776.831860480085,None,,,,21005,0002,2022_Jul_08_1316,localizer,2021.1.3,61.125105378456055,
block,scrambled,scrambled078.bmp,,,,,0,215,215,215,,,,,,,,,,,,,,,,,,,,,,,,,,,,,,,,,,,,,,,,,,None,,776.831860480085,None,776.831860480085,None,2022-07-08-13:29:36.648457,776.842925200006,777.1485216000583,776.842925200006,None,None,776.842925200006,None,777.6489563800394,None,,,,21005,0002,2022_Jul_08_1316,localizer,2021.1.3,61.125105378456055,
block,scrambled,scrambled086.bmp,,,,,0,216,216,216,,,,,,,,,,,,,,,,,,,,,,,,,,,,,,,,,,,,,,,,,,None,,777.6489563800394,None,777.6489563800394,None,2022-07-08-13:29:37.467274,777.662571300054,777.9650803999975,777.662571300054,None,None,777.662571300054,None,778.465193580091,None,,,,21005,0002,2022_Jul_08_1316,localizer,2021.1.3,61.125105378456055,
block,scrambled,scrambled074.bmp,,,,,0,217,217,217,,,,,,,,,,,,,,,,,,,,,,,,,,,,,,,,,,,,,,,,,,None,,778.465193580091,None,778.465193580091,None,2022-07-08-13:29:38.282768,778.4762355999555,778.7819364001043,778.4762355999555,None,None,778.4762355999555,None,779.281690880144,None,,,,21005,0002,2022_Jul_08_1316,localizer,2021.1.3,61.125105378456055,
block,scrambled,scrambled005.bmp,,,,,0,218,218,218,,,,,,,,,,,,,,,,,,,,,,,,,,,,,,,,,,,,,,,,,,None,,779.281690880144,None,779.281690880144,None,2022-07-08-13:29:39.098262,779.2827846000437,779.5993157001212,779.2827846000437,None,None,779.2827846000437,None,780.0818676801398,None,,,,21005,0002,2022_Jul_08_1316,localizer,2021.1.3,61.125105378456055,
block,scrambled,scrambled032.bmp,,,,,0,219,219,219,,,,,,,,,,,,,,,,,,,,,,,,,,,,,,,,,,,,,,,,,,None,,780.0818676801398,None,780.0818676801398,None,2022-07-08-13:29:39.900483,780.0847835000604,780.398619200103,780.0847835000604,780.0847835000604,None,780.0847835000604,780.0847835000604,780.8851803801488,None,,,,21005,0002,2022_Jul_08_1316,localizer,2021.1.3,61.125105378456055,
block,scrambled,scrambled022.bmp,,,,,0,220,220,220,,,,,,,,,,,,,,,,,,,,,,,,,,,,,,,,,,,,,,,,,,None,,780.8851803801488,None,780.8851803801488,None,2022-07-08-13:29:40.713454,780.8951982001308,781.1983613001648,780.8951982001308,780.8951982001308,None,780.8951982001308,780.8951982001308,781.6984501799568,None,,,,21005,0002,2022_Jul_08_1316,localizer,2021.1.3,61.125105378456055,
block,scrambled,scrambled003.bmp,,,,,0,221,221,221,,,,,,,,,,,,,,,,,,,,,,,,,,,,,,,,,,,,,,,,,,None,,781.6984501799568,None,781.6984501799568,None,2022-07-08-13:29:41.515069,781.6992277000099,781.998770999955,781.6992277000099,None,None,781.6992277000099,None,782.498534379946,None,,,,21005,0002,2022_Jul_08_1316,localizer,2021.1.3,61.125105378456055,
block,scrambled,scrambled055.bmp,,,,,0,222,222,222,,,,,,,,,,,,,,,,,,,,,,,,,,,,,,,,,,,,,,,,,,None,,782.498534379946,None,782.498534379946,None,2022-07-08-13:29:42.317098,782.5113937000278,782.81512140017,782.5113937000278,782.5113937000278,None,782.5113937000278,782.5113937000278,783.3148995800409,None,,,,21005,0002,2022_Jul_08_1316,localizer,2021.1.3,61.125105378456055,
block,scrambled,scrambled035.bmp,,,,,0,223,223,223,,,,,,,,,,,,,,,,,,,,,,,,,,,,,,,,,,,,,,,,,,None,,783.3148995800409,None,783.3148995800409,None,2022-07-08-13:29:43.131472,783.3160220000427,783.6317934000399,783.3160220000427,None,None,783.3160220000427,None,784.1321240800432,None,,,,21005,0002,2022_Jul_08_1316,localizer,2021.1.3,61.125105378456055,
block,scrambled,scrambled088.bmp,,,,,0,224,224,224,,,,,,,,,,,,,,,,,,,,,,,,,,,,,,,,,,,,,,,,,,None,,784.1321240800432,None,784.1321240800432,None,2022-07-08-13:29:43.948960,784.1328447000124,784.4485524999909,784.1328447000124,None,y,784.1328447000124,None,784.9352786801289,None,0.5162229998968542,,,21005,0002,2022_Jul_08_1316,localizer,2021.1.3,61.125105378456055,
block,scrambled,scrambled053.bmp,,,,,0,225,225,225,,,,,,,,,,,,,,,,,,,,,,,,,,,,,,,,,,,,,,,,,,None,,784.9352786801289,None,784.9352786801289,None,2022-07-08-13:29:44.757820,784.9418516000733,785.2482698000968,784.9418516000733,784.9418516000733,None,784.9418516000733,784.9418516000733,785.7484337801113,None,,,,21005,0002,2022_Jul_08_1316,localizer,2021.1.3,61.125105378456055,
block,scrambled,scrambled061.bmp,,,,,0,226,226,226,,,,,,,,,,,,,,,,,,,,,,,,,,,,,,,,,,,,,,,,,,None,,785.7484337801113,None,785.7484337801113,None,2022-07-08-13:29:45.564837,785.74941950012,786.0653048001695,785.74941950012,None,None,785.74941950012,None,786.5484861800912,None,,,,21005,0002,2022_Jul_08_1316,localizer,2021.1.3,61.125105378456055,
block_end,scrambled,scrambled081.bmp,,,,,0,227,227,227,,,,,,,,,,,,,,,,,,,,,,,,,,,,,,,,,,,,,,,,,,None,,786.5484861800912,None,786.5484861800912,None,2022-07-08-13:29:46.367136,786.5603006000165,786.8715768000111,786.5603006000165,786.5603006000165,None,786.5603006000165,786.5603006000165,787.3674671800807,None,,,,21005,0002,2022_Jul_08_1316,localizer,2021.1.3,61.125105378456055,
null_block,null_block,null_block.bmp,,,,,0,228,228,228,,,,,,,,,,,,,,,,,,,,,,,,,,,,,,,,,,,,,,,,,,t,3.8016156000085175,787.3674629000016,None,787.3674629000016,None,2022-07-08-13:29:51.015056,791.1984866801183,None,791.1984866801183,None,None,791.1984866801183,None,791.2015144999605,None,,,,21005,0002,2022_Jul_08_1316,localizer,2021.1.3,61.125105378456055,
block_start,faces,faces038.bmp,,,,,0,229,229,229,,,,,,,,,,,,,,,,,,,,,,,,,,,,,,,,,,,,,,,,,,t,1.9540410998743027,803.2151761001442,None,803.2151761001442,None,2022-07-08-13:30:05.015834,805.2164753000252,805.5318875000812,805.2164753000252,None,None,805.2164753000252,None,806.0155235800892,None,,,,21005,0002,2022_Jul_08_1316,localizer,2021.1.3,61.125105378456055,
block,faces,faces066.bmp,,,,,0,230,230,230,,,,,,,,,,,,,,,,,,,,,,,,,,,,,,,,,,,,,,,,,,None,,806.0155235800892,None,806.0155235800892,None,2022-07-08-13:30:05.833040,806.0286692001391,806.3326316999737,806.0286692001391,None,None,806.0286692001391,None,806.8316357801202,None,,,,21005,0002,2022_Jul_08_1316,localizer,2021.1.3,61.125105378456055,
block,faces,faces031.bmp,,,,,0,231,231,231,,,,,,,,,,,,,,,,,,,,,,,,,,,,,,,,,,,,,,,,,,None,,806.8316357801202,None,806.8316357801202,None,2022-07-08-13:30:06.648211,806.8328287000768,807.1384550000075,806.8328287000768,None,None,806.8328287000768,None,807.6483097800053,None,,,,21005,0002,2022_Jul_08_1316,localizer,2021.1.3,61.125105378456055,
block,faces,faces006.bmp,,,,,0,232,232,232,,,,,,,,,,,,,,,,,,,,,,,,,,,,,,,,,,,,,,,,,,None,,807.6483097800053,None,807.6483097800053,None,2022-07-08-13:30:07.464884,807.6493504000828,807.9486865999643,807.6493504000828,None,None,807.6493504000828,None,808.4483907799702,None,,,,21005,0002,2022_Jul_08_1316,localizer,2021.1.3,61.125105378456055,
block,faces,faces059.bmp,,,,,0,233,233,233,,,,,,,,,,,,,,,,,,,,,,,,,,,,,,,,,,,,,,,,,,None,,808.4483907799702,None,808.4483907799702,None,2022-07-08-13:30:08.265962,808.4493548001628,808.7654465001542,808.4493548001628,808.4493548001628,None,808.4493548001628,808.4493548001628,809.2486509801354,None,,,,21005,0002,2022_Jul_08_1316,localizer,2021.1.3,61.125105378456055,
block,faces,faces041.bmp,,,,,0,234,234,234,,,,,,,,,,,,,,,,,,,,,,,,,,,,,,,,,,,,,,,,,,None,,809.2486509801354,None,809.2486509801354,None,2022-07-08-13:30:09.068432,809.2518742999528,809.5654382000212,809.2518742999528,809.2518742999528,None,809.2518742999528,809.2518742999528,810.0690658799838,None,,,,21005,0002,2022_Jul_08_1316,localizer,2021.1.3,61.125105378456055,
block,faces,faces046.bmp,,,,,0,235,235,235,,,,,,,,,,,,,,,,,,,,,,,,,,,,,,,,,,,,,,,,,,None,,810.0690658799838,None,810.0690658799838,None,2022-07-08-13:30:09.895570,810.093012599973,810.3986466999631,810.093012599973,None,None,810.093012599973,None,810.8816065799444,None,,,,21005,0002,2022_Jul_08_1316,localizer,2021.1.3,61.125105378456055,
block,faces,faces052.bmp,,,,,0,236,236,236,,,,,,,,,,,,,,,,,,,,,,,,,,,,,,,,,,,,,,,,,,None,,810.8816065799444,None,810.8816065799444,None,2022-07-08-13:30:10.698180,810.8828001001384,811.1986047001556,810.8828001001384,None,None,810.8828001001384,None,811.6837322799954,None,,,,21005,0002,2022_Jul_08_1316,localizer,2021.1.3,61.125105378456055,
block,faces,faces071.bmp,,,,,0,237,237,237,,,,,,,,,,,,,,,,,,,,,,,,,,,,,,,,,,,,,,,,,,None,,811.6837322799954,None,811.6837322799954,None,2022-07-08-13:30:11.502295,811.6923615001142,811.9986690001097,811.6923615001142,811.6923615001142,None,811.6923615001142,811.6923615001142,812.4992788801435,None,,,,21005,0002,2022_Jul_08_1316,localizer,2021.1.3,61.125105378456055,
block,faces,faces049.bmp,,,,,0,238,238,238,,,,,,,,,,,,,,,,,,,,,,,,,,,,,,,,,,,,,,,,,,None,,812.4992788801435,None,812.4992788801435,None,2022-07-08-13:30:12.317618,812.5027094001416,812.815203800099,812.5027094001416,None,None,812.5027094001416,None,813.3147976800799,None,,,,21005,0002,2022_Jul_08_1316,localizer,2021.1.3,61.125105378456055,
block,faces,faces018.bmp,,,,,0,239,239,239,,,,,,,,,,,,,,,,,,,,,,,,,,,,,,,,,,,,,,,,,,None,,813.3147976800799,None,813.3147976800799,None,2022-07-08-13:30:13.129994,813.317026300123,813.6157722000498,813.317026300123,None,None,813.317026300123,None,814.1318583799991,None,,,,21005,0002,2022_Jul_08_1316,localizer,2021.1.3,61.125105378456055,
block,faces,faces065.bmp,,,,,0,240,240,240,,,,,,,,,,,,,,,,,,,,,,,,,,,,,,,,,,,,,,,,,,None,,814.1318583799991,None,814.1318583799991,None,2022-07-08-13:30:13.948432,814.1327206001151,814.4483374999836,814.1327206001151,None,None,814.1327206001151,None,814.9318587800487,None,,,,21005,0002,2022_Jul_08_1316,localizer,2021.1.3,61.125105378456055,
block,faces,faces072.bmp,,,,,0,241,241,241,,,,,,,,,,,,,,,,,,,,,,,,,,,,,,,,,,,,,,,,,,None,,814.9318587800487,None,814.9318587800487,None,2022-07-08-13:30:14.750423,814.9457407000009,815.248407700099,814.9457407000009,814.9457407000009,None,814.9457407000009,814.9457407000009,815.7481345801614,None,,,,21005,0002,2022_Jul_08_1316,localizer,2021.1.3,61.125105378456055,
block,faces,faces035.bmp,,,,,0,242,242,242,,,,,,,,,,,,,,,,,,,,,,,,,,,,,,,,,,,,,,,,,,None,,815.7481345801614,None,815.7481345801614,None,2022-07-08-13:30:15.564710,815.749579400057,816.0652722001541,815.749579400057,None,None,815.749579400057,None,816.5648431800771,None,,,,21005,0002,2022_Jul_08_1316,localizer,2021.1.3,61.125105378456055,
block_end,faces,faces045.bmp,,,,,0,243,243,243,,,,,,,,,,,,,,,,,,,,,,,,,,,,,,,,,,,,,,,,,,None,,816.5648431800771,None,816.5648431800771,None,2022-07-08-13:30:16.381417,816.5662006000057,816.8815803001635,816.5662006000057,None,None,816.5662006000057,None,817.381794579979,None,,,,21005,0002,2022_Jul_08_1316,localizer,2021.1.3,61.125105378456055,
,,,,,,,,,,,,,,,,,,,,,,,,,,,,,,,,,,,,,,,,,,,,,,,,,,,,,,,,,,,,,,,,,,,,,817.3819301000331,None,,,,,,,
