block_type,condition,img_name,Button.thisRepN,Button.thisTrialN,Button.thisN,Button.thisIndex,trials.thisRepN,trials.thisTrialN,trials.thisN,trials.thisIndex,Ready_experimenter_text.started,Ready_experimenter_text.stopped,Ready_experimenter_resp.keys,Ready_experimenter_resp.rt,Ready_experimenter_resp.started,Ready_experimenter_resp.stopped,Alignment_background.started,Alignment_background.stopped,Alignment_image.started,Alignment_image.stopped,Alignment_resp.keys,Alignment_resp.rt,Alignment_resp.started,Alignment_resp.stopped,Button_text.started,Button_text.stopped,Index_text.started,Index_text.stopped,Index_resp.keys,Index_resp.rt,Index_resp.started,Index_resp.stopped,Middle_text.started,Middle_text.stopped,Middle_resp.keys,Middle_resp.rt,Middle_resp.started,Middle_resp.stopped,Repeat_text.started,Repeat_text.stopped,Repeat_resp.keys,Repeat_resp.corr,Repeat_resp.rt,Repeat_resp.started,Repeat_resp.stopped,instruction_text.started,instruction_text.stopped,key_resp.keys,key_resp.rt,key_resp.started,key_resp.stopped,scanner_t.keys,scanner_t.rt,scanner_t.started,scanner_t.stopped,fixation_wait_for_t.started,fixation_wait_for_t.stopped,real_timestamp_trial_start,image.started,image.stopped,fixation.started,fixation.stopped,repeat_response.keys,repeat_response.started,repeat_response.stopped,fixation_null.started,fixation_null.stopped,repeat_response.rt,end_text.started,end_text.stopped,participant,run,date,expName,psychopyVersion,frameRate,
,,,,,,,,,,,8.066307300003245,None,return,0.6399882000114303,8.066307300003245,None,,,,,,,,,,,,,,,,,,,,,,,,,,,,,,,,,,,,,,,,,,,,,,,,,,,,,,,22051,0001,2023_Mar_22_1259,localizer,2021.1.3,60.061502982394735,
,,,,,,,,,,,,,,,,,8.74816380001721,None,8.74816380001721,None,return,1.2429207999957725,8.74816380001721,None,,,,,,,,,,,,,,,,,,,,,,,,,,,,,,,,,,,,,,,,,,,,,,,22051,0001,2023_Mar_22_1259,localizer,2021.1.3,60.061502982394735,
,,,0,0,0,0,,,,,,,,,,,,,,,,,,,10.008706100023119,None,11.007644800003618,None,y,1.596817200013902,11.007644800003618,None,12.624872800020967,None,b,1.5203200000105426,12.624872800020967,None,14.174402800010284,None,n,0,1.2972231000021566,14.174402800010284,None,,,,,,,,,,,,,,,,,,,,,,,,,,22051,0001,2023_Mar_22_1259,localizer,2021.1.3,60.061502982394735,
,,,,,,,,,,,,,,,,,,,,,,,,,,,,,,,,,,,,,,,,,,,,,,15.491758700023638,None,y,7.752628600021126,15.491758700023638,None,,,,,,,,,,,,,,,,,,,,22051,0001,2023_Mar_22_1259,localizer,2021.1.3,60.061502982394735,
null_block,null_block,null_block.bmp,,,,,0,0,0,0,,,,,,,,,,,,,,,,,,,,,,,,,,,,,,,,,,,,,,,,,,t,15.15663849998964,23.338697400002275,None,23.338697400002275,None,2023-03-22-13:00:13.444125,38.542187299998474,None,38.542187299998474,None,None,38.542187299998474,None,38.540381400001934,None,,,,22051,0001,2023_Mar_22_1259,localizer,2021.1.3,60.061502982394735,
block_start,objects,objects082.bmp,,,,,0,1,1,1,,,,,,,,,,,,,,,,,,,,,,,,,,,,,,,,,,,,,,,,,,t,1.953789399995003,50.541733300022315,None,50.541733300022315,None,2023-03-22-13:00:27.447566,52.5383109000104,52.84261190000689,52.5383109000104,None,None,52.5383109000104,None,53.342167050015995,None,,,,22051,0001,2023_Mar_22_1259,localizer,2021.1.3,60.061502982394735,
block,objects,objects029.bmp,,,,,0,2,2,2,,,,,,,,,,,,,,,,,,,,,,,,,,,,,,,,,,,,,,,,,,None,,53.342167050015995,None,53.342167050015995,None,2023-03-22-13:00:28.263176,53.35268750000978,53.658939400018426,53.35268750000978,None,None,53.35268750000978,None,54.159071549997314,None,,,,22051,0001,2023_Mar_22_1259,localizer,2021.1.3,60.061502982394735,
block,objects,objects071.bmp,,,,,0,3,3,3,,,,,,,,,,,,,,,,,,,,,,,,,,,,,,,,,,,,,,,,,,None,,54.159071549997314,None,54.159071549997314,None,2023-03-22-13:00:29.079836,54.170137900015106,54.47512790001929,54.170137900015106,None,None,54.170137900015106,None,54.97522735001112,None,,,,22051,0001,2023_Mar_22_1259,localizer,2021.1.3,60.061502982394735,
block,objects,objects045.bmp,,,,,0,4,4,4,,,,,,,,,,,,,,,,,,,,,,,,,,,,,,,,,,,,,,,,,,None,,54.97522735001112,None,54.97522735001112,None,2023-03-22-13:00:29.895071,54.98544420002145,55.291811300005065,54.98544420002145,None,None,54.98544420002145,None,55.79210365001054,None,,,,22051,0001,2023_Mar_22_1259,localizer,2021.1.3,60.061502982394735,
block,objects,objects037.bmp,,,,,0,5,5,5,,,,,,,,,,,,,,,,,,,,,,,,,,,,,,,,,,,,,,,,,,None,,55.79210365001054,None,55.79210365001054,None,2023-03-22-13:00:30.712968,55.80253919999814,56.10865810001269,55.80253919999814,None,None,55.80253919999814,None,56.608666850012376,None,,,,22051,0001,2023_Mar_22_1259,localizer,2021.1.3,60.061502982394735,
block,objects,objects020.bmp,,,,,0,6,6,6,,,,,,,,,,,,,,,,,,,,,,,,,,,,,,,,,,,,,,,,,,None,,56.608666850012376,None,56.608666850012376,None,2023-03-22-13:00:31.528558,56.61773379999795,56.925823199999286,56.61773379999795,None,None,56.61773379999795,None,57.42569685001799,None,,,,22051,0001,2023_Mar_22_1259,localizer,2021.1.3,60.061502982394735,
block,objects,objects050.bmp,,,,,0,7,7,7,,,,,,,,,,,,,,,,,,,,,,,,,,,,,,,,,,,,,,,,,,None,,57.42569685001799,None,57.42569685001799,None,2023-03-22-13:00:32.346598,57.43734040000709,57.74189880001359,57.43734040000709,None,None,57.43734040000709,None,58.24229035001772,None,,,,22051,0001,2023_Mar_22_1259,localizer,2021.1.3,60.061502982394735,
block,objects,objects080.bmp,,,,,0,8,8,8,,,,,,,,,,,,,,,,,,,,,,,,,,,,,,,,,,,,,,,,,,None,,58.24229035001772,None,58.24229035001772,None,2023-03-22-13:00:33.163263,58.252692300011404,58.558573100017384,58.252692300011404,None,None,58.252692300011404,None,59.05874175001227,None,,,,22051,0001,2023_Mar_22_1259,localizer,2021.1.3,60.061502982394735,
block,objects,objects010.bmp,,,,,0,9,9,9,,,,,,,,,,,,,,,,,,,,,,,,,,,,,,,,,,,,,,,,,,None,,59.05874175001227,None,59.05874175001227,None,2023-03-22-13:00:33.978693,59.06871439999668,59.38166340001044,59.06871439999668,None,None,59.06871439999668,None,59.875632650006445,None,,,,22051,0001,2023_Mar_22_1259,localizer,2021.1.3,60.061502982394735,
block,objects,objects064.bmp,,,,,0,10,10,10,,,,,,,,,,,,,,,,,,,,,,,,,,,,,,,,,,,,,,,,,,None,,59.875632650006445,None,59.875632650006445,None,2023-03-22-13:00:34.796691,59.88666610000655,60.191534600016894,59.88666610000655,None,None,59.88666610000655,None,60.69241445001389,None,,,,22051,0001,2023_Mar_22_1259,localizer,2021.1.3,60.061502982394735,
block,objects,objects019.bmp,,,,,0,11,11,11,,,,,,,,,,,,,,,,,,,,,,,,,,,,,,,,,,,,,,,,,,None,,60.69241445001389,None,60.69241445001389,None,2023-03-22-13:00:35.613401,60.701786500023445,61.00854860001709,60.701786500023445,None,None,60.701786500023445,None,61.508964049999484,None,,,,22051,0001,2023_Mar_22_1259,localizer,2021.1.3,60.061502982394735,
block,objects,objects028.bmp,,,,,0,12,12,12,,,,,,,,,,,,,,,,,,,,,,,,,,,,,,,,,,,,,,,,,,None,,61.508964049999484,None,61.508964049999484,None,2023-03-22-13:00:36.430051,61.521283000009134,61.82594640000025,61.521283000009134,None,None,61.521283000009134,None,62.325479150013415,None,,,,22051,0001,2023_Mar_22_1259,localizer,2021.1.3,60.061502982394735,
block,objects,objects039.bmp,,,,,0,13,13,13,,,,,,,,,,,,,,,,,,,,,,,,,,,,,,,,,,,,,,,,,,None,,62.325479150013415,None,62.325479150013415,None,2023-03-22-13:00:37.246406,62.335798300016904,62.642379199998686,62.335798300016904,None,None,62.335798300016904,None,63.14263095001515,None,,,,22051,0001,2023_Mar_22_1259,localizer,2021.1.3,60.061502982394735,
block,objects,objects054.bmp,,,,,0,14,14,14,,,,,,,,,,,,,,,,,,,,,,,,,,,,,,,,,,,,,,,,,,None,,63.14263095001515,None,63.14263095001515,None,2023-03-22-13:00:38.063676,63.15445900001214,63.45850979999523,63.15445900001214,None,None,63.15445900001214,None,63.958711950012365,None,,,,22051,0001,2023_Mar_22_1259,localizer,2021.1.3,60.061502982394735,
block_end,objects,objects036.bmp,,,,,0,15,15,15,,,,,,,,,,,,,,,,,,,,,,,,,,,,,,,,,,,,,,,,,,None,,63.958711950012365,None,63.958711950012365,None,2023-03-22-13:00:38.879855,63.96903700000257,64.275266200013,63.96903700000257,None,None,63.96903700000257,None,64.77526015001641,None,,,,22051,0001,2023_Mar_22_1259,localizer,2021.1.3,60.061502982394735,
block_start,faces,faces036.bmp,,,,,0,16,16,16,,,,,,,,,,,,,,,,,,,,,,,,,,,,,,,,,,,,,,,,,,t,1.7202980000001844,64.7752993000031,None,64.7752993000031,None,2023-03-22-13:00:41.445845,66.53524570001173,66.84181969999918,66.53524570001173,None,None,66.53524570001173,None,67.34241735000106,None,,,,22051,0001,2023_Mar_22_1259,localizer,2021.1.3,60.061502982394735,
block,faces,faces085.bmp,,,,,0,17,17,17,,,,,,,,,,,,,,,,,,,,,,,,,,,,,,,,,,,,,,,,,,None,,67.34241735000106,None,67.34241735000106,None,2023-03-22-13:00:42.263581,67.35306010002387,67.6591260000132,67.35306010002387,None,None,67.35306010002387,None,68.15928595000005,None,,,,22051,0001,2023_Mar_22_1259,localizer,2021.1.3,60.061502982394735,
block,faces,faces024.bmp,,,,,0,18,18,18,,,,,,,,,,,,,,,,,,,,,,,,,,,,,,,,,,,,,,,,,,None,,68.15928595000005,None,68.15928595000005,None,2023-03-22-13:00:43.080690,68.1718486000027,68.47516729999916,68.1718486000027,None,None,68.1718486000027,None,68.9761510500015,None,,,,22051,0001,2023_Mar_22_1259,localizer,2021.1.3,60.061502982394735,
block,faces,faces080.bmp,,,,,0,19,19,19,,,,,,,,,,,,,,,,,,,,,,,,,,,,,,,,,,,,,,,,,,None,,68.9761510500015,None,68.9761510500015,None,2023-03-22-13:00:43.897332,68.99031600001035,69.29207950001,68.99031600001035,None,None,68.99031600001035,None,69.79225245000853,None,,,,22051,0001,2023_Mar_22_1259,localizer,2021.1.3,60.061502982394735,
block,faces,faces065.bmp,,,,,0,20,20,20,,,,,,,,,,,,,,,,,,,,,,,,,,,,,,,,,,,,,,,,,,None,,69.79225245000853,None,69.79225245000853,None,2023-03-22-13:00:44.713482,69.81065520000993,70.12545039999532,69.81065520000993,None,None,69.81065520000993,None,70.60875125001476,None,,,,22051,0001,2023_Mar_22_1259,localizer,2021.1.3,60.061502982394735,
block,faces,faces010.bmp,,,,,0,21,21,21,,,,,,,,,,,,,,,,,,,,,,,,,,,,,,,,,,,,,,,,,,None,,70.60875125001476,None,70.60875125001476,None,2023-03-22-13:00:45.528533,70.61636380001437,70.92512090000673,70.61636380001437,None,None,70.61636380001437,None,71.42553835000436,None,,,,22051,0001,2023_Mar_22_1259,localizer,2021.1.3,60.061502982394735,
block,faces,faces006.bmp,,,,,0,22,22,22,,,,,,,,,,,,,,,,,,,,,,,,,,,,,,,,,,,,,,,,,,None,,71.42553835000436,None,71.42553835000436,None,2023-03-22-13:00:46.346810,71.43360910000047,71.74195820000023,71.43360910000047,None,None,71.43360910000047,None,72.24258415001387,None,,,,22051,0001,2023_Mar_22_1259,localizer,2021.1.3,60.061502982394735,
block,faces,faces047.bmp,,,,,0,23,23,23,,,,,,,,,,,,,,,,,,,,,,,,,,,,,,,,,,,,,,,,,,None,,72.24258415001387,None,72.24258415001387,None,2023-03-22-13:00:47.163823,72.25921580000431,72.55860970000504,72.25921580000431,None,None,72.25921580000431,None,73.05964534999512,None,,,,22051,0001,2023_Mar_22_1259,localizer,2021.1.3,60.061502982394735,
block,faces,faces055.bmp,,,,,0,24,24,24,,,,,,,,,,,,,,,,,,,,,,,,,,,,,,,,,,,,,,,,,,None,,73.05964534999512,None,73.05964534999512,None,2023-03-22-13:00:47.980931,73.06966999999713,73.37546530002146,73.06966999999713,None,None,73.06966999999713,None,73.87585665002408,None,,,,22051,0001,2023_Mar_22_1259,localizer,2021.1.3,60.061502982394735,
block,faces,faces075.bmp,,,,,0,25,25,25,,,,,,,,,,,,,,,,,,,,,,,,,,,,,,,,,,,,,,,,,,None,,73.87585665002408,None,73.87585665002408,None,2023-03-22-13:00:48.797382,73.88762090000091,74.19238550000591,73.88762090000091,None,None,73.88762090000091,None,74.69212385001302,None,,,,22051,0001,2023_Mar_22_1259,localizer,2021.1.3,60.061502982394735,
block,faces,faces066.bmp,,,,,0,26,26,26,,,,,,,,,,,,,,,,,,,,,,,,,,,,,,,,,,,,,,,,,,None,,74.69212385001302,None,74.69212385001302,None,2023-03-22-13:00:49.612506,74.70184059999883,75.00869750001584,74.70184059999883,None,None,74.70184059999883,None,75.50902165000153,None,,,,22051,0001,2023_Mar_22_1259,localizer,2021.1.3,60.061502982394735,
block,faces,faces030.bmp,,,,,0,27,27,27,,,,,,,,,,,,,,,,,,,,,,,,,,,,,,,,,,,,,,,,,,None,,75.50902165000153,None,75.50902165000153,None,2023-03-22-13:00:50.429405,75.52032500001951,75.82563999999547,75.52032500001951,None,None,75.52032500001951,None,76.32595135000011,None,,,,22051,0001,2023_Mar_22_1259,localizer,2021.1.3,60.061502982394735,
block,faces,faces078.bmp,,,,,0,28,28,28,,,,,,,,,,,,,,,,,,,,,,,,,,,,,,,,,,,,,,,,,,None,,76.32595135000011,None,76.32595135000011,None,2023-03-22-13:00:51.247637,76.33787930000108,76.64200600000913,76.33787930000108,None,None,76.33787930000108,None,77.14296235000657,None,,,,22051,0001,2023_Mar_22_1259,localizer,2021.1.3,60.061502982394735,
block,faces,faces070.bmp,,,,,0,29,29,29,,,,,,,,,,,,,,,,,,,,,,,,,,,,,,,,,,,,,,,,,,None,,77.14296235000657,None,77.14296235000657,None,2023-03-22-13:00:52.064560,77.15623819999746,77.45866490001208,77.15623819999746,None,None,77.15623819999746,None,77.95980505001208,None,,,,22051,0001,2023_Mar_22_1259,localizer,2021.1.3,60.061502982394735,
block_end,faces,faces044.bmp,,,,,0,30,30,30,,,,,,,,,,,,,,,,,,,,,,,,,,,,,,,,,,,,,,,,,,None,,77.95980505001208,None,77.95980505001208,None,2023-03-22-13:00:52.881233,77.97341440001037,78.27534940000623,77.97341440001037,None,None,77.97341440001037,None,78.7758769499982,None,,,,22051,0001,2023_Mar_22_1259,localizer,2021.1.3,60.061502982394735,
block_start,scrambled,scrambled032.bmp,,,,,0,31,31,31,,,,,,,,,,,,,,,,,,,,,,,,,,,,,,,,,,,,,,,,,,t,1.7198147999879438,78.7756120999984,None,78.7756120999984,None,2023-03-22-13:00:55.444545,80.53399080000236,80.842252500006,80.53399080000236,None,None,80.53399080000236,None,81.34334015001369,None,,,,22051,0001,2023_Mar_22_1259,localizer,2021.1.3,60.061502982394735,
block,scrambled,scrambled005.bmp,,,,,0,32,32,32,,,,,,,,,,,,,,,,,,,,,,,,,,,,,,,,,,,,,,,,,,None,,81.34334015001369,None,81.34334015001369,None,2023-03-22-13:00:56.265838,81.3565497000236,81.65893309999956,81.3565497000236,None,None,81.3565497000236,None,82.15903075000679,None,,,,22051,0001,2023_Mar_22_1259,localizer,2021.1.3,60.061502982394735,
block,scrambled,scrambled047.bmp,,,,,0,33,33,33,,,,,,,,,,,,,,,,,,,,,,,,,,,,,,,,,,,,,,,,,,None,,82.15903075000679,None,82.15903075000679,None,2023-03-22-13:00:57.080554,82.16969579999568,82.47526910001761,82.16969579999568,None,None,82.16969579999568,None,82.97556085001852,None,,,,22051,0001,2023_Mar_22_1259,localizer,2021.1.3,60.061502982394735,
block,scrambled,scrambled064.bmp,,,,,0,34,34,34,,,,,,,,,,,,,,,,,,,,,,,,,,,,,,,,,,,,,,,,,,None,,82.97556085001852,None,82.97556085001852,None,2023-03-22-13:00:57.897376,82.98577389999991,83.29183770000236,82.98577389999991,None,None,82.98577389999991,None,83.79287155000785,None,,,,22051,0001,2023_Mar_22_1259,localizer,2021.1.3,60.061502982394735,
block,scrambled,scrambled074.bmp,,,,,0,35,35,35,,,,,,,,,,,,,,,,,,,,,,,,,,,,,,,,,,,,,,,,,,None,,83.79287155000785,None,83.79287155000785,None,2023-03-22-13:00:58.715555,83.80740640001022,84.1088609000144,83.80740640001022,None,None,83.80740640001022,None,84.61006155000942,None,,,,22051,0001,2023_Mar_22_1259,localizer,2021.1.3,60.061502982394735,
block,scrambled,scrambled044.bmp,,,,,0,36,36,36,,,,,,,,,,,,,,,,,,,,,,,,,,,,,,,,,,,,,,,,,,None,,84.61006155000942,None,84.61006155000942,None,2023-03-22-13:00:59.532843,84.6232280000113,84.92566730000544,84.6232280000113,None,None,84.6232280000113,None,85.42626945001248,None,,,,22051,0001,2023_Mar_22_1259,localizer,2021.1.3,60.061502982394735,
block,scrambled,scrambled061.bmp,,,,,0,37,37,37,,,,,,,,,,,,,,,,,,,,,,,,,,,,,,,,,,,,,,,,,,None,,85.42626945001248,None,85.42626945001248,None,2023-03-22-13:01:00.348090,85.43895569999586,85.7418897000025,85.43895569999586,None,None,85.43895569999586,None,86.24225275002246,None,,,,22051,0001,2023_Mar_22_1259,localizer,2021.1.3,60.061502982394735,
block,scrambled,scrambled035.bmp,,,,,0,38,38,38,,,,,,,,,,,,,,,,,,,,,,,,,,,,,,,,,,,,,,,,,,None,,86.24225275002246,None,86.24225275002246,None,2023-03-22-13:01:01.163913,86.2532416000031,86.5585508000222,86.2532416000031,None,None,86.2532416000031,None,87.05886604999833,None,,,,22051,0001,2023_Mar_22_1259,localizer,2021.1.3,60.061502982394735,
block,scrambled,scrambled011.bmp,,,,,0,39,39,39,,,,,,,,,,,,,,,,,,,,,,,,,,,,,,,,,,,,,,,,,,None,,87.05886604999833,None,87.05886604999833,None,2023-03-22-13:01:01.979692,87.06879829999525,87.37520190002397,87.06879829999525,None,None,87.06879829999525,None,87.87522365000623,None,,,,22051,0001,2023_Mar_22_1259,localizer,2021.1.3,60.061502982394735,
block,scrambled,scrambled056.bmp,,,,,0,40,40,40,,,,,,,,,,,,,,,,,,,,,,,,,,,,,,,,,,,,,,,,,,None,,87.87522365000623,None,87.87522365000623,None,2023-03-22-13:01:02.796094,87.88565320000635,88.19183170000906,87.88565320000635,None,None,87.88565320000635,None,88.69231955001888,None,,,,22051,0001,2023_Mar_22_1259,localizer,2021.1.3,60.061502982394735,
block,scrambled,scrambled033.bmp,,,,,0,41,41,41,,,,,,,,,,,,,,,,,,,,,,,,,,,,,,,,,,,,,,,,,,None,,88.69231955001888,None,88.69231955001888,None,2023-03-22-13:01:03.614042,88.70266430001357,89.00938440000755,88.70266430001357,None,None,88.70266430001357,None,89.50951295001724,None,,,,22051,0001,2023_Mar_22_1259,localizer,2021.1.3,60.061502982394735,
block,scrambled,scrambled082.bmp,,,,,0,42,42,42,,,,,,,,,,,,,,,,,,,,,,,,,,,,,,,,,,,,,,,,,,None,,89.50951295001724,None,89.50951295001724,None,2023-03-22-13:01:04.431753,89.51862099999562,89.82529820001218,89.51862099999562,None,None,89.51862099999562,None,90.32620704999718,None,,,,22051,0001,2023_Mar_22_1259,localizer,2021.1.3,60.061502982394735,
block,scrambled,scrambled042.bmp,,,,,0,43,43,43,,,,,,,,,,,,,,,,,,,,,,,,,,,,,,,,,,,,,,,,,,None,,90.32620704999718,None,90.32620704999718,None,2023-03-22-13:01:05.248163,90.33882460001041,90.64186329999939,90.33882460001041,None,None,90.33882460001041,None,91.14285235001299,None,,,,22051,0001,2023_Mar_22_1259,localizer,2021.1.3,60.061502982394735,
block,scrambled,scrambled071.bmp,,,,,0,44,44,44,,,,,,,,,,,,,,,,,,,,,,,,,,,,,,,,,,,,,,,,,,None,,91.14285235001299,None,91.14285235001299,None,2023-03-22-13:01:06.064821,91.1544966000074,91.45852380001452,91.1544966000074,None,None,91.1544966000074,None,91.9587571500073,None,,,,22051,0001,2023_Mar_22_1259,localizer,2021.1.3,60.061502982394735,
block_end,scrambled,scrambled025.bmp,,,,,0,45,45,45,,,,,,,,,,,,,,,,,,,,,,,,,,,,,,,,,,,,,,,,,,None,,91.9587571500073,None,91.9587571500073,None,2023-03-22-13:01:06.879789,91.96892590000061,92.27521370002069,91.96892590000061,None,None,91.96892590000061,None,92.77527015000524,None,,,,22051,0001,2023_Mar_22_1259,localizer,2021.1.3,60.061502982394735,
block_start,scenes,scenes048.bmp,,,,,0,46,46,46,,,,,,,,,,,,,,,,,,,,,,,,,,,,,,,,,,,,,,,,,,t,1.7202457999810576,92.77514880002127,None,92.77514880002127,None,2023-03-22-13:01:09.445175,94.53916590000154,94.84176760000992,94.53916590000154,None,None,94.53916590000154,None,95.3421745500149,None,,,,22051,0001,2023_Mar_22_1259,localizer,2021.1.3,60.061502982394735,
block,scenes,scenes088.bmp,,,,,0,47,47,47,,,,,,,,,,,,,,,,,,,,,,,,,,,,,,,,,,,,,,,,,,None,,95.3421745500149,None,95.3421745500149,None,2023-03-22-13:01:10.264076,95.35266770000453,95.65877820001333,95.35266770000453,None,None,95.35266770000453,None,96.15900945001923,None,,,,22051,0001,2023_Mar_22_1259,localizer,2021.1.3,60.061502982394735,
block,scenes,scenes047.bmp,,,,,0,48,48,48,,,,,,,,,,,,,,,,,,,,,,,,,,,,,,,,,,,,,,,,,,None,,96.15900945001923,None,96.15900945001923,None,2023-03-22-13:01:11.079934,96.16569029999664,96.47553900000639,96.16569029999664,None,None,96.16569029999664,None,96.97563965000737,None,,,,22051,0001,2023_Mar_22_1259,localizer,2021.1.3,60.061502982394735,
block,scenes,scenes042.bmp,,,,,0,49,49,49,,,,,,,,,,,,,,,,,,,,,,,,,,,,,,,,,,,,,,,,,,None,,96.97563965000737,None,96.97563965000737,None,2023-03-22-13:01:11.897807,96.98645660001785,97.29250300000422,96.98645660001785,None,None,96.98645660001785,None,97.7932724500046,None,,,,22051,0001,2023_Mar_22_1259,localizer,2021.1.3,60.061502982394735,
block,scenes,scenes089.bmp,,,,,0,50,50,50,,,,,,,,,,,,,,,,,,,,,,,,,,,,,,,,,,,,,,,,,,None,,97.7932724500046,None,97.7932724500046,None,2023-03-22-13:01:12.715420,97.80573140000342,98.10828460002085,97.80573140000342,None,None,97.80573140000342,None,98.6086264499958,None,,,,22051,0001,2023_Mar_22_1259,localizer,2021.1.3,60.061502982394735,
block,scenes,scenes009.bmp,,,,,0,51,51,51,,,,,,,,,,,,,,,,,,,,,,,,,,,,,,,,,,,,,,,,,,None,,98.6086264499958,None,98.6086264499958,None,2023-03-22-13:01:13.529372,98.61940740002319,98.92540940002073,98.61940740002319,None,None,98.61940740002319,None,99.42795105001133,None,,,,22051,0001,2023_Mar_22_1259,localizer,2021.1.3,60.061502982394735,
block,scenes,scenes080.bmp,,,,,0,52,52,52,,,,,,,,,,,,,,,,,,,,,,,,,,,,,,,,,,,,,,,,,,None,,99.42795105001133,None,99.42795105001133,None,2023-03-22-13:01:14.353100,99.44146460000775,99.74280140001792,99.44146460000775,None,None,99.44146460000775,None,100.2422725499986,None,,,,22051,0001,2023_Mar_22_1259,localizer,2021.1.3,60.061502982394735,
block,scenes,scenes054.bmp,,,,,0,53,53,53,,,,,,,,,,,,,,,,,,,,,,,,,,,,,,,,,,,,,,,,,,None,,100.2422725499986,None,100.2422725499986,None,2023-03-22-13:01:15.164300,100.25080090001575,100.55884460001835,100.25080090001575,None,None,100.25080090001575,None,101.05897855001095,None,,,,22051,0001,2023_Mar_22_1259,localizer,2021.1.3,60.061502982394735,
block,scenes,scenes068.bmp,,,,,0,54,54,54,,,,,,,,,,,,,,,,,,,,,,,,,,,,,,,,,,,,,,,,,,None,,101.05897855001095,None,101.05897855001095,None,2023-03-22-13:01:15.981029,101.06974130001618,101.38151000000653,101.06974130001618,None,None,101.06974130001618,None,101.87574115001772,None,,,,22051,0001,2023_Mar_22_1259,localizer,2021.1.3,60.061502982394735,
block,scenes,scenes033.bmp,,,,,0,55,55,55,,,,,,,,,,,,,,,,,,,,,,,,,,,,,,,,,,,,,,,,,,None,,101.87574115001772,None,101.87574115001772,None,2023-03-22-13:01:16.797814,101.88332610001089,102.19264680001652,101.88332610001089,None,None,101.88332610001089,None,102.6922778500215,None,,,,22051,0001,2023_Mar_22_1259,localizer,2021.1.3,60.061502982394735,
block,scenes,scenes011.bmp,,,,,0,56,56,56,,,,,,,,,,,,,,,,,,,,,,,,,,,,,,,,,,,,,,,,,,None,,102.6922778500215,None,102.6922778500215,None,2023-03-22-13:01:17.613308,102.70223029999761,103.00880619999953,102.70223029999761,None,None,102.70223029999761,None,103.50909965001338,None,,,,22051,0001,2023_Mar_22_1259,localizer,2021.1.3,60.061502982394735,
block,scenes,scenes011.bmp,,,,,0,57,57,57,,,,,,,,,,,,,,,,,,,,,,,,,,,,,,,,,,,,,,,,,,None,,103.50909965001338,None,103.50909965001338,None,2023-03-22-13:01:18.431435,103.51026700000511,103.80917370002135,103.51026700000511,None,y,103.51026700000511,None,104.3094394499989,None,0.7288549999939278,,,22051,0001,2023_Mar_22_1259,localizer,2021.1.3,60.061502982394735,
block,scenes,scenes061.bmp,,,,,0,58,58,58,,,,,,,,,,,,,,,,,,,,,,,,,,,,,,,,,,,,,,,,,,None,,104.3094394499989,None,104.3094394499989,None,2023-03-22-13:01:19.232671,104.32295430000522,104.62585959999706,104.32295430000522,104.32295430000522,None,104.32295430000522,104.32295430000522,105.12786635001831,None,,,,22051,0001,2023_Mar_22_1259,localizer,2021.1.3,60.061502982394735,
block,scenes,scenes040.bmp,,,,,0,59,59,59,,,,,,,,,,,,,,,,,,,,,,,,,,,,,,,,,,,,,,,,,,None,,105.12786635001831,None,105.12786635001831,None,2023-03-22-13:01:20.051744,105.14249130000826,105.44230200001039,105.14249130000826,None,None,105.14249130000826,None,105.9422338500066,None,,,,22051,0001,2023_Mar_22_1259,localizer,2021.1.3,60.061502982394735,
block_end,scenes,scenes050.bmp,,,,,0,60,60,60,,,,,,,,,,,,,,,,,,,,,,,,,,,,,,,,,,,,,,,,,,None,,105.9422338500066,None,105.9422338500066,None,2023-03-22-13:01:20.864465,105.95246290002251,106.25880700000562,105.95246290002251,None,None,105.95246290002251,None,106.75910725001305,None,,,,22051,0001,2023_Mar_22_1259,localizer,2021.1.3,60.061502982394735,
block_start,scenes,scenes055.bmp,,,,,0,61,61,61,,,,,,,,,,,,,,,,,,,,,,,,,,,,,,,,,,,,,,,,,,t,1.7366763999743853,106.75890800001798,None,106.75890800001798,None,2023-03-22-13:01:23.446035,108.5353190000169,108.84206110000378,108.5353190000169,None,None,108.5353190000169,None,109.34262275002257,None,,,,22051,0001,2023_Mar_22_1259,localizer,2021.1.3,60.061502982394735,
block,scenes,scenes016.bmp,,,,,0,62,62,62,,,,,,,,,,,,,,,,,,,,,,,,,,,,,,,,,,,,,,,,,,None,,109.34262275002257,None,109.34262275002257,None,2023-03-22-13:01:24.265047,109.35953010001685,109.65883770000073,109.35953010001685,None,None,109.35953010001685,None,110.15917555000343,None,,,,22051,0001,2023_Mar_22_1259,localizer,2021.1.3,60.061502982394735,
block,scenes,scenes032.bmp,,,,,0,63,63,63,,,,,,,,,,,,,,,,,,,,,,,,,,,,,,,,,,,,,,,,,,None,,110.15917555000343,None,110.15917555000343,None,2023-03-22-13:01:25.081464,110.16982880001888,110.47555940001621,110.16982880001888,None,None,110.16982880001888,None,110.9758835500019,None,,,,22051,0001,2023_Mar_22_1259,localizer,2021.1.3,60.061502982394735,
block,scenes,scenes052.bmp,,,,,0,64,64,64,,,,,,,,,,,,,,,,,,,,,,,,,,,,,,,,,,,,,,,,,,None,,110.9758835500019,None,110.9758835500019,None,2023-03-22-13:01:25.898188,110.98662790001254,111.29193130001659,110.98662790001254,None,None,110.98662790001254,None,111.7937073499983,None,,,,22051,0001,2023_Mar_22_1259,localizer,2021.1.3,60.061502982394735,
block,scenes,scenes026.bmp,,,,,0,65,65,65,,,,,,,,,,,,,,,,,,,,,,,,,,,,,,,,,,,,,,,,,,None,,111.7937073499983,None,111.7937073499983,None,2023-03-22-13:01:26.717199,111.80845450001652,112.10884610001813,111.80845450001652,None,None,111.80845450001652,None,112.60904835000693,None,,,,22051,0001,2023_Mar_22_1259,localizer,2021.1.3,60.061502982394735,
block,scenes,scenes023.bmp,,,,,0,66,66,66,,,,,,,,,,,,,,,,,,,,,,,,,,,,,,,,,,,,,,,,,,None,,112.60904835000693,None,112.60904835000693,None,2023-03-22-13:01:27.530409,112.61957330000587,112.92517270002281,112.61957330000587,None,None,112.61957330000587,None,113.42571395000269,None,,,,22051,0001,2023_Mar_22_1259,localizer,2021.1.3,60.061502982394735,
block,scenes,scenes091.bmp,,,,,0,67,67,67,,,,,,,,,,,,,,,,,,,,,,,,,,,,,,,,,,,,,,,,,,None,,113.42571395000269,None,113.42571395000269,None,2023-03-22-13:01:28.348090,113.43623650001246,113.74254500001553,113.43623650001246,None,None,113.43623650001246,None,114.24295485001349,None,,,,22051,0001,2023_Mar_22_1259,localizer,2021.1.3,60.061502982394735,
block,scenes,scenes056.bmp,,,,,0,68,68,68,,,,,,,,,,,,,,,,,,,,,,,,,,,,,,,,,,,,,,,,,,None,,114.24295485001349,None,114.24295485001349,None,2023-03-22-13:01:29.165339,114.2543033999973,114.55887900001835,114.2543033999973,None,None,114.2543033999973,None,115.05924175000692,None,,,,22051,0001,2023_Mar_22_1259,localizer,2021.1.3,60.061502982394735,
block,scenes,scenes037.bmp,,,,,0,69,69,69,,,,,,,,,,,,,,,,,,,,,,,,,,,,,,,,,,,,,,,,,,None,,115.05924175000692,None,115.05924175000692,None,2023-03-22-13:01:29.981658,115.06971219999832,115.3756652000011,115.06971219999832,None,None,115.06971219999832,None,115.87694415001025,None,,,,22051,0001,2023_Mar_22_1259,localizer,2021.1.3,60.061502982394735,
block,scenes,scenes079.bmp,,,,,0,70,70,70,,,,,,,,,,,,,,,,,,,,,,,,,,,,,,,,,,,,,,,,,,None,,115.87694415001025,None,115.87694415001025,None,2023-03-22-13:01:30.800364,115.88986880000448,116.19227140001021,115.88986880000448,None,None,115.88986880000448,None,116.69235275000975,None,,,,22051,0001,2023_Mar_22_1259,localizer,2021.1.3,60.061502982394735,
block,scenes,scenes030.bmp,,,,,0,71,71,71,,,,,,,,,,,,,,,,,,,,,,,,,,,,,,,,,,,,,,,,,,None,,116.69235275000975,None,116.69235275000975,None,2023-03-22-13:01:31.614814,116.70208479999565,117.00902510000742,116.70208479999565,None,None,116.70208479999565,None,117.50906995002006,None,,,,22051,0001,2023_Mar_22_1259,localizer,2021.1.3,60.061502982394735,
block,scenes,scenes063.bmp,,,,,0,72,72,72,,,,,,,,,,,,,,,,,,,,,,,,,,,,,,,,,,,,,,,,,,None,,117.50906995002006,None,117.50906995002006,None,2023-03-22-13:01:32.430704,117.52165910002077,117.82596220000414,117.52165910002077,None,None,117.52165910002077,None,118.32604775000655,None,,,,22051,0001,2023_Mar_22_1259,localizer,2021.1.3,60.061502982394735,
block,scenes,scenes020.bmp,,,,,0,73,73,73,,,,,,,,,,,,,,,,,,,,,,,,,,,,,,,,,,,,,,,,,,None,,118.32604775000655,None,118.32604775000655,None,2023-03-22-13:01:33.248795,118.33780960002332,118.64564669999527,118.33780960002332,None,None,118.33780960002332,None,119.14233555000683,None,,,,22051,0001,2023_Mar_22_1259,localizer,2021.1.3,60.061502982394735,
block,scenes,scenes008.bmp,,,,,0,74,74,74,,,,,,,,,,,,,,,,,,,,,,,,,,,,,,,,,,,,,,,,,,None,,119.14233555000683,None,119.14233555000683,None,2023-03-22-13:01:34.063864,119.15220470001805,119.45899610000197,119.15220470001805,None,None,119.15220470001805,None,119.95911975000345,None,,,,22051,0001,2023_Mar_22_1259,localizer,2021.1.3,60.061502982394735,
block_end,scenes,scenes002.bmp,,,,,0,75,75,75,,,,,,,,,,,,,,,,,,,,,,,,,,,,,,,,,,,,,,,,,,None,,119.95911975000345,None,119.95911975000345,None,2023-03-22-13:01:34.881666,119.9690677000035,120.27551770000719,119.9690677000035,None,None,119.9690677000035,None,120.77717495001562,None,,,,22051,0001,2023_Mar_22_1259,localizer,2021.1.3,60.061502982394735,
null_block,null_block,null_block.bmp,,,,,0,76,76,76,,,,,,,,,,,,,,,,,,,,,,,,,,,,,,,,,,,,,,,,,,t,1.7184893000230659,120.77689010000904,None,120.77689010000904,None,2023-03-22-13:01:37.447944,122.52633564999852,None,122.52633564999852,None,None,122.52633564999852,None,122.53572890002397,None,,,,22051,0001,2023_Mar_22_1259,localizer,2021.1.3,60.061502982394735,
block_start,faces,faces062.bmp,,,,,0,77,77,77,,,,,,,,,,,,,,,,,,,,,,,,,,,,,,,,,,,,,,,,,,t,1.9454541000013705,134.54900080000516,None,134.54900080000516,None,2023-03-22-13:01:51.432340,136.5174107000057,136.82575540000107,136.5174107000057,None,None,136.5174107000057,None,137.32710845002148,None,,,,22051,0001,2023_Mar_22_1259,localizer,2021.1.3,60.061502982394735,
block,faces,faces070.bmp,,,,,0,78,78,78,,,,,,,,,,,,,,,,,,,,,,,,,,,,,,,,,,,,,,,,,,None,,137.32710845002148,None,137.32710845002148,None,2023-03-22-13:01:52.251264,137.3281091999961,137.64275660002022,137.3281091999961,None,None,137.3281091999961,None,138.1428968500026,None,,,,22051,0001,2023_Mar_22_1259,localizer,2021.1.3,60.061502982394735,
block,faces,faces065.bmp,,,,,0,79,79,79,,,,,,,,,,,,,,,,,,,,,,,,,,,,,,,,,,,,,,,,,,None,,138.17646535000242,None,138.17646535000242,None,2023-03-22-13:01:53.097943,138.17313949999516,138.47589490000973,138.17313949999516,None,None,138.17313949999516,None,138.97580885001517,None,,,,22051,0001,2023_Mar_22_1259,localizer,2021.1.3,60.061502982394735,
block,faces,faces015.bmp,,,,,0,80,80,80,,,,,,,,,,,,,,,,,,,,,,,,,,,,,,,,,,,,,,,,,,None,,138.97580885001517,None,138.97580885001517,None,2023-03-22-13:01:53.899851,138.99197530001402,139.29293600001256,138.99197530001402,138.99197530001402,None,138.99197530001402,138.99197530001402,139.79280945000065,None,,,,22051,0001,2023_Mar_22_1259,localizer,2021.1.3,60.061502982394735,
block,faces,faces069.bmp,,,,,0,81,81,81,,,,,,,,,,,,,,,,,,,,,,,,,,,,,,,,,,,,,,,,,,None,,139.79280945000065,None,139.79280945000065,None,2023-03-22-13:01:54.715874,139.79946420001215,140.10895880000317,139.79946420001215,None,None,139.79946420001215,None,140.60953195002222,None,,,,22051,0001,2023_Mar_22_1259,localizer,2021.1.3,60.061502982394735,
block,faces,faces074.bmp,,,,,0,82,82,82,,,,,,,,,,,,,,,,,,,,,,,,,,,,,,,,,,,,,,,,,,None,,140.60953195002222,None,140.60953195002222,None,2023-03-22-13:01:55.532615,140.62185419999878,140.92557390002185,140.62185419999878,None,None,140.62185419999878,None,141.42716465001868,None,,,,22051,0001,2023_Mar_22_1259,localizer,2021.1.3,60.061502982394735,
block,faces,faces064.bmp,,,,,0,83,83,83,,,,,,,,,,,,,,,,,,,,,,,,,,,,,,,,,,,,,,,,,,None,,141.42716465001868,None,141.42716465001868,None,2023-03-22-13:01:56.352277,141.4413612000062,141.7428015000187,141.4413612000062,None,None,141.4413612000062,None,142.24293315002288,None,,,,22051,0001,2023_Mar_22_1259,localizer,2021.1.3,60.061502982394735,
block,faces,faces087.bmp,,,,,0,84,84,84,,,,,,,,,,,,,,,,,,,,,,,,,,,,,,,,,,,,,,,,,,None,,142.24293315002288,None,142.24293315002288,None,2023-03-22-13:01:57.166055,142.2557629000221,142.55989060000866,142.2557629000221,None,None,142.2557629000221,None,143.05916345002188,None,,,,22051,0001,2023_Mar_22_1259,localizer,2021.1.3,60.061502982394735,
block,faces,faces056.bmp,,,,,0,85,85,85,,,,,,,,,,,,,,,,,,,,,,,,,,,,,,,,,,,,,,,,,,None,,143.05916345002188,None,143.05916345002188,None,2023-03-22-13:01:57.981570,143.06981970000197,143.37605750001967,143.06981970000197,None,None,143.06981970000197,None,143.87811015001208,None,,,,22051,0001,2023_Mar_22_1259,localizer,2021.1.3,60.061502982394735,
block,faces,faces042.bmp,,,,,0,86,86,86,,,,,,,,,,,,,,,,,,,,,,,,,,,,,,,,,,,,,,,,,,None,,143.87811015001208,None,143.87811015001208,None,2023-03-22-13:01:58.803617,143.8905292999989,144.19222830000217,143.8905292999989,None,None,143.8905292999989,None,144.6927246500185,None,,,,22051,0001,2023_Mar_22_1259,localizer,2021.1.3,60.061502982394735,
block,faces,faces072.bmp,,,,,0,87,87,87,,,,,,,,,,,,,,,,,,,,,,,,,,,,,,,,,,,,,,,,,,None,,144.6927246500185,None,144.6927246500185,None,2023-03-22-13:01:59.615932,144.70436940001673,145.00985170001513,144.70436940001673,None,None,144.70436940001673,None,145.50947125001986,None,,,,22051,0001,2023_Mar_22_1259,localizer,2021.1.3,60.061502982394735,
block,faces,faces072.bmp,,,,,0,88,88,88,,,,,,,,,,,,,,,,,,,,,,,,,,,,,,,,,,,,,,,,,,None,,145.50947125001986,None,145.50947125001986,None,2023-03-22-13:02:00.432686,145.5103392000019,145.809771500004,145.5103392000019,None,y,145.5103392000019,None,146.3259133500018,None,0.746756499982439,,,22051,0001,2023_Mar_22_1259,localizer,2021.1.3,60.061502982394735,
block,faces,faces057.bmp,,,,,0,89,89,89,,,,,,,,,,,,,,,,,,,,,,,,,,,,,,,,,,,,,,,,,,None,,146.3259133500018,None,146.3259133500018,None,2023-03-22-13:02:01.248011,146.33653900001082,146.64240820001578,146.33653900001082,None,None,146.33653900001082,None,147.14263415001042,None,,,,22051,0001,2023_Mar_22_1259,localizer,2021.1.3,60.061502982394735,
block,faces,faces061.bmp,,,,,0,90,90,90,,,,,,,,,,,,,,,,,,,,,,,,,,,,,,,,,,,,,,,,,,None,,147.14263415001042,None,147.14263415001042,None,2023-03-22-13:02:02.065893,147.15422009999747,147.45910840001306,147.15422009999747,None,None,147.15422009999747,None,147.95955595000706,None,,,,22051,0001,2023_Mar_22_1259,localizer,2021.1.3,60.061502982394735,
block_end,faces,faces073.bmp,,,,,0,91,91,91,,,,,,,,,,,,,,,,,,,,,,,,,,,,,,,,,,,,,,,,,,None,,147.95955595000706,None,147.95955595000706,None,2023-03-22-13:02:02.883051,147.96749530002126,148.27590900001815,147.96749530002126,None,None,147.96749530002126,None,148.77606835000043,None,,,,22051,0001,2023_Mar_22_1259,localizer,2021.1.3,60.061502982394735,
block_start,objects,objects052.bmp,,,,,0,92,92,92,,,,,,,,,,,,,,,,,,,,,,,,,,,,,,,,,,,,,,,,,,t,1.7186260999878868,148.7758139000216,None,148.7758139000216,None,2023-03-22-13:02:05.448542,150.53611260000616,150.84252970002126,150.53611260000616,None,None,150.53611260000616,None,151.3427996500017,None,,,,22051,0001,2023_Mar_22_1259,localizer,2021.1.3,60.061502982394735,
block,objects,objects003.bmp,,,,,0,93,93,93,,,,,,,,,,,,,,,,,,,,,,,,,,,,,,,,,,,,,,,,,,None,,151.3427996500017,None,151.3427996500017,None,2023-03-22-13:02:06.266162,151.35283770001843,151.6592382999952,151.35283770001843,None,None,151.35283770001843,None,152.15939415000904,None,,,,22051,0001,2023_Mar_22_1259,localizer,2021.1.3,60.061502982394735,
block,objects,objects049.bmp,,,,,0,94,94,94,,,,,,,,,,,,,,,,,,,,,,,,,,,,,,,,,,,,,,,,,,None,,152.15939415000904,None,152.15939415000904,None,2023-03-22-13:02:07.081791,152.16813880001428,152.47592530000838,152.16813880001428,None,None,152.16813880001428,None,152.97666715000233,None,,,,22051,0001,2023_Mar_22_1259,localizer,2021.1.3,60.061502982394735,
block,objects,objects001.bmp,,,,,0,95,95,95,,,,,,,,,,,,,,,,,,,,,,,,,,,,,,,,,,,,,,,,,,None,,152.97666715000233,None,152.97666715000233,None,2023-03-22-13:02:07.900252,152.9893193000171,153.2924716999987,152.9893193000171,None,None,152.9893193000171,None,153.79266825000232,None,,,,22051,0001,2023_Mar_22_1259,localizer,2021.1.3,60.061502982394735,
block,objects,objects042.bmp,,,,,0,96,96,96,,,,,,,,,,,,,,,,,,,,,,,,,,,,,,,,,,,,,,,,,,None,,153.79266825000232,None,153.79266825000232,None,2023-03-22-13:02:08.716101,153.80308250000235,154.1092123000126,153.80308250000235,None,None,153.80308250000235,None,154.60999235000637,None,,,,22051,0001,2023_Mar_22_1259,localizer,2021.1.3,60.061502982394735,
block,objects,objects032.bmp,,,,,0,97,97,97,,,,,,,,,,,,,,,,,,,,,,,,,,,,,,,,,,,,,,,,,,None,,154.60999235000637,None,154.60999235000637,None,2023-03-22-13:02:09.533436,154.62153840000974,154.92583829999785,154.62153840000974,None,None,154.62153840000974,None,155.4260368500167,None,,,,22051,0001,2023_Mar_22_1259,localizer,2021.1.3,60.061502982394735,
block,objects,objects047.bmp,,,,,0,98,98,98,,,,,,,,,,,,,,,,,,,,,,,,,,,,,,,,,,,,,,,,,,None,,155.4260368500167,None,155.4260368500167,None,2023-03-22-13:02:10.349511,155.43643440000596,155.7432286000112,155.43643440000596,None,None,155.43643440000596,None,156.24339125001862,None,,,,22051,0001,2023_Mar_22_1259,localizer,2021.1.3,60.061502982394735,
block,objects,objects083.bmp,,,,,0,99,99,99,,,,,,,,,,,,,,,,,,,,,,,,,,,,,,,,,,,,,,,,,,None,,156.24339125001862,None,156.24339125001862,None,2023-03-22-13:02:11.166876,156.2560459000233,156.5592838000157,156.2560459000233,None,None,156.2560459000233,None,157.05918605001935,None,,,,22051,0001,2023_Mar_22_1259,localizer,2021.1.3,60.061502982394735,
block,objects,objects036.bmp,,,,,0,100,100,100,,,,,,,,,,,,,,,,,,,,,,,,,,,,,,,,,,,,,,,,,,None,,157.05918605001935,None,157.05918605001935,None,2023-03-22-13:02:11.981702,157.06102750002174,157.3758243000193,157.06102750002174,None,None,157.06102750002174,None,157.87601085000497,None,,,,22051,0001,2023_Mar_22_1259,localizer,2021.1.3,60.061502982394735,
block,objects,objects027.bmp,,,,,0,101,101,101,,,,,,,,,,,,,,,,,,,,,,,,,,,,,,,,,,,,,,,,,,None,,157.87601085000497,None,157.87601085000497,None,2023-03-22-13:02:12.798594,157.88258400000632,158.19281290000072,157.88258400000632,None,None,157.88258400000632,None,158.69303934999917,None,,,,22051,0001,2023_Mar_22_1259,localizer,2021.1.3,60.061502982394735,
block,objects,objects021.bmp,,,,,0,102,102,102,,,,,,,,,,,,,,,,,,,,,,,,,,,,,,,,,,,,,,,,,,None,,158.69303934999917,None,158.69303934999917,None,2023-03-22-13:02:13.616594,158.70488299999852,159.0093152000045,158.70488299999852,None,None,158.70488299999852,None,159.50921095001686,None,,,,22051,0001,2023_Mar_22_1259,localizer,2021.1.3,60.061502982394735,
block,objects,objects084.bmp,,,,,0,103,103,103,,,,,,,,,,,,,,,,,,,,,,,,,,,,,,,,,,,,,,,,,,None,,159.50921095001686,None,159.50921095001686,None,2023-03-22-13:02:14.432089,159.5196016000118,159.82631740000215,159.5196016000118,None,None,159.5196016000118,None,160.3263896500197,None,,,,22051,0001,2023_Mar_22_1259,localizer,2021.1.3,60.061502982394735,
block,objects,objects059.bmp,,,,,0,104,104,104,,,,,,,,,,,,,,,,,,,,,,,,,,,,,,,,,,,,,,,,,,None,,160.3263896500197,None,160.3263896500197,None,2023-03-22-13:02:15.250192,160.33809610002209,160.64266680000583,160.33809610002209,None,None,160.33809610002209,None,161.14281005001104,None,,,,22051,0001,2023_Mar_22_1259,localizer,2021.1.3,60.061502982394735,
block,objects,objects011.bmp,,,,,0,105,105,105,,,,,,,,,,,,,,,,,,,,,,,,,,,,,,,,,,,,,,,,,,None,,161.14281005001104,None,161.14281005001104,None,2023-03-22-13:02:16.066434,161.1534249999968,161.45918140001595,161.1534249999968,None,None,161.1534249999968,None,161.95939434999892,None,,,,22051,0001,2023_Mar_22_1259,localizer,2021.1.3,60.061502982394735,
block_end,objects,objects079.bmp,,,,,0,106,106,106,,,,,,,,,,,,,,,,,,,,,,,,,,,,,,,,,,,,,,,,,,None,,161.95939434999892,None,161.95939434999892,None,2023-03-22-13:02:16.883253,161.96989300000132,162.27598760000546,161.96989300000132,None,None,161.96989300000132,None,162.7771990499954,None,,,,22051,0001,2023_Mar_22_1259,localizer,2021.1.3,60.061502982394735,
block_start,scrambled,scrambled052.bmp,,,,,0,107,107,107,,,,,,,,,,,,,,,,,,,,,,,,,,,,,,,,,,,,,,,,,,t,1.7175036999979056,162.77710410000873,None,162.77710410000873,None,2023-03-22-13:02:19.448439,164.5395047000202,164.84253330001957,164.5395047000202,None,None,164.5395047000202,None,165.34271775001835,None,,,,22051,0001,2023_Mar_22_1259,localizer,2021.1.3,60.061502982394735,
block,scrambled,scrambled049.bmp,,,,,0,108,108,108,,,,,,,,,,,,,,,,,,,,,,,,,,,,,,,,,,,,,,,,,,None,,165.34271775001835,None,165.34271775001835,None,2023-03-22-13:02:20.266453,165.3530119000061,165.65912260001642,165.3530119000061,None,None,165.3530119000061,None,166.15959315001092,None,,,,22051,0001,2023_Mar_22_1259,localizer,2021.1.3,60.061502982394735,
block,scrambled,scrambled084.bmp,,,,,0,109,109,109,,,,,,,,,,,,,,,,,,,,,,,,,,,,,,,,,,,,,,,,,,None,,166.15959315001092,None,166.15959315001092,None,2023-03-22-13:02:21.083346,166.172644700011,166.47601060001762,166.172644700011,None,None,166.172644700011,None,166.97603005001147,None,,,,22051,0001,2023_Mar_22_1259,localizer,2021.1.3,60.061502982394735,
block,scrambled,scrambled027.bmp,,,,,0,110,110,110,,,,,,,,,,,,,,,,,,,,,,,,,,,,,,,,,,,,,,,,,,None,,166.97603005001147,None,166.97603005001147,None,2023-03-22-13:02:21.899808,166.98618850001367,167.29256709999754,166.98618850001367,None,None,166.98618850001367,None,167.79283295000496,None,,,,22051,0001,2023_Mar_22_1259,localizer,2021.1.3,60.061502982394735,
block,scrambled,scrambled032.bmp,,,,,0,111,111,111,,,,,,,,,,,,,,,,,,,,,,,,,,,,,,,,,,,,,,,,,,None,,167.79283295000496,None,167.79283295000496,None,2023-03-22-13:02:22.716861,167.7937033000053,168.09498429999803,167.7937033000053,None,None,167.7937033000053,None,168.60932765000908,None,,,,22051,0001,2023_Mar_22_1259,localizer,2021.1.3,60.061502982394735,
block,scrambled,scrambled030.bmp,,,,,0,112,112,112,,,,,,,,,,,,,,,,,,,,,,,,,,,,,,,,,,,,,,,,,,None,,168.60932765000908,None,168.60932765000908,None,2023-03-22-13:02:23.532150,168.61937570001464,168.9261858999962,168.61937570001464,None,None,168.61937570001464,None,169.4264678500098,None,,,,22051,0001,2023_Mar_22_1259,localizer,2021.1.3,60.061502982394735,
block,scrambled,scrambled039.bmp,,,,,0,113,113,113,,,,,,,,,,,,,,,,,,,,,,,,,,,,,,,,,,,,,,,,,,None,,169.4264678500098,None,169.4264678500098,None,2023-03-22-13:02:24.350306,169.4371238000167,169.74338240001816,169.4371238000167,None,None,169.4371238000167,None,170.2427889500017,None,,,,22051,0001,2023_Mar_22_1259,localizer,2021.1.3,60.061502982394735,
block,scrambled,scrambled015.bmp,,,,,0,114,114,114,,,,,,,,,,,,,,,,,,,,,,,,,,,,,,,,,,,,,,,,,,None,,170.2427889500017,None,170.2427889500017,None,2023-03-22-13:02:25.166800,170.25282100000186,170.55931589999818,170.25282100000186,None,None,170.25282100000186,None,171.06076635000355,None,,,,22051,0001,2023_Mar_22_1259,localizer,2021.1.3,60.061502982394735,
block,scrambled,scrambled037.bmp,,,,,0,115,115,115,,,,,,,,,,,,,,,,,,,,,,,,,,,,,,,,,,,,,,,,,,None,,171.06076635000355,None,171.06076635000355,None,2023-03-22-13:02:25.985759,171.07356690001325,171.3825287000218,171.07356690001325,None,None,171.07356690001325,None,171.87600525002054,None,,,,22051,0001,2023_Mar_22_1259,localizer,2021.1.3,60.061502982394735,
block,scrambled,scrambled073.bmp,,,,,0,116,116,116,,,,,,,,,,,,,,,,,,,,,,,,,,,,,,,,,,,,,,,,,,None,,171.87600525002054,None,171.87600525002054,None,2023-03-22-13:02:26.800125,171.8858162999968,172.19340889999876,171.8858162999968,None,None,171.8858162999968,None,172.6935321499972,None,,,,22051,0001,2023_Mar_22_1259,localizer,2021.1.3,60.061502982394735,
block,scrambled,scrambled008.bmp,,,,,0,117,117,117,,,,,,,,,,,,,,,,,,,,,,,,,,,,,,,,,,,,,,,,,,None,,172.6935321499972,None,172.6935321499972,None,2023-03-22-13:02:27.617445,172.70576810001512,173.00947710001492,172.70576810001512,None,None,172.70576810001512,None,173.50956394999812,None,,,,22051,0001,2023_Mar_22_1259,localizer,2021.1.3,60.061502982394735,
block,scrambled,scrambled002.bmp,,,,,0,118,118,118,,,,,,,,,,,,,,,,,,,,,,,,,,,,,,,,,,,,,,,,,,None,,173.50956394999812,None,173.50956394999812,None,2023-03-22-13:02:28.432510,173.52028670001891,173.82595710002352,173.52028670001891,None,None,173.52028670001891,None,174.3264005500154,None,,,,22051,0001,2023_Mar_22_1259,localizer,2021.1.3,60.061502982394735,
block,scrambled,scrambled031.bmp,,,,,0,119,119,119,,,,,,,,,,,,,,,,,,,,,,,,,,,,,,,,,,,,,,,,,,None,,174.3264005500154,None,174.3264005500154,None,2023-03-22-13:02:29.250367,174.33720249999897,174.64258730001166,174.33720249999897,None,None,174.33720249999897,None,175.1428559500113,None,,,,22051,0001,2023_Mar_22_1259,localizer,2021.1.3,60.061502982394735,
block,scrambled,scrambled056.bmp,,,,,0,120,120,120,,,,,,,,,,,,,,,,,,,,,,,,,,,,,,,,,,,,,,,,,,None,,175.1428559500113,None,175.1428559500113,None,2023-03-22-13:02:30.066841,175.1437401000003,175.4425837000017,175.1437401000003,None,None,175.1437401000003,None,175.95945115002397,None,,,,22051,0001,2023_Mar_22_1259,localizer,2021.1.3,60.061502982394735,
block_end,scrambled,scrambled044.bmp,,,,,0,121,121,121,,,,,,,,,,,,,,,,,,,,,,,,,,,,,,,,,,,,,,,,,,None,,175.95945115002397,None,175.95945115002397,None,2023-03-22-13:02:30.883464,175.96031230001245,176.25940619999892,175.96031230001245,None,None,175.96031230001245,None,176.76072685000545,None,,,,22051,0001,2023_Mar_22_1259,localizer,2021.1.3,60.061502982394735,
block_start,scenes,scenes034.bmp,,,,,0,122,122,122,,,,,,,,,,,,,,,,,,,,,,,,,,,,,,,,,,,,,,,,,,t,1.7347008000069764,176.75977010000497,None,176.75977010000497,None,2023-03-22-13:02:33.433938,178.52106900000945,178.82590560000972,178.52106900000945,None,None,178.52106900000945,None,179.32608705001476,None,,,,22051,0001,2023_Mar_22_1259,localizer,2021.1.3,60.061502982394735,
block,scenes,scenes057.bmp,,,,,0,123,123,123,,,,,,,,,,,,,,,,,,,,,,,,,,,,,,,,,,,,,,,,,,None,,179.32608705001476,None,179.32608705001476,None,2023-03-22-13:02:34.250188,179.33651330001885,179.64266929999576,179.33651330001885,None,None,179.33651330001885,None,180.14304164999922,None,,,,22051,0001,2023_Mar_22_1259,localizer,2021.1.3,60.061502982394735,
block,scenes,scenes038.bmp,,,,,0,124,124,124,,,,,,,,,,,,,,,,,,,,,,,,,,,,,,,,,,,,,,,,,,None,,180.14304164999922,None,180.14304164999922,None,2023-03-22-13:02:35.067162,180.15413740000804,180.45948200000566,180.15413740000804,None,None,180.15413740000804,None,180.96036355001561,None,,,,22051,0001,2023_Mar_22_1259,localizer,2021.1.3,60.061502982394735,
block,scenes,scenes028.bmp,,,,,0,125,125,125,,,,,,,,,,,,,,,,,,,,,,,,,,,,,,,,,,,,,,,,,,None,,180.96036355001561,None,180.96036355001561,None,2023-03-22-13:02:35.884497,180.97244159999536,181.2764460000035,180.97244159999536,None,None,180.97244159999536,None,181.7766935500171,None,,,,22051,0001,2023_Mar_22_1259,localizer,2021.1.3,60.061502982394735,
block,scenes,scenes082.bmp,,,,,0,126,126,126,,,,,,,,,,,,,,,,,,,,,,,,,,,,,,,,,,,,,,,,,,None,,181.7766935500171,None,181.7766935500171,None,2023-03-22-13:02:36.700853,181.78842870000517,182.09280390001368,181.78842870000517,None,None,181.78842870000517,None,182.59321944999684,None,,,,22051,0001,2023_Mar_22_1259,localizer,2021.1.3,60.061502982394735,
block,scenes,scenes074.bmp,,,,,0,127,127,127,,,,,,,,,,,,,,,,,,,,,,,,,,,,,,,,,,,,,,,,,,None,,182.59321944999684,None,182.59321944999684,None,2023-03-22-13:02:37.517614,182.6044636000006,182.90943940001307,182.6044636000006,None,None,182.6044636000006,None,183.41025274999848,None,,,,22051,0001,2023_Mar_22_1259,localizer,2021.1.3,60.061502982394735,
block,scenes,scenes059.bmp,,,,,0,128,128,128,,,,,,,,,,,,,,,,,,,,,,,,,,,,,,,,,,,,,,,,,,None,,183.41025274999848,None,183.41025274999848,None,2023-03-22-13:02:38.334633,183.41843150000204,183.7261092000117,183.41843150000204,None,None,183.41843150000204,None,184.22653795000807,None,,,,22051,0001,2023_Mar_22_1259,localizer,2021.1.3,60.061502982394735,
block,scenes,scenes076.bmp,,,,,0,129,129,129,,,,,,,,,,,,,,,,,,,,,,,,,,,,,,,,,,,,,,,,,,None,,184.22653795000807,None,184.22653795000807,None,2023-03-22-13:02:39.150984,184.23728110000957,184.54278050002176,184.23728110000957,None,None,184.23728110000957,None,185.04294035000785,None,,,,22051,0001,2023_Mar_22_1259,localizer,2021.1.3,60.061502982394735,
block,scenes,scenes029.bmp,,,,,0,130,130,130,,,,,,,,,,,,,,,,,,,,,,,,,,,,,,,,,,,,,,,,,,None,,185.04294035000785,None,185.04294035000785,None,2023-03-22-13:02:39.967392,185.05326070002047,185.35939759999746,185.05326070002047,None,None,185.05326070002047,None,185.85980875000533,None,,,,22051,0001,2023_Mar_22_1259,localizer,2021.1.3,60.061502982394735,
block,scenes,scenes060.bmp,,,,,0,131,131,131,,,,,,,,,,,,,,,,,,,,,,,,,,,,,,,,,,,,,,,,,,None,,185.85980875000533,None,185.85980875000533,None,2023-03-22-13:02:40.784080,185.87232019999647,186.17607380001573,185.87232019999647,None,None,185.87232019999647,None,186.6762965500151,None,,,,22051,0001,2023_Mar_22_1259,localizer,2021.1.3,60.061502982394735,
block,scenes,scenes035.bmp,,,,,0,132,132,132,,,,,,,,,,,,,,,,,,,,,,,,,,,,,,,,,,,,,,,,,,None,,186.6762965500151,None,186.6762965500151,None,2023-03-22-13:02:41.600586,186.68681210000068,186.9926470000064,186.68681210000068,None,None,186.68681210000068,None,187.49289355001238,None,,,,22051,0001,2023_Mar_22_1259,localizer,2021.1.3,60.061502982394735,
block,scenes,scenes018.bmp,,,,,0,133,133,133,,,,,,,,,,,,,,,,,,,,,,,,,,,,,,,,,,,,,,,,,,None,,187.49289355001238,None,187.49289355001238,None,2023-03-22-13:02:42.417209,187.50442340000882,187.809742500016,187.50442340000882,None,None,187.50442340000882,None,188.3101015500055,None,,,,22051,0001,2023_Mar_22_1259,localizer,2021.1.3,60.061502982394735,
block,scenes,scenes071.bmp,,,,,0,134,134,134,,,,,,,,,,,,,,,,,,,,,,,,,,,,,,,,,,,,,,,,,,None,,188.3101015500055,None,188.3101015500055,None,2023-03-22-13:02:43.234432,188.32179790001828,188.62615720002213,188.32179790001828,None,None,188.32179790001828,None,189.12619845000737,None,,,,22051,0001,2023_Mar_22_1259,localizer,2021.1.3,60.061502982394735,
block,scenes,scenes013.bmp,,,,,0,135,135,135,,,,,,,,,,,,,,,,,,,,,,,,,,,,,,,,,,,,,,,,,,None,,189.12619845000737,None,189.12619845000737,None,2023-03-22-13:02:44.050776,189.1366378000239,189.44288420001976,189.1366378000239,None,None,189.1366378000239,None,189.94291725000076,None,,,,22051,0001,2023_Mar_22_1259,localizer,2021.1.3,60.061502982394735,
block_end,scenes,scenes046.bmp,,,,,0,136,136,136,,,,,,,,,,,,,,,,,,,,,,,,,,,,,,,,,,,,,,,,,,None,,189.94291725000076,None,189.94291725000076,None,2023-03-22-13:02:44.866298,189.95300010000938,190.26233440000215,189.95300010000938,None,None,189.95300010000938,None,190.75944894999557,None,,,,22051,0001,2023_Mar_22_1259,localizer,2021.1.3,60.061502982394735,
block_start,faces,faces075.bmp,,,,,0,137,137,137,,,,,,,,,,,,,,,,,,,,,,,,,,,,,,,,,,,,,,,,,,t,1.7352549000061117,190.75927780001075,None,190.75927780001075,None,2023-03-22-13:02:47.433452,192.5107097,192.80981040000916,192.5107097,None,None,192.5107097,None,193.30994805000083,None,,,,22051,0001,2023_Mar_22_1259,localizer,2021.1.3,60.061502982394735,
block,faces,faces067.bmp,,,,,0,138,138,138,,,,,,,,,,,,,,,,,,,,,,,,,,,,,,,,,,,,,,,,,,None,,193.30994805000083,None,193.30994805000083,None,2023-03-22-13:02:48.236488,193.32490140001755,193.62597940000705,193.32490140001755,193.32490140001755,None,193.32490140001755,193.32490140001755,194.12655865001435,None,,,,22051,0001,2023_Mar_22_1259,localizer,2021.1.3,60.061502982394735,
block,faces,faces008.bmp,,,,,0,139,139,139,,,,,,,,,,,,,,,,,,,,,,,,,,,,,,,,,,,,,,,,,,None,,194.12655865001435,None,194.12655865001435,None,2023-03-22-13:02:49.051264,194.13875630000257,194.44267310001305,194.13875630000257,None,None,194.13875630000257,None,194.94305434999697,None,,,,22051,0001,2023_Mar_22_1259,localizer,2021.1.3,60.061502982394735,
block,faces,faces022.bmp,,,,,0,140,140,140,,,,,,,,,,,,,,,,,,,,,,,,,,,,,,,,,,,,,,,,,,None,,194.94305434999697,None,194.94305434999697,None,2023-03-22-13:02:49.866791,194.95423530001426,195.25982880001538,194.95423530001426,None,None,194.95423530001426,None,195.7601337500004,None,,,,22051,0001,2023_Mar_22_1259,localizer,2021.1.3,60.061502982394735,
block,faces,faces016.bmp,,,,,0,141,141,141,,,,,,,,,,,,,,,,,,,,,,,,,,,,,,,,,,,,,,,,,,None,,195.7601337500004,None,195.7601337500004,None,2023-03-22-13:02:50.684866,195.77272560002166,196.07625300000655,195.77272560002166,None,None,195.77272560002166,None,196.56615995000757,None,,,,22051,0001,2023_Mar_22_1259,localizer,2021.1.3,60.061502982394735,
block,faces,faces055.bmp,,,,,0,142,142,142,,,,,,,,,,,,,,,,,,,,,,,,,,,,,,,,,,,,,,,,,,None,,196.56615995000757,None,196.56615995000757,None,2023-03-22-13:02:51.493681,196.56987970002228,196.87665310001466,196.56987970002228,None,None,196.56987970002228,None,197.37642644999724,None,,,,22051,0001,2023_Mar_22_1259,localizer,2021.1.3,60.061502982394735,
block,faces,faces049.bmp,,,,,0,143,143,143,,,,,,,,,,,,,,,,,,,,,,,,,,,,,,,,,,,,,,,,,,None,,197.37642644999724,None,197.37642644999724,None,2023-03-22-13:02:52.301000,197.38707610001438,197.69284289999632,197.38707610001438,None,None,197.38707610001438,None,198.19311985000095,None,,,,22051,0001,2023_Mar_22_1259,localizer,2021.1.3,60.061502982394735,
block,faces,faces073.bmp,,,,,0,144,144,144,,,,,,,,,,,,,,,,,,,,,,,,,,,,,,,,,,,,,,,,,,None,,198.19311985000095,None,198.19311985000095,None,2023-03-22-13:02:53.117715,198.1940481000056,198.4930480000039,198.1940481000056,None,None,198.1940481000056,None,198.99366405000038,None,,,,22051,0001,2023_Mar_22_1259,localizer,2021.1.3,60.061502982394735,
block,faces,faces011.bmp,,,,,0,145,145,145,,,,,,,,,,,,,,,,,,,,,,,,,,,,,,,,,,,,,,,,,,None,,198.99366405000038,None,198.99366405000038,None,2023-03-22-13:02:53.920160,199.0082412000047,199.30938690001494,199.0082412000047,199.0082412000047,None,199.0082412000047,199.0082412000047,199.80961715001322,None,,,,22051,0001,2023_Mar_22_1259,localizer,2021.1.3,60.061502982394735,
block,faces,faces050.bmp,,,,,0,146,146,146,,,,,,,,,,,,,,,,,,,,,,,,,,,,,,,,,,,,,,,,,,None,,199.80961715001322,None,199.80961715001322,None,2023-03-22-13:02:54.733494,199.81506670001545,200.12618760002078,199.81506670001545,None,None,199.81506670001545,None,200.62754925001937,None,,,,22051,0001,2023_Mar_22_1259,localizer,2021.1.3,60.061502982394735,
block,faces,faces059.bmp,,,,,0,147,147,147,,,,,,,,,,,,,,,,,,,,,,,,,,,,,,,,,,,,,,,,,,None,,200.62754925001937,None,200.62754925001937,None,2023-03-22-13:02:55.553375,200.64086959999986,200.94458410001243,200.64086959999986,None,None,200.64086959999986,None,201.444422949999,None,,,,22051,0001,2023_Mar_22_1259,localizer,2021.1.3,60.061502982394735,
block,faces,faces040.bmp,,,,,0,148,148,148,,,,,,,,,,,,,,,,,,,,,,,,,,,,,,,,,,,,,,,,,,None,,201.444422949999,None,201.444422949999,None,2023-03-22-13:02:56.370078,201.45820079999976,201.75951950001763,201.45820079999976,None,None,201.45820079999976,None,202.26007155002154,None,,,,22051,0001,2023_Mar_22_1259,localizer,2021.1.3,60.061502982394735,
block,faces,faces086.bmp,,,,,0,149,149,149,,,,,,,,,,,,,,,,,,,,,,,,,,,,,,,,,,,,,,,,,,None,,202.26007155002154,None,202.26007155002154,None,2023-03-22-13:02:57.184978,202.2679177999962,202.57637700001942,202.2679177999962,None,None,202.2679177999962,None,203.07653115002032,None,,,,22051,0001,2023_Mar_22_1259,localizer,2021.1.3,60.061502982394735,
block,faces,faces029.bmp,,,,,0,150,150,150,,,,,,,,,,,,,,,,,,,,,,,,,,,,,,,,,,,,,,,,,,None,,203.07653115002032,None,203.07653115002032,None,2023-03-22-13:02:58.001252,203.0894191999978,203.39322090000496,203.0894191999978,None,None,203.0894191999978,None,203.89382815002173,None,,,,22051,0001,2023_Mar_22_1259,localizer,2021.1.3,60.061502982394735,
block_end,faces,faces043.bmp,,,,,0,151,151,151,,,,,,,,,,,,,,,,,,,,,,,,,,,,,,,,,,,,,,,,,,None,,203.89382815002173,None,203.89382815002173,None,2023-03-22-13:02:58.818483,203.90478110002005,204.20998400001554,203.90478110002005,None,None,203.90478110002005,None,204.70976635000844,None,,,,22051,0001,2023_Mar_22_1259,localizer,2021.1.3,60.061502982394735,
null_block,null_block,null_block.bmp,,,,,0,152,152,152,,,,,,,,,,,,,,,,,,,,,,,,,,,,,,,,,,,,,,,,,,t,1.7849692999734543,204.7095911000215,None,204.7095911000215,None,2023-03-22-13:03:01.434748,206.50993805002364,None,206.50993805002364,None,None,206.50993805002364,None,206.51242600000114,None,,,,22051,0001,2023_Mar_22_1259,localizer,2021.1.3,60.061502982394735,
block_start,objects,objects087.bmp,,,,,0,153,153,153,,,,,,,,,,,,,,,,,,,,,,,,,,,,,,,,,,,,,,,,,,t,1.9675930000084918,218.52697130001616,None,218.52697130001616,None,2023-03-22-13:03:15.437310,220.5229581000167,220.8264513000031,220.5229581000167,None,None,220.5229581000167,None,221.32647535000288,None,,,,22051,0001,2023_Mar_22_1259,localizer,2021.1.3,60.061502982394735,
block,objects,objects064.bmp,,,,,0,154,154,154,,,,,,,,,,,,,,,,,,,,,,,,,,,,,,,,,,,,,,,,,,None,,221.32647535000288,None,221.32647535000288,None,2023-03-22-13:03:16.251927,221.32743000000482,221.64314510000986,221.32743000000482,None,None,221.32743000000482,None,222.1269295500155,None,,,,22051,0001,2023_Mar_22_1259,localizer,2021.1.3,60.061502982394735,
block,objects,objects039.bmp,,,,,0,155,155,155,,,,,,,,,,,,,,,,,,,,,,,,,,,,,,,,,,,,,,,,,,None,,222.1269295500155,None,222.1269295500155,None,2023-03-22-13:03:17.054140,222.12860840000212,222.44334470000467,222.12860840000212,222.12860840000212,None,222.12860840000212,222.12860840000212,222.9469320500124,None,,,,22051,0001,2023_Mar_22_1259,localizer,2021.1.3,60.061502982394735,
block,objects,objects069.bmp,,,,,0,156,156,156,,,,,,,,,,,,,,,,,,,,,,,,,,,,,,,,,,,,,,,,,,None,,222.9469320500124,None,222.9469320500124,None,2023-03-22-13:03:17.880227,222.964458500006,223.2764739000122,222.964458500006,None,None,222.964458500006,None,223.7599290500133,None,,,,22051,0001,2023_Mar_22_1259,localizer,2021.1.3,60.061502982394735,
block,objects,objects075.bmp,,,,,0,157,157,157,,,,,,,,,,,,,,,,,,,,,,,,,,,,,,,,,,,,,,,,,,None,,223.7599290500133,None,223.7599290500133,None,2023-03-22-13:03:18.685194,223.769895800011,224.0767452,223.769895800011,None,None,223.769895800011,None,224.5768838499993,None,,,,22051,0001,2023_Mar_22_1259,localizer,2021.1.3,60.061502982394735,
block,objects,objects083.bmp,,,,,0,158,158,158,,,,,,,,,,,,,,,,,,,,,,,,,,,,,,,,,,,,,,,,,,None,,224.5768838499993,None,224.5768838499993,None,2023-03-22-13:03:19.502331,224.57746520001092,224.87670750002144,224.57746520001092,None,None,224.57746520001092,None,225.37782295000798,None,,,,22051,0001,2023_Mar_22_1259,localizer,2021.1.3,60.061502982394735,
block,objects,objects030.bmp,,,,,0,159,159,159,,,,,,,,,,,,,,,,,,,,,,,,,,,,,,,,,,,,,,,,,,None,,225.37782295000798,None,225.37782295000798,None,2023-03-22-13:03:20.307237,225.39371970001957,225.69311350001954,225.39371970001957,225.39371970001957,None,225.39371970001957,225.39371970001957,226.1933246500179,None,,,,22051,0001,2023_Mar_22_1259,localizer,2021.1.3,60.061502982394735,
block,objects,objects002.bmp,,,,,0,160,160,160,,,,,,,,,,,,,,,,,,,,,,,,,,,,,,,,,,,,,,,,,,None,,226.1933246500179,None,226.1933246500179,None,2023-03-22-13:03:21.118733,226.20521690000896,226.50941570001305,226.20521690000896,None,None,226.20521690000896,None,227.01072505002085,None,,,,22051,0001,2023_Mar_22_1259,localizer,2021.1.3,60.061502982394735,
block,objects,objects082.bmp,,,,,0,161,161,161,,,,,,,,,,,,,,,,,,,,,,,,,,,,,,,,,,,,,,,,,,None,,227.01072505002085,None,227.01072505002085,None,2023-03-22-13:03:21.936065,227.01131290002377,227.33236510001007,227.01131290002377,None,None,227.01131290002377,None,227.82704635001429,None,,,,22051,0001,2023_Mar_22_1259,localizer,2021.1.3,60.061502982394735,
block,objects,objects022.bmp,,,,,0,162,162,162,,,,,,,,,,,,,,,,,,,,,,,,,,,,,,,,,,,,,,,,,,None,,227.82704635001429,None,227.82704635001429,None,2023-03-22-13:03:22.752637,227.83863700000802,228.14324190001935,227.83863700000802,None,None,227.83863700000802,None,228.64330865002412,None,,,,22051,0001,2023_Mar_22_1259,localizer,2021.1.3,60.061502982394735,
block,objects,objects003.bmp,,,,,0,163,163,163,,,,,,,,,,,,,,,,,,,,,,,,,,,,,,,,,,,,,,,,,,None,,228.64330865002412,None,228.64330865002412,None,2023-03-22-13:03:23.568701,228.64414790002047,228.94333930002176,228.64414790002047,None,None,228.64414790002047,None,229.4433893500158,None,,,,22051,0001,2023_Mar_22_1259,localizer,2021.1.3,60.061502982394735,
block,objects,objects068.bmp,,,,,0,164,164,164,,,,,,,,,,,,,,,,,,,,,,,,,,,,,,,,,,,,,,,,,,None,,229.4433893500158,None,229.4433893500158,None,2023-03-22-13:03:24.369798,229.45439630001783,229.75969570002053,229.45439630001783,229.45439630001783,None,229.45439630001783,229.45439630001783,230.25982105000585,None,,,,22051,0001,2023_Mar_22_1259,localizer,2021.1.3,60.061502982394735,
block,objects,objects088.bmp,,,,,0,165,165,165,,,,,,,,,,,,,,,,,,,,,,,,,,,,,,,,,,,,,,,,,,None,,230.25982105000585,None,230.25982105000585,None,2023-03-22-13:03:25.185260,230.2697248000186,230.57687680001254,230.2697248000186,None,None,230.2697248000186,None,231.0765050499962,None,,,,22051,0001,2023_Mar_22_1259,localizer,2021.1.3,60.061502982394735,
block,objects,objects042.bmp,,,,,0,166,166,166,,,,,,,,,,,,,,,,,,,,,,,,,,,,,,,,,,,,,,,,,,None,,231.0765050499962,None,231.0765050499962,None,2023-03-22-13:03:26.002179,231.07758830001694,231.37656120001338,231.07758830001694,None,None,231.07758830001694,None,231.87779065002397,None,,,,22051,0001,2023_Mar_22_1259,localizer,2021.1.3,60.061502982394735,
block_end,objects,objects010.bmp,,,,,0,167,167,167,,,,,,,,,,,,,,,,,,,,,,,,,,,,,,,,,,,,,,,,,,None,,231.87779065002397,None,231.87779065002397,None,2023-03-22-13:03:26.806434,231.88034540001536,232.19278690000647,231.88034540001536,231.88034540001536,None,231.88034540001536,231.88034540001536,232.69382745000476,None,,,,22051,0001,2023_Mar_22_1259,localizer,2021.1.3,60.061502982394735,
block_start,scrambled,scrambled055.bmp,,,,,0,168,168,168,,,,,,,,,,,,,,,,,,,,,,,,,,,,,,,,,,,,,,,,,,t,1.8006737000250723,232.6938163000159,None,232.6938163000159,None,2023-03-22-13:03:29.436019,234.52164780002204,234.82654790001106,234.52164780002204,None,None,234.52164780002204,None,235.32683195001155,None,,,,22051,0001,2023_Mar_22_1259,localizer,2021.1.3,60.061502982394735,
block,scrambled,scrambled046.bmp,,,,,0,169,169,169,,,,,,,,,,,,,,,,,,,,,,,,,,,,,,,,,,,,,,,,,,None,,235.32683195001155,None,235.32683195001155,None,2023-03-22-13:03:30.252397,235.3384629000211,235.6432044999965,235.3384629000211,None,None,235.3384629000211,None,236.14319814999763,None,,,,22051,0001,2023_Mar_22_1259,localizer,2021.1.3,60.061502982394735,
block,scrambled,scrambled046.bmp,,,,,0,170,170,170,,,,,,,,,,,,,,,,,,,,,,,,,,,,,,,,,,,,,,,,,,None,,236.14319814999763,None,236.14319814999763,None,2023-03-22-13:03:31.068789,236.14406570000574,236.44326460000593,236.14406570000574,None,y,236.14406570000574,None,236.94669005000324,None,0.6292066999885719,,,22051,0001,2023_Mar_22_1259,localizer,2021.1.3,60.061502982394735,
block,scrambled,scrambled006.bmp,,,,,0,171,171,171,,,,,,,,,,,,,,,,,,,,,,,,,,,,,,,,,,,,,,,,,,None,,236.94669005000324,None,236.94669005000324,None,2023-03-22-13:03:31.877434,236.96576780002215,237.27656440000283,236.96576780002215,236.96576780002215,None,236.96576780002215,236.96576780002215,237.76059885002033,None,,,,22051,0001,2023_Mar_22_1259,localizer,2021.1.3,60.061502982394735,
block,scrambled,scrambled068.bmp,,,,,0,172,172,172,,,,,,,,,,,,,,,,,,,,,,,,,,,,,,,,,,,,,,,,,,None,,237.76059885002033,None,237.76059885002033,None,2023-03-22-13:03:32.686409,237.77310150000267,238.07685040001525,237.77310150000267,None,None,237.77310150000267,None,238.5806322500197,None,,,,22051,0001,2023_Mar_22_1259,localizer,2021.1.3,60.061502982394735,
block,scrambled,scrambled015.bmp,,,,,0,173,173,173,,,,,,,,,,,,,,,,,,,,,,,,,,,,,,,,,,,,,,,,,,None,,238.5806322500197,None,238.5806322500197,None,2023-03-22-13:03:33.509269,238.58398080000188,238.89395330002299,238.58398080000188,None,None,238.58398080000188,None,239.39338405001618,None,,,,22051,0001,2023_Mar_22_1259,localizer,2021.1.3,60.061502982394735,
block,scrambled,scrambled053.bmp,,,,,0,174,174,174,,,,,,,,,,,,,,,,,,,,,,,,,,,,,,,,,,,,,,,,,,None,,239.39338405001618,None,239.39338405001618,None,2023-03-22-13:03:34.319221,239.40025629999582,239.70985360001214,239.40025629999582,None,None,239.40025629999582,None,240.2101467500237,None,,,,22051,0001,2023_Mar_22_1259,localizer,2021.1.3,60.061502982394735,
block,scrambled,scrambled013.bmp,,,,,0,175,175,175,,,,,,,,,,,,,,,,,,,,,,,,,,,,,,,,,,,,,,,,,,None,,240.2101467500237,None,240.2101467500237,None,2023-03-22-13:03:35.135838,240.22032190000755,240.53273360000458,240.22032190000755,None,None,240.22032190000755,None,241.02665634999576,None,,,,22051,0001,2023_Mar_22_1259,localizer,2021.1.3,60.061502982394735,
block,scrambled,scrambled078.bmp,,,,,0,176,176,176,,,,,,,,,,,,,,,,,,,,,,,,,,,,,,,,,,,,,,,,,,None,,241.02665634999576,None,241.02665634999576,None,2023-03-22-13:03:35.951683,241.03647439999622,241.3432781000156,241.03647439999622,None,None,241.03647439999622,None,241.84350955002301,None,,,,22051,0001,2023_Mar_22_1259,localizer,2021.1.3,60.061502982394735,
block,scrambled,scrambled073.bmp,,,,,0,177,177,177,,,,,,,,,,,,,,,,,,,,,,,,,,,,,,,,,,,,,,,,,,None,,241.84350955002301,None,241.84350955002301,None,2023-03-22-13:03:36.769244,241.84403930002009,242.14318529999582,241.84403930002009,None,None,241.84403930002009,None,242.64387265001133,None,,,,22051,0001,2023_Mar_22_1259,localizer,2021.1.3,60.061502982394735,
block,scrambled,scrambled071.bmp,,,,,0,178,178,178,,,,,,,,,,,,,,,,,,,,,,,,,,,,,,,,,,,,,,,,,,None,,242.64387265001133,None,242.64387265001133,None,2023-03-22-13:03:37.571810,242.6459056000167,242.96048040001187,242.6459056000167,242.6459056000167,None,242.6459056000167,242.6459056000167,243.46060645000253,None,,,,22051,0001,2023_Mar_22_1259,localizer,2021.1.3,60.061502982394735,
block,scrambled,scrambled051.bmp,,,,,0,179,179,179,,,,,,,,,,,,,,,,,,,,,,,,,,,,,,,,,,,,,,,,,,None,,243.46060645000253,None,243.46060645000253,None,2023-03-22-13:03:38.386481,243.47385380000924,243.77732340001967,243.47385380000924,None,None,243.47385380000924,None,244.27718565000978,None,,,,22051,0001,2023_Mar_22_1259,localizer,2021.1.3,60.061502982394735,
block,scrambled,scrambled047.bmp,,,,,0,180,180,180,,,,,,,,,,,,,,,,,,,,,,,,,,,,,,,,,,,,,,,,,,None,,244.27718565000978,None,244.27718565000978,None,2023-03-22-13:03:39.203168,244.2777888000128,244.5768761000072,244.2777888000128,None,None,244.2777888000128,None,245.09335675002367,None,,,,22051,0001,2023_Mar_22_1259,localizer,2021.1.3,60.061502982394735,
block,scrambled,scrambled049.bmp,,,,,0,181,181,181,,,,,,,,,,,,,,,,,,,,,,,,,,,,,,,,,,,,,,,,,,None,,245.09335675002367,None,245.09335675002367,None,2023-03-22-13:03:40.019181,245.09421900002053,245.39322759999777,245.09421900002053,None,None,245.09421900002053,None,245.89330514999747,None,,,,22051,0001,2023_Mar_22_1259,localizer,2021.1.3,60.061502982394735,
block_end,scrambled,scrambled061.bmp,,,,,0,182,182,182,,,,,,,,,,,,,,,,,,,,,,,,,,,,,,,,,,,,,,,,,,None,,245.89330514999747,None,245.89330514999747,None,2023-03-22-13:03:40.819151,245.89419290001388,246.19318950001616,245.89419290001388,245.89419290001388,None,245.89419290001388,245.89419290001388,246.6932917500002,None,,,,22051,0001,2023_Mar_22_1259,localizer,2021.1.3,60.061502982394735,
block_start,objects,objects054.bmp,,,,,0,183,183,183,,,,,,,,,,,,,,,,,,,,,,,,,,,,,,,,,,,,,,,,,,t,1.8013389999978244,246.69311170000583,None,246.69311170000583,None,2023-03-22-13:03:43.436754,248.51128170001903,248.81076720001874,248.51128170001903,None,None,248.51128170001903,None,249.3105623500218,None,,,,22051,0001,2023_Mar_22_1259,localizer,2021.1.3,60.061502982394735,
block,objects,objects048.bmp,,,,,0,184,184,184,,,,,,,,,,,,,,,,,,,,,,,,,,,,,,,,,,,,,,,,,,None,,249.3105623500218,None,249.3105623500218,None,2023-03-22-13:03:44.238482,249.32524240002385,249.62648140001693,249.32524240002385,249.32524240002385,None,249.32524240002385,249.32524240002385,250.12790915002407,None,,,,22051,0001,2023_Mar_22_1259,localizer,2021.1.3,60.061502982394735,
block,objects,objects023.bmp,,,,,0,185,185,185,,,,,,,,,,,,,,,,,,,,,,,,,,,,,,,,,,,,,,,,,,None,,250.12790915002407,None,250.12790915002407,None,2023-03-22-13:03:45.055029,250.14127920000465,250.4433216000034,250.14127920000465,None,None,250.14127920000465,None,250.94316884999571,None,,,,22051,0001,2023_Mar_22_1259,localizer,2021.1.3,60.061502982394735,
block,objects,objects082.bmp,,,,,0,186,186,186,,,,,,,,,,,,,,,,,,,,,,,,,,,,,,,,,,,,,,,,,,None,,250.94316884999571,None,250.94316884999571,None,2023-03-22-13:03:45.868147,250.94474870001432,251.25997199999983,250.94474870001432,None,None,250.94474870001432,None,251.7600191500009,None,,,,22051,0001,2023_Mar_22_1259,localizer,2021.1.3,60.061502982394735,
block,objects,objects024.bmp,,,,,0,187,187,187,,,,,,,,,,,,,,,,,,,,,,,,,,,,,,,,,,,,,,,,,,None,,251.7600191500009,None,251.7600191500009,None,2023-03-22-13:03:46.686018,251.77003130002413,252.0764962999965,251.77003130002413,None,None,251.77003130002413,None,252.57704755002342,None,,,,22051,0001,2023_Mar_22_1259,localizer,2021.1.3,60.061502982394735,
block,objects,objects063.bmp,,,,,0,188,188,188,,,,,,,,,,,,,,,,,,,,,,,,,,,,,,,,,,,,,,,,,,None,,252.57704755002342,None,252.57704755002342,None,2023-03-22-13:03:47.503274,252.58743330001016,252.89539920000243,252.58743330001016,None,None,252.58743330001016,None,253.3947604500194,None,,,,22051,0001,2023_Mar_22_1259,localizer,2021.1.3,60.061502982394735,
block,objects,objects074.bmp,,,,,0,189,189,189,,,,,,,,,,,,,,,,,,,,,,,,,,,,,,,,,,,,,,,,,,None,,253.3947604500194,None,253.3947604500194,None,2023-03-22-13:03:48.321782,253.40791480001644,253.70979730002,253.40791480001644,None,None,253.40791480001644,None,254.2102549500036,None,,,,22051,0001,2023_Mar_22_1259,localizer,2021.1.3,60.061502982394735,
block,objects,objects084.bmp,,,,,0,190,190,190,,,,,,,,,,,,,,,,,,,,,,,,,,,,,,,,,,,,,,,,,,None,,254.2102549500036,None,254.2102549500036,None,2023-03-22-13:03:49.136314,254.21106190001592,254.5264509000117,254.21106190001592,None,None,254.21106190001592,None,255.0262761500111,None,,,,22051,0001,2023_Mar_22_1259,localizer,2021.1.3,60.061502982394735,
block,objects,objects067.bmp,,,,,0,191,191,191,,,,,,,,,,,,,,,,,,,,,,,,,,,,,,,,,,,,,,,,,,None,,255.0262761500111,None,255.0262761500111,None,2023-03-22-13:03:49.951353,255.03623779999907,255.34317680000095,255.03623779999907,None,None,255.03623779999907,None,255.83331455001317,None,,,,22051,0001,2023_Mar_22_1259,localizer,2021.1.3,60.061502982394735,
block,objects,objects008.bmp,,,,,0,192,192,192,,,,,,,,,,,,,,,,,,,,,,,,,,,,,,,,,,,,,,,,,,None,,255.83331455001317,None,255.83331455001317,None,2023-03-22-13:03:50.765596,255.85344970002188,256.16667580002104,255.85344970002188,None,None,255.85344970002188,None,256.6441427500016,None,,,,22051,0001,2023_Mar_22_1259,localizer,2021.1.3,60.061502982394735,
block,objects,objects034.bmp,,,,,0,193,193,193,,,,,,,,,,,,,,,,,,,,,,,,,,,,,,,,,,,,,,,,,,None,,256.6441427500016,None,256.6441427500016,None,2023-03-22-13:03:51.570465,256.6568479000125,256.96004550001817,256.6568479000125,None,None,256.6568479000125,None,257.4602449500147,None,,,,22051,0001,2023_Mar_22_1259,localizer,2021.1.3,60.061502982394735,
block,objects,objects002.bmp,,,,,0,194,194,194,,,,,,,,,,,,,,,,,,,,,,,,,,,,,,,,,,,,,,,,,,None,,257.4602449500147,None,257.4602449500147,None,2023-03-22-13:03:52.386389,257.4610682000057,257.7765873000026,257.4610682000057,None,None,257.4610682000057,None,258.2604904500098,None,,,,22051,0001,2023_Mar_22_1259,localizer,2021.1.3,60.061502982394735,
block,objects,objects002.bmp,,,,,0,195,195,195,,,,,,,,,,,,,,,,,,,,,,,,,,,,,,,,,,,,,,,,,,None,,258.2604904500098,None,258.2604904500098,None,2023-03-22-13:03:53.188648,258.2622420999978,258.55995580001036,258.2622420999978,258.2622420999978,y,258.2622420999978,258.2622420999978,259.0769536500069,None,0.5800729000184219,,,22051,0001,2023_Mar_22_1259,localizer,2021.1.3,60.061502982394735,
block,objects,objects032.bmp,,,,,0,196,196,196,,,,,,,,,,,,,,,,,,,,,,,,,,,,,,,,,,,,,,,,,,None,,259.0769536500069,None,259.0769536500069,None,2023-03-22-13:03:54.003143,259.07761700000265,259.37678790002246,259.07761700000265,None,None,259.07761700000265,None,259.87712855001735,None,,,,22051,0001,2023_Mar_22_1259,localizer,2021.1.3,60.061502982394735,
block_end,objects,objects004.bmp,,,,,0,197,197,197,,,,,,,,,,,,,,,,,,,,,,,,,,,,,,,,,,,,,,,,,,None,,259.87712855001735,None,259.87712855001735,None,2023-03-22-13:03:54.804452,259.88992760001565,260.1931711000216,259.88992760001565,259.88992760001565,None,259.88992760001565,259.88992760001565,260.69350075002,None,,,,22051,0001,2023_Mar_22_1259,localizer,2021.1.3,60.061502982394735,
block_start,scenes,scenes092.bmp,,,,,0,198,198,198,,,,,,,,,,,,,,,,,,,,,,,,,,,,,,,,,,,,,,,,,,t,1.8003395999839995,260.6933108000085,None,260.6933108000085,None,2023-03-22-13:03:57.436633,262.5166006000072,262.8266986000235,262.5166006000072,None,None,262.5166006000072,None,263.32725545000574,None,,,,22051,0001,2023_Mar_22_1259,localizer,2021.1.3,60.061502982394735,
block,scenes,scenes036.bmp,,,,,0,199,199,199,,,,,,,,,,,,,,,,,,,,,,,,,,,,,,,,,,,,,,,,,,None,,263.32725545000574,None,263.32725545000574,None,2023-03-22-13:03:58.253772,263.33994610002264,263.6433883999998,263.33994610002264,None,None,263.33994610002264,None,264.1436408500216,None,,,,22051,0001,2023_Mar_22_1259,localizer,2021.1.3,60.061502982394735,
block,scenes,scenes075.bmp,,,,,0,200,200,200,,,,,,,,,,,,,,,,,,,,,,,,,,,,,,,,,,,,,,,,,,None,,264.1436408500216,None,264.1436408500216,None,2023-03-22-13:03:59.070173,264.1545354000118,264.46006680000573,264.1545354000118,None,None,264.1545354000118,None,264.9602491500176,None,,,,22051,0001,2023_Mar_22_1259,localizer,2021.1.3,60.061502982394735,
block,scenes,scenes018.bmp,,,,,0,201,201,201,,,,,,,,,,,,,,,,,,,,,,,,,,,,,,,,,,,,,,,,,,None,,264.9602491500176,None,264.9602491500176,None,2023-03-22-13:03:59.885770,264.96085070000845,265.2601102000044,264.96085070000845,None,None,264.96085070000845,None,265.76009315001136,None,,,,22051,0001,2023_Mar_22_1259,localizer,2021.1.3,60.061502982394735,
block,scenes,scenes060.bmp,,,,,0,202,202,202,,,,,,,,,,,,,,,,,,,,,,,,,,,,,,,,,,,,,,,,,,None,,265.76009315001136,None,265.76009315001136,None,2023-03-22-13:04:00.688391,265.76097250002204,266.07678730000043,265.76097250002204,265.76097250002204,None,265.76097250002204,265.76097250002204,266.5606724500161,None,,,,22051,0001,2023_Mar_22_1259,localizer,2021.1.3,60.061502982394735,
block,scenes,scenes037.bmp,,,,,0,203,203,203,,,,,,,,,,,,,,,,,,,,,,,,,,,,,,,,,,,,,,,,,,None,,266.5606724500161,None,266.5606724500161,None,2023-03-22-13:04:01.488867,266.5620022000221,266.87660450002295,266.5620022000221,266.5620022000221,None,266.5620022000221,266.5620022000221,267.37697435000734,None,,,,22051,0001,2023_Mar_22_1259,localizer,2021.1.3,60.061502982394735,
block,scenes,scenes005.bmp,,,,,0,204,204,204,,,,,,,,,,,,,,,,,,,,,,,,,,,,,,,,,,,,,,,,,,None,,267.37697435000734,None,267.37697435000734,None,2023-03-22-13:04:02.303272,267.3877413000155,267.6937281000137,267.3877413000155,None,None,267.3877413000155,None,268.1947726500133,None,,,,22051,0001,2023_Mar_22_1259,localizer,2021.1.3,60.061502982394735,
block,scenes,scenes069.bmp,,,,,0,205,205,205,,,,,,,,,,,,,,,,,,,,,,,,,,,,,,,,,,,,,,,,,,None,,268.1947726500133,None,268.1947726500133,None,2023-03-22-13:04:03.122054,268.2062980000046,268.5099371999968,268.2062980000046,None,None,268.2062980000046,None,269.01033115001917,None,,,,22051,0001,2023_Mar_22_1259,localizer,2021.1.3,60.061502982394735,
block,scenes,scenes061.bmp,,,,,0,206,206,206,,,,,,,,,,,,,,,,,,,,,,,,,,,,,,,,,,,,,,,,,,None,,269.01033115001917,None,269.01033115001917,None,2023-03-22-13:04:03.935626,269.012623800023,269.3265773000021,269.012623800023,None,None,269.012623800023,None,269.82814275001,None,,,,22051,0001,2023_Mar_22_1259,localizer,2021.1.3,60.061502982394735,
block,scenes,scenes035.bmp,,,,,0,207,207,207,,,,,,,,,,,,,,,,,,,,,,,,,,,,,,,,,,,,,,,,,,None,,269.82814275001,None,269.82814275001,None,2023-03-22-13:04:04.755584,269.8287452000077,270.1433946000179,269.8287452000077,None,None,269.8287452000077,None,270.64357915001744,None,,,,22051,0001,2023_Mar_22_1259,localizer,2021.1.3,60.061502982394735,
block,scenes,scenes074.bmp,,,,,0,208,208,208,,,,,,,,,,,,,,,,,,,,,,,,,,,,,,,,,,,,,,,,,,None,,270.64357915001744,None,270.64357915001744,None,2023-03-22-13:04:05.569287,270.64449639999657,270.94967140001245,270.64449639999657,None,None,270.64449639999657,None,271.45982735000723,None,,,,22051,0001,2023_Mar_22_1259,localizer,2021.1.3,60.061502982394735,
block,scenes,scenes010.bmp,,,,,0,209,209,209,,,,,,,,,,,,,,,,,,,,,,,,,,,,,,,,,,,,,,,,,,None,,271.45982735000723,None,271.45982735000723,None,2023-03-22-13:04:06.385137,271.4696193000127,271.7765547000163,271.4696193000127,None,None,271.4696193000127,None,272.2768393500213,None,,,,22051,0001,2023_Mar_22_1259,localizer,2021.1.3,60.061502982394735,
block,scenes,scenes039.bmp,,,,,0,210,210,210,,,,,,,,,,,,,,,,,,,,,,,,,,,,,,,,,,,,,,,,,,None,,272.2768393500213,None,272.2768393500213,None,2023-03-22-13:04:07.202579,272.28755580002326,272.593285400013,272.28755580002326,None,None,272.28755580002326,None,273.0937273500225,None,,,,22051,0001,2023_Mar_22_1259,localizer,2021.1.3,60.061502982394735,
block,scenes,scenes003.bmp,,,,,0,211,211,211,,,,,,,,,,,,,,,,,,,,,,,,,,,,,,,,,,,,,,,,,,None,,273.0937273500225,None,273.0937273500225,None,2023-03-22-13:04:08.020027,273.1059855000058,273.4099027000193,273.1059855000058,None,None,273.1059855000058,None,273.9101972500124,None,,,,22051,0001,2023_Mar_22_1259,localizer,2021.1.3,60.061502982394735,
block_end,scenes,scenes001.bmp,,,,,0,212,212,212,,,,,,,,,,,,,,,,,,,,,,,,,,,,,,,,,,,,,,,,,,None,,273.9101972500124,None,273.9101972500124,None,2023-03-22-13:04:08.836500,273.92085439999937,274.2266569000203,273.92085439999937,None,None,273.92085439999937,None,274.72699715001215,None,,,,22051,0001,2023_Mar_22_1259,localizer,2021.1.3,60.061502982394735,
block_start,scrambled,scrambled041.bmp,,,,,0,213,213,213,,,,,,,,,,,,,,,,,,,,,,,,,,,,,,,,,,,,,,,,,,t,1.7668639000039548,274.72671970000374,None,274.72671970000374,None,2023-03-22-13:04:11.434282,276.51877799999784,276.82682580000255,276.51877799999784,None,None,276.51877799999784,None,277.327100350018,None,,,,22051,0001,2023_Mar_22_1259,localizer,2021.1.3,60.061502982394735,
block,scrambled,scrambled077.bmp,,,,,0,214,214,214,,,,,,,,,,,,,,,,,,,,,,,,,,,,,,,,,,,,,,,,,,None,,277.327100350018,None,277.327100350018,None,2023-03-22-13:04:12.253501,277.3387733999989,277.643392900005,277.3387733999989,None,y,277.3387733999989,None,278.1437893500173,None,0.47652650001691654,,,22051,0001,2023_Mar_22_1259,localizer,2021.1.3,60.061502982394735,
block,scrambled,scrambled074.bmp,,,,,0,215,215,215,,,,,,,,,,,,,,,,,,,,,,,,,,,,,,,,,,,,,,,,,,None,,278.1437893500173,None,278.1437893500173,None,2023-03-22-13:04:13.070303,278.1444334000116,278.44374499999685,278.1444334000116,None,None,278.1444334000116,None,278.94384655000465,None,,,,22051,0001,2023_Mar_22_1259,localizer,2021.1.3,60.061502982394735,
block,scrambled,scrambled006.bmp,,,,,0,216,216,216,,,,,,,,,,,,,,,,,,,,,,,,,,,,,,,,,,,,,,,,,,None,,278.94384655000465,None,278.94384655000465,None,2023-03-22-13:04:13.872178,278.9444633999956,279.2600926000159,278.9444633999956,278.9444633999956,None,278.9444633999956,278.9444633999956,279.7436051500175,None,,,,22051,0001,2023_Mar_22_1259,localizer,2021.1.3,60.061502982394735,
block,scrambled,scrambled060.bmp,,,,,0,217,217,217,,,,,,,,,,,,,,,,,,,,,,,,,,,,,,,,,,,,,,,,,,None,,279.7436051500175,None,279.7436051500175,None,2023-03-22-13:04:14.671906,279.7556252000213,280.06018709999626,279.7556252000213,279.7556252000213,None,279.7556252000213,279.7556252000213,280.5602960500022,None,,,,22051,0001,2023_Mar_22_1259,localizer,2021.1.3,60.061502982394735,
block,scrambled,scrambled045.bmp,,,,,0,218,218,218,,,,,,,,,,,,,,,,,,,,,,,,,,,,,,,,,,,,,,,,,,None,,280.5602960500022,None,280.5602960500022,None,2023-03-22-13:04:15.487082,280.5716330000141,280.8765736000205,280.5716330000141,None,None,280.5716330000141,None,281.37698575000684,None,,,,22051,0001,2023_Mar_22_1259,localizer,2021.1.3,60.061502982394735,
block,scrambled,scrambled067.bmp,,,,,0,219,219,219,,,,,,,,,,,,,,,,,,,,,,,,,,,,,,,,,,,,,,,,,,None,,281.37698575000684,None,281.37698575000684,None,2023-03-22-13:04:16.302293,281.38703010001336,281.6935131000064,281.38703010001336,None,None,281.38703010001336,None,282.19368205000353,None,,,,22051,0001,2023_Mar_22_1259,localizer,2021.1.3,60.061502982394735,
block,scrambled,scrambled015.bmp,,,,,0,220,220,220,,,,,,,,,,,,,,,,,,,,,,,,,,,,,,,,,,,,,,,,,,None,,282.19368205000353,None,282.19368205000353,None,2023-03-22-13:04:17.119985,282.19459410000127,282.51019760000054,282.19459410000127,None,None,282.19459410000127,None,282.9937203500216,None,,,,22051,0001,2023_Mar_22_1259,localizer,2021.1.3,60.061502982394735,
block,scrambled,scrambled085.bmp,,,,,0,221,221,221,,,,,,,,,,,,,,,,,,,,,,,,,,,,,,,,,,,,,,,,,,None,,282.9937203500216,None,282.9937203500216,None,2023-03-22-13:04:17.921022,283.0029498000222,283.3102833000012,283.0029498000222,283.0029498000222,None,283.0029498000222,283.0029498000222,283.8109379500005,None,,,,22051,0001,2023_Mar_22_1259,localizer,2021.1.3,60.061502982394735,
block,scrambled,scrambled016.bmp,,,,,0,222,222,222,,,,,,,,,,,,,,,,,,,,,,,,,,,,,,,,,,,,,,,,,,None,,283.8109379500005,None,283.8109379500005,None,2023-03-22-13:04:18.737427,283.8235758000228,284.1267274999991,283.8235758000228,None,None,283.8235758000228,None,284.6270693500031,None,,,,22051,0001,2023_Mar_22_1259,localizer,2021.1.3,60.061502982394735,
block,scrambled,scrambled054.bmp,,,,,0,223,223,223,,,,,,,,,,,,,,,,,,,,,,,,,,,,,,,,,,,,,,,,,,None,,284.6270693500031,None,284.6270693500031,None,2023-03-22-13:04:19.552377,284.63734470002237,284.94993190001696,284.63734470002237,None,None,284.63734470002237,None,285.4436924499954,None,,,,22051,0001,2023_Mar_22_1259,localizer,2021.1.3,60.061502982394735,
block,scrambled,scrambled082.bmp,,,,,0,224,224,224,,,,,,,,,,,,,,,,,,,,,,,,,,,,,,,,,,,,,,,,,,None,,285.4436924499954,None,285.4436924499954,None,2023-03-22-13:04:20.369000,285.4446554000024,285.7450826000131,285.4446554000024,None,None,285.4446554000024,None,286.24487975000227,None,,,,22051,0001,2023_Mar_22_1259,localizer,2021.1.3,60.061502982394735,
block,scrambled,scrambled010.bmp,,,,,0,225,225,225,,,,,,,,,,,,,,,,,,,,,,,,,,,,,,,,,,,,,,,,,,None,,286.24487975000227,None,286.24487975000227,None,2023-03-22-13:04:21.174339,286.26007420002134,286.5607241000107,286.26007420002134,286.26007420002134,None,286.26007420002134,286.26007420002134,287.06067135000774,None,,,,22051,0001,2023_Mar_22_1259,localizer,2021.1.3,60.061502982394735,
block,scrambled,scrambled076.bmp,,,,,0,226,226,226,,,,,,,,,,,,,,,,,,,,,,,,,,,,,,,,,,,,,,,,,,None,,287.06067135000774,None,287.06067135000774,None,2023-03-22-13:04:21.987169,287.0687540000072,287.3765790000034,287.0687540000072,None,None,287.0687540000072,None,287.8665012500045,None,,,,22051,0001,2023_Mar_22_1259,localizer,2021.1.3,60.061502982394735,
block_end,scrambled,scrambled014.bmp,,,,,0,227,227,227,,,,,,,,,,,,,,,,,,,,,,,,,,,,,,,,,,,,,,,,,,None,,287.8665012500045,None,287.8665012500045,None,2023-03-22-13:04:22.795181,287.88381800000207,288.19417990001966,287.88381800000207,None,None,287.88381800000207,None,288.67830094999806,None,,,,22051,0001,2023_Mar_22_1259,localizer,2021.1.3,60.061502982394735,
null_block,null_block,null_block.bmp,,,,,0,228,228,228,,,,,,,,,,,,,,,,,,,,,,,,,,,,,,,,,,,,,,,,,,t,1.8156066999945324,288.678080600017,None,288.678080600017,None,2023-03-22-13:04:25.435499,290.5103057500004,None,290.5103057500004,None,None,290.5103057500004,None,290.5115550000046,None,,,,22051,0001,2023_Mar_22_1259,localizer,2021.1.3,60.061502982394735,
block_start,faces,faces034.bmp,,,,,0,229,229,229,,,,,,,,,,,,,,,,,,,,,,,,,,,,,,,,,,,,,,,,,,t,1.9828561000176705,302.51094629999716,None,302.51094629999716,None,2023-03-22-13:04:39.439772,304.5250650999951,304.82719810001436,304.5250650999951,None,None,304.5250650999951,None,305.32771985002034,None,,,,22051,0001,2023_Mar_22_1259,localizer,2021.1.3,60.061502982394735,
block,faces,faces069.bmp,,,,,0,230,230,230,,,,,,,,,,,,,,,,,,,,,,,,,,,,,,,,,,,,,,,,,,None,,305.32771985002034,None,305.32771985002034,None,2023-03-22-13:04:40.254017,305.3286519999965,305.6436364999972,305.3286519999965,None,None,305.3286519999965,None,306.14388135001934,None,,,,22051,0001,2023_Mar_22_1259,localizer,2021.1.3,60.061502982394735,
block,faces,faces018.bmp,,,,,0,231,231,231,,,,,,,,,,,,,,,,,,,,,,,,,,,,,,,,,,,,,,,,,,None,,306.14388135001934,None,306.14388135001934,None,2023-03-22-13:04:41.070573,306.15539010000066,306.46080540001276,306.15539010000066,None,None,306.15539010000066,None,306.960597150019,None,,,,22051,0001,2023_Mar_22_1259,localizer,2021.1.3,60.061502982394735,
block,faces,faces027.bmp,,,,,0,232,232,232,,,,,,,,,,,,,,,,,,,,,,,,,,,,,,,,,,,,,,,,,,None,,306.960597150019,None,306.960597150019,None,2023-03-22-13:04:41.886903,306.97237540001515,307.2767067000095,306.97237540001515,None,None,306.97237540001515,None,307.77738695000005,None,,,,22051,0001,2023_Mar_22_1259,localizer,2021.1.3,60.061502982394735,
block,faces,faces002.bmp,,,,,0,233,233,233,,,,,,,,,,,,,,,,,,,,,,,,,,,,,,,,,,,,,,,,,,None,,307.77738695000005,None,307.77738695000005,None,2023-03-22-13:04:42.703897,307.79017439999734,308.0937443000148,307.79017439999734,None,None,307.79017439999734,None,308.5937984500109,None,,,,22051,0001,2023_Mar_22_1259,localizer,2021.1.3,60.061502982394735,
block,faces,faces086.bmp,,,,,0,234,234,234,,,,,,,,,,,,,,,,,,,,,,,,,,,,,,,,,,,,,,,,,,None,,308.5937984500109,None,308.5937984500109,None,2023-03-22-13:04:43.519383,308.5955740000063,308.9103805000195,308.5955740000063,None,None,308.5955740000063,None,309.4102921500074,None,,,,22051,0001,2023_Mar_22_1259,localizer,2021.1.3,60.061502982394735,
block,faces,faces047.bmp,,,,,0,235,235,235,,,,,,,,,,,,,,,,,,,,,,,,,,,,,,,,,,,,,,,,,,None,,309.4102921500074,None,309.4102921500074,None,2023-03-22-13:04:44.335608,309.41213620000053,309.7273107000219,309.41213620000053,None,None,309.41213620000053,None,310.2276282500155,None,,,,22051,0001,2023_Mar_22_1259,localizer,2021.1.3,60.061502982394735,
block,faces,faces053.bmp,,,,,0,236,236,236,,,,,,,,,,,,,,,,,,,,,,,,,,,,,,,,,,,,,,,,,,None,,310.2276282500155,None,310.2276282500155,None,2023-03-22-13:04:45.153924,310.2353597000183,310.5433669000049,310.2353597000183,None,None,310.2353597000183,None,311.04359225002406,None,,,,22051,0001,2023_Mar_22_1259,localizer,2021.1.3,60.061502982394735,
block,faces,faces082.bmp,,,,,0,237,237,237,,,,,,,,,,,,,,,,,,,,,,,,,,,,,,,,,,,,,,,,,,None,,311.04359225002406,None,311.04359225002406,None,2023-03-22-13:04:45.969906,311.0554706999974,311.36043000000063,311.0554706999974,None,None,311.0554706999974,None,311.8603820500051,None,,,,22051,0001,2023_Mar_22_1259,localizer,2021.1.3,60.061502982394735,
block,faces,faces065.bmp,,,,,0,238,238,238,,,,,,,,,,,,,,,,,,,,,,,,,,,,,,,,,,,,,,,,,,None,,311.8603820500051,None,311.8603820500051,None,2023-03-22-13:04:46.785230,311.86228890001075,312.17666520000785,311.86228890001075,None,None,311.86228890001075,None,312.67701355000315,None,,,,22051,0001,2023_Mar_22_1259,localizer,2021.1.3,60.061502982394735,
block,faces,faces025.bmp,,,,,0,239,239,239,,,,,,,,,,,,,,,,,,,,,,,,,,,,,,,,,,,,,,,,,,None,,312.67701355000315,None,312.67701355000315,None,2023-03-22-13:04:47.602326,312.68690739999874,312.99379510001745,312.68690739999874,None,None,312.68690739999874,None,313.4939588500041,None,,,,22051,0001,2023_Mar_22_1259,localizer,2021.1.3,60.061502982394735,
block,faces,faces026.bmp,,,,,0,240,240,240,,,,,,,,,,,,,,,,,,,,,,,,,,,,,,,,,,,,,,,,,,None,,313.4939588500041,None,313.4939588500041,None,2023-03-22-13:04:48.420477,313.5336789000139,313.8439282000181,313.5336789000139,None,None,313.5336789000139,None,314.3107314499997,None,,,,22051,0001,2023_Mar_22_1259,localizer,2021.1.3,60.061502982394735,
block,faces,faces033.bmp,,,,,0,241,241,241,,,,,,,,,,,,,,,,,,,,,,,,,,,,,,,,,,,,,,,,,,None,,314.3107314499997,None,314.3107314499997,None,2023-03-22-13:04:49.237037,314.3290774000052,314.64393530000234,314.3290774000052,None,None,314.3290774000052,None,315.12728115001516,None,,,,22051,0001,2023_Mar_22_1259,localizer,2021.1.3,60.061502982394735,
block,faces,faces074.bmp,,,,,0,242,242,242,,,,,,,,,,,,,,,,,,,,,,,,,,,,,,,,,,,,,,,,,,None,,315.12728115001516,None,315.12728115001516,None,2023-03-22-13:04:50.053591,315.12823500001105,315.4438947000017,315.12823500001105,None,None,315.12823500001105,None,315.92847975002076,None,,,,22051,0001,2023_Mar_22_1259,localizer,2021.1.3,60.061502982394735,
block_end,faces,faces013.bmp,,,,,0,243,243,243,,,,,,,,,,,,,,,,,,,,,,,,,,,,,,,,,,,,,,,,,,None,,315.92847975002076,None,315.92847975002076,None,2023-03-22-13:04:50.858784,315.94538710001507,316.2603710000112,315.94538710001507,315.94538710001507,None,315.94538710001507,315.94538710001507,316.74509684999646,None,,,,22051,0001,2023_Mar_22_1259,localizer,2021.1.3,60.061502982394735,
,,,,,,,,,,,,,,,,,,,,,,,,,,,,,,,,,,,,,,,,,,,,,,,,,,,,,,,,,,,,,,,,,,,,,316.749828,None,,,,,,,
