block_type,condition,img_name,Button.thisRepN,Button.thisTrialN,Button.thisN,Button.thisIndex,trials.thisRepN,trials.thisTrialN,trials.thisN,trials.thisIndex,Ready_experimenter_text.started,Ready_experimenter_text.stopped,Ready_experimenter_resp.keys,Ready_experimenter_resp.rt,Ready_experimenter_resp.started,Ready_experimenter_resp.stopped,Alignment_background.started,Alignment_background.stopped,Alignment_image.started,Alignment_image.stopped,Alignment_resp.keys,Alignment_resp.rt,Alignment_resp.started,Alignment_resp.stopped,Button_text.started,Button_text.stopped,Index_text.started,Index_text.stopped,Index_resp.keys,Index_resp.rt,Index_resp.started,Index_resp.stopped,Middle_text.started,Middle_text.stopped,Middle_resp.keys,Middle_resp.rt,Middle_resp.started,Middle_resp.stopped,Repeat_text.started,Repeat_text.stopped,Repeat_resp.keys,Repeat_resp.corr,Repeat_resp.rt,Repeat_resp.started,Repeat_resp.stopped,instruction_text.started,instruction_text.stopped,key_resp.keys,key_resp.rt,key_resp.started,key_resp.stopped,scanner_t.keys,scanner_t.rt,scanner_t.started,scanner_t.stopped,fixation_wait_for_t.started,fixation_wait_for_t.stopped,real_timestamp_trial_start,image.started,image.stopped,fixation.started,fixation.stopped,repeat_response.keys,repeat_response.started,repeat_response.stopped,fixation_null.started,fixation_null.stopped,repeat_response.rt,end_text.started,end_text.stopped,participant,run,date,expName,psychopyVersion,frameRate,
,,,,,,,,,,,11.197987699881196,None,return,65.77434300025925,11.197987699881196,None,,,,,,,,,,,,,,,,,,,,,,,,,,,,,,,,,,,,,,,,,,,,,,,,,,,,,,,22013,0001,2022_Sep_08_1353,localizer,2021.1.3,61.50174967437977,
,,,,,,,,,,,,,,,,,77.01669899979606,None,77.01669899979606,None,return,3.9521114001981914,77.01669899979606,None,,,,,,,,,,,,,,,,,,,,,,,,,,,,,,,,,,,,,,,,,,,,,,,22013,0001,2022_Sep_08_1353,localizer,2021.1.3,61.50174967437977,
,,,0,0,0,0,,,,,,,,,,,,,,,,,,,80.99574499996379,None,82.01121019991115,None,y,1.999452999792993,82.01121019991115,None,84.02865229966119,None,b,1.0281926998868585,84.02865229966119,None,85.07978909974918,None,n,0,1.2084128996357322,85.07978909974918,None,,,,,,,,,,,,,,,,,,,,,,,,,,22013,0001,2022_Sep_08_1353,localizer,2021.1.3,61.50174967437977,
,,,,,,,,,,,,,,,,,,,,,,,,,,,,,,,,,,,,,,,,,,,,,,86.31206799997017,None,y,35.97683160007,86.31206799997017,None,,,,,,,,,,,,,,,,,,,,22013,0001,2022_Sep_08_1353,localizer,2021.1.3,61.50174967437977,
null_block,null_block,null_block.bmp,,,,,0,0,0,0,,,,,,,,,,,,,,,,,,,,,,,,,,,,,,,,,,,,,,,,,,t,18.790381299797446,122.36770829977468,None,122.36770829977468,None,2022-09-08-13:55:51.923346,141.20077435988935,None,141.20077435988935,None,None,141.20077435988935,None,141.19856339972466,None,,,,22013,0001,2022_Sep_08_1353,localizer,2021.1.3,61.50174967437977,
block_start,scenes,scenes076.bmp,,,,,0,1,1,1,,,,,,,,,,,,,,,,,,,,,,,,,,,,,,,,,,,,,,,,,,t,1.9452787996269763,153.2125184996985,None,153.2125184996985,None,2022-09-08-13:56:05.915744,155.18646019976586,155.49581009987742,155.18646019976586,None,None,155.18646019976586,None,155.9948200799525,None,,,,22013,0001,2022_Sep_08_1353,localizer,2021.1.3,61.50174967437977,
block,scenes,scenes005.bmp,,,,,0,2,2,2,,,,,,,,,,,,,,,,,,,,,,,,,,,,,,,,,,,,,,,,,,None,,155.9948200799525,None,155.9948200799525,None,2022-09-08-13:56:06.729812,155.9987240000628,156.31179369986057,155.9987240000628,None,None,155.9987240000628,None,156.81203587977217,None,,,,22013,0001,2022_Sep_08_1353,localizer,2021.1.3,61.50174967437977,
block,scenes,scenes057.bmp,,,,,0,3,3,3,,,,,,,,,,,,,,,,,,,,,,,,,,,,,,,,,,,,,,,,,,None,,156.81203587977217,None,156.81203587977217,None,2022-09-08-13:56:07.547025,156.81729819998145,157.12829989986494,156.81729819998145,None,None,156.81729819998145,None,157.6283709799871,None,,,,22013,0001,2022_Sep_08_1353,localizer,2021.1.3,61.50174967437977,
block,scenes,scenes066.bmp,,,,,0,4,4,4,,,,,,,,,,,,,,,,,,,,,,,,,,,,,,,,,,,,,,,,,,None,,157.6283709799871,None,157.6283709799871,None,2022-09-08-13:56:08.363378,157.63379539968446,157.94570369971916,157.63379539968446,None,None,157.63379539968446,None,158.44491147967057,None,,,,22013,0001,2022_Sep_08_1353,localizer,2021.1.3,61.50174967437977,
block,scenes,scenes033.bmp,,,,,0,5,5,5,,,,,,,,,,,,,,,,,,,,,,,,,,,,,,,,,,,,,,,,,,None,,158.44491147967057,None,158.44491147967057,None,2022-09-08-13:56:09.179910,158.4557964000851,158.761760099791,158.4557964000851,None,None,158.4557964000851,None,159.2611767800525,None,,,,22013,0001,2022_Sep_08_1353,localizer,2021.1.3,61.50174967437977,
block,scenes,scenes017.bmp,,,,,0,6,6,6,,,,,,,,,,,,,,,,,,,,,,,,,,,,,,,,,,,,,,,,,,None,,159.2611767800525,None,159.2611767800525,None,2022-09-08-13:56:10.002161,159.27567119989544,159.57957629999146,159.27567119989544,None,None,159.27567119989544,None,160.07797807985918,None,,,,22013,0001,2022_Sep_08_1353,localizer,2021.1.3,61.50174967437977,
block,scenes,scenes070.bmp,,,,,0,7,7,7,,,,,,,,,,,,,,,,,,,,,,,,,,,,,,,,,,,,,,,,,,None,,160.07797807985918,None,160.07797807985918,None,2022-09-08-13:56:10.812172,160.08646570006385,160.39518429990858,160.08646570006385,None,None,160.08646570006385,None,160.90164187988267,None,,,,22013,0001,2022_Sep_08_1353,localizer,2021.1.3,61.50174967437977,
block,scenes,scenes045.bmp,,,,,0,8,8,8,,,,,,,,,,,,,,,,,,,,,,,,,,,,,,,,,,,,,,,,,,None,,160.90164187988267,None,160.90164187988267,None,2022-09-08-13:56:11.644518,160.9160503000021,161.22882269974798,160.9160503000021,None,None,160.9160503000021,None,161.71158838011326,None,,,,22013,0001,2022_Sep_08_1353,localizer,2021.1.3,61.50174967437977,
block,scenes,scenes018.bmp,,,,,0,9,9,9,,,,,,,,,,,,,,,,,,,,,,,,,,,,,,,,,,,,,,,,,,None,,161.71158838011326,None,161.71158838011326,None,2022-09-08-13:56:12.446052,161.72077360004187,162.0313776996918,161.72077360004187,None,None,161.72077360004187,None,162.5287547797896,None,,,,22013,0001,2022_Sep_08_1353,localizer,2021.1.3,61.50174967437977,
block,scenes,scenes073.bmp,,,,,0,10,10,10,,,,,,,,,,,,,,,,,,,,,,,,,,,,,,,,,,,,,,,,,,None,,162.5287547797896,None,162.5287547797896,None,2022-09-08-13:56:13.263929,162.53578229993582,162.84592789970338,162.53578229993582,None,None,162.53578229993582,None,163.3454964800738,None,,,,22013,0001,2022_Sep_08_1353,localizer,2021.1.3,61.50174967437977,
block,scenes,scenes088.bmp,,,,,0,11,11,11,,,,,,,,,,,,,,,,,,,,,,,,,,,,,,,,,,,,,,,,,,None,,163.3454964800738,None,163.3454964800738,None,2022-09-08-13:56:14.081275,163.35175269981846,163.66218130011111,163.35175269981846,None,None,163.35175269981846,None,164.16211027996616,None,,,,22013,0001,2022_Sep_08_1353,localizer,2021.1.3,61.50174967437977,
block,scenes,scenes004.bmp,,,,,0,12,12,12,,,,,,,,,,,,,,,,,,,,,,,,,,,,,,,,,,,,,,,,,,None,,164.16211027996616,None,164.16211027996616,None,2022-09-08-13:56:14.897099,164.17435989994556,164.47892899997532,164.17435989994556,None,None,164.17435989994556,None,164.97822047974915,None,,,,22013,0001,2022_Sep_08_1353,localizer,2021.1.3,61.50174967437977,
block,scenes,scenes009.bmp,,,,,0,13,13,13,,,,,,,,,,,,,,,,,,,,,,,,,,,,,,,,,,,,,,,,,,None,,164.97822047974915,None,164.97822047974915,None,2022-09-08-13:56:15.712223,164.98612589994445,165.29551369976252,164.98612589994445,None,None,164.98612589994445,None,165.79512997968123,None,,,,22013,0001,2022_Sep_08_1353,localizer,2021.1.3,61.50174967437977,
block,scenes,scenes049.bmp,,,,,0,14,14,14,,,,,,,,,,,,,,,,,,,,,,,,,,,,,,,,,,,,,,,,,,None,,165.79512997968123,None,165.79512997968123,None,2022-09-08-13:56:16.529544,165.79867909988388,166.11203659977764,165.79867909988388,None,None,165.79867909988388,None,166.61144667975606,None,,,,22013,0001,2022_Sep_08_1353,localizer,2021.1.3,61.50174967437977,
block_end,scenes,scenes020.bmp,,,,,0,15,15,15,,,,,,,,,,,,,,,,,,,,,,,,,,,,,,,,,,,,,,,,,,None,,166.61144667975606,None,166.61144667975606,None,2022-09-08-13:56:17.345449,166.61468959972262,166.92854349967092,166.61468959972262,None,None,166.61468959972262,None,167.42821727991105,None,,,,22013,0001,2022_Sep_08_1353,localizer,2021.1.3,61.50174967437977,
block_start,scrambled,scrambled070.bmp,,,,,0,16,16,16,,,,,,,,,,,,,,,,,,,,,,,,,,,,,,,,,,,,,,,,,,t,1.729141099844128,167.42846599966288,None,167.42846599966288,None,2022-09-08-13:56:19.913726,169.18456969968975,169.49549609981477,169.18456969968975,None,None,169.18456969968975,None,169.995247780066,None,,,,22013,0001,2022_Sep_08_1353,localizer,2021.1.3,61.50174967437977,
block,scrambled,scrambled082.bmp,,,,,0,17,17,17,,,,,,,,,,,,,,,,,,,,,,,,,,,,,,,,,,,,,,,,,,None,,169.995247780066,None,169.995247780066,None,2022-09-08-13:56:20.730285,169.99945569969714,170.31256299978122,169.99945569969714,None,None,169.99945569969714,None,170.81237377990038,None,,,,22013,0001,2022_Sep_08_1353,localizer,2021.1.3,61.50174967437977,
block,scrambled,scrambled063.bmp,,,,,0,18,18,18,,,,,,,,,,,,,,,,,,,,,,,,,,,,,,,,,,,,,,,,,,None,,170.81237377990038,None,170.81237377990038,None,2022-09-08-13:56:21.548242,170.82440549973398,171.1285588000901,170.82440549973398,None,None,170.82440549973398,None,171.62831258000807,None,,,,22013,0001,2022_Sep_08_1353,localizer,2021.1.3,61.50174967437977,
block,scrambled,scrambled023.bmp,,,,,0,19,19,19,,,,,,,,,,,,,,,,,,,,,,,,,,,,,,,,,,,,,,,,,,None,,171.62831258000807,None,171.62831258000807,None,2022-09-08-13:56:22.363312,171.63173209968954,171.94537399988621,171.63173209968954,None,None,171.63173209968954,None,172.4450147801079,None,,,,22013,0001,2022_Sep_08_1353,localizer,2021.1.3,61.50174967437977,
block,scrambled,scrambled001.bmp,,,,,0,20,20,20,,,,,,,,,,,,,,,,,,,,,,,,,,,,,,,,,,,,,,,,,,None,,172.4450147801079,None,172.4450147801079,None,2022-09-08-13:56:23.180091,172.4559646998532,172.761998699978,172.4559646998532,None,None,172.4559646998532,None,173.26179617987947,None,,,,22013,0001,2022_Sep_08_1353,localizer,2021.1.3,61.50174967437977,
block,scrambled,scrambled061.bmp,,,,,0,21,21,21,,,,,,,,,,,,,,,,,,,,,,,,,,,,,,,,,,,,,,,,,,None,,173.26179617987947,None,173.26179617987947,None,2022-09-08-13:56:23.996793,173.2654693997465,173.57945719966665,173.2654693997465,None,None,173.2654693997465,None,174.07910297969357,None,,,,22013,0001,2022_Sep_08_1353,localizer,2021.1.3,61.50174967437977,
block,scrambled,scrambled022.bmp,,,,,0,22,22,22,,,,,,,,,,,,,,,,,,,,,,,,,,,,,,,,,,,,,,,,,,None,,174.07910297969357,None,174.07910297969357,None,2022-09-08-13:56:24.815283,174.08470529969782,174.39527749968693,174.08470529969782,None,None,174.08470529969782,None,174.89495677985252,None,,,,22013,0001,2022_Sep_08_1353,localizer,2021.1.3,61.50174967437977,
block,scrambled,scrambled040.bmp,,,,,0,23,23,23,,,,,,,,,,,,,,,,,,,,,,,,,,,,,,,,,,,,,,,,,,None,,174.89495677985252,None,174.89495677985252,None,2022-09-08-13:56:25.629958,174.89772169990465,175.21215739985928,174.89772169990465,None,None,174.89772169990465,None,175.71193517996,None,,,,22013,0001,2022_Sep_08_1353,localizer,2021.1.3,61.50174967437977,
block,scrambled,scrambled031.bmp,,,,,0,24,24,24,,,,,,,,,,,,,,,,,,,,,,,,,,,,,,,,,,,,,,,,,,None,,175.71193517996,None,175.71193517996,None,2022-09-08-13:56:26.446939,175.72064239997417,176.02865719981492,175.72064239997417,None,None,175.72064239997417,None,176.52845178004355,None,,,,22013,0001,2022_Sep_08_1353,localizer,2021.1.3,61.50174967437977,
block,scrambled,scrambled024.bmp,,,,,0,25,25,25,,,,,,,,,,,,,,,,,,,,,,,,,,,,,,,,,,,,,,,,,,None,,176.52845178004355,None,176.52845178004355,None,2022-09-08-13:56:27.263362,176.53724119998515,176.84569490002468,176.53724119998515,None,None,176.53724119998515,None,177.34542367998512,None,,,,22013,0001,2022_Sep_08_1353,localizer,2021.1.3,61.50174967437977,
block,scrambled,scrambled051.bmp,,,,,0,26,26,26,,,,,,,,,,,,,,,,,,,,,,,,,,,,,,,,,,,,,,,,,,None,,177.34542367998512,None,177.34542367998512,None,2022-09-08-13:56:28.079508,177.3476899000816,177.66199019970372,177.3476899000816,None,y,177.3476899000816,None,178.16176747968422,None,0.6600076998583972,,,22013,0001,2022_Sep_08_1353,localizer,2021.1.3,61.50174967437977,
block,scrambled,scrambled007.bmp,,,,,0,27,27,27,,,,,,,,,,,,,,,,,,,,,,,,,,,,,,,,,,,,,,,,,,None,,178.16176747968422,None,178.16176747968422,None,2022-09-08-13:56:28.896980,178.16504469979554,178.47869100002572,178.16504469979554,None,None,178.16504469979554,None,178.9784356799908,None,,,,22013,0001,2022_Sep_08_1353,localizer,2021.1.3,61.50174967437977,
block,scrambled,scrambled055.bmp,,,,,0,28,28,28,,,,,,,,,,,,,,,,,,,,,,,,,,,,,,,,,,,,,,,,,,None,,178.9784356799908,None,178.9784356799908,None,2022-09-08-13:56:29.713437,178.98724479973316,179.29531269986182,178.98724479973316,None,None,178.98724479973316,None,179.79498227983714,None,,,,22013,0001,2022_Sep_08_1353,localizer,2021.1.3,61.50174967437977,
block,scrambled,scrambled088.bmp,,,,,0,29,29,29,,,,,,,,,,,,,,,,,,,,,,,,,,,,,,,,,,,,,,,,,,None,,179.79498227983714,None,179.79498227983714,None,2022-09-08-13:56:30.528779,179.7980176000856,180.11196469981223,179.7980176000856,None,None,179.7980176000856,None,180.6115034797229,None,,,,22013,0001,2022_Sep_08_1353,localizer,2021.1.3,61.50174967437977,
block_end,scrambled,scrambled012.bmp,,,,,0,30,30,30,,,,,,,,,,,,,,,,,,,,,,,,,,,,,,,,,,,,,,,,,,None,,180.6115034797229,None,180.6115034797229,None,2022-09-08-13:56:31.345530,180.61475689988583,180.9288341999054,180.61475689988583,None,y,180.61475689988583,None,181.4283705797978,None,0.7170466003008187,,,22013,0001,2022_Sep_08_1353,localizer,2021.1.3,61.50174967437977,
block_start,objects,objects047.bmp,,,,,0,31,31,31,,,,,,,,,,,,,,,,,,,,,,,,,,,,,,,,,,,,,,,,,,t,1.7289118999615312,181.42874839995056,None,181.42874839995056,None,2022-09-08-13:56:33.912351,183.18134710006416,183.49541360000148,183.18134710006416,None,None,183.18134710006416,None,183.9949964798987,None,,,,22013,0001,2022_Sep_08_1353,localizer,2021.1.3,61.50174967437977,
block,objects,objects030.bmp,,,,,0,32,32,32,,,,,,,,,,,,,,,,,,,,,,,,,,,,,,,,,,,,,,,,,,None,,183.9949964798987,None,183.9949964798987,None,2022-09-08-13:56:34.730606,184.0059984996915,184.31210909970105,184.0059984996915,None,None,184.0059984996915,None,184.81196527993308,None,,,,22013,0001,2022_Sep_08_1353,localizer,2021.1.3,61.50174967437977,
block,objects,objects072.bmp,,,,,0,33,33,33,,,,,,,,,,,,,,,,,,,,,,,,,,,,,,,,,,,,,,,,,,None,,184.81196527993308,None,184.81196527993308,None,2022-09-08-13:56:35.546968,184.8222809000872,185.1294463998638,184.8222809000872,None,None,184.8222809000872,None,185.6180257799104,None,,,,22013,0001,2022_Sep_08_1353,localizer,2021.1.3,61.50174967437977,
block,objects,objects012.bmp,,,,,0,34,34,34,,,,,,,,,,,,,,,,,,,,,,,,,,,,,,,,,,,,,,,,,,None,,185.6180257799104,None,185.6180257799104,None,2022-09-08-13:56:36.362897,185.63385479990393,185.94601339986548,185.63385479990393,None,None,185.63385479990393,None,186.42837158003823,None,,,,22013,0001,2022_Sep_08_1353,localizer,2021.1.3,61.50174967437977,
block,objects,objects023.bmp,,,,,0,35,35,35,,,,,,,,,,,,,,,,,,,,,,,,,,,,,,,,,,,,,,,,,,None,,186.42837158003823,None,186.42837158003823,None,2022-09-08-13:56:37.162381,186.43133229995146,186.74533529998735,186.43133229995146,None,None,186.43133229995146,None,187.2452196797356,None,,,,22013,0001,2022_Sep_08_1353,localizer,2021.1.3,61.50174967437977,
block,objects,objects033.bmp,,,,,0,36,36,36,,,,,,,,,,,,,,,,,,,,,,,,,,,,,,,,,,,,,,,,,,None,,187.2452196797356,None,187.2452196797356,None,2022-09-08-13:56:37.980442,187.25609639985487,187.56324649974704,187.25609639985487,None,None,187.25609639985487,None,188.0616640799679,None,,,,22013,0001,2022_Sep_08_1353,localizer,2021.1.3,61.50174967437977,
block,objects,objects052.bmp,,,,,0,37,37,37,,,,,,,,,,,,,,,,,,,,,,,,,,,,,,,,,,,,,,,,,,None,,188.0616640799679,None,188.0616640799679,None,2022-09-08-13:56:38.795675,188.06492900010198,188.37901709973812,188.06492900010198,None,None,188.06492900010198,None,188.87844107970596,None,,,,22013,0001,2022_Sep_08_1353,localizer,2021.1.3,61.50174967437977,
block,objects,objects008.bmp,,,,,0,38,38,38,,,,,,,,,,,,,,,,,,,,,,,,,,,,,,,,,,,,,,,,,,None,,188.87844107970596,None,188.87844107970596,None,2022-09-08-13:56:39.612448,188.88662069989368,189.19578190008178,188.88662069989368,None,None,188.88662069989368,None,189.6948674798012,None,,,,22013,0001,2022_Sep_08_1353,localizer,2021.1.3,61.50174967437977,
block,objects,objects065.bmp,,,,,0,39,39,39,,,,,,,,,,,,,,,,,,,,,,,,,,,,,,,,,,,,,,,,,,None,,189.6948674798012,None,189.6948674798012,None,2022-09-08-13:56:40.429485,189.69813869986683,190.0122663998045,189.69813869986683,None,None,189.69813869986683,None,190.51186837973074,None,,,,22013,0001,2022_Sep_08_1353,localizer,2021.1.3,61.50174967437977,
block,objects,objects086.bmp,,,,,0,40,40,40,,,,,,,,,,,,,,,,,,,,,,,,,,,,,,,,,,,,,,,,,,None,,190.51186837973074,None,190.51186837973074,None,2022-09-08-13:56:41.247106,190.52095209993422,190.82891939999536,190.52095209993422,None,None,190.52095209993422,None,191.328553979937,None,,,,22013,0001,2022_Sep_08_1353,localizer,2021.1.3,61.50174967437977,
block,objects,objects032.bmp,,,,,0,41,41,41,,,,,,,,,,,,,,,,,,,,,,,,,,,,,,,,,,,,,,,,,,None,,191.328553979937,None,191.328553979937,None,2022-09-08-13:56:42.063560,191.3312309999019,191.64562470000237,191.3312309999019,None,None,191.3312309999019,None,192.1452370800078,None,,,,22013,0001,2022_Sep_08_1353,localizer,2021.1.3,61.50174967437977,
block,objects,objects036.bmp,,,,,0,42,42,42,,,,,,,,,,,,,,,,,,,,,,,,,,,,,,,,,,,,,,,,,,None,,192.1452370800078,None,192.1452370800078,None,2022-09-08-13:56:42.880398,192.15433909976855,192.46167390001938,192.15433909976855,None,None,192.15433909976855,None,192.961965679843,None,,,,22013,0001,2022_Sep_08_1353,localizer,2021.1.3,61.50174967437977,
block,objects,objects080.bmp,,,,,0,43,43,43,,,,,,,,,,,,,,,,,,,,,,,,,,,,,,,,,,,,,,,,,,None,,192.961965679843,None,192.961965679843,None,2022-09-08-13:56:43.696971,192.97271690005437,193.27891509979963,192.97271690005437,None,None,192.97271690005437,None,193.77852098010482,None,,,,22013,0001,2022_Sep_08_1353,localizer,2021.1.3,61.50174967437977,
block,objects,objects056.bmp,,,,,0,44,44,44,,,,,,,,,,,,,,,,,,,,,,,,,,,,,,,,,,,,,,,,,,None,,193.77852098010482,None,193.77852098010482,None,2022-09-08-13:56:44.512531,193.78168849973008,194.0956556997262,193.78168849973008,None,None,193.78168849973008,None,194.59521327978,None,,,,22013,0001,2022_Sep_08_1353,localizer,2021.1.3,61.50174967437977,
block_end,objects,objects010.bmp,,,,,0,45,45,45,,,,,,,,,,,,,,,,,,,,,,,,,,,,,,,,,,,,,,,,,,None,,194.59521327978,None,194.59521327978,None,2022-09-08-13:56:45.330216,194.60337070003152,194.9119004998356,194.60337070003152,None,None,194.60337070003152,None,195.41184477992357,None,,,,22013,0001,2022_Sep_08_1353,localizer,2021.1.3,61.50174967437977,
block_start,faces,faces028.bmp,,,,,0,46,46,46,,,,,,,,,,,,,,,,,,,,,,,,,,,,,,,,,,,,,,,,,,t,1.7455886001698673,195.41211359994486,None,195.41211359994486,None,2022-09-08-13:56:47.915163,197.18573089968413,197.49548129970208,197.18573089968413,None,None,197.18573089968413,None,197.99524967996405,None,,,,22013,0001,2022_Sep_08_1353,localizer,2021.1.3,61.50174967437977,
block,faces,faces048.bmp,,,,,0,47,47,47,,,,,,,,,,,,,,,,,,,,,,,,,,,,,,,,,,,,,,,,,,None,,197.99524967996405,None,197.99524967996405,None,2022-09-08-13:56:48.730613,197.99962469981983,198.31232179980725,197.99962469981983,None,None,197.99962469981983,None,198.79939427990467,None,,,,22013,0001,2022_Sep_08_1353,localizer,2021.1.3,61.50174967437977,
block,faces,faces015.bmp,,,,,0,48,48,48,,,,,,,,,,,,,,,,,,,,,,,,,,,,,,,,,,,,,,,,,,None,,198.79939427990467,None,198.79939427990467,None,2022-09-08-13:56:49.543280,198.82116930000484,199.12877909978852,198.82116930000484,198.82116930000484,None,198.82116930000484,198.82116930000484,199.61169797992335,None,,,,22013,0001,2022_Sep_08_1353,localizer,2021.1.3,61.50174967437977,
block,faces,faces071.bmp,,,,,0,49,49,49,,,,,,,,,,,,,,,,,,,,,,,,,,,,,,,,,,,,,,,,,,None,,199.61169797992335,None,199.61169797992335,None,2022-09-08-13:56:50.346943,199.62270129984245,199.92936519999057,199.62270129984245,None,None,199.62270129984245,None,200.42891507986934,None,,,,22013,0001,2022_Sep_08_1353,localizer,2021.1.3,61.50174967437977,
block,faces,faces025.bmp,,,,,0,50,50,50,,,,,,,,,,,,,,,,,,,,,,,,,,,,,,,,,,,,,,,,,,None,,200.42891507986934,None,200.42891507986934,None,2022-09-08-13:56:51.163913,200.4402530998923,200.74549150001258,200.4402530998923,None,None,200.4402530998923,None,201.24604667974637,None,,,,22013,0001,2022_Sep_08_1353,localizer,2021.1.3,61.50174967437977,
block,faces,faces036.bmp,,,,,0,51,51,51,,,,,,,,,,,,,,,,,,,,,,,,,,,,,,,,,,,,,,,,,,None,,201.24604667974637,None,201.24604667974637,None,2022-09-08-13:56:51.982038,201.25770170008764,201.56217780010775,201.25770170008764,None,None,201.25770170008764,None,202.06313777966426,None,,,,22013,0001,2022_Sep_08_1353,localizer,2021.1.3,61.50174967437977,
block,faces,faces029.bmp,,,,,0,52,52,52,,,,,,,,,,,,,,,,,,,,,,,,,,,,,,,,,,,,,,,,,,None,,202.06313777966426,None,202.06313777966426,None,2022-09-08-13:56:52.800109,202.07255870010704,202.37879459979013,202.07255870010704,None,None,202.07255870010704,None,202.8793028799817,None,,,,22013,0001,2022_Sep_08_1353,localizer,2021.1.3,61.50174967437977,
block,faces,faces059.bmp,,,,,0,53,53,53,,,,,,,,,,,,,,,,,,,,,,,,,,,,,,,,,,,,,,,,,,None,,202.8793028799817,None,202.8793028799817,None,2022-09-08-13:56:53.615297,202.8857559999451,203.19552659988403,202.8857559999451,None,None,202.8857559999451,None,203.69496277971194,None,,,,22013,0001,2022_Sep_08_1353,localizer,2021.1.3,61.50174967437977,
block,faces,faces057.bmp,,,,,0,54,54,54,,,,,,,,,,,,,,,,,,,,,,,,,,,,,,,,,,,,,,,,,,None,,203.69496277971194,None,203.69496277971194,None,2022-09-08-13:56:54.430205,203.70050909975544,204.01204219972715,203.70050909975544,None,None,203.70050909975544,None,204.51221537981183,None,,,,22013,0001,2022_Sep_08_1353,localizer,2021.1.3,61.50174967437977,
block,faces,faces067.bmp,,,,,0,55,55,55,,,,,,,,,,,,,,,,,,,,,,,,,,,,,,,,,,,,,,,,,,None,,204.51221537981183,None,204.51221537981183,None,2022-09-08-13:56:55.247219,204.51862500002608,204.82892169989645,204.51862500002608,None,None,204.51862500002608,None,205.3284820799716,None,,,,22013,0001,2022_Sep_08_1353,localizer,2021.1.3,61.50174967437977,
block,faces,faces072.bmp,,,,,0,56,56,56,,,,,,,,,,,,,,,,,,,,,,,,,,,,,,,,,,,,,,,,,,None,,205.3284820799716,None,205.3284820799716,None,2022-09-08-13:56:56.062498,205.33167969994247,205.64573960006237,205.33167969994247,None,None,205.33167969994247,None,206.1455188800581,None,,,,22013,0001,2022_Sep_08_1353,localizer,2021.1.3,61.50174967437977,
block,faces,faces053.bmp,,,,,0,57,57,57,,,,,,,,,,,,,,,,,,,,,,,,,,,,,,,,,,,,,,,,,,None,,206.1455188800581,None,206.1455188800581,None,2022-09-08-13:56:56.880749,206.15134349977598,206.46211459999904,206.15134349977598,None,None,206.15134349977598,None,206.96172068007292,None,,,,22013,0001,2022_Sep_08_1353,localizer,2021.1.3,61.50174967437977,
block,faces,faces020.bmp,,,,,0,58,58,58,,,,,,,,,,,,,,,,,,,,,,,,,,,,,,,,,,,,,,,,,,None,,206.96172068007292,None,206.96172068007292,None,2022-09-08-13:56:57.696724,206.97068089991808,207.2792511996813,206.97068089991808,None,None,206.97068089991808,None,207.77930837981404,None,,,,22013,0001,2022_Sep_08_1353,localizer,2021.1.3,61.50174967437977,
block,faces,faces024.bmp,,,,,0,59,59,59,,,,,,,,,,,,,,,,,,,,,,,,,,,,,,,,,,,,,,,,,,None,,207.77930837981404,None,207.77930837981404,None,2022-09-08-13:56:58.515511,207.7913810000755,208.0959431999363,207.7913810000755,None,None,207.7913810000755,None,208.59538947995753,None,,,,22013,0001,2022_Sep_08_1353,localizer,2021.1.3,61.50174967437977,
block_end,faces,faces024.bmp,,,,,0,60,60,60,,,,,,,,,,,,,,,,,,,,,,,,,,,,,,,,,,,,,,,,,,None,,208.59538947995753,None,208.59538947995753,None,2022-09-08-13:56:59.330393,208.59668949991465,208.91219200007617,208.59668949991465,None,None,208.59668949991465,None,209.4120677799918,None,,,,22013,0001,2022_Sep_08_1353,localizer,2021.1.3,61.50174967437977,
block_start,scenes,scenes084.bmp,,,,,0,61,61,61,,,,,,,,,,,,,,,,,,,,,,,,,,,,,,,,,,,,,,,,,,t,1.74525160016492,209.41237240005285,None,209.41237240005285,None,2022-09-08-13:57:01.912976,211.18251289986074,211.49557249993086,211.18251289986074,None,None,211.18251289986074,None,211.99520237995313,None,,,,22013,0001,2022_Sep_08_1353,localizer,2021.1.3,61.50174967437977,
block,scenes,scenes045.bmp,,,,,0,62,62,62,,,,,,,,,,,,,,,,,,,,,,,,,,,,,,,,,,,,,,,,,,None,,211.99520237995313,None,211.99520237995313,None,2022-09-08-13:57:02.730212,211.99670029990375,212.31224699970335,211.99670029990375,None,None,211.99670029990375,None,212.81191557990388,None,,,,22013,0001,2022_Sep_08_1353,localizer,2021.1.3,61.50174967437977,
block,scenes,scenes046.bmp,,,,,0,63,63,63,,,,,,,,,,,,,,,,,,,,,,,,,,,,,,,,,,,,,,,,,,None,,212.81191557990388,None,212.81191557990388,None,2022-09-08-13:57:03.546927,212.8215180998668,213.12909899977967,212.8215180998668,None,None,212.8215180998668,None,213.62869827980177,None,,,,22013,0001,2022_Sep_08_1353,localizer,2021.1.3,61.50174967437977,
block,scenes,scenes009.bmp,,,,,0,64,64,64,,,,,,,,,,,,,,,,,,,,,,,,,,,,,,,,,,,,,,,,,,None,,213.62869827980177,None,213.62869827980177,None,2022-09-08-13:57:04.363705,213.6299779000692,213.94568829983473,213.6299779000692,None,None,213.6299779000692,None,214.44564487989993,None,,,,22013,0001,2022_Sep_08_1353,localizer,2021.1.3,61.50174967437977,
block,scenes,scenes062.bmp,,,,,0,65,65,65,,,,,,,,,,,,,,,,,,,,,,,,,,,,,,,,,,,,,,,,,,None,,214.44564487989993,None,214.44564487989993,None,2022-09-08-13:57:05.180651,214.45220119971782,214.76239049993455,214.45220119971782,None,None,214.45220119971782,None,215.2625900797546,None,,,,22013,0001,2022_Sep_08_1353,localizer,2021.1.3,61.50174967437977,
block,scenes,scenes072.bmp,,,,,0,66,66,66,,,,,,,,,,,,,,,,,,,,,,,,,,,,,,,,,,,,,,,,,,None,,215.2625900797546,None,215.2625900797546,None,2022-09-08-13:57:05.998765,215.2690874999389,215.57900109980255,215.2690874999389,None,None,215.2690874999389,None,216.0790804798715,None,,,,22013,0001,2022_Sep_08_1353,localizer,2021.1.3,61.50174967437977,
block,scenes,scenes002.bmp,,,,,0,67,67,67,,,,,,,,,,,,,,,,,,,,,,,,,,,,,,,,,,,,,,,,,,None,,216.0790804798715,None,216.0790804798715,None,2022-09-08-13:57:06.814088,216.08463029982522,216.39589349972084,216.08463029982522,None,None,216.08463029982522,None,216.89552608011292,None,,,,22013,0001,2022_Sep_08_1353,localizer,2021.1.3,61.50174967437977,
block,scenes,scenes054.bmp,,,,,0,68,68,68,,,,,,,,,,,,,,,,,,,,,,,,,,,,,,,,,,,,,,,,,,None,,216.89552608011292,None,216.89552608011292,None,2022-09-08-13:57:07.630705,216.90129119995981,217.21244149981067,216.90129119995981,None,None,216.90129119995981,None,217.7119077799842,None,,,,22013,0001,2022_Sep_08_1353,localizer,2021.1.3,61.50174967437977,
block,scenes,scenes064.bmp,,,,,0,69,69,69,,,,,,,,,,,,,,,,,,,,,,,,,,,,,,,,,,,,,,,,,,None,,217.7119077799842,None,217.7119077799842,None,2022-09-08-13:57:08.446920,217.7147566997446,218.0289388000965,217.7147566997446,None,None,217.7147566997446,None,218.53495848011227,None,,,,22013,0001,2022_Sep_08_1353,localizer,2021.1.3,61.50174967437977,
block,scenes,scenes020.bmp,,,,,0,70,70,70,,,,,,,,,,,,,,,,,,,,,,,,,,,,,,,,,,,,,,,,,,None,,218.53495848011227,None,218.53495848011227,None,2022-09-08-13:57:09.276886,218.5438729999587,218.84645819989964,218.5438729999587,None,None,218.5438729999587,None,219.34604097967969,None,,,,22013,0001,2022_Sep_08_1353,localizer,2021.1.3,61.50174967437977,
block,scenes,scenes073.bmp,,,,,0,71,71,71,,,,,,,,,,,,,,,,,,,,,,,,,,,,,,,,,,,,,,,,,,None,,219.34604097967969,None,219.34604097967969,None,2022-09-08-13:57:10.082122,219.34920139983296,219.66213589999825,219.34920139983296,None,None,219.34920139983296,None,220.16201098002495,None,,,,22013,0001,2022_Sep_08_1353,localizer,2021.1.3,61.50174967437977,
block,scenes,scenes050.bmp,,,,,0,72,72,72,,,,,,,,,,,,,,,,,,,,,,,,,,,,,,,,,,,,,,,,,,None,,220.16201098002495,None,220.16201098002495,None,2022-09-08-13:57:10.896029,220.16484079975635,220.47906609997153,220.16484079975635,None,None,220.16484079975635,None,220.97906297976152,None,,,,22013,0001,2022_Sep_08_1353,localizer,2021.1.3,61.50174967437977,
block,scenes,scenes066.bmp,,,,,0,73,73,73,,,,,,,,,,,,,,,,,,,,,,,,,,,,,,,,,,,,,,,,,,None,,220.97906297976152,None,220.97906297976152,None,2022-09-08-13:57:11.714281,220.98044280009344,221.29619019990787,220.98044280009344,None,None,220.98044280009344,None,221.79582597985865,None,,,,22013,0001,2022_Sep_08_1353,localizer,2021.1.3,61.50174967437977,
block,scenes,scenes027.bmp,,,,,0,74,74,74,,,,,,,,,,,,,,,,,,,,,,,,,,,,,,,,,,,,,,,,,,None,,221.79582597985865,None,221.79582597985865,None,2022-09-08-13:57:12.530810,221.80120689980686,222.11245690006763,221.80120689980686,None,None,221.80120689980686,None,222.6120616800152,None,,,,22013,0001,2022_Sep_08_1353,localizer,2021.1.3,61.50174967437977,
block_end,scenes,scenes080.bmp,,,,,0,75,75,75,,,,,,,,,,,,,,,,,,,,,,,,,,,,,,,,,,,,,,,,,,None,,222.6120616800152,None,222.6120616800152,None,2022-09-08-13:57:13.347313,222.6163534997031,222.92921629967168,222.6163534997031,None,None,222.6163534997031,None,223.42902007997037,None,,,,22013,0001,2022_Sep_08_1353,localizer,2021.1.3,61.50174967437977,
null_block,null_block,null_block.bmp,,,,,0,76,76,76,,,,,,,,,,,,,,,,,,,,,,,,,,,,,,,,,,,,,,,,,,t,1.727596000302583,223.42908969987184,None,223.42908969987184,None,2022-09-08-13:57:15.912061,225.17884537968786,None,225.17884537968786,None,None,225.17884537968786,None,225.17927409987897,None,,,,22013,0001,2022_Sep_08_1353,localizer,2021.1.3,61.50174967437977,
block_start,objects,objects002.bmp,,,,,0,77,77,77,,,,,,,,,,,,,,,,,,,,,,,,,,,,,,,,,,,,,,,,,,t,1.9768027998507023,237.17985929967836,None,237.17985929967836,None,2022-09-08-13:57:29.913272,239.1845350000076,239.4958035997115,239.1845350000076,None,None,239.1845350000076,None,239.99676247984172,None,,,,22013,0001,2022_Sep_08_1353,localizer,2021.1.3,61.50174967437977,
block,objects,objects053.bmp,,,,,0,78,78,78,,,,,,,,,,,,,,,,,,,,,,,,,,,,,,,,,,,,,,,,,,None,,239.99676247984172,None,239.99676247984172,None,2022-09-08-13:57:30.733819,240.0045821000822,240.31234390009195,240.0045821000822,None,None,240.0045821000822,None,240.81204317994417,None,,,,22013,0001,2022_Sep_08_1353,localizer,2021.1.3,61.50174967437977,
block,objects,objects083.bmp,,,,,0,79,79,79,,,,,,,,,,,,,,,,,,,,,,,,,,,,,,,,,,,,,,,,,,None,,240.81204317994417,None,240.81204317994417,None,2022-09-08-13:57:31.547060,240.8217182001099,241.12946389988065,240.8217182001099,None,None,240.8217182001099,None,241.62920017978178,None,,,,22013,0001,2022_Sep_08_1353,localizer,2021.1.3,61.50174967437977,
block,objects,objects080.bmp,,,,,0,80,80,80,,,,,,,,,,,,,,,,,,,,,,,,,,,,,,,,,,,,,,,,,,None,,241.62920017978178,None,241.62920017978178,None,2022-09-08-13:57:32.364175,241.63021329976618,241.9457056997344,241.63021329976618,None,None,241.63021329976618,None,242.44570757979528,None,,,,22013,0001,2022_Sep_08_1353,localizer,2021.1.3,61.50174967437977,
block,objects,objects043.bmp,,,,,0,81,81,81,,,,,,,,,,,,,,,,,,,,,,,,,,,,,,,,,,,,,,,,,,None,,242.44570757979528,None,242.44570757979528,None,2022-09-08-13:57:33.180480,242.45162629988045,242.7625323999673,242.45162629988045,None,None,242.45162629988045,None,243.26215657982976,None,,,,22013,0001,2022_Sep_08_1353,localizer,2021.1.3,61.50174967437977,
block,objects,objects030.bmp,,,,,0,82,82,82,,,,,,,,,,,,,,,,,,,,,,,,,,,,,,,,,,,,,,,,,,None,,243.26215657982976,None,243.26215657982976,None,2022-09-08-13:57:33.997350,243.26341510005295,243.57898189965636,243.26341510005295,None,None,243.26341510005295,None,244.06268148003147,None,,,,22013,0001,2022_Sep_08_1353,localizer,2021.1.3,61.50174967437977,
block,objects,objects030.bmp,,,,,0,83,83,83,,,,,,,,,,,,,,,,,,,,,,,,,,,,,,,,,,,,,,,,,,None,,244.06268148003147,None,244.06268148003147,None,2022-09-08-13:57:34.800681,244.06604149984196,244.37895319983363,244.06604149984196,244.06604149984196,y,244.06604149984196,244.06604149984196,244.8784628801048,None,0.7394351996481419,,,22013,0001,2022_Sep_08_1353,localizer,2021.1.3,61.50174967437977,
block,objects,objects011.bmp,,,,,0,84,84,84,,,,,,,,,,,,,,,,,,,,,,,,,,,,,,,,,,,,,,,,,,None,,244.8784628801048,None,244.8784628801048,None,2022-09-08-13:57:35.613486,244.8814387000166,245.19585860008374,244.8814387000166,None,None,244.8814387000166,None,245.6955434798263,None,,,,22013,0001,2022_Sep_08_1353,localizer,2021.1.3,61.50174967437977,
block,objects,objects014.bmp,,,,,0,85,85,85,,,,,,,,,,,,,,,,,,,,,,,,,,,,,,,,,,,,,,,,,,None,,245.6955434798263,None,245.6955434798263,None,2022-09-08-13:57:36.429678,245.6986638000235,246.01225910009816,245.6986638000235,None,None,245.6986638000235,None,246.51213138010354,None,,,,22013,0001,2022_Sep_08_1353,localizer,2021.1.3,61.50174967437977,
block,objects,objects056.bmp,,,,,0,86,86,86,,,,,,,,,,,,,,,,,,,,,,,,,,,,,,,,,,,,,,,,,,None,,246.51213138010354,None,246.51213138010354,None,2022-09-08-13:57:37.247151,246.51344690006226,246.8295382997021,246.51344690006226,None,None,246.51344690006226,None,247.31247488008813,None,,,,22013,0001,2022_Sep_08_1353,localizer,2021.1.3,61.50174967437977,
block,objects,objects044.bmp,,,,,0,87,87,87,,,,,,,,,,,,,,,,,,,,,,,,,,,,,,,,,,,,,,,,,,None,,247.31247488008813,None,247.31247488008813,None,2022-09-08-13:57:38.049499,247.31988309975713,247.6288882996887,247.31988309975713,247.31988309975713,None,247.31988309975713,247.31988309975713,248.12845597993584,None,,,,22013,0001,2022_Sep_08_1353,localizer,2021.1.3,61.50174967437977,
block,objects,objects037.bmp,,,,,0,88,88,88,,,,,,,,,,,,,,,,,,,,,,,,,,,,,,,,,,,,,,,,,,None,,248.12845597993584,None,248.12845597993584,None,2022-09-08-13:57:38.863525,248.13186619989574,248.44595149997622,248.13186619989574,None,None,248.13186619989574,None,248.94586187992246,None,,,,22013,0001,2022_Sep_08_1353,localizer,2021.1.3,61.50174967437977,
block,objects,objects075.bmp,,,,,0,89,89,89,,,,,,,,,,,,,,,,,,,,,,,,,,,,,,,,,,,,,,,,,,None,,248.94586187992246,None,248.94586187992246,None,2022-09-08-13:57:39.681087,248.9563369997777,249.2623879997991,248.9563369997777,None,None,248.9563369997777,None,249.76238267980517,None,,,,22013,0001,2022_Sep_08_1353,localizer,2021.1.3,61.50174967437977,
block,objects,objects015.bmp,,,,,0,90,90,90,,,,,,,,,,,,,,,,,,,,,,,,,,,,,,,,,,,,,,,,,,None,,249.76238267980517,None,249.76238267980517,None,2022-09-08-13:57:40.497463,249.76655719988048,250.07906179968268,249.76655719988048,None,None,249.76655719988048,None,250.57874168008567,None,,,,22013,0001,2022_Sep_08_1353,localizer,2021.1.3,61.50174967437977,
block_end,objects,objects046.bmp,,,,,0,91,91,91,,,,,,,,,,,,,,,,,,,,,,,,,,,,,,,,,,,,,,,,,,None,,250.57874168008567,None,250.57874168008567,None,2022-09-08-13:57:41.313764,250.58949310006574,250.89577309973538,250.58949310006574,None,None,250.58949310006574,None,251.39567028004677,None,,,,22013,0001,2022_Sep_08_1353,localizer,2021.1.3,61.50174967437977,
block_start,scrambled,scrambled084.bmp,,,,,0,92,92,92,,,,,,,,,,,,,,,,,,,,,,,,,,,,,,,,,,,,,,,,,,t,1.761255799792707,251.39574429998174,None,251.39574429998174,None,2022-09-08-13:57:43.922841,253.19441400002688,253.49593270011246,253.19441400002688,None,None,253.19441400002688,None,253.99565908005462,None,,,,22013,0001,2022_Sep_08_1353,localizer,2021.1.3,61.50174967437977,
block,scrambled,scrambled039.bmp,,,,,0,93,93,93,,,,,,,,,,,,,,,,,,,,,,,,,,,,,,,,,,,,,,,,,,None,,253.99565908005462,None,253.99565908005462,None,2022-09-08-13:57:44.730896,254.00035349978134,254.3123984998092,254.00035349978134,None,None,254.00035349978134,None,254.81220217999072,None,,,,22013,0001,2022_Sep_08_1353,localizer,2021.1.3,61.50174967437977,
block,scrambled,scrambled025.bmp,,,,,0,94,94,94,,,,,,,,,,,,,,,,,,,,,,,,,,,,,,,,,,,,,,,,,,None,,254.81220217999072,None,254.81220217999072,None,2022-09-08-13:57:45.547300,254.81639289995655,255.12889949977398,254.81639289995655,None,None,254.81639289995655,None,255.62892807992176,None,,,,22013,0001,2022_Sep_08_1353,localizer,2021.1.3,61.50174967437977,
block,scrambled,scrambled064.bmp,,,,,0,95,95,95,,,,,,,,,,,,,,,,,,,,,,,,,,,,,,,,,,,,,,,,,,None,,255.62892807992176,None,255.62892807992176,None,2022-09-08-13:57:46.364464,255.63380929967389,255.94591780006886,255.63380929967389,None,None,255.63380929967389,None,256.4456428798847,None,,,,22013,0001,2022_Sep_08_1353,localizer,2021.1.3,61.50174967437977,
block,scrambled,scrambled061.bmp,,,,,0,96,96,96,,,,,,,,,,,,,,,,,,,,,,,,,,,,,,,,,,,,,,,,,,None,,256.4456428798847,None,256.4456428798847,None,2022-09-08-13:57:47.180767,256.4469161997549,256.762541399803,256.4469161997549,None,None,256.4469161997549,None,257.2623199799098,None,,,,22013,0001,2022_Sep_08_1353,localizer,2021.1.3,61.50174967437977,
block,scrambled,scrambled030.bmp,,,,,0,97,97,97,,,,,,,,,,,,,,,,,,,,,,,,,,,,,,,,,,,,,,,,,,None,,257.2623199799098,None,257.2623199799098,None,2022-09-08-13:57:47.997370,257.2678588000126,257.578868099954,257.2678588000126,None,None,257.2678588000126,None,258.07944767987357,None,,,,22013,0001,2022_Sep_08_1353,localizer,2021.1.3,61.50174967437977,
block,scrambled,scrambled048.bmp,,,,,0,98,98,98,,,,,,,,,,,,,,,,,,,,,,,,,,,,,,,,,,,,,,,,,,None,,258.07944767987357,None,258.07944767987357,None,2022-09-08-13:57:48.814669,258.09048220003024,258.39599630003795,258.09048220003024,None,None,258.09048220003024,None,258.8955373798497,None,,,,22013,0001,2022_Sep_08_1353,localizer,2021.1.3,61.50174967437977,
block,scrambled,scrambled071.bmp,,,,,0,99,99,99,,,,,,,,,,,,,,,,,,,,,,,,,,,,,,,,,,,,,,,,,,None,,258.8955373798497,None,258.8955373798497,None,2022-09-08-13:57:49.630663,258.9064584998414,259.2124596000649,258.9064584998414,None,None,258.9064584998414,None,259.7133490798995,None,,,,22013,0001,2022_Sep_08_1353,localizer,2021.1.3,61.50174967437977,
block,scrambled,scrambled047.bmp,,,,,0,100,100,100,,,,,,,,,,,,,,,,,,,,,,,,,,,,,,,,,,,,,,,,,,None,,259.7133490798995,None,259.7133490798995,None,2022-09-08-13:57:50.449493,259.71979509992525,260.02920509967953,259.71979509992525,None,y,259.71979509992525,None,260.52891078004615,None,0.48032059986144304,,,22013,0001,2022_Sep_08_1353,localizer,2021.1.3,61.50174967437977,
block,scrambled,scrambled011.bmp,,,,,0,101,101,101,,,,,,,,,,,,,,,,,,,,,,,,,,,,,,,,,,,,,,,,,,None,,260.52891078004615,None,260.52891078004615,None,2022-09-08-13:57:51.264034,260.5396193000488,260.8460150999017,260.5396193000488,None,y,260.5396193000488,None,261.3348753798753,None,0.7372356997802854,,,22013,0001,2022_Sep_08_1353,localizer,2021.1.3,61.50174967437977,
block,scrambled,scrambled075.bmp,,,,,0,102,102,102,,,,,,,,,,,,,,,,,,,,,,,,,,,,,,,,,,,,,,,,,,None,,261.3348753798753,None,261.3348753798753,None,2022-09-08-13:57:52.069480,261.339684299659,261.6462400997989,261.339684299659,None,None,261.339684299659,None,262.1455798798241,None,,,,22013,0001,2022_Sep_08_1353,localizer,2021.1.3,61.50174967437977,
block,scrambled,scrambled012.bmp,,,,,0,103,103,103,,,,,,,,,,,,,,,,,,,,,,,,,,,,,,,,,,,,,,,,,,None,,262.1455798798241,None,262.1455798798241,None,2022-09-08-13:57:52.880688,262.14684409974143,262.4625686998479,262.14684409974143,None,y,262.14684409974143,None,262.94617027994246,None,0.010672799777239561,,,22013,0001,2022_Sep_08_1353,localizer,2021.1.3,61.50174967437977,
block,scrambled,scrambled014.bmp,,,,,0,104,104,104,,,,,,,,,,,,,,,,,,,,,,,,,,,,,,,,,,,,,,,,,,None,,262.94617027994246,None,262.94617027994246,None,2022-09-08-13:57:53.684176,262.96059029968455,263.26227119984105,262.96059029968455,262.96059029968455,None,262.96059029968455,262.96059029968455,263.76210988005624,None,,,,22013,0001,2022_Sep_08_1353,localizer,2021.1.3,61.50174967437977,
block,scrambled,scrambled008.bmp,,,,,0,105,105,105,,,,,,,,,,,,,,,,,,,,,,,,,,,,,,,,,,,,,,,,,,None,,263.76210988005624,None,263.76210988005624,None,2022-09-08-13:57:54.497238,263.76539999991655,264.0791843999177,263.76539999991655,None,None,263.76539999991655,None,264.5792636798695,None,,,,22013,0001,2022_Sep_08_1353,localizer,2021.1.3,61.50174967437977,
block_end,scrambled,scrambled007.bmp,,,,,0,106,106,106,,,,,,,,,,,,,,,,,,,,,,,,,,,,,,,,,,,,,,,,,,None,,264.5792636798695,None,264.5792636798695,None,2022-09-08-13:57:55.314285,264.5805585999042,264.89621949987486,264.5805585999042,None,None,264.5805585999042,None,265.39581947978587,None,,,,22013,0001,2022_Sep_08_1353,localizer,2021.1.3,61.50174967437977,
block_start,faces,faces063.bmp,,,,,0,107,107,107,,,,,,,,,,,,,,,,,,,,,,,,,,,,,,,,,,,,,,,,,,t,1.760798200033605,265.39609299972653,None,265.39609299972653,None,2022-09-08-13:57:57.916398,267.18913029972464,267.4956906000152,267.18913029972464,None,None,267.18913029972464,None,267.99559887982906,None,,,,22013,0001,2022_Sep_08_1353,localizer,2021.1.3,61.50174967437977,
block,faces,faces087.bmp,,,,,0,108,108,108,,,,,,,,,,,,,,,,,,,,,,,,,,,,,,,,,,,,,,,,,,None,,267.99559887982906,None,267.99559887982906,None,2022-09-08-13:57:58.731255,268.0066315000877,268.31251819990575,268.0066315000877,None,None,268.0066315000877,None,268.81261957967655,None,,,,22013,0001,2022_Sep_08_1353,localizer,2021.1.3,61.50174967437977,
block,faces,faces012.bmp,,,,,0,109,109,109,,,,,,,,,,,,,,,,,,,,,,,,,,,,,,,,,,,,,,,,,,None,,268.81261957967655,None,268.81261957967655,None,2022-09-08-13:57:59.548197,268.8188733998686,269.1291589997709,268.8188733998686,None,None,268.8188733998686,None,269.62893567997963,None,,,,22013,0001,2022_Sep_08_1353,localizer,2021.1.3,61.50174967437977,
block,faces,faces044.bmp,,,,,0,110,110,110,,,,,,,,,,,,,,,,,,,,,,,,,,,,,,,,,,,,,,,,,,None,,269.62893567997963,None,269.62893567997963,None,2022-09-08-13:58:00.364171,269.63465010002255,269.9458159999922,269.63465010002255,None,None,269.63465010002255,None,270.44579357998447,None,,,,22013,0001,2022_Sep_08_1353,localizer,2021.1.3,61.50174967437977,
block,faces,faces003.bmp,,,,,0,111,111,111,,,,,,,,,,,,,,,,,,,,,,,,,,,,,,,,,,,,,,,,,,None,,270.44579357998447,None,270.44579357998447,None,2022-09-08-13:58:01.181033,270.4516464998014,270.762305600103,270.4516464998014,None,None,270.4516464998014,None,271.2622718798928,None,,,,22013,0001,2022_Sep_08_1353,localizer,2021.1.3,61.50174967437977,
block,faces,faces018.bmp,,,,,0,112,112,112,,,,,,,,,,,,,,,,,,,,,,,,,,,,,,,,,,,,,,,,,,None,,271.2622718798928,None,271.2622718798928,None,2022-09-08-13:58:01.997303,271.2730676000938,271.57962099974975,271.2730676000938,None,None,271.2730676000938,None,272.0794058797881,None,,,,22013,0001,2022_Sep_08_1353,localizer,2021.1.3,61.50174967437977,
block,faces,faces034.bmp,,,,,0,113,113,113,,,,,,,,,,,,,,,,,,,,,,,,,,,,,,,,,,,,,,,,,,None,,272.0794058797881,None,272.0794058797881,None,2022-09-08-13:58:02.814427,272.0849358998239,272.395807699766,272.0849358998239,None,None,272.0849358998239,None,272.895414979849,None,,,,22013,0001,2022_Sep_08_1353,localizer,2021.1.3,61.50174967437977,
block,faces,faces073.bmp,,,,,0,114,114,114,,,,,,,,,,,,,,,,,,,,,,,,,,,,,,,,,,,,,,,,,,None,,272.895414979849,None,272.895414979849,None,2022-09-08-13:58:03.630555,272.8996934997849,273.2122863000259,272.8996934997849,None,None,272.8996934997849,None,273.7121376797557,None,,,,22013,0001,2022_Sep_08_1353,localizer,2021.1.3,61.50174967437977,
block,faces,faces078.bmp,,,,,0,115,115,115,,,,,,,,,,,,,,,,,,,,,,,,,,,,,,,,,,,,,,,,,,None,,273.7121376797557,None,273.7121376797557,None,2022-09-08-13:58:04.447436,273.7165501997806,274.03316910006106,273.7165501997806,None,None,273.7165501997806,None,274.5302359798923,None,,,,22013,0001,2022_Sep_08_1353,localizer,2021.1.3,61.50174967437977,
block,faces,faces065.bmp,,,,,0,116,116,116,,,,,,,,,,,,,,,,,,,,,,,,,,,,,,,,,,,,,,,,,,None,,274.5302359798923,None,274.5302359798923,None,2022-09-08-13:58:05.266371,274.54376669973135,274.8456171997823,274.54376669973135,None,None,274.54376669973135,None,275.3455158799887,None,,,,22013,0001,2022_Sep_08_1353,localizer,2021.1.3,61.50174967437977,
block,faces,faces011.bmp,,,,,0,117,117,117,,,,,,,,,,,,,,,,,,,,,,,,,,,,,,,,,,,,,,,,,,None,,275.3455158799887,None,275.3455158799887,None,2022-09-08-13:58:06.080545,275.34972100006416,275.66241399990395,275.34972100006416,None,None,275.34972100006416,None,276.16213847994806,None,,,,22013,0001,2022_Sep_08_1353,localizer,2021.1.3,61.50174967437977,
block,faces,faces042.bmp,,,,,0,118,118,118,,,,,,,,,,,,,,,,,,,,,,,,,,,,,,,,,,,,,,,,,,None,,276.16213847994806,None,276.16213847994806,None,2022-09-08-13:58:06.897171,276.17298319982365,276.48293779976666,276.17298319982365,None,None,276.17298319982365,None,276.9785550797358,None,,,,22013,0001,2022_Sep_08_1353,localizer,2021.1.3,61.50174967437977,
block,faces,faces066.bmp,,,,,0,119,119,119,,,,,,,,,,,,,,,,,,,,,,,,,,,,,,,,,,,,,,,,,,None,,276.9785550797358,None,276.9785550797358,None,2022-09-08-13:58:07.713589,276.98196419980377,277.2959305997938,276.98196419980377,None,None,276.98196419980377,None,277.79554857984186,None,,,,22013,0001,2022_Sep_08_1353,localizer,2021.1.3,61.50174967437977,
block,faces,faces062.bmp,,,,,0,120,120,120,,,,,,,,,,,,,,,,,,,,,,,,,,,,,,,,,,,,,,,,,,None,,277.79554857984186,None,277.79554857984186,None,2022-09-08-13:58:08.530584,277.7997103999369,278.1123524000868,277.7997103999369,None,None,277.7997103999369,None,278.6124955799431,None,,,,22013,0001,2022_Sep_08_1353,localizer,2021.1.3,61.50174967437977,
block_end,faces,faces043.bmp,,,,,0,121,121,121,,,,,,,,,,,,,,,,,,,,,,,,,,,,,,,,,,,,,,,,,,None,,278.6124955799431,None,278.6124955799431,None,2022-09-08-13:58:09.347740,278.61915959976614,278.9289965000935,278.61915959976614,None,None,278.61915959976614,None,279.42885057972745,None,,,,22013,0001,2022_Sep_08_1353,localizer,2021.1.3,61.50174967437977,
block_start,scenes,scenes077.bmp,,,,,0,122,122,122,,,,,,,,,,,,,,,,,,,,,,,,,,,,,,,,,,,,,,,,,,t,1.72756929975003,279.4291337998584,None,279.4291337998584,None,2022-09-08-13:58:11.912779,281.18235429981723,281.49632589984685,281.18235429981723,None,None,281.18235429981723,None,281.99545507989825,None,,,,22013,0001,2022_Sep_08_1353,localizer,2021.1.3,61.50174967437977,
block,scenes,scenes067.bmp,,,,,0,123,123,123,,,,,,,,,,,,,,,,,,,,,,,,,,,,,,,,,,,,,,,,,,None,,281.99545507989825,None,281.99545507989825,None,2022-09-08-13:58:12.730496,282.0046556000598,282.3123141997494,282.0046556000598,None,None,282.0046556000598,None,282.812252680026,None,,,,22013,0001,2022_Sep_08_1353,localizer,2021.1.3,61.50174967437977,
block,scenes,scenes029.bmp,,,,,0,124,124,124,,,,,,,,,,,,,,,,,,,,,,,,,,,,,,,,,,,,,,,,,,None,,282.812252680026,None,282.812252680026,None,2022-09-08-13:58:13.546286,282.8155799000524,283.129360999912,282.8155799000524,None,None,282.8155799000524,None,283.6288878798485,None,,,,22013,0001,2022_Sep_08_1353,localizer,2021.1.3,61.50174967437977,
block,scenes,scenes025.bmp,,,,,0,125,125,125,,,,,,,,,,,,,,,,,,,,,,,,,,,,,,,,,,,,,,,,,,None,,283.6288878798485,None,283.6288878798485,None,2022-09-08-13:58:14.363919,283.63839689968154,283.94563539978117,283.63839689968154,None,None,283.63839689968154,None,284.44547418011354,None,,,,22013,0001,2022_Sep_08_1353,localizer,2021.1.3,61.50174967437977,
block,scenes,scenes046.bmp,,,,,0,126,126,126,,,,,,,,,,,,,,,,,,,,,,,,,,,,,,,,,,,,,,,,,,None,,284.44547418011354,None,284.44547418011354,None,2022-09-08-13:58:15.180508,284.44719230011106,284.7626148997806,284.44719230011106,None,None,284.44719230011106,None,285.2622563798912,None,,,,22013,0001,2022_Sep_08_1353,localizer,2021.1.3,61.50174967437977,
block,scenes,scenes046.bmp,,,,,0,127,127,127,,,,,,,,,,,,,,,,,,,,,,,,,,,,,,,,,,,,,,,,,,None,,285.2622563798912,None,285.2622563798912,None,2022-09-08-13:58:15.997730,285.2637061998248,285.57936429977417,285.2637061998248,None,None,285.2637061998248,None,286.0790380800143,None,,,,22013,0001,2022_Sep_08_1353,localizer,2021.1.3,61.50174967437977,
block,scenes,scenes064.bmp,,,,,0,128,128,128,,,,,,,,,,,,,,,,,,,,,,,,,,,,,,,,,,,,,,,,,,None,,286.0790380800143,None,286.0790380800143,None,2022-09-08-13:58:16.814070,286.08049009973183,286.3792032999918,286.08049009973183,None,y,286.08049009973183,None,286.8953989797272,None,0.09489319985732436,,,22013,0001,2022_Sep_08_1353,localizer,2021.1.3,61.50174967437977,
block,scenes,scenes069.bmp,,,,,0,129,129,129,,,,,,,,,,,,,,,,,,,,,,,,,,,,,,,,,,,,,,,,,,None,,286.8953989797272,None,286.8953989797272,None,2022-09-08-13:58:17.629989,286.8989931996912,287.21259729983285,286.8989931996912,None,None,286.8989931996912,None,287.71451127966867,None,,,,22013,0001,2022_Sep_08_1353,localizer,2021.1.3,61.50174967437977,
block,scenes,scenes066.bmp,,,,,0,130,130,130,,,,,,,,,,,,,,,,,,,,,,,,,,,,,,,,,,,,,,,,,,None,,287.71451127966867,None,287.71451127966867,None,2022-09-08-13:58:18.449548,287.71381750004366,288.0293394997716,287.71381750004366,None,None,287.71381750004366,None,288.52901187976823,None,,,,22013,0001,2022_Sep_08_1353,localizer,2021.1.3,61.50174967437977,
block,scenes,scenes007.bmp,,,,,0,131,131,131,,,,,,,,,,,,,,,,,,,,,,,,,,,,,,,,,,,,,,,,,,None,,288.52901187976823,None,288.52901187976823,None,2022-09-08-13:58:19.264639,288.5391151998192,288.8461031001061,288.5391151998192,None,None,288.5391151998192,None,289.3456981798634,None,,,,22013,0001,2022_Sep_08_1353,localizer,2021.1.3,61.50174967437977,
block,scenes,scenes016.bmp,,,,,0,132,132,132,,,,,,,,,,,,,,,,,,,,,,,,,,,,,,,,,,,,,,,,,,None,,289.3456981798634,None,289.3456981798634,None,2022-09-08-13:58:20.080732,289.35548879997805,289.66278029978275,289.35548879997805,None,None,289.35548879997805,None,290.16237237975,None,,,,22013,0001,2022_Sep_08_1353,localizer,2021.1.3,61.50174967437977,
block,scenes,scenes042.bmp,,,,,0,133,133,133,,,,,,,,,,,,,,,,,,,,,,,,,,,,,,,,,,,,,,,,,,None,,290.16237237975,None,290.16237237975,None,2022-09-08-13:58:20.897569,290.16868270002306,290.47931220009923,290.16868270002306,None,None,290.16868270002306,None,290.9789347799495,None,,,,22013,0001,2022_Sep_08_1353,localizer,2021.1.3,61.50174967437977,
block,scenes,scenes087.bmp,,,,,0,134,134,134,,,,,,,,,,,,,,,,,,,,,,,,,,,,,,,,,,,,,,,,,,None,,290.9789347799495,None,290.9789347799495,None,2022-09-08-13:58:21.712976,290.9899224000983,291.29610399995,290.9899224000983,None,None,290.9899224000983,None,291.7957122798078,None,,,,22013,0001,2022_Sep_08_1353,localizer,2021.1.3,61.50174967437977,
block,scenes,scenes074.bmp,,,,,0,135,135,135,,,,,,,,,,,,,,,,,,,,,,,,,,,,,,,,,,,,,,,,,,None,,291.7957122798078,None,291.7957122798078,None,2022-09-08-13:58:22.531135,291.8049094998278,292.11250129994005,291.8049094998278,None,None,291.8049094998278,None,292.6137135799043,None,,,,22013,0001,2022_Sep_08_1353,localizer,2021.1.3,61.50174967437977,
block_end,scenes,scenes080.bmp,,,,,0,136,136,136,,,,,,,,,,,,,,,,,,,,,,,,,,,,,,,,,,,,,,,,,,None,,292.6137135799043,None,292.6137135799043,None,2022-09-08-13:58:23.349905,292.61643979977816,292.9297817000188,292.61643979977816,None,None,292.61643979977816,None,293.4296257800423,None,,,,22013,0001,2022_Sep_08_1353,localizer,2021.1.3,61.50174967437977,
block_start,faces,faces033.bmp,,,,,0,137,137,137,,,,,,,,,,,,,,,,,,,,,,,,,,,,,,,,,,,,,,,,,,t,1.7269102996215224,293.4297535996884,None,293.4297535996884,None,2022-09-08-13:58:25.913275,295.19317169999704,295.495947400108,295.19317169999704,None,None,295.19317169999704,None,295.9958000799641,None,,,,22013,0001,2022_Sep_08_1353,localizer,2021.1.3,61.50174967437977,
block,faces,faces074.bmp,,,,,0,138,138,138,,,,,,,,,,,,,,,,,,,,,,,,,,,,,,,,,,,,,,,,,,None,,295.9958000799641,None,295.9958000799641,None,2022-09-08-13:58:26.730971,296.00110689969733,296.3131287996657,296.00110689969733,None,None,296.00110689969733,None,296.81230147993193,None,,,,22013,0001,2022_Sep_08_1353,localizer,2021.1.3,61.50174967437977,
block,faces,faces039.bmp,,,,,0,139,139,139,,,,,,,,,,,,,,,,,,,,,,,,,,,,,,,,,,,,,,,,,,None,,296.81230147993193,None,296.81230147993193,None,2022-09-08-13:58:27.547338,296.81631649984047,297.1291966997087,296.81631649984047,None,None,296.81631649984047,None,297.6290581800975,None,,,,22013,0001,2022_Sep_08_1353,localizer,2021.1.3,61.50174967437977,
block,faces,faces023.bmp,,,,,0,140,140,140,,,,,,,,,,,,,,,,,,,,,,,,,,,,,,,,,,,,,,,,,,None,,297.6290581800975,None,297.6290581800975,None,2022-09-08-13:58:28.364096,297.6327549996786,297.9460205999203,297.6327549996786,None,None,297.6327549996786,None,298.44578568004073,None,,,,22013,0001,2022_Sep_08_1353,localizer,2021.1.3,61.50174967437977,
block,faces,faces083.bmp,,,,,0,141,141,141,,,,,,,,,,,,,,,,,,,,,,,,,,,,,,,,,,,,,,,,,,None,,298.44578568004073,None,298.44578568004073,None,2022-09-08-13:58:29.180822,298.44964220002294,298.7628528000787,298.44964220002294,None,None,298.44964220002294,None,299.2625001801178,None,,,,22013,0001,2022_Sep_08_1353,localizer,2021.1.3,61.50174967437977,
block,faces,faces061.bmp,,,,,0,142,142,142,,,,,,,,,,,,,,,,,,,,,,,,,,,,,,,,,,,,,,,,,,None,,299.2625001801178,None,299.2625001801178,None,2022-09-08-13:58:29.997693,299.27320239972323,299.57931370008737,299.27320239972323,None,None,299.27320239972323,None,300.07904357993976,None,,,,22013,0001,2022_Sep_08_1353,localizer,2021.1.3,61.50174967437977,
block,faces,faces060.bmp,,,,,0,143,143,143,,,,,,,,,,,,,,,,,,,,,,,,,,,,,,,,,,,,,,,,,,None,,300.07904357993976,None,300.07904357993976,None,2022-09-08-13:58:30.814082,300.08996909996495,300.3961034999229,300.08996909996495,None,None,300.08996909996495,None,300.895723379869,None,,,,22013,0001,2022_Sep_08_1353,localizer,2021.1.3,61.50174967437977,
block,faces,faces080.bmp,,,,,0,144,144,144,,,,,,,,,,,,,,,,,,,,,,,,,,,,,,,,,,,,,,,,,,None,,300.895723379869,None,300.895723379869,None,2022-09-08-13:58:31.630907,300.90359020000324,301.21281450008973,300.90359020000324,None,None,300.90359020000324,None,301.71227807989345,None,,,,22013,0001,2022_Sep_08_1353,localizer,2021.1.3,61.50174967437977,
block,faces,faces040.bmp,,,,,0,145,145,145,,,,,,,,,,,,,,,,,,,,,,,,,,,,,,,,,,,,,,,,,,None,,301.71227807989345,None,301.71227807989345,None,2022-09-08-13:58:32.447318,301.722071999684,302.02944289986044,301.722071999684,None,None,301.722071999684,None,302.5292046798393,None,,,,22013,0001,2022_Sep_08_1353,localizer,2021.1.3,61.50174967437977,
block,faces,faces036.bmp,,,,,0,146,146,146,,,,,,,,,,,,,,,,,,,,,,,,,,,,,,,,,,,,,,,,,,None,,302.5292046798393,None,302.5292046798393,None,2022-09-08-13:58:33.264244,302.530260999687,302.8457896998152,302.530260999687,None,None,302.530260999687,None,303.3292664798908,None,,,,22013,0001,2022_Sep_08_1353,localizer,2021.1.3,61.50174967437977,
block,faces,faces064.bmp,,,,,0,147,147,147,,,,,,,,,,,,,,,,,,,,,,,,,,,,,,,,,,,,,,,,,,None,,303.3292664798908,None,303.3292664798908,None,2022-09-08-13:58:34.065303,303.334018799942,303.6460529998876,303.334018799942,303.334018799942,None,303.334018799942,303.334018799942,304.14568087989466,None,,,,22013,0001,2022_Sep_08_1353,localizer,2021.1.3,61.50174967437977,
block,faces,faces020.bmp,,,,,0,148,148,148,,,,,,,,,,,,,,,,,,,,,,,,,,,,,,,,,,,,,,,,,,None,,304.14568087989466,None,304.14568087989466,None,2022-09-08-13:58:34.880193,304.1473677000031,304.46254969993606,304.1473677000031,None,None,304.1473677000031,None,304.9623711800203,None,,,,22013,0001,2022_Sep_08_1353,localizer,2021.1.3,61.50174967437977,
block,faces,faces063.bmp,,,,,0,149,149,149,,,,,,,,,,,,,,,,,,,,,,,,,,,,,,,,,,,,,,,,,,None,,304.9623711800203,None,304.9623711800203,None,2022-09-08-13:58:35.697412,304.96383409993723,305.27946349978447,304.96383409993723,None,None,304.96383409993723,None,305.77889177966864,None,,,,22013,0001,2022_Sep_08_1353,localizer,2021.1.3,61.50174967437977,
block,faces,faces030.bmp,,,,,0,150,150,150,,,,,,,,,,,,,,,,,,,,,,,,,,,,,,,,,,,,,,,,,,None,,305.77889177966864,None,305.77889177966864,None,2022-09-08-13:58:36.513933,305.7885413998738,306.09611629974097,305.7885413998738,None,None,305.7885413998738,None,306.59580237995834,None,,,,22013,0001,2022_Sep_08_1353,localizer,2021.1.3,61.50174967437977,
block_end,faces,faces050.bmp,,,,,0,151,151,151,,,,,,,,,,,,,,,,,,,,,,,,,,,,,,,,,,,,,,,,,,None,,306.59580237995834,None,306.59580237995834,None,2022-09-08-13:58:37.331277,306.59993989998475,306.913541899994,306.59993989998475,None,None,306.59993989998475,None,307.413297179807,None,,,,22013,0001,2022_Sep_08_1353,localizer,2021.1.3,61.50174967437977,
block_start,scrambled,scrambled025.bmp,,,,,0,152,152,152,,,,,,,,,,,,,,,,,,,,,,,,,,,,,,,,,,,,,,,,,,t,1.7429546997882426,307.4136399999261,None,307.4136399999261,None,2022-09-08-13:58:39.914141,309.1804883996956,309.49610579991713,309.1804883996956,None,None,309.1804883996956,None,309.9956487800926,None,,,,22013,0001,2022_Sep_08_1353,localizer,2021.1.3,61.50174967437977,
block,scrambled,scrambled005.bmp,,,,,0,153,153,153,,,,,,,,,,,,,,,,,,,,,,,,,,,,,,,,,,,,,,,,,,None,,309.9956487800926,None,309.9956487800926,None,2022-09-08-13:58:40.729701,309.99882539967075,310.31265549967065,309.99882539967075,None,None,309.99882539967075,None,310.81239047991113,None,,,,22013,0001,2022_Sep_08_1353,localizer,2021.1.3,61.50174967437977,
block,scrambled,scrambled020.bmp,,,,,0,154,154,154,,,,,,,,,,,,,,,,,,,,,,,,,,,,,,,,,,,,,,,,,,None,,310.81239047991113,None,310.81239047991113,None,2022-09-08-13:58:41.547434,310.82095209974796,311.129648800008,310.82095209974796,None,None,310.82095209974796,None,311.629161379952,None,,,,22013,0001,2022_Sep_08_1353,localizer,2021.1.3,61.50174967437977,
block,scrambled,scrambled036.bmp,,,,,0,155,155,155,,,,,,,,,,,,,,,,,,,,,,,,,,,,,,,,,,,,,,,,,,None,,311.629161379952,None,311.629161379952,None,2022-09-08-13:58:42.364188,311.63308349996805,311.9462335999124,311.63308349996805,None,None,311.63308349996805,None,312.44583317982034,None,,,,22013,0001,2022_Sep_08_1353,localizer,2021.1.3,61.50174967437977,
block,scrambled,scrambled071.bmp,,,,,0,156,156,156,,,,,,,,,,,,,,,,,,,,,,,,,,,,,,,,,,,,,,,,,,None,,312.44583317982034,None,312.44583317982034,None,2022-09-08-13:58:43.180999,312.4471978000365,312.7630857997574,312.4471978000365,None,None,312.4471978000365,None,313.2627716797404,None,,,,22013,0001,2022_Sep_08_1353,localizer,2021.1.3,61.50174967437977,
block,scrambled,scrambled029.bmp,,,,,0,157,157,157,,,,,,,,,,,,,,,,,,,,,,,,,,,,,,,,,,,,,,,,,,None,,313.2627716797404,None,313.2627716797404,None,2022-09-08-13:58:43.998033,313.26711299968883,313.5796790998429,313.26711299968883,None,None,313.26711299968883,None,314.079304380063,None,,,,22013,0001,2022_Sep_08_1353,localizer,2021.1.3,61.50174967437977,
block,scrambled,scrambled014.bmp,,,,,0,158,158,158,,,,,,,,,,,,,,,,,,,,,,,,,,,,,,,,,,,,,,,,,,None,,314.079304380063,None,314.079304380063,None,2022-09-08-13:58:44.814341,314.08046239987016,314.39628929970786,314.08046239987016,None,None,314.08046239987016,None,314.8960541800596,None,,,,22013,0001,2022_Sep_08_1353,localizer,2021.1.3,61.50174967437977,
block,scrambled,scrambled044.bmp,,,,,0,159,159,159,,,,,,,,,,,,,,,,,,,,,,,,,,,,,,,,,,,,,,,,,,None,,314.8960541800596,None,314.8960541800596,None,2022-09-08-13:58:45.631093,314.90026040002704,315.21272329986095,314.90026040002704,None,None,314.90026040002704,None,315.7125179797411,None,,,,22013,0001,2022_Sep_08_1353,localizer,2021.1.3,61.50174967437977,
block,scrambled,scrambled066.bmp,,,,,0,160,160,160,,,,,,,,,,,,,,,,,,,,,,,,,,,,,,,,,,,,,,,,,,None,,315.7125179797411,None,315.7125179797411,None,2022-09-08-13:58:46.447563,315.72094299970195,316.0294912001118,315.72094299970195,None,None,315.72094299970195,None,316.5298357798718,None,,,,22013,0001,2022_Sep_08_1353,localizer,2021.1.3,61.50174967437977,
block,scrambled,scrambled087.bmp,,,,,0,161,161,161,,,,,,,,,,,,,,,,,,,,,,,,,,,,,,,,,,,,,,,,,,None,,316.5298357798718,None,316.5298357798718,None,2022-09-08-13:58:47.265863,316.53621139982715,316.8461206997745,316.53621139982715,None,None,316.53621139982715,None,317.3458375797607,None,,,,22013,0001,2022_Sep_08_1353,localizer,2021.1.3,61.50174967437977,
block,scrambled,scrambled064.bmp,,,,,0,162,162,162,,,,,,,,,,,,,,,,,,,,,,,,,,,,,,,,,,,,,,,,,,None,,317.3458375797607,None,317.3458375797607,None,2022-09-08-13:58:48.080880,317.34725150000304,317.66285359999165,317.34725150000304,None,None,317.34725150000304,None,318.1476276798174,None,,,,22013,0001,2022_Sep_08_1353,localizer,2021.1.3,61.50174967437977,
block,scrambled,scrambled068.bmp,,,,,0,163,163,163,,,,,,,,,,,,,,,,,,,,,,,,,,,,,,,,,,,,,,,,,,None,,318.1476276798174,None,318.1476276798174,None,2022-09-08-13:58:48.884156,318.15382759971544,318.4633033997379,318.15382759971544,318.15382759971544,None,318.15382759971544,318.15382759971544,318.9629799799994,None,,,,22013,0001,2022_Sep_08_1353,localizer,2021.1.3,61.50174967437977,
block,scrambled,scrambled080.bmp,,,,,0,164,164,164,,,,,,,,,,,,,,,,,,,,,,,,,,,,,,,,,,,,,,,,,,None,,318.9629799799994,None,318.9629799799994,None,2022-09-08-13:58:49.698182,318.9682208998129,319.27952730003744,318.9682208998129,None,None,318.9682208998129,None,319.77924747969956,None,,,,22013,0001,2022_Sep_08_1353,localizer,2021.1.3,61.50174967437977,
block,scrambled,scrambled054.bmp,,,,,0,165,165,165,,,,,,,,,,,,,,,,,,,,,,,,,,,,,,,,,,,,,,,,,,None,,319.77924747969956,None,319.77924747969956,None,2022-09-08-13:58:50.514292,319.7900696997531,320.09622239973396,319.7900696997531,None,None,319.7900696997531,None,320.59586747987197,None,,,,22013,0001,2022_Sep_08_1353,localizer,2021.1.3,61.50174967437977,
block_end,scrambled,scrambled004.bmp,,,,,0,166,166,166,,,,,,,,,,,,,,,,,,,,,,,,,,,,,,,,,,,,,,,,,,None,,320.59586747987197,None,320.59586747987197,None,2022-09-08-13:58:51.331377,320.6004103999585,320.91287239966914,320.6004103999585,None,None,320.6004103999585,None,321.41260628001766,None,,,,22013,0001,2022_Sep_08_1353,localizer,2021.1.3,61.50174967437977,
block_start,objects,objects038.bmp,,,,,0,167,167,167,,,,,,,,,,,,,,,,,,,,,,,,,,,,,,,,,,,,,,,,,,t,1.743806699756533,321.4128628000617,None,321.4128628000617,None,2022-09-08-13:58:53.912565,323.18191820010543,323.5029782997444,323.18191820010543,None,None,323.18191820010543,None,323.995768780075,None,,,,22013,0001,2022_Sep_08_1353,localizer,2021.1.3,61.50174967437977,
block,objects,objects061.bmp,,,,,0,168,168,168,,,,,,,,,,,,,,,,,,,,,,,,,,,,,,,,,,,,,,,,,,None,,323.995768780075,None,323.995768780075,None,2022-09-08-13:58:54.730814,324.00446489965543,324.31321309972554,324.00446489965543,None,None,324.00446489965543,None,324.81267057983206,None,,,,22013,0001,2022_Sep_08_1353,localizer,2021.1.3,61.50174967437977,
block,objects,objects010.bmp,,,,,0,169,169,169,,,,,,,,,,,,,,,,,,,,,,,,,,,,,,,,,,,,,,,,,,None,,324.81267057983206,None,324.81267057983206,None,2022-09-08-13:58:55.548093,324.81400399981067,325.1297875000164,324.81400399981067,None,None,324.81400399981067,None,325.6291889796965,None,,,,22013,0001,2022_Sep_08_1353,localizer,2021.1.3,61.50174967437977,
block,objects,objects085.bmp,,,,,0,170,170,170,,,,,,,,,,,,,,,,,,,,,,,,,,,,,,,,,,,,,,,,,,None,,325.6291889796965,None,325.6291889796965,None,2022-09-08-13:58:56.364231,325.63327699992806,325.9466550000943,325.63327699992806,None,None,325.63327699992806,None,326.4459208796732,None,,,,22013,0001,2022_Sep_08_1353,localizer,2021.1.3,61.50174967437977,
block,objects,objects026.bmp,,,,,0,171,171,171,,,,,,,,,,,,,,,,,,,,,,,,,,,,,,,,,,,,,,,,,,None,,326.4459208796732,None,326.4459208796732,None,2022-09-08-13:58:57.180965,326.44924989994615,326.7629201998934,326.44924989994615,None,None,326.44924989994615,None,327.26256877994166,None,,,,22013,0001,2022_Sep_08_1353,localizer,2021.1.3,61.50174967437977,
block,objects,objects042.bmp,,,,,0,172,172,172,,,,,,,,,,,,,,,,,,,,,,,,,,,,,,,,,,,,,,,,,,None,,327.26256877994166,None,327.26256877994166,None,2022-09-08-13:58:57.998043,327.2732923999429,327.5795100997202,327.2732923999429,None,None,327.2732923999429,None,328.07924307994546,None,,,,22013,0001,2022_Sep_08_1353,localizer,2021.1.3,61.50174967437977,
block,objects,objects014.bmp,,,,,0,173,173,173,,,,,,,,,,,,,,,,,,,,,,,,,,,,,,,,,,,,,,,,,,None,,328.07924307994546,None,328.07924307994546,None,2022-09-08-13:58:58.814289,328.0806273999624,328.3961396999657,328.0806273999624,None,None,328.0806273999624,None,328.89614587994294,None,,,,22013,0001,2022_Sep_08_1353,localizer,2021.1.3,61.50174967437977,
block,objects,objects068.bmp,,,,,0,174,174,174,,,,,,,,,,,,,,,,,,,,,,,,,,,,,,,,,,,,,,,,,,None,,328.89614587994294,None,328.89614587994294,None,2022-09-08-13:58:59.631627,328.9002634999342,329.21279300004244,328.9002634999342,None,None,328.9002634999342,None,329.71674738004805,None,,,,22013,0001,2022_Sep_08_1353,localizer,2021.1.3,61.50174967437977,
block,objects,objects031.bmp,,,,,0,175,175,175,,,,,,,,,,,,,,,,,,,,,,,,,,,,,,,,,,,,,,,,,,None,,329.71674738004805,None,329.71674738004805,None,2022-09-08-13:59:00.457726,329.7280729999766,330.0300524998456,329.7280729999766,None,None,329.7280729999766,None,330.5295815800317,None,,,,22013,0001,2022_Sep_08_1353,localizer,2021.1.3,61.50174967437977,
block,objects,objects036.bmp,,,,,0,176,176,176,,,,,,,,,,,,,,,,,,,,,,,,,,,,,,,,,,,,,,,,,,None,,330.5295815800317,None,330.5295815800317,None,2022-09-08-13:59:01.264829,330.53068479988724,330.8460590997711,330.53068479988724,None,None,330.53068479988724,None,331.34591287998484,None,,,,22013,0001,2022_Sep_08_1353,localizer,2021.1.3,61.50174967437977,
block,objects,objects022.bmp,,,,,0,177,177,177,,,,,,,,,,,,,,,,,,,,,,,,,,,,,,,,,,,,,,,,,,None,,331.34591287998484,None,331.34591287998484,None,2022-09-08-13:59:02.081169,331.35641579981893,331.6629956997931,331.35641579981893,None,None,331.35641579981893,None,332.1622806798667,None,,,,22013,0001,2022_Sep_08_1353,localizer,2021.1.3,61.50174967437977,
block,objects,objects002.bmp,,,,,0,178,178,178,,,,,,,,,,,,,,,,,,,,,,,,,,,,,,,,,,,,,,,,,,None,,332.1622806798667,None,332.1622806798667,None,2022-09-08-13:59:02.897331,332.1641671997495,332.4795580999926,332.1641671997495,None,None,332.1641671997495,None,332.9794078797102,None,,,,22013,0001,2022_Sep_08_1353,localizer,2021.1.3,61.50174967437977,
block,objects,objects053.bmp,,,,,0,179,179,179,,,,,,,,,,,,,,,,,,,,,,,,,,,,,,,,,,,,,,,,,,None,,332.9794078797102,None,332.9794078797102,None,2022-09-08-13:59:03.715315,332.98055480001494,333.29617419978604,332.98055480001494,None,None,332.98055480001494,None,333.79639177974315,None,,,,22013,0001,2022_Sep_08_1353,localizer,2021.1.3,61.50174967437977,
block,objects,objects086.bmp,,,,,0,180,180,180,,,,,,,,,,,,,,,,,,,,,,,,,,,,,,,,,,,,,,,,,,None,,333.79639177974315,None,333.79639177974315,None,2022-09-08-13:59:04.531635,333.7974064000882,334.0976931997575,333.7974064000882,None,None,333.7974064000882,None,334.6126554801129,None,,,,22013,0001,2022_Sep_08_1353,localizer,2021.1.3,61.50174967437977,
block_end,objects,objects081.bmp,,,,,0,181,181,181,,,,,,,,,,,,,,,,,,,,,,,,,,,,,,,,,,,,,,,,,,None,,334.6126554801129,None,334.6126554801129,None,2022-09-08-13:59:05.348072,334.62275819992647,334.9297380996868,334.62275819992647,None,None,334.62275819992647,None,335.42945577967913,None,,,,22013,0001,2022_Sep_08_1353,localizer,2021.1.3,61.50174967437977,
null_block,null_block,null_block.bmp,,,,,0,182,182,182,,,,,,,,,,,,,,,,,,,,,,,,,,,,,,,,,,,,,,,,,,t,1.7267360002733767,335.42975999973714,None,335.42975999973714,None,2022-09-08-13:59:07.913622,337.17957267975436,None,337.17957267975436,None,None,337.17957267975436,None,337.18245949968696,None,,,,22013,0001,2022_Sep_08_1353,localizer,2021.1.3,61.50174967437977,
block_start,scrambled,scrambled048.bmp,,,,,0,183,183,183,,,,,,,,,,,,,,,,,,,,,,,,,,,,,,,,,,,,,,,,,,t,1.9592067999765277,349.19638939993456,None,349.19638939993456,None,2022-09-08-13:59:21.914466,351.1812402997166,351.4872110998258,351.1812402997166,None,None,351.1812402997166,None,351.995893580094,None,,,,22013,0001,2022_Sep_08_1353,localizer,2021.1.3,61.50174967437977,
block,scrambled,scrambled021.bmp,,,,,0,184,184,184,,,,,,,,,,,,,,,,,,,,,,,,,,,,,,,,,,,,,,,,,,None,,351.995893580094,None,351.995893580094,None,2022-09-08-13:59:22.730793,351.99922630004585,352.31312689976767,351.99922630004585,None,None,351.99922630004585,None,352.8026621799916,None,,,,22013,0001,2022_Sep_08_1353,localizer,2021.1.3,61.50174967437977,
block,scrambled,scrambled087.bmp,,,,,0,185,185,185,,,,,,,,,,,,,,,,,,,,,,,,,,,,,,,,,,,,,,,,,,None,,352.8026621799916,None,352.8026621799916,None,2022-09-08-13:59:23.541366,352.80626649968326,353.112973799929,352.80626649968326,None,None,352.80626649968326,None,353.61269307993354,None,,,,22013,0001,2022_Sep_08_1353,localizer,2021.1.3,61.50174967437977,
block,scrambled,scrambled073.bmp,,,,,0,186,186,186,,,,,,,,,,,,,,,,,,,,,,,,,,,,,,,,,,,,,,,,,,None,,353.61269307993354,None,353.61269307993354,None,2022-09-08-13:59:24.347745,353.6235918998718,353.92982809990644,353.6235918998718,None,None,353.6235918998718,None,354.42937847990544,None,,,,22013,0001,2022_Sep_08_1353,localizer,2021.1.3,61.50174967437977,
block,scrambled,scrambled039.bmp,,,,,0,187,187,187,,,,,,,,,,,,,,,,,,,,,,,,,,,,,,,,,,,,,,,,,,None,,354.42937847990544,None,354.42937847990544,None,2022-09-08-13:59:25.164432,354.43089279998094,354.74635750008747,354.43089279998094,None,None,354.43089279998094,None,355.2460626798682,None,,,,22013,0001,2022_Sep_08_1353,localizer,2021.1.3,61.50174967437977,
block,scrambled,scrambled063.bmp,,,,,0,188,188,188,,,,,,,,,,,,,,,,,,,,,,,,,,,,,,,,,,,,,,,,,,None,,355.2460626798682,None,355.2460626798682,None,2022-09-08-13:59:25.981113,355.2473434000276,355.5631221998483,355.2473434000276,None,None,355.2473434000276,None,356.062680479791,None,,,,22013,0001,2022_Sep_08_1353,localizer,2021.1.3,61.50174967437977,
block,scrambled,scrambled063.bmp,,,,,0,189,189,189,,,,,,,,,,,,,,,,,,,,,,,,,,,,,,,,,,,,,,,,,,None,,356.062680479791,None,356.062680479791,None,2022-09-08-13:59:26.796918,356.06537720002234,356.379759399686,356.06537720002234,None,None,356.06537720002234,None,356.87927897991614,None,,,,22013,0001,2022_Sep_08_1353,localizer,2021.1.3,61.50174967437977,
block,scrambled,scrambled010.bmp,,,,,0,190,190,190,,,,,,,,,,,,,,,,,,,,,,,,,,,,,,,,,,,,,,,,,,None,,356.87927897991614,None,356.87927897991614,None,2022-09-08-13:59:27.613339,356.8825515997596,357.1965276999399,356.8825515997596,None,y,356.8825515997596,None,357.6960127797909,None,0.2353390003554523,,,22013,0001,2022_Sep_08_1353,localizer,2021.1.3,61.50174967437977,
block,scrambled,scrambled001.bmp,,,,,0,191,191,191,,,,,,,,,,,,,,,,,,,,,,,,,,,,,,,,,,,,,,,,,,None,,357.6960127797909,None,357.6960127797909,None,2022-09-08-13:59:28.431066,357.6974967001006,358.01306060003117,357.6974967001006,None,None,357.6974967001006,None,358.5028238796629,None,,,,22013,0001,2022_Sep_08_1353,localizer,2021.1.3,61.50174967437977,
block,scrambled,scrambled062.bmp,,,,,0,192,192,192,,,,,,,,,,,,,,,,,,,,,,,,,,,,,,,,,,,,,,,,,,None,,358.5028238796629,None,358.5028238796629,None,2022-09-08-13:59:29.241781,358.5178995998576,358.82956979982555,358.5178995998576,None,None,358.5178995998576,None,359.3128287798725,None,,,,22013,0001,2022_Sep_08_1353,localizer,2021.1.3,61.50174967437977,
block,scrambled,scrambled005.bmp,,,,,0,193,193,193,,,,,,,,,,,,,,,,,,,,,,,,,,,,,,,,,,,,,,,,,,None,,359.3128287798725,None,359.3128287798725,None,2022-09-08-13:59:30.047884,359.3140326999128,359.62971149990335,359.3140326999128,None,None,359.3140326999128,None,360.12955337967725,None,,,,22013,0001,2022_Sep_08_1353,localizer,2021.1.3,61.50174967437977,
block,scrambled,scrambled072.bmp,,,,,0,194,194,194,,,,,,,,,,,,,,,,,,,,,,,,,,,,,,,,,,,,,,,,,,None,,360.12955337967725,None,360.12955337967725,None,2022-09-08-13:59:30.864609,360.1394440997392,360.44623309979215,360.1394440997392,None,None,360.1394440997392,None,360.94711227966474,None,,,,22013,0001,2022_Sep_08_1353,localizer,2021.1.3,61.50174967437977,
block,scrambled,scrambled081.bmp,,,,,0,195,195,195,,,,,,,,,,,,,,,,,,,,,,,,,,,,,,,,,,,,,,,,,,None,,360.94711227966474,None,360.94711227966474,None,2022-09-08-13:59:31.683347,360.9549030996859,361.2633066000417,360.9549030996859,None,None,360.9549030996859,None,361.7628399796784,None,,,,22013,0001,2022_Sep_08_1353,localizer,2021.1.3,61.50174967437977,
block,scrambled,scrambled019.bmp,,,,,0,196,196,196,,,,,,,,,,,,,,,,,,,,,,,,,,,,,,,,,,,,,,,,,,None,,361.7628399796784,None,361.7628399796784,None,2022-09-08-13:59:32.497895,361.7662869999185,362.0797302997671,361.7662869999185,None,None,361.7662869999185,None,362.5793906796724,None,,,,22013,0001,2022_Sep_08_1353,localizer,2021.1.3,61.50174967437977,
block_end,scrambled,scrambled012.bmp,,,,,0,197,197,197,,,,,,,,,,,,,,,,,,,,,,,,,,,,,,,,,,,,,,,,,,None,,362.5793906796724,None,362.5793906796724,None,2022-09-08-13:59:33.313172,362.5810471996665,362.8968205000274,362.5810471996665,None,None,362.5810471996665,None,363.396120279748,None,,,,22013,0001,2022_Sep_08_1353,localizer,2021.1.3,61.50174967437977,
null_block,null_block,null_block.bmp,,,,,0,198,198,198,,,,,,,,,,,,,,,,,,,,,,,,,,,,,,,,,,,,,,,,,,t,1.759269899688661,363.39648519968614,None,363.39648519968614,None,2022-09-08-13:59:35.913604,365.17954457988964,None,365.17954457988964,None,None,365.17954457988964,None,365.18279689969495,None,,,,22013,0001,2022_Sep_08_1353,localizer,2021.1.3,61.50174967437977,
block_start,objects,objects064.bmp,,,,,0,199,199,199,,,,,,,,,,,,,,,,,,,,,,,,,,,,,,,,,,,,,,,,,,t,1.9590122997760773,377.1965922000818,None,377.1965922000818,None,2022-09-08-13:59:49.916679,379.1868392000906,379.4964550998993,379.1868392000906,None,None,379.1868392000906,None,379.9957896798849,None,,,,22013,0001,2022_Sep_08_1353,localizer,2021.1.3,61.50174967437977,
block,objects,objects066.bmp,,,,,0,200,200,200,,,,,,,,,,,,,,,,,,,,,,,,,,,,,,,,,,,,,,,,,,None,,379.9957896798849,None,379.9957896798849,None,2022-09-08-13:59:50.730754,380.0007711998187,380.31311819981784,380.0007711998187,None,None,380.0007711998187,None,380.81675368007274,None,,,,22013,0001,2022_Sep_08_1353,localizer,2021.1.3,61.50174967437977,
block,objects,objects057.bmp,,,,,0,201,201,201,,,,,,,,,,,,,,,,,,,,,,,,,,,,,,,,,,,,,,,,,,None,,380.81675368007274,None,380.81675368007274,None,2022-09-08-13:59:51.561677,380.83288849983364,381.14649539999664,380.83288849983364,None,None,380.83288849983364,None,381.62950357999654,None,,,,22013,0001,2022_Sep_08_1353,localizer,2021.1.3,61.50174967437977,
block,objects,objects082.bmp,,,,,0,202,202,202,,,,,,,,,,,,,,,,,,,,,,,,,,,,,,,,,,,,,,,,,,None,,381.62950357999654,None,381.62950357999654,None,2022-09-08-13:59:52.365228,381.63441290007904,381.9504923000932,381.63441290007904,None,None,381.63441290007904,None,382.44630837971346,None,,,,22013,0001,2022_Sep_08_1353,localizer,2021.1.3,61.50174967437977,
block,objects,objects073.bmp,,,,,0,203,203,203,,,,,,,,,,,,,,,,,,,,,,,,,,,,,,,,,,,,,,,,,,None,,382.44630837971346,None,382.44630837971346,None,2022-09-08-13:59:53.181323,382.45141049986705,382.76324689993635,382.45141049986705,None,None,382.45141049986705,None,383.2629813800566,None,,,,22013,0001,2022_Sep_08_1353,localizer,2021.1.3,61.50174967437977,
block,objects,objects054.bmp,,,,,0,204,204,204,,,,,,,,,,,,,,,,,,,,,,,,,,,,,,,,,,,,,,,,,,None,,383.2629813800566,None,383.2629813800566,None,2022-09-08-13:59:53.998038,383.26662939973176,383.5865238998085,383.26662939973176,None,None,383.26662939973176,None,384.07950108004735,None,,,,22013,0001,2022_Sep_08_1353,localizer,2021.1.3,61.50174967437977,
block,objects,objects056.bmp,,,,,0,205,205,205,,,,,,,,,,,,,,,,,,,,,,,,,,,,,,,,,,,,,,,,,,None,,384.07950108004735,None,384.07950108004735,None,2022-09-08-13:59:54.814566,384.0808854997158,384.3806268996559,384.0808854997158,None,None,384.0808854997158,None,384.89638537978755,None,,,,22013,0001,2022_Sep_08_1353,localizer,2021.1.3,61.50174967437977,
block,objects,objects060.bmp,,,,,0,206,206,206,,,,,,,,,,,,,,,,,,,,,,,,,,,,,,,,,,,,,,,,,,None,,384.89638537978755,None,384.89638537978755,None,2022-09-08-13:59:55.631215,384.899662300013,385.21321860002354,384.899662300013,None,None,384.899662300013,None,385.7127736799419,None,,,,22013,0001,2022_Sep_08_1353,localizer,2021.1.3,61.50174967437977,
block,objects,objects047.bmp,,,,,0,207,207,207,,,,,,,,,,,,,,,,,,,,,,,,,,,,,,,,,,,,,,,,,,None,,385.7127736799419,None,385.7127736799419,None,2022-09-08-13:59:56.447840,385.7142214998603,386.013031499926,385.7142214998603,None,None,385.7142214998603,None,386.53582387994976,None,,,,22013,0001,2022_Sep_08_1353,localizer,2021.1.3,61.50174967437977,
block,objects,objects023.bmp,,,,,0,208,208,208,,,,,,,,,,,,,,,,,,,,,,,,,,,,,,,,,,,,,,,,,,None,,386.53582387994976,None,386.53582387994976,None,2022-09-08-13:59:57.270893,386.54060689965263,386.85079629998654,386.54060689965263,None,None,386.54060689965263,None,387.34763457970695,None,,,,22013,0001,2022_Sep_08_1353,localizer,2021.1.3,61.50174967437977,
block,objects,objects009.bmp,,,,,0,209,209,209,,,,,,,,,,,,,,,,,,,,,,,,,,,,,,,,,,,,,,,,,,None,,387.34763457970695,None,387.34763457970695,None,2022-09-08-13:59:58.084803,387.36028679972515,387.6700086998753,387.36028679972515,None,None,387.36028679972515,None,388.16360567994417,None,,,,22013,0001,2022_Sep_08_1353,localizer,2021.1.3,61.50174967437977,
block,objects,objects083.bmp,,,,,0,210,210,210,,,,,,,,,,,,,,,,,,,,,,,,,,,,,,,,,,,,,,,,,,None,,388.16360567994417,None,388.16360567994417,None,2022-09-08-13:59:58.900193,388.16647109994665,388.4800156997517,388.16647109994665,None,None,388.16647109994665,None,388.9666415799409,None,,,,22013,0001,2022_Sep_08_1353,localizer,2021.1.3,61.50174967437977,
block,objects,objects059.bmp,,,,,0,211,211,211,,,,,,,,,,,,,,,,,,,,,,,,,,,,,,,,,,,,,,,,,,None,,388.9666415799409,None,388.9666415799409,None,2022-09-08-13:59:59.705739,388.97491250000894,389.2793542998843,388.97491250000894,388.97491250000894,None,388.97491250000894,388.97491250000894,389.7799566799775,None,,,,22013,0001,2022_Sep_08_1353,localizer,2021.1.3,61.50174967437977,
block,objects,objects043.bmp,,,,,0,212,212,212,,,,,,,,,,,,,,,,,,,,,,,,,,,,,,,,,,,,,,,,,,None,,389.7799566799775,None,389.7799566799775,None,2022-09-08-14:00:00.516606,389.78133929986507,390.09913709992543,389.78133929986507,None,None,389.78133929986507,None,390.58617468010635,None,,,,22013,0001,2022_Sep_08_1353,localizer,2021.1.3,61.50174967437977,
block_end,objects,objects071.bmp,,,,,0,213,213,213,,,,,,,,,,,,,,,,,,,,,,,,,,,,,,,,,,,,,,,,,,None,,390.58617468010635,None,390.58617468010635,None,2022-09-08-14:00:01.324229,390.6004103999585,390.9123618998565,390.6004103999585,None,None,390.6004103999585,None,391.40073537984864,None,,,,22013,0001,2022_Sep_08_1353,localizer,2021.1.3,61.50174967437977,
block_start,scenes,scenes030.bmp,,,,,0,214,214,214,,,,,,,,,,,,,,,,,,,,,,,,,,,,,,,,,,,,,,,,,,t,1.757508700247854,391.3979468997568,None,391.3979468997568,None,2022-09-08-14:00:03.917788,393.19393329974264,393.496536700055,393.19393329974264,None,None,393.19393329974264,None,393.9961628799327,None,,,,22013,0001,2022_Sep_08_1353,localizer,2021.1.3,61.50174967437977,
block,scenes,scenes048.bmp,,,,,0,215,215,215,,,,,,,,,,,,,,,,,,,,,,,,,,,,,,,,,,,,,,,,,,None,,393.9961628799327,None,393.9961628799327,None,2022-09-08-14:00:04.731238,394.00411830004305,394.3140368000604,394.00411830004305,None,None,394.00411830004305,None,394.8143711799756,None,,,,22013,0001,2022_Sep_08_1353,localizer,2021.1.3,61.50174967437977,
block,scenes,scenes017.bmp,,,,,0,216,216,216,,,,,,,,,,,,,,,,,,,,,,,,,,,,,,,,,,,,,,,,,,None,,394.8143711799756,None,394.8143711799756,None,2022-09-08-14:00:05.551273,394.81768749980256,395.13008149992675,394.81768749980256,None,None,394.81768749980256,None,395.63092287974433,None,,,,22013,0001,2022_Sep_08_1353,localizer,2021.1.3,61.50174967437977,
block,scenes,scenes059.bmp,,,,,0,217,217,217,,,,,,,,,,,,,,,,,,,,,,,,,,,,,,,,,,,,,,,,,,None,,395.63092287974433,None,395.63092287974433,None,2022-09-08-14:00:06.367521,395.6383266998455,395.94655469991267,395.6383266998455,None,None,395.6383266998455,None,396.4477484800853,None,,,,22013,0001,2022_Sep_08_1353,localizer,2021.1.3,61.50174967437977,
block,scenes,scenes031.bmp,,,,,0,218,218,218,,,,,,,,,,,,,,,,,,,,,,,,,,,,,,,,,,,,,,,,,,None,,396.4477484800853,None,396.4477484800853,None,2022-09-08-14:00:07.184836,396.4565616999753,396.76505529973656,396.4565616999753,None,None,396.4565616999753,None,397.26979417977856,None,,,,22013,0001,2022_Sep_08_1353,localizer,2021.1.3,61.50174967437977,
block,scenes,scenes081.bmp,,,,,0,219,219,219,,,,,,,,,,,,,,,,,,,,,,,,,,,,,,,,,,,,,,,,,,None,,397.26979417977856,None,397.26979417977856,None,2022-09-08-14:00:08.008729,397.2792005999945,397.58671199996024,397.2792005999945,None,None,397.2792005999945,None,398.08338027978317,None,,,,22013,0001,2022_Sep_08_1353,localizer,2021.1.3,61.50174967437977,
block,scenes,scenes076.bmp,,,,,0,220,220,220,,,,,,,,,,,,,,,,,,,,,,,,,,,,,,,,,,,,,,,,,,None,,398.08338027978317,None,398.08338027978317,None,2022-09-08-14:00:08.818449,398.0825549000874,398.39670379972085,398.0825549000874,None,None,398.0825549000874,None,398.8835912800394,None,,,,22013,0001,2022_Sep_08_1353,localizer,2021.1.3,61.50174967437977,
block,scenes,scenes080.bmp,,,,,0,221,221,221,,,,,,,,,,,,,,,,,,,,,,,,,,,,,,,,,,,,,,,,,,None,,398.8835912800394,None,398.8835912800394,None,2022-09-08-14:00:09.628597,398.8966922997497,399.19657339993864,398.8966922997497,398.8966922997497,None,398.8966922997497,398.8966922997497,399.6972874800675,None,,,,22013,0001,2022_Sep_08_1353,localizer,2021.1.3,61.50174967437977,
block,scenes,scenes012.bmp,,,,,0,222,222,222,,,,,,,,,,,,,,,,,,,,,,,,,,,,,,,,,,,,,,,,,,None,,399.6972874800675,None,399.6972874800675,None,2022-09-08-14:00:10.433691,399.70431599998847,400.01303499983624,399.70431599998847,None,None,399.70431599998847,None,400.514405879844,None,,,,22013,0001,2022_Sep_08_1353,localizer,2021.1.3,61.50174967437977,
block,scenes,scenes088.bmp,,,,,0,223,223,223,,,,,,,,,,,,,,,,,,,,,,,,,,,,,,,,,,,,,,,,,,None,,400.514405879844,None,400.514405879844,None,2022-09-08-14:00:11.251197,400.5176773997955,400.8366870996542,400.5176773997955,None,None,400.5176773997955,None,401.3295594800264,None,,,,22013,0001,2022_Sep_08_1353,localizer,2021.1.3,61.50174967437977,
block,scenes,scenes044.bmp,,,,,0,224,224,224,,,,,,,,,,,,,,,,,,,,,,,,,,,,,,,,,,,,,,,,,,None,,401.3295594800264,None,401.3295594800264,None,2022-09-08-14:00:12.064837,401.33267189981416,401.64720389992,401.33267189981416,None,None,401.33267189981416,None,402.14771608002485,None,,,,22013,0001,2022_Sep_08_1353,localizer,2021.1.3,61.50174967437977,
block,scenes,scenes011.bmp,,,,,0,225,225,225,,,,,,,,,,,,,,,,,,,,,,,,,,,,,,,,,,,,,,,,,,None,,402.14771608002485,None,402.14771608002485,None,2022-09-08-14:00:12.884687,402.15611269976944,402.463427499868,402.15611269976944,None,None,402.15611269976944,None,402.9629733797163,None,,,,22013,0001,2022_Sep_08_1353,localizer,2021.1.3,61.50174967437977,
block,scenes,scenes053.bmp,,,,,0,226,226,226,,,,,,,,,,,,,,,,,,,,,,,,,,,,,,,,,,,,,,,,,,None,,402.9629733797163,None,402.9629733797163,None,2022-09-08-14:00:13.697662,402.9661163999699,403.28663699980825,402.9661163999699,None,None,402.9661163999699,None,403.7811479798518,None,,,,22013,0001,2022_Sep_08_1353,localizer,2021.1.3,61.50174967437977,
block,scenes,scenes002.bmp,,,,,0,227,227,227,,,,,,,,,,,,,,,,,,,,,,,,,,,,,,,,,,,,,,,,,,None,,403.7811479798518,None,403.7811479798518,None,2022-09-08-14:00:14.517730,403.7838049000129,404.09639449976385,403.7838049000129,None,None,403.7838049000129,None,404.59638877976687,None,,,,22013,0001,2022_Sep_08_1353,localizer,2021.1.3,61.50174967437977,
block_end,scenes,scenes046.bmp,,,,,0,228,228,228,,,,,,,,,,,,,,,,,,,,,,,,,,,,,,,,,,,,,,,,,,None,,404.59638877976687,None,404.59638877976687,None,2022-09-08-14:00:15.331813,404.5976737998426,404.89850409980863,404.5976737998426,None,None,404.5976737998426,None,405.4128122797236,None,,,,22013,0001,2022_Sep_08_1353,localizer,2021.1.3,61.50174967437977,
block_start,faces,faces017.bmp,,,,,0,229,229,229,,,,,,,,,,,,,,,,,,,,,,,,,,,,,,,,,,,,,,,,,,t,1.7425772999413311,405.41312419995666,None,405.41312419995666,None,2022-09-08-14:00:17.920234,407.1958679999225,407.496519099921,407.1958679999225,None,None,407.1958679999225,None,407.9971363797784,None,,,,22013,0001,2022_Sep_08_1353,localizer,2021.1.3,61.50174967437977,
block,faces,faces058.bmp,,,,,0,230,230,230,,,,,,,,,,,,,,,,,,,,,,,,,,,,,,,,,,,,,,,,,,None,,407.9971363797784,None,407.9971363797784,None,2022-09-08-14:00:18.733074,408.0052002999,408.3133028000593,408.0052002999,None,None,408.0052002999,None,408.81443827990444,None,,,,22013,0001,2022_Sep_08_1353,localizer,2021.1.3,61.50174967437977,
block,faces,faces071.bmp,,,,,0,231,231,231,,,,,,,,,,,,,,,,,,,,,,,,,,,,,,,,,,,,,,,,,,None,,408.81443827990444,None,408.81443827990444,None,2022-09-08-14:00:19.551897,408.8239998999052,409.1304313996807,408.8239998999052,None,None,408.8239998999052,None,409.61966467993335,None,,,,22013,0001,2022_Sep_08_1353,localizer,2021.1.3,61.50174967437977,
block,faces,faces057.bmp,,,,,0,232,232,232,,,,,,,,,,,,,,,,,,,,,,,,,,,,,,,,,,,,,,,,,,None,,409.61966467993335,None,409.61966467993335,None,2022-09-08-14:00:20.358726,409.6242550997995,409.93083929969,409.6242550997995,None,None,409.6242550997995,None,410.42962458003313,None,,,,22013,0001,2022_Sep_08_1353,localizer,2021.1.3,61.50174967437977,
block,faces,faces076.bmp,,,,,0,233,233,233,,,,,,,,,,,,,,,,,,,,,,,,,,,,,,,,,,,,,,,,,,None,,410.42962458003313,None,410.42962458003313,None,2022-09-08-14:00:21.165171,410.43978769984096,410.74726539989933,410.43978769984096,None,None,410.43978769984096,None,411.24702477985994,None,,,,22013,0001,2022_Sep_08_1353,localizer,2021.1.3,61.50174967437977,
block,faces,faces039.bmp,,,,,0,234,234,234,,,,,,,,,,,,,,,,,,,,,,,,,,,,,,,,,,,,,,,,,,None,,411.24702477985994,None,411.24702477985994,None,2022-09-08-14:00:21.983037,411.2479538996704,411.56391440005973,411.2479538996704,None,None,411.2479538996704,None,412.0471862798557,None,,,,22013,0001,2022_Sep_08_1353,localizer,2021.1.3,61.50174967437977,
block,faces,faces078.bmp,,,,,0,235,235,235,,,,,,,,,,,,,,,,,,,,,,,,,,,,,,,,,,,,,,,,,,None,,412.0471862798557,None,412.0471862798557,None,2022-09-08-14:00:22.785043,412.05736529966816,412.3648489997722,412.05736529966816,412.05736529966816,None,412.05736529966816,412.05736529966816,412.86289997976274,None,,,,22013,0001,2022_Sep_08_1353,localizer,2021.1.3,61.50174967437977,
block,faces,faces038.bmp,,,,,0,236,236,236,,,,,,,,,,,,,,,,,,,,,,,,,,,,,,,,,,,,,,,,,,None,,412.86289997976274,None,412.86289997976274,None,2022-09-08-14:00:23.598308,412.8769143000245,413.1807744000107,412.8769143000245,None,None,412.8769143000245,None,413.67974247988315,None,,,,22013,0001,2022_Sep_08_1353,localizer,2021.1.3,61.50174967437977,
block,faces,faces050.bmp,,,,,0,237,237,237,,,,,,,,,,,,,,,,,,,,,,,,,,,,,,,,,,,,,,,,,,None,,413.67974247988315,None,413.67974247988315,None,2022-09-08-14:00:24.415570,413.6816531997174,414.00328439986333,413.6816531997174,None,None,413.6816531997174,None,414.48440327979625,None,,,,22013,0001,2022_Sep_08_1353,localizer,2021.1.3,61.50174967437977,
block,faces,faces080.bmp,,,,,0,238,238,238,,,,,,,,,,,,,,,,,,,,,,,,,,,,,,,,,,,,,,,,,,None,,414.48440327979625,None,414.48440327979625,None,2022-09-08-14:00:25.224430,414.49198330007493,414.79745079996064,414.49198330007493,414.49198330007493,None,414.49198330007493,414.49198330007493,415.30323747983203,None,,,,22013,0001,2022_Sep_08_1353,localizer,2021.1.3,61.50174967437977,
block,faces,faces022.bmp,,,,,0,239,239,239,,,,,,,,,,,,,,,,,,,,,,,,,,,,,,,,,,,,,,,,,,None,,415.30323747983203,None,415.30323747983203,None,2022-09-08-14:00:26.044044,415.31615770002827,415.6307741999626,415.31615770002827,None,None,415.31615770002827,None,416.1127738800831,None,,,,22013,0001,2022_Sep_08_1353,localizer,2021.1.3,61.50174967437977,
block,faces,faces031.bmp,,,,,0,240,240,240,,,,,,,,,,,,,,,,,,,,,,,,,,,,,,,,,,,,,,,,,,None,,416.1127738800831,None,416.1127738800831,None,2022-09-08-14:00:26.847981,416.11640649987385,416.41800739988685,416.11640649987385,None,None,416.11640649987385,None,416.9297175800428,None,,,,22013,0001,2022_Sep_08_1353,localizer,2021.1.3,61.50174967437977,
block,faces,faces088.bmp,,,,,0,241,241,241,,,,,,,,,,,,,,,,,,,,,,,,,,,,,,,,,,,,,,,,,,None,,416.9297175800428,None,416.9297175800428,None,2022-09-08-14:00:27.664862,416.9401994999498,417.24756649974734,416.9401994999498,None,None,416.9401994999498,None,417.74877217989416,None,,,,22013,0001,2022_Sep_08_1353,localizer,2021.1.3,61.50174967437977,
block,faces,faces018.bmp,,,,,0,242,242,242,,,,,,,,,,,,,,,,,,,,,,,,,,,,,,,,,,,,,,,,,,None,,417.74877217989416,None,417.74877217989416,None,2022-09-08-14:00:28.487750,417.75217599980533,418.06414419971406,417.75217599980533,None,None,417.75217599980533,None,418.5631610799581,None,,,,22013,0001,2022_Sep_08_1353,localizer,2021.1.3,61.50174967437977,
block_end,faces,faces081.bmp,,,,,0,243,243,243,,,,,,,,,,,,,,,,,,,,,,,,,,,,,,,,,,,,,,,,,,None,,418.5631610799581,None,418.5631610799581,None,2022-09-08-14:00:29.298048,418.5669138999656,418.88385250000283,418.5669138999656,None,None,418.5669138999656,None,419.3806117798202,None,,,,22013,0001,2022_Sep_08_1353,localizer,2021.1.3,61.50174967437977,
,,,,,,,,,,,,,,,,,,,,,,,,,,,,,,,,,,,,,,,,,,,,,,,,,,,,,,,,,,,,,,,,,,,,,419.38557250006124,None,,,,,,,
