block_type,condition,img_name,Button.thisRepN,Button.thisTrialN,Button.thisN,Button.thisIndex,trials.thisRepN,trials.thisTrialN,trials.thisN,trials.thisIndex,Ready_experimenter_text.started,Ready_experimenter_text.stopped,Ready_experimenter_resp.keys,Ready_experimenter_resp.rt,Ready_experimenter_resp.started,Ready_experimenter_resp.stopped,Alignment_background.started,Alignment_background.stopped,Alignment_image.started,Alignment_image.stopped,Alignment_resp.keys,Alignment_resp.rt,Alignment_resp.started,Alignment_resp.stopped,Button_text.started,Button_text.stopped,Index_text.started,Index_text.stopped,Index_resp.keys,Index_resp.rt,Index_resp.started,Index_resp.stopped,Middle_text.started,Middle_text.stopped,Middle_resp.keys,Middle_resp.rt,Middle_resp.started,Middle_resp.stopped,Repeat_text.started,Repeat_text.stopped,Repeat_resp.keys,Repeat_resp.corr,Repeat_resp.rt,Repeat_resp.started,Repeat_resp.stopped,instruction_text.started,instruction_text.stopped,key_resp.keys,key_resp.rt,key_resp.started,key_resp.stopped,scanner_t.keys,scanner_t.rt,scanner_t.started,scanner_t.stopped,fixation_wait_for_t.started,fixation_wait_for_t.stopped,real_timestamp_trial_start,image.started,image.stopped,fixation.started,fixation.stopped,repeat_response.keys,repeat_response.started,repeat_response.stopped,fixation_null.started,fixation_null.stopped,repeat_response.rt,end_text.started,end_text.stopped,participant,run,date,expName,psychopyVersion,frameRate,
,,,,,,,,,,,10.365074799861759,None,return,270.73333790013567,10.365074799861759,None,,,,,,,,,,,,,,,,,,,,,,,,,,,,,,,,,,,,,,,,,,,,,,,,,,,,,,,22054,0002,2023_Apr_20_1038,localizer,2021.1.3,60.779669422478904,
,,,,,,,,,,,,,,,,,281.15043959999457,None,281.15043959999457,None,return,0.4359124000184238,281.15043959999457,None,,,,,,,,,,,,,,,,,,,,,,,,,,,,,,,,,,,,,,,,,,,,,,,22054,0002,2023_Apr_20_1038,localizer,2021.1.3,60.779669422478904,
,,,0,0,0,0,,,,,,,,,,,,,,,,,,,281.6090628001839,None,282.6085210000165,None,y,1.0508283996023238,282.6085210000165,None,283.6759692002088,None,b,1.8933984003961086,283.6759692002088,None,285.5920313000679,None,n,0,0.917403600178659,285.5920313000679,None,,,,,,,,,,,,,,,,,,,,,,,,,,22054,0002,2023_Apr_20_1038,localizer,2021.1.3,60.779669422478904,
,,,,,,,,,,,,,,,,,,,,,,,,,,,,,,,,,,,,,,,,,,,,,,286.5253673000261,None,y,6.0457270997576416,286.5253673000261,None,,,,,,,,,,,,,,,,,,,,22054,0002,2023_Apr_20_1038,localizer,2021.1.3,60.779669422478904,
block_start,faces,faces043.bmp,,,,,0,0,0,0,,,,,,,,,,,,,,,,,,,,,,,,,,,,,,,,,,,,,,,,,,t,18.28525700001046,292.6207190002315,None,292.6207190002315,None,2023-04-20-10:44:00.396748,310.9366866000928,311.2423431002535,310.9366866000928,None,None,310.9366866000928,None,311.7424908998422,None,,,,22054,0002,2023_Apr_20_1038,localizer,2021.1.3,60.779669422478904,
block,faces,faces007.bmp,,,,,0,1,1,1,,,,,,,,,,,,,,,,,,,,,,,,,,,,,,,,,,,,,,,,,,None,,311.7424908998422,None,311.7424908998422,None,2023-04-20-10:44:01.215167,311.7579963002354,312.05872269999236,311.7579963002354,None,None,311.7579963002354,None,312.5587085002102,None,,,,22054,0002,2023_Apr_20_1038,localizer,2021.1.3,60.779669422478904,
block,faces,faces081.bmp,,,,,0,2,2,2,,,,,,,,,,,,,,,,,,,,,,,,,,,,,,,,,,,,,,,,,,None,,312.5587085002102,None,312.5587085002102,None,2023-04-20-10:44:02.030512,312.5601273002103,312.87552980007604,312.5601273002103,None,None,312.5601273002103,None,313.37510860022155,None,,,,22054,0002,2023_Apr_20_1038,localizer,2021.1.3,60.779669422478904,
block,faces,faces021.bmp,,,,,0,3,3,3,,,,,,,,,,,,,,,,,,,,,,,,,,,,,,,,,,,,,,,,,,None,,313.37510860022155,None,313.37510860022155,None,2023-04-20-10:44:02.847186,313.38623020006344,313.6922940001823,313.38623020006344,None,None,313.38623020006344,None,314.19452859982846,None,,,,22054,0002,2023_Apr_20_1038,localizer,2021.1.3,60.779669422478904,
block,faces,faces075.bmp,,,,,0,4,4,4,,,,,,,,,,,,,,,,,,,,,,,,,,,,,,,,,,,,,,,,,,None,,314.19452859982846,None,314.19452859982846,None,2023-04-20-10:44:03.671155,314.2138964999467,314.5317799001932,314.2138964999467,None,None,314.2138964999467,None,315.0087007001042,None,,,,22054,0002,2023_Apr_20_1038,localizer,2021.1.3,60.779669422478904,
block,faces,faces052.bmp,,,,,0,5,5,5,,,,,,,,,,,,,,,,,,,,,,,,,,,,,,,,,,,,,,,,,,None,,315.0087007001042,None,315.0087007001042,None,2023-04-20-10:44:04.480531,315.0100826998241,315.3258324000053,315.0100826998241,None,None,315.0100826998241,None,315.8254099000245,None,,,,22054,0002,2023_Apr_20_1038,localizer,2021.1.3,60.779669422478904,
block,faces,faces045.bmp,,,,,0,6,6,6,,,,,,,,,,,,,,,,,,,,,,,,,,,,,,,,,,,,,,,,,,None,,315.8254099000245,None,315.8254099000245,None,2023-04-20-10:44:05.297108,315.83810190018266,316.1420863000676,315.83810190018266,None,None,315.83810190018266,None,316.6424372001551,None,,,,22054,0002,2023_Apr_20_1038,localizer,2021.1.3,60.779669422478904,
block,faces,faces080.bmp,,,,,0,7,7,7,,,,,,,,,,,,,,,,,,,,,,,,,,,,,,,,,,,,,,,,,,None,,316.6424372001551,None,316.6424372001551,None,2023-04-20-10:44:06.114132,316.6587967998348,316.96475550020114,316.6587967998348,None,None,316.6587967998348,None,317.4589489000849,None,,,,22054,0002,2023_Apr_20_1038,localizer,2021.1.3,60.779669422478904,
block,faces,faces033.bmp,,,,,0,8,8,8,,,,,,,,,,,,,,,,,,,,,,,,,,,,,,,,,,,,,,,,,,None,,317.4589489000849,None,317.4589489000849,None,2023-04-20-10:44:06.930805,317.47229210007936,317.7757878000848,317.47229210007936,None,None,317.47229210007936,None,318.27535679992286,None,,,,22054,0002,2023_Apr_20_1038,localizer,2021.1.3,60.779669422478904,
block,faces,faces008.bmp,,,,,0,9,9,9,,,,,,,,,,,,,,,,,,,,,,,,,,,,,,,,,,,,,,,,,,None,,318.27535679992286,None,318.27535679992286,None,2023-04-20-10:44:07.747066,318.2769594001584,318.59222290012985,318.2769594001584,None,None,318.2769594001584,None,319.0925309002399,None,,,,22054,0002,2023_Apr_20_1038,localizer,2021.1.3,60.779669422478904,
block,faces,faces005.bmp,,,,,0,10,10,10,,,,,,,,,,,,,,,,,,,,,,,,,,,,,,,,,,,,,,,,,,None,,319.0925309002399,None,319.0925309002399,None,2023-04-20-10:44:08.564261,319.09346200013533,319.40949109988287,319.09346200013533,None,None,319.09346200013533,None,319.9091944001615,None,,,,22054,0002,2023_Apr_20_1038,localizer,2021.1.3,60.779669422478904,
block,faces,faces014.bmp,,,,,0,11,11,11,,,,,,,,,,,,,,,,,,,,,,,,,,,,,,,,,,,,,,,,,,None,,319.9091944001615,None,319.9091944001615,None,2023-04-20-10:44:09.380898,319.91026200028136,320.22541580023244,319.91026200028136,None,None,319.91026200028136,None,320.71153090018777,None,,,,22054,0002,2023_Apr_20_1038,localizer,2021.1.3,60.779669422478904,
block,faces,faces029.bmp,,,,,0,12,12,12,,,,,,,,,,,,,,,,,,,,,,,,,,,,,,,,,,,,,,,,,,None,,320.71153090018777,None,320.71153090018777,None,2023-04-20-10:44:10.185286,320.72410649992526,321.02608849992976,320.72410649992526,320.72410649992526,None,320.72410649992526,320.72410649992526,321.52616280000655,None,,,,22054,0002,2023_Apr_20_1038,localizer,2021.1.3,60.779669422478904,
block,faces,faces072.bmp,,,,,0,13,13,13,,,,,,,,,,,,,,,,,,,,,,,,,,,,,,,,,,,,,,,,,,None,,321.52616280000655,None,321.52616280000655,None,2023-04-20-10:44:10.997979,321.5271040000953,321.8429112001322,321.5271040000953,None,None,321.5271040000953,None,322.34205419998614,None,,,,22054,0002,2023_Apr_20_1038,localizer,2021.1.3,60.779669422478904,
block_end,faces,faces050.bmp,,,,,0,14,14,14,,,,,,,,,,,,,,,,,,,,,,,,,,,,,,,,,,,,,,,,,,None,,322.34205419998614,None,322.34205419998614,None,2023-04-20-10:44:11.813858,322.3527993001044,322.6589362001978,322.3527993001044,None,None,322.3527993001044,None,323.1603628002107,None,,,,22054,0002,2023_Apr_20_1038,localizer,2021.1.3,60.779669422478904,
block_start,scenes,scenes028.bmp,,,,,0,15,15,15,,,,,,,,,,,,,,,,,,,,,,,,,,,,,,,,,,,,,,,,,,t,1.7455528997816145,323.16037790011615,None,323.16037790011615,None,2023-04-20-10:44:14.397354,324.93665060028434,325.24250150006264,324.93665060028434,None,None,324.93665060028434,None,325.74277160000054,None,,,,22054,0002,2023_Apr_20_1038,localizer,2021.1.3,60.779669422478904,
block,scenes,scenes064.bmp,,,,,0,16,16,16,,,,,,,,,,,,,,,,,,,,,,,,,,,,,,,,,,,,,,,,,,None,,325.74277160000054,None,325.74277160000054,None,2023-04-20-10:44:15.213835,325.7437630998902,326.0431768000126,325.7437630998902,None,None,325.7437630998902,None,326.55929290000347,None,,,,22054,0002,2023_Apr_20_1038,localizer,2021.1.3,60.779669422478904,
block,scenes,scenes016.bmp,,,,,0,17,17,17,,,,,,,,,,,,,,,,,,,,,,,,,,,,,,,,,,,,,,,,,,None,,326.55929290000347,None,326.55929290000347,None,2023-04-20-10:44:16.031029,326.5714142001234,326.87587899994105,326.5714142001234,None,None,326.5714142001234,None,327.3823373002,None,,,,22054,0002,2023_Apr_20_1038,localizer,2021.1.3,60.779669422478904,
block,scenes,scenes090.bmp,,,,,0,18,18,18,,,,,,,,,,,,,,,,,,,,,,,,,,,,,,,,,,,,,,,,,,None,,327.3823373002,None,327.3823373002,None,2023-04-20-10:44:16.861727,327.38932560011744,327.6928174998611,327.38932560011744,None,None,327.38932560011744,None,328.19286039993165,None,,,,22054,0002,2023_Apr_20_1038,localizer,2021.1.3,60.779669422478904,
block,scenes,scenes077.bmp,,,,,0,19,19,19,,,,,,,,,,,,,,,,,,,,,,,,,,,,,,,,,,,,,,,,,,None,,328.19286039993165,None,328.19286039993165,None,2023-04-20-10:44:17.664598,328.1935099000111,328.49274489982054,328.1935099000111,None,None,328.1935099000111,None,328.99917710023,None,,,,22054,0002,2023_Apr_20_1038,localizer,2021.1.3,60.779669422478904,
block,scenes,scenes018.bmp,,,,,0,20,20,20,,,,,,,,,,,,,,,,,,,,,,,,,,,,,,,,,,,,,,,,,,None,,328.99917710023,None,328.99917710023,None,2023-04-20-10:44:18.476709,329.0065966998227,329.30980669986457,329.0065966998227,None,None,329.0065966998227,None,329.8093705001287,None,,,,22054,0002,2023_Apr_20_1038,localizer,2021.1.3,60.779669422478904,
block,scenes,scenes008.bmp,,,,,0,21,21,21,,,,,,,,,,,,,,,,,,,,,,,,,,,,,,,,,,,,,,,,,,None,,329.8093705001287,None,329.8093705001287,None,2023-04-20-10:44:19.281113,329.8103117002174,330.1106398999691,329.8103117002174,None,None,329.8103117002174,None,330.6095242999494,None,,,,22054,0002,2023_Apr_20_1038,localizer,2021.1.3,60.779669422478904,
block,scenes,scenes009.bmp,,,,,0,22,22,22,,,,,,,,,,,,,,,,,,,,,,,,,,,,,,,,,,,,,,,,,,None,,330.6095242999494,None,330.6095242999494,None,2023-04-20-10:44:20.084487,330.6245001000352,330.9261419000104,330.6245001000352,330.6245001000352,None,330.6245001000352,330.6245001000352,331.42818599995223,None,,,,22054,0002,2023_Apr_20_1038,localizer,2021.1.3,60.779669422478904,
block,scenes,scenes085.bmp,,,,,0,23,23,23,,,,,,,,,,,,,,,,,,,,,,,,,,,,,,,,,,,,,,,,,,None,,331.42818599995223,None,331.42818599995223,None,2023-04-20-10:44:20.904933,331.4448771998286,331.75928460014984,331.4448771998286,None,None,331.4448771998286,None,332.24316870011387,None,,,,22054,0002,2023_Apr_20_1038,localizer,2021.1.3,60.779669422478904,
block,scenes,scenes085.bmp,,,,,0,24,24,24,,,,,,,,,,,,,,,,,,,,,,,,,,,,,,,,,,,,,,,,,,None,,332.24316870011387,None,332.24316870011387,None,2023-04-20-10:44:21.714920,332.24366910010576,332.54338390007615,332.24366910010576,None,y,332.24366910010576,None,333.04333009999243,None,0.6746208001859486,,,22054,0002,2023_Apr_20_1038,localizer,2021.1.3,60.779669422478904,
block,scenes,scenes003.bmp,,,,,0,25,25,25,,,,,,,,,,,,,,,,,,,,,,,,,,,,,,,,,,,,,,,,,,None,,333.04333009999243,None,333.04333009999243,None,2023-04-20-10:44:22.519066,333.0474955998361,333.3593764002435,333.0474955998361,333.0474955998361,None,333.0474955998361,333.0474955998361,333.8599192999303,None,,,,22054,0002,2023_Apr_20_1038,localizer,2021.1.3,60.779669422478904,
block,scenes,scenes056.bmp,,,,,0,26,26,26,,,,,,,,,,,,,,,,,,,,,,,,,,,,,,,,,,,,,,,,,,None,,333.8599192999303,None,333.8599192999303,None,2023-04-20-10:44:23.332864,333.86060020001605,334.17639440018684,333.86060020001605,None,None,333.86060020001605,None,334.65998590001834,None,,,,22054,0002,2023_Apr_20_1038,localizer,2021.1.3,60.779669422478904,
block,scenes,scenes005.bmp,,,,,0,27,27,27,,,,,,,,,,,,,,,,,,,,,,,,,,,,,,,,,,,,,,,,,,None,,334.65998590001834,None,334.65998590001834,None,2023-04-20-10:44:24.134617,334.6696958001703,334.97582500008866,334.6696958001703,334.6696958001703,None,334.6696958001703,334.6696958001703,335.4761168999597,None,,,,22054,0002,2023_Apr_20_1038,localizer,2021.1.3,60.779669422478904,
block,scenes,scenes068.bmp,,,,,0,28,28,28,,,,,,,,,,,,,,,,,,,,,,,,,,,,,,,,,,,,,,,,,,None,,335.4761168999597,None,335.4761168999597,None,2023-04-20-10:44:24.948005,335.4771095998585,335.7928749001585,335.4771095998585,None,None,335.4771095998585,None,336.27616330012677,None,,,,22054,0002,2023_Apr_20_1038,localizer,2021.1.3,60.779669422478904,
block_end,scenes,scenes021.bmp,,,,,0,29,29,29,,,,,,,,,,,,,,,,,,,,,,,,,,,,,,,,,,,,,,,,,,None,,336.27616330012677,None,336.27616330012677,None,2023-04-20-10:44:25.749923,336.27915870025754,336.59285470005125,336.27915870025754,336.27915870025754,None,336.27915870025754,336.27915870025754,337.09232380017636,None,,,,22054,0002,2023_Apr_20_1038,localizer,2021.1.3,60.779669422478904,
null_block,null_block,null_block.bmp,,,,,0,30,30,30,,,,,,,,,,,,,,,,,,,,,,,,,,,,,,,,,,,,,,,,,,t,1.812489700037986,337.09255960024893,None,337.09255960024893,None,2023-04-20-10:44:28.398346,338.92659300016237,None,338.92659300016237,None,None,338.92659300016237,None,338.93009719997644,None,,,,22054,0002,2023_Apr_20_1038,localizer,2021.1.3,60.779669422478904,
block_start,scrambled,scrambled069.bmp,,,,,0,31,31,31,,,,,,,,,,,,,,,,,,,,,,,,,,,,,,,,,,,,,,,,,,t,1.9619081998243928,350.943142300006,None,350.943142300006,None,2023-04-20-10:44:42.400360,352.94089990016073,353.24349649995565,352.94089990016073,None,None,352.94089990016073,None,353.74335500001905,None,,,,22054,0002,2023_Apr_20_1038,localizer,2021.1.3,60.779669422478904,
block,scrambled,scrambled075.bmp,,,,,0,32,32,32,,,,,,,,,,,,,,,,,,,,,,,,,,,,,,,,,,,,,,,,,,None,,353.74335500001905,None,353.74335500001905,None,2023-04-20-10:44:43.216211,353.7581352000125,354.06024020025507,353.7581352000125,None,None,353.7581352000125,None,354.5599775999784,None,,,,22054,0002,2023_Apr_20_1038,localizer,2021.1.3,60.779669422478904,
block,scrambled,scrambled019.bmp,,,,,0,33,33,33,,,,,,,,,,,,,,,,,,,,,,,,,,,,,,,,,,,,,,,,,,None,,354.5599775999784,None,354.5599775999784,None,2023-04-20-10:44:44.032769,354.5604352001101,354.85987420007586,354.5604352001101,None,None,354.5604352001101,None,355.360908500012,None,,,,22054,0002,2023_Apr_20_1038,localizer,2021.1.3,60.779669422478904,
block,scrambled,scrambled084.bmp,,,,,0,34,34,34,,,,,,,,,,,,,,,,,,,,,,,,,,,,,,,,,,,,,,,,,,None,,355.360908500012,None,355.360908500012,None,2023-04-20-10:44:44.835038,355.37467489996925,355.6764103001915,355.37467489996925,355.37467489996925,None,355.37467489996925,355.37467489996925,356.17627089992163,None,,,,22054,0002,2023_Apr_20_1038,localizer,2021.1.3,60.779669422478904,
block,scrambled,scrambled041.bmp,,,,,0,35,35,35,,,,,,,,,,,,,,,,,,,,,,,,,,,,,,,,,,,,,,,,,,None,,356.17627089992163,None,356.17627089992163,None,2023-04-20-10:44:45.648107,356.17686619982123,356.49256459996104,356.17686619982123,None,None,356.17686619982123,None,356.99260979993267,None,,,,22054,0002,2023_Apr_20_1038,localizer,2021.1.3,60.779669422478904,
block,scrambled,scrambled010.bmp,,,,,0,36,36,36,,,,,,,,,,,,,,,,,,,,,,,,,,,,,,,,,,,,,,,,,,None,,356.99260979993267,None,356.99260979993267,None,2023-04-20-10:44:46.464633,357.00306109990925,357.30948409996927,357.00306109990925,None,None,357.00306109990925,None,357.8093126999214,None,,,,22054,0002,2023_Apr_20_1038,localizer,2021.1.3,60.779669422478904,
block,scrambled,scrambled036.bmp,,,,,0,37,37,37,,,,,,,,,,,,,,,,,,,,,,,,,,,,,,,,,,,,,,,,,,None,,357.8093126999214,None,357.8093126999214,None,2023-04-20-10:44:47.281158,357.8104500002228,358.1261924998835,357.8104500002228,None,None,357.8104500002228,None,358.60969050005076,None,,,,22054,0002,2023_Apr_20_1038,localizer,2021.1.3,60.779669422478904,
block,scrambled,scrambled053.bmp,,,,,0,38,38,38,,,,,,,,,,,,,,,,,,,,,,,,,,,,,,,,,,,,,,,,,,None,,358.60969050005076,None,358.60969050005076,None,2023-04-20-10:44:48.082529,358.61053489986807,358.926139799878,358.61053489986807,358.61053489986807,None,358.61053489986807,358.61053489986807,359.42622629981486,None,,,,22054,0002,2023_Apr_20_1038,localizer,2021.1.3,60.779669422478904,
block,scrambled,scrambled050.bmp,,,,,0,39,39,39,,,,,,,,,,,,,,,,,,,,,,,,,,,,,,,,,,,,,,,,,,None,,359.42622629981486,None,359.42622629981486,None,2023-04-20-10:44:48.898385,359.43837510002777,359.74292630003765,359.43837510002777,None,None,359.43837510002777,None,360.242748099938,None,,,,22054,0002,2023_Apr_20_1038,localizer,2021.1.3,60.779669422478904,
block,scrambled,scrambled063.bmp,,,,,0,40,40,40,,,,,,,,,,,,,,,,,,,,,,,,,,,,,,,,,,,,,,,,,,None,,360.242748099938,None,360.242748099938,None,2023-04-20-10:44:49.714578,360.2436635000631,360.54295960022137,360.2436635000631,None,None,360.2436635000631,None,361.05915590012444,None,,,,22054,0002,2023_Apr_20_1038,localizer,2021.1.3,60.779669422478904,
block,scrambled,scrambled067.bmp,,,,,0,41,41,41,,,,,,,,,,,,,,,,,,,,,,,,,,,,,,,,,,,,,,,,,,None,,361.05915590012444,None,361.05915590012444,None,2023-04-20-10:44:50.531018,361.0708641000092,361.37592100026086,361.0708641000092,None,None,361.0708641000092,None,361.8765146002173,None,,,,22054,0002,2023_Apr_20_1038,localizer,2021.1.3,60.779669422478904,
block,scrambled,scrambled022.bmp,,,,,0,42,42,42,,,,,,,,,,,,,,,,,,,,,,,,,,,,,,,,,,,,,,,,,,None,,361.8765146002173,None,361.8765146002173,None,2023-04-20-10:44:51.348365,361.8771693999879,362.1927336999215,361.8771693999879,None,None,361.8771693999879,None,362.67676089992744,None,,,,22054,0002,2023_Apr_20_1038,localizer,2021.1.3,60.779669422478904,
block,scrambled,scrambled080.bmp,,,,,0,43,43,43,,,,,,,,,,,,,,,,,,,,,,,,,,,,,,,,,,,,,,,,,,None,,362.67676089992744,None,362.67676089992744,None,2023-04-20-10:44:52.151602,362.6937243998982,363.00954189989716,362.6937243998982,362.6937243998982,None,362.6937243998982,362.6937243998982,363.49307029983026,None,,,,22054,0002,2023_Apr_20_1038,localizer,2021.1.3,60.779669422478904,
block,scrambled,scrambled025.bmp,,,,,0,44,44,44,,,,,,,,,,,,,,,,,,,,,,,,,,,,,,,,,,,,,,,,,,None,,363.49307029983026,None,363.49307029983026,None,2023-04-20-10:44:52.964933,363.50517390016466,363.80949749983847,363.50517390016466,None,None,363.50517390016466,None,364.3095997000113,None,,,,22054,0002,2023_Apr_20_1038,localizer,2021.1.3,60.779669422478904,
block_end,scrambled,scrambled073.bmp,,,,,0,45,45,45,,,,,,,,,,,,,,,,,,,,,,,,,,,,,,,,,,,,,,,,,,None,,364.3095997000113,None,364.3095997000113,None,2023-04-20-10:44:53.781467,364.31791289988905,364.62622909992933,364.31791289988905,None,None,364.31791289988905,None,365.127004900109,None,,,,22054,0002,2023_Apr_20_1038,localizer,2021.1.3,60.779669422478904,
block_start,objects,objects005.bmp,,,,,0,46,46,46,,,,,,,,,,,,,,,,,,,,,,,,,,,,,,,,,,,,,,,,,,t,1.778237999882549,365.12677740026265,None,365.12677740026265,None,2023-04-20-10:44:56.398643,366.93904630001634,367.24267499987036,366.93904630001634,None,None,366.93904630001634,None,367.7431529002264,None,,,,22054,0002,2023_Apr_20_1038,localizer,2021.1.3,60.779669422478904,
block,objects,objects067.bmp,,,,,0,47,47,47,,,,,,,,,,,,,,,,,,,,,,,,,,,,,,,,,,,,,,,,,,None,,367.7431529002264,None,367.7431529002264,None,2023-04-20-10:44:57.215328,367.7569321002811,368.05952939996496,367.7569321002811,None,None,367.7569321002811,None,368.55970750013364,None,,,,22054,0002,2023_Apr_20_1038,localizer,2021.1.3,60.779669422478904,
block,objects,objects008.bmp,,,,,0,48,48,48,,,,,,,,,,,,,,,,,,,,,,,,,,,,,,,,,,,,,,,,,,None,,368.55970750013364,None,368.55970750013364,None,2023-04-20-10:44:58.032797,368.5728587000631,368.88270159997046,368.5728587000631,None,None,368.5728587000631,None,369.3761894000694,None,,,,22054,0002,2023_Apr_20_1038,localizer,2021.1.3,60.779669422478904,
block,objects,objects040.bmp,,,,,0,49,49,49,,,,,,,,,,,,,,,,,,,,,,,,,,,,,,,,,,,,,,,,,,None,,369.3761894000694,None,369.3761894000694,None,2023-04-20-10:44:58.848909,369.38955250009894,369.6929725999944,369.38955250009894,None,None,369.38955250009894,None,370.19300330020485,None,,,,22054,0002,2023_Apr_20_1038,localizer,2021.1.3,60.779669422478904,
block,objects,objects032.bmp,,,,,0,50,50,50,,,,,,,,,,,,,,,,,,,,,,,,,,,,,,,,,,,,,,,,,,None,,370.19300330020485,None,370.19300330020485,None,2023-04-20-10:44:59.664826,370.19409250002354,370.5095838000998,370.19409250002354,None,None,370.19409250002354,None,371.0091932002455,None,,,,22054,0002,2023_Apr_20_1038,localizer,2021.1.3,60.779669422478904,
block,objects,objects065.bmp,,,,,0,51,51,51,,,,,,,,,,,,,,,,,,,,,,,,,,,,,,,,,,,,,,,,,,None,,371.0091932002455,None,371.0091932002455,None,2023-04-20-10:45:00.481087,371.0174881001003,371.32712120004,371.0174881001003,None,None,371.0174881001003,None,371.8295985000208,None,,,,22054,0002,2023_Apr_20_1038,localizer,2021.1.3,60.779669422478904,
block,objects,objects071.bmp,,,,,0,52,52,52,,,,,,,,,,,,,,,,,,,,,,,,,,,,,,,,,,,,,,,,,,None,,371.8295985000208,None,371.8295985000208,None,2023-04-20-10:45:01.306357,371.84872080013156,372.1597148999572,371.84872080013156,None,None,371.84872080013156,None,372.64308189982546,None,,,,22054,0002,2023_Apr_20_1038,localizer,2021.1.3,60.779669422478904,
block,objects,objects054.bmp,,,,,0,53,53,53,,,,,,,,,,,,,,,,,,,,,,,,,,,,,,,,,,,,,,,,,,None,,372.64308189982546,None,372.64308189982546,None,2023-04-20-10:45:02.114972,372.6437174999155,372.95049700001255,372.6437174999155,None,None,372.6437174999155,None,373.4592791000381,None,,,,22054,0002,2023_Apr_20_1038,localizer,2021.1.3,60.779669422478904,
block,objects,objects050.bmp,,,,,0,54,54,54,,,,,,,,,,,,,,,,,,,,,,,,,,,,,,,,,,,,,,,,,,None,,373.4592791000381,None,373.4592791000381,None,2023-04-20-10:45:02.931184,373.4609687002376,373.7610006001778,373.4609687002376,None,None,373.4609687002376,None,374.27597420020027,None,,,,22054,0002,2023_Apr_20_1038,localizer,2021.1.3,60.779669422478904,
block,objects,objects018.bmp,,,,,0,55,55,55,,,,,,,,,,,,,,,,,,,,,,,,,,,,,,,,,,,,,,,,,,None,,374.27597420020027,None,374.27597420020027,None,2023-04-20-10:45:03.747882,374.2773453001864,374.5928357001394,374.2773453001864,None,None,374.2773453001864,None,375.0774539998732,None,,,,22054,0002,2023_Apr_20_1038,localizer,2021.1.3,60.779669422478904,
block,objects,objects001.bmp,,,,,0,56,56,56,,,,,,,,,,,,,,,,,,,,,,,,,,,,,,,,,,,,,,,,,,None,,375.0774539998732,None,375.0774539998732,None,2023-04-20-10:45:04.554552,375.0817432999611,375.39318920020014,375.0817432999611,375.0817432999611,None,375.0817432999611,375.0817432999611,375.89267109995706,None,,,,22054,0002,2023_Apr_20_1038,localizer,2021.1.3,60.779669422478904,
block,objects,objects003.bmp,,,,,0,57,57,57,,,,,,,,,,,,,,,,,,,,,,,,,,,,,,,,,,,,,,,,,,None,,375.89267109995706,None,375.89267109995706,None,2023-04-20-10:45:05.364582,375.89376629982144,376.2095115999691,375.89376629982144,None,None,375.89376629982144,None,376.69304349981246,None,,,,22054,0002,2023_Apr_20_1038,localizer,2021.1.3,60.779669422478904,
block,objects,objects073.bmp,,,,,0,58,58,58,,,,,,,,,,,,,,,,,,,,,,,,,,,,,,,,,,,,,,,,,,None,,376.69304349981246,None,376.69304349981246,None,2023-04-20-10:45:06.167171,376.70708229998127,377.00973829999566,376.70708229998127,376.70708229998127,None,376.70708229998127,376.70708229998127,377.50946540022267,None,,,,22054,0002,2023_Apr_20_1038,localizer,2021.1.3,60.779669422478904,
block,objects,objects070.bmp,,,,,0,59,59,59,,,,,,,,,,,,,,,,,,,,,,,,,,,,,,,,,,,,,,,,,,None,,377.50946540022267,None,377.50946540022267,None,2023-04-20-10:45:06.981378,377.5105142001994,377.8095899000764,377.5105142001994,None,None,377.5105142001994,None,378.30991570008916,None,,,,22054,0002,2023_Apr_20_1038,localizer,2021.1.3,60.779669422478904,
block_end,objects,objects058.bmp,,,,,0,60,60,60,,,,,,,,,,,,,,,,,,,,,,,,,,,,,,,,,,,,,,,,,,None,,378.30991570008916,None,378.30991570008916,None,2023-04-20-10:45:07.783937,378.312702300027,378.6265234001912,378.312702300027,378.312702300027,None,378.312702300027,378.312702300027,379.12764169983564,None,,,,22054,0002,2023_Apr_20_1038,localizer,2021.1.3,60.779669422478904,
block_start,faces,faces018.bmp,,,,,0,61,61,61,,,,,,,,,,,,,,,,,,,,,,,,,,,,,,,,,,,,,,,,,,t,1.7774857003241777,379.12757380027324,None,379.12757380027324,None,2023-04-20-10:45:10.400056,380.94079970009625,381.24309389991686,380.94079970009625,None,None,380.94079970009625,None,381.74416989982126,None,,,,22054,0002,2023_Apr_20_1038,localizer,2021.1.3,60.779669422478904,
block,faces,faces022.bmp,,,,,0,62,62,62,,,,,,,,,,,,,,,,,,,,,,,,,,,,,,,,,,,,,,,,,,None,,381.74416989982126,None,381.74416989982126,None,2023-04-20-10:45:11.218081,381.74648219998926,382.0450673000887,381.74648219998926,None,None,381.74648219998926,None,382.55981410024685,None,,,,22054,0002,2023_Apr_20_1038,localizer,2021.1.3,60.779669422478904,
block,faces,faces032.bmp,,,,,0,63,63,63,,,,,,,,,,,,,,,,,,,,,,,,,,,,,,,,,,,,,,,,,,None,,382.55981410024685,None,382.55981410024685,None,2023-04-20-10:45:12.031948,382.56862370017916,382.8765132999979,382.56862370017916,None,None,382.56862370017916,None,383.37850460000334,None,,,,22054,0002,2023_Apr_20_1038,localizer,2021.1.3,60.779669422478904,
block,faces,faces032.bmp,,,,,0,64,64,64,,,,,,,,,,,,,,,,,,,,,,,,,,,,,,,,,,,,,,,,,,None,,383.37850460000334,None,383.37850460000334,None,2023-04-20-10:45:12.854585,383.38310630014166,383.6927892998792,383.38310630014166,None,None,383.38310630014166,None,384.19325170023365,None,,,,22054,0002,2023_Apr_20_1038,localizer,2021.1.3,60.779669422478904,
block,faces,faces019.bmp,,,,,0,65,65,65,,,,,,,,,,,,,,,,,,,,,,,,,,,,,,,,,,,,,,,,,,None,,384.19325170023365,None,384.19325170023365,None,2023-04-20-10:45:13.665185,384.2067299000919,384.5096971001476,384.2067299000919,None,None,384.2067299000919,None,385.0092934999615,None,,,,22054,0002,2023_Apr_20_1038,localizer,2021.1.3,60.779669422478904,
block,faces,faces046.bmp,,,,,0,66,66,66,,,,,,,,,,,,,,,,,,,,,,,,,,,,,,,,,,,,,,,,,,None,,385.0092934999615,None,385.0092934999615,None,2023-04-20-10:45:14.481225,385.01106540020555,385.31015220005065,385.01106540020555,None,None,385.01106540020555,None,385.82657150002194,None,,,,22054,0002,2023_Apr_20_1038,localizer,2021.1.3,60.779669422478904,
block,faces,faces009.bmp,,,,,0,67,67,67,,,,,,,,,,,,,,,,,,,,,,,,,,,,,,,,,,,,,,,,,,None,,385.82657150002194,None,385.82657150002194,None,2023-04-20-10:45:15.299486,385.8396157999523,386.14315749984235,385.8396157999523,None,None,385.8396157999523,None,386.64393810005856,None,,,,22054,0002,2023_Apr_20_1038,localizer,2021.1.3,60.779669422478904,
block,faces,faces067.bmp,,,,,0,68,68,68,,,,,,,,,,,,,,,,,,,,,,,,,,,,,,,,,,,,,,,,,,None,,386.64393810005856,None,386.64393810005856,None,2023-04-20-10:45:16.117960,386.64714920008555,386.95941170025617,386.64714920008555,None,None,386.64714920008555,None,387.4609956998378,None,,,,22054,0002,2023_Apr_20_1038,localizer,2021.1.3,60.779669422478904,
block,faces,faces062.bmp,,,,,0,69,69,69,,,,,,,,,,,,,,,,,,,,,,,,,,,,,,,,,,,,,,,,,,None,,387.4609956998378,None,387.4609956998378,None,2023-04-20-10:45:16.934100,387.46333640022203,387.77633380005136,387.46333640022203,None,None,387.46333640022203,None,388.2771151001565,None,,,,22054,0002,2023_Apr_20_1038,localizer,2021.1.3,60.779669422478904,
block,faces,faces048.bmp,,,,,0,70,70,70,,,,,,,,,,,,,,,,,,,,,,,,,,,,,,,,,,,,,,,,,,None,,388.2771151001565,None,388.2771151001565,None,2023-04-20-10:45:17.750255,388.2919259001501,388.59298609988764,388.2919259001501,None,None,388.2919259001501,None,389.09389580003915,None,,,,22054,0002,2023_Apr_20_1038,localizer,2021.1.3,60.779669422478904,
block,faces,faces066.bmp,,,,,0,71,71,71,,,,,,,,,,,,,,,,,,,,,,,,,,,,,,,,,,,,,,,,,,None,,389.09389580003915,None,389.09389580003915,None,2023-04-20-10:45:18.566836,389.1052502002567,389.4098895001225,389.1052502002567,None,None,389.1052502002567,None,389.90965389981864,None,,,,22054,0002,2023_Apr_20_1038,localizer,2021.1.3,60.779669422478904,
block,faces,faces056.bmp,,,,,0,72,72,72,,,,,,,,,,,,,,,,,,,,,,,,,,,,,,,,,,,,,,,,,,None,,389.90965389981864,None,389.90965389981864,None,2023-04-20-10:45:19.381616,389.92149069998413,390.22665939992294,389.92149069998413,None,None,389.92149069998413,None,390.7264589998871,None,,,,22054,0002,2023_Apr_20_1038,localizer,2021.1.3,60.779669422478904,
block,faces,faces026.bmp,,,,,0,73,73,73,,,,,,,,,,,,,,,,,,,,,,,,,,,,,,,,,,,,,,,,,,None,,390.7264589998871,None,390.7264589998871,None,2023-04-20-10:45:20.198192,390.7274008002132,391.0429988000542,390.7274008002132,None,None,390.7274008002132,None,391.52650080025194,None,,,,22054,0002,2023_Apr_20_1038,localizer,2021.1.3,60.779669422478904,
block,faces,faces057.bmp,,,,,0,74,74,74,,,,,,,,,,,,,,,,,,,,,,,,,,,,,,,,,,,,,,,,,,None,,391.52650080025194,None,391.52650080025194,None,2023-04-20-10:45:21.000455,391.5296018002555,391.84305639984086,391.5296018002555,391.5296018002555,None,391.5296018002555,391.5296018002555,392.34357470003886,None,,,,22054,0002,2023_Apr_20_1038,localizer,2021.1.3,60.779669422478904,
block_end,faces,faces015.bmp,,,,,0,75,75,75,,,,,,,,,,,,,,,,,,,,,,,,,,,,,,,,,,,,,,,,,,None,,392.34357470003886,None,392.34357470003886,None,2023-04-20-10:45:21.815572,392.34409870021045,392.6598963998258,392.34409870021045,None,None,392.34409870021045,None,393.1451295000501,None,,,,22054,0002,2023_Apr_20_1038,localizer,2021.1.3,60.779669422478904,
null_block,null_block,null_block.bmp,,,,,0,76,76,76,,,,,,,,,,,,,,,,,,,,,,,,,,,,,,,,,,,,,,,,,,t,1.7594025996513665,393.14565289998427,None,393.14565289998427,None,2023-04-20-10:45:24.398685,394.92671559993175,None,394.92671559993175,None,None,394.92671559993175,None,394.9314848999493,None,,,,22054,0002,2023_Apr_20_1038,localizer,2021.1.3,60.779669422478904,
block_start,scrambled,scrambled086.bmp,,,,,0,77,77,77,,,,,,,,,,,,,,,,,,,,,,,,,,,,,,,,,,,,,,,,,,t,1.955751699861139,406.9494007001631,None,406.9494007001631,None,2023-04-20-10:45:38.398295,408.9280274002813,409.2431617998518,408.9280274002813,None,None,408.9280274002813,None,409.727903999947,None,,,,22054,0002,2023_Apr_20_1038,localizer,2021.1.3,60.779669422478904,
block,scrambled,scrambled074.bmp,,,,,0,78,78,78,,,,,,,,,,,,,,,,,,,,,,,,,,,,,,,,,,,,,,,,,,None,,409.727903999947,None,409.727903999947,None,2023-04-20-10:45:39.205873,409.73450599983335,410.0438299002126,409.73450599983335,409.73450599983335,None,409.73450599983335,409.73450599983335,410.54521000022066,None,,,,22054,0002,2023_Apr_20_1038,localizer,2021.1.3,60.779669422478904,
block,scrambled,scrambled075.bmp,,,,,0,79,79,79,,,,,,,,,,,,,,,,,,,,,,,,,,,,,,,,,,,,,,,,,,None,,410.54521000022066,None,410.54521000022066,None,2023-04-20-10:45:40.022073,410.55026759998873,410.8602979001589,410.55026759998873,None,None,410.55026759998873,None,411.3594709998928,None,,,,22054,0002,2023_Apr_20_1038,localizer,2021.1.3,60.779669422478904,
block,scrambled,scrambled033.bmp,,,,,0,80,80,80,,,,,,,,,,,,,,,,,,,,,,,,,,,,,,,,,,,,,,,,,,None,,411.3594709998928,None,411.3594709998928,None,2023-04-20-10:45:40.831660,411.37281099986285,411.67650349996984,411.37281099986285,None,None,411.37281099986285,None,412.17687270008025,None,,,,22054,0002,2023_Apr_20_1038,localizer,2021.1.3,60.779669422478904,
block,scrambled,scrambled070.bmp,,,,,0,81,81,81,,,,,,,,,,,,,,,,,,,,,,,,,,,,,,,,,,,,,,,,,,None,,412.17687270008025,None,412.17687270008025,None,2023-04-20-10:45:41.649899,412.1779865999706,412.4935530000366,412.1779865999706,None,None,412.1779865999706,None,412.9931322998367,None,,,,22054,0002,2023_Apr_20_1038,localizer,2021.1.3,60.779669422478904,
block,scrambled,scrambled053.bmp,,,,,0,82,82,82,,,,,,,,,,,,,,,,,,,,,,,,,,,,,,,,,,,,,,,,,,None,,412.9931322998367,None,412.9931322998367,None,2023-04-20-10:45:42.465205,412.9940901999362,413.29671970009804,412.9940901999362,None,None,412.9940901999362,None,413.7933800999075,None,,,,22054,0002,2023_Apr_20_1038,localizer,2021.1.3,60.779669422478904,
block,scrambled,scrambled029.bmp,,,,,0,83,83,83,,,,,,,,,,,,,,,,,,,,,,,,,,,,,,,,,,,,,,,,,,None,,413.7933800999075,None,413.7933800999075,None,2023-04-20-10:45:43.268410,413.80906399991363,414.110291399993,413.80906399991363,413.80906399991363,None,413.80906399991363,413.80906399991363,414.610174200125,None,,,,22054,0002,2023_Apr_20_1038,localizer,2021.1.3,60.779669422478904,
block,scrambled,scrambled001.bmp,,,,,0,84,84,84,,,,,,,,,,,,,,,,,,,,,,,,,,,,,,,,,,,,,,,,,,None,,414.610174200125,None,414.610174200125,None,2023-04-20-10:45:44.082215,414.6227227002382,414.9262792998925,414.6227227002382,None,None,414.6227227002382,None,415.42667410019783,None,,,,22054,0002,2023_Apr_20_1038,localizer,2021.1.3,60.779669422478904,
block,scrambled,scrambled003.bmp,,,,,0,85,85,85,,,,,,,,,,,,,,,,,,,,,,,,,,,,,,,,,,,,,,,,,,None,,415.42667410019783,None,415.42667410019783,None,2023-04-20-10:45:44.898720,415.4391164002009,415.7433461002074,415.4391164002009,None,None,415.4391164002009,None,416.2462693002075,None,,,,22054,0002,2023_Apr_20_1038,localizer,2021.1.3,60.779669422478904,
block,scrambled,scrambled081.bmp,,,,,0,86,86,86,,,,,,,,,,,,,,,,,,,,,,,,,,,,,,,,,,,,,,,,,,None,,416.2462693002075,None,416.2462693002075,None,2023-04-20-10:45:45.723294,416.25038670003414,416.5599218001589,416.25038670003414,None,None,416.25038670003414,None,417.05951750008387,None,,,,22054,0002,2023_Apr_20_1038,localizer,2021.1.3,60.779669422478904,
block,scrambled,scrambled016.bmp,,,,,0,87,87,87,,,,,,,,,,,,,,,,,,,,,,,,,,,,,,,,,,,,,,,,,,None,,417.05951750008387,None,417.05951750008387,None,2023-04-20-10:45:46.531574,417.0709063000977,417.37737060012296,417.0709063000977,None,None,417.0709063000977,None,417.8766786000691,None,,,,22054,0002,2023_Apr_20_1038,localizer,2021.1.3,60.779669422478904,
block,scrambled,scrambled080.bmp,,,,,0,88,88,88,,,,,,,,,,,,,,,,,,,,,,,,,,,,,,,,,,,,,,,,,,None,,417.8766786000691,None,417.8766786000691,None,2023-04-20-10:45:47.349932,417.8776763002388,418.19329169997945,417.8776763002388,None,None,417.8776763002388,None,418.67778179990125,None,,,,22054,0002,2023_Apr_20_1038,localizer,2021.1.3,60.779669422478904,
block,scrambled,scrambled027.bmp,,,,,0,89,89,89,,,,,,,,,,,,,,,,,,,,,,,,,,,,,,,,,,,,,,,,,,None,,418.67778179990125,None,418.67778179990125,None,2023-04-20-10:45:48.153993,418.6820149002597,418.97946189995855,418.6820149002597,418.6820149002597,None,418.6820149002597,418.6820149002597,419.4946321999654,None,,,,22054,0002,2023_Apr_20_1038,localizer,2021.1.3,60.779669422478904,
block,scrambled,scrambled031.bmp,,,,,0,90,90,90,,,,,,,,,,,,,,,,,,,,,,,,,,,,,,,,,,,,,,,,,,None,,419.4946321999654,None,419.4946321999654,None,2023-04-20-10:45:48.969586,419.49771369993687,419.81029469985515,419.49771369993687,None,None,419.49771369993687,None,420.31023810021577,None,,,,22054,0002,2023_Apr_20_1038,localizer,2021.1.3,60.779669422478904,
block_end,scrambled,scrambled042.bmp,,,,,0,91,91,91,,,,,,,,,,,,,,,,,,,,,,,,,,,,,,,,,,,,,,,,,,None,,420.31023810021577,None,420.31023810021577,None,2023-04-20-10:45:49.782486,420.3111215000972,420.6107696001418,420.3111215000972,None,None,420.3111215000972,None,421.12635670006273,None,,,,22054,0002,2023_Apr_20_1038,localizer,2021.1.3,60.779669422478904,
block_start,objects,objects019.bmp,,,,,0,92,92,92,,,,,,,,,,,,,,,,,,,,,,,,,,,,,,,,,,,,,,,,,,t,1.7786315996199846,421.1265198001638,None,421.1265198001638,None,2023-04-20-10:45:52.399148,422.92747890017927,423.2269450998865,422.92747890017927,None,None,422.92747890017927,None,423.7269289000891,None,,,,22054,0002,2023_Apr_20_1038,localizer,2021.1.3,60.779669422478904,
block,objects,objects025.bmp,,,,,0,93,93,93,,,,,,,,,,,,,,,,,,,,,,,,,,,,,,,,,,,,,,,,,,None,,423.7269289000891,None,423.7269289000891,None,2023-04-20-10:45:53.201114,423.74221510021016,424.04694190016016,423.74221510021016,423.74221510021016,None,423.74221510021016,423.74221510021016,424.5439455002546,None,,,,22054,0002,2023_Apr_20_1038,localizer,2021.1.3,60.779669422478904,
block,objects,objects087.bmp,,,,,0,94,94,94,,,,,,,,,,,,,,,,,,,,,,,,,,,,,,,,,,,,,,,,,,None,,424.5439455002546,None,424.5439455002546,None,2023-04-20-10:45:54.017008,424.55744570028037,424.8601429001428,424.55744570028037,None,None,424.55744570028037,None,425.36025109989566,None,,,,22054,0002,2023_Apr_20_1038,localizer,2021.1.3,60.779669422478904,
block,objects,objects076.bmp,,,,,0,95,95,95,,,,,,,,,,,,,,,,,,,,,,,,,,,,,,,,,,,,,,,,,,None,,425.36025109989566,None,425.36025109989566,None,2023-04-20-10:45:54.832556,425.37320609996095,425.6768507999368,425.37320609996095,None,None,425.37320609996095,None,426.17674440015105,None,,,,22054,0002,2023_Apr_20_1038,localizer,2021.1.3,60.779669422478904,
block,objects,objects085.bmp,,,,,0,96,96,96,,,,,,,,,,,,,,,,,,,,,,,,,,,,,,,,,,,,,,,,,,None,,426.17674440015105,None,426.17674440015105,None,2023-04-20-10:45:55.648827,426.1858369000256,426.49348769988865,426.1858369000256,None,None,426.1858369000256,None,426.98332879981024,None,,,,22054,0002,2023_Apr_20_1038,localizer,2021.1.3,60.779669422478904,
block,objects,objects049.bmp,,,,,0,97,97,97,,,,,,,,,,,,,,,,,,,,,,,,,,,,,,,,,,,,,,,,,,None,,426.98332879981024,None,426.98332879981024,None,2023-04-20-10:45:56.460296,426.98967800009996,427.2936348998919,426.98967800009996,None,None,426.98967800009996,None,427.7928979001939,None,,,,22054,0002,2023_Apr_20_1038,localizer,2021.1.3,60.779669422478904,
block,objects,objects079.bmp,,,,,0,98,98,98,,,,,,,,,,,,,,,,,,,,,,,,,,,,,,,,,,,,,,,,,,None,,427.7928979001939,None,427.7928979001939,None,2023-04-20-10:45:57.264992,427.80425349995494,428.11165590025485,427.80425349995494,None,None,427.80425349995494,None,428.6105501000769,None,,,,22054,0002,2023_Apr_20_1038,localizer,2021.1.3,60.779669422478904,
block,objects,objects018.bmp,,,,,0,99,99,99,,,,,,,,,,,,,,,,,,,,,,,,,,,,,,,,,,,,,,,,,,None,,428.6105501000769,None,428.6105501000769,None,2023-04-20-10:45:58.083863,428.612806300167,428.9263244001195,428.612806300167,None,None,428.612806300167,None,429.42639479981733,None,,,,22054,0002,2023_Apr_20_1038,localizer,2021.1.3,60.779669422478904,
block,objects,objects015.bmp,,,,,0,100,100,100,,,,,,,,,,,,,,,,,,,,,,,,,,,,,,,,,,,,,,,,,,None,,429.42639479981733,None,429.42639479981733,None,2023-04-20-10:45:58.898471,429.42778619984165,429.7431374001317,429.42778619984165,None,None,429.42778619984165,None,430.2431840999983,None,,,,22054,0002,2023_Apr_20_1038,localizer,2021.1.3,60.779669422478904,
block,objects,objects050.bmp,,,,,0,101,101,101,,,,,,,,,,,,,,,,,,,,,,,,,,,,,,,,,,,,,,,,,,None,,430.2431840999983,None,430.2431840999983,None,2023-04-20-10:45:59.715286,430.2442717002705,430.55977710010484,430.2442717002705,None,None,430.2442717002705,None,431.05968539984895,None,,,,22054,0002,2023_Apr_20_1038,localizer,2021.1.3,60.779669422478904,
block,objects,objects071.bmp,,,,,0,102,102,102,,,,,,,,,,,,,,,,,,,,,,,,,,,,,,,,,,,,,,,,,,None,,431.05968539984895,None,431.05968539984895,None,2023-04-20-10:46:00.531941,431.0610127998516,431.3765271999873,431.0610127998516,None,None,431.0610127998516,None,431.8610522999428,None,,,,22054,0002,2023_Apr_20_1038,localizer,2021.1.3,60.779669422478904,
block,objects,objects010.bmp,,,,,0,103,103,103,,,,,,,,,,,,,,,,,,,,,,,,,,,,,,,,,,,,,,,,,,None,,431.8610522999428,None,431.8610522999428,None,2023-04-20-10:46:01.336541,431.87910720007494,432.1932343998924,431.87910720007494,431.87910720007494,None,431.87910720007494,431.87910720007494,432.6770858001895,None,,,,22054,0002,2023_Apr_20_1038,localizer,2021.1.3,60.779669422478904,
block,objects,objects024.bmp,,,,,0,104,104,104,,,,,,,,,,,,,,,,,,,,,,,,,,,,,,,,,,,,,,,,,,None,,432.6770858001895,None,432.6770858001895,None,2023-04-20-10:46:02.149198,432.6777869001962,432.97691190009937,432.6777869001962,None,None,432.6777869001962,None,433.4769140999764,None,,,,22054,0002,2023_Apr_20_1038,localizer,2021.1.3,60.779669422478904,
block,objects,objects055.bmp,,,,,0,105,105,105,,,,,,,,,,,,,,,,,,,,,,,,,,,,,,,,,,,,,,,,,,None,,433.4769140999764,None,433.4769140999764,None,2023-04-20-10:46:02.951014,433.49294569995254,433.7934154001996,433.49294569995254,433.49294569995254,None,433.49294569995254,433.49294569995254,434.28348940014837,None,,,,22054,0002,2023_Apr_20_1038,localizer,2021.1.3,60.779669422478904,
block_end,objects,objects060.bmp,,,,,0,106,106,106,,,,,,,,,,,,,,,,,,,,,,,,,,,,,,,,,,,,,,,,,,None,,434.28348940014837,None,434.28348940014837,None,2023-04-20-10:46:03.761583,434.2911323001608,434.5937840002589,434.2911323001608,None,None,434.2911323001608,None,435.0933090998791,None,,,,22054,0002,2023_Apr_20_1038,localizer,2021.1.3,60.779669422478904,
block_start,scenes,scenes060.bmp,,,,,0,107,107,107,,,,,,,,,,,,,,,,,,,,,,,,,,,,,,,,,,,,,,,,,,t,1.8117203996516764,435.0933495000936,None,435.0933495000936,None,2023-04-20-10:46:06.399653,436.9408913999796,437.2435452998616,436.9408913999796,None,None,436.9408913999796,None,437.7436243999749,None,,,,22054,0002,2023_Apr_20_1038,localizer,2021.1.3,60.779669422478904,
block,scenes,scenes008.bmp,,,,,0,108,108,108,,,,,,,,,,,,,,,,,,,,,,,,,,,,,,,,,,,,,,,,,,None,,437.7436243999749,None,437.7436243999749,None,2023-04-20-10:46:07.216208,437.7441945001483,438.0440568001941,437.7441945001483,None,None,437.7441945001483,None,438.5440214002505,None,,,,22054,0002,2023_Apr_20_1038,localizer,2021.1.3,60.779669422478904,
block,scenes,scenes043.bmp,,,,,0,109,109,109,,,,,,,,,,,,,,,,,,,,,,,,,,,,,,,,,,,,,,,,,,None,,438.5440214002505,None,438.5440214002505,None,2023-04-20-10:46:08.019155,438.5623524002731,438.87706300010905,438.5623524002731,438.5623524002731,None,438.5623524002731,438.5623524002731,439.36033419994635,None,,,,22054,0002,2023_Apr_20_1038,localizer,2021.1.3,60.779669422478904,
block,scenes,scenes058.bmp,,,,,0,110,110,110,,,,,,,,,,,,,,,,,,,,,,,,,,,,,,,,,,,,,,,,,,None,,439.36033419994635,None,439.36033419994635,None,2023-04-20-10:46:08.832640,439.3609028002247,439.6604295000434,439.3609028002247,None,None,439.3609028002247,None,440.16026239991186,None,,,,22054,0002,2023_Apr_20_1038,localizer,2021.1.3,60.779669422478904,
block,scenes,scenes048.bmp,,,,,0,111,111,111,,,,,,,,,,,,,,,,,,,,,,,,,,,,,,,,,,,,,,,,,,None,,440.16026239991186,None,440.16026239991186,None,2023-04-20-10:46:09.633390,440.1784367002547,440.47710769996047,440.1784367002547,440.1784367002547,None,440.1784367002547,440.1784367002547,440.97665320020167,None,,,,22054,0002,2023_Apr_20_1038,localizer,2021.1.3,60.779669422478904,
block,scenes,scenes067.bmp,,,,,0,112,112,112,,,,,,,,,,,,,,,,,,,,,,,,,,,,,,,,,,,,,,,,,,None,,440.97665320020167,None,440.97665320020167,None,2023-04-20-10:46:10.449045,440.9887598999776,441.2937540002167,440.9887598999776,None,None,440.9887598999776,None,441.7819744000211,None,,,,22054,0002,2023_Apr_20_1038,localizer,2021.1.3,60.779669422478904,
block,scenes,scenes016.bmp,,,,,0,113,113,113,,,,,,,,,,,,,,,,,,,,,,,,,,,,,,,,,,,,,,,,,,None,,441.7819744000211,None,441.7819744000211,None,2023-04-20-10:46:11.258056,441.786370200105,442.093476800248,441.786370200105,None,None,441.786370200105,None,442.59401959981767,None,,,,22054,0002,2023_Apr_20_1038,localizer,2021.1.3,60.779669422478904,
block,scenes,scenes087.bmp,,,,,0,114,114,114,,,,,,,,,,,,,,,,,,,,,,,,,,,,,,,,,,,,,,,,,,None,,442.59401959981767,None,442.59401959981767,None,2023-04-20-10:46:12.067129,442.59563130000606,442.91083020018414,442.59563130000606,None,None,442.59563130000606,None,443.4099670998752,None,,,,22054,0002,2023_Apr_20_1038,localizer,2021.1.3,60.779669422478904,
block,scenes,scenes046.bmp,,,,,0,115,115,115,,,,,,,,,,,,,,,,,,,,,,,,,,,,,,,,,,,,,,,,,,None,,443.4099670998752,None,443.4099670998752,None,2023-04-20-10:46:12.882358,443.41855589998886,443.7266612001695,443.41855589998886,None,None,443.41855589998886,None,444.22776849996296,None,,,,22054,0002,2023_Apr_20_1038,localizer,2021.1.3,60.779669422478904,
block,scenes,scenes049.bmp,,,,,0,116,116,116,,,,,,,,,,,,,,,,,,,,,,,,,,,,,,,,,,,,,,,,,,None,,444.22776849996296,None,444.22776849996296,None,2023-04-20-10:46:13.702057,444.2314402000047,444.5434709000401,444.2314402000047,None,None,444.2314402000047,None,445.0433163001202,None,,,,22054,0002,2023_Apr_20_1038,localizer,2021.1.3,60.779669422478904,
block,scenes,scenes051.bmp,,,,,0,117,117,117,,,,,,,,,,,,,,,,,,,,,,,,,,,,,,,,,,,,,,,,,,None,,445.0433163001202,None,445.0433163001202,None,2023-04-20-10:46:14.515486,445.054736699909,445.3600695002824,445.054736699909,None,None,445.054736699909,None,445.8601322999224,None,,,,22054,0002,2023_Apr_20_1038,localizer,2021.1.3,60.779669422478904,
block,scenes,scenes015.bmp,,,,,0,118,118,118,,,,,,,,,,,,,,,,,,,,,,,,,,,,,,,,,,,,,,,,,,None,,445.8601322999224,None,445.8601322999224,None,2023-04-20-10:46:15.332286,445.8611015002243,446.1768455998972,445.8611015002243,None,None,445.8611015002243,None,446.66026829984037,None,,,,22054,0002,2023_Apr_20_1038,localizer,2021.1.3,60.779669422478904,
block,scenes,scenes032.bmp,,,,,0,119,119,119,,,,,,,,,,,,,,,,,,,,,,,,,,,,,,,,,,,,,,,,,,None,,446.66026829984037,None,446.66026829984037,None,2023-04-20-10:46:16.135406,446.6632789000869,446.9767618998885,446.6632789000869,446.6632789000869,None,446.6632789000869,446.6632789000869,447.47654140004886,None,,,,22054,0002,2023_Apr_20_1038,localizer,2021.1.3,60.779669422478904,
block,scenes,scenes078.bmp,,,,,0,120,120,120,,,,,,,,,,,,,,,,,,,,,,,,,,,,,,,,,,,,,,,,,,None,,447.47654140004886,None,447.47654140004886,None,2023-04-20-10:46:16.948701,447.4777834000997,447.7936036000028,447.4777834000997,None,None,447.4777834000997,None,448.28326939987016,None,,,,22054,0002,2023_Apr_20_1038,localizer,2021.1.3,60.779669422478904,
block_end,scenes,scenes073.bmp,,,,,0,121,121,121,,,,,,,,,,,,,,,,,,,,,,,,,,,,,,,,,,,,,,,,,,None,,448.28326939987016,None,448.28326939987016,None,2023-04-20-10:46:17.762136,448.2932895999402,448.59353470010683,448.2932895999402,None,None,448.2932895999402,None,449.0932005998678,None,,,,22054,0002,2023_Apr_20_1038,localizer,2021.1.3,60.779669422478904,
null_block,null_block,null_block.bmp,,,,,0,122,122,122,,,,,,,,,,,,,,,,,,,,,,,,,,,,,,,,,,,,,,,,,,t,1.8117579999379814,449.0934148002416,None,449.0934148002416,None,2023-04-20-10:46:20.399001,450.9279652001336,None,450.9279652001336,None,None,450.9279652001336,None,450.93003429984674,None,,,,22054,0002,2023_Apr_20_1038,localizer,2021.1.3,60.779669422478904,
block_start,faces,faces016.bmp,,,,,0,123,123,123,,,,,,,,,,,,,,,,,,,,,,,,,,,,,,,,,,,,,,,,,,t,1.9622618998400867,462.94276600005105,None,462.94276600005105,None,2023-04-20-10:46:34.400014,464.9282296001911,465.2277207998559,464.9282296001911,None,None,464.9282296001911,None,465.743846200034,None,,,,22054,0002,2023_Apr_20_1038,localizer,2021.1.3,60.779669422478904,
block,faces,faces001.bmp,,,,,0,124,124,124,,,,,,,,,,,,,,,,,,,,,,,,,,,,,,,,,,,,,,,,,,None,,465.743846200034,None,465.743846200034,None,2023-04-20-10:46:35.216299,465.74460490001366,466.05983760021627,465.74460490001366,None,None,465.74460490001366,None,466.55974699985234,None,,,,22054,0002,2023_Apr_20_1038,localizer,2021.1.3,60.779669422478904,
block,faces,faces080.bmp,,,,,0,125,125,125,,,,,,,,,,,,,,,,,,,,,,,,,,,,,,,,,,,,,,,,,,None,,466.55974699985234,None,466.55974699985234,None,2023-04-20-10:46:36.032200,466.5619326001033,466.8769133002497,466.5619326001033,None,None,466.5619326001033,None,467.3616232002154,None,,,,22054,0002,2023_Apr_20_1038,localizer,2021.1.3,60.779669422478904,
block,faces,faces023.bmp,,,,,0,126,126,126,,,,,,,,,,,,,,,,,,,,,,,,,,,,,,,,,,,,,,,,,,None,,467.3616232002154,None,467.3616232002154,None,2023-04-20-10:46:36.838718,467.367062299978,467.677120000124,467.367062299978,467.367062299978,None,467.367062299978,467.367062299978,468.1772754002362,None,,,,22054,0002,2023_Apr_20_1038,localizer,2021.1.3,60.779669422478904,
block,faces,faces007.bmp,,,,,0,127,127,127,,,,,,,,,,,,,,,,,,,,,,,,,,,,,,,,,,,,,,,,,,None,,468.1772754002362,None,468.1772754002362,None,2023-04-20-10:46:37.650498,468.1781609999016,468.477701399941,468.1781609999016,None,None,468.1781609999016,None,468.98384220022706,None,,,,22054,0002,2023_Apr_20_1038,localizer,2021.1.3,60.779669422478904,
block,faces,faces045.bmp,,,,,0,128,128,128,,,,,,,,,,,,,,,,,,,,,,,,,,,,,,,,,,,,,,,,,,None,,468.98384220022706,None,468.98384220022706,None,2023-04-20-10:46:38.461788,468.9901804002002,469.2936176001094,468.9901804002002,None,None,468.9901804002002,None,469.79488240005446,None,,,,22054,0002,2023_Apr_20_1038,localizer,2021.1.3,60.779669422478904,
block,faces,faces033.bmp,,,,,0,129,129,129,,,,,,,,,,,,,,,,,,,,,,,,,,,,,,,,,,,,,,,,,,None,,469.79488240005446,None,469.79488240005446,None,2023-04-20-10:46:39.269094,469.79719470022246,470.11013109982014,469.79719470022246,None,None,469.79719470022246,None,470.6104577999562,None,,,,22054,0002,2023_Apr_20_1038,localizer,2021.1.3,60.779669422478904,
block,faces,faces070.bmp,,,,,0,130,130,130,,,,,,,,,,,,,,,,,,,,,,,,,,,,,,,,,,,,,,,,,,None,,470.6104577999562,None,470.6104577999562,None,2023-04-20-10:46:40.088799,470.6304667000659,470.9475123002194,470.6304667000659,None,None,470.6304667000659,None,471.428220300097,None,,,,22054,0002,2023_Apr_20_1038,localizer,2021.1.3,60.779669422478904,
block,faces,faces038.bmp,,,,,0,131,131,131,,,,,,,,,,,,,,,,,,,,,,,,,,,,,,,,,,,,,,,,,,None,,471.428220300097,None,471.428220300097,None,2023-04-20-10:46:40.902913,471.4444190999493,471.7441628999077,471.4444190999493,None,None,471.4444190999493,None,472.24434690000487,None,,,,22054,0002,2023_Apr_20_1038,localizer,2021.1.3,60.779669422478904,
block,faces,faces012.bmp,,,,,0,132,132,132,,,,,,,,,,,,,,,,,,,,,,,,,,,,,,,,,,,,,,,,,,None,,472.24434690000487,None,472.24434690000487,None,2023-04-20-10:46:41.717620,472.25925720017403,472.5602317000739,472.25925720017403,None,None,472.25925720017403,None,473.0616067998111,None,,,,22054,0002,2023_Apr_20_1038,localizer,2021.1.3,60.779669422478904,
block,faces,faces058.bmp,,,,,0,133,133,133,,,,,,,,,,,,,,,,,,,,,,,,,,,,,,,,,,,,,,,,,,None,,473.0616067998111,None,473.0616067998111,None,2023-04-20-10:46:42.535992,473.0769007001072,473.3771138000302,473.0769007001072,None,None,473.0769007001072,None,473.88340919986365,None,,,,22054,0002,2023_Apr_20_1038,localizer,2021.1.3,60.779669422478904,
block,faces,faces057.bmp,,,,,0,134,134,134,,,,,,,,,,,,,,,,,,,,,,,,,,,,,,,,,,,,,,,,,,None,,473.88340919986365,None,473.88340919986365,None,2023-04-20-10:46:43.359572,473.88796930015087,474.1939268000424,473.88796930015087,None,None,473.88796930015087,None,474.69358169995246,None,,,,22054,0002,2023_Apr_20_1038,localizer,2021.1.3,60.779669422478904,
block,faces,faces053.bmp,,,,,0,135,135,135,,,,,,,,,,,,,,,,,,,,,,,,,,,,,,,,,,,,,,,,,,None,,474.69358169995246,None,474.69358169995246,None,2023-04-20-10:46:44.165838,474.694793399889,475.01029130024835,474.694793399889,None,None,474.694793399889,None,475.49490829985587,None,,,,22054,0002,2023_Apr_20_1038,localizer,2021.1.3,60.779669422478904,
block,faces,faces018.bmp,,,,,0,136,136,136,,,,,,,,,,,,,,,,,,,,,,,,,,,,,,,,,,,,,,,,,,None,,475.49490829985587,None,475.49490829985587,None,2023-04-20-10:46:44.971165,475.4990933001973,475.81029610009864,475.4990933001973,475.4990933001973,None,475.4990933001973,475.4990933001973,476.31039460012687,None,,,,22054,0002,2023_Apr_20_1038,localizer,2021.1.3,60.779669422478904,
block_end,faces,faces064.bmp,,,,,0,137,137,137,,,,,,,,,,,,,,,,,,,,,,,,,,,,,,,,,,,,,,,,,,None,,476.31039460012687,None,476.31039460012687,None,2023-04-20-10:46:45.782651,476.3112208000384,476.6104158000089,476.3112208000384,None,None,476.3112208000384,None,477.11069510001687,None,,,,22054,0002,2023_Apr_20_1038,localizer,2021.1.3,60.779669422478904,
block_start,scenes,scenes023.bmp,,,,,0,138,138,138,,,,,,,,,,,,,,,,,,,,,,,,,,,,,,,,,,,,,,,,,,t,1.7937003998085856,477.1105130002834,None,477.1105130002834,None,2023-04-20-10:46:48.398731,478.93898760015145,479.24361679982394,478.93898760015145,None,None,478.93898760015145,None,479.74436499979345,None,,,,22054,0002,2023_Apr_20_1038,localizer,2021.1.3,60.779669422478904,
block,scenes,scenes020.bmp,,,,,0,139,139,139,,,,,,,,,,,,,,,,,,,,,,,,,,,,,,,,,,,,,,,,,,None,,479.74436499979345,None,479.74436499979345,None,2023-04-20-10:46:49.217625,479.75912800012156,480.066938099917,479.75912800012156,None,None,479.75912800012156,None,480.56034589987246,None,,,,22054,0002,2023_Apr_20_1038,localizer,2021.1.3,60.779669422478904,
block,scenes,scenes079.bmp,,,,,0,140,140,140,,,,,,,,,,,,,,,,,,,,,,,,,,,,,,,,,,,,,,,,,,None,,480.56034589987246,None,480.56034589987246,None,2023-04-20-10:46:50.032818,480.5726677002385,480.8769588000141,480.5726677002385,None,None,480.5726677002385,None,481.3771716999821,None,,,,22054,0002,2023_Apr_20_1038,localizer,2021.1.3,60.779669422478904,
block,scenes,scenes030.bmp,,,,,0,141,141,141,,,,,,,,,,,,,,,,,,,,,,,,,,,,,,,,,,,,,,,,,,None,,481.3771716999821,None,481.3771716999821,None,2023-04-20-10:46:50.849448,481.3891170001589,481.69380840007216,481.3891170001589,None,None,481.3891170001589,None,482.19348829993976,None,,,,22054,0002,2023_Apr_20_1038,localizer,2021.1.3,60.779669422478904,
block,scenes,scenes003.bmp,,,,,0,142,142,142,,,,,,,,,,,,,,,,,,,,,,,,,,,,,,,,,,,,,,,,,,None,,482.19348829993976,None,482.19348829993976,None,2023-04-20-10:46:51.665706,482.1949668000452,482.5102190999314,482.1949668000452,None,None,482.1949668000452,None,483.01017759982494,None,,,,22054,0002,2023_Apr_20_1038,localizer,2021.1.3,60.779669422478904,
block,scenes,scenes012.bmp,,,,,0,143,143,143,,,,,,,,,,,,,,,,,,,,,,,,,,,,,,,,,,,,,,,,,,None,,483.01017759982494,None,483.01017759982494,None,2023-04-20-10:46:52.482166,483.0115354000591,483.32699970016256,483.0115354000591,None,None,483.0115354000591,None,483.82708510020746,None,,,,22054,0002,2023_Apr_20_1038,localizer,2021.1.3,60.779669422478904,
block,scenes,scenes046.bmp,,,,,0,144,144,144,,,,,,,,,,,,,,,,,,,,,,,,,,,,,,,,,,,,,,,,,,None,,483.82708510020746,None,483.82708510020746,None,2023-04-20-10:46:53.299406,483.8280485998839,484.1434297999367,483.8280485998839,None,None,483.8280485998839,None,484.6277152999304,None,,,,22054,0002,2023_Apr_20_1038,localizer,2021.1.3,60.779669422478904,
block,scenes,scenes081.bmp,,,,,0,145,145,145,,,,,,,,,,,,,,,,,,,,,,,,,,,,,,,,,,,,,,,,,,None,,484.6277152999304,None,484.6277152999304,None,2023-04-20-10:46:54.102863,484.6451293001883,484.9604919999838,484.6451293001883,484.6451293001883,None,484.6451293001883,484.6451293001883,485.4441731000319,None,,,,22054,0002,2023_Apr_20_1038,localizer,2021.1.3,60.779669422478904,
block,scenes,scenes033.bmp,,,,,0,146,146,146,,,,,,,,,,,,,,,,,,,,,,,,,,,,,,,,,,,,,,,,,,None,,485.4441731000319,None,485.4441731000319,None,2023-04-20-10:46:54.916573,485.4450544998981,485.76053010020405,485.4450544998981,None,None,485.4450544998981,None,486.2601408000104,None,,,,22054,0002,2023_Apr_20_1038,localizer,2021.1.3,60.779669422478904,
block,scenes,scenes041.bmp,,,,,0,147,147,147,,,,,,,,,,,,,,,,,,,,,,,,,,,,,,,,,,,,,,,,,,None,,486.2601408000104,None,486.2601408000104,None,2023-04-20-10:46:55.732440,486.27131590014324,486.5770930000581,486.27131590014324,None,None,486.27131590014324,None,487.07836079979313,None,,,,22054,0002,2023_Apr_20_1038,localizer,2021.1.3,60.779669422478904,
block,scenes,scenes056.bmp,,,,,0,148,148,148,,,,,,,,,,,,,,,,,,,,,,,,,,,,,,,,,,,,,,,,,,None,,487.07836079979313,None,487.07836079979313,None,2023-04-20-10:46:56.554718,487.08267230028287,487.39425239991397,487.08267230028287,None,None,487.08267230028287,None,487.89387530004603,None,,,,22054,0002,2023_Apr_20_1038,localizer,2021.1.3,60.779669422478904,
block,scenes,scenes014.bmp,,,,,0,149,149,149,,,,,,,,,,,,,,,,,,,,,,,,,,,,,,,,,,,,,,,,,,None,,487.89387530004603,None,487.89387530004603,None,2023-04-20-10:46:57.366174,487.90593370003626,488.21076209982857,487.90593370003626,None,None,487.90593370003626,None,488.710162700247,None,,,,22054,0002,2023_Apr_20_1038,localizer,2021.1.3,60.779669422478904,
block,scenes,scenes048.bmp,,,,,0,150,150,150,,,,,,,,,,,,,,,,,,,,,,,,,,,,,,,,,,,,,,,,,,None,,488.710162700247,None,488.710162700247,None,2023-04-20-10:46:58.182470,488.7114244000986,489.0270143998787,488.7114244000986,None,None,488.7114244000986,None,489.51049639992414,None,,,,22054,0002,2023_Apr_20_1038,localizer,2021.1.3,60.779669422478904,
block,scenes,scenes073.bmp,,,,,0,151,151,151,,,,,,,,,,,,,,,,,,,,,,,,,,,,,,,,,,,,,,,,,,None,,489.51049639992414,None,489.51049639992414,None,2023-04-20-10:46:58.984732,489.5207425998524,489.82726689986885,489.5207425998524,489.5207425998524,None,489.5207425998524,489.5207425998524,490.32755619995294,None,,,,22054,0002,2023_Apr_20_1038,localizer,2021.1.3,60.779669422478904,
block_end,scenes,scenes075.bmp,,,,,0,152,152,152,,,,,,,,,,,,,,,,,,,,,,,,,,,,,,,,,,,,,,,,,,None,,490.32755619995294,None,490.32755619995294,None,2023-04-20-10:46:59.799882,490.3415314001031,490.6438100002706,490.3415314001031,None,None,490.3415314001031,None,491.14392990022895,None,,,,22054,0002,2023_Apr_20_1038,localizer,2021.1.3,60.779669422478904,
block_start,scrambled,scrambled008.bmp,,,,,0,153,153,153,,,,,,,,,,,,,,,,,,,,,,,,,,,,,,,,,,,,,,,,,,t,1.7604530001990497,491.1437174999155,None,491.1437174999155,None,2023-04-20-10:47:02.398832,492.92864309996367,493.24387989984825,492.92864309996367,None,None,492.92864309996367,None,493.7434204999357,None,,,,22054,0002,2023_Apr_20_1038,localizer,2021.1.3,60.779669422478904,
block,scrambled,scrambled056.bmp,,,,,0,154,154,154,,,,,,,,,,,,,,,,,,,,,,,,,,,,,,,,,,,,,,,,,,None,,493.7434204999357,None,493.7434204999357,None,2023-04-20-10:47:03.215746,493.74474930018187,494.06058839987963,493.74474930018187,None,None,493.74474930018187,None,494.5437921002507,None,,,,22054,0002,2023_Apr_20_1038,localizer,2021.1.3,60.779669422478904,
block,scrambled,scrambled036.bmp,,,,,0,155,155,155,,,,,,,,,,,,,,,,,,,,,,,,,,,,,,,,,,,,,,,,,,None,,494.5437921002507,None,494.5437921002507,None,2023-04-20-10:47:04.017460,494.54494399996474,494.8605181002058,494.54494399996474,494.54494399996474,None,494.54494399996474,494.54494399996474,495.34597799982873,None,,,,22054,0002,2023_Apr_20_1038,localizer,2021.1.3,60.779669422478904,
block,scrambled,scrambled068.bmp,,,,,0,156,156,156,,,,,,,,,,,,,,,,,,,,,,,,,,,,,,,,,,,,,,,,,,None,,495.34597799982873,None,495.34597799982873,None,2023-04-20-10:47:04.824248,495.35184259992093,495.6611128002405,495.35184259992093,495.35184259992093,None,495.35184259992093,495.35184259992093,496.16110919984055,None,,,,22054,0002,2023_Apr_20_1038,localizer,2021.1.3,60.779669422478904,
block,scrambled,scrambled034.bmp,,,,,0,157,157,157,,,,,,,,,,,,,,,,,,,,,,,,,,,,,,,,,,,,,,,,,,None,,496.16110919984055,None,496.16110919984055,None,2023-04-20-10:47:05.634320,496.1628012000583,496.47787360008806,496.1628012000583,None,None,496.1628012000583,None,496.96695039989424,None,,,,22054,0002,2023_Apr_20_1038,localizer,2021.1.3,60.779669422478904,
block,scrambled,scrambled027.bmp,,,,,0,158,158,158,,,,,,,,,,,,,,,,,,,,,,,,,,,,,,,,,,,,,,,,,,None,,496.96695039989424,None,496.96695039989424,None,2023-04-20-10:47:06.447081,496.9752672999166,497.27765309996903,496.9752672999166,None,None,496.9752672999166,None,497.77671829992903,None,,,,22054,0002,2023_Apr_20_1038,localizer,2021.1.3,60.779669422478904,
block,scrambled,scrambled052.bmp,,,,,0,159,159,159,,,,,,,,,,,,,,,,,,,,,,,,,,,,,,,,,,,,,,,,,,None,,497.77671829992903,None,497.77671829992903,None,2023-04-20-10:47:07.249058,497.7845554999076,498.09472660021856,497.7845554999076,None,None,497.7845554999076,None,498.5944991000928,None,,,,22054,0002,2023_Apr_20_1038,localizer,2021.1.3,60.779669422478904,
block,scrambled,scrambled083.bmp,,,,,0,160,160,160,,,,,,,,,,,,,,,,,,,,,,,,,,,,,,,,,,,,,,,,,,None,,498.5944991000928,None,498.5944991000928,None,2023-04-20-10:47:08.068001,498.59681189991534,498.9103725999594,498.59681189991534,None,None,498.59681189991534,None,499.4105860000476,None,,,,22054,0002,2023_Apr_20_1038,localizer,2021.1.3,60.779669422478904,
block,scrambled,scrambled084.bmp,,,,,0,161,161,161,,,,,,,,,,,,,,,,,,,,,,,,,,,,,,,,,,,,,,,,,,None,,499.4105860000476,None,499.4105860000476,None,2023-04-20-10:47:08.882926,499.41148209990934,499.7272859001532,499.41148209990934,None,None,499.41148209990934,None,500.21082020001484,None,,,,22054,0002,2023_Apr_20_1038,localizer,2021.1.3,60.779669422478904,
block,scrambled,scrambled054.bmp,,,,,0,162,162,162,,,,,,,,,,,,,,,,,,,,,,,,,,,,,,,,,,,,,,,,,,None,,500.21082020001484,None,500.21082020001484,None,2023-04-20-10:47:09.686148,500.21382430009544,500.52720589982346,500.21382430009544,500.21382430009544,None,500.21382430009544,500.21382430009544,501.0168928998522,None,,,,22054,0002,2023_Apr_20_1038,localizer,2021.1.3,60.779669422478904,
block,scrambled,scrambled060.bmp,,,,,0,163,163,163,,,,,,,,,,,,,,,,,,,,,,,,,,,,,,,,,,,,,,,,,,None,,501.0168928998522,None,501.0168928998522,None,2023-04-20-10:47:10.498210,501.0370161002502,501.3438702998683,501.0370161002502,501.0370161002502,None,501.0370161002502,501.0370161002502,501.84408929999915,None,,,,22054,0002,2023_Apr_20_1038,localizer,2021.1.3,60.779669422478904,
block,scrambled,scrambled081.bmp,,,,,0,164,164,164,,,,,,,,,,,,,,,,,,,,,,,,,,,,,,,,,,,,,,,,,,None,,501.84408929999915,None,501.84408929999915,None,2023-04-20-10:47:11.316350,501.8449444998987,502.1446992000565,501.8449444998987,None,None,501.8449444998987,None,502.6445689002052,None,,,,22054,0002,2023_Apr_20_1038,localizer,2021.1.3,60.779669422478904,
block,scrambled,scrambled024.bmp,,,,,0,165,165,165,,,,,,,,,,,,,,,,,,,,,,,,,,,,,,,,,,,,,,,,,,None,,502.6445689002052,None,502.6445689002052,None,2023-04-20-10:47:12.120099,502.66115349996835,502.9652193002403,502.66115349996835,502.66115349996835,None,502.66115349996835,502.66115349996835,503.4611511999741,None,,,,22054,0002,2023_Apr_20_1038,localizer,2021.1.3,60.779669422478904,
block,scrambled,scrambled075.bmp,,,,,0,166,166,166,,,,,,,,,,,,,,,,,,,,,,,,,,,,,,,,,,,,,,,,,,None,,503.4611511999741,None,503.4611511999741,None,2023-04-20-10:47:12.934562,503.46333270007744,503.7770580998622,503.46333270007744,None,None,503.46333270007744,None,504.277515300177,None,,,,22054,0002,2023_Apr_20_1038,localizer,2021.1.3,60.779669422478904,
block_end,scrambled,scrambled066.bmp,,,,,0,167,167,167,,,,,,,,,,,,,,,,,,,,,,,,,,,,,,,,,,,,,,,,,,None,,504.277515300177,None,504.277515300177,None,2023-04-20-10:47:13.749868,504.2783043999225,504.5775629002601,504.2783043999225,None,None,504.2783043999225,None,505.0939671002328,None,,,,22054,0002,2023_Apr_20_1038,localizer,2021.1.3,60.779669422478904,
block_start,objects,objects065.bmp,,,,,0,168,168,168,,,,,,,,,,,,,,,,,,,,,,,,,,,,,,,,,,,,,,,,,,t,1.810414900071919,505.0939485002309,None,505.0939485002309,None,2023-04-20-10:47:16.399564,506.9280157000758,507.22741540009156,506.9280157000758,None,None,506.9280157000758,None,507.7273509000428,None,,,,22054,0002,2023_Apr_20_1038,localizer,2021.1.3,60.779669422478904,
block,objects,objects030.bmp,,,,,0,169,169,169,,,,,,,,,,,,,,,,,,,,,,,,,,,,,,,,,,,,,,,,,,None,,507.7273509000428,None,507.7273509000428,None,2023-04-20-10:47:17.201713,507.7298619998619,508.04381569987163,507.7298619998619,507.7298619998619,None,507.7298619998619,507.7298619998619,508.5437983000651,None,,,,22054,0002,2023_Apr_20_1038,localizer,2021.1.3,60.779669422478904,
block,objects,objects025.bmp,,,,,0,170,170,170,,,,,,,,,,,,,,,,,,,,,,,,,,,,,,,,,,,,,,,,,,None,,508.5437983000651,None,508.5437983000651,None,2023-04-20-10:47:18.016062,508.5447026998736,508.84390529990196,508.5447026998736,None,None,508.5447026998736,None,509.3439081000164,None,,,,22054,0002,2023_Apr_20_1038,localizer,2021.1.3,60.779669422478904,
block,objects,objects040.bmp,,,,,0,171,171,171,,,,,,,,,,,,,,,,,,,,,,,,,,,,,,,,,,,,,,,,,,None,,509.3439081000164,None,509.3439081000164,None,2023-04-20-10:47:18.817501,509.3446753001772,509.6439030999318,509.3446753001772,509.3446753001772,None,509.3446753001772,509.3446753001772,510.1439453001134,None,,,,22054,0002,2023_Apr_20_1038,localizer,2021.1.3,60.779669422478904,
block,objects,objects008.bmp,,,,,0,172,172,172,,,,,,,,,,,,,,,,,,,,,,,,,,,,,,,,,,,,,,,,,,None,,510.1439453001134,None,510.1439453001134,None,2023-04-20-10:47:19.617907,510.14632020005956,510.4609421999194,510.14632020005956,510.14632020005956,None,510.14632020005956,510.14632020005956,510.96012979988006,None,,,,22054,0002,2023_Apr_20_1038,localizer,2021.1.3,60.779669422478904,
block,objects,objects007.bmp,,,,,0,173,173,173,,,,,,,,,,,,,,,,,,,,,,,,,,,,,,,,,,,,,,,,,,None,,510.96012979988006,None,510.96012979988006,None,2023-04-20-10:47:20.432491,510.9617411000654,511.2772046001628,510.9617411000654,None,None,510.9617411000654,None,511.77720970017833,None,,,,22054,0002,2023_Apr_20_1038,localizer,2021.1.3,60.779669422478904,
block,objects,objects071.bmp,,,,,0,174,174,174,,,,,,,,,,,,,,,,,,,,,,,,,,,,,,,,,,,,,,,,,,None,,511.77720970017833,None,511.77720970017833,None,2023-04-20-10:47:21.249595,511.77820669999346,512.0937832002528,511.77820669999346,None,None,511.77820669999346,None,512.5772483000532,None,,,,22054,0002,2023_Apr_20_1038,localizer,2021.1.3,60.779669422478904,
block,objects,objects029.bmp,,,,,0,175,175,175,,,,,,,,,,,,,,,,,,,,,,,,,,,,,,,,,,,,,,,,,,None,,512.5772483000532,None,512.5772483000532,None,2023-04-20-10:47:22.051899,512.5791433998384,512.8940858999267,512.5791433998384,512.5791433998384,None,512.5791433998384,512.5791433998384,513.3940626001917,None,,,,22054,0002,2023_Apr_20_1038,localizer,2021.1.3,60.779669422478904,
block,objects,objects005.bmp,,,,,0,176,176,176,,,,,,,,,,,,,,,,,,,,,,,,,,,,,,,,,,,,,,,,,,None,,513.3940626001917,None,513.3940626001917,None,2023-04-20-10:47:22.866448,513.395003600046,513.6942161000334,513.395003600046,None,None,513.395003600046,None,514.2104999000206,None,,,,22054,0002,2023_Apr_20_1038,localizer,2021.1.3,60.779669422478904,
block,objects,objects005.bmp,,,,,0,177,177,177,,,,,,,,,,,,,,,,,,,,,,,,,,,,,,,,,,,,,,,,,,None,,514.2104999000206,None,514.2104999000206,None,2023-04-20-10:47:23.682892,514.2114653000608,514.5114239999093,514.2114653000608,None,y,514.2114653000608,None,515.0109676002525,None,0.7111923000775278,,,22054,0002,2023_Apr_20_1038,localizer,2021.1.3,60.779669422478904,
block,objects,objects047.bmp,,,,,0,178,178,178,,,,,,,,,,,,,,,,,,,,,,,,,,,,,,,,,,,,,,,,,,None,,515.0109676002525,None,515.0109676002525,None,2023-04-20-10:47:24.484621,515.0118209999055,515.3274055002257,515.0118209999055,515.0118209999055,None,515.0118209999055,515.0118209999055,515.8272897001356,None,,,,22054,0002,2023_Apr_20_1038,localizer,2021.1.3,60.779669422478904,
block,objects,objects045.bmp,,,,,0,179,179,179,,,,,,,,,,,,,,,,,,,,,,,,,,,,,,,,,,,,,,,,,,None,,515.8272897001356,None,515.8272897001356,None,2023-04-20-10:47:25.299689,515.8282397999428,516.1440059999004,515.8282397999428,None,None,515.8282397999428,None,516.6438362999819,None,,,,22054,0002,2023_Apr_20_1038,localizer,2021.1.3,60.779669422478904,
block,objects,objects050.bmp,,,,,0,180,180,180,,,,,,,,,,,,,,,,,,,,,,,,,,,,,,,,,,,,,,,,,,None,,516.6438362999819,None,516.6438362999819,None,2023-04-20-10:47:26.116254,516.6447847001255,516.9675540002063,516.6447847001255,None,None,516.6447847001255,None,517.4452207000926,None,,,,22054,0002,2023_Apr_20_1038,localizer,2021.1.3,60.779669422478904,
block,objects,objects044.bmp,,,,,0,181,181,181,,,,,,,,,,,,,,,,,,,,,,,,,,,,,,,,,,,,,,,,,,None,,517.4452207000926,None,517.4452207000926,None,2023-04-20-10:47:26.923589,517.4651509998366,517.7772741001099,517.4651509998366,517.4651509998366,None,517.4651509998366,517.4651509998366,518.2606940000318,None,,,,22054,0002,2023_Apr_20_1038,localizer,2021.1.3,60.779669422478904,
block_end,objects,objects036.bmp,,,,,0,182,182,182,,,,,,,,,,,,,,,,,,,,,,,,,,,,,,,,,,,,,,,,,,None,,518.2606940000318,None,518.2606940000318,None,2023-04-20-10:47:27.733095,518.2707219002768,518.5776519002393,518.2707219002768,None,None,518.2707219002768,None,519.0773704998195,None,,,,22054,0002,2023_Apr_20_1038,localizer,2021.1.3,60.779669422478904,
null_block,null_block,null_block.bmp,,,,,0,183,183,183,,,,,,,,,,,,,,,,,,,,,,,,,,,,,,,,,,,,,,,,,,t,1.8269712002947927,519.0772815002128,None,519.0772815002128,None,2023-04-20-10:47:30.399964,520.9275528999045,None,520.9275528999045,None,None,520.9275528999045,None,520.9302002000622,None,,,,22054,0002,2023_Apr_20_1038,localizer,2021.1.3,60.779669422478904,
block_start,scenes,scenes003.bmp,,,,,0,184,184,184,,,,,,,,,,,,,,,,,,,,,,,,,,,,,,,,,,,,,,,,,,t,1.9561165999621153,532.9481092998758,None,532.9481092998758,None,2023-04-20-10:47:44.400975,534.9295999002643,535.2443808000535,534.9295999002643,None,None,534.9295999002643,None,535.7444603001699,None,,,,22054,0002,2023_Apr_20_1038,localizer,2021.1.3,60.779669422478904,
block,scenes,scenes018.bmp,,,,,0,185,185,185,,,,,,,,,,,,,,,,,,,,,,,,,,,,,,,,,,,,,,,,,,None,,535.7444603001699,None,535.7444603001699,None,2023-04-20-10:47:45.218140,535.7454539001919,536.0609444999136,535.7454539001919,None,None,535.7454539001919,None,536.5476707002148,None,,,,22054,0002,2023_Apr_20_1038,localizer,2021.1.3,60.779669422478904,
block,scenes,scenes025.bmp,,,,,0,186,186,186,,,,,,,,,,,,,,,,,,,,,,,,,,,,,,,,,,,,,,,,,,None,,536.5476707002148,None,536.5476707002148,None,2023-04-20-10:47:46.031004,536.5703814998269,536.8776366999373,536.5703814998269,536.5703814998269,None,536.5703814998269,536.5703814998269,537.3610963999294,None,,,,22054,0002,2023_Apr_20_1038,localizer,2021.1.3,60.779669422478904,
block,scenes,scenes008.bmp,,,,,0,187,187,187,,,,,,,,,,,,,,,,,,,,,,,,,,,,,,,,,,,,,,,,,,None,,537.3610963999294,None,537.3610963999294,None,2023-04-20-10:47:46.833575,537.3620070000179,537.66394460015,537.3620070000179,None,None,537.3620070000179,None,538.1611135002225,None,,,,22054,0002,2023_Apr_20_1038,localizer,2021.1.3,60.779669422478904,
block,scenes,scenes015.bmp,,,,,0,188,188,188,,,,,,,,,,,,,,,,,,,,,,,,,,,,,,,,,,,,,,,,,,None,,538.1611135002225,None,538.1611135002225,None,2023-04-20-10:47:47.635620,538.1640483001247,538.4776926999912,538.1640483001247,538.1640483001247,None,538.1640483001247,538.1640483001247,538.9773439998738,None,,,,22054,0002,2023_Apr_20_1038,localizer,2021.1.3,60.779669422478904,
block,scenes,scenes089.bmp,,,,,0,189,189,189,,,,,,,,,,,,,,,,,,,,,,,,,,,,,,,,,,,,,,,,,,None,,538.9773439998738,None,538.9773439998738,None,2023-04-20-10:47:48.448831,538.988733400125,539.2941077002324,538.988733400125,None,None,538.988733400125,None,539.7943909001536,None,,,,22054,0002,2023_Apr_20_1038,localizer,2021.1.3,60.779669422478904,
block,scenes,scenes087.bmp,,,,,0,190,190,190,,,,,,,,,,,,,,,,,,,,,,,,,,,,,,,,,,,,,,,,,,None,,539.7943909001536,None,539.7943909001536,None,2023-04-20-10:47:49.267125,539.7950639999472,540.0942627000622,539.7950639999472,None,None,539.7950639999472,None,540.5950154001824,None,,,,22054,0002,2023_Apr_20_1038,localizer,2021.1.3,60.779669422478904,
block,scenes,scenes052.bmp,,,,,0,191,191,191,,,,,,,,,,,,,,,,,,,,,,,,,,,,,,,,,,,,,,,,,,None,,540.5950154001824,None,540.5950154001824,None,2023-04-20-10:47:50.072487,540.613668799866,540.9275969001465,540.613668799866,540.613668799866,None,540.613668799866,540.613668799866,541.4109159001149,None,,,,22054,0002,2023_Apr_20_1038,localizer,2021.1.3,60.779669422478904,
block,scenes,scenes073.bmp,,,,,0,192,192,192,,,,,,,,,,,,,,,,,,,,,,,,,,,,,,,,,,,,,,,,,,None,,541.4109159001149,None,541.4109159001149,None,2023-04-20-10:47:50.883394,541.413047700189,541.7275959998369,541.413047700189,None,None,541.413047700189,None,542.2171036001295,None,,,,22054,0002,2023_Apr_20_1038,localizer,2021.1.3,60.779669422478904,
block,scenes,scenes012.bmp,,,,,0,193,193,193,,,,,,,,,,,,,,,,,,,,,,,,,,,,,,,,,,,,,,,,,,None,,542.2171036001295,None,542.2171036001295,None,2023-04-20-10:47:51.696409,542.2267943001352,542.527937900275,542.2267943001352,None,None,542.2267943001352,None,543.027408800181,None,,,,22054,0002,2023_Apr_20_1038,localizer,2021.1.3,60.779669422478904,
block,scenes,scenes081.bmp,,,,,0,194,194,194,,,,,,,,,,,,,,,,,,,,,,,,,,,,,,,,,,,,,,,,,,None,,543.027408800181,None,543.027408800181,None,2023-04-20-10:47:52.499902,543.0287196999416,543.3442315999418,543.0287196999416,None,None,543.0287196999416,None,543.8297906998545,None,,,,22054,0002,2023_Apr_20_1038,localizer,2021.1.3,60.779669422478904,
block,scenes,scenes024.bmp,,,,,0,195,195,195,,,,,,,,,,,,,,,,,,,,,,,,,,,,,,,,,,,,,,,,,,None,,543.8297906998545,None,543.8297906998545,None,2023-04-20-10:47:53.308242,543.8496670001186,544.1606875001453,543.8496670001186,543.8496670001186,None,543.8496670001186,543.8496670001186,544.6442489000968,None,,,,22054,0002,2023_Apr_20_1038,localizer,2021.1.3,60.779669422478904,
block,scenes,scenes009.bmp,,,,,0,196,196,196,,,,,,,,,,,,,,,,,,,,,,,,,,,,,,,,,,,,,,,,,,None,,544.6442489000968,None,544.6442489000968,None,2023-04-20-10:47:54.118701,544.6456728000194,544.9672646000981,544.6456728000194,None,None,544.6456728000194,None,545.4609581000171,None,,,,22054,0002,2023_Apr_20_1038,localizer,2021.1.3,60.779669422478904,
block,scenes,scenes026.bmp,,,,,0,197,197,197,,,,,,,,,,,,,,,,,,,,,,,,,,,,,,,,,,,,,,,,,,None,,545.4609581000171,None,545.4609581000171,None,2023-04-20-10:47:54.933758,545.4749969998375,545.7775570000522,545.4749969998375,None,None,545.4749969998375,None,546.2775519998744,None,,,,22054,0002,2023_Apr_20_1038,localizer,2021.1.3,60.779669422478904,
block_end,scenes,scenes065.bmp,,,,,0,198,198,198,,,,,,,,,,,,,,,,,,,,,,,,,,,,,,,,,,,,,,,,,,None,,546.2775519998744,None,546.2775519998744,None,2023-04-20-10:47:55.750056,546.2898586001247,546.5942917000502,546.2898586001247,None,None,546.2898586001247,None,547.094241899997,None,,,,22054,0002,2023_Apr_20_1038,localizer,2021.1.3,60.779669422478904,
block_start,scrambled,scrambled023.bmp,,,,,0,199,199,199,,,,,,,,,,,,,,,,,,,,,,,,,,,,,,,,,,,,,,,,,,t,1.8100454998202622,547.0941829001531,None,547.0941829001531,None,2023-04-20-10:47:58.400022,548.9286711001769,549.2443556999788,548.9286711001769,None,None,548.9286711001769,None,549.72774720015,None,,,,22054,0002,2023_Apr_20_1038,localizer,2021.1.3,60.779669422478904,
block,scrambled,scrambled082.bmp,,,,,0,200,200,200,,,,,,,,,,,,,,,,,,,,,,,,,,,,,,,,,,,,,,,,,,None,,549.72774720015,None,549.72774720015,None,2023-04-20-10:47:59.202254,549.7427695002407,550.0442337002605,549.7427695002407,549.7427695002407,None,549.7427695002407,549.7427695002407,550.5439606999047,None,,,,22054,0002,2023_Apr_20_1038,localizer,2021.1.3,60.779669422478904,
block,scrambled,scrambled049.bmp,,,,,0,201,201,201,,,,,,,,,,,,,,,,,,,,,,,,,,,,,,,,,,,,,,,,,,None,,550.5439606999047,None,550.5439606999047,None,2023-04-20-10:48:00.017514,550.5551331001334,550.8609616002068,550.5551331001334,None,None,550.5551331001334,None,551.3621498999186,None,,,,22054,0002,2023_Apr_20_1038,localizer,2021.1.3,60.779669422478904,
block,scrambled,scrambled075.bmp,,,,,0,202,202,202,,,,,,,,,,,,,,,,,,,,,,,,,,,,,,,,,,,,,,,,,,None,,551.3621498999186,None,551.3621498999186,None,2023-04-20-10:48:00.836831,551.364516899921,551.6776001001708,551.364516899921,None,None,551.364516899921,None,552.177687900234,None,,,,22054,0002,2023_Apr_20_1038,localizer,2021.1.3,60.779669422478904,
block,scrambled,scrambled004.bmp,,,,,0,203,203,203,,,,,,,,,,,,,,,,,,,,,,,,,,,,,,,,,,,,,,,,,,None,,552.177687900234,None,552.177687900234,None,2023-04-20-10:48:01.650207,552.1785805001855,552.4943435001187,552.1785805001855,None,None,552.1785805001855,None,552.9835695001296,None,,,,22054,0002,2023_Apr_20_1038,localizer,2021.1.3,60.779669422478904,
block,scrambled,scrambled048.bmp,,,,,0,204,204,204,,,,,,,,,,,,,,,,,,,,,,,,,,,,,,,,,,,,,,,,,,None,,552.9835695001296,None,552.9835695001296,None,2023-04-20-10:48:02.460142,553.0013473001309,553.3110621999949,553.0013473001309,None,None,553.0013473001309,None,553.7934698002413,None,,,,22054,0002,2023_Apr_20_1038,localizer,2021.1.3,60.779669422478904,
block,scrambled,scrambled070.bmp,,,,,0,205,205,205,,,,,,,,,,,,,,,,,,,,,,,,,,,,,,,,,,,,,,,,,,None,,553.7934698002413,None,553.7934698002413,None,2023-04-20-10:48:03.266106,553.7953500999138,554.0958591001108,553.7953500999138,None,None,553.7953500999138,None,554.6106296001002,None,,,,22054,0002,2023_Apr_20_1038,localizer,2021.1.3,60.779669422478904,
block,scrambled,scrambled067.bmp,,,,,0,206,206,206,,,,,,,,,,,,,,,,,,,,,,,,,,,,,,,,,,,,,,,,,,None,,554.6106296001002,None,554.6106296001002,None,2023-04-20-10:48:04.084040,554.6115879998542,554.9109314000234,554.6115879998542,None,None,554.6115879998542,None,555.4108790998347,None,,,,22054,0002,2023_Apr_20_1038,localizer,2021.1.3,60.779669422478904,
block,scrambled,scrambled036.bmp,,,,,0,207,207,207,,,,,,,,,,,,,,,,,,,,,,,,,,,,,,,,,,,,,,,,,,None,,555.4108790998347,None,555.4108790998347,None,2023-04-20-10:48:04.886139,555.4120436999947,555.7276806998998,555.4120436999947,555.4120436999947,None,555.4120436999947,555.4120436999947,556.2274353998713,None,,,,22054,0002,2023_Apr_20_1038,localizer,2021.1.3,60.779669422478904,
block,scrambled,scrambled036.bmp,,,,,0,208,208,208,,,,,,,,,,,,,,,,,,,,,,,,,,,,,,,,,,,,,,,,,,None,,556.2274353998713,None,556.2274353998713,None,2023-04-20-10:48:05.701045,556.2286485000513,556.5443898998201,556.2286485000513,None,y,556.2286485000513,None,557.04389330009,None,0.6423750999383628,,,22054,0002,2023_Apr_20_1038,localizer,2021.1.3,60.779669422478904,
block,scrambled,scrambled079.bmp,,,,,0,209,209,209,,,,,,,,,,,,,,,,,,,,,,,,,,,,,,,,,,,,,,,,,,None,,557.04389330009,None,557.04389330009,None,2023-04-20-10:48:06.518032,557.0553796002641,557.3610129998997,557.0553796002641,None,None,557.0553796002641,None,557.8609058001078,None,,,,22054,0002,2023_Apr_20_1038,localizer,2021.1.3,60.779669422478904,
block,scrambled,scrambled034.bmp,,,,,0,210,210,210,,,,,,,,,,,,,,,,,,,,,,,,,,,,,,,,,,,,,,,,,,None,,557.8609058001078,None,557.8609058001078,None,2023-04-20-10:48:07.335173,557.862004800234,558.1610669000074,557.862004800234,None,None,557.862004800234,None,558.6610645000823,None,,,,22054,0002,2023_Apr_20_1038,localizer,2021.1.3,60.779669422478904,
block,scrambled,scrambled043.bmp,,,,,0,211,211,211,,,,,,,,,,,,,,,,,,,,,,,,,,,,,,,,,,,,,,,,,,None,,558.6610645000823,None,558.6610645000823,None,2023-04-20-10:48:08.137660,558.6638863999397,558.9777104002424,558.6638863999397,558.6638863999397,None,558.6638863999397,558.6638863999397,559.4774559001438,None,,,,22054,0002,2023_Apr_20_1038,localizer,2021.1.3,60.779669422478904,
block,scrambled,scrambled064.bmp,,,,,0,212,212,212,,,,,,,,,,,,,,,,,,,,,,,,,,,,,,,,,,,,,,,,,,None,,559.4774559001438,None,559.4774559001438,None,2023-04-20-10:48:08.952152,559.4786724001169,559.7943580001593,559.4786724001169,None,None,559.4786724001169,None,560.2780180998146,None,,,,22054,0002,2023_Apr_20_1038,localizer,2021.1.3,60.779669422478904,
block_end,scrambled,scrambled021.bmp,,,,,0,213,213,213,,,,,,,,,,,,,,,,,,,,,,,,,,,,,,,,,,,,,,,,,,None,,560.2780180998146,None,560.2780180998146,None,2023-04-20-10:48:09.755495,560.2804422001354,560.5941604999825,560.2804422001354,560.2804422001354,None,560.2804422001354,560.2804422001354,561.0944253998808,None,,,,22054,0002,2023_Apr_20_1038,localizer,2021.1.3,60.779669422478904,
block_start,faces,faces048.bmp,,,,,0,214,214,214,,,,,,,,,,,,,,,,,,,,,,,,,,,,,,,,,,,,,,,,,,t,1.8101566000841558,561.0939687001519,None,561.0939687001519,None,2023-04-20-10:48:12.403965,562.9289636998437,563.2480946001597,562.9289636998437,None,None,562.9289636998437,None,563.7289967998862,None,,,,22054,0002,2023_Apr_20_1038,localizer,2021.1.3,60.779669422478904,
block,faces,faces014.bmp,,,,,0,215,215,215,,,,,,,,,,,,,,,,,,,,,,,,,,,,,,,,,,,,,,,,,,None,,563.7289967998862,None,563.7289967998862,None,2023-04-20-10:48:13.209665,563.7343482002616,564.0439614001662,563.7343482002616,563.7343482002616,None,563.7343482002616,563.7343482002616,564.5455728998407,None,,,,22054,0002,2023_Apr_20_1038,localizer,2021.1.3,60.779669422478904,
block,faces,faces082.bmp,,,,,0,216,216,216,,,,,,,,,,,,,,,,,,,,,,,,,,,,,,,,,,,,,,,,,,None,,564.5455728998407,None,564.5455728998407,None,2023-04-20-10:48:14.024746,564.5478733000346,564.8612883999012,564.5478733000346,None,None,564.5478733000346,None,565.3610060998238,None,,,,22054,0002,2023_Apr_20_1038,localizer,2021.1.3,60.779669422478904,
block,faces,faces062.bmp,,,,,0,217,217,217,,,,,,,,,,,,,,,,,,,,,,,,,,,,,,,,,,,,,,,,,,None,,565.3610060998238,None,565.3610060998238,None,2023-04-20-10:48:14.838571,565.3620719001628,565.677745600231,565.3620719001628,None,None,565.3620719001628,None,566.1622838998213,None,,,,22054,0002,2023_Apr_20_1038,localizer,2021.1.3,60.779669422478904,
block,faces,faces083.bmp,,,,,0,218,218,218,,,,,,,,,,,,,,,,,,,,,,,,,,,,,,,,,,,,,,,,,,None,,566.1622838998213,None,566.1622838998213,None,2023-04-20-10:48:15.644119,566.1803433001041,566.494394000154,566.1803433001041,566.1803433001041,None,566.1803433001041,566.1803433001041,566.9777230998501,None,,,,22054,0002,2023_Apr_20_1038,localizer,2021.1.3,60.779669422478904,
block,faces,faces047.bmp,,,,,0,219,219,219,,,,,,,,,,,,,,,,,,,,,,,,,,,,,,,,,,,,,,,,,,None,,566.9777230998501,None,566.9777230998501,None,2023-04-20-10:48:16.455717,566.9887838000432,567.2945711002685,566.9887838000432,None,None,566.9887838000432,None,567.7955871998332,None,,,,22054,0002,2023_Apr_20_1038,localizer,2021.1.3,60.779669422478904,
block,faces,faces085.bmp,,,,,0,220,220,220,,,,,,,,,,,,,,,,,,,,,,,,,,,,,,,,,,,,,,,,,,None,,567.7955871998332,None,567.7955871998332,None,2023-04-20-10:48:17.275100,567.7979025999084,568.1110006999224,567.7979025999084,None,None,567.7979025999084,None,568.6111303000711,None,,,,22054,0002,2023_Apr_20_1038,localizer,2021.1.3,60.779669422478904,
block,faces,faces068.bmp,,,,,0,221,221,221,,,,,,,,,,,,,,,,,,,,,,,,,,,,,,,,,,,,,,,,,,None,,568.6111303000711,None,568.6111303000711,None,2023-04-20-10:48:18.089808,568.6238555000164,568.9275795002468,568.6238555000164,None,None,568.6238555000164,None,569.4276819001883,None,,,,22054,0002,2023_Apr_20_1038,localizer,2021.1.3,60.779669422478904,
block,faces,faces051.bmp,,,,,0,222,222,222,,,,,,,,,,,,,,,,,,,,,,,,,,,,,,,,,,,,,,,,,,None,,569.4276819001883,None,569.4276819001883,None,2023-04-20-10:48:18.906923,569.4287399998866,569.7280653002672,569.4287399998866,None,None,569.4287399998866,None,570.244464499969,None,,,,22054,0002,2023_Apr_20_1038,localizer,2021.1.3,60.779669422478904,
block,faces,faces027.bmp,,,,,0,223,223,223,,,,,,,,,,,,,,,,,,,,,,,,,,,,,,,,,,,,,,,,,,None,,570.244464499969,None,570.244464499969,None,2023-04-20-10:48:19.724033,570.2454339000396,570.5611816998571,570.2454339000396,None,None,570.2454339000396,None,571.0488279001787,None,,,,22054,0002,2023_Apr_20_1038,localizer,2021.1.3,60.779669422478904,
block,faces,faces060.bmp,,,,,0,224,224,224,,,,,,,,,,,,,,,,,,,,,,,,,,,,,,,,,,,,,,,,,,None,,571.0488279001787,None,571.0488279001787,None,2023-04-20-10:48:20.535604,571.0579097000882,571.3608928001486,571.0579097000882,571.0579097000882,None,571.0579097000882,571.0579097000882,571.8608292002231,None,,,,22054,0002,2023_Apr_20_1038,localizer,2021.1.3,60.779669422478904,
block,faces,faces054.bmp,,,,,0,225,225,225,,,,,,,,,,,,,,,,,,,,,,,,,,,,,,,,,,,,,,,,,,None,,571.8608292002231,None,571.8608292002231,None,2023-04-20-10:48:21.340847,571.8722630999982,572.1776260002516,571.8722630999982,None,None,571.8722630999982,None,572.6779671000317,None,,,,22054,0002,2023_Apr_20_1038,localizer,2021.1.3,60.779669422478904,
block,faces,faces063.bmp,,,,,0,226,226,226,,,,,,,,,,,,,,,,,,,,,,,,,,,,,,,,,,,,,,,,,,None,,572.6779671000317,None,572.6779671000317,None,2023-04-20-10:48:22.158245,572.691263299901,572.9944036998786,572.691263299901,None,None,572.691263299901,None,573.4948479999788,None,,,,22054,0002,2023_Apr_20_1038,localizer,2021.1.3,60.779669422478904,
block,faces,faces080.bmp,,,,,0,227,227,227,,,,,,,,,,,,,,,,,,,,,,,,,,,,,,,,,,,,,,,,,,None,,573.4948479999788,None,573.4948479999788,None,2023-04-20-10:48:22.975615,573.4966354002245,573.8113382998854,573.4966354002245,None,None,573.4966354002245,None,574.3111359999515,None,,,,22054,0002,2023_Apr_20_1038,localizer,2021.1.3,60.779669422478904,
block_end,faces,faces045.bmp,,,,,0,228,228,228,,,,,,,,,,,,,,,,,,,,,,,,,,,,,,,,,,,,,,,,,,None,,574.3111359999515,None,574.3111359999515,None,2023-04-20-10:48:23.793284,574.3125101001933,574.627979000099,574.3125101001933,None,None,574.3125101001933,None,575.1272264999337,None,,,,22054,0002,2023_Apr_20_1038,localizer,2021.1.3,60.779669422478904,
block_start,objects,objects005.bmp,,,,,0,229,229,229,,,,,,,,,,,,,,,,,,,,,,,,,,,,,,,,,,,,,,,,,,t,1.772514299955219,575.1316215000115,None,575.1316215000115,None,2023-04-20-10:48:26.410154,576.9296598001383,577.2442331002094,576.9296598001383,None,None,576.9296598001383,None,577.7447114001028,None,,,,22054,0002,2023_Apr_20_1038,localizer,2021.1.3,60.779669422478904,
block,objects,objects020.bmp,,,,,0,230,230,230,,,,,,,,,,,,,,,,,,,,,,,,,,,,,,,,,,,,,,,,,,None,,577.7447114001028,None,577.7447114001028,None,2023-04-20-10:48:27.227191,577.7454224000685,578.0612111999653,577.7454224000685,None,None,577.7454224000685,None,578.5608537998982,None,,,,22054,0002,2023_Apr_20_1038,localizer,2021.1.3,60.779669422478904,
block,objects,objects003.bmp,,,,,0,231,231,231,,,,,,,,,,,,,,,,,,,,,,,,,,,,,,,,,,,,,,,,,,None,,578.5608537998982,None,578.5608537998982,None,2023-04-20-10:48:28.042619,578.5621254001744,578.8611999000423,578.5621254001744,None,None,578.5621254001744,None,579.3613827001303,None,,,,22054,0002,2023_Apr_20_1038,localizer,2021.1.3,60.779669422478904,
block,objects,objects001.bmp,,,,,0,232,232,232,,,,,,,,,,,,,,,,,,,,,,,,,,,,,,,,,,,,,,,,,,None,,579.3613827001303,None,579.3613827001303,None,2023-04-20-10:48:28.846524,579.3642100999132,579.6780563001521,579.3642100999132,579.3642100999132,None,579.3642100999132,579.3642100999132,580.1778750997968,None,,,,22054,0002,2023_Apr_20_1038,localizer,2021.1.3,60.779669422478904,
block,objects,objects048.bmp,,,,,0,233,233,233,,,,,,,,,,,,,,,,,,,,,,,,,,,,,,,,,,,,,,,,,,None,,580.1778750997968,None,580.1778750997968,None,2023-04-20-10:48:29.661345,580.1896174000576,580.4943408998661,580.1896174000576,None,None,580.1896174000576,None,581.0008387999609,None,,,,22054,0002,2023_Apr_20_1038,localizer,2021.1.3,60.779669422478904,
block,objects,objects051.bmp,,,,,0,234,234,234,,,,,,,,,,,,,,,,,,,,,,,,,,,,,,,,,,,,,,,,,,None,,581.0008387999609,None,581.0008387999609,None,2023-04-20-10:48:30.492509,581.0159944002517,581.3277191999368,581.0159944002517,None,None,581.0159944002517,None,581.8107869002037,None,,,,22054,0002,2023_Apr_20_1038,localizer,2021.1.3,60.779669422478904,
block,objects,objects026.bmp,,,,,0,235,235,235,,,,,,,,,,,,,,,,,,,,,,,,,,,,,,,,,,,,,,,,,,None,,581.8107869002037,None,581.8107869002037,None,2023-04-20-10:48:31.294880,581.8226018999703,582.1279667001218,581.8226018999703,None,None,581.8226018999703,None,582.6282529999502,None,,,,22054,0002,2023_Apr_20_1038,localizer,2021.1.3,60.779669422478904,
block,objects,objects014.bmp,,,,,0,236,236,236,,,,,,,,,,,,,,,,,,,,,,,,,,,,,,,,,,,,,,,,,,None,,582.6282529999502,None,582.6282529999502,None,2023-04-20-10:48:32.113665,582.6432512998581,582.9439313998446,582.6432512998581,None,None,582.6432512998581,None,583.4445321002044,None,,,,22054,0002,2023_Apr_20_1038,localizer,2021.1.3,60.779669422478904,
block,objects,objects054.bmp,,,,,0,237,237,237,,,,,,,,,,,,,,,,,,,,,,,,,,,,,,,,,,,,,,,,,,None,,583.4445321002044,None,583.4445321002044,None,2023-04-20-10:48:32.929235,583.4454283001833,583.7609768002294,583.4454283001833,None,None,583.4454283001833,None,584.2449947000481,None,,,,22054,0002,2023_Apr_20_1038,localizer,2021.1.3,60.779669422478904,
block,objects,objects031.bmp,,,,,0,238,238,238,,,,,,,,,,,,,,,,,,,,,,,,,,,,,,,,,,,,,,,,,,None,,584.2449947000481,None,584.2449947000481,None,2023-04-20-10:48:33.733262,584.2482985998504,584.5609335000627,584.2482985998504,584.2482985998504,None,584.2482985998504,584.2482985998504,585.0609125998802,None,,,,22054,0002,2023_Apr_20_1038,localizer,2021.1.3,60.779669422478904,
block,objects,objects045.bmp,,,,,0,239,239,239,,,,,,,,,,,,,,,,,,,,,,,,,,,,,,,,,,,,,,,,,,None,,585.0609125998802,None,585.0609125998802,None,2023-04-20-10:48:34.546578,585.0618839999661,585.361323799938,585.0618839999661,None,None,585.0618839999661,None,585.8612870002165,None,,,,22054,0002,2023_Apr_20_1038,localizer,2021.1.3,60.779669422478904,
block,objects,objects086.bmp,,,,,0,240,240,240,,,,,,,,,,,,,,,,,,,,,,,,,,,,,,,,,,,,,,,,,,None,,585.8612870002165,None,585.8612870002165,None,2023-04-20-10:48:35.348280,585.8742758999579,586.1778346002102,585.8742758999579,585.8742758999579,None,585.8742758999579,585.8742758999579,586.6781173000112,None,,,,22054,0002,2023_Apr_20_1038,localizer,2021.1.3,60.779669422478904,
block,objects,objects055.bmp,,,,,0,241,241,241,,,,,,,,,,,,,,,,,,,,,,,,,,,,,,,,,,,,,,,,,,None,,586.6781173000112,None,586.6781173000112,None,2023-04-20-10:48:36.165196,586.6788762002252,586.9947119001299,586.6788762002252,None,None,586.6788762002252,None,587.4781621998176,None,,,,22054,0002,2023_Apr_20_1038,localizer,2021.1.3,60.779669422478904,
block,objects,objects004.bmp,,,,,0,242,242,242,,,,,,,,,,,,,,,,,,,,,,,,,,,,,,,,,,,,,,,,,,None,,587.4781621998176,None,587.4781621998176,None,2023-04-20-10:48:36.966568,587.4932837001979,587.7947280001827,587.4932837001979,587.4932837001979,None,587.4932837001979,587.4932837001979,588.2944076998159,None,,,,22054,0002,2023_Apr_20_1038,localizer,2021.1.3,60.779669422478904,
block_end,objects,objects073.bmp,,,,,0,243,243,243,,,,,,,,,,,,,,,,,,,,,,,,,,,,,,,,,,,,,,,,,,None,,588.2944076998159,None,588.2944076998159,None,2023-04-20-10:48:37.781328,588.2953007998876,588.6111969002523,588.2953007998876,None,None,588.2953007998876,None,589.0945658000186,None,,,,22054,0002,2023_Apr_20_1038,localizer,2021.1.3,60.779669422478904,
,,,,,,,,,,,,,,,,,,,,,,,,,,,,,,,,,,,,,,,,,,,,,,,,,,,,,,,,,,,,,,,,,,,,,589.0952421999536,None,,,,,,,
