block_type,condition,img_name,Button.thisRepN,Button.thisTrialN,Button.thisN,Button.thisIndex,trials.thisRepN,trials.thisTrialN,trials.thisN,trials.thisIndex,Ready_experimenter_text.started,Ready_experimenter_text.stopped,Ready_experimenter_resp.keys,Ready_experimenter_resp.rt,Ready_experimenter_resp.started,Ready_experimenter_resp.stopped,Alignment_background.started,Alignment_background.stopped,Alignment_image.started,Alignment_image.stopped,Alignment_resp.keys,Alignment_resp.rt,Alignment_resp.started,Alignment_resp.stopped,Button_text.started,Button_text.stopped,Index_text.started,Index_text.stopped,Index_resp.keys,Index_resp.rt,Index_resp.started,Index_resp.stopped,Middle_text.started,Middle_text.stopped,Middle_resp.keys,Middle_resp.rt,Middle_resp.started,Middle_resp.stopped,Repeat_text.started,Repeat_text.stopped,Repeat_resp.keys,Repeat_resp.corr,Repeat_resp.rt,Repeat_resp.started,Repeat_resp.stopped,instruction_text.started,instruction_text.stopped,key_resp.keys,key_resp.rt,key_resp.started,key_resp.stopped,scanner_t.keys,scanner_t.rt,scanner_t.started,scanner_t.stopped,fixation_wait_for_t.started,fixation_wait_for_t.stopped,real_timestamp_trial_start,image.started,image.stopped,fixation.started,fixation.stopped,repeat_response.keys,repeat_response.started,repeat_response.stopped,fixation_null.started,fixation_null.stopped,repeat_response.rt,end_text.started,end_text.stopped,participant,run,date,expName,psychopyVersion,frameRate,
,,,,,,,,,,,10.857695100130513,None,return,64.54197390004992,10.857695100130513,None,,,,,,,,,,,,,,,,,,,,,,,,,,,,,,,,,,,,,,,,,,,,,,,,,,,,,,,21004,0001,2022_Jun_06_1307,localizer,2021.1.3,59.994948372913164,
,,,,,,,,,,,,,,,,,75.44035240006633,None,75.44035240006633,None,return,5.687714099884033,75.44035240006633,None,,,,,,,,,,,,,,,,,,,,,,,,,,,,,,,,,,,,,,,,,,,,,,,21004,0001,2022_Jun_06_1307,localizer,2021.1.3,59.994948372913164,
,,,0,0,0,0,,,,,,,,,,,,,,,,,,,81.15561780007556,None,82.17714240006171,None,y,4.508455300005153,82.17714240006171,None,86.70545620005578,None,b,2.6301061999984086,86.70545620005578,None,89.35825110017322,None,n,0,2.1043700999580324,89.35825110017322,None,,,,,,,,,,,,,,,,,,,,,,,,,,21004,0001,2022_Jun_06_1307,localizer,2021.1.3,59.994948372913164,
,,,,,,,,,,,,,,,,,,,,,,,,,,,,,,,,,,,,,,,,,,,,,,91.48645590012893,None,y,35.27411780017428,91.48645590012893,None,,,,,,,,,,,,,,,,,,,,21004,0001,2022_Jun_06_1307,localizer,2021.1.3,59.994948372913164,
null_block,null_block,null_block.bmp,,,,,0,0,0,0,,,,,,,,,,,,,,,,,,,,,,,,,,,,,,,,,,,,,,,,,,t,15.926698399940506,126.8760461001657,None,126.8760461001657,None,2022-06-06-13:09:41.666931,142.83899760013446,None,142.83899760013446,None,None,142.83899760013446,None,142.84369749994949,None,,,,21004,0001,2022_Jun_06_1307,localizer,2021.1.3,59.994948372913164,
block_start,scenes,scenes085.bmp,,,,,0,1,1,1,,,,,,,,,,,,,,,,,,,,,,,,,,,,,,,,,,,,,,,,,,t,1.947869900148362,154.85463030007668,None,154.85463030007668,None,2022-06-06-13:09:55.668977,156.83648249995895,157.1382983000949,156.83648249995895,None,None,156.83648249995895,None,157.6372173500713,None,,,,21004,0001,2022_Jun_06_1307,localizer,2021.1.3,59.994948372913164,
block,scenes,scenes057.bmp,,,,,0,2,2,2,,,,,,,,,,,,,,,,,,,,,,,,,,,,,,,,,,,,,,,,,,None,,157.6372173500713,None,157.6372173500713,None,2022-06-06-13:09:56.480160,157.64644840010442,157.95460680010729,157.64644840010442,None,None,157.64644840010442,None,158.45406715013087,None,,,,21004,0001,2022_Jun_06_1307,localizer,2021.1.3,59.994948372913164,
block,scenes,scenes032.bmp,,,,,0,3,3,3,,,,,,,,,,,,,,,,,,,,,,,,,,,,,,,,,,,,,,,,,,None,,158.45406715013087,None,158.45406715013087,None,2022-06-06-13:09:57.298007,158.46443100017495,158.7709536999464,158.46443100017495,None,None,158.46443100017495,None,159.27084304997697,None,,,,21004,0001,2022_Jun_06_1307,localizer,2021.1.3,59.994948372913164,
block,scenes,scenes017.bmp,,,,,0,4,4,4,,,,,,,,,,,,,,,,,,,,,,,,,,,,,,,,,,,,,,,,,,None,,159.27084304997697,None,159.27084304997697,None,2022-06-06-13:09:58.113842,159.28240040014498,159.5879168000538,159.28240040014498,None,None,159.28240040014498,None,160.08747655013576,None,,,,21004,0001,2022_Jun_06_1307,localizer,2021.1.3,59.994948372913164,
block,scenes,scenes081.bmp,,,,,0,5,5,5,,,,,,,,,,,,,,,,,,,,,,,,,,,,,,,,,,,,,,,,,,None,,160.08747655013576,None,160.08747655013576,None,2022-06-06-13:09:58.936393,160.1113993001636,160.42158750002272,160.1113993001636,None,None,160.1113993001636,None,160.9040767501574,None,,,,21004,0001,2022_Jun_06_1307,localizer,2021.1.3,59.994948372913164,
block,scenes,scenes035.bmp,,,,,0,6,6,6,,,,,,,,,,,,,,,,,,,,,,,,,,,,,,,,,,,,,,,,,,None,,160.9040767501574,None,160.9040767501574,None,2022-06-06-13:09:59.748522,160.91670890012756,161.22735850000754,160.91670890012756,None,None,160.91670890012756,None,161.72072884999216,None,,,,21004,0001,2022_Jun_06_1307,localizer,2021.1.3,59.994948372913164,
block,scenes,scenes075.bmp,,,,,0,7,7,7,,,,,,,,,,,,,,,,,,,,,,,,,,,,,,,,,,,,,,,,,,None,,161.72072884999216,None,161.72072884999216,None,2022-06-06-13:10:00.564901,161.73243470001034,162.037653000094,161.73243470001034,None,None,161.73243470001034,None,162.53744735009968,None,,,,21004,0001,2022_Jun_06_1307,localizer,2021.1.3,59.994948372913164,
block,scenes,scenes020.bmp,,,,,0,8,8,8,,,,,,,,,,,,,,,,,,,,,,,,,,,,,,,,,,,,,,,,,,None,,162.53744735009968,None,162.53744735009968,None,2022-06-06-13:10:01.380401,162.54689810005948,162.8545301000122,162.54689810005948,None,None,162.54689810005948,None,163.3541122500319,None,,,,21004,0001,2022_Jun_06_1307,localizer,2021.1.3,59.994948372913164,
block,scenes,scenes040.bmp,,,,,0,9,9,9,,,,,,,,,,,,,,,,,,,,,,,,,,,,,,,,,,,,,,,,,,None,,163.3541122500319,None,163.3541122500319,None,2022-06-06-13:10:02.198184,163.36444280017167,163.6710394001566,163.36444280017167,None,None,163.36444280017167,None,164.17080525006168,None,,,,21004,0001,2022_Jun_06_1307,localizer,2021.1.3,59.994948372913164,
block,scenes,scenes066.bmp,,,,,0,10,10,10,,,,,,,,,,,,,,,,,,,,,,,,,,,,,,,,,,,,,,,,,,None,,164.17080525006168,None,164.17080525006168,None,2022-06-06-13:10:03.014711,164.17763540009037,164.48812170000747,164.17763540009037,None,None,164.17763540009037,None,164.98778345016763,None,,,,21004,0001,2022_Jun_06_1307,localizer,2021.1.3,59.994948372913164,
block,scenes,scenes009.bmp,,,,,0,11,11,11,,,,,,,,,,,,,,,,,,,,,,,,,,,,,,,,,,,,,,,,,,None,,164.98778345016763,None,164.98778345016763,None,2022-06-06-13:10:03.832715,164.99894109996967,165.30534610012546,164.99894109996967,None,None,164.99894109996967,None,165.80405795015395,None,,,,21004,0001,2022_Jun_06_1307,localizer,2021.1.3,59.994948372913164,
block,scenes,scenes011.bmp,,,,,0,12,12,12,,,,,,,,,,,,,,,,,,,,,,,,,,,,,,,,,,,,,,,,,,None,,165.80405795015395,None,165.80405795015395,None,2022-06-06-13:10:04.647316,165.81327900011092,166.12118270015344,165.81327900011092,None,None,165.81327900011092,None,166.62075365008786,None,,,,21004,0001,2022_Jun_06_1307,localizer,2021.1.3,59.994948372913164,
block,scenes,scenes007.bmp,,,,,0,13,13,13,,,,,,,,,,,,,,,,,,,,,,,,,,,,,,,,,,,,,,,,,,None,,166.62075365008786,None,166.62075365008786,None,2022-06-06-13:10:05.463695,166.63897620001808,166.954646400176,166.63897620001808,None,None,166.63897620001808,None,167.4386647499632,None,,,,21004,0001,2022_Jun_06_1307,localizer,2021.1.3,59.994948372913164,
block,scenes,scenes030.bmp,,,,,0,14,14,14,,,,,,,,,,,,,,,,,,,,,,,,,,,,,,,,,,,,,,,,,,None,,167.4386647499632,None,167.4386647499632,None,2022-06-06-13:10:06.283768,167.45091460016556,167.7543795001693,167.45091460016556,None,None,167.45091460016556,None,168.25409555016086,None,,,,21004,0001,2022_Jun_06_1307,localizer,2021.1.3,59.994948372913164,
block_end,scenes,scenes019.bmp,,,,,0,15,15,15,,,,,,,,,,,,,,,,,,,,,,,,,,,,,,,,,,,,,,,,,,None,,168.25409555016086,None,168.25409555016086,None,2022-06-06-13:10:07.098681,168.26849670009688,168.57177140004933,168.26849670009688,None,None,168.26849670009688,None,169.0711694501806,None,,,,21004,0001,2022_Jun_06_1307,localizer,2021.1.3,59.994948372913164,
block_start,scrambled,scrambled055.bmp,,,,,0,16,16,16,,,,,,,,,,,,,,,,,,,,,,,,,,,,,,,,,,,,,,,,,,t,1.7314198000822216,169.07102810009383,None,169.07102810009383,None,2022-06-06-13:10:09.664105,170.83082290017046,171.13817940000445,170.83082290017046,None,None,170.83082290017046,None,171.63707595015876,None,,,,21004,0001,2022_Jun_06_1307,localizer,2021.1.3,59.994948372913164,
block,scrambled,scrambled081.bmp,,,,,0,17,17,17,,,,,,,,,,,,,,,,,,,,,,,,,,,,,,,,,,,,,,,,,,None,,171.63707595015876,None,171.63707595015876,None,2022-06-06-13:10:10.480321,171.64806280005723,171.95449619996361,171.64806280005723,None,None,171.64806280005723,None,172.45431735017337,None,,,,21004,0001,2022_Jun_06_1307,localizer,2021.1.3,59.994948372913164,
block,scrambled,scrambled066.bmp,,,,,0,18,18,18,,,,,,,,,,,,,,,,,,,,,,,,,,,,,,,,,,,,,,,,,,None,,172.45431735017337,None,172.45431735017337,None,2022-06-06-13:10:11.297589,172.46582110016607,172.77146790013649,172.46582110016607,None,None,172.46582110016607,None,173.27063235011883,None,,,,21004,0001,2022_Jun_06_1307,localizer,2021.1.3,59.994948372913164,
block,scrambled,scrambled051.bmp,,,,,0,19,19,19,,,,,,,,,,,,,,,,,,,,,,,,,,,,,,,,,,,,,,,,,,None,,173.27063235011883,None,173.27063235011883,None,2022-06-06-13:10:12.113577,173.28038410004228,173.58770700008608,173.28038410004228,None,None,173.28038410004228,None,174.0874073500745,None,,,,21004,0001,2022_Jun_06_1307,localizer,2021.1.3,59.994948372913164,
block,scrambled,scrambled046.bmp,,,,,0,20,20,20,,,,,,,,,,,,,,,,,,,,,,,,,,,,,,,,,,,,,,,,,,None,,174.0874073500745,None,174.0874073500745,None,2022-06-06-13:10:12.931345,174.09810689999722,174.40467610000633,174.09810689999722,None,None,174.09810689999722,None,174.90418864996172,None,,,,21004,0001,2022_Jun_06_1307,localizer,2021.1.3,59.994948372913164,
block,scrambled,scrambled068.bmp,,,,,0,21,21,21,,,,,,,,,,,,,,,,,,,,,,,,,,,,,,,,,,,,,,,,,,None,,174.90418864996172,None,174.90418864996172,None,2022-06-06-13:10:13.748254,174.91454509994946,175.22131570009515,174.91454509994946,None,None,174.91454509994946,None,175.72149505000561,None,,,,21004,0001,2022_Jun_06_1307,localizer,2021.1.3,59.994948372913164,
block,scrambled,scrambled026.bmp,,,,,0,22,22,22,,,,,,,,,,,,,,,,,,,,,,,,,,,,,,,,,,,,,,,,,,None,,175.72149505000561,None,175.72149505000561,None,2022-06-06-13:10:14.565429,175.73045230004936,176.0382968999911,175.73045230004936,None,None,175.73045230004936,None,176.53745055012405,None,,,,21004,0001,2022_Jun_06_1307,localizer,2021.1.3,59.994948372913164,
block,scrambled,scrambled017.bmp,,,,,0,23,23,23,,,,,,,,,,,,,,,,,,,,,,,,,,,,,,,,,,,,,,,,,,None,,176.53745055012405,None,176.53745055012405,None,2022-06-06-13:10:15.381390,176.54391530016437,176.8547680999618,176.54391530016437,None,None,176.54391530016437,None,177.35469595016912,None,,,,21004,0001,2022_Jun_06_1307,localizer,2021.1.3,59.994948372913164,
block,scrambled,scrambled074.bmp,,,,,0,24,24,24,,,,,,,,,,,,,,,,,,,,,,,,,,,,,,,,,,,,,,,,,,None,,177.35469595016912,None,177.35469595016912,None,2022-06-06-13:10:16.198732,177.3660957000684,177.67132840002887,177.3660957000684,None,None,177.3660957000684,None,178.17069365014322,None,,,,21004,0001,2022_Jun_06_1307,localizer,2021.1.3,59.994948372913164,
block,scrambled,scrambled059.bmp,,,,,0,25,25,25,,,,,,,,,,,,,,,,,,,,,,,,,,,,,,,,,,,,,,,,,,None,,178.17069365014322,None,178.17069365014322,None,2022-06-06-13:10:17.013635,178.17643019999377,178.4774355001282,178.17643019999377,None,None,178.17643019999377,None,178.9889539501164,None,,,,21004,0001,2022_Jun_06_1307,localizer,2021.1.3,59.994948372913164,
block,scrambled,scrambled033.bmp,,,,,0,26,26,26,,,,,,,,,,,,,,,,,,,,,,,,,,,,,,,,,,,,,,,,,,None,,178.9889539501164,None,178.9889539501164,None,2022-06-06-13:10:17.834000,179.0035584999714,179.30483349994756,179.0035584999714,None,None,179.0035584999714,None,179.80416045011953,None,,,,21004,0001,2022_Jun_06_1307,localizer,2021.1.3,59.994948372913164,
block,scrambled,scrambled079.bmp,,,,,0,27,27,27,,,,,,,,,,,,,,,,,,,,,,,,,,,,,,,,,,,,,,,,,,None,,179.80416045011953,None,179.80416045011953,None,2022-06-06-13:10:18.648118,179.8146115001291,180.12106210016645,179.8146115001291,None,None,179.8146115001291,None,180.62102845008485,None,,,,21004,0001,2022_Jun_06_1307,localizer,2021.1.3,59.994948372913164,
block,scrambled,scrambled036.bmp,,,,,0,28,28,28,,,,,,,,,,,,,,,,,,,,,,,,,,,,,,,,,,,,,,,,,,None,,180.62102845008485,None,180.62102845008485,None,2022-06-06-13:10:19.463971,180.63107540016063,180.9380734001752,180.63107540016063,None,None,180.63107540016063,None,181.4388474500738,None,,,,21004,0001,2022_Jun_06_1307,localizer,2021.1.3,59.994948372913164,
block,scrambled,scrambled070.bmp,,,,,0,29,29,29,,,,,,,,,,,,,,,,,,,,,,,,,,,,,,,,,,,,,,,,,,None,,181.4388474500738,None,181.4388474500738,None,2022-06-06-13:10:20.284831,181.4554950001184,181.77179519995116,181.4554950001184,None,None,181.4554950001184,None,182.25475225015543,None,,,,21004,0001,2022_Jun_06_1307,localizer,2021.1.3,59.994948372913164,
block_end,scrambled,scrambled031.bmp,,,,,0,30,30,30,,,,,,,,,,,,,,,,,,,,,,,,,,,,,,,,,,,,,,,,,,None,,182.25475225015543,None,182.25475225015543,None,2022-06-06-13:10:21.097733,182.26584480004385,182.57126470003277,182.26584480004385,None,None,182.26584480004385,None,183.07133045000955,None,,,,21004,0001,2022_Jun_06_1307,localizer,2021.1.3,59.994948372913164,
block_start,objects,objects073.bmp,,,,,0,31,31,31,,,,,,,,,,,,,,,,,,,,,,,,,,,,,,,,,,,,,,,,,,t,1.7308215000666678,183.0715906000696,None,183.0715906000696,None,2022-06-06-13:10:23.662730,184.83044639998116,185.13879849994555,184.83044639998116,None,None,184.83044639998116,None,185.63767764996737,None,,,,21004,0001,2022_Jun_06_1307,localizer,2021.1.3,59.994948372913164,
block,objects,objects050.bmp,,,,,0,32,32,32,,,,,,,,,,,,,,,,,,,,,,,,,,,,,,,,,,,,,,,,,,None,,185.63767764996737,None,185.63767764996737,None,2022-06-06-13:10:24.480617,185.64810310001485,185.95482029998675,185.64810310001485,None,None,185.64810310001485,None,186.45411054999568,None,,,,21004,0001,2022_Jun_06_1307,localizer,2021.1.3,59.994948372913164,
block,objects,objects050.bmp,,,,,0,33,33,33,,,,,,,,,,,,,,,,,,,,,,,,,,,,,,,,,,,,,,,,,,None,,186.45411054999568,None,186.45411054999568,None,2022-06-06-13:10:25.297053,186.45561830000952,186.77116180001758,186.45561830000952,None,y,186.45561830000952,None,187.25552005018108,None,0.45384240010753274,,,21004,0001,2022_Jun_06_1307,localizer,2021.1.3,59.994948372913164,
block,objects,objects012.bmp,,,,,0,34,34,34,,,,,,,,,,,,,,,,,,,,,,,,,,,,,,,,,,,,,,,,,,None,,187.25552005018108,None,187.25552005018108,None,2022-06-06-13:10:26.099786,187.26564540015534,187.57128190016374,187.26564540015534,187.26564540015534,None,187.26564540015534,187.26564540015534,188.07204175018705,None,,,,21004,0001,2022_Jun_06_1307,localizer,2021.1.3,59.994948372913164,
block,objects,objects067.bmp,,,,,0,35,35,35,,,,,,,,,,,,,,,,,,,,,,,,,,,,,,,,,,,,,,,,,,None,,188.07204175018705,None,188.07204175018705,None,2022-06-06-13:10:26.917059,188.08427560003474,188.38851920003071,188.08427560003474,None,None,188.08427560003474,None,188.88764844997786,None,,,,21004,0001,2022_Jun_06_1307,localizer,2021.1.3,59.994948372913164,
block,objects,objects070.bmp,,,,,0,36,36,36,,,,,,,,,,,,,,,,,,,,,,,,,,,,,,,,,,,,,,,,,,None,,188.88764844997786,None,188.88764844997786,None,2022-06-06-13:10:27.731829,188.89783690008335,189.20422390010208,188.89783690008335,None,None,188.89783690008335,None,189.70428585004993,None,,,,21004,0001,2022_Jun_06_1307,localizer,2021.1.3,59.994948372913164,
block,objects,objects034.bmp,,,,,0,37,37,37,,,,,,,,,,,,,,,,,,,,,,,,,,,,,,,,,,,,,,,,,,None,,189.70428585004993,None,189.70428585004993,None,2022-06-06-13:10:28.547207,189.71461630007252,190.0211883999873,189.71461630007252,None,None,189.71461630007252,None,190.52081595011987,None,,,,21004,0001,2022_Jun_06_1307,localizer,2021.1.3,59.994948372913164,
block,objects,objects016.bmp,,,,,0,38,38,38,,,,,,,,,,,,,,,,,,,,,,,,,,,,,,,,,,,,,,,,,,None,,190.52081595011987,None,190.52081595011987,None,2022-06-06-13:10:29.364757,190.5312073000241,190.83776140003465,190.5312073000241,None,None,190.5312073000241,None,191.33970215008594,None,,,,21004,0001,2022_Jun_06_1307,localizer,2021.1.3,59.994948372913164,
block,objects,objects007.bmp,,,,,0,39,39,39,,,,,,,,,,,,,,,,,,,,,,,,,,,,,,,,,,,,,,,,,,None,,191.33970215008594,None,191.33970215008594,None,2022-06-06-13:10:30.187627,191.35711390012875,191.67114600003697,191.35711390012875,None,None,191.35711390012875,None,192.15460665011778,None,,,,21004,0001,2022_Jun_06_1307,localizer,2021.1.3,59.994948372913164,
block,objects,objects003.bmp,,,,,0,40,40,40,,,,,,,,,,,,,,,,,,,,,,,,,,,,,,,,,,,,,,,,,,None,,192.15460665011778,None,192.15460665011778,None,2022-06-06-13:10:30.997766,192.16566860000603,192.4710778000299,192.16566860000603,None,None,192.16566860000603,None,192.96154535003006,None,,,,21004,0001,2022_Jun_06_1307,localizer,2021.1.3,59.994948372913164,
block,objects,objects004.bmp,,,,,0,41,41,41,,,,,,,,,,,,,,,,,,,,,,,,,,,,,,,,,,,,,,,,,,None,,192.96154535003006,None,192.96154535003006,None,2022-06-06-13:10:31.812404,192.98372879996896,193.28805169998668,192.98372879996896,None,None,192.98372879996896,None,193.77169775008224,None,,,,21004,0001,2022_Jun_06_1307,localizer,2021.1.3,59.994948372913164,
block,objects,objects081.bmp,,,,,0,42,42,42,,,,,,,,,,,,,,,,,,,,,,,,,,,,,,,,,,,,,,,,,,None,,193.77169775008224,None,193.77169775008224,None,2022-06-06-13:10:32.615822,193.7837185000535,194.0880198001396,193.7837185000535,None,None,193.7837185000535,None,194.58774615009315,None,,,,21004,0001,2022_Jun_06_1307,localizer,2021.1.3,59.994948372913164,
block,objects,objects024.bmp,,,,,0,43,43,43,,,,,,,,,,,,,,,,,,,,,,,,,,,,,,,,,,,,,,,,,,None,,194.58774615009315,None,194.58774615009315,None,2022-06-06-13:10:33.430339,194.59748969995417,194.90465499996208,194.59748969995417,None,None,194.59748969995417,None,195.40636375010945,None,,,,21004,0001,2022_Jun_06_1307,localizer,2021.1.3,59.994948372913164,
block,objects,objects008.bmp,,,,,0,44,44,44,,,,,,,,,,,,,,,,,,,,,,,,,,,,,,,,,,,,,,,,,,None,,195.40636375010945,None,195.40636375010945,None,2022-06-06-13:10:34.253317,195.42209590016864,195.7382771000266,195.42209590016864,None,None,195.42209590016864,None,196.22176095005125,None,,,,21004,0001,2022_Jun_06_1307,localizer,2021.1.3,59.994948372913164,
block_end,objects,objects010.bmp,,,,,0,45,45,45,,,,,,,,,,,,,,,,,,,,,,,,,,,,,,,,,,,,,,,,,,None,,196.22176095005125,None,196.22176095005125,None,2022-06-06-13:10:35.065710,196.23385410010815,196.53812590008602,196.23385410010815,None,None,196.23385410010815,None,197.03840115014464,None,,,,21004,0001,2022_Jun_06_1307,localizer,2021.1.3,59.994948372913164,
block_start,faces,faces078.bmp,,,,,0,46,46,46,,,,,,,,,,,,,,,,,,,,,,,,,,,,,,,,,,,,,,,,,,t,1.7636871999129653,197.03875910001807,None,197.03875910001807,None,2022-06-06-13:10:37.665726,198.83562740008347,199.13825760013424,198.83562740008347,None,None,198.83562740008347,None,199.63752025016584,None,,,,21004,0001,2022_Jun_06_1307,localizer,2021.1.3,59.994948372913164,
block,faces,faces007.bmp,,,,,0,47,47,47,,,,,,,,,,,,,,,,,,,,,,,,,,,,,,,,,,,,,,,,,,None,,199.63752025016584,None,199.63752025016584,None,2022-06-06-13:10:38.480726,199.6483014000114,199.9552228001412,199.6483014000114,None,None,199.6483014000114,None,200.45486425003037,None,,,,21004,0001,2022_Jun_06_1307,localizer,2021.1.3,59.994948372913164,
block,faces,faces089.bmp,,,,,0,48,48,48,,,,,,,,,,,,,,,,,,,,,,,,,,,,,,,,,,,,,,,,,,None,,200.45486425003037,None,200.45486425003037,None,2022-06-06-13:10:39.298991,200.46517580002546,200.77141429996118,200.46517580002546,None,None,200.46517580002546,None,201.27120924997143,None,,,,21004,0001,2022_Jun_06_1307,localizer,2021.1.3,59.994948372913164,
block,faces,faces044.bmp,,,,,0,49,49,49,,,,,,,,,,,,,,,,,,,,,,,,,,,,,,,,,,,,,,,,,,None,,201.27120924997143,None,201.27120924997143,None,2022-06-06-13:10:40.114181,201.28308670013212,201.59487539995462,201.28308670013212,None,None,201.28308670013212,None,202.0887555500958,None,,,,21004,0001,2022_Jun_06_1307,localizer,2021.1.3,59.994948372913164,
block,faces,faces085.bmp,,,,,0,50,50,50,,,,,,,,,,,,,,,,,,,,,,,,,,,,,,,,,,,,,,,,,,None,,202.0887555500958,None,202.0887555500958,None,2022-06-06-13:10:40.933664,202.10495029995218,202.40520160016604,202.10495029995218,None,None,202.10495029995218,None,202.90655465004966,None,,,,21004,0001,2022_Jun_06_1307,localizer,2021.1.3,59.994948372913164,
block,faces,faces014.bmp,,,,,0,51,51,51,,,,,,,,,,,,,,,,,,,,,,,,,,,,,,,,,,,,,,,,,,None,,202.90655465004966,None,202.90655465004966,None,2022-06-06-13:10:41.750669,202.9189473001752,203.22174730012193,202.9189473001752,None,None,202.9189473001752,None,203.72160445014015,None,,,,21004,0001,2022_Jun_06_1307,localizer,2021.1.3,59.994948372913164,
block,faces,faces058.bmp,,,,,0,52,52,52,,,,,,,,,,,,,,,,,,,,,,,,,,,,,,,,,,,,,,,,,,None,,203.72160445014015,None,203.72160445014015,None,2022-06-06-13:10:42.565530,203.7356503000483,204.038199899951,203.7356503000483,None,None,203.7356503000483,None,204.53776305005886,None,,,,21004,0001,2022_Jun_06_1307,localizer,2021.1.3,59.994948372913164,
block,faces,faces034.bmp,,,,,0,53,53,53,,,,,,,,,,,,,,,,,,,,,,,,,,,,,,,,,,,,,,,,,,None,,204.53776305005886,None,204.53776305005886,None,2022-06-06-13:10:43.380665,204.5493316000793,204.85492320009507,204.5493316000793,None,None,204.5493316000793,None,205.3550369499717,None,,,,21004,0001,2022_Jun_06_1307,localizer,2021.1.3,59.994948372913164,
block,faces,faces038.bmp,,,,,0,54,54,54,,,,,,,,,,,,,,,,,,,,,,,,,,,,,,,,,,,,,,,,,,None,,205.3550369499717,None,205.3550369499717,None,2022-06-06-13:10:44.198963,205.37419370003045,205.6879181000404,205.37419370003045,None,None,205.37419370003045,None,206.17111925012432,None,,,,21004,0001,2022_Jun_06_1307,localizer,2021.1.3,59.994948372913164,
block,faces,faces055.bmp,,,,,0,55,55,55,,,,,,,,,,,,,,,,,,,,,,,,,,,,,,,,,,,,,,,,,,None,,206.17111925012432,None,206.17111925012432,None,2022-06-06-13:10:45.014057,206.1828485999722,206.48825190006755,206.1828485999722,None,None,206.1828485999722,None,206.988319050055,None,,,,21004,0001,2022_Jun_06_1307,localizer,2021.1.3,59.994948372913164,
block,faces,faces026.bmp,,,,,0,56,56,56,,,,,,,,,,,,,,,,,,,,,,,,,,,,,,,,,,,,,,,,,,None,,206.988319050055,None,206.988319050055,None,2022-06-06-13:10:45.832439,207.02829469996504,207.33834769995883,207.02829469996504,None,None,207.02829469996504,None,207.80469104996882,None,,,,21004,0001,2022_Jun_06_1307,localizer,2021.1.3,59.994948372913164,
block,faces,faces045.bmp,,,,,0,57,57,57,,,,,,,,,,,,,,,,,,,,,,,,,,,,,,,,,,,,,,,,,,None,,207.80469104996882,None,207.80469104996882,None,2022-06-06-13:10:46.647862,207.8161333000753,208.12220440013334,207.8161333000753,None,None,207.8161333000753,None,208.6106254500337,None,,,,21004,0001,2022_Jun_06_1307,localizer,2021.1.3,59.994948372913164,
block,faces,faces031.bmp,,,,,0,58,58,58,,,,,,,,,,,,,,,,,,,,,,,,,,,,,,,,,,,,,,,,,,None,,208.6106254500337,None,208.6106254500337,None,2022-06-06-13:10:47.462424,208.6338144999463,208.93848960008472,208.6338144999463,None,None,208.6338144999463,None,209.4214297500439,None,,,,21004,0001,2022_Jun_06_1307,localizer,2021.1.3,59.994948372913164,
block,faces,faces062.bmp,,,,,0,59,59,59,,,,,,,,,,,,,,,,,,,,,,,,,,,,,,,,,,,,,,,,,,None,,209.4214297500439,None,209.4214297500439,None,2022-06-06-13:10:48.265345,209.43274640012532,209.7381959001068,209.43274640012532,None,None,209.43274640012532,None,210.23981905006804,None,,,,21004,0001,2022_Jun_06_1307,localizer,2021.1.3,59.994948372913164,
block_end,faces,faces080.bmp,,,,,0,60,60,60,,,,,,,,,,,,,,,,,,,,,,,,,,,,,,,,,,,,,,,,,,None,,210.23981905006804,None,210.23981905006804,None,2022-06-06-13:10:49.086704,210.2603263000492,210.5714130999986,210.2603263000492,None,None,210.2603263000492,None,211.0543333501555,None,,,,21004,0001,2022_Jun_06_1307,localizer,2021.1.3,59.994948372913164,
block_start,scrambled,scrambled031.bmp,,,,,0,61,61,61,,,,,,,,,,,,,,,,,,,,,,,,,,,,,,,,,,,,,,,,,,t,1.7475213999859989,211.05488239997067,None,211.05488239997067,None,2022-06-06-13:10:51.664041,212.82314280001447,213.12264790013433,212.82314280001447,None,None,212.82314280001447,None,213.6277006501332,None,,,,21004,0001,2022_Jun_06_1307,localizer,2021.1.3,59.994948372913164,
block,scrambled,scrambled075.bmp,,,,,0,62,62,62,,,,,,,,,,,,,,,,,,,,,,,,,,,,,,,,,,,,,,,,,,None,,213.6277006501332,None,213.6277006501332,None,2022-06-06-13:10:52.475636,213.6466451000888,213.95507599995472,213.6466451000888,None,None,213.6466451000888,None,214.43791275005788,None,,,,21004,0001,2022_Jun_06_1307,localizer,2021.1.3,59.994948372913164,
block,scrambled,scrambled003.bmp,,,,,0,63,63,63,,,,,,,,,,,,,,,,,,,,,,,,,,,,,,,,,,,,,,,,,,None,,214.43791275005788,None,214.43791275005788,None,2022-06-06-13:10:53.282034,214.4504658000078,214.7547567000147,214.4504658000078,None,None,214.4504658000078,None,215.2538656501565,None,,,,21004,0001,2022_Jun_06_1307,localizer,2021.1.3,59.994948372913164,
block,scrambled,scrambled025.bmp,,,,,0,64,64,64,,,,,,,,,,,,,,,,,,,,,,,,,,,,,,,,,,,,,,,,,,None,,215.2538656501565,None,215.2538656501565,None,2022-06-06-13:10:54.095816,215.2630569001194,215.57130059995688,215.2630569001194,None,None,215.2630569001194,None,216.06089964997955,None,,,,21004,0001,2022_Jun_06_1307,localizer,2021.1.3,59.994948372913164,
block,scrambled,scrambled063.bmp,,,,,0,65,65,65,,,,,,,,,,,,,,,,,,,,,,,,,,,,,,,,,,,,,,,,,,None,,216.06089964997955,None,216.06089964997955,None,2022-06-06-13:10:54.907889,216.0732700000517,216.38813700014725,216.0732700000517,None,None,216.0732700000517,None,216.87225325009786,None,,,,21004,0001,2022_Jun_06_1307,localizer,2021.1.3,59.994948372913164,
block,scrambled,scrambled066.bmp,,,,,0,66,66,66,,,,,,,,,,,,,,,,,,,,,,,,,,,,,,,,,,,,,,,,,,None,,216.87225325009786,None,216.87225325009786,None,2022-06-06-13:10:55.717347,216.87489520013332,217.18840600014664,216.87489520013332,None,None,216.87489520013332,None,217.68740905006416,None,,,,21004,0001,2022_Jun_06_1307,localizer,2021.1.3,59.994948372913164,
block,scrambled,scrambled079.bmp,,,,,0,67,67,67,,,,,,,,,,,,,,,,,,,,,,,,,,,,,,,,,,,,,,,,,,None,,217.68740905006416,None,217.68740905006416,None,2022-06-06-13:10:56.531375,217.68879529996775,218.0047458000481,217.68879529996775,None,None,217.68879529996775,None,218.48889325000346,None,,,,21004,0001,2022_Jun_06_1307,localizer,2021.1.3,59.994948372913164,
block,scrambled,scrambled018.bmp,,,,,0,68,68,68,,,,,,,,,,,,,,,,,,,,,,,,,,,,,,,,,,,,,,,,,,None,,218.48889325000346,None,218.48889325000346,None,2022-06-06-13:10:57.335993,218.50445640017278,218.8052799999714,218.50445640017278,218.50445640017278,None,218.50445640017278,218.50445640017278,219.30404655006714,None,,,,21004,0001,2022_Jun_06_1307,localizer,2021.1.3,59.994948372913164,
block,scrambled,scrambled004.bmp,,,,,0,69,69,69,,,,,,,,,,,,,,,,,,,,,,,,,,,,,,,,,,,,,,,,,,None,,219.30404655006714,None,219.30404655006714,None,2022-06-06-13:10:58.146918,219.31355600012466,219.62097150017507,219.31355600012466,None,None,219.31355600012466,None,220.12142165005207,None,,,,21004,0001,2022_Jun_06_1307,localizer,2021.1.3,59.994948372913164,
block,scrambled,scrambled036.bmp,,,,,0,70,70,70,,,,,,,,,,,,,,,,,,,,,,,,,,,,,,,,,,,,,,,,,,None,,220.12142165005207,None,220.12142165005207,None,2022-06-06-13:10:58.965546,220.1225595001597,220.43858480011113,220.1225595001597,None,None,220.1225595001597,None,220.93729214998893,None,,,,21004,0001,2022_Jun_06_1307,localizer,2021.1.3,59.994948372913164,
block,scrambled,scrambled058.bmp,,,,,0,71,71,71,,,,,,,,,,,,,,,,,,,,,,,,,,,,,,,,,,,,,,,,,,None,,220.93729214998893,None,220.93729214998893,None,2022-06-06-13:10:59.781528,220.94720480008982,221.25806850008667,220.94720480008982,None,None,220.94720480008982,None,221.75571415014565,None,,,,21004,0001,2022_Jun_06_1307,localizer,2021.1.3,59.994948372913164,
block,scrambled,scrambled045.bmp,,,,,0,72,72,72,,,,,,,,,,,,,,,,,,,,,,,,,,,,,,,,,,,,,,,,,,None,,221.75571415014565,None,221.75571415014565,None,2022-06-06-13:11:00.600816,221.7707716000732,222.07137600006536,221.7707716000732,None,None,221.7707716000732,None,222.57172915013507,None,,,,21004,0001,2022_Jun_06_1307,localizer,2021.1.3,59.994948372913164,
block,scrambled,scrambled028.bmp,,,,,0,73,73,73,,,,,,,,,,,,,,,,,,,,,,,,,,,,,,,,,,,,,,,,,,None,,222.57172915013507,None,222.57172915013507,None,2022-06-06-13:11:01.415849,222.5838496000506,222.89464730001055,222.5838496000506,None,None,222.5838496000506,None,223.38835715013556,None,,,,21004,0001,2022_Jun_06_1307,localizer,2021.1.3,59.994948372913164,
block,scrambled,scrambled064.bmp,,,,,0,74,74,74,,,,,,,,,,,,,,,,,,,,,,,,,,,,,,,,,,,,,,,,,,None,,223.38835715013556,None,223.38835715013556,None,2022-06-06-13:11:02.233283,223.39914170000702,223.7045700000599,223.39914170000702,None,None,223.39914170000702,None,224.2046199501492,None,,,,21004,0001,2022_Jun_06_1307,localizer,2021.1.3,59.994948372913164,
block_end,scrambled,scrambled055.bmp,,,,,0,75,75,75,,,,,,,,,,,,,,,,,,,,,,,,,,,,,,,,,,,,,,,,,,None,,224.2046199501492,None,224.2046199501492,None,2022-06-06-13:11:03.048758,224.2075909001287,224.52138680010103,224.2075909001287,None,None,224.2075909001287,None,225.02175715006888,None,,,,21004,0001,2022_Jun_06_1307,localizer,2021.1.3,59.994948372913164,
null_block,null_block,null_block.bmp,,,,,0,76,76,76,,,,,,,,,,,,,,,,,,,,,,,,,,,,,,,,,,,,,,,,,,t,1.7803817000240088,225.02205889998004,None,225.02205889998004,None,2022-06-06-13:11:05.663915,226.82097245007753,None,226.82097245007753,None,None,226.82097245007753,None,226.82389899995178,None,,,,21004,0001,2022_Jun_06_1307,localizer,2021.1.3,59.994948372913164,
block_start,objects,objects078.bmp,,,,,0,77,77,77,,,,,,,,,,,,,,,,,,,,,,,,,,,,,,,,,,,,,,,,,,t,1.9625669999513775,238.83892849995755,None,238.83892849995755,None,2022-06-06-13:11:19.671358,240.8339197000023,241.13819630001672,240.8339197000023,None,None,240.8339197000023,None,241.63855955004692,None,,,,21004,0001,2022_Jun_06_1307,localizer,2021.1.3,59.994948372913164,
block,objects,objects085.bmp,,,,,0,78,78,78,,,,,,,,,,,,,,,,,,,,,,,,,,,,,,,,,,,,,,,,,,None,,241.63855955004692,None,241.63855955004692,None,2022-06-06-13:11:20.482488,241.65071470011026,241.95489659998566,241.65071470011026,None,None,241.65071470011026,None,242.45437505003065,None,,,,21004,0001,2022_Jun_06_1307,localizer,2021.1.3,59.994948372913164,
block,objects,objects015.bmp,,,,,0,79,79,79,,,,,,,,,,,,,,,,,,,,,,,,,,,,,,,,,,,,,,,,,,None,,242.45437505003065,None,242.45437505003065,None,2022-06-06-13:11:21.297319,242.46410190011375,242.7717091999948,242.46410190011375,None,None,242.46410190011375,None,243.27100165002048,None,,,,21004,0001,2022_Jun_06_1307,localizer,2021.1.3,59.994948372913164,
block,objects,objects017.bmp,,,,,0,80,80,80,,,,,,,,,,,,,,,,,,,,,,,,,,,,,,,,,,,,,,,,,,None,,243.27100165002048,None,243.27100165002048,None,2022-06-06-13:11:22.113948,243.28020730009302,243.58819560008124,243.28020730009302,None,None,243.28020730009302,None,244.08780984999612,None,,,,21004,0001,2022_Jun_06_1307,localizer,2021.1.3,59.994948372913164,
block,objects,objects065.bmp,,,,,0,81,81,81,,,,,,,,,,,,,,,,,,,,,,,,,,,,,,,,,,,,,,,,,,None,,244.08780984999612,None,244.08780984999612,None,2022-06-06-13:11:22.930753,244.0982004001271,244.40482000005431,244.0982004001271,None,None,244.0982004001271,None,244.9043589499779,None,,,,21004,0001,2022_Jun_06_1307,localizer,2021.1.3,59.994948372913164,
block,objects,objects041.bmp,,,,,0,82,82,82,,,,,,,,,,,,,,,,,,,,,,,,,,,,,,,,,,,,,,,,,,None,,244.9043589499779,None,244.9043589499779,None,2022-06-06-13:11:23.747551,244.91108790016733,245.20923899998888,244.91108790016733,None,None,244.91108790016733,None,245.72091264999472,None,,,,21004,0001,2022_Jun_06_1307,localizer,2021.1.3,59.994948372913164,
block,objects,objects005.bmp,,,,,0,83,83,83,,,,,,,,,,,,,,,,,,,,,,,,,,,,,,,,,,,,,,,,,,None,,245.72091264999472,None,245.72091264999472,None,2022-06-06-13:11:24.563858,245.73051850008778,246.03833710006438,245.73051850008778,None,None,245.73051850008778,None,246.53909345017746,None,,,,21004,0001,2022_Jun_06_1307,localizer,2021.1.3,59.994948372913164,
block,objects,objects082.bmp,,,,,0,84,84,84,,,,,,,,,,,,,,,,,,,,,,,,,,,,,,,,,,,,,,,,,,None,,246.53909345017746,None,246.53909345017746,None,2022-06-06-13:11:25.384192,246.55332780000754,246.855011299951,246.55332780000754,None,None,246.55332780000754,None,247.35415455000475,None,,,,21004,0001,2022_Jun_06_1307,localizer,2021.1.3,59.994948372913164,
block,objects,objects060.bmp,,,,,0,85,85,85,,,,,,,,,,,,,,,,,,,,,,,,,,,,,,,,,,,,,,,,,,None,,247.35415455000475,None,247.35415455000475,None,2022-06-06-13:11:26.196896,247.36367830005474,247.67170120007358,247.36367830005474,None,None,247.36367830005474,None,248.1710734500084,None,,,,21004,0001,2022_Jun_06_1307,localizer,2021.1.3,59.994948372913164,
block,objects,objects062.bmp,,,,,0,86,86,86,,,,,,,,,,,,,,,,,,,,,,,,,,,,,,,,,,,,,,,,,,None,,248.1710734500084,None,248.1710734500084,None,2022-06-06-13:11:27.013692,248.17964470013976,248.48850520001724,248.17964470013976,None,None,248.17964470013976,None,248.9885084501002,None,,,,21004,0001,2022_Jun_06_1307,localizer,2021.1.3,59.994948372913164,
block,objects,objects086.bmp,,,,,0,87,87,87,,,,,,,,,,,,,,,,,,,,,,,,,,,,,,,,,,,,,,,,,,None,,248.9885084501002,None,248.9885084501002,None,2022-06-06-13:11:27.832622,249.00061030010693,249.3050981000997,249.00061030010693,None,None,249.00061030010693,None,249.8052921500057,None,,,,21004,0001,2022_Jun_06_1307,localizer,2021.1.3,59.994948372913164,
block,objects,objects084.bmp,,,,,0,88,88,88,,,,,,,,,,,,,,,,,,,,,,,,,,,,,,,,,,,,,,,,,,None,,249.8052921500057,None,249.8052921500057,None,2022-06-06-13:11:28.649221,249.81749349995516,250.1215860999655,249.81749349995516,None,None,249.81749349995516,None,250.62490105000325,None,,,,21004,0001,2022_Jun_06_1307,localizer,2021.1.3,59.994948372913164,
block,objects,objects013.bmp,,,,,0,89,89,89,,,,,,,,,,,,,,,,,,,,,,,,,,,,,,,,,,,,,,,,,,None,,250.62490105000325,None,250.62490105000325,None,2022-06-06-13:11:29.477244,250.64904880011454,250.9555035000667,250.64904880011454,None,None,250.64904880011454,None,251.4378394500818,None,,,,21004,0001,2022_Jun_06_1307,localizer,2021.1.3,59.994948372913164,
block,objects,objects033.bmp,,,,,0,90,90,90,,,,,,,,,,,,,,,,,,,,,,,,,,,,,,,,,,,,,,,,,,None,,251.4378394500818,None,251.4378394500818,None,2022-06-06-13:11:30.280782,251.44858730002306,251.7548088999465,251.44858730002306,None,None,251.44858730002306,None,252.25451575010084,None,,,,21004,0001,2022_Jun_06_1307,localizer,2021.1.3,59.994948372913164,
block_end,objects,objects002.bmp,,,,,0,91,91,91,,,,,,,,,,,,,,,,,,,,,,,,,,,,,,,,,,,,,,,,,,None,,252.25451575010084,None,252.25451575010084,None,2022-06-06-13:11:31.097823,252.2651778999716,252.57157439994626,252.2651778999716,None,None,252.2651778999716,None,253.07118894997984,None,,,,21004,0001,2022_Jun_06_1307,localizer,2021.1.3,59.994948372913164,
block_start,faces,faces088.bmp,,,,,0,92,92,92,,,,,,,,,,,,,,,,,,,,,,,,,,,,,,,,,,,,,,,,,,t,1.7297429000027478,253.07181360013783,None,253.07181360013783,None,2022-06-06-13:11:33.665859,254.83742900006473,255.13853029999882,254.83742900006473,None,None,254.83742900006473,None,255.63771365000866,None,,,,21004,0001,2022_Jun_06_1307,localizer,2021.1.3,59.994948372913164,
block,faces,faces016.bmp,,,,,0,93,93,93,,,,,,,,,,,,,,,,,,,,,,,,,,,,,,,,,,,,,,,,,,None,,255.63771365000866,None,255.63771365000866,None,2022-06-06-13:11:34.480661,255.64876470016316,255.95482570002787,255.64876470016316,None,None,255.64876470016316,None,256.45463535003364,None,,,,21004,0001,2022_Jun_06_1307,localizer,2021.1.3,59.994948372913164,
block,faces,faces077.bmp,,,,,0,94,94,94,,,,,,,,,,,,,,,,,,,,,,,,,,,,,,,,,,,,,,,,,,None,,256.45463535003364,None,256.45463535003364,None,2022-06-06-13:11:35.297575,256.4670174999628,256.77155590010807,256.4670174999628,None,None,256.4670174999628,None,257.2712168500293,None,,,,21004,0001,2022_Jun_06_1307,localizer,2021.1.3,59.994948372913164,
block,faces,faces050.bmp,,,,,0,95,95,95,,,,,,,,,,,,,,,,,,,,,,,,,,,,,,,,,,,,,,,,,,None,,257.2712168500293,None,257.2712168500293,None,2022-06-06-13:11:36.114131,257.2815447000321,257.58846650016494,257.2815447000321,None,None,257.2815447000321,None,258.0879361501429,None,,,,21004,0001,2022_Jun_06_1307,localizer,2021.1.3,59.994948372913164,
block,faces,faces040.bmp,,,,,0,96,96,96,,,,,,,,,,,,,,,,,,,,,,,,,,,,,,,,,,,,,,,,,,None,,258.0879361501429,None,258.0879361501429,None,2022-06-06-13:11:36.930878,258.0986047000624,258.40505410009064,258.0986047000624,None,None,258.0986047000624,None,258.90438165003434,None,,,,21004,0001,2022_Jun_06_1307,localizer,2021.1.3,59.994948372913164,
block,faces,faces070.bmp,,,,,0,97,97,97,,,,,,,,,,,,,,,,,,,,,,,,,,,,,,,,,,,,,,,,,,None,,258.90438165003434,None,258.90438165003434,None,2022-06-06-13:11:37.747325,258.9166353000328,259.2217474000063,258.9166353000328,None,None,258.9166353000328,None,259.7214736500755,None,,,,21004,0001,2022_Jun_06_1307,localizer,2021.1.3,59.994948372913164,
block,faces,faces022.bmp,,,,,0,98,98,98,,,,,,,,,,,,,,,,,,,,,,,,,,,,,,,,,,,,,,,,,,None,,259.7214736500755,None,259.7214736500755,None,2022-06-06-13:11:38.565407,259.7339312999975,260.03823660011403,259.7339312999975,None,None,259.7339312999975,None,260.5383018499706,None,,,,21004,0001,2022_Jun_06_1307,localizer,2021.1.3,59.994948372913164,
block,faces,faces010.bmp,,,,,0,99,99,99,,,,,,,,,,,,,,,,,,,,,,,,,,,,,,,,,,,,,,,,,,None,,260.5383018499706,None,260.5383018499706,None,2022-06-06-13:11:39.382406,260.55137100000866,260.8553961000871,260.55137100000866,None,None,260.55137100000866,None,261.35546785010956,None,,,,21004,0001,2022_Jun_06_1307,localizer,2021.1.3,59.994948372913164,
block,faces,faces031.bmp,,,,,0,100,100,100,,,,,,,,,,,,,,,,,,,,,,,,,,,,,,,,,,,,,,,,,,None,,261.35546785010956,None,261.35546785010956,None,2022-06-06-13:11:40.199592,261.35810980014503,261.65564290015027,261.35810980014503,None,None,261.35810980014503,None,262.1721337500494,None,,,,21004,0001,2022_Jun_06_1307,localizer,2021.1.3,59.994948372913164,
block,faces,faces030.bmp,,,,,0,101,101,101,,,,,,,,,,,,,,,,,,,,,,,,,,,,,,,,,,,,,,,,,,None,,262.1721337500494,None,262.1721337500494,None,2022-06-06-13:11:41.016072,262.1842784001492,262.4880387999583,262.1842784001492,None,None,262.1842784001492,None,262.9885104501154,None,,,,21004,0001,2022_Jun_06_1307,localizer,2021.1.3,59.994948372913164,
block,faces,faces086.bmp,,,,,0,102,102,102,,,,,,,,,,,,,,,,,,,,,,,,,,,,,,,,,,,,,,,,,,None,,262.9885104501154,None,262.9885104501154,None,2022-06-06-13:11:41.832633,263.00256279995665,263.3073938000016,263.00256279995665,None,None,263.00256279995665,None,263.8052481501363,None,,,,21004,0001,2022_Jun_06_1307,localizer,2021.1.3,59.994948372913164,
block,faces,faces002.bmp,,,,,0,103,103,103,,,,,,,,,,,,,,,,,,,,,,,,,,,,,,,,,,,,,,,,,,None,,263.8052481501363,None,263.8052481501363,None,2022-06-06-13:11:42.649253,263.8183004001621,264.1217903001234,263.8183004001621,None,None,263.8183004001621,None,264.62178465002216,None,,,,21004,0001,2022_Jun_06_1307,localizer,2021.1.3,59.994948372913164,
block,faces,faces089.bmp,,,,,0,104,104,104,,,,,,,,,,,,,,,,,,,,,,,,,,,,,,,,,,,,,,,,,,None,,264.62178465002216,None,264.62178465002216,None,2022-06-06-13:11:43.465698,264.6232068000827,264.93845900008455,264.6232068000827,None,None,264.6232068000827,None,265.4380859499797,None,,,,21004,0001,2022_Jun_06_1307,localizer,2021.1.3,59.994948372913164,
block,faces,faces026.bmp,,,,,0,105,105,105,,,,,,,,,,,,,,,,,,,,,,,,,,,,,,,,,,,,,,,,,,None,,265.4380859499797,None,265.4380859499797,None,2022-06-06-13:11:44.281066,265.43944730004296,265.7552451000083,265.43944730004296,None,None,265.43944730004296,None,266.2540920500178,None,,,,21004,0001,2022_Jun_06_1307,localizer,2021.1.3,59.994948372913164,
block_end,faces,faces065.bmp,,,,,0,106,106,106,,,,,,,,,,,,,,,,,,,,,,,,,,,,,,,,,,,,,,,,,,None,,266.2540920500178,None,266.2540920500178,None,2022-06-06-13:11:45.097040,266.26992670004256,266.5717203000095,266.26992670004256,None,None,266.26992670004256,None,267.0719080499839,None,,,,21004,0001,2022_Jun_06_1307,localizer,2021.1.3,59.994948372913164,
block_start,scenes,scenes004.bmp,,,,,0,107,107,107,,,,,,,,,,,,,,,,,,,,,,,,,,,,,,,,,,,,,,,,,,t,1.7291340997908264,267.072408700129,None,267.072408700129,None,2022-06-06-13:11:47.667431,268.8424132000655,269.15493840002455,268.8424132000655,None,None,268.8424132000655,None,269.63807595008984,None,,,,21004,0001,2022_Jun_06_1307,localizer,2021.1.3,59.994948372913164,
block,scenes,scenes065.bmp,,,,,0,108,108,108,,,,,,,,,,,,,,,,,,,,,,,,,,,,,,,,,,,,,,,,,,None,,269.63807595008984,None,269.63807595008984,None,2022-06-06-13:11:48.481128,269.6497907000594,269.9551975999493,269.6497907000594,None,None,269.6497907000594,None,270.4547327500768,None,,,,21004,0001,2022_Jun_06_1307,localizer,2021.1.3,59.994948372913164,
block,scenes,scenes065.bmp,,,,,0,109,109,109,,,,,,,,,,,,,,,,,,,,,,,,,,,,,,,,,,,,,,,,,,None,,270.4547327500768,None,270.4547327500768,None,2022-06-06-13:11:49.297885,270.4560142001137,270.771257000044,270.4560142001137,None,y,270.4560142001137,None,271.27100695017725,None,0.5731516000814736,,,21004,0001,2022_Jun_06_1307,localizer,2021.1.3,59.994948372913164,
block,scenes,scenes078.bmp,,,,,0,110,110,110,,,,,,,,,,,,,,,,,,,,,,,,,,,,,,,,,,,,,,,,,,None,,271.27100695017725,None,271.27100695017725,None,2022-06-06-13:11:50.112889,271.281731700059,271.58872340014204,271.281731700059,None,None,271.281731700059,None,272.0877620500978,None,,,,21004,0001,2022_Jun_06_1307,localizer,2021.1.3,59.994948372913164,
block,scenes,scenes003.bmp,,,,,0,111,111,111,,,,,,,,,,,,,,,,,,,,,,,,,,,,,,,,,,,,,,,,,,None,,272.0877620500978,None,272.0877620500978,None,2022-06-06-13:11:50.930747,272.099078200059,272.4049352000002,272.099078200059,None,None,272.099078200059,None,272.9052950500045,None,,,,21004,0001,2022_Jun_06_1307,localizer,2021.1.3,59.994948372913164,
block,scenes,scenes092.bmp,,,,,0,112,112,112,,,,,,,,,,,,,,,,,,,,,,,,,,,,,,,,,,,,,,,,,,None,,272.9052950500045,None,272.9052950500045,None,2022-06-06-13:11:51.749225,272.9174738000147,273.22182770003565,272.9174738000147,None,None,272.9174738000147,None,273.7209220500663,None,,,,21004,0001,2022_Jun_06_1307,localizer,2021.1.3,59.994948372913164,
block,scenes,scenes051.bmp,,,,,0,113,113,113,,,,,,,,,,,,,,,,,,,,,,,,,,,,,,,,,,,,,,,,,,None,,273.7209220500663,None,273.7209220500663,None,2022-06-06-13:11:52.563869,273.73259170004167,274.0381078000646,273.73259170004167,None,None,273.73259170004167,None,274.5383904501796,None,,,,21004,0001,2022_Jun_06_1307,localizer,2021.1.3,59.994948372913164,
block,scenes,scenes024.bmp,,,,,0,114,114,114,,,,,,,,,,,,,,,,,,,,,,,,,,,,,,,,,,,,,,,,,,None,,274.5383904501796,None,274.5383904501796,None,2022-06-06-13:11:53.383119,274.5507200001739,274.85542819998227,274.5507200001739,None,None,274.5507200001739,None,275.3544364501722,None,,,,21004,0001,2022_Jun_06_1307,localizer,2021.1.3,59.994948372913164,
block,scenes,scenes090.bmp,,,,,0,115,115,115,,,,,,,,,,,,,,,,,,,,,,,,,,,,,,,,,,,,,,,,,,None,,275.3544364501722,None,275.3544364501722,None,2022-06-06-13:11:54.197379,275.36472150008194,275.6717219001148,275.36472150008194,None,None,275.36472150008194,None,276.17084355000407,None,,,,21004,0001,2022_Jun_06_1307,localizer,2021.1.3,59.994948372913164,
block,scenes,scenes088.bmp,,,,,0,116,116,116,,,,,,,,,,,,,,,,,,,,,,,,,,,,,,,,,,,,,,,,,,None,,276.17084355000407,None,276.17084355000407,None,2022-06-06-13:11:55.014787,276.18081000004895,276.48872569995,276.18081000004895,None,None,276.18081000004895,None,276.9886720501818,None,,,,21004,0001,2022_Jun_06_1307,localizer,2021.1.3,59.994948372913164,
block,scenes,scenes023.bmp,,,,,0,117,117,117,,,,,,,,,,,,,,,,,,,,,,,,,,,,,,,,,,,,,,,,,,None,,276.9886720501818,None,276.9886720501818,None,2022-06-06-13:11:55.832601,277.00091790012084,277.3047866001725,277.00091790012084,None,None,277.00091790012084,None,277.8045798500534,None,,,,21004,0001,2022_Jun_06_1307,localizer,2021.1.3,59.994948372913164,
block,scenes,scenes081.bmp,,,,,0,118,118,118,,,,,,,,,,,,,,,,,,,,,,,,,,,,,,,,,,,,,,,,,,None,,277.8045798500534,None,277.8045798500534,None,2022-06-06-13:11:56.647525,277.8059762001503,278.12172539997846,277.8059762001503,None,None,277.8059762001503,None,278.62151894997805,None,,,,21004,0001,2022_Jun_06_1307,localizer,2021.1.3,59.994948372913164,
block,scenes,scenes089.bmp,,,,,0,119,119,119,,,,,,,,,,,,,,,,,,,,,,,,,,,,,,,,,,,,,,,,,,None,,278.62151894997805,None,278.62151894997805,None,2022-06-06-13:11:57.464459,278.6319734000135,278.93889420013875,278.6319734000135,None,None,278.6319734000135,None,279.4377608501818,None,,,,21004,0001,2022_Jun_06_1307,localizer,2021.1.3,59.994948372913164,
block,scenes,scenes074.bmp,,,,,0,120,120,120,,,,,,,,,,,,,,,,,,,,,,,,,,,,,,,,,,,,,,,,,,None,,279.4377608501818,None,279.4377608501818,None,2022-06-06-13:11:58.280706,279.4437977001071,279.75474540004507,279.4437977001071,None,None,279.4437977001071,None,280.2545307499822,None,,,,21004,0001,2022_Jun_06_1307,localizer,2021.1.3,59.994948372913164,
block_end,scenes,scenes015.bmp,,,,,0,121,121,121,,,,,,,,,,,,,,,,,,,,,,,,,,,,,,,,,,,,,,,,,,None,,280.2545307499822,None,280.2545307499822,None,2022-06-06-13:11:59.097731,280.2655637001153,280.57169110001996,280.2655637001153,None,None,280.2655637001153,None,281.07150045013987,None,,,,21004,0001,2022_Jun_06_1307,localizer,2021.1.3,59.994948372913164,
block_start,scrambled,scrambled070.bmp,,,,,0,122,122,122,,,,,,,,,,,,,,,,,,,,,,,,,,,,,,,,,,,,,,,,,,t,1.7295528000686318,281.0718259999994,None,281.0718259999994,None,2022-06-06-13:12:01.662929,282.82299180002883,283.1384412001353,282.82299180002883,None,None,282.82299180002883,None,283.6377723501064,None,,,,21004,0001,2022_Jun_06_1307,localizer,2021.1.3,59.994948372913164,
block,scrambled,scrambled008.bmp,,,,,0,123,123,123,,,,,,,,,,,,,,,,,,,,,,,,,,,,,,,,,,,,,,,,,,None,,283.6377723501064,None,283.6377723501064,None,2022-06-06-13:12:02.479495,283.6463115999941,283.95503890002146,283.6463115999941,None,None,283.6463115999941,None,284.4545312500559,None,,,,21004,0001,2022_Jun_06_1307,localizer,2021.1.3,59.994948372913164,
block,scrambled,scrambled007.bmp,,,,,0,124,124,124,,,,,,,,,,,,,,,,,,,,,,,,,,,,,,,,,,,,,,,,,,None,,284.4545312500559,None,284.4545312500559,None,2022-06-06-13:12:03.297697,284.46536729997024,284.77195299998857,284.46536729997024,None,None,284.46536729997024,None,285.2712055500597,None,,,,21004,0001,2022_Jun_06_1307,localizer,2021.1.3,59.994948372913164,
block,scrambled,scrambled030.bmp,,,,,0,125,125,125,,,,,,,,,,,,,,,,,,,,,,,,,,,,,,,,,,,,,,,,,,None,,285.2712055500597,None,285.2712055500597,None,2022-06-06-13:12:04.114153,285.2802140000276,285.58859629998915,285.2802140000276,None,None,285.2802140000276,None,286.0880965499673,None,,,,21004,0001,2022_Jun_06_1307,localizer,2021.1.3,59.994948372913164,
block,scrambled,scrambled015.bmp,,,,,0,126,126,126,,,,,,,,,,,,,,,,,,,,,,,,,,,,,,,,,,,,,,,,,,None,,286.0880965499673,None,286.0880965499673,None,2022-06-06-13:12:04.931037,286.09822820010595,286.4065266000107,286.09822820010595,None,None,286.09822820010595,None,286.9046831501182,None,,,,21004,0001,2022_Jun_06_1307,localizer,2021.1.3,59.994948372913164,
block,scrambled,scrambled013.bmp,,,,,0,127,127,127,,,,,,,,,,,,,,,,,,,,,,,,,,,,,,,,,,,,,,,,,,None,,286.9046831501182,None,286.9046831501182,None,2022-06-06-13:12:05.747774,286.9150038000662,287.2226011999883,286.9150038000662,None,None,286.9150038000662,None,287.7222188501619,None,,,,21004,0001,2022_Jun_06_1307,localizer,2021.1.3,59.994948372913164,
block,scrambled,scrambled033.bmp,,,,,0,128,128,128,,,,,,,,,,,,,,,,,,,,,,,,,,,,,,,,,,,,,,,,,,None,,287.7222188501619,None,287.7222188501619,None,2022-06-06-13:12:06.566326,287.72497560014017,288.0391567000188,287.72497560014017,None,None,287.72497560014017,None,288.5393976501655,None,,,,21004,0001,2022_Jun_06_1307,localizer,2021.1.3,59.994948372913164,
block,scrambled,scrambled037.bmp,,,,,0,129,129,129,,,,,,,,,,,,,,,,,,,,,,,,,,,,,,,,,,,,,,,,,,None,,288.5393976501655,None,288.5393976501655,None,2022-06-06-13:12:07.385041,288.55109810014255,288.8558416001033,288.55109810014255,None,None,288.55109810014255,None,289.3546578499954,None,,,,21004,0001,2022_Jun_06_1307,localizer,2021.1.3,59.994948372913164,
block,scrambled,scrambled003.bmp,,,,,0,130,130,130,,,,,,,,,,,,,,,,,,,,,,,,,,,,,,,,,,,,,,,,,,None,,289.3546578499954,None,289.3546578499954,None,2022-06-06-13:12:08.197602,289.3563366001472,289.67189710005186,289.3563366001472,None,None,289.3563366001472,None,290.1716045499779,None,,,,21004,0001,2022_Jun_06_1307,localizer,2021.1.3,59.994948372913164,
block,scrambled,scrambled076.bmp,,,,,0,131,131,131,,,,,,,,,,,,,,,,,,,,,,,,,,,,,,,,,,,,,,,,,,None,,290.1716045499779,None,290.1716045499779,None,2022-06-06-13:12:09.014571,290.18188649998046,290.48858590004966,290.18188649998046,None,None,290.18188649998046,None,290.98962495010346,None,,,,21004,0001,2022_Jun_06_1307,localizer,2021.1.3,59.994948372913164,
block,scrambled,scrambled002.bmp,,,,,0,132,132,132,,,,,,,,,,,,,,,,,,,,,,,,,,,,,,,,,,,,,,,,,,None,,290.98962495010346,None,290.98962495010346,None,2022-06-06-13:12:09.835104,291.00723750004545,291.306331400061,291.00723750004545,None,None,291.00723750004545,None,291.805396849988,None,,,,21004,0001,2022_Jun_06_1307,localizer,2021.1.3,59.994948372913164,
block,scrambled,scrambled038.bmp,,,,,0,133,133,133,,,,,,,,,,,,,,,,,,,,,,,,,,,,,,,,,,,,,,,,,,None,,291.805396849988,None,291.805396849988,None,2022-06-06-13:12:10.649341,291.8192944000475,292.12190519995056,291.8192944000475,None,None,291.8192944000475,None,292.6214896501042,None,,,,21004,0001,2022_Jun_06_1307,localizer,2021.1.3,59.994948372913164,
block,scrambled,scrambled053.bmp,,,,,0,134,134,134,,,,,,,,,,,,,,,,,,,,,,,,,,,,,,,,,,,,,,,,,,None,,292.6214896501042,None,292.6214896501042,None,2022-06-06-13:12:11.464431,292.6319171001669,292.9385753001552,292.6319171001669,None,None,292.6319171001669,None,293.4381082500331,None,,,,21004,0001,2022_Jun_06_1307,localizer,2021.1.3,59.994948372913164,
block,scrambled,scrambled086.bmp,,,,,0,135,135,135,,,,,,,,,,,,,,,,,,,,,,,,,,,,,,,,,,,,,,,,,,None,,293.4381082500331,None,293.4381082500331,None,2022-06-06-13:12:12.281053,293.4483759000432,293.7551091001369,293.4483759000432,None,None,293.4483759000432,None,294.25461505004205,None,,,,21004,0001,2022_Jun_06_1307,localizer,2021.1.3,59.994948372913164,
block_end,scrambled,scrambled082.bmp,,,,,0,136,136,136,,,,,,,,,,,,,,,,,,,,,,,,,,,,,,,,,,,,,,,,,,None,,294.25461505004205,None,294.25461505004205,None,2022-06-06-13:12:13.097561,294.263226200128,294.57193169998936,294.263226200128,None,None,294.263226200128,None,295.0714209501166,None,,,,21004,0001,2022_Jun_06_1307,localizer,2021.1.3,59.994948372913164,
block_start,scenes,scenes014.bmp,,,,,0,137,137,137,,,,,,,,,,,,,,,,,,,,,,,,,,,,,,,,,,,,,,,,,,t,1.729623000137508,295.0718855999876,None,295.0718855999876,None,2022-06-06-13:12:15.662422,296.83066790015437,297.1384732001461,296.83066790015437,None,None,296.83066790015437,None,297.6381930501666,None,,,,21004,0001,2022_Jun_06_1307,localizer,2021.1.3,59.994948372913164,
block,scenes,scenes018.bmp,,,,,0,138,138,138,,,,,,,,,,,,,,,,,,,,,,,,,,,,,,,,,,,,,,,,,,None,,297.6381930501666,None,297.6381930501666,None,2022-06-06-13:12:16.481343,297.64928260003217,297.9552997001447,297.64928260003217,None,None,297.64928260003217,None,298.45488804997876,None,,,,21004,0001,2022_Jun_06_1307,localizer,2021.1.3,59.994948372913164,
block,scenes,scenes002.bmp,,,,,0,139,139,139,,,,,,,,,,,,,,,,,,,,,,,,,,,,,,,,,,,,,,,,,,None,,298.45488804997876,None,298.45488804997876,None,2022-06-06-13:12:17.297812,298.4663421001751,298.7723453999497,298.4663421001751,None,None,298.4663421001751,None,299.27157784998417,None,,,,21004,0001,2022_Jun_06_1307,localizer,2021.1.3,59.994948372913164,
block,scenes,scenes074.bmp,,,,,0,140,140,140,,,,,,,,,,,,,,,,,,,,,,,,,,,,,,,,,,,,,,,,,,None,,299.27157784998417,None,299.27157784998417,None,2022-06-06-13:12:18.115731,299.2730916000437,299.58900899998844,299.2730916000437,None,None,299.2730916000437,None,300.08820955012925,None,,,,21004,0001,2022_Jun_06_1307,localizer,2021.1.3,59.994948372913164,
block,scenes,scenes050.bmp,,,,,0,141,141,141,,,,,,,,,,,,,,,,,,,,,,,,,,,,,,,,,,,,,,,,,,None,,300.08820955012925,None,300.08820955012925,None,2022-06-06-13:12:18.931133,300.1000348001253,300.4053944000043,300.1000348001253,None,None,300.1000348001253,None,300.90483955014497,None,,,,21004,0001,2022_Jun_06_1307,localizer,2021.1.3,59.994948372913164,
block,scenes,scenes069.bmp,,,,,0,142,142,142,,,,,,,,,,,,,,,,,,,,,,,,,,,,,,,,,,,,,,,,,,None,,300.90483955014497,None,300.90483955014497,None,2022-06-06-13:12:19.747777,300.9165084999986,301.2215632000007,300.9165084999986,None,None,300.9165084999986,None,301.72150135017,None,,,,21004,0001,2022_Jun_06_1307,localizer,2021.1.3,59.994948372913164,
block,scenes,scenes020.bmp,,,,,0,143,143,143,,,,,,,,,,,,,,,,,,,,,,,,,,,,,,,,,,,,,,,,,,None,,301.72150135017,None,301.72150135017,None,2022-06-06-13:12:20.564443,301.7228808000218,302.03867020015605,301.7228808000218,None,None,301.7228808000218,None,302.5381702501327,None,,,,21004,0001,2022_Jun_06_1307,localizer,2021.1.3,59.994948372913164,
block,scenes,scenes068.bmp,,,,,0,144,144,144,,,,,,,,,,,,,,,,,,,,,,,,,,,,,,,,,,,,,,,,,,None,,302.5381702501327,None,302.5381702501327,None,2022-06-06-13:12:21.381113,302.5489855001215,302.8551052999683,302.5489855001215,None,None,302.5489855001215,None,303.354844750138,None,,,,21004,0001,2022_Jun_06_1307,localizer,2021.1.3,59.994948372913164,
block,scenes,scenes058.bmp,,,,,0,145,145,145,,,,,,,,,,,,,,,,,,,,,,,,,,,,,,,,,,,,,,,,,,None,,303.354844750138,None,303.354844750138,None,2022-06-06-13:12:22.198766,303.3620981001295,303.6720968000591,303.3620981001295,None,None,303.3620981001295,None,304.15943405008875,None,,,,21004,0001,2022_Jun_06_1307,localizer,2021.1.3,59.994948372913164,
block,scenes,scenes054.bmp,,,,,0,146,146,146,,,,,,,,,,,,,,,,,,,,,,,,,,,,,,,,,,,,,,,,,,None,,304.15943405008875,None,304.15943405008875,None,2022-06-06-13:12:23.005446,304.17589680012316,304.4889193000272,304.17589680012316,None,None,304.17589680012316,None,304.97155115008354,None,,,,21004,0001,2022_Jun_06_1307,localizer,2021.1.3,59.994948372913164,
block,scenes,scenes010.bmp,,,,,0,147,147,147,,,,,,,,,,,,,,,,,,,,,,,,,,,,,,,,,,,,,,,,,,None,,304.97155115008354,None,304.97155115008354,None,2022-06-06-13:12:23.814716,304.98225280013867,305.28882180014625,304.98225280013867,None,None,304.98225280013867,None,305.7902778501157,None,,,,21004,0001,2022_Jun_06_1307,localizer,2021.1.3,59.994948372913164,
block,scenes,scenes078.bmp,,,,,0,148,148,148,,,,,,,,,,,,,,,,,,,,,,,,,,,,,,,,,,,,,,,,,,None,,305.7902778501157,None,305.7902778501157,None,2022-06-06-13:12:24.637350,305.7953773001209,306.10596080007963,305.7953773001209,None,None,305.7953773001209,None,306.60545565001667,None,,,,21004,0001,2022_Jun_06_1307,localizer,2021.1.3,59.994948372913164,
block,scenes,scenes081.bmp,,,,,0,149,149,149,,,,,,,,,,,,,,,,,,,,,,,,,,,,,,,,,,,,,,,,,,None,,306.60545565001667,None,306.60545565001667,None,2022-06-06-13:12:25.448406,306.6062513999641,306.9055290000979,306.6062513999641,None,None,306.6062513999641,None,307.4216325499583,None,,,,21004,0001,2022_Jun_06_1307,localizer,2021.1.3,59.994948372913164,
block,scenes,scenes072.bmp,,,,,0,150,150,150,,,,,,,,,,,,,,,,,,,,,,,,,,,,,,,,,,,,,,,,,,None,,307.4216325499583,None,307.4216325499583,None,2022-06-06-13:12:26.264539,307.4328956999816,307.7388577000238,307.4328956999816,None,None,307.4328956999816,None,308.23830105015077,None,,,,21004,0001,2022_Jun_06_1307,localizer,2021.1.3,59.994948372913164,
block_end,scenes,scenes045.bmp,,,,,0,151,151,151,,,,,,,,,,,,,,,,,,,,,,,,,,,,,,,,,,,,,,,,,,None,,308.23830105015077,None,308.23830105015077,None,2022-06-06-13:12:27.081449,308.2499902001582,308.55537930014543,308.2499902001582,None,None,308.2499902001582,None,309.0547560499981,None,,,,21004,0001,2022_Jun_06_1307,localizer,2021.1.3,59.994948372913164,
block_start,faces,faces066.bmp,,,,,0,152,152,152,,,,,,,,,,,,,,,,,,,,,,,,,,,,,,,,,,,,,,,,,,t,1.746159200090915,309.0552572000306,None,309.0552572000306,None,2022-06-06-13:12:29.664608,310.83264070004225,311.13884670007974,310.83264070004225,None,None,310.83264070004225,None,311.6383911501616,None,,,,21004,0001,2022_Jun_06_1307,localizer,2021.1.3,59.994948372913164,
block,faces,faces087.bmp,,,,,0,153,153,153,,,,,,,,,,,,,,,,,,,,,,,,,,,,,,,,,,,,,,,,,,None,,311.6383911501616,None,311.6383911501616,None,2022-06-06-13:12:30.481311,311.6518598999828,311.9554584999569,311.6518598999828,None,None,311.6518598999828,None,312.45504695014097,None,,,,21004,0001,2022_Jun_06_1307,localizer,2021.1.3,59.994948372913164,
block,faces,faces052.bmp,,,,,0,154,154,154,,,,,,,,,,,,,,,,,,,,,,,,,,,,,,,,,,,,,,,,,,None,,312.45504695014097,None,312.45504695014097,None,2022-06-06-13:12:31.297986,312.46742030000314,312.7727014000993,312.46742030000314,None,None,312.46742030000314,None,313.2723268500995,None,,,,21004,0001,2022_Jun_06_1307,localizer,2021.1.3,59.994948372913164,
block,faces,faces009.bmp,,,,,0,155,155,155,,,,,,,,,,,,,,,,,,,,,,,,,,,,,,,,,,,,,,,,,,None,,313.2723268500995,None,313.2723268500995,None,2022-06-06-13:12:32.116062,313.28445339994505,313.58871840010397,313.28445339994505,None,None,313.28445339994505,None,314.0887796501629,None,,,,21004,0001,2022_Jun_06_1307,localizer,2021.1.3,59.994948372913164,
block,faces,faces067.bmp,,,,,0,156,156,156,,,,,,,,,,,,,,,,,,,,,,,,,,,,,,,,,,,,,,,,,,None,,314.0887796501629,None,314.0887796501629,None,2022-06-06-13:12:32.932708,314.1061055001337,314.4217596000526,314.1061055001337,None,None,314.1061055001337,None,314.9051692499779,None,,,,21004,0001,2022_Jun_06_1307,localizer,2021.1.3,59.994948372913164,
block,faces,faces080.bmp,,,,,0,157,157,157,,,,,,,,,,,,,,,,,,,,,,,,,,,,,,,,,,,,,,,,,,None,,314.9051692499779,None,314.9051692499779,None,2022-06-06-13:12:33.748316,314.90851059998386,315.2220371000003,314.90851059998386,None,None,314.90851059998386,None,315.72121344995685,None,,,,21004,0001,2022_Jun_06_1307,localizer,2021.1.3,59.994948372913164,
block,faces,faces028.bmp,,,,,0,158,158,158,,,,,,,,,,,,,,,,,,,,,,,,,,,,,,,,,,,,,,,,,,None,,315.72121344995685,None,315.72121344995685,None,2022-06-06-13:12:34.564156,315.7318492999766,316.03899609996006,315.7318492999766,None,None,315.7318492999766,None,316.53819365007803,None,,,,21004,0001,2022_Jun_06_1307,localizer,2021.1.3,59.994948372913164,
block,faces,faces065.bmp,,,,,0,159,159,159,,,,,,,,,,,,,,,,,,,,,,,,,,,,,,,,,,,,,,,,,,None,,316.53819365007803,None,316.53819365007803,None,2022-06-06-13:12:35.381136,316.5395551000256,316.8554092999548,316.5395551000256,None,None,316.5395551000256,None,317.3547572500538,None,,,,21004,0001,2022_Jun_06_1307,localizer,2021.1.3,59.994948372913164,
block,faces,faces048.bmp,,,,,0,160,160,160,,,,,,,,,,,,,,,,,,,,,,,,,,,,,,,,,,,,,,,,,,None,,317.3547572500538,None,317.3547572500538,None,2022-06-06-13:12:36.197701,317.3665144001134,317.6721137999557,317.3665144001134,None,None,317.3665144001134,None,318.17161435005255,None,,,,21004,0001,2022_Jun_06_1307,localizer,2021.1.3,59.994948372913164,
block,faces,faces048.bmp,,,,,0,161,161,161,,,,,,,,,,,,,,,,,,,,,,,,,,,,,,,,,,,,,,,,,,None,,318.17161435005255,None,318.17161435005255,None,2022-06-06-13:12:37.014553,318.1729658001568,318.488505900139,318.1729658001568,None,None,318.1729658001568,None,318.9882796499878,None,,,,21004,0001,2022_Jun_06_1307,localizer,2021.1.3,59.994948372913164,
block,faces,faces074.bmp,,,,,0,162,162,162,,,,,,,,,,,,,,,,,,,,,,,,,,,,,,,,,,,,,,,,,,None,,318.9882796499878,None,318.9882796499878,None,2022-06-06-13:12:37.831200,319.00167459994555,319.3056433000602,319.00167459994555,None,None,319.00167459994555,None,319.8051776501816,None,,,,21004,0001,2022_Jun_06_1307,localizer,2021.1.3,59.994948372913164,
block,faces,faces070.bmp,,,,,0,163,163,163,,,,,,,,,,,,,,,,,,,,,,,,,,,,,,,,,,,,,,,,,,None,,319.8051776501816,None,319.8051776501816,None,2022-06-06-13:12:38.649406,319.80650210008025,320.12170430016704,319.80650210008025,None,None,319.80650210008025,None,320.621536150109,None,,,,21004,0001,2022_Jun_06_1307,localizer,2021.1.3,59.994948372913164,
block,faces,faces033.bmp,,,,,0,164,164,164,,,,,,,,,,,,,,,,,,,,,,,,,,,,,,,,,,,,,,,,,,None,,320.621536150109,None,320.621536150109,None,2022-06-06-13:12:39.464478,320.64143420010805,320.9553768001497,320.64143420010805,None,None,320.64143420010805,None,321.4383618501015,None,,,,21004,0001,2022_Jun_06_1307,localizer,2021.1.3,59.994948372913164,
block,faces,faces050.bmp,,,,,0,165,165,165,,,,,,,,,,,,,,,,,,,,,,,,,,,,,,,,,,,,,,,,,,None,,321.4383618501015,None,321.4383618501015,None,2022-06-06-13:12:40.281345,321.43988430011086,321.75519170006737,321.43988430011086,None,None,321.43988430011086,None,322.25508445012383,None,,,,21004,0001,2022_Jun_06_1307,localizer,2021.1.3,59.994948372913164,
block_end,faces,faces024.bmp,,,,,0,166,166,166,,,,,,,,,,,,,,,,,,,,,,,,,,,,,,,,,,,,,,,,,,None,,322.25508445012383,None,322.25508445012383,None,2022-06-06-13:12:41.098152,322.26721920003183,322.57216850016266,322.26721920003183,None,None,322.26721920003183,None,323.07170645007864,None,,,,21004,0001,2022_Jun_06_1307,localizer,2021.1.3,59.994948372913164,
block_start,objects,objects079.bmp,,,,,0,167,167,167,,,,,,,,,,,,,,,,,,,,,,,,,,,,,,,,,,,,,,,,,,t,1.7293471999000758,323.0720581000205,None,323.0720581000205,None,2022-06-06-13:12:43.662485,324.8306424000766,325.1384251001291,324.8306424000766,None,None,324.8306424000766,None,325.62801635009237,None,,,,21004,0001,2022_Jun_06_1307,localizer,2021.1.3,59.994948372913164,
block,objects,objects010.bmp,,,,,0,168,168,168,,,,,,,,,,,,,,,,,,,,,,,,,,,,,,,,,,,,,,,,,,None,,325.62801635009237,None,325.62801635009237,None,2022-06-06-13:12:44.478760,325.6378518999554,325.93952390016057,325.6378518999554,None,None,325.6378518999554,None,326.43807945004664,None,,,,21004,0001,2022_Jun_06_1307,localizer,2021.1.3,59.994948372913164,
block,objects,objects040.bmp,,,,,0,169,169,169,,,,,,,,,,,,,,,,,,,,,,,,,,,,,,,,,,,,,,,,,,None,,326.43807945004664,None,326.43807945004664,None,2022-06-06-13:12:45.281930,326.4483859001193,326.75543370004743,326.4483859001193,None,None,326.4483859001193,None,327.254965050146,None,,,,21004,0001,2022_Jun_06_1307,localizer,2021.1.3,59.994948372913164,
block,objects,objects063.bmp,,,,,0,170,170,170,,,,,,,,,,,,,,,,,,,,,,,,,,,,,,,,,,,,,,,,,,None,,327.254965050146,None,327.254965050146,None,2022-06-06-13:12:46.097895,327.26534290006384,327.57206350006163,327.26534290006384,None,None,327.26534290006384,None,328.07231825008057,None,,,,21004,0001,2022_Jun_06_1307,localizer,2021.1.3,59.994948372913164,
block,objects,objects065.bmp,,,,,0,171,171,171,,,,,,,,,,,,,,,,,,,,,,,,,,,,,,,,,,,,,,,,,,None,,328.07231825008057,None,328.07231825008057,None,2022-06-06-13:12:46.916424,328.0748418001458,328.3895974000916,328.0748418001458,None,None,328.0748418001458,None,328.8740556500852,None,,,,21004,0001,2022_Jun_06_1307,localizer,2021.1.3,59.994948372913164,
block,objects,objects028.bmp,,,,,0,172,172,172,,,,,,,,,,,,,,,,,,,,,,,,,,,,,,,,,,,,,,,,,,None,,328.8740556500852,None,328.8740556500852,None,2022-06-06-13:12:47.723952,328.8944616999943,329.20536700007506,328.8944616999943,328.8944616999943,None,328.8944616999943,328.8944616999943,329.68818165012635,None,,,,21004,0001,2022_Jun_06_1307,localizer,2021.1.3,59.994948372913164,
block,objects,objects020.bmp,,,,,0,173,173,173,,,,,,,,,,,,,,,,,,,,,,,,,,,,,,,,,,,,,,,,,,None,,329.68818165012635,None,329.68818165012635,None,2022-06-06-13:12:48.531312,329.69829760002904,330.0054033000488,329.69829760002904,None,None,329.69829760002904,None,330.50622484995984,None,,,,21004,0001,2022_Jun_06_1307,localizer,2021.1.3,59.994948372913164,
block,objects,objects006.bmp,,,,,0,174,174,174,,,,,,,,,,,,,,,,,,,,,,,,,,,,,,,,,,,,,,,,,,None,,330.50622484995984,None,330.50622484995984,None,2022-06-06-13:12:49.351325,330.5224731999915,330.8223302999977,330.5224731999915,None,None,330.5224731999915,None,331.3216232501436,None,,,,21004,0001,2022_Jun_06_1307,localizer,2021.1.3,59.994948372913164,
block,objects,objects007.bmp,,,,,0,175,175,175,,,,,,,,,,,,,,,,,,,,,,,,,,,,,,,,,,,,,,,,,,None,,331.3216232501436,None,331.3216232501436,None,2022-06-06-13:12:50.164783,331.3228980000131,331.63858720008284,331.3228980000131,None,None,331.3228980000131,None,332.13754214998335,None,,,,21004,0001,2022_Jun_06_1307,localizer,2021.1.3,59.994948372913164,
block,objects,objects035.bmp,,,,,0,176,176,176,,,,,,,,,,,,,,,,,,,,,,,,,,,,,,,,,,,,,,,,,,None,,332.13754214998335,None,332.13754214998335,None,2022-06-06-13:12:50.981503,332.14700350002386,332.45612170011736,332.14700350002386,None,None,332.14700350002386,None,332.95564515003935,None,,,,21004,0001,2022_Jun_06_1307,localizer,2021.1.3,59.994948372913164,
block,objects,objects060.bmp,,,,,0,177,177,177,,,,,,,,,,,,,,,,,,,,,,,,,,,,,,,,,,,,,,,,,,None,,332.95564515003935,None,332.95564515003935,None,2022-06-06-13:12:51.799762,332.9581381001044,333.2620427000802,332.9581381001044,None,None,332.9581381001044,None,333.7729118501302,None,,,,21004,0001,2022_Jun_06_1307,localizer,2021.1.3,59.994948372913164,
block,objects,objects016.bmp,,,,,0,178,178,178,,,,,,,,,,,,,,,,,,,,,,,,,,,,,,,,,,,,,,,,,,None,,333.7729118501302,None,333.7729118501302,None,2022-06-06-13:12:52.618399,333.7827469999902,334.08875830005854,333.7827469999902,None,None,333.7827469999902,None,334.5879387501627,None,,,,21004,0001,2022_Jun_06_1307,localizer,2021.1.3,59.994948372913164,
block,objects,objects031.bmp,,,,,0,179,179,179,,,,,,,,,,,,,,,,,,,,,,,,,,,,,,,,,,,,,,,,,,None,,334.5879387501627,None,334.5879387501627,None,2022-06-06-13:12:53.430885,334.5969024000224,334.9055129000917,334.5969024000224,None,None,334.5969024000224,None,335.40472774999216,None,,,,21004,0001,2022_Jun_06_1307,localizer,2021.1.3,59.994948372913164,
block,objects,objects037.bmp,,,,,0,180,180,180,,,,,,,,,,,,,,,,,,,,,,,,,,,,,,,,,,,,,,,,,,None,,335.40472774999216,None,335.40472774999216,None,2022-06-06-13:12:54.247670,335.4147638999857,335.72228510002606,335.4147638999857,None,None,335.4147638999857,None,336.2218296499923,None,,,,21004,0001,2022_Jun_06_1307,localizer,2021.1.3,59.994948372913164,
block_end,objects,objects055.bmp,,,,,0,181,181,181,,,,,,,,,,,,,,,,,,,,,,,,,,,,,,,,,,,,,,,,,,None,,336.2218296499923,None,336.2218296499923,None,2022-06-06-13:12:55.064769,336.2332878001034,336.53883079998195,336.2332878001034,None,None,336.2332878001034,None,337.0380571500864,None,,,,21004,0001,2022_Jun_06_1307,localizer,2021.1.3,59.994948372913164,
null_block,null_block,null_block.bmp,,,,,0,182,182,182,,,,,,,,,,,,,,,,,,,,,,,,,,,,,,,,,,,,,,,,,,t,1.762592100072652,337.03871370013803,None,337.03871370013803,None,2022-06-06-13:12:57.667333,338.82240965007804,None,338.82240965007804,None,None,338.82240965007804,None,338.82960580009967,None,,,,21004,0001,2022_Jun_06_1307,localizer,2021.1.3,59.994948372913164,
block_start,scenes,scenes059.bmp,,,,,0,183,183,183,,,,,,,,,,,,,,,,,,,,,,,,,,,,,,,,,,,,,,,,,,t,1.9611893000546843,350.84013450006023,None,350.84013450006023,None,2022-06-06-13:13:11.668951,352.8357564001344,353.13873310014606,352.8357564001344,None,None,352.8357564001344,None,353.6282423501834,None,,,,21004,0001,2022_Jun_06_1307,localizer,2021.1.3,59.994948372913164,
block,scenes,scenes051.bmp,,,,,0,184,184,184,,,,,,,,,,,,,,,,,,,,,,,,,,,,,,,,,,,,,,,,,,None,,353.6282423501834,None,353.6282423501834,None,2022-06-06-13:13:12.478899,353.6356446000282,353.93879349995404,353.6356446000282,None,None,353.6356446000282,None,354.4385864501819,None,,,,21004,0001,2022_Jun_06_1307,localizer,2021.1.3,59.994948372913164,
block,scenes,scenes009.bmp,,,,,0,185,185,185,,,,,,,,,,,,,,,,,,,,,,,,,,,,,,,,,,,,,,,,,,None,,354.4385864501819,None,354.4385864501819,None,2022-06-06-13:13:13.281740,354.4399735000916,354.75553319999017,354.4399735000916,None,None,354.4399735000916,None,355.2551442501135,None,,,,21004,0001,2022_Jun_06_1307,localizer,2021.1.3,59.994948372913164,
block,scenes,scenes077.bmp,,,,,0,186,186,186,,,,,,,,,,,,,,,,,,,,,,,,,,,,,,,,,,,,,,,,,,None,,355.2551442501135,None,355.2551442501135,None,2022-06-06-13:13:14.098289,355.2666937999893,355.57236260012724,355.2666937999893,None,None,355.2666937999893,None,356.07159935007803,None,,,,21004,0001,2022_Jun_06_1307,localizer,2021.1.3,59.994948372913164,
block,scenes,scenes045.bmp,,,,,0,187,187,187,,,,,,,,,,,,,,,,,,,,,,,,,,,,,,,,,,,,,,,,,,None,,356.07159935007803,None,356.07159935007803,None,2022-06-06-13:13:14.915541,356.07307970011607,356.3888551001437,356.07307970011607,None,None,356.07307970011607,None,356.8886089499574,None,,,,21004,0001,2022_Jun_06_1307,localizer,2021.1.3,59.994948372913164,
block,scenes,scenes072.bmp,,,,,0,188,188,188,,,,,,,,,,,,,,,,,,,,,,,,,,,,,,,,,,,,,,,,,,None,,356.8886089499574,None,356.8886089499574,None,2022-06-06-13:13:15.732516,356.88985260017216,357.2054634001106,356.88985260017216,None,None,356.88985260017216,None,357.7047529499978,None,,,,21004,0001,2022_Jun_06_1307,localizer,2021.1.3,59.994948372913164,
block,scenes,scenes085.bmp,,,,,0,189,189,189,,,,,,,,,,,,,,,,,,,,,,,,,,,,,,,,,,,,,,,,,,None,,357.7047529499978,None,357.7047529499978,None,2022-06-06-13:13:16.547697,357.70671129995026,358.02223770017736,357.70671129995026,None,None,357.70671129995026,None,358.5220404500142,None,,,,21004,0001,2022_Jun_06_1307,localizer,2021.1.3,59.994948372913164,
block,scenes,scenes084.bmp,,,,,0,190,190,190,,,,,,,,,,,,,,,,,,,,,,,,,,,,,,,,,,,,,,,,,,None,,358.5220404500142,None,358.5220404500142,None,2022-06-06-13:13:17.364980,358.532372900052,358.8388881001156,358.532372900052,None,None,358.532372900052,None,359.3398558499757,None,,,,21004,0001,2022_Jun_06_1307,localizer,2021.1.3,59.994948372913164,
block,scenes,scenes054.bmp,,,,,0,191,191,191,,,,,,,,,,,,,,,,,,,,,,,,,,,,,,,,,,,,,,,,,,None,,359.3398558499757,None,359.3398558499757,None,2022-06-06-13:13:18.186327,359.34395970008336,359.6418133000843,359.34395970008336,None,None,359.34395970008336,None,360.15507085016,None,,,,21004,0001,2022_Jun_06_1307,localizer,2021.1.3,59.994948372913164,
block,scenes,scenes033.bmp,,,,,0,192,192,192,,,,,,,,,,,,,,,,,,,,,,,,,,,,,,,,,,,,,,,,,,None,,360.15507085016,None,360.15507085016,None,2022-06-06-13:13:18.998015,360.1654099000152,360.4724785001017,360.1654099000152,None,None,360.1654099000152,None,360.9718733499758,None,,,,21004,0001,2022_Jun_06_1307,localizer,2021.1.3,59.994948372913164,
block,scenes,scenes001.bmp,,,,,0,193,193,193,,,,,,,,,,,,,,,,,,,,,,,,,,,,,,,,,,,,,,,,,,None,,360.9718733499758,None,360.9718733499758,None,2022-06-06-13:13:19.815810,360.9832472000271,361.28863570000976,360.9832472000271,None,None,360.9832472000271,None,361.78873075009324,None,,,,21004,0001,2022_Jun_06_1307,localizer,2021.1.3,59.994948372913164,
block,scenes,scenes074.bmp,,,,,0,194,194,194,,,,,,,,,,,,,,,,,,,,,,,,,,,,,,,,,,,,,,,,,,None,,361.78873075009324,None,361.78873075009324,None,2022-06-06-13:13:20.631670,361.7898626001552,362.10945430002175,361.7898626001552,None,None,361.7898626001552,None,362.60525885014795,None,,,,21004,0001,2022_Jun_06_1307,localizer,2021.1.3,59.994948372913164,
block,scenes,scenes022.bmp,,,,,0,195,195,195,,,,,,,,,,,,,,,,,,,,,,,,,,,,,,,,,,,,,,,,,,None,,362.60525885014795,None,362.60525885014795,None,2022-06-06-13:13:21.448197,362.6163064001594,362.9220672000665,362.6163064001594,None,None,362.6163064001594,None,363.42241075006314,None,,,,21004,0001,2022_Jun_06_1307,localizer,2021.1.3,59.994948372913164,
block,scenes,scenes021.bmp,,,,,0,196,196,196,,,,,,,,,,,,,,,,,,,,,,,,,,,,,,,,,,,,,,,,,,None,,363.42241075006314,None,363.42241075006314,None,2022-06-06-13:13:22.266447,363.4363851000089,363.7389603999909,363.4363851000089,None,None,363.4363851000089,None,364.23856985010207,None,,,,21004,0001,2022_Jun_06_1307,localizer,2021.1.3,59.994948372913164,
block_end,scenes,scenes012.bmp,,,,,0,197,197,197,,,,,,,,,,,,,,,,,,,,,,,,,,,,,,,,,,,,,,,,,,None,,364.23856985010207,None,364.23856985010207,None,2022-06-06-13:13:23.081709,364.2505387000274,364.55586590012535,364.2505387000274,None,None,364.2505387000274,None,365.0551816499792,None,,,,21004,0001,2022_Jun_06_1307,localizer,2021.1.3,59.994948372913164,
block_start,objects,objects015.bmp,,,,,0,198,198,198,,,,,,,,,,,,,,,,,,,,,,,,,,,,,,,,,,,,,,,,,,t,1.745607899967581,365.0557570999954,None,365.0557570999954,None,2022-06-06-13:13:25.666363,366.82335600000806,367.139118200168,366.82335600000806,None,None,366.82335600000806,None,367.6280506500043,None,,,,21004,0001,2022_Jun_06_1307,localizer,2021.1.3,59.994948372913164,
block,objects,objects056.bmp,,,,,0,199,199,199,,,,,,,,,,,,,,,,,,,,,,,,,,,,,,,,,,,,,,,,,,None,,367.6280506500043,None,367.6280506500043,None,2022-06-06-13:13:26.479935,367.65156100015156,367.9559842001181,367.65156100015156,None,None,367.65156100015156,None,368.4384135501459,None,,,,21004,0001,2022_Jun_06_1307,localizer,2021.1.3,59.994948372913164,
block,objects,objects049.bmp,,,,,0,200,200,200,,,,,,,,,,,,,,,,,,,,,,,,,,,,,,,,,,,,,,,,,,None,,368.4384135501459,None,368.4384135501459,None,2022-06-06-13:13:27.281357,368.44822430005297,368.75570820015855,368.44822430005297,None,None,368.44822430005297,None,369.2588526501786,None,,,,21004,0001,2022_Jun_06_1307,localizer,2021.1.3,59.994948372913164,
block,objects,objects035.bmp,,,,,0,201,201,201,,,,,,,,,,,,,,,,,,,,,,,,,,,,,,,,,,,,,,,,,,None,,369.2588526501786,None,369.2588526501786,None,2022-06-06-13:13:28.111687,369.2720179001335,369.5726708001457,369.2720179001335,None,None,369.2720179001335,None,370.07217235001735,None,,,,21004,0001,2022_Jun_06_1307,localizer,2021.1.3,59.994948372913164,
block,objects,objects011.bmp,,,,,0,202,202,202,,,,,,,,,,,,,,,,,,,,,,,,,,,,,,,,,,,,,,,,,,None,,370.07217235001735,None,370.07217235001735,None,2022-06-06-13:13:28.916105,370.0835494999774,370.3890154999681,370.0835494999774,None,None,370.0835494999774,None,370.8779050500598,None,,,,21004,0001,2022_Jun_06_1307,localizer,2021.1.3,59.994948372913164,
block,objects,objects050.bmp,,,,,0,203,203,203,,,,,,,,,,,,,,,,,,,,,,,,,,,,,,,,,,,,,,,,,,None,,370.8779050500598,None,370.8779050500598,None,2022-06-06-13:13:29.724890,370.8825972999912,371.18900200002827,370.8825972999912,None,None,370.8825972999912,None,371.6882043501828,None,,,,21004,0001,2022_Jun_06_1307,localizer,2021.1.3,59.994948372913164,
block,objects,objects041.bmp,,,,,0,204,204,204,,,,,,,,,,,,,,,,,,,,,,,,,,,,,,,,,,,,,,,,,,None,,371.6882043501828,None,371.6882043501828,None,2022-06-06-13:13:30.531181,371.6898560000118,372.00562379998155,371.6898560000118,None,None,371.6898560000118,None,372.5053589500021,None,,,,21004,0001,2022_Jun_06_1307,localizer,2021.1.3,59.994948372913164,
block,objects,objects042.bmp,,,,,0,205,205,205,,,,,,,,,,,,,,,,,,,,,,,,,,,,,,,,,,,,,,,,,,None,,372.5053589500021,None,372.5053589500021,None,2022-06-06-13:13:31.348496,372.515844900161,372.8225237999577,372.515844900161,None,None,372.515844900161,None,373.32201795000583,None,,,,21004,0001,2022_Jun_06_1307,localizer,2021.1.3,59.994948372913164,
block,objects,objects009.bmp,,,,,0,206,206,206,,,,,,,,,,,,,,,,,,,,,,,,,,,,,,,,,,,,,,,,,,None,,373.32201795000583,None,373.32201795000583,None,2022-06-06-13:13:32.164953,373.33359230007045,373.6392060001381,373.33359230007045,None,None,373.33359230007045,None,374.1387251501437,None,,,,21004,0001,2022_Jun_06_1307,localizer,2021.1.3,59.994948372913164,
block,objects,objects027.bmp,,,,,0,207,207,207,,,,,,,,,,,,,,,,,,,,,,,,,,,,,,,,,,,,,,,,,,None,,374.1387251501437,None,374.1387251501437,None,2022-06-06-13:13:32.981682,374.1495760001708,374.45577170001343,374.1495760001708,None,None,374.1495760001708,None,374.95504385000095,None,,,,21004,0001,2022_Jun_06_1307,localizer,2021.1.3,59.994948372913164,
block,objects,objects046.bmp,,,,,0,208,208,208,,,,,,,,,,,,,,,,,,,,,,,,,,,,,,,,,,,,,,,,,,None,,374.95504385000095,None,374.95504385000095,None,2022-06-06-13:13:33.797987,374.9654652001336,375.2724026001524,374.9654652001336,None,None,374.9654652001336,None,375.7720752500463,None,,,,21004,0001,2022_Jun_06_1307,localizer,2021.1.3,59.994948372913164,
block,objects,objects071.bmp,,,,,0,209,209,209,,,,,,,,,,,,,,,,,,,,,,,,,,,,,,,,,,,,,,,,,,None,,375.7720752500463,None,375.7720752500463,None,2022-06-06-13:13:34.615228,375.7841716001276,376.0890014001634,375.7841716001276,None,None,375.7841716001276,None,376.5887631501537,None,,,,21004,0001,2022_Jun_06_1307,localizer,2021.1.3,59.994948372913164,
block,objects,objects006.bmp,,,,,0,210,210,210,,,,,,,,,,,,,,,,,,,,,,,,,,,,,,,,,,,,,,,,,,None,,376.5887631501537,None,376.5887631501537,None,2022-06-06-13:13:35.432699,376.59006020007655,376.9059642001521,376.59006020007655,None,None,376.59006020007655,None,377.40516405017115,None,,,,21004,0001,2022_Jun_06_1307,localizer,2021.1.3,59.994948372913164,
block,objects,objects076.bmp,,,,,0,211,211,211,,,,,,,,,,,,,,,,,,,,,,,,,,,,,,,,,,,,,,,,,,None,,377.40516405017115,None,377.40516405017115,None,2022-06-06-13:13:36.248109,377.41590110003017,377.72245590016246,377.41590110003017,None,None,377.41590110003017,None,378.22205714997835,None,,,,21004,0001,2022_Jun_06_1307,localizer,2021.1.3,59.994948372913164,
block_end,objects,objects080.bmp,,,,,0,212,212,212,,,,,,,,,,,,,,,,,,,,,,,,,,,,,,,,,,,,,,,,,,None,,378.22205714997835,None,378.22205714997835,None,2022-06-06-13:13:37.064940,378.2324227001518,378.53932400001213,378.2324227001518,None,None,378.2324227001518,None,379.0382891499903,None,,,,21004,0001,2022_Jun_06_1307,localizer,2021.1.3,59.994948372913164,
block_start,scrambled,scrambled027.bmp,,,,,0,213,213,213,,,,,,,,,,,,,,,,,,,,,,,,,,,,,,,,,,,,,,,,,,t,1.7614260001573712,379.0389402001165,None,379.0389402001165,None,2022-06-06-13:13:39.666562,380.8359236000106,381.1456534001045,380.8359236000106,None,None,380.8359236000106,None,381.6385244501289,None,,,,21004,0001,2022_Jun_06_1307,localizer,2021.1.3,59.994948372913164,
block,scrambled,scrambled054.bmp,,,,,0,214,214,214,,,,,,,,,,,,,,,,,,,,,,,,,,,,,,,,,,,,,,,,,,None,,381.6385244501289,None,381.6385244501289,None,2022-06-06-13:13:40.481470,381.6475198001135,381.95580610004254,381.6475198001135,None,None,381.6475198001135,None,382.4565039500594,None,,,,21004,0001,2022_Jun_06_1307,localizer,2021.1.3,59.994948372913164,
block,scrambled,scrambled021.bmp,,,,,0,215,215,215,,,,,,,,,,,,,,,,,,,,,,,,,,,,,,,,,,,,,,,,,,None,,382.4565039500594,None,382.4565039500594,None,2022-06-06-13:13:41.302047,382.468392400071,382.7731409999542,382.468392400071,None,None,382.468392400071,None,383.27263735001907,None,,,,21004,0001,2022_Jun_06_1307,localizer,2021.1.3,59.994948372913164,
block,scrambled,scrambled065.bmp,,,,,0,216,216,216,,,,,,,,,,,,,,,,,,,,,,,,,,,,,,,,,,,,,,,,,,None,,383.27263735001907,None,383.27263735001907,None,2022-06-06-13:13:42.116490,383.2856575001497,383.58907390013337,383.2856575001497,None,None,383.2856575001497,None,384.0888068501372,None,,,,21004,0001,2022_Jun_06_1307,localizer,2021.1.3,59.994948372913164,
block,scrambled,scrambled056.bmp,,,,,0,217,217,217,,,,,,,,,,,,,,,,,,,,,,,,,,,,,,,,,,,,,,,,,,None,,384.0888068501372,None,384.0888068501372,None,2022-06-06-13:13:42.932947,384.10090179997496,384.40595190017484,384.10090179997496,None,None,384.10090179997496,None,384.9051069500856,None,,,,21004,0001,2022_Jun_06_1307,localizer,2021.1.3,59.994948372913164,
block,scrambled,scrambled056.bmp,,,,,0,218,218,218,,,,,,,,,,,,,,,,,,,,,,,,,,,,,,,,,,,,,,,,,,None,,384.9051069500856,None,384.9051069500856,None,2022-06-06-13:13:43.748080,384.9065157000441,385.2219825000502,384.9065157000441,None,y,384.9065157000441,None,385.7218428500928,None,0.4866754000540823,,,21004,0001,2022_Jun_06_1307,localizer,2021.1.3,59.994948372913164,
block,scrambled,scrambled019.bmp,,,,,0,219,219,219,,,,,,,,,,,,,,,,,,,,,,,,,,,,,,,,,,,,,,,,,,None,,385.7218428500928,None,385.7218428500928,None,2022-06-06-13:13:44.564785,385.73244870011695,386.03904399997555,385.73244870011695,None,None,385.73244870011695,None,386.5385647499934,None,,,,21004,0001,2022_Jun_06_1307,localizer,2021.1.3,59.994948372913164,
block,scrambled,scrambled073.bmp,,,,,0,220,220,220,,,,,,,,,,,,,,,,,,,,,,,,,,,,,,,,,,,,,,,,,,None,,386.5385647499934,None,386.5385647499934,None,2022-06-06-13:13:45.381727,386.5492152001243,386.8558328000363,386.5492152001243,None,None,386.5492152001243,None,387.3550535500981,None,,,,21004,0001,2022_Jun_06_1307,localizer,2021.1.3,59.994948372913164,
block,scrambled,scrambled008.bmp,,,,,0,221,221,221,,,,,,,,,,,,,,,,,,,,,,,,,,,,,,,,,,,,,,,,,,None,,387.3550535500981,None,387.3550535500981,None,2022-06-06-13:13:46.198769,387.35657930001616,387.6723668000195,387.35657930001616,None,None,387.35657930001616,None,388.1717883499805,None,,,,21004,0001,2022_Jun_06_1307,localizer,2021.1.3,59.994948372913164,
block,scrambled,scrambled024.bmp,,,,,0,222,222,222,,,,,,,,,,,,,,,,,,,,,,,,,,,,,,,,,,,,,,,,,,None,,388.1717883499805,None,388.1717883499805,None,2022-06-06-13:13:47.014688,388.1836696001701,388.48893210012466,388.1836696001701,None,None,388.1836696001701,None,388.98866125009954,None,,,,21004,0001,2022_Jun_06_1307,localizer,2021.1.3,59.994948372913164,
block,scrambled,scrambled079.bmp,,,,,0,223,223,223,,,,,,,,,,,,,,,,,,,,,,,,,,,,,,,,,,,,,,,,,,None,,388.98866125009954,None,388.98866125009954,None,2022-06-06-13:13:47.831705,388.990128000034,389.3056461000815,388.990128000034,None,None,388.990128000034,None,389.8051340500824,None,,,,21004,0001,2022_Jun_06_1307,localizer,2021.1.3,59.994948372913164,
block,scrambled,scrambled039.bmp,,,,,0,224,224,224,,,,,,,,,,,,,,,,,,,,,,,,,,,,,,,,,,,,,,,,,,None,,389.8051340500824,None,389.8051340500824,None,2022-06-06-13:13:48.648701,389.81582560017705,390.12227439996786,389.81582560017705,None,None,389.81582560017705,None,390.6218301500194,None,,,,21004,0001,2022_Jun_06_1307,localizer,2021.1.3,59.994948372913164,
block,scrambled,scrambled082.bmp,,,,,0,225,225,225,,,,,,,,,,,,,,,,,,,,,,,,,,,,,,,,,,,,,,,,,,None,,390.6218301500194,None,390.6218301500194,None,2022-06-06-13:13:49.465030,390.62323540006764,390.9390738999937,390.62323540006764,None,None,390.62323540006764,None,391.4226066500414,None,,,,21004,0001,2022_Jun_06_1307,localizer,2021.1.3,59.994948372913164,
block,scrambled,scrambled078.bmp,,,,,0,226,226,226,,,,,,,,,,,,,,,,,,,,,,,,,,,,,,,,,,,,,,,,,,None,,391.4226066500414,None,391.4226066500414,None,2022-06-06-13:13:50.269528,391.4394190001767,391.7395703000948,391.4394190001767,391.4394190001767,None,391.4394190001767,391.4394190001767,392.2375998501666,None,,,,21004,0001,2022_Jun_06_1307,localizer,2021.1.3,59.994948372913164,
block_end,scrambled,scrambled085.bmp,,,,,0,227,227,227,,,,,,,,,,,,,,,,,,,,,,,,,,,,,,,,,,,,,,,,,,None,,392.2375998501666,None,392.2375998501666,None,2022-06-06-13:13:51.080214,392.2464060001075,392.5556559001561,392.2464060001075,None,None,392.2464060001075,None,393.05512955016457,None,,,,21004,0001,2022_Jun_06_1307,localizer,2021.1.3,59.994948372913164,
block_start,faces,faces035.bmp,,,,,0,228,228,228,,,,,,,,,,,,,,,,,,,,,,,,,,,,,,,,,,,,,,,,,,t,1.744565699947998,393.0557494000532,None,393.0557494000532,None,2022-06-06-13:13:53.663183,394.8336041001603,395.13934260001406,394.8336041001603,None,None,394.8336041001603,None,395.64537305012345,None,,,,21004,0001,2022_Jun_06_1307,localizer,2021.1.3,59.994948372913164,
block,faces,faces040.bmp,,,,,0,229,229,229,,,,,,,,,,,,,,,,,,,,,,,,,,,,,,,,,,,,,,,,,,None,,395.64537305012345,None,395.64537305012345,None,2022-06-06-13:13:54.496974,395.6573553001508,395.97319629997946,395.6573553001508,None,None,395.6573553001508,None,396.4549716501497,None,,,,21004,0001,2022_Jun_06_1307,localizer,2021.1.3,59.994948372913164,
block,faces,faces075.bmp,,,,,0,230,230,230,,,,,,,,,,,,,,,,,,,,,,,,,,,,,,,,,,,,,,,,,,None,,396.4549716501497,None,396.4549716501497,None,2022-06-06-13:13:55.297917,396.4642366000917,396.77238620002754,396.4642366000917,None,None,396.4642366000917,None,397.2760239499621,None,,,,21004,0001,2022_Jun_06_1307,localizer,2021.1.3,59.994948372913164,
block,faces,faces074.bmp,,,,,0,231,231,231,,,,,,,,,,,,,,,,,,,,,,,,,,,,,,,,,,,,,,,,,,None,,397.2760239499621,None,397.2760239499621,None,2022-06-06-13:13:56.129014,397.28932610014454,397.5892428001389,397.28932610014454,None,None,397.28932610014454,None,398.08872384997085,None,,,,21004,0001,2022_Jun_06_1307,localizer,2021.1.3,59.994948372913164,
block,faces,faces066.bmp,,,,,0,232,232,232,,,,,,,,,,,,,,,,,,,,,,,,,,,,,,,,,,,,,,,,,,None,,398.08872384997085,None,398.08872384997085,None,2022-06-06-13:13:56.932887,398.0901995000895,398.4061166001484,398.0901995000895,None,None,398.0901995000895,None,398.90553644998,None,,,,21004,0001,2022_Jun_06_1307,localizer,2021.1.3,59.994948372913164,
block,faces,faces022.bmp,,,,,0,233,233,233,,,,,,,,,,,,,,,,,,,,,,,,,,,,,,,,,,,,,,,,,,None,,398.90553644998,None,398.90553644998,None,2022-06-06-13:13:57.749473,398.9067995001096,399.2223039001692,398.9067995001096,None,None,398.9067995001096,None,399.7060286500491,None,,,,21004,0001,2022_Jun_06_1307,localizer,2021.1.3,59.994948372913164,
block,faces,faces038.bmp,,,,,0,234,234,234,,,,,,,,,,,,,,,,,,,,,,,,,,,,,,,,,,,,,,,,,,None,,399.7060286500491,None,399.7060286500491,None,2022-06-06-13:13:58.552040,399.70959069998935,400.0231827001553,399.70959069998935,399.70959069998935,None,399.70959069998935,399.70959069998935,400.5225897501223,None,,,,21004,0001,2022_Jun_06_1307,localizer,2021.1.3,59.994948372913164,
block,faces,faces041.bmp,,,,,0,235,235,235,,,,,,,,,,,,,,,,,,,,,,,,,,,,,,,,,,,,,,,,,,None,,400.5225897501223,None,400.5225897501223,None,2022-06-06-13:13:59.366701,400.5357803001534,400.8386429999955,400.5357803001534,None,None,400.5357803001534,None,401.3383812501561,None,,,,21004,0001,2022_Jun_06_1307,localizer,2021.1.3,59.994948372913164,
block,faces,faces008.bmp,,,,,0,236,236,236,,,,,,,,,,,,,,,,,,,,,,,,,,,,,,,,,,,,,,,,,,None,,401.3383812501561,None,401.3383812501561,None,2022-06-06-13:14:00.181033,401.3490438000299,401.65888250013813,401.3490438000299,None,None,401.3490438000299,None,402.14242435013875,None,,,,21004,0001,2022_Jun_06_1307,localizer,2021.1.3,59.994948372913164,
block,faces,faces010.bmp,,,,,0,237,237,237,,,,,,,,,,,,,,,,,,,,,,,,,,,,,,,,,,,,,,,,,,None,,402.14242435013875,None,402.14242435013875,None,2022-06-06-13:14:00.995265,402.1556446000468,402.4564859000966,402.1556446000468,None,None,402.1556446000468,None,402.95592695008963,None,,,,21004,0001,2022_Jun_06_1307,localizer,2021.1.3,59.994948372913164,
block,faces,faces023.bmp,,,,,0,238,238,238,,,,,,,,,,,,,,,,,,,,,,,,,,,,,,,,,,,,,,,,,,None,,402.95592695008963,None,402.95592695008963,None,2022-06-06-13:14:01.800046,402.96827930002473,403.2725110000465,402.96827930002473,None,None,402.96827930002473,None,403.77203404996544,None,,,,21004,0001,2022_Jun_06_1307,localizer,2021.1.3,59.994948372913164,
block,faces,faces058.bmp,,,,,0,239,239,239,,,,,,,,,,,,,,,,,,,,,,,,,,,,,,,,,,,,,,,,,,None,,403.77203404996544,None,403.77203404996544,None,2022-06-06-13:14:02.614977,403.7733840001747,404.0889799001161,403.7733840001747,None,None,403.7733840001747,None,404.57259985012934,None,,,,21004,0001,2022_Jun_06_1307,localizer,2021.1.3,59.994948372913164,
block,faces,faces031.bmp,,,,,0,240,240,240,,,,,,,,,,,,,,,,,,,,,,,,,,,,,,,,,,,,,,,,,,None,,404.57259985012934,None,404.57259985012934,None,2022-06-06-13:14:03.418716,404.57632010011,404.8899871001486,404.57632010011,404.57632010011,None,404.57632010011,404.57632010011,405.3892571500037,None,,,,21004,0001,2022_Jun_06_1307,localizer,2021.1.3,59.994948372913164,
block,faces,faces047.bmp,,,,,0,241,241,241,,,,,,,,,,,,,,,,,,,,,,,,,,,,,,,,,,,,,,,,,,None,,405.3892571500037,None,405.3892571500037,None,2022-06-06-13:14:04.233168,405.4068577999715,405.7223799000494,405.4068577999715,None,None,405.4068577999715,None,406.2120032501407,None,,,,21004,0001,2022_Jun_06_1307,localizer,2021.1.3,59.994948372913164,
block_end,faces,faces052.bmp,,,,,0,242,242,242,,,,,,,,,,,,,,,,,,,,,,,,,,,,,,,,,,,,,,,,,,None,,406.2120032501407,None,406.2120032501407,None,2022-06-06-13:14:05.062656,406.2193645001389,406.52259700000286,406.2193645001389,None,None,406.2193645001389,None,407.02329715015367,None,,,,21004,0001,2022_Jun_06_1307,localizer,2021.1.3,59.994948372913164,
null_block,null_block,null_block.bmp,,,,,0,243,243,243,,,,,,,,,,,,,,,,,,,,,,,,,,,,,,,,,,,,,,,,,,t,1.7764425000641495,407.02382290014066,None,407.02382290014066,None,2022-06-06-13:14:07.664283,408.8221404501237,None,408.8221404501237,None,None,408.8221404501237,None,408.825269700028,None,,,,21004,0001,2022_Jun_06_1307,localizer,2021.1.3,59.994948372913164,
,,,,,,,,,,,,,,,,,,,,,,,,,,,,,,,,,,,,,,,,,,,,,,,,,,,,,,,,,,,,,,,,,,,,,420.8403421000112,None,,,,,,,
