block_type,condition,img_name,Button.thisRepN,Button.thisTrialN,Button.thisN,Button.thisIndex,trials.thisRepN,trials.thisTrialN,trials.thisN,trials.thisIndex,Ready_experimenter_text.started,Ready_experimenter_text.stopped,Ready_experimenter_resp.keys,Ready_experimenter_resp.rt,Ready_experimenter_resp.started,Ready_experimenter_resp.stopped,Alignment_background.started,Alignment_background.stopped,Alignment_image.started,Alignment_image.stopped,Alignment_resp.keys,Alignment_resp.rt,Alignment_resp.started,Alignment_resp.stopped,Button_text.started,Button_text.stopped,Index_text.started,Index_text.stopped,Index_resp.keys,Index_resp.rt,Index_resp.started,Index_resp.stopped,Middle_text.started,Middle_text.stopped,Middle_resp.keys,Middle_resp.rt,Middle_resp.started,Middle_resp.stopped,Repeat_text.started,Repeat_text.stopped,Repeat_resp.keys,Repeat_resp.corr,Repeat_resp.rt,Repeat_resp.started,Repeat_resp.stopped,instruction_text.started,instruction_text.stopped,key_resp.keys,key_resp.rt,key_resp.started,key_resp.stopped,scanner_t.keys,scanner_t.rt,scanner_t.started,scanner_t.stopped,fixation_wait_for_t.started,fixation_wait_for_t.stopped,real_timestamp_trial_start,image.started,image.stopped,fixation.started,fixation.stopped,repeat_response.keys,repeat_response.started,repeat_response.stopped,fixation_null.started,fixation_null.stopped,repeat_response.rt,end_text.started,end_text.stopped,participant,run,date,expName,psychopyVersion,frameRate,
,,,,,,,,,,,11.141376499999751,None,return,1.5092586999999185,11.141376499999751,None,,,,,,,,,,,,,,,,,,,,,,,,,,,,,,,,,,,,,,,,,,,,,,,,,,,,,,,22003,0001,2022_Jan_21_1119,localizer,2021.1.3,61.26283532967337,
,,,,,,,,,,,,,,,,,12.694492399999945,None,12.694492399999945,None,return,11.090599799999836,12.694492399999945,None,,,,,,,,,,,,,,,,,,,,,,,,,,,,,,,,,,,,,,,,,,,,,,,22003,0001,2022_Jan_21_1119,localizer,2021.1.3,61.26283532967337,
,,,0,0,0,0,,,,,,,,,,,,,,,,,,,23.811021499999697,None,24.826197700000193,None,y,4.414930599999934,24.826197700000193,None,29.277397799999562,None,b,2.9709017999994103,29.277397799999562,None,32.27326699999958,None,n,0,3.0488616000002366,32.27326699999958,None,,,,,,,,,,,,,,,,,,,,,,,,,,22003,0001,2022_Jan_21_1119,localizer,2021.1.3,61.26283532967337,
,,,,,,,,,,,,,,,,,,,,,,,,,,,,,,,,,,,,,,,,,,,,,,35.344641699999556,None,y,13.859692699999869,35.344641699999556,None,,,,,,,,,,,,,,,,,,,,22003,0001,2022_Jan_21_1119,localizer,2021.1.3,61.26283532967337,
null_block,null_block,null_block.bmp,,,,,0,0,0,0,,,,,,,,,,,,,,,,,,,,,,,,,,,,,,,,,,,,,,,,,,t,18.425491100000727,49.286617200000364,None,49.286617200000364,None,2022-01-21-11:20:25.236964,67.75636073999993,None,67.75636073999993,None,None,67.75636073999993,None,67.7541599999995,None,,,,22003,0001,2022_Jan_21_1119,localizer,2021.1.3,61.26283532967337,
block_start,objects,objects082.bmp,,,,,0,1,1,1,,,,,,,,,,,,,,,,,,,,,,,,,,,,,,,,,,,,,,,,,,t,1.9564758000005895,79.75603580000006,None,79.75603580000006,None,2022-01-21-11:20:39.252930,81.76193969999986,82.07401120000031,81.76193969999986,None,None,81.76193969999986,None,82.55734976999983,None,,,,22003,0001,2022_Jan_21_1119,localizer,2021.1.3,61.26283532967337,
block,objects,objects029.bmp,,,,,0,2,2,2,,,,,,,,,,,,,,,,,,,,,,,,,,,,,,,,,,,,,,,,,,None,,82.55734976999983,None,82.55734976999983,None,2022-01-21-11:20:40.059964,82.57147299999997,82.87254389999998,82.57147299999997,None,None,82.57147299999997,None,83.37280507000023,None,,,,22003,0001,2022_Jan_21_1119,localizer,2021.1.3,61.26283532967337,
block,objects,objects071.bmp,,,,,0,3,3,3,,,,,,,,,,,,,,,,,,,,,,,,,,,,,,,,,,,,,,,,,,None,,83.37280507000023,None,83.37280507000023,None,2022-01-21-11:20:40.872560,83.38122440000006,83.68981410000015,83.38122440000006,None,None,83.38122440000006,None,84.18954517000029,None,,,,22003,0001,2022_Jan_21_1119,localizer,2021.1.3,61.26283532967337,
block,objects,objects045.bmp,,,,,0,4,4,4,,,,,,,,,,,,,,,,,,,,,,,,,,,,,,,,,,,,,,,,,,None,,84.18954517000029,None,84.18954517000029,None,2022-01-21-11:20:41.689004,84.19972289999987,84.5061485999995,84.19972289999987,None,None,84.19972289999987,None,85.00653276999955,None,,,,22003,0001,2022_Jan_21_1119,localizer,2021.1.3,61.26283532967337,
block,objects,objects037.bmp,,,,,0,5,5,5,,,,,,,,,,,,,,,,,,,,,,,,,,,,,,,,,,,,,,,,,,None,,85.00653276999955,None,85.00653276999955,None,2022-01-21-11:20:42.505996,85.01661950000016,85.32299760000024,85.01661950000016,None,None,85.01661950000016,None,85.82322577000022,None,,,,22003,0001,2022_Jan_21_1119,localizer,2021.1.3,61.26283532967337,
block,objects,objects020.bmp,,,,,0,6,6,6,,,,,,,,,,,,,,,,,,,,,,,,,,,,,,,,,,,,,,,,,,None,,85.82322577000022,None,85.82322577000022,None,2022-01-21-11:20:43.322924,85.83346619999975,86.14027189999979,85.83346619999975,None,None,85.83346619999975,None,86.63947176999963,None,,,,22003,0001,2022_Jan_21_1119,localizer,2021.1.3,61.26283532967337,
block,objects,objects050.bmp,,,,,0,7,7,7,,,,,,,,,,,,,,,,,,,,,,,,,,,,,,,,,,,,,,,,,,None,,86.63947176999963,None,86.63947176999963,None,2022-01-21-11:20:44.138943,86.64917439999954,86.95592130000023,86.64917439999954,None,None,86.64917439999954,None,87.45745326999995,None,,,,22003,0001,2022_Jan_21_1119,localizer,2021.1.3,61.26283532967337,
block,objects,objects080.bmp,,,,,0,8,8,8,,,,,,,,,,,,,,,,,,,,,,,,,,,,,,,,,,,,,,,,,,None,,87.45745326999995,None,87.45745326999995,None,2022-01-21-11:20:44.957862,87.46602259999963,87.77278070000011,87.46602259999963,None,None,87.46602259999963,None,88.27308036999975,None,,,,22003,0001,2022_Jan_21_1119,localizer,2021.1.3,61.26283532967337,
block,objects,objects010.bmp,,,,,0,9,9,9,,,,,,,,,,,,,,,,,,,,,,,,,,,,,,,,,,,,,,,,,,None,,88.27308036999975,None,88.27308036999975,None,2022-01-21-11:20:45.772803,88.28289219999988,88.58982019999985,88.28289219999988,None,None,88.28289219999988,None,89.08978527000008,None,,,,22003,0001,2022_Jan_21_1119,localizer,2021.1.3,61.26283532967337,
block,objects,objects064.bmp,,,,,0,10,10,10,,,,,,,,,,,,,,,,,,,,,,,,,,,,,,,,,,,,,,,,,,None,,89.08978527000008,None,89.08978527000008,None,2022-01-21-11:20:46.589274,89.0997228999995,89.40596780000033,89.0997228999995,None,None,89.0997228999995,None,89.90613066999967,None,,,,22003,0001,2022_Jan_21_1119,localizer,2021.1.3,61.26283532967337,
block,objects,objects019.bmp,,,,,0,11,11,11,,,,,,,,,,,,,,,,,,,,,,,,,,,,,,,,,,,,,,,,,,None,,89.90613066999967,None,89.90613066999967,None,2022-01-21-11:20:47.405624,89.91103860000021,90.2229897999996,89.91103860000021,None,None,89.91103860000021,None,90.72303046999977,None,,,,22003,0001,2022_Jan_21_1119,localizer,2021.1.3,61.26283532967337,
block,objects,objects028.bmp,,,,,0,12,12,12,,,,,,,,,,,,,,,,,,,,,,,,,,,,,,,,,,,,,,,,,,None,,90.72303046999977,None,90.72303046999977,None,2022-01-21-11:20:48.222729,90.73276150000038,91.03956420000031,90.73276150000038,None,None,90.73276150000038,None,91.53978187000038,None,,,,22003,0001,2022_Jan_21_1119,localizer,2021.1.3,61.26283532967337,
block,objects,objects039.bmp,,,,,0,13,13,13,,,,,,,,,,,,,,,,,,,,,,,,,,,,,,,,,,,,,,,,,,None,,91.53978187000038,None,91.53978187000038,None,2022-01-21-11:20:49.039287,91.54931729999953,91.86261670000022,91.54931729999953,None,None,91.54931729999953,None,92.35645866999957,None,,,,22003,0001,2022_Jan_21_1119,localizer,2021.1.3,61.26283532967337,
block,objects,objects054.bmp,,,,,0,14,14,14,,,,,,,,,,,,,,,,,,,,,,,,,,,,,,,,,,,,,,,,,,None,,92.35645866999957,None,92.35645866999957,None,2022-01-21-11:20:49.856121,92.3656406,92.67286090000016,92.3656406,None,None,92.3656406,None,93.17315227000026,None,,,,22003,0001,2022_Jan_21_1119,localizer,2021.1.3,61.26283532967337,
block_end,objects,objects036.bmp,,,,,0,15,15,15,,,,,,,,,,,,,,,,,,,,,,,,,,,,,,,,,,,,,,,,,,None,,93.17315227000026,None,93.17315227000026,None,2022-01-21-11:20:50.672660,93.18282739999995,93.49003139999968,93.18282739999995,None,None,93.18282739999995,None,93.98990357000011,None,,,,22003,0001,2022_Jan_21_1119,localizer,2021.1.3,61.26283532967337,
block_start,faces,faces036.bmp,,,,,0,16,16,16,,,,,,,,,,,,,,,,,,,,,,,,,,,,,,,,,,,,,,,,,,t,1.7223856000000524,93.98977449999984,None,93.98977449999984,None,2022-01-21-11:20:53.240757,95.75479340000038,96.05680980000034,95.75479340000038,None,None,95.75479340000038,None,96.55651796999982,None,,,,22003,0001,2022_Jan_21_1119,localizer,2021.1.3,61.26283532967337,
block,faces,faces085.bmp,,,,,0,17,17,17,,,,,,,,,,,,,,,,,,,,,,,,,,,,,,,,,,,,,,,,,,None,,96.55651796999982,None,96.55651796999982,None,2022-01-21-11:20:54.056047,96.56641669999954,96.87244639999972,96.56641669999954,None,None,96.56641669999954,None,97.37308767000022,None,,,,22003,0001,2022_Jan_21_1119,localizer,2021.1.3,61.26283532967337,
block,faces,faces024.bmp,,,,,0,18,18,18,,,,,,,,,,,,,,,,,,,,,,,,,,,,,,,,,,,,,,,,,,None,,97.37308767000022,None,97.37308767000022,None,2022-01-21-11:20:54.872620,97.38378139999986,97.68954339999982,97.38378139999986,None,None,97.38378139999986,None,98.19095526999999,None,,,,22003,0001,2022_Jan_21_1119,localizer,2021.1.3,61.26283532967337,
block,faces,faces080.bmp,,,,,0,19,19,19,,,,,,,,,,,,,,,,,,,,,,,,,,,,,,,,,,,,,,,,,,None,,98.19095526999999,None,98.19095526999999,None,2022-01-21-11:20:55.692514,98.21006599999964,98.50959359999979,98.21006599999964,None,None,98.21006599999964,None,99.00705596999987,None,,,,22003,0001,2022_Jan_21_1119,localizer,2021.1.3,61.26283532967337,
block,faces,faces065.bmp,,,,,0,20,20,20,,,,,,,,,,,,,,,,,,,,,,,,,,,,,,,,,,,,,,,,,,None,,99.00705596999987,None,99.00705596999987,None,2022-01-21-11:20:56.507581,99.0226303999998,99.32259909999993,99.0226303999998,None,None,99.0226303999998,None,99.82279337000008,None,,,,22003,0001,2022_Jan_21_1119,localizer,2021.1.3,61.26283532967337,
block,faces,faces010.bmp,,,,,0,21,21,21,,,,,,,,,,,,,,,,,,,,,,,,,,,,,,,,,,,,,,,,,,None,,99.82279337000008,None,99.82279337000008,None,2022-01-21-11:20:57.322624,99.8325160000004,100.13956409999992,99.8325160000004,None,None,99.8325160000004,None,100.63989136999962,None,,,,22003,0001,2022_Jan_21_1119,localizer,2021.1.3,61.26283532967337,
block,faces,faces006.bmp,,,,,0,22,22,22,,,,,,,,,,,,,,,,,,,,,,,,,,,,,,,,,,,,,,,,,,None,,100.63989136999962,None,100.63989136999962,None,2022-01-21-11:20:58.139655,100.65144390000023,100.95662420000008,100.65144390000023,None,None,100.65144390000023,None,101.45633637,None,,,,22003,0001,2022_Jan_21_1119,localizer,2021.1.3,61.26283532967337,
block,faces,faces047.bmp,,,,,0,23,23,23,,,,,,,,,,,,,,,,,,,,,,,,,,,,,,,,,,,,,,,,,,None,,101.45633637,None,101.45633637,None,2022-01-21-11:20:58.955894,101.47056249999969,101.77365819999977,101.47056249999969,None,None,101.47056249999969,None,102.27374946999961,None,,,,22003,0001,2022_Jan_21_1119,localizer,2021.1.3,61.26283532967337,
block,faces,faces055.bmp,,,,,0,24,24,24,,,,,,,,,,,,,,,,,,,,,,,,,,,,,,,,,,,,,,,,,,None,,102.27374946999961,None,102.27374946999961,None,2022-01-21-11:20:59.774300,102.28604869999981,102.5895131999996,102.28604869999981,None,None,102.28604869999981,None,103.09094557000034,None,,,,22003,0001,2022_Jan_21_1119,localizer,2021.1.3,61.26283532967337,
block,faces,faces075.bmp,,,,,0,25,25,25,,,,,,,,,,,,,,,,,,,,,,,,,,,,,,,,,,,,,,,,,,None,,103.09094557000034,None,103.09094557000034,None,2022-01-21-11:21:00.591494,103.10336029999962,103.40606169999955,103.10336029999962,None,None,103.10336029999962,None,103.90625567000015,None,,,,22003,0001,2022_Jan_21_1119,localizer,2021.1.3,61.26283532967337,
block,faces,faces066.bmp,,,,,0,26,26,26,,,,,,,,,,,,,,,,,,,,,,,,,,,,,,,,,,,,,,,,,,None,,103.90625567000015,None,103.90625567000015,None,2022-01-21-11:21:01.405836,103.91470320000008,104.22360730000037,103.91470320000008,None,None,103.91470320000008,None,104.72369317000002,None,,,,22003,0001,2022_Jan_21_1119,localizer,2021.1.3,61.26283532967337,
block,faces,faces030.bmp,,,,,0,27,27,27,,,,,,,,,,,,,,,,,,,,,,,,,,,,,,,,,,,,,,,,,,None,,104.72369317000002,None,104.72369317000002,None,2022-01-21-11:21:02.224229,104.7363648999999,105.03958779999994,104.7363648999999,None,None,104.7363648999999,None,105.53997576999981,None,,,,22003,0001,2022_Jan_21_1119,localizer,2021.1.3,61.26283532967337,
block,faces,faces078.bmp,,,,,0,28,28,28,,,,,,,,,,,,,,,,,,,,,,,,,,,,,,,,,,,,,,,,,,None,,105.53997576999981,None,105.53997576999981,None,2022-01-21-11:21:03.039790,105.55108500000006,105.85635269999966,105.55108500000006,None,None,105.55108500000006,None,106.3561351700001,None,,,,22003,0001,2022_Jan_21_1119,localizer,2021.1.3,61.26283532967337,
block,faces,faces070.bmp,,,,,0,29,29,29,,,,,,,,,,,,,,,,,,,,,,,,,,,,,,,,,,,,,,,,,,None,,106.3561351700001,None,106.3561351700001,None,2022-01-21-11:21:03.855724,106.36123179999959,106.67307970000002,106.36123179999959,None,None,106.36123179999959,None,107.1730618700004,None,,,,22003,0001,2022_Jan_21_1119,localizer,2021.1.3,61.26283532967337,
block_end,faces,faces044.bmp,,,,,0,30,30,30,,,,,,,,,,,,,,,,,,,,,,,,,,,,,,,,,,,,,,,,,,None,,107.1730618700004,None,107.1730618700004,None,2022-01-21-11:21:04.672655,107.18310289999954,107.48854329999995,107.18310289999954,None,None,107.18310289999954,None,107.99024606999964,None,,,,22003,0001,2022_Jan_21_1119,localizer,2021.1.3,61.26283532967337,
block_start,scrambled,scrambled032.bmp,,,,,0,31,31,31,,,,,,,,,,,,,,,,,,,,,,,,,,,,,,,,,,,,,,,,,,t,1.7218441999993956,107.99038430000019,None,107.99038430000019,None,2022-01-21-11:21:07.230995,109.74098369999956,110.05661280000004,109.74098369999956,None,None,109.74098369999956,None,110.53994857000006,None,,,,22003,0001,2022_Jan_21_1119,localizer,2021.1.3,61.26283532967337,
block,scrambled,scrambled005.bmp,,,,,0,32,32,32,,,,,,,,,,,,,,,,,,,,,,,,,,,,,,,,,,,,,,,,,,None,,110.53994857000006,None,110.53994857000006,None,2022-01-21-11:21:08.039876,110.55045669999981,110.85618749999958,110.55045669999981,None,None,110.55045669999981,None,111.3566308700002,None,,,,22003,0001,2022_Jan_21_1119,localizer,2021.1.3,61.26283532967337,
block,scrambled,scrambled047.bmp,,,,,0,33,33,33,,,,,,,,,,,,,,,,,,,,,,,,,,,,,,,,,,,,,,,,,,None,,111.3566308700002,None,111.3566308700002,None,2022-01-21-11:21:08.856296,111.36571939999976,111.67284310000014,111.36571939999976,None,None,111.36571939999976,None,112.17369706999952,None,,,,22003,0001,2022_Jan_21_1119,localizer,2021.1.3,61.26283532967337,
block,scrambled,scrambled064.bmp,,,,,0,34,34,34,,,,,,,,,,,,,,,,,,,,,,,,,,,,,,,,,,,,,,,,,,None,,112.17369706999952,None,112.17369706999952,None,2022-01-21-11:21:09.673293,112.18452880000041,112.48970099999951,112.18452880000041,None,None,112.18452880000041,None,112.99092687000038,None,,,,22003,0001,2022_Jan_21_1119,localizer,2021.1.3,61.26283532967337,
block,scrambled,scrambled074.bmp,,,,,0,35,35,35,,,,,,,,,,,,,,,,,,,,,,,,,,,,,,,,,,,,,,,,,,None,,112.99092687000038,None,112.99092687000038,None,2022-01-21-11:21:10.492497,113.00539459999982,113.30631519999952,113.00539459999982,None,None,113.00539459999982,None,113.80705097000018,None,,,,22003,0001,2022_Jan_21_1119,localizer,2021.1.3,61.26283532967337,
block,scrambled,scrambled044.bmp,,,,,0,36,36,36,,,,,,,,,,,,,,,,,,,,,,,,,,,,,,,,,,,,,,,,,,None,,113.80705097000018,None,113.80705097000018,None,2022-01-21-11:21:11.307866,113.81864649999989,114.12312500000007,113.81864649999989,None,y,113.81864649999989,None,114.62367656999967,None,0.45535110000037093,,,22003,0001,2022_Jan_21_1119,localizer,2021.1.3,61.26283532967337,
block,scrambled,scrambled061.bmp,,,,,0,37,37,37,,,,,,,,,,,,,,,,,,,,,,,,,,,,,,,,,,,,,,,,,,None,,114.62367656999967,None,114.62367656999967,None,2022-01-21-11:21:12.125237,114.63525370000025,114.93944869999996,114.63525370000025,None,None,114.63525370000025,None,115.44084407,None,,,,22003,0001,2022_Jan_21_1119,localizer,2021.1.3,61.26283532967337,
block,scrambled,scrambled035.bmp,,,,,0,38,38,38,,,,,,,,,,,,,,,,,,,,,,,,,,,,,,,,,,,,,,,,,,None,,115.44084407,None,115.44084407,None,2022-01-21-11:21:12.941666,115.45185810000021,115.75665440000012,115.45185810000021,None,None,115.45185810000021,None,116.26271786999959,None,,,,22003,0001,2022_Jan_21_1119,localizer,2021.1.3,61.26283532967337,
block,scrambled,scrambled011.bmp,,,,,0,39,39,39,,,,,,,,,,,,,,,,,,,,,,,,,,,,,,,,,,,,,,,,,,None,,116.26271786999959,None,116.26271786999959,None,2022-01-21-11:21:13.770220,116.27930769999966,116.58954209999956,116.27930769999966,None,None,116.27930769999966,None,117.07280247000025,None,,,,22003,0001,2022_Jan_21_1119,localizer,2021.1.3,61.26283532967337,
block,scrambled,scrambled056.bmp,,,,,0,40,40,40,,,,,,,,,,,,,,,,,,,,,,,,,,,,,,,,,,,,,,,,,,None,,117.07280247000025,None,117.07280247000025,None,2022-01-21-11:21:14.572458,117.08130710000023,117.38949469999989,117.08130710000023,None,None,117.08130710000023,None,117.88981527000041,None,,,,22003,0001,2022_Jan_21_1119,localizer,2021.1.3,61.26283532967337,
block,scrambled,scrambled033.bmp,,,,,0,41,41,41,,,,,,,,,,,,,,,,,,,,,,,,,,,,,,,,,,,,,,,,,,None,,117.88981527000041,None,117.88981527000041,None,2022-01-21-11:21:15.389469,117.89586989999952,118.20633579999958,117.89586989999952,None,None,117.89586989999952,None,118.70637747000009,None,,,,22003,0001,2022_Jan_21_1119,localizer,2021.1.3,61.26283532967337,
block,scrambled,scrambled082.bmp,,,,,0,42,42,42,,,,,,,,,,,,,,,,,,,,,,,,,,,,,,,,,,,,,,,,,,None,,118.70637747000009,None,118.70637747000009,None,2022-01-21-11:21:16.206038,118.71520799999962,119.02307980000023,118.71520799999962,None,None,118.71520799999962,None,119.5232273700004,None,,,,22003,0001,2022_Jan_21_1119,localizer,2021.1.3,61.26283532967337,
block,scrambled,scrambled042.bmp,,,,,0,43,43,43,,,,,,,,,,,,,,,,,,,,,,,,,,,,,,,,,,,,,,,,,,None,,119.5232273700004,None,119.5232273700004,None,2022-01-21-11:21:17.022893,119.53264990000025,119.8397074000004,119.53264990000025,None,None,119.53264990000025,None,120.34048076999997,None,,,,22003,0001,2022_Jan_21_1119,localizer,2021.1.3,61.26283532967337,
block,scrambled,scrambled071.bmp,,,,,0,44,44,44,,,,,,,,,,,,,,,,,,,,,,,,,,,,,,,,,,,,,,,,,,None,,120.34048076999997,None,120.34048076999997,None,2022-01-21-11:21:17.841137,120.35196749999977,120.65640540000004,120.35196749999977,None,None,120.35196749999977,None,121.15659347000027,None,,,,22003,0001,2022_Jan_21_1119,localizer,2021.1.3,61.26283532967337,
block_end,scrambled,scrambled025.bmp,,,,,0,45,45,45,,,,,,,,,,,,,,,,,,,,,,,,,,,,,,,,,,,,,,,,,,None,,121.15659347000027,None,121.15659347000027,None,2022-01-21-11:21:18.656270,121.1665665999999,121.47296449999976,121.1665665999999,None,None,121.1665665999999,None,121.97333696999985,None,,,,22003,0001,2022_Jan_21_1119,localizer,2021.1.3,61.26283532967337,
block_start,scenes,scenes048.bmp,,,,,0,46,46,46,,,,,,,,,,,,,,,,,,,,,,,,,,,,,,,,,,,,,,,,,,t,1.7389271999991252,121.97324469999967,None,121.97324469999967,None,2022-01-21-11:21:21.239094,123.75349759999972,124.05642269999953,123.75349759999972,None,None,123.75349759999972,None,124.55662496999966,None,,,,22003,0001,2022_Jan_21_1119,localizer,2021.1.3,61.26283532967337,
block,scenes,scenes088.bmp,,,,,0,47,47,47,,,,,,,,,,,,,,,,,,,,,,,,,,,,,,,,,,,,,,,,,,None,,124.55662496999966,None,124.55662496999966,None,2022-01-21-11:21:22.056260,124.56649000000016,124.87354570000025,124.56649000000016,None,None,124.56649000000016,None,125.3770384700002,None,,,,22003,0001,2022_Jan_21_1119,localizer,2021.1.3,61.26283532967337,
block,scenes,scenes047.bmp,,,,,0,48,48,48,,,,,,,,,,,,,,,,,,,,,,,,,,,,,,,,,,,,,,,,,,None,,125.3770384700002,None,125.3770384700002,None,2022-01-21-11:21:22.885787,125.39895049999996,125.70672600000034,125.39895049999996,None,None,125.39895049999996,None,126.18996326999977,None,,,,22003,0001,2022_Jan_21_1119,localizer,2021.1.3,61.26283532967337,
block,scenes,scenes042.bmp,,,,,0,49,49,49,,,,,,,,,,,,,,,,,,,,,,,,,,,,,,,,,,,,,,,,,,None,,126.18996326999977,None,126.18996326999977,None,2022-01-21-11:21:23.689991,126.19971650000025,126.50681410000016,126.19971650000025,None,None,126.19971650000025,None,127.00630486999952,None,,,,22003,0001,2022_Jan_21_1119,localizer,2021.1.3,61.26283532967337,
block,scenes,scenes089.bmp,,,,,0,50,50,50,,,,,,,,,,,,,,,,,,,,,,,,,,,,,,,,,,,,,,,,,,None,,127.00630486999952,None,127.00630486999952,None,2022-01-21-11:21:24.506019,127.0149666999996,127.32319749999988,127.0149666999996,None,None,127.0149666999996,None,127.82312017000012,None,,,,22003,0001,2022_Jan_21_1119,localizer,2021.1.3,61.26283532967337,
block,scenes,scenes009.bmp,,,,,0,51,51,51,,,,,,,,,,,,,,,,,,,,,,,,,,,,,,,,,,,,,,,,,,None,,127.82312017000012,None,127.82312017000012,None,2022-01-21-11:21:25.322833,127.83296270000028,128.1395696999998,127.83296270000028,None,None,127.83296270000028,None,128.63994116999956,None,,,,22003,0001,2022_Jan_21_1119,localizer,2021.1.3,61.26283532967337,
block,scenes,scenes080.bmp,,,,,0,52,52,52,,,,,,,,,,,,,,,,,,,,,,,,,,,,,,,,,,,,,,,,,,None,,128.63994116999956,None,128.63994116999956,None,2022-01-21-11:21:26.139659,128.64911699999993,128.95653000000038,128.64911699999993,None,None,128.64911699999993,None,129.45729887000024,None,,,,22003,0001,2022_Jan_21_1119,localizer,2021.1.3,61.26283532967337,
block,scenes,scenes054.bmp,,,,,0,53,53,53,,,,,,,,,,,,,,,,,,,,,,,,,,,,,,,,,,,,,,,,,,None,,129.45729887000024,None,129.45729887000024,None,2022-01-21-11:21:26.957942,129.4698242000004,129.77310959999977,129.4698242000004,None,None,129.4698242000004,None,130.27442386999982,None,,,,22003,0001,2022_Jan_21_1119,localizer,2021.1.3,61.26283532967337,
block,scenes,scenes068.bmp,,,,,0,54,54,54,,,,,,,,,,,,,,,,,,,,,,,,,,,,,,,,,,,,,,,,,,None,,130.27442386999982,None,130.27442386999982,None,2022-01-21-11:21:27.776309,130.2877294,130.58981330000006,130.2877294,None,None,130.2877294,None,131.08997946999997,None,,,,22003,0001,2022_Jan_21_1119,localizer,2021.1.3,61.26283532967337,
block,scenes,scenes033.bmp,,,,,0,55,55,55,,,,,,,,,,,,,,,,,,,,,,,,,,,,,,,,,,,,,,,,,,None,,131.08997946999997,None,131.08997946999997,None,2022-01-21-11:21:28.589727,131.10012720000032,131.40660529999968,131.10012720000032,None,None,131.10012720000032,None,131.90647247000024,None,,,,22003,0001,2022_Jan_21_1119,localizer,2021.1.3,61.26283532967337,
block,scenes,scenes011.bmp,,,,,0,56,56,56,,,,,,,,,,,,,,,,,,,,,,,,,,,,,,,,,,,,,,,,,,None,,131.90647247000024,None,131.90647247000024,None,2022-01-21-11:21:29.406487,131.91476580000017,132.22327200000018,131.91476580000017,None,None,131.91476580000017,None,132.7236011699998,None,,,,22003,0001,2022_Jan_21_1119,localizer,2021.1.3,61.26283532967337,
block,scenes,scenes011.bmp,,,,,0,57,57,57,,,,,,,,,,,,,,,,,,,,,,,,,,,,,,,,,,,,,,,,,,None,,132.7236011699998,None,132.7236011699998,None,2022-01-21-11:21:30.223543,132.72427470000002,133.03985860000012,132.72427470000002,None,None,132.72427470000002,None,133.52431646999966,None,,,,22003,0001,2022_Jan_21_1119,localizer,2021.1.3,61.26283532967337,
block,scenes,scenes061.bmp,,,,,0,58,58,58,,,,,,,,,,,,,,,,,,,,,,,,,,,,,,,,,,,,,,,,,,None,,133.52431646999966,None,133.52431646999966,None,2022-01-21-11:21:31.028230,133.54116030000023,133.85643739999978,133.54116030000023,133.54116030000023,None,133.54116030000023,133.54116030000023,134.33987776999956,None,,,,22003,0001,2022_Jan_21_1119,localizer,2021.1.3,61.26283532967337,
block,scenes,scenes040.bmp,,,,,0,59,59,59,,,,,,,,,,,,,,,,,,,,,,,,,,,,,,,,,,,,,,,,,,None,,134.33987776999956,None,134.33987776999956,None,2022-01-21-11:21:31.839631,134.3496865999996,134.65632970000024,134.3496865999996,None,None,134.3496865999996,None,135.1568641699997,None,,,,22003,0001,2022_Jan_21_1119,localizer,2021.1.3,61.26283532967337,
block_end,scenes,scenes050.bmp,,,,,0,60,60,60,,,,,,,,,,,,,,,,,,,,,,,,,,,,,,,,,,,,,,,,,,None,,135.1568641699997,None,135.1568641699997,None,2022-01-21-11:21:32.656611,135.16709790000004,135.47275609999997,135.16709790000004,None,None,135.16709790000004,None,135.9733409700003,None,,,,22003,0001,2022_Jan_21_1119,localizer,2021.1.3,61.26283532967337,
block_start,scenes,scenes055.bmp,,,,,0,61,61,61,,,,,,,,,,,,,,,,,,,,,,,,,,,,,,,,,,,,,,,,,,t,1.7388664999998582,135.97328879999986,None,135.97328879999986,None,2022-01-21-11:21:35.238766,137.74966399999994,138.05667660000017,137.74966399999994,None,None,137.74966399999994,None,138.5567091699996,None,,,,22003,0001,2022_Jan_21_1119,localizer,2021.1.3,61.26283532967337,
block,scenes,scenes016.bmp,,,,,0,62,62,62,,,,,,,,,,,,,,,,,,,,,,,,,,,,,,,,,,,,,,,,,,None,,138.5567091699996,None,138.5567091699996,None,2022-01-21-11:21:36.056497,138.57303030000003,138.87318779999987,138.57303030000003,None,None,138.57303030000003,None,139.37736397000035,None,,,,22003,0001,2022_Jan_21_1119,localizer,2021.1.3,61.26283532967337,
block,scenes,scenes032.bmp,,,,,0,63,63,63,,,,,,,,,,,,,,,,,,,,,,,,,,,,,,,,,,,,,,,,,,None,,139.37736397000035,None,139.37736397000035,None,2022-01-21-11:21:36.885761,139.39896090000002,139.70623820000037,139.39896090000002,None,None,139.39896090000002,None,140.19025766999957,None,,,,22003,0001,2022_Jan_21_1119,localizer,2021.1.3,61.26283532967337,
block,scenes,scenes052.bmp,,,,,0,64,64,64,,,,,,,,,,,,,,,,,,,,,,,,,,,,,,,,,,,,,,,,,,None,,140.19025766999957,None,140.19025766999957,None,2022-01-21-11:21:37.691189,140.20213559999956,140.5067326999997,140.20213559999956,None,None,140.20213559999956,None,141.00768917000013,None,,,,22003,0001,2022_Jan_21_1119,localizer,2021.1.3,61.26283532967337,
block,scenes,scenes026.bmp,,,,,0,65,65,65,,,,,,,,,,,,,,,,,,,,,,,,,,,,,,,,,,,,,,,,,,None,,141.00768917000013,None,141.00768917000013,None,2022-01-21-11:21:38.508645,141.02075439999953,141.32301149999967,141.02075439999953,None,None,141.02075439999953,None,141.82450586999957,None,,,,22003,0001,2022_Jan_21_1119,localizer,2021.1.3,61.26283532967337,
block,scenes,scenes023.bmp,,,,,0,66,66,66,,,,,,,,,,,,,,,,,,,,,,,,,,,,,,,,,,,,,,,,,,None,,141.82450586999957,None,141.82450586999957,None,2022-01-21-11:21:39.325460,141.83731230000012,142.13961779999954,141.83731230000012,None,None,141.83731230000012,None,142.63984076999995,None,,,,22003,0001,2022_Jan_21_1119,localizer,2021.1.3,61.26283532967337,
block,scenes,scenes091.bmp,,,,,0,67,67,67,,,,,,,,,,,,,,,,,,,,,,,,,,,,,,,,,,,,,,,,,,None,,142.63984076999995,None,142.63984076999995,None,2022-01-21-11:21:40.139642,142.6494302000001,142.95633459999954,142.6494302000001,None,None,142.6494302000001,None,143.45653277000028,None,,,,22003,0001,2022_Jan_21_1119,localizer,2021.1.3,61.26283532967337,
block,scenes,scenes056.bmp,,,,,0,68,68,68,,,,,,,,,,,,,,,,,,,,,,,,,,,,,,,,,,,,,,,,,,None,,143.45653277000028,None,143.45653277000028,None,2022-01-21-11:21:40.956652,143.46505979999984,143.7734064999995,143.46505979999984,None,None,143.46505979999984,None,144.27339597,None,,,,22003,0001,2022_Jan_21_1119,localizer,2021.1.3,61.26283532967337,
block,scenes,scenes037.bmp,,,,,0,69,69,69,,,,,,,,,,,,,,,,,,,,,,,,,,,,,,,,,,,,,,,,,,None,,144.27339597,None,144.27339597,None,2022-01-21-11:21:41.773203,144.28279029999976,144.58982370000012,144.28279029999976,None,None,144.28279029999976,None,145.0910759700001,None,,,,22003,0001,2022_Jan_21_1119,localizer,2021.1.3,61.26283532967337,
block,scenes,scenes079.bmp,,,,,0,70,70,70,,,,,,,,,,,,,,,,,,,,,,,,,,,,,,,,,,,,,,,,,,None,,145.0910759700001,None,145.0910759700001,None,2022-01-21-11:21:42.591867,145.10695490000035,145.40626040000006,145.10695490000035,None,None,145.10695490000035,None,145.8973176700002,None,,,,22003,0001,2022_Jan_21_1119,localizer,2021.1.3,61.26283532967337,
block,scenes,scenes030.bmp,,,,,0,71,71,71,,,,,,,,,,,,,,,,,,,,,,,,,,,,,,,,,,,,,,,,,,None,,145.8973176700002,None,145.8973176700002,None,2022-01-21-11:21:43.405088,145.91770759999963,146.22321529999954,145.91770759999963,None,None,145.91770759999963,None,146.70707686999967,None,,,,22003,0001,2022_Jan_21_1119,localizer,2021.1.3,61.26283532967337,
block,scenes,scenes063.bmp,,,,,0,72,72,72,,,,,,,,,,,,,,,,,,,,,,,,,,,,,,,,,,,,,,,,,,None,,146.70707686999967,None,146.70707686999967,None,2022-01-21-11:21:44.208606,146.7194669999999,147.02569099999982,146.7194669999999,None,None,146.7194669999999,None,147.52397986999958,None,,,,22003,0001,2022_Jan_21_1119,localizer,2021.1.3,61.26283532967337,
block,scenes,scenes020.bmp,,,,,0,73,73,73,,,,,,,,,,,,,,,,,,,,,,,,,,,,,,,,,,,,,,,,,,None,,147.52397986999958,None,147.52397986999958,None,2022-01-21-11:21:45.024996,147.53550639999958,147.84000649999962,147.53550639999958,None,None,147.53550639999958,None,148.34026057000037,None,,,,22003,0001,2022_Jan_21_1119,localizer,2021.1.3,61.26283532967337,
block,scenes,scenes008.bmp,,,,,0,74,74,74,,,,,,,,,,,,,,,,,,,,,,,,,,,,,,,,,,,,,,,,,,None,,148.34026057000037,None,148.34026057000037,None,2022-01-21-11:21:45.840086,148.35041269999965,148.65685049999956,148.35041269999965,None,None,148.35041269999965,None,149.15724047000012,None,,,,22003,0001,2022_Jan_21_1119,localizer,2021.1.3,61.26283532967337,
block_end,scenes,scenes002.bmp,,,,,0,75,75,75,,,,,,,,,,,,,,,,,,,,,,,,,,,,,,,,,,,,,,,,,,None,,149.15724047000012,None,149.15724047000012,None,2022-01-21-11:21:46.658042,149.16869700000007,149.47345459999997,149.16869700000007,None,None,149.16869700000007,None,149.97361627000018,None,,,,22003,0001,2022_Jan_21_1119,localizer,2021.1.3,61.26283532967337,
null_block,null_block,null_block.bmp,,,,,0,76,76,76,,,,,,,,,,,,,,,,,,,,,,,,,,,,,,,,,,,,,,,,,,t,1.7389560999999958,149.9736237999996,None,149.9736237999996,None,2022-01-21-11:21:49.249518,151.74379957000028,None,151.74379957000028,None,None,151.74379957000028,None,151.75387820000014,None,,,,22003,0001,2022_Jan_21_1119,localizer,2021.1.3,61.26283532967337,
block_start,faces,faces062.bmp,,,,,0,77,77,77,,,,,,,,,,,,,,,,,,,,,,,,,,,,,,,,,,,,,,,,,,t,1.9539668999996138,163.7572895000003,None,163.7572895000003,None,2022-01-21-11:22:03.242351,165.7530614999996,166.05629210000006,165.7530614999996,None,None,165.7530614999996,None,166.5573648700002,None,,,,22003,0001,2022_Jan_21_1119,localizer,2021.1.3,61.26283532967337,
block,faces,faces070.bmp,,,,,0,78,78,78,,,,,,,,,,,,,,,,,,,,,,,,,,,,,,,,,,,,,,,,,,None,,166.5573648700002,None,166.5573648700002,None,2022-01-21-11:22:04.058178,166.55880530000013,166.8732947999997,166.55880530000013,None,None,166.55880530000013,None,167.37294776999997,None,,,,22003,0001,2022_Jan_21_1119,localizer,2021.1.3,61.26283532967337,
block,faces,faces065.bmp,,,,,0,79,79,79,,,,,,,,,,,,,,,,,,,,,,,,,,,,,,,,,,,,,,,,,,None,,167.37294776999997,None,167.37294776999997,None,2022-01-21-11:22:04.871969,167.37463190000017,167.6891496999997,167.37463190000017,None,None,167.37463190000017,None,168.19023027000011,None,,,,22003,0001,2022_Jan_21_1119,localizer,2021.1.3,61.26283532967337,
block,faces,faces015.bmp,,,,,0,80,80,80,,,,,,,,,,,,,,,,,,,,,,,,,,,,,,,,,,,,,,,,,,None,,168.19023027000011,None,168.19023027000011,None,2022-01-21-11:22:05.690418,168.20617549999952,168.50659280000036,168.20617549999952,None,None,168.20617549999952,None,169.00669517000014,None,,,,22003,0001,2022_Jan_21_1119,localizer,2021.1.3,61.26283532967337,
block,faces,faces069.bmp,,,,,0,81,81,81,,,,,,,,,,,,,,,,,,,,,,,,,,,,,,,,,,,,,,,,,,None,,169.00669517000014,None,169.00669517000014,None,2022-01-21-11:22:06.506882,169.01674960000037,169.3233167999997,169.01674960000037,None,None,169.01674960000037,None,169.82399007000012,None,,,,22003,0001,2022_Jan_21_1119,localizer,2021.1.3,61.26283532967337,
block,faces,faces074.bmp,,,,,0,82,82,82,,,,,,,,,,,,,,,,,,,,,,,,,,,,,,,,,,,,,,,,,,None,,169.82399007000012,None,169.82399007000012,None,2022-01-21-11:22:07.324929,169.83611689999998,170.13990110000032,169.83611689999998,None,None,169.83611689999998,None,170.6403092700003,None,,,,22003,0001,2022_Jan_21_1119,localizer,2021.1.3,61.26283532967337,
block,faces,faces064.bmp,,,,,0,83,83,83,,,,,,,,,,,,,,,,,,,,,,,,,,,,,,,,,,,,,,,,,,None,,170.6403092700003,None,170.6403092700003,None,2022-01-21-11:22:08.140498,170.65121180000006,170.9570947000002,170.65121180000006,None,None,170.65121180000006,None,171.45796487000015,None,,,,22003,0001,2022_Jan_21_1119,localizer,2021.1.3,61.26283532967337,
block,faces,faces087.bmp,,,,,0,84,84,84,,,,,,,,,,,,,,,,,,,,,,,,,,,,,,,,,,,,,,,,,,None,,171.45796487000015,None,171.45796487000015,None,2022-01-21-11:22:08.961959,171.47390369999994,171.77322209999966,171.47390369999994,None,None,171.47390369999994,None,172.27343827000013,None,,,,22003,0001,2022_Jan_21_1119,localizer,2021.1.3,61.26283532967337,
block,faces,faces056.bmp,,,,,0,85,85,85,,,,,,,,,,,,,,,,,,,,,,,,,,,,,,,,,,,,,,,,,,None,,172.27343827000013,None,172.27343827000013,None,2022-01-21-11:22:09.773410,172.28346039999997,172.59058410000034,172.28346039999997,None,None,172.28346039999997,None,173.09020336999956,None,,,,22003,0001,2022_Jan_21_1119,localizer,2021.1.3,61.26283532967337,
block,faces,faces042.bmp,,,,,0,86,86,86,,,,,,,,,,,,,,,,,,,,,,,,,,,,,,,,,,,,,,,,,,None,,173.09020336999956,None,173.09020336999956,None,2022-01-21-11:22:10.590179,173.09944579999956,173.4063841999996,173.09944579999956,None,None,173.09944579999956,None,173.90684206999967,None,,,,22003,0001,2022_Jan_21_1119,localizer,2021.1.3,61.26283532967337,
block,faces,faces072.bmp,,,,,0,87,87,87,,,,,,,,,,,,,,,,,,,,,,,,,,,,,,,,,,,,,,,,,,None,,173.90684206999967,None,173.90684206999967,None,2022-01-21-11:22:11.406817,173.91718149999997,174.2233812000004,173.91718149999997,None,None,173.91718149999997,None,174.72479337000013,None,,,,22003,0001,2022_Jan_21_1119,localizer,2021.1.3,61.26283532967337,
block,faces,faces072.bmp,,,,,0,88,88,88,,,,,,,,,,,,,,,,,,,,,,,,,,,,,,,,,,,,,,,,,,None,,174.72479337000013,None,174.72479337000013,None,2022-01-21-11:22:12.228800,174.73032590000003,175.04176480000024,174.73032590000003,None,y,174.73032590000003,None,175.5413091700003,None,0.3505595999995421,,,22003,0001,2022_Jan_21_1119,localizer,2021.1.3,61.26283532967337,
block,faces,faces057.bmp,,,,,0,89,89,89,,,,,,,,,,,,,,,,,,,,,,,,,,,,,,,,,,,,,,,,,,None,,175.5413091700003,None,175.5413091700003,None,2022-01-21-11:22:13.044272,175.55602530000033,175.85760300000038,175.55602530000033,None,None,175.55602530000033,None,176.35792426999987,None,,,,22003,0001,2022_Jan_21_1119,localizer,2021.1.3,61.26283532967337,
block,faces,faces061.bmp,,,,,0,90,90,90,,,,,,,,,,,,,,,,,,,,,,,,,,,,,,,,,,,,,,,,,,None,,176.35792426999987,None,176.35792426999987,None,2022-01-21-11:22:13.860088,176.37259259999973,176.67370169999958,176.37259259999973,None,None,176.37259259999973,None,177.1747364699996,None,,,,22003,0001,2022_Jan_21_1119,localizer,2021.1.3,61.26283532967337,
block_end,faces,faces073.bmp,,,,,0,91,91,91,,,,,,,,,,,,,,,,,,,,,,,,,,,,,,,,,,,,,,,,,,None,,177.1747364699996,None,177.1747364699996,None,2022-01-21-11:22:14.678884,177.18921880000016,177.48991209999986,177.18921880000016,None,None,177.18921880000016,None,177.99067447000024,None,,,,22003,0001,2022_Jan_21_1119,localizer,2021.1.3,61.26283532967337,
block_start,objects,objects052.bmp,,,,,0,92,92,92,,,,,,,,,,,,,,,,,,,,,,,,,,,,,,,,,,,,,,,,,,t,1.7205174000000625,177.9906162999996,None,177.9906162999996,None,2022-01-21-11:22:17.240970,179.75070010000036,180.0570375999996,179.75070010000036,None,None,179.75070010000036,None,180.55738947000017,None,,,,22003,0001,2022_Jan_21_1119,localizer,2021.1.3,61.26283532967337,
block,objects,objects003.bmp,,,,,0,93,93,93,,,,,,,,,,,,,,,,,,,,,,,,,,,,,,,,,,,,,,,,,,None,,180.55738947000017,None,180.55738947000017,None,2022-01-21-11:22:18.058393,180.56888640000034,180.87942659999953,180.56888640000034,None,None,180.56888640000034,None,181.37708507000033,None,,,,22003,0001,2022_Jan_21_1119,localizer,2021.1.3,61.26283532967337,
block,objects,objects049.bmp,,,,,0,94,94,94,,,,,,,,,,,,,,,,,,,,,,,,,,,,,,,,,,,,,,,,,,None,,181.37708507000033,None,181.37708507000033,None,2022-01-21-11:22:18.884580,181.39740230000007,181.70708360000026,181.39740230000007,None,None,181.39740230000007,None,182.19016736999956,None,,,,22003,0001,2022_Jan_21_1119,localizer,2021.1.3,61.26283532967337,
block,objects,objects001.bmp,,,,,0,95,95,95,,,,,,,,,,,,,,,,,,,,,,,,,,,,,,,,,,,,,,,,,,None,,182.19016736999956,None,182.19016736999956,None,2022-01-21-11:22:19.690316,182.19942340000034,182.50680980000016,182.19942340000034,None,None,182.19942340000034,None,183.0067870699996,None,,,,22003,0001,2022_Jan_21_1119,localizer,2021.1.3,61.26283532967337,
block,objects,objects042.bmp,,,,,0,96,96,96,,,,,,,,,,,,,,,,,,,,,,,,,,,,,,,,,,,,,,,,,,None,,183.0067870699996,None,183.0067870699996,None,2022-01-21-11:22:20.506821,183.0168590000003,183.32343479999963,183.0168590000003,None,None,183.0168590000003,None,183.8243221699996,None,,,,22003,0001,2022_Jan_21_1119,localizer,2021.1.3,61.26283532967337,
block,objects,objects032.bmp,,,,,0,97,97,97,,,,,,,,,,,,,,,,,,,,,,,,,,,,,,,,,,,,,,,,,,None,,183.8243221699996,None,183.8243221699996,None,2022-01-21-11:22:21.325344,183.83594429999994,184.1405665000002,183.83594429999994,None,None,183.83594429999994,None,184.64088286999967,None,,,,22003,0001,2022_Jan_21_1119,localizer,2021.1.3,61.26283532967337,
block,objects,objects047.bmp,,,,,0,98,98,98,,,,,,,,,,,,,,,,,,,,,,,,,,,,,,,,,,,,,,,,,,None,,184.64088286999967,None,184.64088286999967,None,2022-01-21-11:22:22.142023,184.6525357999999,184.95738489999985,184.6525357999999,None,None,184.6525357999999,None,185.45742766999965,None,,,,22003,0001,2022_Jan_21_1119,localizer,2021.1.3,61.26283532967337,
block,objects,objects083.bmp,,,,,0,99,99,99,,,,,,,,,,,,,,,,,,,,,,,,,,,,,,,,,,,,,,,,,,None,,185.45742766999965,None,185.45742766999965,None,2022-01-21-11:22:22.957656,185.46741649999967,185.77350060000026,185.46741649999967,None,None,185.46741649999967,None,186.27361836999998,None,,,,22003,0001,2022_Jan_21_1119,localizer,2021.1.3,61.26283532967337,
block,objects,objects036.bmp,,,,,0,100,100,100,,,,,,,,,,,,,,,,,,,,,,,,,,,,,,,,,,,,,,,,,,None,,186.27361836999998,None,186.27361836999998,None,2022-01-21-11:22:23.773670,186.27399690000038,186.57452250000006,186.27399690000038,None,None,186.27399690000038,None,187.07477406999996,None,,,,22003,0001,2022_Jan_21_1119,localizer,2021.1.3,61.26283532967337,
block,objects,objects027.bmp,,,,,0,101,101,101,,,,,,,,,,,,,,,,,,,,,,,,,,,,,,,,,,,,,,,,,,None,,187.07477406999996,None,187.07477406999996,None,2022-01-21-11:22:24.579393,187.08902219999982,187.39619409999978,187.08902219999982,187.08902219999982,None,187.08902219999982,187.08902219999982,187.89700966999962,None,,,,22003,0001,2022_Jan_21_1119,localizer,2021.1.3,61.26283532967337,
block,objects,objects021.bmp,,,,,0,102,102,102,,,,,,,,,,,,,,,,,,,,,,,,,,,,,,,,,,,,,,,,,,None,,187.89700966999962,None,187.89700966999962,None,2022-01-21-11:22:25.404029,187.9152838,188.22388919999958,187.9152838,None,None,187.9152838,None,188.70676716999978,None,,,,22003,0001,2022_Jan_21_1119,localizer,2021.1.3,61.26283532967337,
block,objects,objects084.bmp,,,,,0,103,103,103,,,,,,,,,,,,,,,,,,,,,,,,,,,,,,,,,,,,,,,,,,None,,188.70676716999978,None,188.70676716999978,None,2022-01-21-11:22:26.206831,188.7164604999998,189.02465510000002,188.7164604999998,None,None,188.7164604999998,None,189.52359557000008,None,,,,22003,0001,2022_Jan_21_1119,localizer,2021.1.3,61.26283532967337,
block,objects,objects059.bmp,,,,,0,104,104,104,,,,,,,,,,,,,,,,,,,,,,,,,,,,,,,,,,,,,,,,,,None,,189.52359557000008,None,189.52359557000008,None,2022-01-21-11:22:27.023657,189.5334168999998,189.84019369999987,189.5334168999998,None,None,189.5334168999998,None,190.34123666999957,None,,,,22003,0001,2022_Jan_21_1119,localizer,2021.1.3,61.26283532967337,
block,objects,objects011.bmp,,,,,0,105,105,105,,,,,,,,,,,,,,,,,,,,,,,,,,,,,,,,,,,,,,,,,,None,,190.34123666999957,None,190.34123666999957,None,2022-01-21-11:22:27.842341,190.35390000000007,190.65731669999968,190.35390000000007,None,None,190.35390000000007,None,191.1566400700004,None,,,,22003,0001,2022_Jan_21_1119,localizer,2021.1.3,61.26283532967337,
block_end,objects,objects079.bmp,,,,,0,106,106,106,,,,,,,,,,,,,,,,,,,,,,,,,,,,,,,,,,,,,,,,,,None,,191.1566400700004,None,191.1566400700004,None,2022-01-21-11:22:28.656714,191.16510730000027,191.4734516999997,191.16510730000027,None,None,191.16510730000027,None,191.9741282699998,None,,,,22003,0001,2022_Jan_21_1119,localizer,2021.1.3,61.26283532967337,
block_start,scrambled,scrambled052.bmp,,,,,0,107,107,107,,,,,,,,,,,,,,,,,,,,,,,,,,,,,,,,,,,,,,,,,,t,1.7369370999995226,191.97402349999993,None,191.97402349999993,None,2022-01-21-11:22:31.239556,193.7510295000002,194.05719549999958,193.7510295000002,None,None,193.7510295000002,None,194.55744126999988,None,,,,22003,0001,2022_Jan_21_1119,localizer,2021.1.3,61.26283532967337,
block,scrambled,scrambled049.bmp,,,,,0,108,108,108,,,,,,,,,,,,,,,,,,,,,,,,,,,,,,,,,,,,,,,,,,None,,194.55744126999988,None,194.55744126999988,None,2022-01-21-11:22:32.058686,194.56804730000022,194.87452800000028,194.56804730000022,None,None,194.56804730000022,None,195.37436996999995,None,,,,22003,0001,2022_Jan_21_1119,localizer,2021.1.3,61.26283532967337,
block,scrambled,scrambled084.bmp,,,,,0,109,109,109,,,,,,,,,,,,,,,,,,,,,,,,,,,,,,,,,,,,,,,,,,None,,195.37436996999995,None,195.37436996999995,None,2022-01-21-11:22:32.874668,195.3833655999997,195.69032809999953,195.3833655999997,None,None,195.3833655999997,None,196.19125876999996,None,,,,22003,0001,2022_Jan_21_1119,localizer,2021.1.3,61.26283532967337,
block,scrambled,scrambled027.bmp,,,,,0,110,110,110,,,,,,,,,,,,,,,,,,,,,,,,,,,,,,,,,,,,,,,,,,None,,196.19125876999996,None,196.19125876999996,None,2022-01-21-11:22:33.693300,196.20439420000002,196.50655600000027,196.20439420000002,None,None,196.20439420000002,None,197.00817987000036,None,,,,22003,0001,2022_Jan_21_1119,localizer,2021.1.3,61.26283532967337,
block,scrambled,scrambled032.bmp,,,,,0,111,111,111,,,,,,,,,,,,,,,,,,,,,,,,,,,,,,,,,,,,,,,,,,None,,197.00817987000036,None,197.00817987000036,None,2022-01-21-11:22:34.510241,197.01018579999982,197.32411130000037,197.01018579999982,None,None,197.01018579999982,None,197.82376006999957,None,,,,22003,0001,2022_Jan_21_1119,localizer,2021.1.3,61.26283532967337,
block,scrambled,scrambled030.bmp,,,,,0,112,112,112,,,,,,,,,,,,,,,,,,,,,,,,,,,,,,,,,,,,,,,,,,None,,197.82376006999957,None,197.82376006999957,None,2022-01-21-11:22:35.323840,197.83364359999996,198.14083759999994,197.83364359999996,None,None,197.83364359999996,None,198.64069366999965,None,,,,22003,0001,2022_Jan_21_1119,localizer,2021.1.3,61.26283532967337,
block,scrambled,scrambled039.bmp,,,,,0,113,113,113,,,,,,,,,,,,,,,,,,,,,,,,,,,,,,,,,,,,,,,,,,None,,198.64069366999965,None,198.64069366999965,None,2022-01-21-11:22:36.141108,198.6515000999998,198.95711130000018,198.6515000999998,None,None,198.6515000999998,None,199.45685796999996,None,,,,22003,0001,2022_Jan_21_1119,localizer,2021.1.3,61.26283532967337,
block,scrambled,scrambled015.bmp,,,,,0,114,114,114,,,,,,,,,,,,,,,,,,,,,,,,,,,,,,,,,,,,,,,,,,None,,199.45685796999996,None,199.45685796999996,None,2022-01-21-11:22:36.956948,199.46541760000036,199.77356950000012,199.46541760000036,None,None,199.46541760000036,None,200.2747701700001,None,,,,22003,0001,2022_Jan_21_1119,localizer,2021.1.3,61.26283532967337,
block,scrambled,scrambled037.bmp,,,,,0,115,115,115,,,,,,,,,,,,,,,,,,,,,,,,,,,,,,,,,,,,,,,,,,None,,200.2747701700001,None,200.2747701700001,None,2022-01-21-11:22:37.775839,200.2874482999996,200.59045969999988,200.2874482999996,None,None,200.2874482999996,None,201.08039406999987,None,,,,22003,0001,2022_Jan_21_1119,localizer,2021.1.3,61.26283532967337,
block,scrambled,scrambled073.bmp,,,,,0,116,116,116,,,,,,,,,,,,,,,,,,,,,,,,,,,,,,,,,,,,,,,,,,None,,201.08039406999987,None,201.08039406999987,None,2022-01-21-11:22:38.587280,201.09357470000032,201.4067038000003,201.09357470000032,None,None,201.09357470000032,None,201.89025426999987,None,,,,22003,0001,2022_Jan_21_1119,localizer,2021.1.3,61.26283532967337,
block,scrambled,scrambled008.bmp,,,,,0,117,117,117,,,,,,,,,,,,,,,,,,,,,,,,,,,,,,,,,,,,,,,,,,None,,201.89025426999987,None,201.89025426999987,None,2022-01-21-11:22:39.390527,201.8985101999997,202.20704099999966,201.8985101999997,None,None,201.8985101999997,None,202.70718676999977,None,,,,22003,0001,2022_Jan_21_1119,localizer,2021.1.3,61.26283532967337,
block,scrambled,scrambled002.bmp,,,,,0,118,118,118,,,,,,,,,,,,,,,,,,,,,,,,,,,,,,,,,,,,,,,,,,None,,202.70718676999977,None,202.70718676999977,None,2022-01-21-11:22:40.207277,202.71792509999977,203.02374529999997,202.71792509999977,None,None,202.71792509999977,None,203.52398576999994,None,,,,22003,0001,2022_Jan_21_1119,localizer,2021.1.3,61.26283532967337,
block,scrambled,scrambled031.bmp,,,,,0,119,119,119,,,,,,,,,,,,,,,,,,,,,,,,,,,,,,,,,,,,,,,,,,None,,203.52398576999994,None,203.52398576999994,None,2022-01-21-11:22:41.024261,203.5349100000003,203.84134129999984,203.5349100000003,None,None,203.5349100000003,None,204.34050666999983,None,,,,22003,0001,2022_Jan_21_1119,localizer,2021.1.3,61.26283532967337,
block,scrambled,scrambled056.bmp,,,,,0,120,120,120,,,,,,,,,,,,,,,,,,,,,,,,,,,,,,,,,,,,,,,,,,None,,204.34050666999983,None,204.34050666999983,None,2022-01-21-11:22:41.840843,204.34112110000024,204.6406522999996,204.34112110000024,None,None,204.34112110000024,None,205.14072037000014,None,,,,22003,0001,2022_Jan_21_1119,localizer,2021.1.3,61.26283532967337,
block_end,scrambled,scrambled044.bmp,,,,,0,121,121,121,,,,,,,,,,,,,,,,,,,,,,,,,,,,,,,,,,,,,,,,,,None,,205.14072037000014,None,205.14072037000014,None,2022-01-21-11:22:42.643991,205.14358290000018,205.45720230000006,205.14358290000018,205.14358290000018,None,205.14358290000018,205.14358290000018,205.95739446999968,None,,,,22003,0001,2022_Jan_21_1119,localizer,2021.1.3,61.26283532967337,
block_start,scenes,scenes034.bmp,,,,,0,122,122,122,,,,,,,,,,,,,,,,,,,,,,,,,,,,,,,,,,,,,,,,,,t,1.7540591000006316,205.95713179999984,None,205.95713179999984,None,2022-01-21-11:22:45.240688,207.7516502999997,208.05679090000012,207.7516502999997,None,None,207.7516502999997,None,208.55818137000014,None,,,,22003,0001,2022_Jan_21_1119,localizer,2021.1.3,61.26283532967337,
block,scenes,scenes057.bmp,,,,,0,123,123,123,,,,,,,,,,,,,,,,,,,,,,,,,,,,,,,,,,,,,,,,,,None,,208.55818137000014,None,208.55818137000014,None,2022-01-21-11:22:46.062338,208.5734550999996,208.87365810000028,208.5734550999996,None,None,208.5734550999996,None,209.37361737,None,,,,22003,0001,2022_Jan_21_1119,localizer,2021.1.3,61.26283532967337,
block,scenes,scenes038.bmp,,,,,0,124,124,124,,,,,,,,,,,,,,,,,,,,,,,,,,,,,,,,,,,,,,,,,,None,,209.37361737,None,209.37361737,None,2022-01-21-11:22:46.873043,209.38297039999998,209.69076399999994,209.38297039999998,None,None,209.38297039999998,None,210.18999987000015,None,,,,22003,0001,2022_Jan_21_1119,localizer,2021.1.3,61.26283532967337,
block,scenes,scenes028.bmp,,,,,0,125,125,125,,,,,,,,,,,,,,,,,,,,,,,,,,,,,,,,,,,,,,,,,,None,,210.18999987000015,None,210.18999987000015,None,2022-01-21-11:22:47.690121,210.19852850000007,210.50663090000035,210.19852850000007,None,None,210.19852850000007,None,211.0072113699999,None,,,,22003,0001,2022_Jan_21_1119,localizer,2021.1.3,61.26283532967337,
block,scenes,scenes082.bmp,,,,,0,126,126,126,,,,,,,,,,,,,,,,,,,,,,,,,,,,,,,,,,,,,,,,,,None,,211.0072113699999,None,211.0072113699999,None,2022-01-21-11:22:48.507325,211.01817260000007,211.32361729999957,211.01817260000007,None,None,211.01817260000007,None,211.82325897000018,None,,,,22003,0001,2022_Jan_21_1119,localizer,2021.1.3,61.26283532967337,
block,scenes,scenes074.bmp,,,,,0,127,127,127,,,,,,,,,,,,,,,,,,,,,,,,,,,,,,,,,,,,,,,,,,None,,211.82325897000018,None,211.82325897000018,None,2022-01-21-11:22:49.323385,211.8325979000001,212.14058579999983,211.8325979000001,None,None,211.8325979000001,None,212.64152056999964,None,,,,22003,0001,2022_Jan_21_1119,localizer,2021.1.3,61.26283532967337,
block,scenes,scenes059.bmp,,,,,0,128,128,128,,,,,,,,,,,,,,,,,,,,,,,,,,,,,,,,,,,,,,,,,,None,,212.64152056999964,None,212.64152056999964,None,2022-01-21-11:22:50.144356,212.65444579999985,212.95672819999982,212.65444579999985,None,None,212.65444579999985,None,213.4573888699998,None,,,,22003,0001,2022_Jan_21_1119,localizer,2021.1.3,61.26283532967337,
block,scenes,scenes076.bmp,,,,,0,129,129,129,,,,,,,,,,,,,,,,,,,,,,,,,,,,,,,,,,,,,,,,,,None,,213.4573888699998,None,213.4573888699998,None,2022-01-21-11:22:50.957705,213.46934909999982,213.77398619999985,213.46934909999982,None,None,213.46934909999982,None,214.2743987699997,None,,,,22003,0001,2022_Jan_21_1119,localizer,2021.1.3,61.26283532967337,
block,scenes,scenes029.bmp,,,,,0,130,130,130,,,,,,,,,,,,,,,,,,,,,,,,,,,,,,,,,,,,,,,,,,None,,214.2743987699997,None,214.2743987699997,None,2022-01-21-11:22:51.775468,214.28596740000012,214.5902646000004,214.28596740000012,None,None,214.28596740000012,None,215.0903189700003,None,,,,22003,0001,2022_Jan_21_1119,localizer,2021.1.3,61.26283532967337,
block,scenes,scenes060.bmp,,,,,0,131,131,131,,,,,,,,,,,,,,,,,,,,,,,,,,,,,,,,,,,,,,,,,,None,,215.0903189700003,None,215.0903189700003,None,2022-01-21-11:22:52.590767,215.1016778000003,215.40687139999955,215.1016778000003,None,None,215.1016778000003,None,215.90695616999992,None,,,,22003,0001,2022_Jan_21_1119,localizer,2021.1.3,61.26283532967337,
block,scenes,scenes035.bmp,,,,,0,132,132,132,,,,,,,,,,,,,,,,,,,,,,,,,,,,,,,,,,,,,,,,,,None,,215.90695616999992,None,215.90695616999992,None,2022-01-21-11:22:53.407086,215.91657000000032,216.22348320000037,215.91657000000032,None,None,215.91657000000032,None,216.72488446999986,None,,,,22003,0001,2022_Jan_21_1119,localizer,2021.1.3,61.26283532967337,
block,scenes,scenes018.bmp,,,,,0,133,133,133,,,,,,,,,,,,,,,,,,,,,,,,,,,,,,,,,,,,,,,,,,None,,216.72488446999986,None,216.72488446999986,None,2022-01-21-11:22:54.226992,216.7350048999997,217.0402627000003,216.7350048999997,None,None,216.7350048999997,None,217.54302927000035,None,,,,22003,0001,2022_Jan_21_1119,localizer,2021.1.3,61.26283532967337,
block,scenes,scenes071.bmp,,,,,0,134,134,134,,,,,,,,,,,,,,,,,,,,,,,,,,,,,,,,,,,,,,,,,,None,,217.54302927000035,None,217.54302927000035,None,2022-01-21-11:22:55.047294,217.55906030000006,217.87344889999986,217.55906030000006,None,None,217.55906030000006,None,218.35697956999965,None,,,,22003,0001,2022_Jan_21_1119,localizer,2021.1.3,61.26283532967337,
block,scenes,scenes013.bmp,,,,,0,135,135,135,,,,,,,,,,,,,,,,,,,,,,,,,,,,,,,,,,,,,,,,,,None,,218.35697956999965,None,218.35697956999965,None,2022-01-21-11:22:55.857115,218.36534120000033,218.67329150000023,218.36534120000033,None,None,218.36534120000033,None,219.17370496999965,None,,,,22003,0001,2022_Jan_21_1119,localizer,2021.1.3,61.26283532967337,
block_end,scenes,scenes046.bmp,,,,,0,136,136,136,,,,,,,,,,,,,,,,,,,,,,,,,,,,,,,,,,,,,,,,,,None,,219.17370496999965,None,219.17370496999965,None,2022-01-21-11:22:56.673843,219.17890819999957,219.4900501000002,219.17890819999957,None,None,219.17890819999957,None,219.99166196999985,None,,,,22003,0001,2022_Jan_21_1119,localizer,2021.1.3,61.26283532967337,
block_start,faces,faces075.bmp,,,,,0,137,137,137,,,,,,,,,,,,,,,,,,,,,,,,,,,,,,,,,,,,,,,,,,t,1.7196665000001303,219.99147569999968,None,219.99147569999968,None,2022-01-21-11:22:59.244031,221.7508783000003,222.05847369999992,221.7508783000003,None,None,221.7508783000003,None,222.55674437000025,None,,,,22003,0001,2022_Jan_21_1119,localizer,2021.1.3,61.26283532967337,
block,faces,faces067.bmp,,,,,0,138,138,138,,,,,,,,,,,,,,,,,,,,,,,,,,,,,,,,,,,,,,,,,,None,,222.55674437000025,None,222.55674437000025,None,2022-01-21-11:23:00.057025,222.56649170000037,222.8735397999999,222.56649170000037,None,None,222.56649170000037,None,223.3740958700001,None,,,,22003,0001,2022_Jan_21_1119,localizer,2021.1.3,61.26283532967337,
block,faces,faces008.bmp,,,,,0,139,139,139,,,,,,,,,,,,,,,,,,,,,,,,,,,,,,,,,,,,,,,,,,None,,223.3740958700001,None,223.3740958700001,None,2022-01-21-11:23:00.873142,223.38296609999998,223.6904324999996,223.38296609999998,None,None,223.38296609999998,None,224.19008976999984,None,,,,22003,0001,2022_Jan_21_1119,localizer,2021.1.3,61.26283532967337,
block,faces,faces022.bmp,,,,,0,140,140,140,,,,,,,,,,,,,,,,,,,,,,,,,,,,,,,,,,,,,,,,,,None,,224.19008976999984,None,224.19008976999984,None,2022-01-21-11:23:01.690933,224.19551130000036,224.5068551000004,224.19551130000036,None,None,224.19551130000036,None,225.00714907000028,None,,,,22003,0001,2022_Jan_21_1119,localizer,2021.1.3,61.26283532967337,
block,faces,faces016.bmp,,,,,0,141,141,141,,,,,,,,,,,,,,,,,,,,,,,,,,,,,,,,,,,,,,,,,,None,,225.00714907000028,None,225.00714907000028,None,2022-01-21-11:23:02.507679,225.01803050000035,225.32435439999972,225.01803050000035,None,None,225.01803050000035,None,225.82449017000008,None,,,,22003,0001,2022_Jan_21_1119,localizer,2021.1.3,61.26283532967337,
block,faces,faces055.bmp,,,,,0,142,142,142,,,,,,,,,,,,,,,,,,,,,,,,,,,,,,,,,,,,,,,,,,None,,225.82449017000008,None,225.82449017000008,None,2022-01-21-11:23:03.325805,225.8267211000002,226.1401937999999,225.8267211000002,None,None,225.8267211000002,None,226.64042597000034,None,,,,22003,0001,2022_Jan_21_1119,localizer,2021.1.3,61.26283532967337,
block,faces,faces049.bmp,,,,,0,143,143,143,,,,,,,,,,,,,,,,,,,,,,,,,,,,,,,,,,,,,,,,,,None,,226.64042597000034,None,226.64042597000034,None,2022-01-21-11:23:04.140582,226.64569399999982,226.95689549999952,226.64569399999982,None,None,226.64569399999982,None,227.45702247000017,None,,,,22003,0001,2022_Jan_21_1119,localizer,2021.1.3,61.26283532967337,
block,faces,faces073.bmp,,,,,0,144,144,144,,,,,,,,,,,,,,,,,,,,,,,,,,,,,,,,,,,,,,,,,,None,,227.45702247000017,None,227.45702247000017,None,2022-01-21-11:23:04.957182,227.4577906000004,227.75765440000032,227.4577906000004,None,None,227.4577906000004,None,228.25736006999986,None,,,,22003,0001,2022_Jan_21_1119,localizer,2021.1.3,61.26283532967337,
block,faces,faces011.bmp,,,,,0,145,145,145,,,,,,,,,,,,,,,,,,,,,,,,,,,,,,,,,,,,,,,,,,None,,228.25736006999986,None,228.25736006999986,None,2022-01-21-11:23:05.759549,228.2653779000002,228.5737054000001,228.2653779000002,228.2653779000002,None,228.2653779000002,228.2653779000002,229.07400566999976,None,,,,22003,0001,2022_Jan_21_1119,localizer,2021.1.3,61.26283532967337,
block,faces,faces050.bmp,,,,,0,146,146,146,,,,,,,,,,,,,,,,,,,,,,,,,,,,,,,,,,,,,,,,,,None,,229.07400566999976,None,229.07400566999976,None,2022-01-21-11:23:06.574363,229.08486220000032,229.39506259999962,229.08486220000032,None,None,229.08486220000032,None,229.8900109699999,None,,,,22003,0001,2022_Jan_21_1119,localizer,2021.1.3,61.26283532967337,
block,faces,faces059.bmp,,,,,0,147,147,147,,,,,,,,,,,,,,,,,,,,,,,,,,,,,,,,,,,,,,,,,,None,,229.8900109699999,None,229.8900109699999,None,2022-01-21-11:23:07.389907,229.89936599999965,230.20691650000026,229.89936599999965,None,None,229.89936599999965,None,230.70733327000025,None,,,,22003,0001,2022_Jan_21_1119,localizer,2021.1.3,61.26283532967337,
block,faces,faces040.bmp,,,,,0,148,148,148,,,,,,,,,,,,,,,,,,,,,,,,,,,,,,,,,,,,,,,,,,None,,230.70733327000025,None,230.70733327000025,None,2022-01-21-11:23:08.207496,230.71721030000026,231.02413780000006,230.71721030000026,None,None,230.71721030000026,None,231.5238131699999,None,,,,22003,0001,2022_Jan_21_1119,localizer,2021.1.3,61.26283532967337,
block,faces,faces086.bmp,,,,,0,149,149,149,,,,,,,,,,,,,,,,,,,,,,,,,,,,,,,,,,,,,,,,,,None,,231.5238131699999,None,231.5238131699999,None,2022-01-21-11:23:09.023978,231.5327060999998,231.8407917000004,231.5327060999998,None,None,231.5327060999998,None,232.34108257000034,None,,,,22003,0001,2022_Jan_21_1119,localizer,2021.1.3,61.26283532967337,
block,faces,faces029.bmp,,,,,0,150,150,150,,,,,,,,,,,,,,,,,,,,,,,,,,,,,,,,,,,,,,,,,,None,,232.34108257000034,None,232.34108257000034,None,2022-01-21-11:23:09.843235,232.35088650000034,232.65694239999993,232.35088650000034,None,None,232.35088650000034,None,233.15718337000007,None,,,,22003,0001,2022_Jan_21_1119,localizer,2021.1.3,61.26283532967337,
block_end,faces,faces043.bmp,,,,,0,151,151,151,,,,,,,,,,,,,,,,,,,,,,,,,,,,,,,,,,,,,,,,,,None,,233.15718337000007,None,233.15718337000007,None,2022-01-21-11:23:10.658102,233.1692707000002,233.4737580000001,233.1692707000002,None,None,233.1692707000002,None,233.97422447000017,None,,,,22003,0001,2022_Jan_21_1119,localizer,2021.1.3,61.26283532967337,
null_block,null_block,null_block.bmp,,,,,0,152,152,152,,,,,,,,,,,,,,,,,,,,,,,,,,,,,,,,,,,,,,,,,,t,1.7369323000002623,233.97406200000023,None,233.97406200000023,None,2022-01-21-11:23:13.241318,235.74096567000024,None,235.74096567000024,None,None,235.74096567000024,None,235.74539079999977,None,,,,22003,0001,2022_Jan_21_1119,localizer,2021.1.3,61.26283532967337,
block_start,objects,objects087.bmp,,,,,0,153,153,153,,,,,,,,,,,,,,,,,,,,,,,,,,,,,,,,,,,,,,,,,,t,1.952636199999688,247.7583070999999,None,247.7583070999999,None,2022-01-21-11:23:27.245874,249.7548052000002,250.05741709999984,249.7548052000002,None,None,249.7548052000002,None,250.55787496999992,None,,,,22003,0001,2022_Jan_21_1119,localizer,2021.1.3,61.26283532967337,
block,objects,objects064.bmp,,,,,0,154,154,154,,,,,,,,,,,,,,,,,,,,,,,,,,,,,,,,,,,,,,,,,,None,,250.55787496999992,None,250.55787496999992,None,2022-01-21-11:23:28.059077,250.55951259999983,250.87452389999999,250.55951259999983,None,None,250.55951259999983,None,251.37416777000007,None,,,,22003,0001,2022_Jan_21_1119,localizer,2021.1.3,61.26283532967337,
block,objects,objects039.bmp,,,,,0,155,155,155,,,,,,,,,,,,,,,,,,,,,,,,,,,,,,,,,,,,,,,,,,None,,251.37416777000007,None,251.37416777000007,None,2022-01-21-11:23:28.873392,251.37510740000016,251.6903873000001,251.37510740000016,None,None,251.37510740000016,None,252.17421387000022,None,,,,22003,0001,2022_Jan_21_1119,localizer,2021.1.3,61.26283532967337,
block,objects,objects069.bmp,,,,,0,156,156,156,,,,,,,,,,,,,,,,,,,,,,,,,,,,,,,,,,,,,,,,,,None,,252.17421387000022,None,252.17421387000022,None,2022-01-21-11:23:29.677419,252.1878286000001,252.4904244999998,252.1878286000001,252.1878286000001,None,252.1878286000001,252.1878286000001,252.99095916999985,None,,,,22003,0001,2022_Jan_21_1119,localizer,2021.1.3,61.26283532967337,
block,objects,objects075.bmp,,,,,0,157,157,157,,,,,,,,,,,,,,,,,,,,,,,,,,,,,,,,,,,,,,,,,,None,,252.99095916999985,None,252.99095916999985,None,2022-01-21-11:23:30.492368,253.00190949999978,253.30760230000033,253.00190949999978,None,None,253.00190949999978,None,253.80736967000038,None,,,,22003,0001,2022_Jan_21_1119,localizer,2021.1.3,61.26283532967337,
block,objects,objects083.bmp,,,,,0,158,158,158,,,,,,,,,,,,,,,,,,,,,,,,,,,,,,,,,,,,,,,,,,None,,253.80736967000038,None,253.80736967000038,None,2022-01-21-11:23:31.307783,253.80810889999975,254.10723020000023,253.80810889999975,None,None,253.80810889999975,None,254.60796256999956,None,,,,22003,0001,2022_Jan_21_1119,localizer,2021.1.3,61.26283532967337,
block,objects,objects030.bmp,,,,,0,159,159,159,,,,,,,,,,,,,,,,,,,,,,,,,,,,,,,,,,,,,,,,,,None,,254.60796256999956,None,254.60796256999956,None,2022-01-21-11:23:32.111365,254.6220360999996,254.92362739999953,254.6220360999996,254.6220360999996,None,254.6220360999996,254.6220360999996,255.4242573700004,None,,,,22003,0001,2022_Jan_21_1119,localizer,2021.1.3,61.26283532967337,
block,objects,objects002.bmp,,,,,0,160,160,160,,,,,,,,,,,,,,,,,,,,,,,,,,,,,,,,,,,,,,,,,,None,,255.4242573700004,None,255.4242573700004,None,2022-01-21-11:23:32.924659,255.43623509999998,255.74105830000008,255.43623509999998,None,None,255.43623509999998,None,256.2407421700001,None,,,,22003,0001,2022_Jan_21_1119,localizer,2021.1.3,61.26283532967337,
block,objects,objects082.bmp,,,,,0,161,161,161,,,,,,,,,,,,,,,,,,,,,,,,,,,,,,,,,,,,,,,,,,None,,256.2407421700001,None,256.2407421700001,None,2022-01-21-11:23:33.740968,256.2414816999999,256.5633035999999,256.2414816999999,None,None,256.2414816999999,None,257.0454148700002,None,,,,22003,0001,2022_Jan_21_1119,localizer,2021.1.3,61.26283532967337,
block,objects,objects022.bmp,,,,,0,162,162,162,,,,,,,,,,,,,,,,,,,,,,,,,,,,,,,,,,,,,,,,,,None,,257.0454148700002,None,257.0454148700002,None,2022-01-21-11:23:34.548784,257.0604800000001,257.37357820000034,257.0604800000001,None,None,257.0604800000001,None,257.85762826999974,None,,,,22003,0001,2022_Jan_21_1119,localizer,2021.1.3,61.26283532967337,
block,objects,objects003.bmp,,,,,0,163,163,163,,,,,,,,,,,,,,,,,,,,,,,,,,,,,,,,,,,,,,,,,,None,,257.85762826999974,None,257.85762826999974,None,2022-01-21-11:23:35.359048,257.85808459999953,258.15756710000005,257.85808459999953,None,None,257.85808459999953,None,258.6575504699996,None,,,,22003,0001,2022_Jan_21_1119,localizer,2021.1.3,61.26283532967337,
block,objects,objects068.bmp,,,,,0,164,164,164,,,,,,,,,,,,,,,,,,,,,,,,,,,,,,,,,,,,,,,,,,None,,258.6575504699996,None,258.6575504699996,None,2022-01-21-11:23:36.160847,258.6697459999996,258.9738619,258.6697459999996,258.6697459999996,None,258.6697459999996,258.6697459999996,259.47387377000007,None,,,,22003,0001,2022_Jan_21_1119,localizer,2021.1.3,61.26283532967337,
block,objects,objects088.bmp,,,,,0,165,165,165,,,,,,,,,,,,,,,,,,,,,,,,,,,,,,,,,,,,,,,,,,None,,259.47387377000007,None,259.47387377000007,None,2022-01-21-11:23:36.974113,259.4828305000001,259.79077739999957,259.4828305000001,None,None,259.4828305000001,None,260.28026157000033,None,,,,22003,0001,2022_Jan_21_1119,localizer,2021.1.3,61.26283532967337,
block,objects,objects042.bmp,,,,,0,166,166,166,,,,,,,,,,,,,,,,,,,,,,,,,,,,,,,,,,,,,,,,,,None,,260.28026157000033,None,260.28026157000033,None,2022-01-21-11:23:37.786477,260.2866654999998,260.59100430000035,260.2866654999998,None,None,260.2866654999998,None,261.0907368700001,None,,,,22003,0001,2022_Jan_21_1119,localizer,2021.1.3,61.26283532967337,
block_end,objects,objects010.bmp,,,,,0,167,167,167,,,,,,,,,,,,,,,,,,,,,,,,,,,,,,,,,,,,,,,,,,None,,261.0907368700001,None,261.0907368700001,None,2022-01-21-11:23:38.591311,261.0914477999995,261.3960715000003,261.0914477999995,None,None,261.0914477999995,None,261.89128766999977,None,,,,22003,0001,2022_Jan_21_1119,localizer,2021.1.3,61.26283532967337,
block_start,scrambled,scrambled055.bmp,,,,,0,168,168,168,,,,,,,,,,,,,,,,,,,,,,,,,,,,,,,,,,,,,,,,,,t,1.8200103999997737,261.8911557000001,None,261.8911557000001,None,2022-01-21-11:23:41.240252,263.74567389999993,264.0571366000004,263.74567389999993,None,None,263.74567389999993,None,264.55718417000037,None,,,,22003,0001,2022_Jan_21_1119,localizer,2021.1.3,61.26283532967337,
block,scrambled,scrambled046.bmp,,,,,0,169,169,169,,,,,,,,,,,,,,,,,,,,,,,,,,,,,,,,,,,,,,,,,,None,,264.55718417000037,None,264.55718417000037,None,2022-01-21-11:23:42.057432,264.5661491000001,264.8812846999999,264.5661491000001,None,None,264.5661491000001,None,265.37768657000026,None,,,,22003,0001,2022_Jan_21_1119,localizer,2021.1.3,61.26283532967337,
block,scrambled,scrambled046.bmp,,,,,0,170,170,170,,,,,,,,,,,,,,,,,,,,,,,,,,,,,,,,,,,,,,,,,,None,,265.37768657000026,None,265.37768657000026,None,2022-01-21-11:23:42.887987,265.3864432999999,265.69082270000035,265.3864432999999,None,None,265.3864432999999,None,266.19073657,None,,,,22003,0001,2022_Jan_21_1119,localizer,2021.1.3,61.26283532967337,
block,scrambled,scrambled006.bmp,,,,,0,171,171,171,,,,,,,,,,,,,,,,,,,,,,,,,,,,,,,,,,,,,,,,,,None,,266.19073657,None,266.19073657,None,2022-01-21-11:23:43.691179,266.20092750000003,266.50749480000013,266.20092750000003,None,None,266.20092750000003,None,267.00771716999964,None,,,,22003,0001,2022_Jan_21_1119,localizer,2021.1.3,61.26283532967337,
block,scrambled,scrambled068.bmp,,,,,0,172,172,172,,,,,,,,,,,,,,,,,,,,,,,,,,,,,,,,,,,,,,,,,,None,,267.00771716999964,None,267.00771716999964,None,2022-01-21-11:23:44.508966,267.0195120999997,267.32378439999957,267.0195120999997,None,None,267.0195120999997,None,267.82395286999974,None,,,,22003,0001,2022_Jan_21_1119,localizer,2021.1.3,61.26283532967337,
block,scrambled,scrambled015.bmp,,,,,0,173,173,173,,,,,,,,,,,,,,,,,,,,,,,,,,,,,,,,,,,,,,,,,,None,,267.82395286999974,None,267.82395286999974,None,2022-01-21-11:23:45.324446,267.82465839999986,268.1239740000001,267.82465839999986,None,None,267.82465839999986,None,268.62404446999983,None,,,,22003,0001,2022_Jan_21_1119,localizer,2021.1.3,61.26283532967337,
block,scrambled,scrambled053.bmp,,,,,0,174,174,174,,,,,,,,,,,,,,,,,,,,,,,,,,,,,,,,,,,,,,,,,,None,,268.62404446999983,None,268.62404446999983,None,2022-01-21-11:23:46.125738,268.6328223999999,268.94058529999984,268.6328223999999,268.6328223999999,None,268.6328223999999,268.6328223999999,269.44058167000014,None,,,,22003,0001,2022_Jan_21_1119,localizer,2021.1.3,61.26283532967337,
block,scrambled,scrambled013.bmp,,,,,0,175,175,175,,,,,,,,,,,,,,,,,,,,,,,,,,,,,,,,,,,,,,,,,,None,,269.44058167000014,None,269.44058167000014,None,2022-01-21-11:23:46.940843,269.4489910000002,269.75728139999956,269.4489910000002,None,None,269.4489910000002,None,270.25745156999994,None,,,,22003,0001,2022_Jan_21_1119,localizer,2021.1.3,61.26283532967337,
block,scrambled,scrambled078.bmp,,,,,0,176,176,176,,,,,,,,,,,,,,,,,,,,,,,,,,,,,,,,,,,,,,,,,,None,,270.25745156999994,None,270.25745156999994,None,2022-01-21-11:23:47.757717,270.26724039999954,270.57395180000003,270.26724039999954,None,None,270.26724039999954,None,271.07407216999957,None,,,,22003,0001,2022_Jan_21_1119,localizer,2021.1.3,61.26283532967337,
block,scrambled,scrambled073.bmp,,,,,0,177,177,177,,,,,,,,,,,,,,,,,,,,,,,,,,,,,,,,,,,,,,,,,,None,,271.07407216999957,None,271.07407216999957,None,2022-01-21-11:23:48.574680,271.0748617999998,271.38002789999973,271.0748617999998,None,None,271.0748617999998,None,271.8740456699999,None,,,,22003,0001,2022_Jan_21_1119,localizer,2021.1.3,61.26283532967337,
block,scrambled,scrambled071.bmp,,,,,0,178,178,178,,,,,,,,,,,,,,,,,,,,,,,,,,,,,,,,,,,,,,,,,,None,,271.8740456699999,None,271.8740456699999,None,2022-01-21-11:23:49.375315,271.87516349999987,272.19036700000015,271.87516349999987,271.87516349999987,y,271.87516349999987,271.87516349999987,272.6905886699998,None,0.7498906000000716,,,22003,0001,2022_Jan_21_1119,localizer,2021.1.3,61.26283532967337,
block,scrambled,scrambled051.bmp,,,,,0,179,179,179,,,,,,,,,,,,,,,,,,,,,,,,,,,,,,,,,,,,,,,,,,None,,272.6905886699998,None,272.6905886699998,None,2022-01-21-11:23:50.189868,272.6995152999998,273.0084059999999,272.6995152999998,None,None,272.6995152999998,None,273.5076765699997,None,,,,22003,0001,2022_Jan_21_1119,localizer,2021.1.3,61.26283532967337,
block,scrambled,scrambled047.bmp,,,,,0,180,180,180,,,,,,,,,,,,,,,,,,,,,,,,,,,,,,,,,,,,,,,,,,None,,273.5076765699997,None,273.5076765699997,None,2022-01-21-11:23:51.008170,273.50824190000003,273.8075109000001,273.50824190000003,None,None,273.50824190000003,None,274.3085817700004,None,,,,22003,0001,2022_Jan_21_1119,localizer,2021.1.3,61.26283532967337,
block,scrambled,scrambled049.bmp,,,,,0,181,181,181,,,,,,,,,,,,,,,,,,,,,,,,,,,,,,,,,,,,,,,,,,None,,274.3085817700004,None,274.3085817700004,None,2022-01-21-11:23:51.814826,274.3145277000003,274.6246885999999,274.3145277000003,274.3145277000003,None,274.3145277000003,274.3145277000003,275.12461216999975,None,,,,22003,0001,2022_Jan_21_1119,localizer,2021.1.3,61.26283532967337,
block_end,scrambled,scrambled061.bmp,,,,,0,182,182,182,,,,,,,,,,,,,,,,,,,,,,,,,,,,,,,,,,,,,,,,,,None,,275.12461216999975,None,275.12461216999975,None,2022-01-21-11:23:52.625879,275.12646680000034,275.4404099000003,275.12646680000034,None,None,275.12646680000034,None,275.9406202700003,None,,,,22003,0001,2022_Jan_21_1119,localizer,2021.1.3,61.26283532967337,
block_start,objects,objects054.bmp,,,,,0,183,183,183,,,,,,,,,,,,,,,,,,,,,,,,,,,,,,,,,,,,,,,,,,t,1.7705813000002308,275.9404179000003,None,275.9404179000003,None,2022-01-21-11:23:55.239924,277.74151789999996,278.04111379999995,277.74151789999996,None,None,277.74151789999996,None,278.5407764700004,None,,,,22003,0001,2022_Jan_21_1119,localizer,2021.1.3,61.26283532967337,
block,objects,objects048.bmp,,,,,0,184,184,184,,,,,,,,,,,,,,,,,,,,,,,,,,,,,,,,,,,,,,,,,,None,,278.5407764700004,None,278.5407764700004,None,2022-01-21-11:23:56.043280,278.5519492000003,278.85732759999973,278.5519492000003,278.5519492000003,None,278.5519492000003,278.5519492000003,279.35723737,None,,,,22003,0001,2022_Jan_21_1119,localizer,2021.1.3,61.26283532967337,
block,objects,objects023.bmp,,,,,0,185,185,185,,,,,,,,,,,,,,,,,,,,,,,,,,,,,,,,,,,,,,,,,,None,,279.35723737,None,279.35723737,None,2022-01-21-11:23:56.857524,279.3658892000003,279.6738908999996,279.3658892000003,None,None,279.3658892000003,None,280.1741313699996,None,,,,22003,0001,2022_Jan_21_1119,localizer,2021.1.3,61.26283532967337,
block,objects,objects082.bmp,,,,,0,186,186,186,,,,,,,,,,,,,,,,,,,,,,,,,,,,,,,,,,,,,,,,,,None,,280.1741313699996,None,280.1741313699996,None,2022-01-21-11:23:57.674417,280.17480160000014,280.4739153999999,280.17480160000014,None,None,280.17480160000014,None,280.9747466700002,None,,,,22003,0001,2022_Jan_21_1119,localizer,2021.1.3,61.26283532967337,
block,objects,objects024.bmp,,,,,0,187,187,187,,,,,,,,,,,,,,,,,,,,,,,,,,,,,,,,,,,,,,,,,,None,,280.9747466700002,None,280.9747466700002,None,2022-01-21-11:23:58.478212,280.9897744,281.29044350000004,280.9897744,280.9897744,None,280.9897744,280.9897744,281.7935526700004,None,,,,22003,0001,2022_Jan_21_1119,localizer,2021.1.3,61.26283532967337,
block,objects,objects063.bmp,,,,,0,188,188,188,,,,,,,,,,,,,,,,,,,,,,,,,,,,,,,,,,,,,,,,,,None,,281.7935526700004,None,281.7935526700004,None,2022-01-21-11:23:59.294985,281.8043518000004,282.10728759999984,281.8043518000004,None,None,281.8043518000004,None,282.60758377000013,None,,,,22003,0001,2022_Jan_21_1119,localizer,2021.1.3,61.26283532967337,
block,objects,objects074.bmp,,,,,0,189,189,189,,,,,,,,,,,,,,,,,,,,,,,,,,,,,,,,,,,,,,,,,,None,,282.60758377000013,None,282.60758377000013,None,2022-01-21-11:24:00.108111,282.61773639999956,282.9236638000002,282.61773639999956,None,None,282.61773639999956,None,283.42401646999963,None,,,,22003,0001,2022_Jan_21_1119,localizer,2021.1.3,61.26283532967337,
block,objects,objects084.bmp,,,,,0,190,190,190,,,,,,,,,,,,,,,,,,,,,,,,,,,,,,,,,,,,,,,,,,None,,283.42401646999963,None,283.42401646999963,None,2022-01-21-11:24:00.924576,283.42477299999973,283.7239970999999,283.42477299999973,None,None,283.42477299999973,None,284.2240702700002,None,,,,22003,0001,2022_Jan_21_1119,localizer,2021.1.3,61.26283532967337,
block,objects,objects067.bmp,,,,,0,191,191,191,,,,,,,,,,,,,,,,,,,,,,,,,,,,,,,,,,,,,,,,,,None,,284.2240702700002,None,284.2240702700002,None,2022-01-21-11:24:01.726365,284.2351633999997,284.5407259000003,284.2351633999997,284.2351633999997,None,284.2351633999997,284.2351633999997,285.04084996999984,None,,,,22003,0001,2022_Jan_21_1119,localizer,2021.1.3,61.26283532967337,
block,objects,objects008.bmp,,,,,0,192,192,192,,,,,,,,,,,,,,,,,,,,,,,,,,,,,,,,,,,,,,,,,,None,,285.04084996999984,None,285.04084996999984,None,2022-01-21-11:24:02.540762,285.0503209999997,285.35714989999997,285.0503209999997,None,None,285.0503209999997,None,285.8576393699997,None,,,,22003,0001,2022_Jan_21_1119,localizer,2021.1.3,61.26283532967337,
block,objects,objects034.bmp,,,,,0,193,193,193,,,,,,,,,,,,,,,,,,,,,,,,,,,,,,,,,,,,,,,,,,None,,285.8576393699997,None,285.8576393699997,None,2022-01-21-11:24:03.357941,285.8686593000002,286.1741957000004,285.8686593000002,None,None,285.8686593000002,None,286.6740965700002,None,,,,22003,0001,2022_Jan_21_1119,localizer,2021.1.3,61.26283532967337,
block,objects,objects002.bmp,,,,,0,194,194,194,,,,,,,,,,,,,,,,,,,,,,,,,,,,,,,,,,,,,,,,,,None,,286.6740965700002,None,286.6740965700002,None,2022-01-21-11:24:04.174103,286.67494910000005,286.9743961000004,286.67494910000005,None,None,286.67494910000005,None,287.47535016999984,None,,,,22003,0001,2022_Jan_21_1119,localizer,2021.1.3,61.26283532967337,
block,objects,objects002.bmp,,,,,0,195,195,195,,,,,,,,,,,,,,,,,,,,,,,,,,,,,,,,,,,,,,,,,,None,,287.47535016999984,None,287.47535016999984,None,2022-01-21-11:24:04.981627,287.4801688999996,287.79060860000027,287.4801688999996,287.4801688999996,y,287.4801688999996,287.4801688999996,288.2919665700002,None,0.5063053000003492,,,22003,0001,2022_Jan_21_1119,localizer,2021.1.3,61.26283532967337,
block,objects,objects032.bmp,,,,,0,196,196,196,,,,,,,,,,,,,,,,,,,,,,,,,,,,,,,,,,,,,,,,,,None,,288.2919665700002,None,288.2919665700002,None,2022-01-21-11:24:05.794438,288.2950198999997,288.6081825000001,288.2950198999997,None,None,288.2950198999997,None,289.10720357,None,,,,22003,0001,2022_Jan_21_1119,localizer,2021.1.3,61.26283532967337,
block_end,objects,objects004.bmp,,,,,0,197,197,197,,,,,,,,,,,,,,,,,,,,,,,,,,,,,,,,,,,,,,,,,,None,,289.10720357,None,289.10720357,None,2022-01-21-11:24:06.607460,289.11514819999957,289.42386499999975,289.11514819999957,None,None,289.11514819999957,None,289.9244874699999,None,,,,22003,0001,2022_Jan_21_1119,localizer,2021.1.3,61.26283532967337,
block_start,scenes,scenes092.bmp,,,,,0,198,198,198,,,,,,,,,,,,,,,,,,,,,,,,,,,,,,,,,,,,,,,,,,t,1.7867102999998679,289.9244262000002,None,289.9244262000002,None,2022-01-21-11:24:09.240808,291.74974589999965,292.0574690000003,291.74974589999965,None,None,291.74974589999965,None,292.5469664699996,None,,,,22003,0001,2022_Jan_21_1119,localizer,2021.1.3,61.26283532967337,
block,scenes,scenes036.bmp,,,,,0,199,199,199,,,,,,,,,,,,,,,,,,,,,,,,,,,,,,,,,,,,,,,,,,None,,292.5469664699996,None,292.5469664699996,None,2022-01-21-11:24:10.056157,292.5635400000001,292.8736880999995,292.5635400000001,None,None,292.5635400000001,None,293.3574788699999,None,,,,22003,0001,2022_Jan_21_1119,localizer,2021.1.3,61.26283532967337,
block,scenes,scenes075.bmp,,,,,0,200,200,200,,,,,,,,,,,,,,,,,,,,,,,,,,,,,,,,,,,,,,,,,,None,,293.3574788699999,None,293.3574788699999,None,2022-01-21-11:24:10.857801,293.36992439999995,293.67997579999974,293.36992439999995,None,None,293.36992439999995,None,294.1740761700004,None,,,,22003,0001,2022_Jan_21_1119,localizer,2021.1.3,61.26283532967337,
block,scenes,scenes018.bmp,,,,,0,201,201,201,,,,,,,,,,,,,,,,,,,,,,,,,,,,,,,,,,,,,,,,,,None,,294.1740761700004,None,294.1740761700004,None,2022-01-21-11:24:11.674398,294.1749797000002,294.49058650000006,294.1749797000002,None,None,294.1749797000002,None,294.9747345699999,None,,,,22003,0001,2022_Jan_21_1119,localizer,2021.1.3,61.26283532967337,
block,scenes,scenes060.bmp,,,,,0,202,202,202,,,,,,,,,,,,,,,,,,,,,,,,,,,,,,,,,,,,,,,,,,None,,294.9747345699999,None,294.9747345699999,None,2022-01-21-11:24:12.478142,294.97784990000036,295.2915641999998,294.97784990000036,294.97784990000036,None,294.97784990000036,294.97784990000036,295.79060846999994,None,,,,22003,0001,2022_Jan_21_1119,localizer,2021.1.3,61.26283532967337,
block,scenes,scenes037.bmp,,,,,0,203,203,203,,,,,,,,,,,,,,,,,,,,,,,,,,,,,,,,,,,,,,,,,,None,,295.79060846999994,None,295.79060846999994,None,2022-01-21-11:24:13.290941,295.7915380000004,296.09076319999986,295.7915380000004,None,None,295.7915380000004,None,296.59096587000033,None,,,,22003,0001,2022_Jan_21_1119,localizer,2021.1.3,61.26283532967337,
block,scenes,scenes005.bmp,,,,,0,204,204,204,,,,,,,,,,,,,,,,,,,,,,,,,,,,,,,,,,,,,,,,,,None,,296.59096587000033,None,296.59096587000033,None,2022-01-21-11:24:14.093511,296.6032105000004,296.9105394999997,296.6032105000004,296.6032105000004,None,296.6032105000004,296.6032105000004,297.40742436999983,None,,,,22003,0001,2022_Jan_21_1119,localizer,2021.1.3,61.26283532967337,
block,scenes,scenes069.bmp,,,,,0,205,205,205,,,,,,,,,,,,,,,,,,,,,,,,,,,,,,,,,,,,,,,,,,None,,297.40742436999983,None,297.40742436999983,None,2022-01-21-11:24:14.907763,297.41622149999966,297.72426840000026,297.41622149999966,None,None,297.41622149999966,None,298.2253571700004,None,,,,22003,0001,2022_Jan_21_1119,localizer,2021.1.3,61.26283532967337,
block,scenes,scenes061.bmp,,,,,0,206,206,206,,,,,,,,,,,,,,,,,,,,,,,,,,,,,,,,,,,,,,,,,,None,,298.2253571700004,None,298.2253571700004,None,2022-01-21-11:24:15.728665,298.2283569000001,298.5409794999996,298.2283569000001,None,None,298.2283569000001,None,299.04079947,None,,,,22003,0001,2022_Jan_21_1119,localizer,2021.1.3,61.26283532967337,
block,scenes,scenes035.bmp,,,,,0,207,207,207,,,,,,,,,,,,,,,,,,,,,,,,,,,,,,,,,,,,,,,,,,None,,299.04079947,None,299.04079947,None,2022-01-21-11:24:16.541138,299.0416530000002,299.36133619999964,299.0416530000002,None,None,299.0416530000002,None,299.84211307,None,,,,22003,0001,2022_Jan_21_1119,localizer,2021.1.3,61.26283532967337,
block,scenes,scenes074.bmp,,,,,0,208,208,208,,,,,,,,,,,,,,,,,,,,,,,,,,,,,,,,,,,,,,,,,,None,,299.84211307,None,299.84211307,None,2022-01-21-11:24:17.346595,299.8464031000003,300.15735529999984,299.8464031000003,299.8464031000003,None,299.8464031000003,299.8464031000003,300.65877747000025,None,,,,22003,0001,2022_Jan_21_1119,localizer,2021.1.3,61.26283532967337,
block,scenes,scenes010.bmp,,,,,0,209,209,209,,,,,,,,,,,,,,,,,,,,,,,,,,,,,,,,,,,,,,,,,,None,,300.65877747000025,None,300.65877747000025,None,2022-01-21-11:24:18.161274,300.6720247000003,300.97391739999966,300.6720247000003,None,None,300.6720247000003,None,301.4739424700002,None,,,,22003,0001,2022_Jan_21_1119,localizer,2021.1.3,61.26283532967337,
block,scenes,scenes039.bmp,,,,,0,210,210,210,,,,,,,,,,,,,,,,,,,,,,,,,,,,,,,,,,,,,,,,,,None,,301.4739424700002,None,301.4739424700002,None,2022-01-21-11:24:18.974289,301.48239639999974,301.79083639999953,301.48239639999974,None,None,301.48239639999974,None,302.2908122700002,None,,,,22003,0001,2022_Jan_21_1119,localizer,2021.1.3,61.26283532967337,
block,scenes,scenes003.bmp,,,,,0,211,211,211,,,,,,,,,,,,,,,,,,,,,,,,,,,,,,,,,,,,,,,,,,None,,302.2908122700002,None,302.2908122700002,None,2022-01-21-11:24:19.791250,302.30208909999965,302.6078934999996,302.30208909999965,None,None,302.30208909999965,None,303.10750867000036,None,,,,22003,0001,2022_Jan_21_1119,localizer,2021.1.3,61.26283532967337,
block_end,scenes,scenes001.bmp,,,,,0,212,212,212,,,,,,,,,,,,,,,,,,,,,,,,,,,,,,,,,,,,,,,,,,None,,303.10750867000036,None,303.10750867000036,None,2022-01-21-11:24:20.607854,303.11740029999964,303.42400949999956,303.11740029999964,None,None,303.11740029999964,None,303.92421447000027,None,,,,22003,0001,2022_Jan_21_1119,localizer,2021.1.3,61.26283532967337,
block_start,scrambled,scrambled041.bmp,,,,,0,213,213,213,,,,,,,,,,,,,,,,,,,,,,,,,,,,,,,,,,,,,,,,,,t,1.7869959000008748,303.92414689999987,None,303.92414689999987,None,2022-01-21-11:24:23.242451,305.7520308000003,306.0579813000004,305.7520308000003,None,None,305.7520308000003,None,306.5581189699998,None,,,,22003,0001,2022_Jan_21_1119,localizer,2021.1.3,61.26283532967337,
block,scrambled,scrambled077.bmp,,,,,0,214,214,214,,,,,,,,,,,,,,,,,,,,,,,,,,,,,,,,,,,,,,,,,,None,,306.5581189699998,None,306.5581189699998,None,2022-01-21-11:24:24.059452,306.5698160000002,306.87391730000036,306.5698160000002,None,None,306.5698160000002,None,307.37362597000003,None,,,,22003,0001,2022_Jan_21_1119,localizer,2021.1.3,61.26283532967337,
block,scrambled,scrambled074.bmp,,,,,0,215,215,215,,,,,,,,,,,,,,,,,,,,,,,,,,,,,,,,,,,,,,,,,,None,,307.37362597000003,None,307.37362597000003,None,2022-01-21-11:24:24.873987,307.3754994000001,307.6908207999995,307.3754994000001,None,None,307.3754994000001,None,308.1749589700004,None,,,,22003,0001,2022_Jan_21_1119,localizer,2021.1.3,61.26283532967337,
block,scrambled,scrambled006.bmp,,,,,0,216,216,216,,,,,,,,,,,,,,,,,,,,,,,,,,,,,,,,,,,,,,,,,,None,,308.1749589700004,None,308.1749589700004,None,2022-01-21-11:24:25.678304,308.1769568999998,308.49118670000007,308.1769568999998,308.1769568999998,None,308.1769568999998,308.1769568999998,308.9914952700002,None,,,,22003,0001,2022_Jan_21_1119,localizer,2021.1.3,61.26283532967337,
block,scrambled,scrambled060.bmp,,,,,0,217,217,217,,,,,,,,,,,,,,,,,,,,,,,,,,,,,,,,,,,,,,,,,,None,,308.9914952700002,None,308.9914952700002,None,2022-01-21-11:24:26.492844,309.0031313999998,309.3073930999999,309.0031313999998,None,None,309.0031313999998,None,309.80882827000016,None,,,,22003,0001,2022_Jan_21_1119,localizer,2021.1.3,61.26283532967337,
block,scrambled,scrambled045.bmp,,,,,0,218,218,218,,,,,,,,,,,,,,,,,,,,,,,,,,,,,,,,,,,,,,,,,,None,,309.80882827000016,None,309.80882827000016,None,2022-01-21-11:24:27.311359,309.82247110000026,310.1240779999998,309.82247110000026,None,None,309.82247110000026,None,310.62552336999954,None,,,,22003,0001,2022_Jan_21_1119,localizer,2021.1.3,61.26283532967337,
block,scrambled,scrambled067.bmp,,,,,0,219,219,219,,,,,,,,,,,,,,,,,,,,,,,,,,,,,,,,,,,,,,,,,,None,,310.62552336999954,None,310.62552336999954,None,2022-01-21-11:24:28.127867,310.63766659999965,310.9411240999998,310.63766659999965,None,None,310.63766659999965,None,311.44139176999954,None,,,,22003,0001,2022_Jan_21_1119,localizer,2021.1.3,61.26283532967337,
block,scrambled,scrambled015.bmp,,,,,0,220,220,220,,,,,,,,,,,,,,,,,,,,,,,,,,,,,,,,,,,,,,,,,,None,,311.44139176999954,None,311.44139176999954,None,2022-01-21-11:24:28.942788,311.44199709999975,311.7412766999996,311.44199709999975,None,None,311.44199709999975,None,312.25756596999975,None,,,,22003,0001,2022_Jan_21_1119,localizer,2021.1.3,61.26283532967337,
block,scrambled,scrambled085.bmp,,,,,0,221,221,221,,,,,,,,,,,,,,,,,,,,,,,,,,,,,,,,,,,,,,,,,,None,,312.25756596999975,None,312.25756596999975,None,2022-01-21-11:24:29.757931,312.2674594,312.57412099999965,312.2674594,None,None,312.2674594,None,313.07404407000024,None,,,,22003,0001,2022_Jan_21_1119,localizer,2021.1.3,61.26283532967337,
block,scrambled,scrambled016.bmp,,,,,0,222,222,222,,,,,,,,,,,,,,,,,,,,,,,,,,,,,,,,,,,,,,,,,,None,,313.07404407000024,None,313.07404407000024,None,2022-01-21-11:24:30.574418,313.08242489999975,313.3908714999998,313.08242489999975,None,None,313.08242489999975,None,313.88024767000036,None,,,,22003,0001,2022_Jan_21_1119,localizer,2021.1.3,61.26283532967337,
block,scrambled,scrambled054.bmp,,,,,0,223,223,223,,,,,,,,,,,,,,,,,,,,,,,,,,,,,,,,,,,,,,,,,,None,,313.88024767000036,None,313.88024767000036,None,2022-01-21-11:24:31.389559,313.8966164000003,314.20754190000025,313.8966164000003,None,None,313.8966164000003,None,314.69127176999984,None,,,,22003,0001,2022_Jan_21_1119,localizer,2021.1.3,61.26283532967337,
block,scrambled,scrambled082.bmp,,,,,0,224,224,224,,,,,,,,,,,,,,,,,,,,,,,,,,,,,,,,,,,,,,,,,,None,,314.69127176999984,None,314.69127176999984,None,2022-01-21-11:24:32.192708,314.6917923000001,314.9913537000002,314.6917923000001,None,None,314.6917923000001,None,315.4911575699999,None,,,,22003,0001,2022_Jan_21_1119,localizer,2021.1.3,61.26283532967337,
block,scrambled,scrambled010.bmp,,,,,0,225,225,225,,,,,,,,,,,,,,,,,,,,,,,,,,,,,,,,,,,,,,,,,,None,,315.4911575699999,None,315.4911575699999,None,2022-01-21-11:24:32.993424,315.5031267000004,315.80758890000016,315.5031267000004,315.5031267000004,None,315.5031267000004,315.5031267000004,316.30768786999954,None,,,,22003,0001,2022_Jan_21_1119,localizer,2021.1.3,61.26283532967337,
block,scrambled,scrambled076.bmp,,,,,0,226,226,226,,,,,,,,,,,,,,,,,,,,,,,,,,,,,,,,,,,,,,,,,,None,,316.30768786999954,None,316.30768786999954,None,2022-01-21-11:24:33.808067,316.31786399999964,316.62416909999956,316.31786399999964,None,None,316.31786399999964,None,317.1253483700003,None,,,,22003,0001,2022_Jan_21_1119,localizer,2021.1.3,61.26283532967337,
block_end,scrambled,scrambled014.bmp,,,,,0,227,227,227,,,,,,,,,,,,,,,,,,,,,,,,,,,,,,,,,,,,,,,,,,None,,317.1253483700003,None,317.1253483700003,None,2022-01-21-11:24:34.628357,317.13915949999955,317.4406934999997,317.13915949999955,None,None,317.13915949999955,None,317.94074786999965,None,,,,22003,0001,2022_Jan_21_1119,localizer,2021.1.3,61.26283532967337,
null_block,null_block,null_block.bmp,,,,,0,228,228,228,,,,,,,,,,,,,,,,,,,,,,,,,,,,,,,,,,,,,,,,,,t,1.7693696999995154,317.94051669999953,None,317.94051669999953,None,2022-01-21-11:24:37.240176,319.7407797699999,None,319.7407797699999,None,None,319.7407797699999,None,319.7423041000002,None,,,,22003,0001,2022_Jan_21_1119,localizer,2021.1.3,61.26283532967337,
block_start,faces,faces034.bmp,,,,,0,229,229,229,,,,,,,,,,,,,,,,,,,,,,,,,,,,,,,,,,,,,,,,,,t,1.968770699999368,331.74127940000017,None,331.74127940000017,None,2022-01-21-11:24:51.228436,333.73808759999974,334.0422144000004,333.73808759999974,None,None,333.73808759999974,None,334.5407164700001,None,,,,22003,0001,2022_Jan_21_1119,localizer,2021.1.3,61.26283532967337,
block,faces,faces069.bmp,,,,,0,230,230,230,,,,,,,,,,,,,,,,,,,,,,,,,,,,,,,,,,,,,,,,,,None,,334.5407164700001,None,334.5407164700001,None,2022-01-21-11:24:52.040167,334.54207549999956,334.8613191000004,334.54207549999956,None,None,334.54207549999956,None,335.3416244700003,None,,,,22003,0001,2022_Jan_21_1119,localizer,2021.1.3,61.26283532967337,
block,faces,faces018.bmp,,,,,0,231,231,231,,,,,,,,,,,,,,,,,,,,,,,,,,,,,,,,,,,,,,,,,,None,,335.3416244700003,None,335.3416244700003,None,2022-01-21-11:24:52.845227,335.35500260000026,335.65760299999965,335.35500260000026,335.35500260000026,None,335.35500260000026,335.35500260000026,336.1574953700002,None,,,,22003,0001,2022_Jan_21_1119,localizer,2021.1.3,61.26283532967337,
block,faces,faces027.bmp,,,,,0,232,232,232,,,,,,,,,,,,,,,,,,,,,,,,,,,,,,,,,,,,,,,,,,None,,336.1574953700002,None,336.1574953700002,None,2022-01-21-11:24:53.657840,336.16812560000017,336.4746428999997,336.16812560000017,None,None,336.16812560000017,None,336.9745293699999,None,,,,22003,0001,2022_Jan_21_1119,localizer,2021.1.3,61.26283532967337,
block,faces,faces002.bmp,,,,,0,233,233,233,,,,,,,,,,,,,,,,,,,,,,,,,,,,,,,,,,,,,,,,,,None,,336.9745293699999,None,336.9745293699999,None,2022-01-21-11:24:54.474961,336.98081319999983,337.29093230000035,336.98081319999983,None,None,336.98081319999983,None,337.7804874699997,None,,,,22003,0001,2022_Jan_21_1119,localizer,2021.1.3,61.26283532967337,
block,faces,faces086.bmp,,,,,0,234,234,234,,,,,,,,,,,,,,,,,,,,,,,,,,,,,,,,,,,,,,,,,,None,,337.7804874699997,None,337.7804874699997,None,2022-01-21-11:24:55.284659,337.7845406999995,338.0912043999997,337.7845406999995,None,None,337.7845406999995,None,338.59121167000023,None,,,,22003,0001,2022_Jan_21_1119,localizer,2021.1.3,61.26283532967337,
block,faces,faces047.bmp,,,,,0,235,235,235,,,,,,,,,,,,,,,,,,,,,,,,,,,,,,,,,,,,,,,,,,None,,338.59121167000023,None,338.59121167000023,None,2022-01-21-11:24:56.091646,338.59215570000015,338.9076863,338.59215570000015,None,None,338.59215570000015,None,339.39766626999983,None,,,,22003,0001,2022_Jan_21_1119,localizer,2021.1.3,61.26283532967337,
block,faces,faces053.bmp,,,,,0,236,236,236,,,,,,,,,,,,,,,,,,,,,,,,,,,,,,,,,,,,,,,,,,None,,339.39766626999983,None,339.39766626999983,None,2022-01-21-11:24:56.901920,339.41271309999956,339.72423139999955,339.41271309999956,None,None,339.41271309999956,None,340.2076360700004,None,,,,22003,0001,2022_Jan_21_1119,localizer,2021.1.3,61.26283532967337,
block,faces,faces082.bmp,,,,,0,237,237,237,,,,,,,,,,,,,,,,,,,,,,,,,,,,,,,,,,,,,,,,,,None,,340.2076360700004,None,340.2076360700004,None,2022-01-21-11:24:57.708184,340.21781660000033,340.52452230000017,340.21781660000033,None,None,340.21781660000033,None,341.0246652699999,None,,,,22003,0001,2022_Jan_21_1119,localizer,2021.1.3,61.26283532967337,
block,faces,faces065.bmp,,,,,0,238,238,238,,,,,,,,,,,,,,,,,,,,,,,,,,,,,,,,,,,,,,,,,,None,,341.0246652699999,None,341.0246652699999,None,2022-01-21-11:24:58.526314,341.02535369999987,341.32445000000007,341.02535369999987,None,None,341.02535369999987,None,341.84087577,None,,,,22003,0001,2022_Jan_21_1119,localizer,2021.1.3,61.26283532967337,
block,faces,faces025.bmp,,,,,0,239,239,239,,,,,,,,,,,,,,,,,,,,,,,,,,,,,,,,,,,,,,,,,,None,,341.84087577,None,341.84087577,None,2022-01-21-11:24:59.341324,341.85115440000027,342.1580721999999,341.85115440000027,None,None,341.85115440000027,None,342.6577476699996,None,,,,22003,0001,2022_Jan_21_1119,localizer,2021.1.3,61.26283532967337,
block,faces,faces026.bmp,,,,,0,240,240,240,,,,,,,,,,,,,,,,,,,,,,,,,,,,,,,,,,,,,,,,,,None,,342.6577476699996,None,342.6577476699996,None,2022-01-21-11:25:00.158195,342.6948911999998,343.0075016999999,342.6948911999998,None,None,342.6948911999998,None,343.47428926999976,None,,,,22003,0001,2022_Jan_21_1119,localizer,2021.1.3,61.26283532967337,
block,faces,faces033.bmp,,,,,0,241,241,241,,,,,,,,,,,,,,,,,,,,,,,,,,,,,,,,,,,,,,,,,,None,,343.47428926999976,None,343.47428926999976,None,2022-01-21-11:25:00.974740,343.4925677000001,343.8075452000003,343.4925677000001,None,None,343.4925677000001,None,344.2911440700001,None,,,,22003,0001,2022_Jan_21_1119,localizer,2021.1.3,61.26283532967337,
block,faces,faces074.bmp,,,,,0,242,242,242,,,,,,,,,,,,,,,,,,,,,,,,,,,,,,,,,,,,,,,,,,None,,344.2911440700001,None,344.2911440700001,None,2022-01-21-11:25:01.791595,344.2918792999999,344.5909075999998,344.2918792999999,None,None,344.2918792999999,None,345.0909082700001,None,,,,22003,0001,2022_Jan_21_1119,localizer,2021.1.3,61.26283532967337,
block_end,faces,faces013.bmp,,,,,0,243,243,243,,,,,,,,,,,,,,,,,,,,,,,,,,,,,,,,,,,,,,,,,,None,,345.0909082700001,None,345.0909082700001,None,2022-01-21-11:25:02.592363,345.0997887000003,345.40740370000003,345.0997887000003,345.0997887000003,None,345.0997887000003,345.0997887000003,345.89766066999994,None,,,,22003,0001,2022_Jan_21_1119,localizer,2021.1.3,61.26283532967337,
,,,,,,,,,,,,,,,,,,,,,,,,,,,,,,,,,,,,,,,,,,,,,,,,,,,,,,,,,,,,,,,,,,,,,345.89674469999954,None,,,,,,,
