block_type,condition,img_name,Button.thisRepN,Button.thisTrialN,Button.thisN,Button.thisIndex,trials.thisRepN,trials.thisTrialN,trials.thisN,trials.thisIndex,Ready_experimenter_text.started,Ready_experimenter_text.stopped,Ready_experimenter_resp.keys,Ready_experimenter_resp.rt,Ready_experimenter_resp.started,Ready_experimenter_resp.stopped,Alignment_background.started,Alignment_background.stopped,Alignment_image.started,Alignment_image.stopped,Alignment_resp.keys,Alignment_resp.rt,Alignment_resp.started,Alignment_resp.stopped,Button_text.started,Button_text.stopped,Index_text.started,Index_text.stopped,Index_resp.keys,Index_resp.rt,Index_resp.started,Index_resp.stopped,Middle_text.started,Middle_text.stopped,Middle_resp.keys,Middle_resp.rt,Middle_resp.started,Middle_resp.stopped,Repeat_text.started,Repeat_text.stopped,Repeat_resp.keys,Repeat_resp.corr,Repeat_resp.rt,Repeat_resp.started,Repeat_resp.stopped,instruction_text.started,instruction_text.stopped,key_resp.keys,key_resp.rt,key_resp.started,key_resp.stopped,scanner_t.keys,scanner_t.rt,scanner_t.started,scanner_t.stopped,fixation_wait_for_t.started,fixation_wait_for_t.stopped,real_timestamp_trial_start,image.started,image.stopped,fixation.started,fixation.stopped,repeat_response.keys,repeat_response.started,repeat_response.stopped,fixation_null.started,fixation_null.stopped,repeat_response.rt,end_text.started,end_text.stopped,participant,run,date,expName,psychopyVersion,frameRate,
,,,,,,,,,,,15.283105200040154,None,return,48.293556899996474,15.283105200040154,None,,,,,,,,,,,,,,,,,,,,,,,,,,,,,,,,,,,,,,,,,,,,,,,,,,,,,,,21009,0001,2022_Aug_05_1134,localizer,2021.1.3,59.5277426143123,
,,,,,,,,,,,,,,,,,63.625058700097725,None,63.625058700097725,None,return,6.478798899916001,63.625058700097725,None,,,,,,,,,,,,,,,,,,,,,,,,,,,,,,,,,,,,,,,,,,,,,,,21009,0001,2022_Aug_05_1134,localizer,2021.1.3,59.5277426143123,
,,,0,0,0,0,,,,,,,,,,,,,,,,,,,70.12573930004146,None,71.13962380005978,None,y,2.877778400084935,71.13962380005978,None,74.035936600063,None,b,1.289585700025782,74.035936600063,None,75.35355510003865,None,n,0,1.370086600072682,75.35355510003865,None,,,,,,,,,,,,,,,,,,,,,,,,,,21009,0001,2022_Aug_05_1134,localizer,2021.1.3,59.5277426143123,
,,,,,,,,,,,,,,,,,,,,,,,,,,,,,,,,,,,,,,,,,,,,,,76.74165280000307,None,y,37.80326850002166,76.74165280000307,None,,,,,,,,,,,,,,,,,,,,21009,0001,2022_Aug_05_1134,localizer,2021.1.3,59.5277426143123,
block_start,objects,objects060.bmp,,,,,0,0,0,0,,,,,,,,,,,,,,,,,,,,,,,,,,,,,,,,,,,,,,,,,,t,16.19299780006986,114.63582940003835,None,114.63582940003835,None,2022-08-05-11:36:53.096519,130.86439970007632,131.17036260000896,130.86439970007632,None,None,130.86439970007632,None,131.66959724009502,None,,,,21009,0001,2022_Aug_05_1134,localizer,2021.1.3,59.5277426143123,
block,objects,objects040.bmp,,,,,0,1,1,1,,,,,,,,,,,,,,,,,,,,,,,,,,,,,,,,,,,,,,,,,,None,,131.66959724009502,None,131.66959724009502,None,2022-08-05-11:36:53.915756,131.6808114000596,131.98692640010267,131.6808114000596,None,None,131.6808114000596,None,132.48675064002163,None,,,,21009,0001,2022_Aug_05_1134,localizer,2021.1.3,59.5277426143123,
block,objects,objects022.bmp,,,,,0,2,2,2,,,,,,,,,,,,,,,,,,,,,,,,,,,,,,,,,,,,,,,,,,None,,132.48675064002163,None,132.48675064002163,None,2022-08-05-11:36:54.732173,132.49483570002485,132.81006260006689,132.49483570002485,None,None,132.49483570002485,None,133.30965883999596,None,,,,21009,0001,2022_Aug_05_1134,localizer,2021.1.3,59.5277426143123,
block,objects,objects068.bmp,,,,,0,3,3,3,,,,,,,,,,,,,,,,,,,,,,,,,,,,,,,,,,,,,,,,,,None,,133.30965883999596,None,133.30965883999596,None,2022-08-05-11:36:55.563012,133.33106940006837,133.63694160000887,133.33106940006837,None,None,133.33106940006837,None,134.1209140400635,None,,,,21009,0001,2022_Aug_05_1134,localizer,2021.1.3,59.5277426143123,
block,objects,objects059.bmp,,,,,0,4,4,4,,,,,,,,,,,,,,,,,,,,,,,,,,,,,,,,,,,,,,,,,,None,,134.1209140400635,None,134.1209140400635,None,2022-08-05-11:36:56.369233,134.13616970006842,134.43852170009632,134.13616970006842,None,None,134.13616970006842,None,134.93626164009328,None,,,,21009,0001,2022_Aug_05_1134,localizer,2021.1.3,59.5277426143123,
block,objects,objects045.bmp,,,,,0,5,5,5,,,,,,,,,,,,,,,,,,,,,,,,,,,,,,,,,,,,,,,,,,None,,134.93626164009328,None,134.93626164009328,None,2022-08-05-11:36:57.181695,134.9451524000615,135.25347560003866,134.9451524000615,None,None,134.9451524000615,None,135.75333854001946,None,,,,21009,0001,2022_Aug_05_1134,localizer,2021.1.3,59.5277426143123,
block,objects,objects005.bmp,,,,,0,6,6,6,,,,,,,,,,,,,,,,,,,,,,,,,,,,,,,,,,,,,,,,,,None,,135.75333854001946,None,135.75333854001946,None,2022-08-05-11:36:57.998976,135.76499300007708,136.0704059000127,135.76499300007708,None,None,135.76499300007708,None,136.56986304004676,None,,,,21009,0001,2022_Aug_05_1134,localizer,2021.1.3,59.5277426143123,
block,objects,objects018.bmp,,,,,0,7,7,7,,,,,,,,,,,,,,,,,,,,,,,,,,,,,,,,,,,,,,,,,,None,,136.56986304004676,None,136.56986304004676,None,2022-08-05-11:36:58.815850,136.57679010007996,136.88699290005025,136.57679010007996,None,None,136.57679010007996,None,137.3870668400079,None,,,,21009,0001,2022_Aug_05_1134,localizer,2021.1.3,59.5277426143123,
block,objects,objects008.bmp,,,,,0,8,8,8,,,,,,,,,,,,,,,,,,,,,,,,,,,,,,,,,,,,,,,,,,None,,137.3870668400079,None,137.3870668400079,None,2022-08-05-11:36:59.633463,137.39913940010592,137.70356440008618,137.39913940010592,None,None,137.39913940010592,None,138.20298314006067,None,,,,21009,0001,2022_Aug_05_1134,localizer,2021.1.3,59.5277426143123,
block,objects,objects083.bmp,,,,,0,9,9,9,,,,,,,,,,,,,,,,,,,,,,,,,,,,,,,,,,,,,,,,,,None,,138.20298314006067,None,138.20298314006067,None,2022-08-05-11:37:00.448414,138.21347910002805,138.5201558000408,138.21347910002805,None,None,138.21347910002805,None,139.0093996400712,None,,,,21009,0001,2022_Aug_05_1134,localizer,2021.1.3,59.5277426143123,
block,objects,objects015.bmp,,,,,0,10,10,10,,,,,,,,,,,,,,,,,,,,,,,,,,,,,,,,,,,,,,,,,,None,,139.0093996400712,None,139.0093996400712,None,2022-08-05-11:37:01.257867,139.0241990000941,139.33706470008474,139.0241990000941,None,None,139.0241990000941,None,139.81975464003625,None,,,,21009,0001,2022_Aug_05_1134,localizer,2021.1.3,59.5277426143123,
block,objects,objects074.bmp,,,,,0,11,11,11,,,,,,,,,,,,,,,,,,,,,,,,,,,,,,,,,,,,,,,,,,None,,139.81975464003625,None,139.81975464003625,None,2022-08-05-11:37:02.065470,139.8294395999983,140.13744690001477,139.8294395999983,None,None,139.8294395999983,None,140.63664234003517,None,,,,21009,0001,2022_Aug_05_1134,localizer,2021.1.3,59.5277426143123,
block,objects,objects049.bmp,,,,,0,12,12,12,,,,,,,,,,,,,,,,,,,,,,,,,,,,,,,,,,,,,,,,,,None,,140.63664234003517,None,140.63664234003517,None,2022-08-05-11:37:02.882073,140.64322060009,140.94361080008093,140.64322060009,None,None,140.64322060009,None,141.45360854004974,None,,,,21009,0001,2022_Aug_05_1134,localizer,2021.1.3,59.5277426143123,
block,objects,objects071.bmp,,,,,0,13,13,13,,,,,,,,,,,,,,,,,,,,,,,,,,,,,,,,,,,,,,,,,,None,,141.45360854004974,None,141.45360854004974,None,2022-08-05-11:37:03.700231,141.46579860011116,141.77044590003788,141.46579860011116,None,None,141.46579860011116,None,142.27016224006655,None,,,,21009,0001,2022_Aug_05_1134,localizer,2021.1.3,59.5277426143123,
block_end,objects,objects058.bmp,,,,,0,14,14,14,,,,,,,,,,,,,,,,,,,,,,,,,,,,,,,,,,,,,,,,,,None,,142.27016224006655,None,142.27016224006655,None,2022-08-05-11:37:04.516785,142.2823305000784,142.5870221001096,142.2823305000784,None,None,142.2823305000784,None,143.08674594007897,None,,,,21009,0001,2022_Aug_05_1134,localizer,2021.1.3,59.5277426143123,
block_start,faces,faces016.bmp,,,,,0,15,15,15,,,,,,,,,,,,,,,,,,,,,,,,,,,,,,,,,,,,,,,,,,t,1.741609500022605,143.08705590001773,None,143.08705590001773,None,2022-08-05-11:37:07.097455,144.8640869000228,145.1704735000385,144.8640869000228,None,None,144.8640869000228,None,145.67598304005804,None,,,,21009,0001,2022_Aug_05_1134,localizer,2021.1.3,59.5277426143123,
block,faces,faces024.bmp,,,,,0,16,16,16,,,,,,,,,,,,,,,,,,,,,,,,,,,,,,,,,,,,,,,,,,None,,145.67598304005804,None,145.67598304005804,None,2022-08-05-11:37:07.929288,145.69645550008863,146.00348190008663,145.69645550008863,None,None,145.69645550008863,None,146.4927513400791,None,,,,21009,0001,2022_Aug_05_1134,localizer,2021.1.3,59.5277426143123,
block,faces,faces080.bmp,,,,,0,17,17,17,,,,,,,,,,,,,,,,,,,,,,,,,,,,,,,,,,,,,,,,,,None,,146.4927513400791,None,146.4927513400791,None,2022-08-05-11:37:08.746140,146.51637810003012,146.82262170000467,146.51637810003012,None,None,146.51637810003012,None,147.30979244008194,None,,,,21009,0001,2022_Aug_05_1134,localizer,2021.1.3,59.5277426143123,
block,faces,faces003.bmp,,,,,0,18,18,18,,,,,,,,,,,,,,,,,,,,,,,,,,,,,,,,,,,,,,,,,,None,,147.30979244008194,None,147.30979244008194,None,2022-08-05-11:37:09.555230,147.31933180009946,147.62023650004994,147.31933180009946,None,None,147.31933180009946,None,148.11978534008375,None,,,,21009,0001,2022_Aug_05_1134,localizer,2021.1.3,59.5277426143123,
block,faces,faces042.bmp,,,,,0,19,19,19,,,,,,,,,,,,,,,,,,,,,,,,,,,,,,,,,,,,,,,,,,None,,148.11978534008375,None,148.11978534008375,None,2022-08-05-11:37:10.365214,148.12983850005548,148.43694070004858,148.12983850005548,None,None,148.12983850005548,None,148.9364613401005,None,,,,21009,0001,2022_Aug_05_1134,localizer,2021.1.3,59.5277426143123,
block,faces,faces020.bmp,,,,,0,20,20,20,,,,,,,,,,,,,,,,,,,,,,,,,,,,,,,,,,,,,,,,,,None,,148.9364613401005,None,148.9364613401005,None,2022-08-05-11:37:11.181896,148.9418076000875,149.2535508000292,148.9418076000875,None,None,148.9418076000875,None,149.75332954006734,None,,,,21009,0001,2022_Aug_05_1134,localizer,2021.1.3,59.5277426143123,
block,faces,faces069.bmp,,,,,0,21,21,21,,,,,,,,,,,,,,,,,,,,,,,,,,,,,,,,,,,,,,,,,,None,,149.75332954006734,None,149.75332954006734,None,2022-08-05-11:37:11.998962,149.76582250010688,150.07035530009307,149.76582250010688,None,None,149.76582250010688,None,150.5701793400105,None,,,,21009,0001,2022_Aug_05_1134,localizer,2021.1.3,59.5277426143123,
block,faces,faces043.bmp,,,,,0,22,22,22,,,,,,,,,,,,,,,,,,,,,,,,,,,,,,,,,,,,,,,,,,None,,150.5701793400105,None,150.5701793400105,None,2022-08-05-11:37:12.816718,150.5834261000855,150.88674790004734,150.5834261000855,None,None,150.5834261000855,None,151.38692793999797,None,,,,21009,0001,2022_Aug_05_1134,localizer,2021.1.3,59.5277426143123,
block,faces,faces052.bmp,,,,,0,23,23,23,,,,,,,,,,,,,,,,,,,,,,,,,,,,,,,,,,,,,,,,,,None,,151.38692793999797,None,151.38692793999797,None,2022-08-05-11:37:13.632552,151.3979736000765,151.70363300002646,151.3979736000765,None,None,151.3979736000765,None,152.20319734006188,None,,,,21009,0001,2022_Aug_05_1134,localizer,2021.1.3,59.5277426143123,
block,faces,faces025.bmp,,,,,0,24,24,24,,,,,,,,,,,,,,,,,,,,,,,,,,,,,,,,,,,,,,,,,,None,,152.20319734006188,None,152.20319734006188,None,2022-08-05-11:37:14.448627,152.21319450007286,152.52023510006256,152.21319450007286,None,None,152.21319450007286,None,153.01960784003603,None,,,,21009,0001,2022_Aug_05_1134,localizer,2021.1.3,59.5277426143123,
block,faces,faces086.bmp,,,,,0,25,25,25,,,,,,,,,,,,,,,,,,,,,,,,,,,,,,,,,,,,,,,,,,None,,153.01960784003603,None,153.01960784003603,None,2022-08-05-11:37:15.265038,153.02470330009237,153.32195950008463,153.02470330009237,None,None,153.02470330009237,None,153.83686054002027,None,,,,21009,0001,2022_Aug_05_1134,localizer,2021.1.3,59.5277426143123,
block,faces,faces068.bmp,,,,,0,26,26,26,,,,,,,,,,,,,,,,,,,,,,,,,,,,,,,,,,,,,,,,,,None,,153.83686054002027,None,153.83686054002027,None,2022-08-05-11:37:16.083282,153.84908270009328,154.15477550006472,153.84908270009328,None,None,153.84908270009328,None,154.6532548401039,None,,,,21009,0001,2022_Aug_05_1134,localizer,2021.1.3,59.5277426143123,
block,faces,faces037.bmp,,,,,0,27,27,27,,,,,,,,,,,,,,,,,,,,,,,,,,,,,,,,,,,,,,,,,,None,,154.6532548401039,None,154.6532548401039,None,2022-08-05-11:37:16.898683,154.66379250003956,154.9700610000873,154.66379250003956,None,None,154.66379250003956,None,155.47053914009592,None,,,,21009,0001,2022_Aug_05_1134,localizer,2021.1.3,59.5277426143123,
block,faces,faces012.bmp,,,,,0,28,28,28,,,,,,,,,,,,,,,,,,,,,,,,,,,,,,,,,,,,,,,,,,None,,155.47053914009592,None,155.47053914009592,None,2022-08-05-11:37:17.717016,155.4826726000756,155.78698930004612,155.4826726000756,None,None,155.4826726000756,None,156.28625113999004,None,,,,21009,0001,2022_Aug_05_1134,localizer,2021.1.3,59.5277426143123,
block_end,faces,faces077.bmp,,,,,0,29,29,29,,,,,,,,,,,,,,,,,,,,,,,,,,,,,,,,,,,,,,,,,,None,,156.28625113999004,None,156.28625113999004,None,2022-08-05-11:37:18.531686,156.29661230009515,156.60339260008186,156.29661230009515,None,None,156.29661230009515,None,157.10365454007405,None,,,,21009,0001,2022_Aug_05_1134,localizer,2021.1.3,59.5277426143123,
null_block,null_block,null_block.bmp,,,,,0,30,30,30,,,,,,,,,,,,,,,,,,,,,,,,,,,,,,,,,,,,,,,,,,t,1.7246641999809071,157.1039177000057,None,157.1039177000057,None,2022-08-05-11:37:21.098173,158.85341314009855,None,158.85341314009855,None,None,158.85341314009855,None,158.86323800007813,None,,,,21009,0001,2022_Aug_05_1134,localizer,2021.1.3,59.5277426143123,
block_start,scenes,scenes003.bmp,,,,,0,31,31,31,,,,,,,,,,,,,,,,,,,,,,,,,,,,,,,,,,,,,,,,,,t,1.958512100041844,170.87020050000865,None,170.87020050000865,None,2022-08-05-11:37:35.099048,172.86500500002876,173.17030070000328,172.86500500002876,None,None,172.86500500002876,None,173.67008324007037,None,,,,21009,0001,2022_Aug_05_1134,localizer,2021.1.3,59.5277426143123,
block,scenes,scenes006.bmp,,,,,0,32,32,32,,,,,,,,,,,,,,,,,,,,,,,,,,,,,,,,,,,,,,,,,,None,,173.67008324007037,None,173.67008324007037,None,2022-08-05-11:37:35.915512,173.68154840008356,173.99354960001074,173.68154840008356,None,None,173.68154840008356,None,174.48744654008186,None,,,,21009,0001,2022_Aug_05_1134,localizer,2021.1.3,59.5277426143123,
block,scenes,scenes086.bmp,,,,,0,33,33,33,,,,,,,,,,,,,,,,,,,,,,,,,,,,,,,,,,,,,,,,,,None,,174.48744654008186,None,174.48744654008186,None,2022-08-05-11:37:36.734057,174.50050330010708,174.8041196000995,174.50050330010708,None,None,174.50050330010708,None,175.30972504003438,None,,,,21009,0001,2022_Aug_05_1134,localizer,2021.1.3,59.5277426143123,
block,scenes,scenes016.bmp,,,,,0,34,34,34,,,,,,,,,,,,,,,,,,,,,,,,,,,,,,,,,,,,,,,,,,None,,175.30972504003438,None,175.30972504003438,None,2022-08-05-11:37:37.562874,175.33601920004003,175.63709460000973,175.33601920004003,None,None,175.33601920004003,None,176.12004774010273,None,,,,21009,0001,2022_Aug_05_1134,localizer,2021.1.3,59.5277426143123,
block,scenes,scenes051.bmp,,,,,0,35,35,35,,,,,,,,,,,,,,,,,,,,,,,,,,,,,,,,,,,,,,,,,,None,,176.12004774010273,None,176.12004774010273,None,2022-08-05-11:37:38.365477,176.1325269000372,176.4369844000321,176.1325269000372,None,None,176.1325269000372,None,176.93722834000363,None,,,,21009,0001,2022_Aug_05_1134,localizer,2021.1.3,59.5277426143123,
block,scenes,scenes018.bmp,,,,,0,36,36,36,,,,,,,,,,,,,,,,,,,,,,,,,,,,,,,,,,,,,,,,,,None,,176.93722834000363,None,176.93722834000363,None,2022-08-05-11:37:39.183845,176.94901910005137,177.2535231000511,176.94901910005137,None,None,176.94901910005137,None,177.75334744008723,None,,,,21009,0001,2022_Aug_05_1134,localizer,2021.1.3,59.5277426143123,
block,scenes,scenes034.bmp,,,,,0,37,37,37,,,,,,,,,,,,,,,,,,,,,,,,,,,,,,,,,,,,,,,,,,None,,177.75334744008723,None,177.75334744008723,None,2022-08-05-11:37:39.998783,177.76209400000516,178.07060030009598,177.76209400000516,None,None,177.76209400000516,None,178.57084074004086,None,,,,21009,0001,2022_Aug_05_1134,localizer,2021.1.3,59.5277426143123,
block,scenes,scenes009.bmp,,,,,0,38,38,38,,,,,,,,,,,,,,,,,,,,,,,,,,,,,,,,,,,,,,,,,,None,,178.57084074004086,None,178.57084074004086,None,2022-08-05-11:37:40.817189,178.58276990009472,178.89344120002352,178.58276990009472,None,None,178.58276990009472,None,179.3895713401027,None,,,,21009,0001,2022_Aug_05_1134,localizer,2021.1.3,59.5277426143123,
block,scenes,scenes078.bmp,,,,,0,39,39,39,,,,,,,,,,,,,,,,,,,,,,,,,,,,,,,,,,,,,,,,,,None,,179.3895713401027,None,179.3895713401027,None,2022-08-05-11:37:41.638899,179.40650340006687,179.72043470002245,179.40650340006687,None,None,179.40650340006687,None,180.20416274007874,None,,,,21009,0001,2022_Aug_05_1134,localizer,2021.1.3,59.5277426143123,
block,scenes,scenes055.bmp,,,,,0,40,40,40,,,,,,,,,,,,,,,,,,,,,,,,,,,,,,,,,,,,,,,,,,None,,180.20416274007874,None,180.20416274007874,None,2022-08-05-11:37:42.450462,180.21475380007178,180.52039510000031,180.21475380007178,None,None,180.21475380007178,None,181.00950664007104,None,,,,21009,0001,2022_Aug_05_1134,localizer,2021.1.3,59.5277426143123,
block,scenes,scenes057.bmp,,,,,0,41,41,41,,,,,,,,,,,,,,,,,,,,,,,,,,,,,,,,,,,,,,,,,,None,,181.00950664007104,None,181.00950664007104,None,2022-08-05-11:37:43.257851,181.02398920000996,181.32240140007343,181.02398920000996,None,None,181.02398920000996,None,181.82649944005533,None,,,,21009,0001,2022_Aug_05_1134,localizer,2021.1.3,59.5277426143123,
block,scenes,scenes028.bmp,,,,,0,42,42,42,,,,,,,,,,,,,,,,,,,,,,,,,,,,,,,,,,,,,,,,,,None,,181.82649944005533,None,181.82649944005533,None,2022-08-05-11:37:44.075907,181.84344740002416,182.1544555000728,181.84344740002416,None,None,181.84344740002416,None,182.63740904005243,None,,,,21009,0001,2022_Aug_05_1134,localizer,2021.1.3,59.5277426143123,
block,scenes,scenes071.bmp,,,,,0,43,43,43,,,,,,,,,,,,,,,,,,,,,,,,,,,,,,,,,,,,,,,,,,None,,182.63740904005243,None,182.63740904005243,None,2022-08-05-11:37:44.883808,182.64955500001088,182.95345860009547,182.64955500001088,None,None,182.64955500001088,None,183.45390944001264,None,,,,21009,0001,2022_Aug_05_1134,localizer,2021.1.3,59.5277426143123,
block,scenes,scenes038.bmp,,,,,0,44,44,44,,,,,,,,,,,,,,,,,,,,,,,,,,,,,,,,,,,,,,,,,,None,,183.45390944001264,None,183.45390944001264,None,2022-08-05-11:37:45.700328,183.46615570003632,183.7704097001115,183.46615570003632,None,None,183.46615570003632,None,184.27038724003359,None,,,,21009,0001,2022_Aug_05_1134,localizer,2021.1.3,59.5277426143123,
block_end,scenes,scenes080.bmp,,,,,0,45,45,45,,,,,,,,,,,,,,,,,,,,,,,,,,,,,,,,,,,,,,,,,,None,,184.27038724003359,None,184.27038724003359,None,2022-08-05-11:37:46.516041,184.27784710004926,184.59082830010448,184.27784710004926,None,None,184.27784710004926,None,185.08682134007103,None,,,,21009,0001,2022_Aug_05_1134,localizer,2021.1.3,59.5277426143123,
block_start,scrambled,scrambled035.bmp,,,,,0,46,46,46,,,,,,,,,,,,,,,,,,,,,,,,,,,,,,,,,,,,,,,,,,t,1.7403638999676332,185.08728070009965,None,185.08728070009965,None,2022-08-05-11:37:49.096991,186.86271160002798,187.17089120007586,186.86271160002798,None,None,186.86271160002798,None,187.67149744001216,None,,,,21009,0001,2022_Aug_05_1134,localizer,2021.1.3,59.5277426143123,
block,scrambled,scrambled027.bmp,,,,,0,47,47,47,,,,,,,,,,,,,,,,,,,,,,,,,,,,,,,,,,,,,,,,,,None,,187.67149744001216,None,187.67149744001216,None,2022-08-05-11:37:49.919825,187.68576220003888,187.98813190008514,187.68576220003888,None,None,187.68576220003888,None,188.48690344002097,None,,,,21009,0001,2022_Aug_05_1134,localizer,2021.1.3,59.5277426143123,
block,scrambled,scrambled058.bmp,,,,,0,48,48,48,,,,,,,,,,,,,,,,,,,,,,,,,,,,,,,,,,,,,,,,,,None,,188.48690344002097,None,188.48690344002097,None,2022-08-05-11:37:50.732834,188.49823620007373,188.81040430010762,188.49823620007373,None,None,188.49823620007373,None,189.303463340085,None,,,,21009,0001,2022_Aug_05_1134,localizer,2021.1.3,59.5277426143123,
block,scrambled,scrambled058.bmp,,,,,0,49,49,49,,,,,,,,,,,,,,,,,,,,,,,,,,,,,,,,,,,,,,,,,,None,,189.303463340085,None,189.303463340085,None,2022-08-05-11:37:51.548894,189.3047923000995,189.62052000011317,189.3047923000995,None,None,189.3047923000995,None,190.10460144006646,None,,,,21009,0001,2022_Aug_05_1134,localizer,2021.1.3,59.5277426143123,
block,scrambled,scrambled005.bmp,,,,,0,50,50,50,,,,,,,,,,,,,,,,,,,,,,,,,,,,,,,,,,,,,,,,,,None,,190.10460144006646,None,190.10460144006646,None,2022-08-05-11:37:52.354196,190.1200454001082,190.420413200045,190.1200454001082,190.1200454001082,None,190.1200454001082,190.1200454001082,190.92014514007604,None,,,,21009,0001,2022_Aug_05_1134,localizer,2021.1.3,59.5277426143123,
block,scrambled,scrambled022.bmp,,,,,0,51,51,51,,,,,,,,,,,,,,,,,,,,,,,,,,,,,,,,,,,,,,,,,,None,,190.92014514007604,None,190.92014514007604,None,2022-08-05-11:37:53.165575,190.92990010010544,191.23695750010666,190.92990010010544,None,None,190.92990010010544,None,191.7374459400773,None,,,,21009,0001,2022_Aug_05_1134,localizer,2021.1.3,59.5277426143123,
block,scrambled,scrambled006.bmp,,,,,0,52,52,52,,,,,,,,,,,,,,,,,,,,,,,,,,,,,,,,,,,,,,,,,,None,,191.7374459400773,None,191.7374459400773,None,2022-08-05-11:37:53.984034,191.7495545001002,192.05370790010784,191.7495545001002,None,None,191.7495545001002,None,192.5596261400962,None,,,,21009,0001,2022_Aug_05_1134,localizer,2021.1.3,59.5277426143123,
block,scrambled,scrambled007.bmp,,,,,0,53,53,53,,,,,,,,,,,,,,,,,,,,,,,,,,,,,,,,,,,,,,,,,,None,,192.5596261400962,None,192.5596261400962,None,2022-08-05-11:37:54.812930,192.58006020006724,192.8869731000159,192.58006020006724,None,None,192.58006020006724,None,193.3701885400107,None,,,,21009,0001,2022_Aug_05_1134,localizer,2021.1.3,59.5277426143123,
block,scrambled,scrambled026.bmp,,,,,0,54,54,54,,,,,,,,,,,,,,,,,,,,,,,,,,,,,,,,,,,,,,,,,,None,,193.3701885400107,None,193.3701885400107,None,2022-08-05-11:37:55.615615,193.37969210010488,193.6872736000223,193.37969210010488,None,None,193.37969210010488,None,194.18716044006868,None,,,,21009,0001,2022_Aug_05_1134,localizer,2021.1.3,59.5277426143123,
block,scrambled,scrambled013.bmp,,,,,0,55,55,55,,,,,,,,,,,,,,,,,,,,,,,,,,,,,,,,,,,,,,,,,,None,,194.18716044006868,None,194.18716044006868,None,2022-08-05-11:37:56.433791,194.19847719999962,194.50390490004793,194.19847719999962,None,None,194.19847719999962,None,195.0036370400805,None,,,,21009,0001,2022_Aug_05_1134,localizer,2021.1.3,59.5277426143123,
block,scrambled,scrambled053.bmp,,,,,0,56,56,56,,,,,,,,,,,,,,,,,,,,,,,,,,,,,,,,,,,,,,,,,,None,,195.0036370400805,None,195.0036370400805,None,2022-08-05-11:37:57.249067,195.01393520005513,195.32037520001177,195.01393520005513,None,None,195.01393520005513,None,195.82105364003218,None,,,,21009,0001,2022_Aug_05_1134,localizer,2021.1.3,59.5277426143123,
block,scrambled,scrambled044.bmp,,,,,0,57,57,57,,,,,,,,,,,,,,,,,,,,,,,,,,,,,,,,,,,,,,,,,,None,,195.82105364003218,None,195.82105364003218,None,2022-08-05-11:37:58.067502,195.83401820005383,196.13930640008766,195.83401820005383,None,None,195.83401820005383,None,196.6374751400901,None,,,,21009,0001,2022_Aug_05_1134,localizer,2021.1.3,59.5277426143123,
block,scrambled,scrambled043.bmp,,,,,0,58,58,58,,,,,,,,,,,,,,,,,,,,,,,,,,,,,,,,,,,,,,,,,,None,,196.6374751400901,None,196.6374751400901,None,2022-08-05-11:37:58.883891,196.64956490008626,196.95374500006437,196.64956490008626,None,None,196.64956490008626,None,197.44316584004554,None,,,,21009,0001,2022_Aug_05_1134,localizer,2021.1.3,59.5277426143123,
block,scrambled,scrambled083.bmp,,,,,0,59,59,59,,,,,,,,,,,,,,,,,,,,,,,,,,,,,,,,,,,,,,,,,,None,,197.44316584004554,None,197.44316584004554,None,2022-08-05-11:37:59.688885,197.45288120000623,197.75401760009117,197.45288120000623,None,None,197.45288120000623,None,198.25350964004173,None,,,,21009,0001,2022_Aug_05_1134,localizer,2021.1.3,59.5277426143123,
block_end,scrambled,scrambled023.bmp,,,,,0,60,60,60,,,,,,,,,,,,,,,,,,,,,,,,,,,,,,,,,,,,,,,,,,None,,198.25350964004173,None,198.25350964004173,None,2022-08-05-11:38:00.498937,198.26431270001922,198.57064770010766,198.26431270001922,None,None,198.26431270001922,None,199.07036164000164,None,,,,21009,0001,2022_Aug_05_1134,localizer,2021.1.3,59.5277426143123,
block_start,objects,objects071.bmp,,,,,0,61,61,61,,,,,,,,,,,,,,,,,,,,,,,,,,,,,,,,,,,,,,,,,,t,1.757152400095947,199.07031390001066,None,199.07031390001066,None,2022-08-05-11:38:03.098066,200.85519880009815,201.17063730000518,200.85519880009815,None,None,200.85519880009815,None,201.67022994002326,None,,,,21009,0001,2022_Aug_05_1134,localizer,2021.1.3,59.5277426143123,
block,objects,objects041.bmp,,,,,0,62,62,62,,,,,,,,,,,,,,,,,,,,,,,,,,,,,,,,,,,,,,,,,,None,,201.67022994002326,None,201.67022994002326,None,2022-08-05-11:38:03.915875,201.68073190003633,201.98716730007436,201.68073190003633,None,None,201.68073190003633,None,202.4867445400916,None,,,,21009,0001,2022_Aug_05_1134,localizer,2021.1.3,59.5277426143123,
block,objects,objects051.bmp,,,,,0,63,63,63,,,,,,,,,,,,,,,,,,,,,,,,,,,,,,,,,,,,,,,,,,None,,202.4867445400916,None,202.4867445400916,None,2022-08-05-11:38:04.732175,202.49718580010813,202.80400720005855,202.49718580010813,None,None,202.49718580010813,None,203.3039318400435,None,,,,21009,0001,2022_Aug_05_1134,localizer,2021.1.3,59.5277426143123,
block,objects,objects085.bmp,,,,,0,64,64,64,,,,,,,,,,,,,,,,,,,,,,,,,,,,,,,,,,,,,,,,,,None,,203.3039318400435,None,203.3039318400435,None,2022-08-05-11:38:05.549355,203.31507050001528,203.6205243000295,203.31507050001528,None,None,203.31507050001528,None,204.11994374000932,None,,,,21009,0001,2022_Aug_05_1134,localizer,2021.1.3,59.5277426143123,
block,objects,objects073.bmp,,,,,0,65,65,65,,,,,,,,,,,,,,,,,,,,,,,,,,,,,,,,,,,,,,,,,,None,,204.11994374000932,None,204.11994374000932,None,2022-08-05-11:38:06.364994,204.1289412000915,204.4372009000508,204.1289412000915,None,None,204.1289412000915,None,204.93689344001467,None,,,,21009,0001,2022_Aug_05_1134,localizer,2021.1.3,59.5277426143123,
block,objects,objects036.bmp,,,,,0,66,66,66,,,,,,,,,,,,,,,,,,,,,,,,,,,,,,,,,,,,,,,,,,None,,204.93689344001467,None,204.93689344001467,None,2022-08-05-11:38:07.182324,204.94720880000386,205.25398630008567,204.94720880000386,None,None,204.94720880000386,None,205.75388573999516,None,,,,21009,0001,2022_Aug_05_1134,localizer,2021.1.3,59.5277426143123,
block,objects,objects014.bmp,,,,,0,67,67,67,,,,,,,,,,,,,,,,,,,,,,,,,,,,,,,,,,,,,,,,,,None,,205.75388573999516,None,205.75388573999516,None,2022-08-05-11:38:08.000503,205.76552010001615,206.07026500010397,205.76552010001615,None,None,205.76552010001615,None,206.57029564008116,None,,,,21009,0001,2022_Aug_05_1134,localizer,2021.1.3,59.5277426143123,
block,objects,objects074.bmp,,,,,0,68,68,68,,,,,,,,,,,,,,,,,,,,,,,,,,,,,,,,,,,,,,,,,,None,,206.57029564008116,None,206.57029564008116,None,2022-08-05-11:38:08.815725,206.57130390009843,206.870774500072,206.57130390009843,None,None,206.57130390009843,None,207.37036394006572,None,,,,21009,0001,2022_Aug_05_1134,localizer,2021.1.3,59.5277426143123,
block,objects,objects045.bmp,,,,,0,69,69,69,,,,,,,,,,,,,,,,,,,,,,,,,,,,,,,,,,,,,,,,,,None,,207.37036394006572,None,207.37036394006572,None,2022-08-05-11:38:09.617990,207.3735584000824,207.68736710003577,207.3735584000824,207.3735584000824,None,207.3735584000824,207.3735584000824,208.18677924007642,None,,,,21009,0001,2022_Aug_05_1134,localizer,2021.1.3,59.5277426143123,
block,objects,objects006.bmp,,,,,0,70,70,70,,,,,,,,,,,,,,,,,,,,,,,,,,,,,,,,,,,,,,,,,,None,,208.18677924007642,None,208.18677924007642,None,2022-08-05-11:38:10.432257,208.19217490009032,208.5039950000355,208.19217490009032,None,None,208.19217490009032,None,209.00572614003903,None,,,,21009,0001,2022_Aug_05_1134,localizer,2021.1.3,59.5277426143123,
block,objects,objects067.bmp,,,,,0,71,71,71,,,,,,,,,,,,,,,,,,,,,,,,,,,,,,,,,,,,,,,,,,None,,209.00572614003903,None,209.00572614003903,None,2022-08-05-11:38:11.255167,209.01933470007498,209.32057340000756,209.01933470007498,None,None,209.01933470007498,None,209.82664834002497,None,,,,21009,0001,2022_Aug_05_1134,localizer,2021.1.3,59.5277426143123,
block,objects,objects038.bmp,,,,,0,72,72,72,,,,,,,,,,,,,,,,,,,,,,,,,,,,,,,,,,,,,,,,,,None,,209.82664834002497,None,209.82664834002497,None,2022-08-05-11:38:12.076063,209.84203910001088,210.15396980009973,209.84203910001088,None,None,209.84203910001088,None,210.6370911400765,None,,,,21009,0001,2022_Aug_05_1134,localizer,2021.1.3,59.5277426143123,
block,objects,objects053.bmp,,,,,0,73,73,73,,,,,,,,,,,,,,,,,,,,,,,,,,,,,,,,,,,,,,,,,,None,,210.6370911400765,None,210.6370911400765,None,2022-08-05-11:38:12.882649,210.64809120004065,210.9542419000063,210.64809120004065,None,None,210.64809120004065,None,211.45388514006044,None,,,,21009,0001,2022_Aug_05_1134,localizer,2021.1.3,59.5277426143123,
block,objects,objects031.bmp,,,,,0,74,74,74,,,,,,,,,,,,,,,,,,,,,,,,,,,,,,,,,,,,,,,,,,None,,211.45388514006044,None,211.45388514006044,None,2022-08-05-11:38:13.700307,211.46510530007072,211.7705439000856,211.46510530007072,None,None,211.46510530007072,None,212.27077824010047,None,,,,21009,0001,2022_Aug_05_1134,localizer,2021.1.3,59.5277426143123,
block_end,objects,objects030.bmp,,,,,0,75,75,75,,,,,,,,,,,,,,,,,,,,,,,,,,,,,,,,,,,,,,,,,,None,,212.27077824010047,None,212.27077824010047,None,2022-08-05-11:38:14.517388,212.28400920005515,212.58723780000582,212.28400920005515,None,None,212.28400920005515,None,213.0868553400971,None,,,,21009,0001,2022_Aug_05_1134,localizer,2021.1.3,59.5277426143123,
null_block,null_block,null_block.bmp,,,,,0,76,76,76,,,,,,,,,,,,,,,,,,,,,,,,,,,,,,,,,,,,,,,,,,t,1.7402217000490054,213.08727040002123,None,213.08727040002123,None,2022-08-05-11:38:17.100287,214.85386354003566,None,214.85386354003566,None,None,214.85386354003566,None,214.85891609999817,None,,,,21009,0001,2022_Aug_05_1134,localizer,2021.1.3,59.5277426143123,
block_start,faces,faces028.bmp,,,,,0,77,77,77,,,,,,,,,,,,,,,,,,,,,,,,,,,,,,,,,,,,,,,,,,t,1.9568766000447795,226.87062950001564,None,226.87062950001564,None,2022-08-05-11:38:31.099992,228.86497840005904,229.1707459000172,228.86497840005904,None,None,228.86497840005904,None,229.67033544001168,None,,,,21009,0001,2022_Aug_05_1134,localizer,2021.1.3,59.5277426143123,
block,faces,faces059.bmp,,,,,0,78,78,78,,,,,,,,,,,,,,,,,,,,,,,,,,,,,,,,,,,,,,,,,,None,,229.67033544001168,None,229.67033544001168,None,2022-08-05-11:38:31.915762,229.68091770005412,229.9874707000563,229.68091770005412,None,None,229.68091770005412,None,230.48711544000543,None,,,,21009,0001,2022_Aug_05_1134,localizer,2021.1.3,59.5277426143123,
block,faces,faces063.bmp,,,,,0,79,79,79,,,,,,,,,,,,,,,,,,,,,,,,,,,,,,,,,,,,,,,,,,None,,230.48711544000543,None,230.48711544000543,None,2022-08-05-11:38:32.732546,230.49889480008278,230.8042940000305,230.49889480008278,None,None,230.49889480008278,None,231.3098515400663,None,,,,21009,0001,2022_Aug_05_1134,localizer,2021.1.3,59.5277426143123,
block,faces,faces043.bmp,,,,,0,80,80,80,,,,,,,,,,,,,,,,,,,,,,,,,,,,,,,,,,,,,,,,,,None,,231.3098515400663,None,231.3098515400663,None,2022-08-05-11:38:33.563163,231.3199935000157,231.62139630003367,231.3199935000157,None,None,231.3199935000157,None,232.12094464006367,None,,,,21009,0001,2022_Aug_05_1134,localizer,2021.1.3,59.5277426143123,
block,faces,faces003.bmp,,,,,0,81,81,81,,,,,,,,,,,,,,,,,,,,,,,,,,,,,,,,,,,,,,,,,,None,,232.12094464006367,None,232.12094464006367,None,2022-08-05-11:38:34.367555,232.12371430010535,232.4379913000157,232.12371430010535,None,None,232.12371430010535,None,232.92654284001327,None,,,,21009,0001,2022_Aug_05_1134,localizer,2021.1.3,59.5277426143123,
block,faces,faces067.bmp,,,,,0,82,82,82,,,,,,,,,,,,,,,,,,,,,,,,,,,,,,,,,,,,,,,,,,None,,232.92654284001327,None,232.92654284001327,None,2022-08-05-11:38:35.179854,232.95133140007965,233.25386550009716,232.95133140007965,None,None,232.95133140007965,None,233.7376459400868,None,,,,21009,0001,2022_Aug_05_1134,localizer,2021.1.3,59.5277426143123,
block,faces,faces082.bmp,,,,,0,83,83,83,,,,,,,,,,,,,,,,,,,,,,,,,,,,,,,,,,,,,,,,,,None,,233.7376459400868,None,233.7376459400868,None,2022-08-05-11:38:35.984258,233.75086670008022,234.0539124000352,233.75086670008022,None,None,233.75086670008022,None,234.5539590400178,None,,,,21009,0001,2022_Aug_05_1134,localizer,2021.1.3,59.5277426143123,
block,faces,faces025.bmp,,,,,0,84,84,84,,,,,,,,,,,,,,,,,,,,,,,,,,,,,,,,,,,,,,,,,,None,,234.5539590400178,None,234.5539590400178,None,2022-08-05-11:38:36.799381,234.5552140000509,234.870984600042,234.5552140000509,None,None,234.5552140000509,None,235.3702633399982,None,,,,21009,0001,2022_Aug_05_1134,localizer,2021.1.3,59.5277426143123,
block,faces,faces071.bmp,,,,,0,85,85,85,,,,,,,,,,,,,,,,,,,,,,,,,,,,,,,,,,,,,,,,,,None,,235.3702633399982,None,235.3702633399982,None,2022-08-05-11:38:37.615886,235.37707590009086,235.68774230009876,235.37707590009086,None,None,235.37707590009086,None,236.1873202400049,None,,,,21009,0001,2022_Aug_05_1134,localizer,2021.1.3,59.5277426143123,
block,faces,faces030.bmp,,,,,0,86,86,86,,,,,,,,,,,,,,,,,,,,,,,,,,,,,,,,,,,,,,,,,,None,,236.1873202400049,None,236.1873202400049,None,2022-08-05-11:38:38.433737,236.19970820005983,236.50432500010356,236.19970820005983,None,None,236.19970820005983,None,237.00353614001068,None,,,,21009,0001,2022_Aug_05_1134,localizer,2021.1.3,59.5277426143123,
block,faces,faces016.bmp,,,,,0,87,87,87,,,,,,,,,,,,,,,,,,,,,,,,,,,,,,,,,,,,,,,,,,None,,237.00353614001068,None,237.00353614001068,None,2022-08-05-11:38:39.249141,237.0049440000439,237.32073570007924,237.0049440000439,None,None,237.0049440000439,None,237.82030914006754,None,,,,21009,0001,2022_Aug_05_1134,localizer,2021.1.3,59.5277426143123,
block,faces,faces062.bmp,,,,,0,88,88,88,,,,,,,,,,,,,,,,,,,,,,,,,,,,,,,,,,,,,,,,,,None,,237.82030914006754,None,237.82030914006754,None,2022-08-05-11:38:40.065738,237.8306220000377,238.1374530000612,237.8306220000377,None,None,237.8306220000377,None,238.63741904001216,None,,,,21009,0001,2022_Aug_05_1134,localizer,2021.1.3,59.5277426143123,
block,faces,faces040.bmp,,,,,0,89,89,89,,,,,,,,,,,,,,,,,,,,,,,,,,,,,,,,,,,,,,,,,,None,,238.63741904001216,None,238.63741904001216,None,2022-08-05-11:38:40.884046,238.6499120000517,238.9541969000129,238.6499120000517,None,None,238.6499120000517,None,239.45356694008223,None,,,,21009,0001,2022_Aug_05_1134,localizer,2021.1.3,59.5277426143123,
block,faces,faces032.bmp,,,,,0,90,90,90,,,,,,,,,,,,,,,,,,,,,,,,,,,,,,,,,,,,,,,,,,None,,239.45356694008223,None,239.45356694008223,None,2022-08-05-11:38:41.699277,239.4660735001089,239.77066390006803,239.4660735001089,None,None,239.4660735001089,None,240.2766714400379,None,,,,21009,0001,2022_Aug_05_1134,localizer,2021.1.3,59.5277426143123,
block_end,faces,faces085.bmp,,,,,0,91,91,91,,,,,,,,,,,,,,,,,,,,,,,,,,,,,,,,,,,,,,,,,,None,,240.2766714400379,None,240.2766714400379,None,2022-08-05-11:38:42.525429,240.2857392000733,240.5875178000424,240.2857392000733,None,None,240.2857392000733,None,241.0870806400664,None,,,,21009,0001,2022_Aug_05_1134,localizer,2021.1.3,59.5277426143123,
block_start,scenes,scenes036.bmp,,,,,0,92,92,92,,,,,,,,,,,,,,,,,,,,,,,,,,,,,,,,,,,,,,,,,,t,1.7401153999380767,241.08742800005712,None,241.08742800005712,None,2022-08-05-11:38:45.097275,242.86197150009684,243.17097450001165,242.86197150009684,None,None,242.86197150009684,None,243.67056213999166,None,,,,21009,0001,2022_Aug_05_1134,localizer,2021.1.3,59.5277426143123,
block,scenes,scenes080.bmp,,,,,0,93,93,93,,,,,,,,,,,,,,,,,,,,,,,,,,,,,,,,,,,,,,,,,,None,,243.67056213999166,None,243.67056213999166,None,2022-08-05-11:38:45.915990,243.6717891000444,243.98758650000673,243.6717891000444,None,None,243.6717891000444,None,244.47111144002992,None,,,,21009,0001,2022_Aug_05_1134,localizer,2021.1.3,59.5277426143123,
block,scenes,scenes057.bmp,,,,,0,94,94,94,,,,,,,,,,,,,,,,,,,,,,,,,,,,,,,,,,,,,,,,,,None,,244.47111144002992,None,244.47111144002992,None,2022-08-05-11:38:46.719522,244.47458850010298,244.7873006000882,244.47458850010298,244.47458850010298,None,244.47458850010298,244.47458850010298,245.28719584008212,None,,,,21009,0001,2022_Aug_05_1134,localizer,2021.1.3,59.5277426143123,
block,scenes,scenes040.bmp,,,,,0,95,95,95,,,,,,,,,,,,,,,,,,,,,,,,,,,,,,,,,,,,,,,,,,None,,245.28719584008212,None,245.28719584008212,None,2022-08-05-11:38:47.532630,245.29611130000558,245.60414570011199,245.29611130000558,None,None,245.29611130000558,None,246.10361343999392,None,,,,21009,0001,2022_Aug_05_1134,localizer,2021.1.3,59.5277426143123,
block,scenes,scenes029.bmp,,,,,0,96,96,96,,,,,,,,,,,,,,,,,,,,,,,,,,,,,,,,,,,,,,,,,,None,,246.10361343999392,None,246.10361343999392,None,2022-08-05-11:38:48.349046,246.11329250002746,246.4207622000249,246.11329250002746,None,None,246.11329250002746,None,246.92078374004922,None,,,,21009,0001,2022_Aug_05_1134,localizer,2021.1.3,59.5277426143123,
block,scenes,scenes088.bmp,,,,,0,97,97,97,,,,,,,,,,,,,,,,,,,,,,,,,,,,,,,,,,,,,,,,,,None,,246.92078374004922,None,246.92078374004922,None,2022-08-05-11:38:49.166209,246.93214220006485,247.23787670000456,246.93214220006485,None,None,246.93214220006485,None,247.73793214005417,None,,,,21009,0001,2022_Aug_05_1134,localizer,2021.1.3,59.5277426143123,
block,scenes,scenes088.bmp,,,,,0,98,98,98,,,,,,,,,,,,,,,,,,,,,,,,,,,,,,,,,,,,,,,,,,None,,247.73793214005417,None,247.73793214005417,None,2022-08-05-11:38:49.985589,247.74070340010803,248.0542513000546,247.74070340010803,None,None,247.74070340010803,None,248.55420043999328,None,,,,21009,0001,2022_Aug_05_1134,localizer,2021.1.3,59.5277426143123,
block,scenes,scenes058.bmp,,,,,0,99,99,99,,,,,,,,,,,,,,,,,,,,,,,,,,,,,,,,,,,,,,,,,,None,,248.55420043999328,None,248.55420043999328,None,2022-08-05-11:38:50.799725,248.56527610006742,248.8709005001001,248.56527610006742,None,None,248.56527610006742,None,249.37046183999627,None,,,,21009,0001,2022_Aug_05_1134,localizer,2021.1.3,59.5277426143123,
block,scenes,scenes073.bmp,,,,,0,100,100,100,,,,,,,,,,,,,,,,,,,,,,,,,,,,,,,,,,,,,,,,,,None,,249.37046183999627,None,249.37046183999627,None,2022-08-05-11:38:51.615893,249.38203950005118,249.68733820004854,249.38203950005118,None,None,249.38203950005118,None,250.18694134003016,None,,,,21009,0001,2022_Aug_05_1134,localizer,2021.1.3,59.5277426143123,
block,scenes,scenes072.bmp,,,,,0,101,101,101,,,,,,,,,,,,,,,,,,,,,,,,,,,,,,,,,,,,,,,,,,None,,250.18694134003016,None,250.18694134003016,None,2022-08-05-11:38:52.431331,250.19610900001135,250.50470580009278,250.19610900001135,None,None,250.19610900001135,None,251.00378624005242,None,,,,21009,0001,2022_Aug_05_1134,localizer,2021.1.3,59.5277426143123,
block,scenes,scenes033.bmp,,,,,0,102,102,102,,,,,,,,,,,,,,,,,,,,,,,,,,,,,,,,,,,,,,,,,,None,,251.00378624005242,None,251.00378624005242,None,2022-08-05-11:38:53.249214,251.0139896000037,251.3208346000174,251.0139896000037,None,None,251.0139896000037,None,251.81097084009087,None,,,,21009,0001,2022_Aug_05_1134,localizer,2021.1.3,59.5277426143123,
block,scenes,scenes067.bmp,,,,,0,103,103,103,,,,,,,,,,,,,,,,,,,,,,,,,,,,,,,,,,,,,,,,,,None,,251.81097084009087,None,251.81097084009087,None,2022-08-05-11:38:54.062340,251.83028840005863,252.13729090010747,251.83028840005863,None,None,251.83028840005863,None,252.62055924003943,None,,,,21009,0001,2022_Aug_05_1134,localizer,2021.1.3,59.5277426143123,
block,scenes,scenes082.bmp,,,,,0,104,104,104,,,,,,,,,,,,,,,,,,,,,,,,,,,,,,,,,,,,,,,,,,None,,252.62055924003943,None,252.62055924003943,None,2022-08-05-11:38:54.865990,252.63107560004573,252.93763780000154,252.63107560004573,None,None,252.63107560004573,None,253.43727004008832,None,,,,21009,0001,2022_Aug_05_1134,localizer,2021.1.3,59.5277426143123,
block,scenes,scenes077.bmp,,,,,0,105,105,105,,,,,,,,,,,,,,,,,,,,,,,,,,,,,,,,,,,,,,,,,,None,,253.43727004008832,None,253.43727004008832,None,2022-08-05-11:38:55.682432,253.447028900031,253.75459640007466,253.447028900031,None,None,253.447028900031,None,254.25409034003968,None,,,,21009,0001,2022_Aug_05_1134,localizer,2021.1.3,59.5277426143123,
block_end,scenes,scenes035.bmp,,,,,0,106,106,106,,,,,,,,,,,,,,,,,,,,,,,,,,,,,,,,,,,,,,,,,,None,,254.25409034003968,None,254.25409034003968,None,2022-08-05-11:38:56.499709,254.26539220009,254.57100260001607,254.26539220009,None,None,254.26539220009,None,255.0718313400168,None,,,,21009,0001,2022_Aug_05_1134,localizer,2021.1.3,59.5277426143123,
block_start,scrambled,scrambled038.bmp,,,,,0,107,107,107,,,,,,,,,,,,,,,,,,,,,,,,,,,,,,,,,,,,,,,,,,t,1.7552607998950407,255.0722002000548,None,255.0722002000548,None,2022-08-05-11:38:59.098652,256.8639042000286,257.1748467000434,256.8639042000286,None,None,256.8639042000286,None,257.6704073400935,None,,,,21009,0001,2022_Aug_05_1134,localizer,2021.1.3,59.5277426143123,
block,scrambled,scrambled070.bmp,,,,,0,108,108,108,,,,,,,,,,,,,,,,,,,,,,,,,,,,,,,,,,,,,,,,,,None,,257.6704073400935,None,257.6704073400935,None,2022-08-05-11:38:59.914990,257.6762474999996,257.98672720009927,257.6762474999996,None,None,257.6762474999996,None,258.487330740015,None,,,,21009,0001,2022_Aug_05_1134,localizer,2021.1.3,59.5277426143123,
block,scrambled,scrambled048.bmp,,,,,0,109,109,109,,,,,,,,,,,,,,,,,,,,,,,,,,,,,,,,,,,,,,,,,,None,,258.487330740015,None,258.487330740015,None,2022-08-05-11:39:00.732790,258.49641840008553,258.81083190010395,258.49641840008553,None,None,258.49641840008553,None,259.30296074009965,None,,,,21009,0001,2022_Aug_05_1134,localizer,2021.1.3,59.5277426143123,
block,scrambled,scrambled047.bmp,,,,,0,110,110,110,,,,,,,,,,,,,,,,,,,,,,,,,,,,,,,,,,,,,,,,,,None,,259.30296074009965,None,259.30296074009965,None,2022-08-05-11:39:01.547968,259.3084435000783,259.6278871000977,259.3084435000783,None,None,259.3084435000783,None,260.1105310400482,None,,,,21009,0001,2022_Aug_05_1134,localizer,2021.1.3,59.5277426143123,
block,scrambled,scrambled051.bmp,,,,,0,111,111,111,,,,,,,,,,,,,,,,,,,,,,,,,,,,,,,,,,,,,,,,,,None,,260.1105310400482,None,260.1105310400482,None,2022-08-05-11:39:02.359798,260.1271319000516,260.43744270002935,260.1271319000516,None,None,260.1271319000516,None,260.9205398400547,None,,,,21009,0001,2022_Aug_05_1134,localizer,2021.1.3,59.5277426143123,
block,scrambled,scrambled026.bmp,,,,,0,112,112,112,,,,,,,,,,,,,,,,,,,,,,,,,,,,,,,,,,,,,,,,,,None,,260.9205398400547,None,260.9205398400547,None,2022-08-05-11:39:03.165973,260.9219614000758,261.2377865000162,260.9219614000758,None,None,260.9219614000758,None,261.7365256400546,None,,,,21009,0001,2022_Aug_05_1134,localizer,2021.1.3,59.5277426143123,
block,scrambled,scrambled085.bmp,,,,,0,113,113,113,,,,,,,,,,,,,,,,,,,,,,,,,,,,,,,,,,,,,,,,,,None,,261.7365256400546,None,261.7365256400546,None,2022-08-05-11:39:03.981121,261.7398059000261,262.0534454000881,261.7398059000261,None,None,261.7398059000261,None,262.55400904004927,None,,,,21009,0001,2022_Aug_05_1134,localizer,2021.1.3,59.5277426143123,
block,scrambled,scrambled065.bmp,,,,,0,114,114,114,,,,,,,,,,,,,,,,,,,,,,,,,,,,,,,,,,,,,,,,,,None,,262.55400904004927,None,262.55400904004927,None,2022-08-05-11:39:04.798448,262.5622767000459,262.87075600004755,262.5622767000459,None,None,262.5622767000459,None,263.3705924400594,None,,,,21009,0001,2022_Aug_05_1134,localizer,2021.1.3,59.5277426143123,
block,scrambled,scrambled082.bmp,,,,,0,115,115,115,,,,,,,,,,,,,,,,,,,,,,,,,,,,,,,,,,,,,,,,,,None,,263.3705924400594,None,263.3705924400594,None,2022-08-05-11:39:05.615026,263.38153320003767,263.68764140002895,263.38153320003767,None,None,263.38153320003767,None,264.1879763399949,None,,,,21009,0001,2022_Aug_05_1134,localizer,2021.1.3,59.5277426143123,
block,scrambled,scrambled018.bmp,,,,,0,116,116,116,,,,,,,,,,,,,,,,,,,,,,,,,,,,,,,,,,,,,,,,,,None,,264.1879763399949,None,264.1879763399949,None,2022-08-05-11:39:06.433396,264.199009800097,264.50412120006513,264.199009800097,None,None,264.199009800097,None,265.00475794000084,None,,,,21009,0001,2022_Aug_05_1134,localizer,2021.1.3,59.5277426143123,
block,scrambled,scrambled002.bmp,,,,,0,117,117,117,,,,,,,,,,,,,,,,,,,,,,,,,,,,,,,,,,,,,,,,,,None,,265.00475794000084,None,265.00475794000084,None,2022-08-05-11:39:07.250177,265.0167329000542,265.3209880000213,265.0167329000542,None,None,265.0167329000542,None,265.8206243400229,None,,,,21009,0001,2022_Aug_05_1134,localizer,2021.1.3,59.5277426143123,
block,scrambled,scrambled055.bmp,,,,,0,118,118,118,,,,,,,,,,,,,,,,,,,,,,,,,,,,,,,,,,,,,,,,,,None,,265.8206243400229,None,265.8206243400229,None,2022-08-05-11:39:08.065007,265.83018700010143,266.1376339000417,265.83018700010143,None,None,265.83018700010143,None,266.6374815400224,None,,,,21009,0001,2022_Aug_05_1134,localizer,2021.1.3,59.5277426143123,
block,scrambled,scrambled057.bmp,,,,,0,119,119,119,,,,,,,,,,,,,,,,,,,,,,,,,,,,,,,,,,,,,,,,,,None,,266.6374815400224,None,266.6374815400224,None,2022-08-05-11:39:08.883248,266.6476189000532,266.9550443000626,266.6476189000532,None,None,266.6476189000532,None,267.45474534009116,None,,,,21009,0001,2022_Aug_05_1134,localizer,2021.1.3,59.5277426143123,
block,scrambled,scrambled062.bmp,,,,,0,120,120,120,,,,,,,,,,,,,,,,,,,,,,,,,,,,,,,,,,,,,,,,,,None,,267.45474534009116,None,267.45474534009116,None,2022-08-05-11:39:09.699997,267.4611805001041,267.7772266000975,267.4611805001041,None,None,267.4611805001041,None,268.27178964000194,None,,,,21009,0001,2022_Aug_05_1134,localizer,2021.1.3,59.5277426143123,
block_end,scrambled,scrambled044.bmp,,,,,0,121,121,121,,,,,,,,,,,,,,,,,,,,,,,,,,,,,,,,,,,,,,,,,,None,,268.27178964000194,None,268.27178964000194,None,2022-08-05-11:39:10.518330,268.27322160010226,268.58747220004443,268.27322160010226,None,None,268.27322160010226,None,269.0870107399998,None,,,,21009,0001,2022_Aug_05_1134,localizer,2021.1.3,59.5277426143123,
block_start,scrambled,scrambled020.bmp,,,,,0,122,122,122,,,,,,,,,,,,,,,,,,,,,,,,,,,,,,,,,,,,,,,,,,t,1.7398341000080109,269.08755500009283,None,269.08755500009283,None,2022-08-05-11:39:13.099615,270.8641185000306,271.17085810005665,270.8641185000306,None,None,270.8641185000306,None,271.67073964006266,None,,,,21009,0001,2022_Aug_05_1134,localizer,2021.1.3,59.5277426143123,
block,scrambled,scrambled057.bmp,,,,,0,123,123,123,,,,,,,,,,,,,,,,,,,,,,,,,,,,,,,,,,,,,,,,,,None,,271.67073964006266,None,271.67073964006266,None,2022-08-05-11:39:13.916166,271.6720463000238,271.9944400000386,271.6720463000238,None,None,271.6720463000238,None,272.4717596400762,None,,,,21009,0001,2022_Aug_05_1134,localizer,2021.1.3,59.5277426143123,
block,scrambled,scrambled017.bmp,,,,,0,124,124,124,,,,,,,,,,,,,,,,,,,,,,,,,,,,,,,,,,,,,,,,,,None,,272.4717596400762,None,272.4717596400762,None,2022-08-05-11:39:14.722176,272.4871437000111,272.78756360011175,272.4871437000111,272.4871437000111,None,272.4871437000111,272.4871437000111,273.2871909400448,None,,,,21009,0001,2022_Aug_05_1134,localizer,2021.1.3,59.5277426143123,
block,scrambled,scrambled054.bmp,,,,,0,125,125,125,,,,,,,,,,,,,,,,,,,,,,,,,,,,,,,,,,,,,,,,,,None,,273.2871909400448,None,273.2871909400448,None,2022-08-05-11:39:15.532622,273.2923814000096,273.6044366999995,273.2923814000096,None,None,273.2923814000096,None,274.10376084006856,None,,,,21009,0001,2022_Aug_05_1134,localizer,2021.1.3,59.5277426143123,
block,scrambled,scrambled074.bmp,,,,,0,126,126,126,,,,,,,,,,,,,,,,,,,,,,,,,,,,,,,,,,,,,,,,,,None,,274.10376084006856,None,274.10376084006856,None,2022-08-05-11:39:16.347795,274.1118021000875,274.4206186000956,274.1118021000875,None,None,274.1118021000875,None,274.9204572400078,None,,,,21009,0001,2022_Aug_05_1134,localizer,2021.1.3,59.5277426143123,
block,scrambled,scrambled042.bmp,,,,,0,127,127,127,,,,,,,,,,,,,,,,,,,,,,,,,,,,,,,,,,,,,,,,,,None,,274.9204572400078,None,274.9204572400078,None,2022-08-05-11:39:17.164892,274.9297056000214,275.2384070000844,274.9297056000214,None,None,274.9297056000214,None,275.7380842400482,None,,,,21009,0001,2022_Aug_05_1134,localizer,2021.1.3,59.5277426143123,
block,scrambled,scrambled076.bmp,,,,,0,128,128,128,,,,,,,,,,,,,,,,,,,,,,,,,,,,,,,,,,,,,,,,,,None,,275.7380842400482,None,275.7380842400482,None,2022-08-05-11:39:17.983687,275.7489750001114,276.0550526001025,275.7489750001114,None,None,275.7489750001114,None,276.5550190400565,None,,,,21009,0001,2022_Aug_05_1134,localizer,2021.1.3,59.5277426143123,
block,scrambled,scrambled036.bmp,,,,,0,129,129,129,,,,,,,,,,,,,,,,,,,,,,,,,,,,,,,,,,,,,,,,,,None,,276.5550190400565,None,276.5550190400565,None,2022-08-05-11:39:18.800439,276.5655258001061,276.87093070009723,276.5655258001061,None,None,276.5655258001061,None,277.3705965400906,None,,,,21009,0001,2022_Aug_05_1134,localizer,2021.1.3,59.5277426143123,
block,scrambled,scrambled064.bmp,,,,,0,130,130,130,,,,,,,,,,,,,,,,,,,,,,,,,,,,,,,,,,,,,,,,,,None,,277.3705965400906,None,277.3705965400906,None,2022-08-05-11:39:19.615055,277.37982750008814,277.687627300038,277.37982750008814,None,None,277.37982750008814,None,278.188529240014,None,,,,21009,0001,2022_Aug_05_1134,localizer,2021.1.3,59.5277426143123,
block,scrambled,scrambled041.bmp,,,,,0,131,131,131,,,,,,,,,,,,,,,,,,,,,,,,,,,,,,,,,,,,,,,,,,None,,278.188529240014,None,278.188529240014,None,2022-08-05-11:39:20.435126,278.200317800045,278.5049308000598,278.200317800045,None,None,278.200317800045,None,279.0038416400086,None,,,,21009,0001,2022_Aug_05_1134,localizer,2021.1.3,59.5277426143123,
block,scrambled,scrambled060.bmp,,,,,0,132,132,132,,,,,,,,,,,,,,,,,,,,,,,,,,,,,,,,,,,,,,,,,,None,,279.0038416400086,None,279.0038416400086,None,2022-08-05-11:39:21.248250,279.012678100029,279.3206740000751,279.012678100029,None,None,279.012678100029,None,279.82108114000874,None,,,,21009,0001,2022_Aug_05_1134,localizer,2021.1.3,59.5277426143123,
block,scrambled,scrambled014.bmp,,,,,0,133,133,133,,,,,,,,,,,,,,,,,,,,,,,,,,,,,,,,,,,,,,,,,,None,,279.82108114000874,None,279.82108114000874,None,2022-08-05-11:39:22.066665,279.83228800003417,280.13805030006915,279.83228800003417,None,None,279.83228800003417,None,280.63725764006375,None,,,,21009,0001,2022_Aug_05_1134,localizer,2021.1.3,59.5277426143123,
block,scrambled,scrambled071.bmp,,,,,0,134,134,134,,,,,,,,,,,,,,,,,,,,,,,,,,,,,,,,,,,,,,,,,,None,,280.63725764006375,None,280.63725764006375,None,2022-08-05-11:39:22.881699,280.6451512000058,280.9547074000584,280.6451512000058,None,None,280.6451512000058,None,281.4539605400525,None,,,,21009,0001,2022_Aug_05_1134,localizer,2021.1.3,59.5277426143123,
block,scrambled,scrambled046.bmp,,,,,0,135,135,135,,,,,,,,,,,,,,,,,,,,,,,,,,,,,,,,,,,,,,,,,,None,,281.4539605400525,None,281.4539605400525,None,2022-08-05-11:39:23.698349,281.4634837000631,281.77136240003165,281.4634837000631,None,None,281.4634837000631,None,282.2706376400776,None,,,,21009,0001,2022_Aug_05_1134,localizer,2021.1.3,59.5277426143123,
block_end,scrambled,scrambled065.bmp,,,,,0,136,136,136,,,,,,,,,,,,,,,,,,,,,,,,,,,,,,,,,,,,,,,,,,None,,282.2706376400776,None,282.2706376400776,None,2022-08-05-11:39:24.516068,282.2720732000889,282.58725950005464,282.2720732000889,None,None,282.2720732000889,None,283.0715193400858,None,,,,21009,0001,2022_Aug_05_1134,localizer,2021.1.3,59.5277426143123,
block_start,scenes,scenes090.bmp,,,,,0,137,137,137,,,,,,,,,,,,,,,,,,,,,,,,,,,,,,,,,,,,,,,,,,t,1.754923400003463,283.0724884000374,None,283.0724884000374,None,2022-08-05-11:39:27.097277,284.8622749000788,285.17097040009685,284.8622749000788,None,None,284.8622749000788,None,285.6721444400493,None,,,,21009,0001,2022_Aug_05_1134,localizer,2021.1.3,59.5277426143123,
block,scenes,scenes082.bmp,,,,,0,138,138,138,,,,,,,,,,,,,,,,,,,,,,,,,,,,,,,,,,,,,,,,,,None,,285.6721444400493,None,285.6721444400493,None,2022-08-05-11:39:27.918535,285.6747644999996,285.9876743000932,285.6747644999996,None,None,285.6747644999996,None,286.48744734008795,None,,,,21009,0001,2022_Aug_05_1134,localizer,2021.1.3,59.5277426143123,
block,scenes,scenes071.bmp,,,,,0,139,139,139,,,,,,,,,,,,,,,,,,,,,,,,,,,,,,,,,,,,,,,,,,None,,286.48744734008795,None,286.48744734008795,None,2022-08-05-11:39:28.731880,286.4888300000457,286.804471700103,286.4888300000457,None,None,286.4888300000457,None,287.30403364000375,None,,,,21009,0001,2022_Aug_05_1134,localizer,2021.1.3,59.5277426143123,
block,scenes,scenes025.bmp,,,,,0,140,140,140,,,,,,,,,,,,,,,,,,,,,,,,,,,,,,,,,,,,,,,,,,None,,287.30403364000375,None,287.30403364000375,None,2022-08-05-11:39:29.549464,287.31809950002935,287.6210397001123,287.31809950002935,None,None,287.31809950002935,None,288.12123104003257,None,,,,21009,0001,2022_Aug_05_1134,localizer,2021.1.3,59.5277426143123,
block,scenes,scenes041.bmp,,,,,0,141,141,141,,,,,,,,,,,,,,,,,,,,,,,,,,,,,,,,,,,,,,,,,,None,,288.12123104003257,None,288.12123104003257,None,2022-08-05-11:39:30.366650,288.1281161000952,288.4377942000283,288.1281161000952,None,None,288.1281161000952,None,288.9372933400329,None,,,,21009,0001,2022_Aug_05_1134,localizer,2021.1.3,59.5277426143123,
block,scenes,scenes081.bmp,,,,,0,142,142,142,,,,,,,,,,,,,,,,,,,,,,,,,,,,,,,,,,,,,,,,,,None,,288.9372933400329,None,288.9372933400329,None,2022-08-05-11:39:31.181730,288.9467599000782,289.25434420001693,288.9467599000782,None,None,288.9467599000782,None,289.7537404400529,None,,,,21009,0001,2022_Aug_05_1134,localizer,2021.1.3,59.5277426143123,
block,scenes,scenes052.bmp,,,,,0,143,143,143,,,,,,,,,,,,,,,,,,,,,,,,,,,,,,,,,,,,,,,,,,None,,289.7537404400529,None,289.7537404400529,None,2022-08-05-11:39:31.998190,289.76181330007967,290.0711909000529,289.76181330007967,None,None,289.76181330007967,None,290.57113344005774,None,,,,21009,0001,2022_Aug_05_1134,localizer,2021.1.3,59.5277426143123,
block,scenes,scenes079.bmp,,,,,0,144,144,144,,,,,,,,,,,,,,,,,,,,,,,,,,,,,,,,,,,,,,,,,,None,,290.57113344005774,None,290.57113344005774,None,2022-08-05-11:39:32.816742,290.58041819999926,290.8875332000898,290.58041819999926,None,None,290.58041819999926,None,291.3766999399988,None,,,,21009,0001,2022_Aug_05_1134,localizer,2021.1.3,59.5277426143123,
block,scenes,scenes047.bmp,,,,,0,145,145,145,,,,,,,,,,,,,,,,,,,,,,,,,,,,,,,,,,,,,,,,,,None,,291.3766999399988,None,291.3766999399988,None,2022-08-05-11:39:33.625128,291.3900882001035,291.7044238001108,291.3900882001035,None,None,291.3900882001035,None,292.18796224000397,None,,,,21009,0001,2022_Aug_05_1134,localizer,2021.1.3,59.5277426143123,
block,scenes,scenes015.bmp,,,,,0,146,146,146,,,,,,,,,,,,,,,,,,,,,,,,,,,,,,,,,,,,,,,,,,None,,292.18796224000397,None,292.18796224000397,None,2022-08-05-11:39:34.433565,292.2001401000889,292.5043598000193,292.2001401000889,None,None,292.2001401000889,None,293.0046898400644,None,,,,21009,0001,2022_Aug_05_1134,localizer,2021.1.3,59.5277426143123,
block,scenes,scenes087.bmp,,,,,0,147,147,147,,,,,,,,,,,,,,,,,,,,,,,,,,,,,,,,,,,,,,,,,,None,,293.0046898400644,None,293.0046898400644,None,2022-08-05-11:39:35.250306,293.0157623999985,293.3210235000588,293.0157623999985,None,None,293.0157623999985,None,293.8269186401041,None,,,,21009,0001,2022_Aug_05_1134,localizer,2021.1.3,59.5277426143123,
block,scenes,scenes003.bmp,,,,,0,148,148,148,,,,,,,,,,,,,,,,,,,,,,,,,,,,,,,,,,,,,,,,,,None,,293.8269186401041,None,293.8269186401041,None,2022-08-05-11:39:36.078156,293.8340635000495,294.1373545000097,293.8340635000495,None,None,293.8340635000495,None,294.6378885400947,None,,,,21009,0001,2022_Aug_05_1134,localizer,2021.1.3,59.5277426143123,
block,scenes,scenes076.bmp,,,,,0,149,149,149,,,,,,,,,,,,,,,,,,,,,,,,,,,,,,,,,,,,,,,,,,None,,294.6378885400947,None,294.6378885400947,None,2022-08-05-11:39:36.883309,294.6490872000577,294.9567252000561,294.6490872000577,None,None,294.6490872000577,None,295.4547485399991,None,,,,21009,0001,2022_Aug_05_1134,localizer,2021.1.3,59.5277426143123,
block,scenes,scenes066.bmp,,,,,0,150,150,150,,,,,,,,,,,,,,,,,,,,,,,,,,,,,,,,,,,,,,,,,,None,,295.4547485399991,None,295.4547485399991,None,2022-08-05-11:39:37.700368,295.465867800056,295.7712720000418,295.465867800056,None,None,295.465867800056,None,296.2711290400941,None,,,,21009,0001,2022_Aug_05_1134,localizer,2021.1.3,59.5277426143123,
block_end,scenes,scenes054.bmp,,,,,0,151,151,151,,,,,,,,,,,,,,,,,,,,,,,,,,,,,,,,,,,,,,,,,,None,,296.2711290400941,None,296.2711290400941,None,2022-08-05-11:39:38.516552,296.2817853000015,296.5877972000744,296.2817853000015,None,None,296.2817853000015,None,297.0873346400214,None,,,,21009,0001,2022_Aug_05_1134,localizer,2021.1.3,59.5277426143123,
null_block,null_block,null_block.bmp,,,,,0,152,152,152,,,,,,,,,,,,,,,,,,,,,,,,,,,,,,,,,,,,,,,,,,t,1.7400634000077844,297.0874855000293,None,297.0874855000293,None,2022-08-05-11:39:41.088660,298.84227784005924,None,298.84227784005924,None,None,298.84227784005924,None,298.846233200049,None,,,,21009,0001,2022_Aug_05_1134,localizer,2021.1.3,59.5277426143123,
block_start,objects,objects059.bmp,,,,,0,153,153,153,,,,,,,,,,,,,,,,,,,,,,,,,,,,,,,,,,,,,,,,,,t,1.9720202999887988,310.8545066000661,None,310.8545066000661,None,2022-08-05-11:39:55.098720,312.8552158001112,313.1711666000774,312.8552158001112,None,None,312.8552158001112,None,313.6543062400771,None,,,,21009,0001,2022_Aug_05_1134,localizer,2021.1.3,59.5277426143123,
block,objects,objects038.bmp,,,,,0,154,154,154,,,,,,,,,,,,,,,,,,,,,,,,,,,,,,,,,,,,,,,,,,None,,313.6543062400771,None,313.6543062400771,None,2022-08-05-11:39:55.901886,313.6555101000704,313.9712064000778,313.6555101000704,313.6555101000704,None,313.6555101000704,313.6555101000704,314.47089974004774,None,,,,21009,0001,2022_Aug_05_1134,localizer,2021.1.3,59.5277426143123,
block,objects,objects015.bmp,,,,,0,155,155,155,,,,,,,,,,,,,,,,,,,,,,,,,,,,,,,,,,,,,,,,,,None,,314.47089974004774,None,314.47089974004774,None,2022-08-05-11:39:56.716324,314.4723396000918,314.78794390009716,314.4723396000918,None,None,314.4723396000918,None,315.2873523399932,None,,,,21009,0001,2022_Aug_05_1134,localizer,2021.1.3,59.5277426143123,
block,objects,objects062.bmp,,,,,0,156,156,156,,,,,,,,,,,,,,,,,,,,,,,,,,,,,,,,,,,,,,,,,,None,,315.2873523399932,None,315.2873523399932,None,2022-08-05-11:39:57.531789,315.296269100043,315.6044662001077,315.296269100043,None,None,315.296269100043,None,316.1050468400819,None,,,,21009,0001,2022_Aug_05_1134,localizer,2021.1.3,59.5277426143123,
block,objects,objects032.bmp,,,,,0,157,157,157,,,,,,,,,,,,,,,,,,,,,,,,,,,,,,,,,,,,,,,,,,None,,316.1050468400819,None,316.1050468400819,None,2022-08-05-11:39:58.354474,316.12260870006867,316.4378371000057,316.12260870006867,None,None,316.12260870006867,None,316.9207993400516,None,,,,21009,0001,2022_Aug_05_1134,localizer,2021.1.3,59.5277426143123,
block,objects,objects086.bmp,,,,,0,158,158,158,,,,,,,,,,,,,,,,,,,,,,,,,,,,,,,,,,,,,,,,,,None,,316.9207993400516,None,316.9207993400516,None,2022-08-05-11:39:59.165234,316.9298040000722,317.2379887000425,316.9298040000722,None,None,316.9298040000722,None,317.7375548400916,None,,,,21009,0001,2022_Aug_05_1134,localizer,2021.1.3,59.5277426143123,
block,objects,objects025.bmp,,,,,0,159,159,159,,,,,,,,,,,,,,,,,,,,,,,,,,,,,,,,,,,,,,,,,,None,,317.7375548400916,None,317.7375548400916,None,2022-08-05-11:39:59.982985,317.7462870000163,318.0546190000605,317.7462870000163,None,None,317.7462870000163,None,318.55420524002983,None,,,,21009,0001,2022_Aug_05_1134,localizer,2021.1.3,59.5277426143123,
block,objects,objects006.bmp,,,,,0,160,160,160,,,,,,,,,,,,,,,,,,,,,,,,,,,,,,,,,,,,,,,,,,None,,318.55420524002983,None,318.55420524002983,None,2022-08-05-11:40:00.799636,318.55567810009234,318.8713703000685,318.55567810009234,None,None,318.55567810009234,None,319.3577078400878,None,,,,21009,0001,2022_Aug_05_1134,localizer,2021.1.3,59.5277426143123,
block,objects,objects078.bmp,,,,,0,161,161,161,,,,,,,,,,,,,,,,,,,,,,,,,,,,,,,,,,,,,,,,,,None,,319.3577078400878,None,319.3577078400878,None,2022-08-05-11:40:01.608096,319.37547389999963,319.6878614000743,319.37547389999963,319.37547389999963,None,319.37547389999963,319.37547389999963,320.1707093400648,None,,,,21009,0001,2022_Aug_05_1134,localizer,2021.1.3,59.5277426143123,
block,objects,objects057.bmp,,,,,0,162,162,162,,,,,,,,,,,,,,,,,,,,,,,,,,,,,,,,,,,,,,,,,,None,,320.1707093400648,None,320.1707093400648,None,2022-08-05-11:40:02.415308,320.17957930010743,320.4878329000203,320.17957930010743,None,None,320.17957930010743,None,320.9876947399927,None,,,,21009,0001,2022_Aug_05_1134,localizer,2021.1.3,59.5277426143123,
block,objects,objects071.bmp,,,,,0,163,163,163,,,,,,,,,,,,,,,,,,,,,,,,,,,,,,,,,,,,,,,,,,None,,320.9876947399927,None,320.9876947399927,None,2022-08-05-11:40:03.233332,320.9890768000623,321.30475750006735,320.9890768000623,None,None,320.9890768000623,None,321.80859454004093,None,,,,21009,0001,2022_Aug_05_1134,localizer,2021.1.3,59.5277426143123,
block,objects,objects082.bmp,,,,,0,164,164,164,,,,,,,,,,,,,,,,,,,,,,,,,,,,,,,,,,,,,,,,,,None,,321.80859454004093,None,321.80859454004093,None,2022-08-05-11:40:04.061006,321.827933600056,322.1383871000726,321.827933600056,None,None,321.827933600056,None,322.62083964007905,None,,,,21009,0001,2022_Aug_05_1134,localizer,2021.1.3,59.5277426143123,
block,objects,objects075.bmp,,,,,0,165,165,165,,,,,,,,,,,,,,,,,,,,,,,,,,,,,,,,,,,,,,,,,,None,,322.62083964007905,None,322.62083964007905,None,2022-08-05-11:40:04.866271,322.6290842000162,322.9386865000706,322.6290842000162,None,None,322.6290842000162,None,323.43809634009375,None,,,,21009,0001,2022_Aug_05_1134,localizer,2021.1.3,59.5277426143123,
block,objects,objects074.bmp,,,,,0,166,166,166,,,,,,,,,,,,,,,,,,,,,,,,,,,,,,,,,,,,,,,,,,None,,323.43809634009375,None,323.43809634009375,None,2022-08-05-11:40:05.683515,323.43931020004675,323.75535840005614,323.43931020004675,None,None,323.43931020004675,None,324.25484674009493,None,,,,21009,0001,2022_Aug_05_1134,localizer,2021.1.3,59.5277426143123,
block_end,objects,objects023.bmp,,,,,0,167,167,167,,,,,,,,,,,,,,,,,,,,,,,,,,,,,,,,,,,,,,,,,,None,,324.25484674009493,None,324.25484674009493,None,2022-08-05-11:40:06.500453,324.26611930003855,324.57149740005843,324.26611930003855,None,None,324.26611930003855,None,325.070822840021,None,,,,21009,0001,2022_Aug_05_1134,localizer,2021.1.3,59.5277426143123,
block_start,faces,faces073.bmp,,,,,0,168,168,168,,,,,,,,,,,,,,,,,,,,,,,,,,,,,,,,,,,,,,,,,,t,1.7551181999733672,325.07131060003303,None,325.07131060003303,None,2022-08-05-11:40:09.098819,326.86309900006745,327.17113830009475,326.86309900006745,None,None,326.86309900006745,None,327.67101164003833,None,,,,21009,0001,2022_Aug_05_1134,localizer,2021.1.3,59.5277426143123,
block,faces,faces007.bmp,,,,,0,169,169,169,,,,,,,,,,,,,,,,,,,,,,,,,,,,,,,,,,,,,,,,,,None,,327.67101164003833,None,327.67101164003833,None,2022-08-05-11:40:09.916441,327.6804666001117,327.98767470009625,327.6804666001117,None,None,327.6804666001117,None,328.48761374007444,None,,,,21009,0001,2022_Aug_05_1134,localizer,2021.1.3,59.5277426143123,
block,faces,faces071.bmp,,,,,0,170,170,170,,,,,,,,,,,,,,,,,,,,,,,,,,,,,,,,,,,,,,,,,,None,,328.48761374007444,None,328.48761374007444,None,2022-08-05-11:40:10.733040,328.48914610000793,328.8046096001053,328.48914610000793,None,None,328.48914610000793,None,329.30443624004255,None,,,,21009,0001,2022_Aug_05_1134,localizer,2021.1.3,59.5277426143123,
block,faces,faces046.bmp,,,,,0,171,171,171,,,,,,,,,,,,,,,,,,,,,,,,,,,,,,,,,,,,,,,,,,None,,329.30443624004255,None,329.30443624004255,None,2022-08-05-11:40:11.549862,329.3152785000857,329.62111740000546,329.3152785000857,None,None,329.3152785000857,None,330.1208563400898,None,,,,21009,0001,2022_Aug_05_1134,localizer,2021.1.3,59.5277426143123,
block,faces,faces077.bmp,,,,,0,172,172,172,,,,,,,,,,,,,,,,,,,,,,,,,,,,,,,,,,,,,,,,,,None,,330.1208563400898,None,330.1208563400898,None,2022-08-05-11:40:12.366288,330.12233160005417,330.43782089999877,330.12233160005417,None,None,330.12233160005417,None,330.93744614003225,None,,,,21009,0001,2022_Aug_05_1134,localizer,2021.1.3,59.5277426143123,
block,faces,faces077.bmp,,,,,0,173,173,173,,,,,,,,,,,,,,,,,,,,,,,,,,,,,,,,,,,,,,,,,,None,,330.93744614003225,None,330.93744614003225,None,2022-08-05-11:40:13.181879,330.93958440003917,331.25460700003896,330.93958440003917,None,None,330.93958440003917,None,331.7541255400749,None,,,,21009,0001,2022_Aug_05_1134,localizer,2021.1.3,59.5277426143123,
block,faces,faces009.bmp,,,,,0,174,174,174,,,,,,,,,,,,,,,,,,,,,,,,,,,,,,,,,,,,,,,,,,None,,331.7541255400749,None,331.7541255400749,None,2022-08-05-11:40:13.998564,331.76187780010514,332.07148360006977,331.76187780010514,None,None,331.76187780010514,None,332.57228294007945,None,,,,21009,0001,2022_Aug_05_1134,localizer,2021.1.3,59.5277426143123,
block,faces,faces070.bmp,,,,,0,175,175,175,,,,,,,,,,,,,,,,,,,,,,,,,,,,,,,,,,,,,,,,,,None,,332.57228294007945,None,332.57228294007945,None,2022-08-05-11:40:14.818876,332.58518350007944,332.8878807000583,332.58518350007944,None,None,332.58518350007944,None,333.3888266400201,None,,,,21009,0001,2022_Aug_05_1134,localizer,2021.1.3,59.5277426143123,
block,faces,faces024.bmp,,,,,0,176,176,176,,,,,,,,,,,,,,,,,,,,,,,,,,,,,,,,,,,,,,,,,,None,,333.3888266400201,None,333.3888266400201,None,2022-08-05-11:40:15.635328,333.3913526000688,333.70544070005417,333.3913526000688,None,None,333.3913526000688,None,334.2043312400812,None,,,,21009,0001,2022_Aug_05_1134,localizer,2021.1.3,59.5277426143123,
block,faces,faces058.bmp,,,,,0,177,177,177,,,,,,,,,,,,,,,,,,,,,,,,,,,,,,,,,,,,,,,,,,None,,334.2043312400812,None,334.2043312400812,None,2022-08-05-11:40:16.449756,334.21148750011344,334.52120690001175,334.21148750011344,None,None,334.21148750011344,None,335.02173554005566,None,,,,21009,0001,2022_Aug_05_1134,localizer,2021.1.3,59.5277426143123,
block,faces,faces049.bmp,,,,,0,178,178,178,,,,,,,,,,,,,,,,,,,,,,,,,,,,,,,,,,,,,,,,,,None,,335.02173554005566,None,335.02173554005566,None,2022-08-05-11:40:17.267235,335.03386180009693,335.3379264000105,335.03386180009693,None,None,335.03386180009693,None,335.8278361401055,None,,,,21009,0001,2022_Aug_05_1134,localizer,2021.1.3,59.5277426143123,
block,faces,faces019.bmp,,,,,0,179,179,179,,,,,,,,,,,,,,,,,,,,,,,,,,,,,,,,,,,,,,,,,,None,,335.8278361401055,None,335.8278361401055,None,2022-08-05-11:40:18.077266,335.8493480000179,336.1546509000473,335.8493480000179,None,None,335.8493480000179,None,336.6374862400582,None,,,,21009,0001,2022_Aug_05_1134,localizer,2021.1.3,59.5277426143123,
block,faces,faces002.bmp,,,,,0,180,180,180,,,,,,,,,,,,,,,,,,,,,,,,,,,,,,,,,,,,,,,,,,None,,336.6374862400582,None,336.6374862400582,None,2022-08-05-11:40:18.881925,336.6465266000014,336.954575400101,336.6465266000014,None,None,336.6465266000014,None,337.4544104401022,None,,,,21009,0001,2022_Aug_05_1134,localizer,2021.1.3,59.5277426143123,
block,faces,faces075.bmp,,,,,0,181,181,181,,,,,,,,,,,,,,,,,,,,,,,,,,,,,,,,,,,,,,,,,,None,,337.4544104401022,None,337.4544104401022,None,2022-08-05-11:40:19.699839,337.4634987000609,337.771276100073,337.4634987000609,None,None,337.4634987000609,None,338.27220564002636,None,,,,21009,0001,2022_Aug_05_1134,localizer,2021.1.3,59.5277426143123,
block_end,faces,faces087.bmp,,,,,0,182,182,182,,,,,,,,,,,,,,,,,,,,,,,,,,,,,,,,,,,,,,,,,,None,,338.27220564002636,None,338.27220564002636,None,2022-08-05-11:40:20.517178,338.2775254000444,338.5880899000913,338.2775254000444,None,None,338.2775254000444,None,339.0875910399947,None,,,,21009,0001,2022_Aug_05_1134,localizer,2021.1.3,59.5277426143123,
block_start,faces,faces034.bmp,,,,,0,183,183,183,,,,,,,,,,,,,,,,,,,,,,,,,,,,,,,,,,,,,,,,,,t,1.7384673999622464,339.08794740005396,None,339.08794740005396,None,2022-08-05-11:40:23.098150,340.86287290009204,341.1713808000786,340.86287290009204,None,None,340.86287290009204,None,341.6711793400347,None,,,,21009,0001,2022_Aug_05_1134,localizer,2021.1.3,59.5277426143123,
block,faces,faces066.bmp,,,,,0,184,184,184,,,,,,,,,,,,,,,,,,,,,,,,,,,,,,,,,,,,,,,,,,None,,341.6711793400347,None,341.6711793400347,None,2022-08-05-11:40:23.916606,341.681564800092,341.98759350006003,341.681564800092,None,None,341.681564800092,None,342.4878710400546,None,,,,21009,0001,2022_Aug_05_1134,localizer,2021.1.3,59.5277426143123,
block,faces,faces010.bmp,,,,,0,185,185,185,,,,,,,,,,,,,,,,,,,,,,,,,,,,,,,,,,,,,,,,,,None,,342.4878710400546,None,342.4878710400546,None,2022-08-05-11:40:24.733295,342.4984893000219,342.80461470002774,342.4984893000219,None,None,342.4984893000219,None,343.30561754007357,None,,,,21009,0001,2022_Aug_05_1134,localizer,2021.1.3,59.5277426143123,
block,faces,faces047.bmp,,,,,0,186,186,186,,,,,,,,,,,,,,,,,,,,,,,,,,,,,,,,,,,,,,,,,,None,,343.30561754007357,None,343.30561754007357,None,2022-08-05-11:40:25.552114,343.3244817000814,343.63850980007555,343.3244817000814,None,None,343.3244817000814,None,344.1212405401049,None,,,,21009,0001,2022_Aug_05_1134,localizer,2021.1.3,59.5277426143123,
block,faces,faces017.bmp,,,,,0,187,187,187,,,,,,,,,,,,,,,,,,,,,,,,,,,,,,,,,,,,,,,,,,None,,344.1212405401049,None,344.1212405401049,None,2022-08-05-11:40:26.366880,344.1316113000503,344.43794290011283,344.1316113000503,None,None,344.1316113000503,None,344.93741043999324,None,,,,21009,0001,2022_Aug_05_1134,localizer,2021.1.3,59.5277426143123,
block,faces,faces043.bmp,,,,,0,188,188,188,,,,,,,,,,,,,,,,,,,,,,,,,,,,,,,,,,,,,,,,,,None,,344.93741043999324,None,344.93741043999324,None,2022-08-05-11:40:27.181930,344.93956810003147,345.25464890000876,344.93956810003147,None,None,344.93956810003147,None,345.7546007400844,None,,,,21009,0001,2022_Aug_05_1134,localizer,2021.1.3,59.5277426143123,
block,faces,faces008.bmp,,,,,0,189,189,189,,,,,,,,,,,,,,,,,,,,,,,,,,,,,,,,,,,,,,,,,,None,,345.7546007400844,None,345.7546007400844,None,2022-08-05-11:40:28.000242,345.7653653000016,346.0712925000116,345.7653653000016,None,None,345.7653653000016,None,346.5710292400792,None,,,,21009,0001,2022_Aug_05_1134,localizer,2021.1.3,59.5277426143123,
block,faces,faces078.bmp,,,,,0,190,190,190,,,,,,,,,,,,,,,,,,,,,,,,,,,,,,,,,,,,,,,,,,None,,346.5710292400792,None,346.5710292400792,None,2022-08-05-11:40:28.816511,346.5807174000656,346.8880341000622,346.5807174000656,None,None,346.5807174000656,None,347.3876831400441,None,,,,21009,0001,2022_Aug_05_1134,localizer,2021.1.3,59.5277426143123,
block,faces,faces037.bmp,,,,,0,191,191,191,,,,,,,,,,,,,,,,,,,,,,,,,,,,,,,,,,,,,,,,,,None,,347.3876831400441,None,347.3876831400441,None,2022-08-05-11:40:29.633112,347.38925000000745,347.68875110009685,347.38925000000745,None,None,347.38925000000745,None,348.20439784000627,None,,,,21009,0001,2022_Aug_05_1134,localizer,2021.1.3,59.5277426143123,
block,faces,faces014.bmp,,,,,0,192,192,192,,,,,,,,,,,,,,,,,,,,,,,,,,,,,,,,,,,,,,,,,,None,,348.20439784000627,None,348.20439784000627,None,2022-08-05-11:40:30.449823,348.2135095000267,348.5213837000774,348.2135095000267,None,None,348.2135095000267,None,349.02107324001844,None,,,,21009,0001,2022_Aug_05_1134,localizer,2021.1.3,59.5277426143123,
block,faces,faces007.bmp,,,,,0,193,193,193,,,,,,,,,,,,,,,,,,,,,,,,,,,,,,,,,,,,,,,,,,None,,349.02107324001844,None,349.02107324001844,None,2022-08-05-11:40:31.266504,349.0225581000559,349.3381421000231,349.0225581000559,None,None,349.0225581000559,None,349.83797414000145,None,,,,21009,0001,2022_Aug_05_1134,localizer,2021.1.3,59.5277426143123,
block,faces,faces026.bmp,,,,,0,194,194,194,,,,,,,,,,,,,,,,,,,,,,,,,,,,,,,,,,,,,,,,,,None,,349.83797414000145,None,349.83797414000145,None,2022-08-05-11:40:32.083644,349.8761860000668,350.18788720003795,349.8761860000668,None,None,349.8761860000668,None,350.6556081400951,None,,,,21009,0001,2022_Aug_05_1134,localizer,2021.1.3,59.5277426143123,
block,faces,faces081.bmp,,,,,0,195,195,195,,,,,,,,,,,,,,,,,,,,,,,,,,,,,,,,,,,,,,,,,,None,,350.6556081400951,None,350.6556081400951,None,2022-08-05-11:40:32.902015,350.6692436001031,350.9713293000823,350.6692436001031,None,None,350.6692436001031,None,351.4710626400076,None,,,,21009,0001,2022_Aug_05_1134,localizer,2021.1.3,59.5277426143123,
block,faces,faces060.bmp,,,,,0,196,196,196,,,,,,,,,,,,,,,,,,,,,,,,,,,,,,,,,,,,,,,,,,None,,351.4710626400076,None,351.4710626400076,None,2022-08-05-11:40:33.715495,351.47886610007845,351.79188640008215,351.47886610007845,None,None,351.47886610007845,None,352.2889296400128,None,,,,21009,0001,2022_Aug_05_1134,localizer,2021.1.3,59.5277426143123,
block_end,faces,faces063.bmp,,,,,0,197,197,197,,,,,,,,,,,,,,,,,,,,,,,,,,,,,,,,,,,,,,,,,,None,,352.2889296400128,None,352.2889296400128,None,2022-08-05-11:40:34.534321,352.28899590007495,352.6047019000398,352.28899590007495,None,None,352.28899590007495,None,353.0890593399992,None,,,,21009,0001,2022_Aug_05_1134,localizer,2021.1.3,59.5277426143123,
block_start,objects,objects020.bmp,,,,,0,198,198,198,,,,,,,,,,,,,,,,,,,,,,,,,,,,,,,,,,,,,,,,,,t,1.7364934000652283,353.08990700007416,None,353.08990700007416,None,2022-08-05-11:40:37.097929,354.8622438000748,355.1719094000291,354.8622438000748,None,None,354.8622438000748,None,355.6715799400583,None,,,,21009,0001,2022_Aug_05_1134,localizer,2021.1.3,59.5277426143123,
block,objects,objects080.bmp,,,,,0,199,199,199,,,,,,,,,,,,,,,,,,,,,,,,,,,,,,,,,,,,,,,,,,None,,355.6715799400583,None,355.6715799400583,None,2022-08-05-11:40:37.917066,355.6824716000119,355.9944799001096,355.6824716000119,None,None,355.6824716000119,None,356.4886979400646,None,,,,21009,0001,2022_Aug_05_1134,localizer,2021.1.3,59.5277426143123,
block,objects,objects054.bmp,,,,,0,200,200,200,,,,,,,,,,,,,,,,,,,,,,,,,,,,,,,,,,,,,,,,,,None,,356.4886979400646,None,356.4886979400646,None,2022-08-05-11:40:38.734123,356.49840230005793,356.80452650005464,356.49840230005793,None,None,356.49840230005793,None,357.3081777400104,None,,,,21009,0001,2022_Aug_05_1134,localizer,2021.1.3,59.5277426143123,
block,objects,objects024.bmp,,,,,0,201,201,201,,,,,,,,,,,,,,,,,,,,,,,,,,,,,,,,,,,,,,,,,,None,,357.3081777400104,None,357.3081777400104,None,2022-08-05-11:40:39.561525,357.3250972001115,357.6381914000958,357.3250972001115,None,None,357.3250972001115,None,358.1212162400363,None,,,,21009,0001,2022_Aug_05_1134,localizer,2021.1.3,59.5277426143123,
block,objects,objects001.bmp,,,,,0,202,202,202,,,,,,,,,,,,,,,,,,,,,,,,,,,,,,,,,,,,,,,,,,None,,358.1212162400363,None,358.1212162400363,None,2022-08-05-11:40:40.366643,358.13070740003604,358.4382848000387,358.13070740003604,None,None,358.13070740003604,None,358.9380926400656,None,,,,21009,0001,2022_Aug_05_1134,localizer,2021.1.3,59.5277426143123,
block,objects,objects015.bmp,,,,,0,203,203,203,,,,,,,,,,,,,,,,,,,,,,,,,,,,,,,,,,,,,,,,,,None,,358.9380926400656,None,358.9380926400656,None,2022-08-05-11:40:41.183519,358.93920830008574,359.25512810004875,358.93920830008574,None,None,358.93920830008574,None,359.7545026400359,None,,,,21009,0001,2022_Aug_05_1134,localizer,2021.1.3,59.5277426143123,
block,objects,objects038.bmp,,,,,0,204,204,204,,,,,,,,,,,,,,,,,,,,,,,,,,,,,,,,,,,,,,,,,,None,,359.7545026400359,None,359.7545026400359,None,2022-08-05-11:40:41.998936,359.7566377000185,360.07156850001775,359.7566377000185,None,None,359.7566377000185,None,360.5717591400491,None,,,,21009,0001,2022_Aug_05_1134,localizer,2021.1.3,59.5277426143123,
block,objects,objects038.bmp,,,,,0,205,205,205,,,,,,,,,,,,,,,,,,,,,,,,,,,,,,,,,,,,,,,,,,None,,360.5717591400491,None,360.5717591400491,None,2022-08-05-11:40:42.817179,360.5726918000728,360.87212030007504,360.5726918000728,None,y,360.5726918000728,None,361.3877358400961,None,0.42750729992985725,,,21009,0001,2022_Aug_05_1134,localizer,2021.1.3,59.5277426143123,
block,objects,objects069.bmp,,,,,0,206,206,206,,,,,,,,,,,,,,,,,,,,,,,,,,,,,,,,,,,,,,,,,,None,,361.3877358400961,None,361.3877358400961,None,2022-08-05-11:40:43.632170,361.3972997000674,361.7049984000623,361.3972997000674,None,None,361.3972997000674,None,362.20457484007346,None,,,,21009,0001,2022_Aug_05_1134,localizer,2021.1.3,59.5277426143123,
block,objects,objects016.bmp,,,,,0,207,207,207,,,,,,,,,,,,,,,,,,,,,,,,,,,,,,,,,,,,,,,,,,None,,362.20457484007346,None,362.20457484007346,None,2022-08-05-11:40:44.450001,362.2147816000506,362.52193080005236,362.2147816000506,None,None,362.2147816000506,None,363.0216081400169,None,,,,21009,0001,2022_Aug_05_1134,localizer,2021.1.3,59.5277426143123,
block,objects,objects058.bmp,,,,,0,208,208,208,,,,,,,,,,,,,,,,,,,,,,,,,,,,,,,,,,,,,,,,,,None,,363.0216081400169,None,363.0216081400169,None,2022-08-05-11:40:45.267032,363.0227581000654,363.3380223000422,363.0227581000654,None,None,363.0227581000654,None,363.8384889400797,None,,,,21009,0001,2022_Aug_05_1134,localizer,2021.1.3,59.5277426143123,
block,objects,objects044.bmp,,,,,0,209,209,209,,,,,,,,,,,,,,,,,,,,,,,,,,,,,,,,,,,,,,,,,,None,,363.8384889400797,None,363.8384889400797,None,2022-08-05-11:40:46.084181,363.8494709000224,364.1547179000918,363.8494709000224,None,None,363.8494709000224,None,364.654474140075,None,,,,21009,0001,2022_Aug_05_1134,localizer,2021.1.3,59.5277426143123,
block,objects,objects049.bmp,,,,,0,210,210,210,,,,,,,,,,,,,,,,,,,,,,,,,,,,,,,,,,,,,,,,,,None,,364.654474140075,None,364.654474140075,None,2022-08-05-11:40:46.898908,364.65653870010283,364.9718338000821,364.65653870010283,None,None,364.65653870010283,None,365.47157054003327,None,,,,21009,0001,2022_Aug_05_1134,localizer,2021.1.3,59.5277426143123,
block,objects,objects066.bmp,,,,,0,211,211,211,,,,,,,,,,,,,,,,,,,,,,,,,,,,,,,,,,,,,,,,,,None,,365.47157054003327,None,365.47157054003327,None,2022-08-05-11:40:47.716994,365.48149010003544,365.78864170005545,365.48149010003544,None,None,365.48149010003544,None,366.28797114004846,None,,,,21009,0001,2022_Aug_05_1134,localizer,2021.1.3,59.5277426143123,
block_end,objects,objects071.bmp,,,,,0,212,212,212,,,,,,,,,,,,,,,,,,,,,,,,,,,,,,,,,,,,,,,,,,None,,366.28797114004846,None,366.28797114004846,None,2022-08-05-11:40:48.533341,366.28935170010664,366.60490490007214,366.28935170010664,None,None,366.28935170010664,None,367.1045925399987,None,,,,21009,0001,2022_Aug_05_1134,localizer,2021.1.3,59.5277426143123,
block_start,scenes,scenes049.bmp,,,,,0,213,213,213,,,,,,,,,,,,,,,,,,,,,,,,,,,,,,,,,,,,,,,,,,t,1.7216406000079587,367.1047674000729,None,367.1047674000729,None,2022-08-05-11:40:51.099184,368.86570590001065,369.1715286000399,368.86570590001065,None,None,368.86570590001065,None,369.6715909400256,None,,,,21009,0001,2022_Aug_05_1134,localizer,2021.1.3,59.5277426143123,
block,scenes,scenes018.bmp,,,,,0,214,214,214,,,,,,,,,,,,,,,,,,,,,,,,,,,,,,,,,,,,,,,,,,None,,369.6715909400256,None,369.6715909400256,None,2022-08-05-11:40:51.917228,369.6725609001005,369.98808760009706,369.6725609001005,None,None,369.6725609001005,None,370.4878911400912,None,,,,21009,0001,2022_Aug_05_1134,localizer,2021.1.3,59.5277426143123,
block,scenes,scenes013.bmp,,,,,0,215,215,215,,,,,,,,,,,,,,,,,,,,,,,,,,,,,,,,,,,,,,,,,,None,,370.4878911400912,None,370.4878911400912,None,2022-08-05-11:40:52.733420,370.49782690010034,370.8048606000375,370.49782690010034,None,None,370.49782690010034,None,371.3045489400858,None,,,,21009,0001,2022_Aug_05_1134,localizer,2021.1.3,59.5277426143123,
block,scenes,scenes063.bmp,,,,,0,216,216,216,,,,,,,,,,,,,,,,,,,,,,,,,,,,,,,,,,,,,,,,,,None,,371.3045489400858,None,371.3045489400858,None,2022-08-05-11:40:53.549884,371.31476120010484,371.62161030003335,371.31476120010484,None,None,371.31476120010484,None,372.1217112400802,None,,,,21009,0001,2022_Aug_05_1134,localizer,2021.1.3,59.5277426143123,
block,scenes,scenes039.bmp,,,,,0,217,217,217,,,,,,,,,,,,,,,,,,,,,,,,,,,,,,,,,,,,,,,,,,None,,372.1217112400802,None,372.1217112400802,None,2022-08-05-11:40:54.367157,372.13289830007125,372.4402720000362,372.13289830007125,None,None,372.13289830007125,None,372.9377534400439,None,,,,21009,0001,2022_Aug_05_1134,localizer,2021.1.3,59.5277426143123,
block,scenes,scenes015.bmp,,,,,0,218,218,218,,,,,,,,,,,,,,,,,,,,,,,,,,,,,,,,,,,,,,,,,,None,,372.9377534400439,None,372.9377534400439,None,2022-08-05-11:40:55.182206,372.9398930000607,373.25505900010467,372.9398930000607,None,None,372.9398930000607,None,373.73899034007917,None,,,,21009,0001,2022_Aug_05_1134,localizer,2021.1.3,59.5277426143123,
block,scenes,scenes009.bmp,,,,,0,219,219,219,,,,,,,,,,,,,,,,,,,,,,,,,,,,,,,,,,,,,,,,,,None,,373.73899034007917,None,373.73899034007917,None,2022-08-05-11:40:55.987583,373.7418615000788,374.05480740009807,373.7418615000788,373.7418615000788,None,373.7418615000788,373.7418615000788,374.5609195400495,None,,,,21009,0001,2022_Aug_05_1134,localizer,2021.1.3,59.5277426143123,
block,scenes,scenes021.bmp,,,,,0,220,220,220,,,,,,,,,,,,,,,,,,,,,,,,,,,,,,,,,,,,,,,,,,None,,374.5609195400495,None,374.5609195400495,None,2022-08-05-11:40:56.813262,374.5807024000678,374.8883151001064,374.5807024000678,None,None,374.5807024000678,None,375.3716332400683,None,,,,21009,0001,2022_Aug_05_1134,localizer,2021.1.3,59.5277426143123,
block,scenes,scenes087.bmp,,,,,0,221,221,221,,,,,,,,,,,,,,,,,,,,,,,,,,,,,,,,,,,,,,,,,,None,,375.3716332400683,None,375.3716332400683,None,2022-08-05-11:40:57.617251,375.3727336000884,375.68836090003606,375.3727336000884,None,None,375.3727336000884,None,376.18791964002884,None,,,,21009,0001,2022_Aug_05_1134,localizer,2021.1.3,59.5277426143123,
block,scenes,scenes061.bmp,,,,,0,222,222,222,,,,,,,,,,,,,,,,,,,,,,,,,,,,,,,,,,,,,,,,,,None,,376.18791964002884,None,376.18791964002884,None,2022-08-05-11:40:58.433403,376.19806160009466,376.50497800006997,376.19806160009466,None,None,376.19806160009466,None,377.00922484002075,None,,,,21009,0001,2022_Aug_05_1134,localizer,2021.1.3,59.5277426143123,
block,scenes,scenes041.bmp,,,,,0,223,223,223,,,,,,,,,,,,,,,,,,,,,,,,,,,,,,,,,,,,,,,,,,None,,377.00922484002075,None,377.00922484002075,None,2022-08-05-11:40:59.253661,377.00751800008584,377.32171700010076,377.00751800008584,None,None,377.00751800008584,None,377.820902040042,None,,,,21009,0001,2022_Aug_05_1134,localizer,2021.1.3,59.5277426143123,
block,scenes,scenes027.bmp,,,,,0,224,224,224,,,,,,,,,,,,,,,,,,,,,,,,,,,,,,,,,,,,,,,,,,None,,377.820902040042,None,377.820902040042,None,2022-08-05-11:41:00.065195,377.8240377000766,378.13824300002307,377.8240377000766,None,None,377.8240377000766,None,378.6384399401024,None,,,,21009,0001,2022_Aug_05_1134,localizer,2021.1.3,59.5277426143123,
block,scenes,scenes043.bmp,,,,,0,225,225,225,,,,,,,,,,,,,,,,,,,,,,,,,,,,,,,,,,,,,,,,,,None,,378.6384399401024,None,378.6384399401024,None,2022-08-05-11:41:00.884042,378.6497254000278,378.9548213001108,378.6497254000278,None,None,378.6497254000278,None,379.4545851400355,None,,,,21009,0001,2022_Aug_05_1134,localizer,2021.1.3,59.5277426143123,
block,scenes,scenes053.bmp,,,,,0,226,226,226,,,,,,,,,,,,,,,,,,,,,,,,,,,,,,,,,,,,,,,,,,None,,379.4545851400355,None,379.4545851400355,None,2022-08-05-11:41:01.700095,379.46356040006503,379.77164180006366,379.46356040006503,None,None,379.46356040006503,None,380.27128514000213,None,,,,21009,0001,2022_Aug_05_1134,localizer,2021.1.3,59.5277426143123,
block_end,scenes,scenes033.bmp,,,,,0,227,227,227,,,,,,,,,,,,,,,,,,,,,,,,,,,,,,,,,,,,,,,,,,None,,380.27128514000213,None,380.27128514000213,None,2022-08-05-11:41:02.515737,380.2728378000902,380.5882513000397,380.2728378000902,None,None,380.2728378000902,None,381.07188344006425,None,,,,21009,0001,2022_Aug_05_1134,localizer,2021.1.3,59.5277426143123,
block_start,scrambled,scrambled088.bmp,,,,,0,228,228,228,,,,,,,,,,,,,,,,,,,,,,,,,,,,,,,,,,,,,,,,,,t,1.753807400004007,381.0726243000245,None,381.0726243000245,None,2022-08-05-11:41:05.102381,382.86759570008144,383.1718712000875,382.86759570008144,None,None,382.86759570008144,None,383.6708961400902,None,,,,21009,0001,2022_Aug_05_1134,localizer,2021.1.3,59.5277426143123,
block,scrambled,scrambled006.bmp,,,,,0,229,229,229,,,,,,,,,,,,,,,,,,,,,,,,,,,,,,,,,,,,,,,,,,None,,383.6708961400902,None,383.6708961400902,None,2022-08-05-11:41:05.915335,383.673202300095,383.99484990001656,383.673202300095,None,None,383.673202300095,None,384.48796604007947,None,,,,21009,0001,2022_Aug_05_1134,localizer,2021.1.3,59.5277426143123,
block,scrambled,scrambled009.bmp,,,,,0,230,230,230,,,,,,,,,,,,,,,,,,,,,,,,,,,,,,,,,,,,,,,,,,None,,384.48796604007947,None,384.48796604007947,None,2022-08-05-11:41:06.732402,384.49676500004716,384.80498280003667,384.49676500004716,None,None,384.49676500004716,None,385.31110594007185,None,,,,21009,0001,2022_Aug_05_1134,localizer,2021.1.3,59.5277426143123,
block,scrambled,scrambled085.bmp,,,,,0,231,231,231,,,,,,,,,,,,,,,,,,,,,,,,,,,,,,,,,,,,,,,,,,None,,385.31110594007185,None,385.31110594007185,None,2022-08-05-11:41:07.563511,385.31740840000566,385.62167190003674,385.31740840000566,None,None,385.31740840000566,None,386.12180854000616,None,,,,21009,0001,2022_Aug_05_1134,localizer,2021.1.3,59.5277426143123,
block,scrambled,scrambled041.bmp,,,,,0,232,232,232,,,,,,,,,,,,,,,,,,,,,,,,,,,,,,,,,,,,,,,,,,None,,386.12180854000616,None,386.12180854000616,None,2022-08-05-11:41:08.367229,386.1231858000392,386.438858400099,386.1231858000392,None,None,386.1231858000392,None,386.938543740008,None,,,,21009,0001,2022_Aug_05_1134,localizer,2021.1.3,59.5277426143123,
block,scrambled,scrambled014.bmp,,,,,0,233,233,233,,,,,,,,,,,,,,,,,,,,,,,,,,,,,,,,,,,,,,,,,,None,,386.938543740008,None,386.938543740008,None,2022-08-05-11:41:09.184154,386.9397468001116,387.2556473000441,386.9397468001116,None,None,386.9397468001116,None,387.75442604003473,None,,,,21009,0001,2022_Aug_05_1134,localizer,2021.1.3,59.5277426143123,
block,scrambled,scrambled065.bmp,,,,,0,234,234,234,,,,,,,,,,,,,,,,,,,,,,,,,,,,,,,,,,,,,,,,,,None,,387.75442604003473,None,387.75442604003473,None,2022-08-05-11:41:09.998865,387.7569036000641,388.0552303000586,387.7569036000641,None,None,387.7569036000641,None,388.5715280400356,None,,,,21009,0001,2022_Aug_05_1134,localizer,2021.1.3,59.5277426143123,
block,scrambled,scrambled027.bmp,,,,,0,235,235,235,,,,,,,,,,,,,,,,,,,,,,,,,,,,,,,,,,,,,,,,,,None,,388.5715280400356,None,388.5715280400356,None,2022-08-05-11:41:10.816950,388.57263830001466,388.8879738000687,388.57263830001466,None,None,388.57263830001466,None,389.38795984005554,None,,,,21009,0001,2022_Aug_05_1134,localizer,2021.1.3,59.5277426143123,
block,scrambled,scrambled055.bmp,,,,,0,236,236,236,,,,,,,,,,,,,,,,,,,,,,,,,,,,,,,,,,,,,,,,,,None,,389.38795984005554,None,389.38795984005554,None,2022-08-05-11:41:11.633391,389.38931080000475,389.705231100088,389.38931080000475,None,None,389.38931080000475,None,390.20454284006263,None,,,,21009,0001,2022_Aug_05_1134,localizer,2021.1.3,59.5277426143123,
block,scrambled,scrambled021.bmp,,,,,0,237,237,237,,,,,,,,,,,,,,,,,,,,,,,,,,,,,,,,,,,,,,,,,,None,,390.20454284006263,None,390.20454284006263,None,2022-08-05-11:41:12.449469,390.21305140003096,390.52141340007074,390.21305140003096,None,None,390.21305140003096,None,391.021557640098,None,,,,21009,0001,2022_Aug_05_1134,localizer,2021.1.3,59.5277426143123,
block,scrambled,scrambled047.bmp,,,,,0,238,238,238,,,,,,,,,,,,,,,,,,,,,,,,,,,,,,,,,,,,,,,,,,None,,391.021557640098,None,391.021557640098,None,2022-08-05-11:41:13.266984,391.02251810010057,391.3222732000286,391.02251810010057,None,None,391.02251810010057,None,391.837826840044,None,,,,21009,0001,2022_Aug_05_1134,localizer,2021.1.3,59.5277426143123,
block,scrambled,scrambled083.bmp,,,,,0,239,239,239,,,,,,,,,,,,,,,,,,,,,,,,,,,,,,,,,,,,,,,,,,None,,391.837826840044,None,391.837826840044,None,2022-08-05-11:41:14.083258,391.83929750008974,392.15476530010346,391.83929750008974,None,None,391.83929750008974,None,392.65454964006784,None,,,,21009,0001,2022_Aug_05_1134,localizer,2021.1.3,59.5277426143123,
block,scrambled,scrambled039.bmp,,,,,0,240,240,240,,,,,,,,,,,,,,,,,,,,,,,,,,,,,,,,,,,,,,,,,,None,,392.65454964006784,None,392.65454964006784,None,2022-08-05-11:41:14.899978,392.66406190011185,392.9715898000868,392.66406190011185,None,None,392.66406190011185,None,393.4716866401024,None,,,,21009,0001,2022_Aug_05_1134,localizer,2021.1.3,59.5277426143123,
block,scrambled,scrambled060.bmp,,,,,0,241,241,241,,,,,,,,,,,,,,,,,,,,,,,,,,,,,,,,,,,,,,,,,,None,,393.4716866401024,None,393.4716866401024,None,2022-08-05-11:41:15.717112,393.47259740007576,393.787954700063,393.47259740007576,None,None,393.47259740007576,None,394.28772954007144,None,,,,21009,0001,2022_Aug_05_1134,localizer,2021.1.3,59.5277426143123,
block_end,scrambled,scrambled023.bmp,,,,,0,242,242,242,,,,,,,,,,,,,,,,,,,,,,,,,,,,,,,,,,,,,,,,,,None,,394.28772954007144,None,394.28772954007144,None,2022-08-05-11:41:16.532119,394.2897898000665,394.60488990007434,394.2897898000665,None,None,394.2897898000665,None,395.1048028400866,None,,,,21009,0001,2022_Aug_05_1134,localizer,2021.1.3,59.5277426143123,
null_block,null_block,null_block.bmp,,,,,0,243,243,243,,,,,,,,,,,,,,,,,,,,,,,,,,,,,,,,,,,,,,,,,,t,1.7215748999733478,395.1051135000307,None,395.1051135000307,None,2022-08-05-11:41:19.091483,396.84516804006415,None,396.84516804006415,None,None,396.84516804006415,None,396.8501357000787,None,,,,21009,0001,2022_Aug_05_1134,localizer,2021.1.3,59.5277426143123,
,,,,,,,,,,,,,,,,,,,,,,,,,,,,,,,,,,,,,,,,,,,,,,,,,,,,,,,,,,,,,,,,,,,,,408.8547022000421,None,,,,,,,
